[{"view_history":"[{\"page_index\":0,\"viewing_time\":3033.125000016298},{\"page_index\":1,\"viewing_time\":3434.5699999830686},{\"page_index\":2,\"viewing_time\":1945.8549999981187},{\"page_index\":3,\"viewing_time\":44434.505000011995},{\"page_index\":4,\"viewing_time\":14365.644999983488},{\"page_index\":5,\"viewing_time\":6256.255000014789}]","rt":73470.52999999141,"trial_type":"pit-instructions","trial_index":0,"time_elapsed":73477,"internal_node_id":"0.0-0.0-0.0","task_version":"battery-v0.1"},{"rune":"","hex":"#FFFFF080","correct":32,"choice":32,"rt":1022.7149999991525,"accuracy":1,"outcome":"+10","keys":[2523.064999986673,2618.9749999903142],"total_keys":2,"block":0,"trial_type":"pit-trial","trial_index":1,"time_elapsed":77203,"internal_node_id":"0.0-0.0-1.0-0.0","task_version":"battery-v0.1"},{"rune":"","hex":"#FFFFF080","correct":32,"choice":-1,"rt":-1,"accuracy":0,"outcome":"+0","keys":[45.86499999277294,1420.6950000079814,3613.344999990659],"total_keys":3,"block":0,"trial_type":"pit-trial","trial_index":2,"time_elapsed":81206,"internal_node_id":"0.0-0.0-1.0-0.1","task_version":"battery-v0.1"},{"rune":"","hex":"#FFFFF080","correct":32,"choice":32,"rt":731.2200000160374,"accuracy":1,"outcome":"+10","keys":[2233.135000016773],"total_keys":1,"block":0,"trial_type":"pit-trial","trial_index":3,"time_elapsed":84641,"internal_node_id":"0.0-0.0-1.0-0.2","task_version":"battery-v0.1"},{"rune":"","hex":"#FFFFF080","correct":32,"choice":32,"rt":441.4450000040233,"accuracy":1,"outcome":"+10","keys":[1942.4700000090525],"total_keys":1,"block":0,"trial_type":"pit-trial","trial_index":4,"time_elapsed":87786,"internal_node_id":"0.0-0.0-1.0-0.3","task_version":"battery-v0.1"},{"view_history":"[{\"page_index\":0,\"viewing_time\":2953.979999991134}]","rt":2954.2099999962375,"trial_type":"pit-instructions","trial_index":5,"time_elapsed":90741,"internal_node_id":"0.0-0.0-2.0","task_version":"battery-v0.1"},{"rune":"","hex":"#FFFFF080","correct":-1,"choice":-1,"rt":-1,"accuracy":1,"outcome":"+10","keys":[],"total_keys":0,"block":0,"trial_type":"pit-trial","trial_index":6,"time_elapsed":94745,"internal_node_id":"0.0-0.0-3.0-0.0","task_version":"battery-v0.1"},{"rune":"","hex":"#FFFFF080","correct":-1,"choice":-1,"rt":-1,"accuracy":1,"outcome":"+10","keys":[],"total_keys":0,"block":0,"trial_type":"pit-trial","trial_index":7,"time_elapsed":98748,"internal_node_id":"0.0-0.0-3.0-0.1","task_version":"battery-v0.1"},{"rune":"","hex":"#FFFFF080","correct":-1,"choice":-1,"rt":-1,"accuracy":1,"outcome":"+10","keys":[],"total_keys":0,"block":0,"trial_type":"pit-trial","trial_index":8,"time_elapsed":102751,"internal_node_id":"0.0-0.0-3.0-0.2","task_version":"battery-v0.1"},{"rune":"","hex":"#FFFFF080","correct":-1,"choice":-1,"rt":-1,"accuracy":1,"outcome":"+10","keys":[],"total_keys":0,"block":0,"trial_type":"pit-trial","trial_index":9,"time_elapsed":106755,"internal_node_id":"0.0-0.0-3.0-0.3","task_version":"battery-v0.1"},{"responses":["Press SPACE","Do nothing"],"num_errors":0,"rt":6125.9399999980815,"trial_type":"pit-comprehension","trial_index":10,"time_elapsed":112883,"internal_node_id":"0.0-0.0-4.0","task_version":"battery-v0.1"},{"view_history":"[{\"page_index\":0,\"viewing_time\":5889.709999988554},{\"page_index\":1,\"viewing_time\":5351.250000006985},{\"page_index\":2,\"viewing_time\":4968.684999999823},{\"page_index\":3,\"viewing_time\":7835.385000013048},{\"page_index\":4,\"viewing_time\":6199.1500000003725},{\"page_index\":5,\"viewing_time\":13136.869999987539},{\"page_index\":6,\"viewing_time\":11891.99999999255},{\"page_index\":7,\"viewing_time\":6211.560000025202},{\"page_index\":8,\"viewing_time\":138582.4099999736},{\"page_index\":9,\"viewing_time\":12394.240000023274},{\"page_index\":10,\"viewing_time\":4068.700000003446}]","rt":216530.2800000063,"trial_type":"pit-instructions","trial_index":11,"time_elapsed":329416,"internal_node_id":"0.0-1.0-0.0","task_version":"battery-v0.1"},{"responses":["+10","-1","True","True"],"num_errors":0,"rt":57760.68000000669,"trial_type":"pit-comprehension","trial_index":12,"time_elapsed":387179,"internal_node_id":"0.0-1.0-1.0","task_version":"battery-v0.1"},{"view_history":"[{\"page_index\":0,\"viewing_time\":1737.5349999929313},{\"page_index\":1,\"viewing_time\":77463.92999999807}]","rt":79201.73000000068,"trial_type":"pit-instructions","trial_index":13,"time_elapsed":466383,"internal_node_id":"0.0-2.0","task_version":"battery-v0.1"},{"rune":"I","hex":"#f73b6a7A","correct":-1,"choice":-1,"rt":-1,"accuracy":1,"outcome":"-1","keys":[],"total_keys":0,"block":1,"trial":1,"robot":4,"valence":"lose","action":"no-go","sham":0,"trial_type":"pit-trial","trial_index":14,"time_elapsed":470386,"internal_node_id":"0.0-3.0","task_version":"battery-v0.1"},{"rune":"U","hex":"#3366ff99","correct":-1,"choice":32,"rt":632.7449999807868,"accuracy":0,"outcome":"+10","keys":[2133.594999992056],"total_keys":1,"block":1,"trial":2,"robot":2,"valence":"win","action":"no-go","sham":1,"trial_type":"pit-trial","trial_index":15,"time_elapsed":473722,"internal_node_id":"0.0-4.0","task_version":"battery-v0.1"},{"rune":"F","hex":"#3366ff99","correct":32,"choice":32,"rt":1080.3100000193808,"accuracy":1,"outcome":"+1","keys":[2582.190000015544],"total_keys":1,"block":1,"trial":3,"robot":1,"valence":"win","action":"go","sham":1,"trial_type":"pit-trial","trial_index":16,"time_elapsed":477506,"internal_node_id":"0.0-5.0","task_version":"battery-v0.1"},{"rune":"P","hex":"#3366ff99","correct":32,"choice":32,"rt":977.5099999969825,"accuracy":1,"outcome":"+10","keys":[2477.634999988368],"total_keys":1,"block":1,"trial":4,"robot":1,"valence":"win","action":"go","sham":0,"trial_type":"pit-trial","trial_index":17,"time_elapsed":481186,"internal_node_id":"0.0-6.0","task_version":"battery-v0.1"},{"rune":"U","hex":"#3366ff99","correct":-1,"choice":32,"rt":832.9399999929592,"accuracy":0,"outcome":"+1","keys":[2334.1199999849778],"total_keys":1,"block":1,"trial":5,"robot":2,"valence":"win","action":"no-go","sham":0,"trial_type":"pit-trial","trial_index":18,"time_elapsed":484722,"internal_node_id":"0.0-7.0","task_version":"battery-v0.1"},{"rune":"P","hex":"#3366ff99","correct":32,"choice":32,"rt":657.7549999929033,"accuracy":1,"outcome":"+1","keys":[2158.8300000003073],"total_keys":1,"block":1,"trial":6,"robot":1,"valence":"win","action":"go","sham":1,"trial_type":"pit-trial","trial_index":19,"time_elapsed":488083,"internal_node_id":"0.0-8.0","task_version":"battery-v0.1"},{"rune":"I","hex":"#f73b6a7A","correct":-1,"choice":32,"rt":952.3450000269804,"accuracy":0,"outcome":"-1","keys":[2453.529999998864],"total_keys":1,"block":1,"trial":7,"robot":4,"valence":"lose","action":"no-go","sham":1,"trial_type":"pit-trial","trial_index":20,"time_elapsed":491738,"internal_node_id":"0.0-9.0","task_version":"battery-v0.1"},{"rune":"F","hex":"#3366ff99","correct":32,"choice":32,"rt":833.1699999980628,"accuracy":1,"outcome":"+10","keys":[2334.1099999961443],"total_keys":1,"block":1,"trial":8,"robot":1,"valence":"win","action":"go","sham":0,"trial_type":"pit-trial","trial_index":21,"time_elapsed":495274,"internal_node_id":"0.0-10.0","task_version":"battery-v0.1"},{"rune":"U","hex":"#3366ff99","correct":-1,"choice":-1,"rt":-1,"accuracy":1,"outcome":"+10","keys":[],"total_keys":0,"block":1,"trial":9,"robot":2,"valence":"win","action":"no-go","sham":0,"trial_type":"pit-trial","trial_index":22,"time_elapsed":499277,"internal_node_id":"0.0-11.0","task_version":"battery-v0.1"},{"rune":"P","hex":"#3366ff99","correct":32,"choice":32,"rt":846.9650000042748,"accuracy":1,"outcome":"+10","keys":[2348.040000011679],"total_keys":1,"block":1,"trial":10,"robot":1,"valence":"win","action":"go","sham":0,"trial_type":"pit-trial","trial_index":23,"time_elapsed":502826,"internal_node_id":"0.0-12.0","task_version":"battery-v0.1"},{"rune":"F","hex":"#3366ff99","correct":32,"choice":32,"rt":881.7149999958929,"accuracy":1,"outcome":"+1","keys":[2381.7850000050385],"total_keys":1,"block":1,"trial":11,"robot":1,"valence":"win","action":"go","sham":1,"trial_type":"pit-trial","trial_index":24,"time_elapsed":506410,"internal_node_id":"0.0-13.0","task_version":"battery-v0.1"},{"rune":"I","hex":"#f73b6a7A","correct":-1,"choice":32,"rt":953.7800000107381,"accuracy":0,"outcome":"-10","keys":[2454.679999995278],"total_keys":1,"block":1,"trial":12,"robot":4,"valence":"lose","action":"no-go","sham":0,"trial_type":"pit-trial","trial_index":25,"time_elapsed":510067,"internal_node_id":"0.0-14.0","task_version":"battery-v0.1"},{"rune":"P","hex":"#3366ff99","correct":32,"choice":32,"rt":1104.6300000161864,"accuracy":1,"outcome":"+10","keys":[2605.2199999976438],"total_keys":1,"block":1,"trial":13,"robot":1,"valence":"win","action":"go","sham":0,"trial_type":"pit-trial","trial_index":26,"time_elapsed":513874,"internal_node_id":"0.0-15.0","task_version":"battery-v0.1"},{"rune":"I","hex":"#f73b6a7A","correct":-1,"choice":-1,"rt":-1,"accuracy":1,"outcome":"-10","keys":[],"total_keys":0,"block":1,"trial":14,"robot":4,"valence":"lose","action":"no-go","sham":1,"trial_type":"pit-trial","trial_index":27,"time_elapsed":517877,"internal_node_id":"0.0-16.0","task_version":"battery-v0.1"},{"rune":"F","hex":"#3366ff99","correct":32,"choice":32,"rt":791.174999991199,"accuracy":1,"outcome":"+10","keys":[2291.254999989178],"total_keys":1,"block":1,"trial":15,"robot":1,"valence":"win","action":"go","sham":0,"trial_type":"pit-trial","trial_index":28,"time_elapsed":521370,"internal_node_id":"0.0-17.0","task_version":"battery-v0.1"},{"rune":"U","hex":"#3366ff99","correct":-1,"choice":32,"rt":608.2849999947939,"accuracy":0,"outcome":"+1","keys":[2110.3000000002794],"total_keys":1,"block":1,"trial":16,"robot":2,"valence":"win","action":"no-go","sham":0,"trial_type":"pit-trial","trial_index":29,"time_elapsed":524682,"internal_node_id":"0.0-18.0","task_version":"battery-v0.1"},{"rune":"P","hex":"#3366ff99","correct":32,"choice":32,"rt":641.4299999887589,"accuracy":1,"outcome":"+10","keys":[2142.660000012256],"total_keys":1,"block":1,"trial":17,"robot":1,"valence":"win","action":"go","sham":0,"trial_type":"pit-trial","trial_index":30,"time_elapsed":528026,"internal_node_id":"0.0-19.0","task_version":"battery-v0.1"},{"rune":"I","hex":"#f73b6a7A","correct":-1,"choice":-1,"rt":-1,"accuracy":1,"outcome":"-1","keys":[],"total_keys":0,"block":1,"trial":18,"robot":4,"valence":"lose","action":"no-go","sham":0,"trial_type":"pit-trial","trial_index":31,"time_elapsed":532029,"internal_node_id":"0.0-20.0","task_version":"battery-v0.1"},{"rune":"U","hex":"#3366ff99","correct":-1,"choice":32,"rt":677.0399999804795,"accuracy":0,"outcome":"+1","keys":[2178.55499999132],"total_keys":1,"block":1,"trial":19,"robot":2,"valence":"win","action":"no-go","sham":0,"trial_type":"pit-trial","trial_index":32,"time_elapsed":535411,"internal_node_id":"0.0-21.0","task_version":"battery-v0.1"},{"rune":"F","hex":"#3366ff99","correct":32,"choice":-1,"rt":-1,"accuracy":0,"outcome":"+1","keys":[],"total_keys":0,"block":1,"trial":20,"robot":1,"valence":"win","action":"go","sham":0,"trial_type":"pit-trial","trial_index":33,"time_elapsed":539413,"internal_node_id":"0.0-22.0","task_version":"battery-v0.1"},{"rune":"P","hex":"#3366ff99","correct":32,"choice":32,"rt":381.9099999964237,"accuracy":1,"outcome":"+10","keys":[1883.0000000016298],"total_keys":1,"block":1,"trial":21,"robot":1,"valence":"win","action":"go","sham":0,"trial_type":"pit-trial","trial_index":34,"time_elapsed":542498,"internal_node_id":"0.0-23.0","task_version":"battery-v0.1"},{"rune":"U","hex":"#3366ff99","correct":-1,"choice":-1,"rt":-1,"accuracy":1,"outcome":"+1","keys":[],"total_keys":0,"block":1,"trial":22,"robot":2,"valence":"win","action":"no-go","sham":1,"trial_type":"pit-trial","trial_index":35,"time_elapsed":546501,"internal_node_id":"0.0-24.0","task_version":"battery-v0.1"},{"rune":"I","hex":"#f73b6a7A","correct":-1,"choice":-1,"rt":-1,"accuracy":1,"outcome":"-10","keys":[],"total_keys":0,"block":1,"trial":23,"robot":4,"valence":"lose","action":"no-go","sham":1,"trial_type":"pit-trial","trial_index":36,"time_elapsed":550505,"internal_node_id":"0.0-25.0","task_version":"battery-v0.1"},{"rune":"F","hex":"#3366ff99","correct":32,"choice":-1,"rt":-1,"accuracy":0,"outcome":"+10","keys":[],"total_keys":0,"block":1,"trial":24,"robot":1,"valence":"win","action":"go","sham":1,"trial_type":"pit-trial","trial_index":37,"time_elapsed":554508,"internal_node_id":"0.0-26.0","task_version":"battery-v0.1"},{"rune":"U","hex":"#3366ff99","correct":-1,"choice":32,"rt":447.02000002143905,"accuracy":0,"outcome":"+1","keys":[1948.0000000039581],"total_keys":1,"block":1,"trial":25,"robot":2,"valence":"win","action":"no-go","sham":0,"trial_type":"pit-trial","trial_index":38,"time_elapsed":557658,"internal_node_id":"0.0-27.0","task_version":"battery-v0.1"},{"rune":"F","hex":"#3366ff99","correct":32,"choice":32,"rt":576.4650000201073,"accuracy":1,"outcome":"+10","keys":[2077.259999990929],"total_keys":1,"block":1,"trial":26,"robot":1,"valence":"win","action":"go","sham":0,"trial_type":"pit-trial","trial_index":39,"time_elapsed":560938,"internal_node_id":"0.0-28.0","task_version":"battery-v0.1"},{"rune":"P","hex":"#3366ff99","correct":32,"choice":32,"rt":657.3550000030082,"accuracy":1,"outcome":"+1","keys":[2158.575000008568],"total_keys":1,"block":1,"trial":27,"robot":1,"valence":"win","action":"go","sham":1,"trial_type":"pit-trial","trial_index":40,"time_elapsed":564298,"internal_node_id":"0.0-29.0","task_version":"battery-v0.1"},{"rune":"I","hex":"#f73b6a7A","correct":-1,"choice":32,"rt":1169.4649999844842,"accuracy":0,"outcome":"-10","keys":[2670.400000002701],"total_keys":1,"block":1,"trial":28,"robot":4,"valence":"lose","action":"no-go","sham":0,"trial_type":"pit-trial","trial_index":41,"time_elapsed":568171,"internal_node_id":"0.0-30.0","task_version":"battery-v0.1"},{"rune":"P","hex":"#3366ff99","correct":32,"choice":32,"rt":399.8600000049919,"accuracy":1,"outcome":"+10","keys":[1900.9549999900628],"total_keys":1,"block":1,"trial":29,"robot":1,"valence":"win","action":"go","sham":0,"trial_type":"pit-trial","trial_index":42,"time_elapsed":571274,"internal_node_id":"0.0-31.0","task_version":"battery-v0.1"},{"rune":"I","hex":"#f73b6a7A","correct":-1,"choice":-1,"rt":-1,"accuracy":1,"outcome":"-1","keys":[],"total_keys":0,"block":1,"trial":30,"robot":4,"valence":"lose","action":"no-go","sham":0,"trial_type":"pit-trial","trial_index":43,"time_elapsed":575277,"internal_node_id":"0.0-32.0","task_version":"battery-v0.1"},{"rune":"F","hex":"#3366ff99","correct":32,"choice":32,"rt":829.1949999984354,"accuracy":1,"outcome":"+10","keys":[2330.2400000102352],"total_keys":1,"block":1,"trial":31,"robot":1,"valence":"win","action":"go","sham":0,"trial_type":"pit-trial","trial_index":44,"time_elapsed":578810,"internal_node_id":"0.0-33.0","task_version":"battery-v0.1"},{"rune":"U","hex":"#3366ff99","correct":-1,"choice":32,"rt":672.9300000006333,"accuracy":0,"outcome":"+1","keys":[2174.0149999968708],"total_keys":1,"block":1,"trial":32,"robot":2,"valence":"win","action":"no-go","sham":0,"trial_type":"pit-trial","trial_index":45,"time_elapsed":582186,"internal_node_id":"0.0-34.0","task_version":"battery-v0.1"},{"rune":"J","hex":"#3366ff99","correct":32,"choice":32,"rt":841.870000003837,"accuracy":1,"outcome":"+10","keys":[2341.9299999950454],"total_keys":1,"block":1,"trial":33,"robot":1,"valence":"win","action":"go","sham":0,"trial_type":"pit-trial","trial_index":46,"time_elapsed":585730,"internal_node_id":"0.0-35.0","task_version":"battery-v0.1"},{"rune":"I","hex":"#f73b6a7A","correct":-1,"choice":32,"rt":832.9650000086986,"accuracy":0,"outcome":"-10","keys":[2334.0250000183005],"total_keys":1,"block":1,"trial":34,"robot":4,"valence":"lose","action":"no-go","sham":0,"trial_type":"pit-trial","trial_index":47,"time_elapsed":589266,"internal_node_id":"0.0-36.0","task_version":"battery-v0.1"},{"rune":"U","hex":"#3366ff99","correct":-1,"choice":32,"rt":1249.9499999976251,"accuracy":0,"outcome":"+1","keys":[2750.2450000029057],"total_keys":1,"block":1,"trial":35,"robot":2,"valence":"win","action":"no-go","sham":0,"trial_type":"pit-trial","trial_index":48,"time_elapsed":593217,"internal_node_id":"0.0-37.0","task_version":"battery-v0.1"},{"rune":"P","hex":"#3366ff99","correct":32,"choice":32,"rt":498.3699999866076,"accuracy":1,"outcome":"+10","keys":[1998.4950000070967],"total_keys":1,"block":1,"trial":36,"robot":1,"valence":"win","action":"go","sham":0,"trial_type":"pit-trial","trial_index":49,"time_elapsed":596418,"internal_node_id":"0.0-38.0","task_version":"battery-v0.1"},{"rune":"U","hex":"#3366ff99","correct":-1,"choice":-1,"rt":-1,"accuracy":1,"outcome":"+10","keys":[],"total_keys":0,"block":1,"trial":37,"robot":2,"valence":"win","action":"no-go","sham":0,"trial_type":"pit-trial","trial_index":50,"time_elapsed":600420,"internal_node_id":"0.0-39.0","task_version":"battery-v0.1"},{"rune":"J","hex":"#3366ff99","correct":32,"choice":32,"rt":629.2649999959394,"accuracy":1,"outcome":"+10","keys":[2131.260000023758],"total_keys":1,"block":1,"trial":38,"robot":1,"valence":"win","action":"go","sham":0,"trial_type":"pit-trial","trial_index":51,"time_elapsed":603754,"internal_node_id":"0.0-40.0","task_version":"battery-v0.1"},{"rune":"P","hex":"#3366ff99","correct":32,"choice":32,"rt":689.5000000076834,"accuracy":1,"outcome":"+10","keys":[2190.5550000083167],"total_keys":1,"block":1,"trial":39,"robot":1,"valence":"win","action":"go","sham":0,"trial_type":"pit-trial","trial_index":52,"time_elapsed":607146,"internal_node_id":"0.0-41.0","task_version":"battery-v0.1"},{"rune":"I","hex":"#f73b6a7A","correct":-1,"choice":-1,"rt":-1,"accuracy":1,"outcome":"-1","keys":[],"total_keys":0,"block":1,"trial":40,"robot":4,"valence":"lose","action":"no-go","sham":0,"trial_type":"pit-trial","trial_index":53,"time_elapsed":611149,"internal_node_id":"0.0-42.0","task_version":"battery-v0.1"},{"rune":"J","hex":"#3366ff99","correct":32,"choice":32,"rt":718.6199999996461,"accuracy":1,"outcome":"+10","keys":[2219.005000020843],"total_keys":1,"block":1,"trial":41,"robot":1,"valence":"win","action":"go","sham":0,"trial_type":"pit-trial","trial_index":54,"time_elapsed":614569,"internal_node_id":"0.0-43.0","task_version":"battery-v0.1"},{"rune":"S","hex":"#f73b6a7A","correct":32,"choice":32,"rt":697.4300000001676,"accuracy":1,"outcome":"-1","keys":[2198.2150000112597],"total_keys":1,"block":1,"trial":42,"robot":3,"valence":"lose","action":"go","sham":0,"trial_type":"pit-trial","trial_index":55,"time_elapsed":617969,"internal_node_id":"0.0-44.0","task_version":"battery-v0.1"},{"rune":"H","hex":"#f73b6a7A","correct":-1,"choice":32,"rt":1258.4199999982957,"accuracy":0,"outcome":"-10","keys":[2759.504999994533],"total_keys":1,"block":1,"trial":43,"robot":4,"valence":"lose","action":"no-go","sham":0,"trial_type":"pit-trial","trial_index":56,"time_elapsed":621931,"internal_node_id":"0.0-45.0","task_version":"battery-v0.1"},{"rune":"U","hex":"#3366ff99","correct":-1,"choice":32,"rt":880.0449999980628,"accuracy":0,"outcome":"+1","keys":[2381.034999998519],"total_keys":1,"block":1,"trial":44,"robot":2,"valence":"win","action":"no-go","sham":0,"trial_type":"pit-trial","trial_index":57,"time_elapsed":625513,"internal_node_id":"0.0-46.0","task_version":"battery-v0.1"},{"rune":"S","hex":"#f73b6a7A","correct":32,"choice":32,"rt":729.300000006333,"accuracy":1,"outcome":"-1","keys":[2230.375000013737],"total_keys":1,"block":1,"trial":45,"robot":3,"valence":"lose","action":"go","sham":0,"trial_type":"pit-trial","trial_index":58,"time_elapsed":628946,"internal_node_id":"0.0-47.0","task_version":"battery-v0.1"},{"rune":"U","hex":"#3366ff99","correct":-1,"choice":-1,"rt":-1,"accuracy":1,"outcome":"+10","keys":[],"total_keys":0,"block":1,"trial":46,"robot":2,"valence":"win","action":"no-go","sham":0,"trial_type":"pit-trial","trial_index":59,"time_elapsed":632949,"internal_node_id":"0.0-48.0","task_version":"battery-v0.1"},{"rune":"J","hex":"#3366ff99","correct":32,"choice":32,"rt":806.3149999943562,"accuracy":1,"outcome":"+1","keys":[2306.44499999471],"total_keys":1,"block":1,"trial":47,"robot":1,"valence":"win","action":"go","sham":1,"trial_type":"pit-trial","trial_index":60,"time_elapsed":636458,"internal_node_id":"0.0-49.0","task_version":"battery-v0.1"},{"rune":"H","hex":"#f73b6a7A","correct":-1,"choice":-1,"rt":-1,"accuracy":1,"outcome":"-1","keys":[],"total_keys":0,"block":1,"trial":48,"robot":4,"valence":"lose","action":"no-go","sham":0,"trial_type":"pit-trial","trial_index":61,"time_elapsed":640461,"internal_node_id":"0.0-50.0","task_version":"battery-v0.1"},{"rune":"J","hex":"#3366ff99","correct":32,"choice":-1,"rt":-1,"accuracy":0,"outcome":"+1","keys":[],"total_keys":0,"block":1,"trial":49,"robot":1,"valence":"win","action":"go","sham":0,"trial_type":"pit-trial","trial_index":62,"time_elapsed":644463,"internal_node_id":"0.0-51.0","task_version":"battery-v0.1"},{"rune":"H","hex":"#f73b6a7A","correct":-1,"choice":-1,"rt":-1,"accuracy":1,"outcome":"-1","keys":[2984.0949999925215],"total_keys":1,"block":1,"trial":50,"robot":4,"valence":"lose","action":"no-go","sham":0,"trial_type":"pit-trial","trial_index":63,"time_elapsed":648466,"internal_node_id":"0.0-52.0","task_version":"battery-v0.1"},{"rune":"S","hex":"#f73b6a7A","correct":32,"choice":-1,"rt":-1,"accuracy":0,"outcome":"-10","keys":[],"total_keys":0,"block":1,"trial":51,"robot":3,"valence":"lose","action":"go","sham":0,"trial_type":"pit-trial","trial_index":64,"time_elapsed":652469,"internal_node_id":"0.0-53.0","task_version":"battery-v0.1"},{"rune":"Q","hex":"#3366ff99","correct":-1,"choice":32,"rt":606.4099999784958,"accuracy":0,"outcome":"+1","keys":[2107.20999998739],"total_keys":1,"block":1,"trial":52,"robot":2,"valence":"win","action":"no-go","sham":0,"trial_type":"pit-trial","trial_index":65,"time_elapsed":655778,"internal_node_id":"0.0-54.0","task_version":"battery-v0.1"},{"rune":"Q","hex":"#3366ff99","correct":-1,"choice":-1,"rt":-1,"accuracy":1,"outcome":"+10","keys":[],"total_keys":0,"block":1,"trial":53,"robot":2,"valence":"win","action":"no-go","sham":0,"trial_type":"pit-trial","trial_index":66,"time_elapsed":659780,"internal_node_id":"0.0-55.0","task_version":"battery-v0.1"},{"rune":"J","hex":"#3366ff99","correct":32,"choice":32,"rt":918.904999998631,"accuracy":1,"outcome":"+10","keys":[2419.9549999902956],"total_keys":1,"block":1,"trial":54,"robot":1,"valence":"win","action":"go","sham":0,"trial_type":"pit-trial","trial_index":67,"time_elapsed":663403,"internal_node_id":"0.0-56.0","task_version":"battery-v0.1"},{"rune":"S","hex":"#f73b6a7A","correct":32,"choice":32,"rt":1183.1200000015087,"accuracy":1,"outcome":"-1","keys":[2685.0350000022445],"total_keys":1,"block":1,"trial":55,"robot":3,"valence":"lose","action":"go","sham":0,"trial_type":"pit-trial","trial_index":68,"time_elapsed":667289,"internal_node_id":"0.0-57.0","task_version":"battery-v0.1"},{"rune":"H","hex":"#f73b6a7A","correct":-1,"choice":-1,"rt":-1,"accuracy":1,"outcome":"-1","keys":[2893.400000000838],"total_keys":1,"block":1,"trial":56,"robot":4,"valence":"lose","action":"no-go","sham":0,"trial_type":"pit-trial","trial_index":69,"time_elapsed":671293,"internal_node_id":"0.0-58.0","task_version":"battery-v0.1"},{"rune":"J","hex":"#3366ff99","correct":32,"choice":32,"rt":1045.5200000142213,"accuracy":1,"outcome":"+10","keys":[2547.4450000037905],"total_keys":1,"block":1,"trial":57,"robot":1,"valence":"win","action":"go","sham":0,"trial_type":"pit-trial","trial_index":70,"time_elapsed":675042,"internal_node_id":"0.0-59.0","task_version":"battery-v0.1"},{"rune":"S","hex":"#f73b6a7A","correct":32,"choice":32,"rt":1257.6350000163075,"accuracy":1,"outcome":"-1","keys":[2758.4899999783374],"total_keys":1,"block":1,"trial":58,"robot":3,"valence":"lose","action":"go","sham":0,"trial_type":"pit-trial","trial_index":71,"time_elapsed":679002,"internal_node_id":"0.0-60.0","task_version":"battery-v0.1"},{"rune":"H","hex":"#f73b6a7A","correct":-1,"choice":-1,"rt":-1,"accuracy":1,"outcome":"-1","keys":[3149.5449999929406],"total_keys":1,"block":1,"trial":59,"robot":4,"valence":"lose","action":"no-go","sham":0,"trial_type":"pit-trial","trial_index":72,"time_elapsed":683004,"internal_node_id":"0.0-61.0","task_version":"battery-v0.1"},{"rune":"Q","hex":"#3366ff99","correct":-1,"choice":-1,"rt":-1,"accuracy":1,"outcome":"+1","keys":[],"total_keys":0,"block":1,"trial":60,"robot":2,"valence":"win","action":"no-go","sham":1,"trial_type":"pit-trial","trial_index":73,"time_elapsed":687008,"internal_node_id":"0.0-62.0","task_version":"battery-v0.1"},{"rune":"H","hex":"#f73b6a7A","correct":-1,"choice":32,"rt":1154.145000007702,"accuracy":0,"outcome":"-10","keys":[2654.7950000094716],"total_keys":1,"block":1,"trial":61,"robot":4,"valence":"lose","action":"no-go","sham":0,"trial_type":"pit-trial","trial_index":74,"time_elapsed":690866,"internal_node_id":"0.0-63.0","task_version":"battery-v0.1"},{"rune":"J","hex":"#3366ff99","correct":32,"choice":32,"rt":1289.6349999937229,"accuracy":1,"outcome":"+1","keys":[2789.984999981243],"total_keys":1,"block":1,"trial":62,"robot":1,"valence":"win","action":"go","sham":1,"trial_type":"pit-trial","trial_index":75,"time_elapsed":694858,"internal_node_id":"0.0-64.0","task_version":"battery-v0.1"},{"rune":"S","hex":"#f73b6a7A","correct":32,"choice":-1,"rt":-1,"accuracy":0,"outcome":"-10","keys":[],"total_keys":0,"block":1,"trial":63,"robot":3,"valence":"lose","action":"go","sham":0,"trial_type":"pit-trial","trial_index":76,"time_elapsed":698860,"internal_node_id":"0.0-65.0","task_version":"battery-v0.1"},{"rune":"Q","hex":"#3366ff99","correct":-1,"choice":-1,"rt":-1,"accuracy":1,"outcome":"+10","keys":[],"total_keys":0,"block":1,"trial":64,"robot":2,"valence":"win","action":"no-go","sham":0,"trial_type":"pit-trial","trial_index":77,"time_elapsed":702863,"internal_node_id":"0.0-66.0","task_version":"battery-v0.1"},{"rune":"S","hex":"#f73b6a7A","correct":32,"choice":32,"rt":388.00999999511987,"accuracy":1,"outcome":"-1","keys":[1889.6049999748357],"total_keys":1,"block":1,"trial":65,"robot":3,"valence":"lose","action":"go","sham":0,"trial_type":"pit-trial","trial_index":78,"time_elapsed":705954,"internal_node_id":"0.0-67.0","task_version":"battery-v0.1"},{"rune":"Q","hex":"#3366ff99","correct":-1,"choice":-1,"rt":-1,"accuracy":1,"outcome":"+1","keys":[],"total_keys":0,"block":1,"trial":66,"robot":2,"valence":"win","action":"no-go","sham":1,"trial_type":"pit-trial","trial_index":79,"time_elapsed":709957,"internal_node_id":"0.0-68.0","task_version":"battery-v0.1"},{"rune":"J","hex":"#3366ff99","correct":32,"choice":-1,"rt":-1,"accuracy":0,"outcome":"+1","keys":[],"total_keys":0,"block":1,"trial":67,"robot":1,"valence":"win","action":"go","sham":0,"trial_type":"pit-trial","trial_index":80,"time_elapsed":713961,"internal_node_id":"0.0-69.0","task_version":"battery-v0.1"},{"rune":"H","hex":"#f73b6a7A","correct":-1,"choice":32,"rt":1058.8449999922886,"accuracy":0,"outcome":"-1","keys":[2559.559999994235],"total_keys":1,"block":1,"trial":68,"robot":4,"valence":"lose","action":"no-go","sham":1,"trial_type":"pit-trial","trial_index":81,"time_elapsed":717722,"internal_node_id":"0.0-70.0","task_version":"battery-v0.1"},{"rune":"Q","hex":"#3366ff99","correct":-1,"choice":32,"rt":921.6650000016671,"accuracy":0,"outcome":"+1","keys":[2421.8850000179373],"total_keys":1,"block":1,"trial":69,"robot":2,"valence":"win","action":"no-go","sham":0,"trial_type":"pit-trial","trial_index":82,"time_elapsed":721346,"internal_node_id":"0.0-71.0","task_version":"battery-v0.1"},{"rune":"H","hex":"#f73b6a7A","correct":-1,"choice":32,"rt":1017.0999999972992,"accuracy":0,"outcome":"-10","keys":[2518.5899999924004],"total_keys":1,"block":1,"trial":70,"robot":4,"valence":"lose","action":"no-go","sham":0,"trial_type":"pit-trial","trial_index":83,"time_elapsed":725066,"internal_node_id":"0.0-72.0","task_version":"battery-v0.1"},{"rune":"J","hex":"#3366ff99","correct":32,"choice":32,"rt":1033.6649999953806,"accuracy":1,"outcome":"+10","keys":[2534.6349999890663],"total_keys":1,"block":1,"trial":71,"robot":1,"valence":"win","action":"go","sham":0,"trial_type":"pit-trial","trial_index":84,"time_elapsed":728803,"internal_node_id":"0.0-73.0","task_version":"battery-v0.1"},{"rune":"S","hex":"#f73b6a7A","correct":32,"choice":32,"rt":624.0899999975227,"accuracy":1,"outcome":"-1","keys":[2125.1399999891873],"total_keys":1,"block":1,"trial":72,"robot":3,"valence":"lose","action":"go","sham":0,"trial_type":"pit-trial","trial_index":85,"time_elapsed":732130,"internal_node_id":"0.0-74.0","task_version":"battery-v0.1"},{"rune":"G","hex":"#f73b6a7A","correct":32,"choice":32,"rt":945.785000018077,"accuracy":1,"outcome":"-1","keys":[2446.094999992056],"total_keys":1,"block":1,"trial":73,"robot":3,"valence":"lose","action":"go","sham":0,"trial_type":"pit-trial","trial_index":86,"time_elapsed":735778,"internal_node_id":"0.0-75.0","task_version":"battery-v0.1"},{"rune":"J","hex":"#3366ff99","correct":32,"choice":32,"rt":1081.1350000149105,"accuracy":1,"outcome":"+10","keys":[2582.200000004377],"total_keys":1,"block":1,"trial":74,"robot":1,"valence":"win","action":"go","sham":0,"trial_type":"pit-trial","trial_index":87,"time_elapsed":739562,"internal_node_id":"0.0-76.0","task_version":"battery-v0.1"},{"rune":"Q","hex":"#3366ff99","correct":-1,"choice":32,"rt":601.9999999844003,"accuracy":0,"outcome":"+1","keys":[2102.3500000010245],"total_keys":1,"block":1,"trial":75,"robot":2,"valence":"win","action":"no-go","sham":0,"trial_type":"pit-trial","trial_index":88,"time_elapsed":742867,"internal_node_id":"0.0-77.0","task_version":"battery-v0.1"},{"rune":"H","hex":"#f73b6a7A","correct":-1,"choice":32,"rt":656.6600000078324,"accuracy":0,"outcome":"-10","keys":[2157.7000000106636],"total_keys":1,"block":1,"trial":76,"robot":4,"valence":"lose","action":"no-go","sham":0,"trial_type":"pit-trial","trial_index":89,"time_elapsed":746227,"internal_node_id":"0.0-78.0","task_version":"battery-v0.1"},{"rune":"Q","hex":"#3366ff99","correct":-1,"choice":32,"rt":696.4150000130758,"accuracy":0,"outcome":"+10","keys":[2197.539999993751],"total_keys":1,"block":1,"trial":77,"robot":2,"valence":"win","action":"no-go","sham":1,"trial_type":"pit-trial","trial_index":90,"time_elapsed":749626,"internal_node_id":"0.0-79.0","task_version":"battery-v0.1"},{"rune":"H","hex":"#f73b6a7A","correct":-1,"choice":32,"rt":705.7300000160467,"accuracy":0,"outcome":"-10","keys":[2206.8299999809824],"total_keys":1,"block":1,"trial":78,"robot":4,"valence":"lose","action":"no-go","sham":0,"trial_type":"pit-trial","trial_index":91,"time_elapsed":753034,"internal_node_id":"0.0-80.0","task_version":"battery-v0.1"},{"rune":"J","hex":"#3366ff99","correct":32,"choice":32,"rt":559.8549999995157,"accuracy":1,"outcome":"+10","keys":[2061.0149999847636],"total_keys":1,"block":1,"trial":79,"robot":1,"valence":"win","action":"go","sham":0,"trial_type":"pit-trial","trial_index":92,"time_elapsed":756298,"internal_node_id":"0.0-81.0","task_version":"battery-v0.1"},{"rune":"G","hex":"#f73b6a7A","correct":32,"choice":32,"rt":1233.6150000046473,"accuracy":1,"outcome":"-1","keys":[2734.0199999744073],"total_keys":1,"block":1,"trial":80,"robot":3,"valence":"lose","action":"go","sham":0,"trial_type":"pit-trial","trial_index":93,"time_elapsed":760233,"internal_node_id":"0.0-82.0","task_version":"battery-v0.1"},{"rune":"L","hex":"#f73b6a7A","correct":32,"choice":32,"rt":673.3650000242051,"accuracy":1,"outcome":"-1","keys":[2174.4699999981094],"total_keys":1,"block":1,"trial":81,"robot":3,"valence":"lose","action":"go","sham":0,"trial_type":"pit-trial","trial_index":94,"time_elapsed":763609,"internal_node_id":"0.0-83.0","task_version":"battery-v0.1"},{"rune":"H","hex":"#f73b6a7A","correct":-1,"choice":32,"rt":657.4100000143517,"accuracy":0,"outcome":"-10","keys":[2158.0200000025798],"total_keys":1,"block":1,"trial":82,"robot":4,"valence":"lose","action":"no-go","sham":0,"trial_type":"pit-trial","trial_index":95,"time_elapsed":766969,"internal_node_id":"0.0-84.0","task_version":"battery-v0.1"},{"rune":"Q","hex":"#3366ff99","correct":-1,"choice":32,"rt":818.0699999793433,"accuracy":0,"outcome":"+1","keys":[2318.40999997803],"total_keys":1,"block":1,"trial":83,"robot":2,"valence":"win","action":"no-go","sham":0,"trial_type":"pit-trial","trial_index":96,"time_elapsed":770489,"internal_node_id":"0.0-85.0","task_version":"battery-v0.1"},{"rune":"G","hex":"#f73b6a7A","correct":32,"choice":-1,"rt":-1,"accuracy":0,"outcome":"-10","keys":[],"total_keys":0,"block":1,"trial":84,"robot":3,"valence":"lose","action":"go","sham":0,"trial_type":"pit-trial","trial_index":97,"time_elapsed":774492,"internal_node_id":"0.0-86.0","task_version":"battery-v0.1"},{"rune":"G","hex":"#f73b6a7A","correct":32,"choice":32,"rt":1295.9400000108872,"accuracy":1,"outcome":"-1","keys":[2796.0650000022724],"total_keys":1,"block":1,"trial":85,"robot":3,"valence":"lose","action":"go","sham":0,"trial_type":"pit-trial","trial_index":98,"time_elapsed":778489,"internal_node_id":"0.0-87.0","task_version":"battery-v0.1"},{"rune":"L","hex":"#f73b6a7A","correct":32,"choice":32,"rt":489.10000000614673,"accuracy":1,"outcome":"-10","keys":[1990.2250000159256],"total_keys":1,"block":1,"trial":86,"robot":3,"valence":"lose","action":"go","sham":1,"trial_type":"pit-trial","trial_index":99,"time_elapsed":781682,"internal_node_id":"0.0-88.0","task_version":"battery-v0.1"},{"rune":"H","hex":"#f73b6a7A","correct":-1,"choice":32,"rt":504.73000001511537,"accuracy":0,"outcome":"-10","keys":[2005.78000000678],"total_keys":1,"block":1,"trial":87,"robot":4,"valence":"lose","action":"no-go","sham":0,"trial_type":"pit-trial","trial_index":100,"time_elapsed":784889,"internal_node_id":"0.0-89.0","task_version":"battery-v0.1"},{"rune":"Q","hex":"#3366ff99","correct":-1,"choice":32,"rt":593.815000000177,"accuracy":0,"outcome":"+1","keys":[2093.945000000531],"total_keys":1,"block":1,"trial":88,"robot":2,"valence":"win","action":"no-go","sham":0,"trial_type":"pit-trial","trial_index":101,"time_elapsed":788186,"internal_node_id":"0.0-90.0","task_version":"battery-v0.1"},{"rune":"V","hex":"#3366ff99","correct":-1,"choice":32,"rt":728.6449999955948,"accuracy":0,"outcome":"+1","keys":[2229.8500000033528],"total_keys":1,"block":1,"trial":89,"robot":2,"valence":"win","action":"no-go","sham":0,"trial_type":"pit-trial","trial_index":102,"time_elapsed":791617,"internal_node_id":"0.0-91.0","task_version":"battery-v0.1"},{"rune":"G","hex":"#f73b6a7A","correct":32,"choice":32,"rt":649.4750000128988,"accuracy":1,"outcome":"-10","keys":[2150.564999989001],"total_keys":1,"block":1,"trial":90,"robot":3,"valence":"lose","action":"go","sham":1,"trial_type":"pit-trial","trial_index":103,"time_elapsed":794969,"internal_node_id":"0.0-92.0","task_version":"battery-v0.1"},{"rune":"L","hex":"#f73b6a7A","correct":32,"choice":32,"rt":736.9849999959115,"accuracy":1,"outcome":"-1","keys":[2238.1350000214297],"total_keys":1,"block":1,"trial":91,"robot":3,"valence":"lose","action":"go","sham":0,"trial_type":"pit-trial","trial_index":104,"time_elapsed":798409,"internal_node_id":"0.0-93.0","task_version":"battery-v0.1"},{"rune":"C","hex":"#f73b6a7A","correct":-1,"choice":-1,"rt":-1,"accuracy":1,"outcome":"-10","keys":[],"total_keys":0,"block":1,"trial":92,"robot":4,"valence":"lose","action":"no-go","sham":1,"trial_type":"pit-trial","trial_index":105,"time_elapsed":802411,"internal_node_id":"0.0-94.0","task_version":"battery-v0.1"},{"rune":"L","hex":"#f73b6a7A","correct":32,"choice":-1,"rt":-1,"accuracy":0,"outcome":"-10","keys":[3660.409999982221],"total_keys":1,"block":1,"trial":93,"robot":3,"valence":"lose","action":"go","sham":0,"trial_type":"pit-trial","trial_index":106,"time_elapsed":806415,"internal_node_id":"0.0-95.0","task_version":"battery-v0.1"},{"rune":"C","hex":"#f73b6a7A","correct":-1,"choice":32,"rt":467.9400000022724,"accuracy":0,"outcome":"-1","keys":[1969.390000012936],"total_keys":1,"block":1,"trial":94,"robot":4,"valence":"lose","action":"no-go","sham":1,"trial_type":"pit-trial","trial_index":107,"time_elapsed":809586,"internal_node_id":"0.0-96.0","task_version":"battery-v0.1"},{"rune":"G","hex":"#f73b6a7A","correct":32,"choice":-1,"rt":-1,"accuracy":0,"outcome":"-10","keys":[],"total_keys":0,"block":1,"trial":95,"robot":3,"valence":"lose","action":"go","sham":0,"trial_type":"pit-trial","trial_index":108,"time_elapsed":813588,"internal_node_id":"0.0-97.0","task_version":"battery-v0.1"},{"rune":"V","hex":"#3366ff99","correct":-1,"choice":32,"rt":543.3999999950174,"accuracy":0,"outcome":"+1","keys":[2043.4300000197254],"total_keys":1,"block":1,"trial":96,"robot":2,"valence":"win","action":"no-go","sham":0,"trial_type":"pit-trial","trial_index":109,"time_elapsed":816834,"internal_node_id":"0.0-98.0","task_version":"battery-v0.1"},{"rune":"L","hex":"#f73b6a7A","correct":32,"choice":32,"rt":505.0500000070315,"accuracy":1,"outcome":"-1","keys":[2006.2550000147894],"total_keys":1,"block":1,"trial":97,"robot":3,"valence":"lose","action":"go","sham":0,"trial_type":"pit-trial","trial_index":110,"time_elapsed":820042,"internal_node_id":"0.0-99.0","task_version":"battery-v0.1"},{"rune":"V","hex":"#3366ff99","correct":-1,"choice":32,"rt":600.8750000037253,"accuracy":0,"outcome":"+1","keys":[2101.7549999814946],"total_keys":1,"block":1,"trial":98,"robot":2,"valence":"win","action":"no-go","sham":0,"trial_type":"pit-trial","trial_index":111,"time_elapsed":823346,"internal_node_id":"0.0-100.0","task_version":"battery-v0.1"},{"rune":"C","hex":"#f73b6a7A","correct":-1,"choice":32,"rt":584.3500000191852,"accuracy":0,"outcome":"-10","keys":[2084.80499999132],"total_keys":1,"block":1,"trial":99,"robot":4,"valence":"lose","action":"no-go","sham":0,"trial_type":"pit-trial","trial_index":112,"time_elapsed":826634,"internal_node_id":"0.0-101.0","task_version":"battery-v0.1"},{"rune":"G","hex":"#f73b6a7A","correct":32,"choice":32,"rt":425.5299999786075,"accuracy":1,"outcome":"-1","keys":[1926.6099999949802],"total_keys":1,"block":1,"trial":100,"robot":3,"valence":"lose","action":"go","sham":0,"trial_type":"pit-trial","trial_index":113,"time_elapsed":829762,"internal_node_id":"0.0-102.0","task_version":"battery-v0.1"},{"rune":"C","hex":"#f73b6a7A","correct":-1,"choice":32,"rt":944.4099999964237,"accuracy":0,"outcome":"-10","keys":[2445.5650000018068],"total_keys":1,"block":1,"trial":101,"robot":4,"valence":"lose","action":"no-go","sham":0,"trial_type":"pit-trial","trial_index":114,"time_elapsed":833409,"internal_node_id":"0.0-103.0","task_version":"battery-v0.1"},{"rune":"L","hex":"#f73b6a7A","correct":32,"choice":32,"rt":1297.805000009248,"accuracy":1,"outcome":"-1","keys":[2798.895000014454],"total_keys":1,"block":1,"trial":102,"robot":3,"valence":"lose","action":"go","sham":0,"trial_type":"pit-trial","trial_index":115,"time_elapsed":837410,"internal_node_id":"0.0-104.0","task_version":"battery-v0.1"},{"rune":"V","hex":"#3366ff99","correct":-1,"choice":-1,"rt":-1,"accuracy":1,"outcome":"+10","keys":[],"total_keys":0,"block":1,"trial":103,"robot":2,"valence":"win","action":"no-go","sham":0,"trial_type":"pit-trial","trial_index":116,"time_elapsed":841412,"internal_node_id":"0.0-105.0","task_version":"battery-v0.1"},{"rune":"G","hex":"#f73b6a7A","correct":32,"choice":-1,"rt":-1,"accuracy":0,"outcome":"-10","keys":[],"total_keys":0,"block":1,"trial":104,"robot":3,"valence":"lose","action":"go","sham":0,"trial_type":"pit-trial","trial_index":117,"time_elapsed":845415,"internal_node_id":"0.0-106.0","task_version":"battery-v0.1"},{"rune":"L","hex":"#f73b6a7A","correct":32,"choice":32,"rt":1155.464999988908,"accuracy":1,"outcome":"-10","keys":[2656.620000023395],"total_keys":1,"block":1,"trial":105,"robot":3,"valence":"lose","action":"go","sham":1,"trial_type":"pit-trial","trial_index":118,"time_elapsed":849273,"internal_node_id":"0.0-107.0","task_version":"battery-v0.1"},{"rune":"C","hex":"#f73b6a7A","correct":-1,"choice":32,"rt":1249.9099999840837,"accuracy":0,"outcome":"-10","keys":[2750.964999984717],"total_keys":1,"block":1,"trial":106,"robot":4,"valence":"lose","action":"no-go","sham":0,"trial_type":"pit-trial","trial_index":119,"time_elapsed":853226,"internal_node_id":"0.0-108.0","task_version":"battery-v0.1"},{"rune":"V","hex":"#3366ff99","correct":-1,"choice":-1,"rt":-1,"accuracy":1,"outcome":"+10","keys":[],"total_keys":0,"block":1,"trial":107,"robot":2,"valence":"win","action":"no-go","sham":0,"trial_type":"pit-trial","trial_index":120,"time_elapsed":857230,"internal_node_id":"0.0-109.0","task_version":"battery-v0.1"},{"rune":"G","hex":"#f73b6a7A","correct":32,"choice":32,"rt":1182.3849999927916,"accuracy":1,"outcome":"-1","keys":[2682.795000000624],"total_keys":1,"block":1,"trial":108,"robot":3,"valence":"lose","action":"go","sham":0,"trial_type":"pit-trial","trial_index":121,"time_elapsed":861114,"internal_node_id":"0.0-110.0","task_version":"battery-v0.1"},{"rune":"G","hex":"#f73b6a7A","correct":32,"choice":32,"rt":487.8000000026077,"accuracy":1,"outcome":"-1","keys":[1988.7949999829289],"total_keys":1,"block":1,"trial":109,"robot":3,"valence":"lose","action":"go","sham":0,"trial_type":"pit-trial","trial_index":122,"time_elapsed":864305,"internal_node_id":"0.0-111.0","task_version":"battery-v0.1"},{"rune":"V","hex":"#3366ff99","correct":-1,"choice":-1,"rt":-1,"accuracy":1,"outcome":"+1","keys":[],"total_keys":0,"block":1,"trial":110,"robot":2,"valence":"win","action":"no-go","sham":1,"trial_type":"pit-trial","trial_index":123,"time_elapsed":868309,"internal_node_id":"0.0-112.0","task_version":"battery-v0.1"},{"rune":"C","hex":"#f73b6a7A","correct":-1,"choice":32,"rt":685.5250000080559,"accuracy":0,"outcome":"-1","keys":[2186.6549999976996],"total_keys":1,"block":1,"trial":111,"robot":4,"valence":"lose","action":"no-go","sham":1,"trial_type":"pit-trial","trial_index":124,"time_elapsed":871697,"internal_node_id":"0.0-113.0","task_version":"battery-v0.1"},{"rune":"L","hex":"#f73b6a7A","correct":32,"choice":32,"rt":586.4000000001397,"accuracy":1,"outcome":"-10","keys":[2086.910000012722],"total_keys":1,"block":1,"trial":112,"robot":3,"valence":"lose","action":"go","sham":1,"trial_type":"pit-trial","trial_index":125,"time_elapsed":874986,"internal_node_id":"0.0-114.0","task_version":"battery-v0.1"},{"rune":"C","hex":"#f73b6a7A","correct":-1,"choice":32,"rt":504.7400000039488,"accuracy":0,"outcome":"-1","keys":[2005.7699999888428],"total_keys":1,"block":1,"trial":113,"robot":4,"valence":"lose","action":"no-go","sham":1,"trial_type":"pit-trial","trial_index":126,"time_elapsed":878193,"internal_node_id":"0.0-115.0","task_version":"battery-v0.1"},{"rune":"G","hex":"#f73b6a7A","correct":32,"choice":32,"rt":497.4899999797344,"accuracy":1,"outcome":"-10","keys":[1998.6599999829195],"total_keys":1,"block":1,"trial":114,"robot":3,"valence":"lose","action":"go","sham":1,"trial_type":"pit-trial","trial_index":127,"time_elapsed":881394,"internal_node_id":"0.0-116.0","task_version":"battery-v0.1"},{"rune":"V","hex":"#3366ff99","correct":-1,"choice":32,"rt":553.0300000100397,"accuracy":0,"outcome":"+1","keys":[2053.410000022268],"total_keys":1,"block":1,"trial":115,"robot":2,"valence":"win","action":"no-go","sham":0,"trial_type":"pit-trial","trial_index":128,"time_elapsed":884650,"internal_node_id":"0.0-117.0","task_version":"battery-v0.1"},{"rune":"L","hex":"#f73b6a7A","correct":32,"choice":-1,"rt":-1,"accuracy":0,"outcome":"-10","keys":[3005.520000006072],"total_keys":1,"block":1,"trial":116,"robot":3,"valence":"lose","action":"go","sham":0,"trial_type":"pit-trial","trial_index":129,"time_elapsed":888653,"internal_node_id":"0.0-118.0","task_version":"battery-v0.1"},{"rune":"L","hex":"#f73b6a7A","correct":32,"choice":32,"rt":574.3800000054762,"accuracy":1,"outcome":"-1","keys":[2075.1449999806937],"total_keys":1,"block":1,"trial":117,"robot":3,"valence":"lose","action":"go","sham":0,"trial_type":"pit-trial","trial_index":130,"time_elapsed":891931,"internal_node_id":"0.0-119.0","task_version":"battery-v0.1"},{"rune":"V","hex":"#3366ff99","correct":-1,"choice":-1,"rt":-1,"accuracy":1,"outcome":"+10","keys":[],"total_keys":0,"block":1,"trial":118,"robot":2,"valence":"win","action":"no-go","sham":0,"trial_type":"pit-trial","trial_index":131,"time_elapsed":895933,"internal_node_id":"0.0-120.0","task_version":"battery-v0.1"},{"rune":"C","hex":"#f73b6a7A","correct":-1,"choice":32,"rt":854.8449999943841,"accuracy":0,"outcome":"-10","keys":[2354.940000019269],"total_keys":1,"block":1,"trial":119,"robot":4,"valence":"lose","action":"no-go","sham":0,"trial_type":"pit-trial","trial_index":132,"time_elapsed":899490,"internal_node_id":"0.0-121.0","task_version":"battery-v0.1"},{"rune":"G","hex":"#f73b6a7A","correct":32,"choice":32,"rt":1016.4400000066962,"accuracy":1,"outcome":"-1","keys":[2517.5250000029337],"total_keys":1,"block":1,"trial":120,"robot":3,"valence":"lose","action":"go","sham":0,"trial_type":"pit-trial","trial_index":133,"time_elapsed":903209,"internal_node_id":"0.0-122.0","task_version":"battery-v0.1"},{"view_history":"[{\"page_index\":0,\"viewing_time\":100195.94000000507},{\"page_index\":1,\"viewing_time\":6168.579999997746}]","rt":106364.79500000132,"trial_type":"pit-instructions","trial_index":134,"time_elapsed":1009575,"internal_node_id":"0.0-123.0","task_version":"battery-v0.1"},{"rune":"M","hex":"#f73b6a7A","correct":-1,"choice":32,"rt":1019.0949999960139,"accuracy":0,"outcome":"-10","keys":[2520.4300000041258],"total_keys":1,"block":2,"trial":121,"robot":4,"valence":"lose","action":"no-go","sham":0,"trial_type":"pit-trial","trial_index":135,"time_elapsed":1013298,"internal_node_id":"0.0-124.0","task_version":"battery-v0.1"},{"rune":"X","hex":"#f73b6a7A","correct":-1,"choice":32,"rt":873.3399999910034,"accuracy":0,"outcome":"-10","keys":[2373.470000020461],"total_keys":1,"block":2,"trial":122,"robot":4,"valence":"lose","action":"no-go","sham":0,"trial_type":"pit-trial","trial_index":136,"time_elapsed":1016873,"internal_node_id":"0.0-125.0","task_version":"battery-v0.1"},{"rune":"Y","hex":"#3366ff99","correct":-1,"choice":32,"rt":769.769999984419,"accuracy":0,"outcome":"+1","keys":[2270.714999991469],"total_keys":1,"block":2,"trial":123,"robot":2,"valence":"win","action":"no-go","sham":0,"trial_type":"pit-trial","trial_index":137,"time_elapsed":1020346,"internal_node_id":"0.0-126.0","task_version":"battery-v0.1"},{"rune":"W","hex":"#3366ff99","correct":32,"choice":-1,"rt":-1,"accuracy":0,"outcome":"+1","keys":[3013.6099999945145],"total_keys":1,"block":2,"trial":124,"robot":1,"valence":"win","action":"go","sham":0,"trial_type":"pit-trial","trial_index":138,"time_elapsed":1024348,"internal_node_id":"0.0-127.0","task_version":"battery-v0.1"},{"rune":"Y","hex":"#3366ff99","correct":-1,"choice":-1,"rt":-1,"accuracy":1,"outcome":"+1","keys":[],"total_keys":0,"block":2,"trial":125,"robot":2,"valence":"win","action":"no-go","sham":1,"trial_type":"pit-trial","trial_index":139,"time_elapsed":1028351,"internal_node_id":"0.0-128.0","task_version":"battery-v0.1"},{"rune":"M","hex":"#f73b6a7A","correct":-1,"choice":-1,"rt":-1,"accuracy":1,"outcome":"-10","keys":[],"total_keys":0,"block":2,"trial":126,"robot":4,"valence":"lose","action":"no-go","sham":1,"trial_type":"pit-trial","trial_index":140,"time_elapsed":1032354,"internal_node_id":"0.0-129.0","task_version":"battery-v0.1"},{"rune":"W","hex":"#3366ff99","correct":32,"choice":-1,"rt":-1,"accuracy":0,"outcome":"+1","keys":[],"total_keys":0,"block":2,"trial":127,"robot":1,"valence":"win","action":"go","sham":0,"trial_type":"pit-trial","trial_index":141,"time_elapsed":1036357,"internal_node_id":"0.0-130.0","task_version":"battery-v0.1"},{"rune":"X","hex":"#f73b6a7A","correct":-1,"choice":-1,"rt":-1,"accuracy":1,"outcome":"-1","keys":[],"total_keys":0,"block":2,"trial":128,"robot":4,"valence":"lose","action":"no-go","sham":0,"trial_type":"pit-trial","trial_index":142,"time_elapsed":1040359,"internal_node_id":"0.0-131.0","task_version":"battery-v0.1"},{"rune":"Y","hex":"#3366ff99","correct":-1,"choice":-1,"rt":-1,"accuracy":1,"outcome":"+1","keys":[],"total_keys":0,"block":2,"trial":129,"robot":2,"valence":"win","action":"no-go","sham":1,"trial_type":"pit-trial","trial_index":143,"time_elapsed":1044362,"internal_node_id":"0.0-132.0","task_version":"battery-v0.1"},{"rune":"X","hex":"#f73b6a7A","correct":-1,"choice":32,"rt":759.8500000021886,"accuracy":0,"outcome":"-10","keys":[2261.3300000084564],"total_keys":1,"block":2,"trial":130,"robot":4,"valence":"lose","action":"no-go","sham":0,"trial_type":"pit-trial","trial_index":144,"time_elapsed":1047825,"internal_node_id":"0.0-133.0","task_version":"battery-v0.1"},{"rune":"M","hex":"#f73b6a7A","correct":-1,"choice":32,"rt":504.67999998363666,"accuracy":0,"outcome":"-10","keys":[2006.2350000080187],"total_keys":1,"block":2,"trial":131,"robot":4,"valence":"lose","action":"no-go","sham":0,"trial_type":"pit-trial","trial_index":145,"time_elapsed":1051033,"internal_node_id":"0.0-134.0","task_version":"battery-v0.1"},{"rune":"W","hex":"#3366ff99","correct":32,"choice":32,"rt":705.2950000215787,"accuracy":1,"outcome":"+10","keys":[2206.4249999821186],"total_keys":1,"block":2,"trial":132,"robot":1,"valence":"win","action":"go","sham":0,"trial_type":"pit-trial","trial_index":146,"time_elapsed":1054441,"internal_node_id":"0.0-135.0","task_version":"battery-v0.1"},{"rune":"X","hex":"#f73b6a7A","correct":-1,"choice":32,"rt":513.2250000024214,"accuracy":0,"outcome":"-10","keys":[2014.4250000012107],"total_keys":1,"block":2,"trial":133,"robot":4,"valence":"lose","action":"no-go","sham":0,"trial_type":"pit-trial","trial_index":147,"time_elapsed":1057658,"internal_node_id":"0.0-136.0","task_version":"battery-v0.1"},{"rune":"Y","hex":"#3366ff99","correct":-1,"choice":32,"rt":472.27999998722225,"accuracy":0,"outcome":"+10","keys":[1973.3450000057928],"total_keys":1,"block":2,"trial":134,"robot":2,"valence":"win","action":"no-go","sham":1,"trial_type":"pit-trial","trial_index":148,"time_elapsed":1060834,"internal_node_id":"0.0-137.0","task_version":"battery-v0.1"},{"rune":"W","hex":"#3366ff99","correct":32,"choice":32,"rt":536.8650000018533,"accuracy":1,"outcome":"+1","keys":[2037.9850000026636],"total_keys":1,"block":2,"trial":135,"robot":1,"valence":"win","action":"go","sham":1,"trial_type":"pit-trial","trial_index":149,"time_elapsed":1064073,"internal_node_id":"0.0-138.0","task_version":"battery-v0.1"},{"rune":"M","hex":"#f73b6a7A","correct":-1,"choice":-1,"rt":-1,"accuracy":1,"outcome":"-1","keys":[],"total_keys":0,"block":2,"trial":136,"robot":4,"valence":"lose","action":"no-go","sham":0,"trial_type":"pit-trial","trial_index":150,"time_elapsed":1068076,"internal_node_id":"0.0-139.0","task_version":"battery-v0.1"},{"rune":"M","hex":"#f73b6a7A","correct":-1,"choice":32,"rt":558.5950000095181,"accuracy":0,"outcome":"-10","keys":[2059.670000016922],"total_keys":1,"block":2,"trial":137,"robot":4,"valence":"lose","action":"no-go","sham":0,"trial_type":"pit-trial","trial_index":151,"time_elapsed":1071338,"internal_node_id":"0.0-140.0","task_version":"battery-v0.1"},{"rune":"Y","hex":"#3366ff99","correct":-1,"choice":32,"rt":608.2600000081584,"accuracy":0,"outcome":"+1","keys":[2109.564999991562],"total_keys":1,"block":2,"trial":138,"robot":2,"valence":"win","action":"no-go","sham":0,"trial_type":"pit-trial","trial_index":152,"time_elapsed":1074649,"internal_node_id":"0.0-141.0","task_version":"battery-v0.1"},{"rune":"X","hex":"#f73b6a7A","correct":-1,"choice":-1,"rt":-1,"accuracy":1,"outcome":"-1","keys":[],"total_keys":0,"block":2,"trial":139,"robot":4,"valence":"lose","action":"no-go","sham":0,"trial_type":"pit-trial","trial_index":153,"time_elapsed":1078652,"internal_node_id":"0.0-142.0","task_version":"battery-v0.1"},{"rune":"W","hex":"#3366ff99","correct":32,"choice":-1,"rt":-1,"accuracy":0,"outcome":"+1","keys":[],"total_keys":0,"block":2,"trial":140,"robot":1,"valence":"win","action":"go","sham":0,"trial_type":"pit-trial","trial_index":154,"time_elapsed":1082655,"internal_node_id":"0.0-143.0","task_version":"battery-v0.1"},{"rune":"M","hex":"#f73b6a7A","correct":-1,"choice":-1,"rt":-1,"accuracy":1,"outcome":"-1","keys":[],"total_keys":0,"block":2,"trial":141,"robot":4,"valence":"lose","action":"no-go","sham":0,"trial_type":"pit-trial","trial_index":155,"time_elapsed":1086657,"internal_node_id":"0.0-144.0","task_version":"battery-v0.1"},{"rune":"Y","hex":"#3366ff99","correct":-1,"choice":32,"rt":848.8749999960419,"accuracy":0,"outcome":"+1","keys":[2349.8899999831337],"total_keys":1,"block":2,"trial":142,"robot":2,"valence":"win","action":"no-go","sham":0,"trial_type":"pit-trial","trial_index":156,"time_elapsed":1090209,"internal_node_id":"0.0-145.0","task_version":"battery-v0.1"},{"rune":"W","hex":"#3366ff99","correct":32,"choice":-1,"rt":-1,"accuracy":0,"outcome":"+1","keys":[],"total_keys":0,"block":2,"trial":143,"robot":1,"valence":"win","action":"go","sham":0,"trial_type":"pit-trial","trial_index":157,"time_elapsed":1094212,"internal_node_id":"0.0-146.0","task_version":"battery-v0.1"},{"rune":"X","hex":"#f73b6a7A","correct":-1,"choice":32,"rt":863.2550000038464,"accuracy":0,"outcome":"-10","keys":[2363.424999988638],"total_keys":1,"block":2,"trial":144,"robot":4,"valence":"lose","action":"no-go","sham":0,"trial_type":"pit-trial","trial_index":158,"time_elapsed":1097778,"internal_node_id":"0.0-147.0","task_version":"battery-v0.1"},{"rune":"M","hex":"#f73b6a7A","correct":-1,"choice":-1,"rt":-1,"accuracy":1,"outcome":"-1","keys":[],"total_keys":0,"block":2,"trial":145,"robot":4,"valence":"lose","action":"no-go","sham":0,"trial_type":"pit-trial","trial_index":159,"time_elapsed":1101780,"internal_node_id":"0.0-148.0","task_version":"battery-v0.1"},{"rune":"X","hex":"#f73b6a7A","correct":-1,"choice":32,"rt":535.5749999871477,"accuracy":0,"outcome":"-1","keys":[2035.6150000006892],"total_keys":1,"block":2,"trial":146,"robot":4,"valence":"lose","action":"no-go","sham":1,"trial_type":"pit-trial","trial_index":160,"time_elapsed":1105018,"internal_node_id":"0.0-149.0","task_version":"battery-v0.1"},{"rune":"W","hex":"#3366ff99","correct":32,"choice":32,"rt":601.375000027474,"accuracy":1,"outcome":"+10","keys":[2101.4499999873806],"total_keys":1,"block":2,"trial":147,"robot":1,"valence":"win","action":"go","sham":0,"trial_type":"pit-trial","trial_index":161,"time_elapsed":1108321,"internal_node_id":"0.0-150.0","task_version":"battery-v0.1"},{"rune":"Y","hex":"#3366ff99","correct":-1,"choice":-1,"rt":-1,"accuracy":1,"outcome":"+10","keys":[],"total_keys":0,"block":2,"trial":148,"robot":2,"valence":"win","action":"no-go","sham":0,"trial_type":"pit-trial","trial_index":162,"time_elapsed":1112324,"internal_node_id":"0.0-151.0","task_version":"battery-v0.1"},{"rune":"Y","hex":"#3366ff99","correct":-1,"choice":-1,"rt":-1,"accuracy":1,"outcome":"+10","keys":[],"total_keys":0,"block":2,"trial":149,"robot":2,"valence":"win","action":"no-go","sham":0,"trial_type":"pit-trial","trial_index":163,"time_elapsed":1116328,"internal_node_id":"0.0-152.0","task_version":"battery-v0.1"},{"rune":"W","hex":"#3366ff99","correct":32,"choice":-1,"rt":-1,"accuracy":0,"outcome":"+1","keys":[],"total_keys":0,"block":2,"trial":150,"robot":1,"valence":"win","action":"go","sham":0,"trial_type":"pit-trial","trial_index":164,"time_elapsed":1120332,"internal_node_id":"0.0-153.0","task_version":"battery-v0.1"},{"rune":"X","hex":"#f73b6a7A","correct":-1,"choice":32,"rt":1005.444999987958,"accuracy":0,"outcome":"-10","keys":[2507.439999986673],"total_keys":1,"block":2,"trial":151,"robot":4,"valence":"lose","action":"no-go","sham":0,"trial_type":"pit-trial","trial_index":165,"time_elapsed":1124042,"internal_node_id":"0.0-154.0","task_version":"battery-v0.1"},{"rune":"M","hex":"#f73b6a7A","correct":-1,"choice":-1,"rt":-1,"accuracy":1,"outcome":"-1","keys":[],"total_keys":0,"block":2,"trial":152,"robot":4,"valence":"lose","action":"no-go","sham":0,"trial_type":"pit-trial","trial_index":166,"time_elapsed":1128044,"internal_node_id":"0.0-155.0","task_version":"battery-v0.1"},{"rune":"M","hex":"#f73b6a7A","correct":-1,"choice":-1,"rt":-1,"accuracy":1,"outcome":"-1","keys":[],"total_keys":0,"block":2,"trial":153,"robot":4,"valence":"lose","action":"no-go","sham":0,"trial_type":"pit-trial","trial_index":167,"time_elapsed":1132048,"internal_node_id":"0.0-156.0","task_version":"battery-v0.1"},{"rune":"W","hex":"#3366ff99","correct":32,"choice":32,"rt":458.48500001011416,"accuracy":1,"outcome":"+10","keys":[1959.4800000195391],"total_keys":1,"block":2,"trial":154,"robot":1,"valence":"win","action":"go","sham":0,"trial_type":"pit-trial","trial_index":168,"time_elapsed":1135210,"internal_node_id":"0.0-157.0","task_version":"battery-v0.1"},{"rune":"T","hex":"#f73b6a7A","correct":32,"choice":32,"rt":697.7449999831151,"accuracy":1,"outcome":"-1","keys":[2198.180000006687],"total_keys":1,"block":2,"trial":155,"robot":3,"valence":"lose","action":"go","sham":0,"trial_type":"pit-trial","trial_index":169,"time_elapsed":1138610,"internal_node_id":"0.0-158.0","task_version":"battery-v0.1"},{"rune":"Y","hex":"#3366ff99","correct":-1,"choice":-1,"rt":-1,"accuracy":1,"outcome":"+1","keys":[],"total_keys":0,"block":2,"trial":156,"robot":2,"valence":"win","action":"no-go","sham":1,"trial_type":"pit-trial","trial_index":170,"time_elapsed":1142612,"internal_node_id":"0.0-159.0","task_version":"battery-v0.1"},{"rune":"W","hex":"#3366ff99","correct":32,"choice":32,"rt":430.8949999976903,"accuracy":1,"outcome":"+10","keys":[1931.9350000005215],"total_keys":1,"block":2,"trial":157,"robot":1,"valence":"win","action":"go","sham":0,"trial_type":"pit-trial","trial_index":171,"time_elapsed":1145746,"internal_node_id":"0.0-160.0","task_version":"battery-v0.1"},{"rune":"Y","hex":"#3366ff99","correct":-1,"choice":32,"rt":641.4400000066962,"accuracy":0,"outcome":"+1","keys":[2141.5449999913108],"total_keys":1,"block":2,"trial":158,"robot":2,"valence":"win","action":"no-go","sham":0,"trial_type":"pit-trial","trial_index":172,"time_elapsed":1149089,"internal_node_id":"0.0-161.0","task_version":"battery-v0.1"},{"rune":"M","hex":"#f73b6a7A","correct":-1,"choice":-1,"rt":-1,"accuracy":1,"outcome":"-1","keys":[],"total_keys":0,"block":2,"trial":159,"robot":4,"valence":"lose","action":"no-go","sham":0,"trial_type":"pit-trial","trial_index":173,"time_elapsed":1153092,"internal_node_id":"0.0-162.0","task_version":"battery-v0.1"},{"rune":"T","hex":"#f73b6a7A","correct":32,"choice":32,"rt":558.8950000237674,"accuracy":1,"outcome":"-1","keys":[2059.864999988349],"total_keys":1,"block":2,"trial":160,"robot":3,"valence":"lose","action":"go","sham":0,"trial_type":"pit-trial","trial_index":174,"time_elapsed":1156354,"internal_node_id":"0.0-163.0","task_version":"battery-v0.1"},{"rune":"T","hex":"#f73b6a7A","correct":32,"choice":32,"rt":576.9250000012107,"accuracy":1,"outcome":"-10","keys":[2077.965000004042],"total_keys":1,"block":2,"trial":161,"robot":3,"valence":"lose","action":"go","sham":1,"trial_type":"pit-trial","trial_index":175,"time_elapsed":1159634,"internal_node_id":"0.0-164.0","task_version":"battery-v0.1"},{"rune":"M","hex":"#f73b6a7A","correct":-1,"choice":-1,"rt":-1,"accuracy":1,"outcome":"-10","keys":[],"total_keys":0,"block":2,"trial":162,"robot":4,"valence":"lose","action":"no-go","sham":1,"trial_type":"pit-trial","trial_index":176,"time_elapsed":1163637,"internal_node_id":"0.0-165.0","task_version":"battery-v0.1"},{"rune":"B","hex":"#3366ff99","correct":32,"choice":32,"rt":709.5749999862164,"accuracy":1,"outcome":"+10","keys":[2210.6149999890476],"total_keys":1,"block":2,"trial":163,"robot":1,"valence":"win","action":"go","sham":0,"trial_type":"pit-trial","trial_index":177,"time_elapsed":1167050,"internal_node_id":"0.0-166.0","task_version":"battery-v0.1"},{"rune":"E","hex":"#3366ff99","correct":-1,"choice":32,"rt":665.0099999969825,"accuracy":0,"outcome":"+1","keys":[2165.6700000166893],"total_keys":1,"block":2,"trial":164,"robot":2,"valence":"win","action":"no-go","sham":0,"trial_type":"pit-trial","trial_index":178,"time_elapsed":1170418,"internal_node_id":"0.0-167.0","task_version":"battery-v0.1"},{"rune":"B","hex":"#3366ff99","correct":32,"choice":32,"rt":529.4500000018161,"accuracy":1,"outcome":"+10","keys":[2029.58000000217],"total_keys":1,"block":2,"trial":165,"robot":1,"valence":"win","action":"go","sham":0,"trial_type":"pit-trial","trial_index":179,"time_elapsed":1173650,"internal_node_id":"0.0-168.0","task_version":"battery-v0.1"},{"rune":"M","hex":"#f73b6a7A","correct":-1,"choice":-1,"rt":-1,"accuracy":1,"outcome":"-1","keys":[],"total_keys":0,"block":2,"trial":166,"robot":4,"valence":"lose","action":"no-go","sham":0,"trial_type":"pit-trial","trial_index":180,"time_elapsed":1177652,"internal_node_id":"0.0-169.0","task_version":"battery-v0.1"},{"rune":"E","hex":"#3366ff99","correct":-1,"choice":-1,"rt":-1,"accuracy":1,"outcome":"+10","keys":[],"total_keys":0,"block":2,"trial":167,"robot":2,"valence":"win","action":"no-go","sham":0,"trial_type":"pit-trial","trial_index":181,"time_elapsed":1181654,"internal_node_id":"0.0-170.0","task_version":"battery-v0.1"},{"rune":"T","hex":"#f73b6a7A","correct":32,"choice":32,"rt":652.2950000071432,"accuracy":1,"outcome":"-1","keys":[2153.3549999876413],"total_keys":1,"block":2,"trial":168,"robot":3,"valence":"lose","action":"go","sham":0,"trial_type":"pit-trial","trial_index":182,"time_elapsed":1185009,"internal_node_id":"0.0-171.0","task_version":"battery-v0.1"},{"rune":"T","hex":"#f73b6a7A","correct":32,"choice":32,"rt":657.8750000044238,"accuracy":1,"outcome":"-10","keys":[2157.890000002226],"total_keys":1,"block":2,"trial":169,"robot":3,"valence":"lose","action":"go","sham":1,"trial_type":"pit-trial","trial_index":183,"time_elapsed":1188370,"internal_node_id":"0.0-172.0","task_version":"battery-v0.1"},{"rune":"R","hex":"#f73b6a7A","correct":-1,"choice":32,"rt":568.2749999978114,"accuracy":0,"outcome":"-1","keys":[2069.7349999973085],"total_keys":1,"block":2,"trial":170,"robot":4,"valence":"lose","action":"no-go","sham":1,"trial_type":"pit-trial","trial_index":184,"time_elapsed":1191641,"internal_node_id":"0.0-173.0","task_version":"battery-v0.1"},{"rune":"E","hex":"#3366ff99","correct":-1,"choice":32,"rt":825.5899999930989,"accuracy":0,"outcome":"+1","keys":[2326.3350000197534],"total_keys":1,"block":2,"trial":171,"robot":2,"valence":"win","action":"no-go","sham":0,"trial_type":"pit-trial","trial_index":185,"time_elapsed":1195169,"internal_node_id":"0.0-174.0","task_version":"battery-v0.1"},{"rune":"B","hex":"#3366ff99","correct":32,"choice":32,"rt":489.49499998707324,"accuracy":1,"outcome":"+1","keys":[1990.60499999905],"total_keys":1,"block":2,"trial":172,"robot":1,"valence":"win","action":"go","sham":1,"trial_type":"pit-trial","trial_index":186,"time_elapsed":1198362,"internal_node_id":"0.0-175.0","task_version":"battery-v0.1"},{"rune":"E","hex":"#3366ff99","correct":-1,"choice":32,"rt":936.6549999976996,"accuracy":0,"outcome":"+1","keys":[2437.7950000052806],"total_keys":1,"block":2,"trial":173,"robot":2,"valence":"win","action":"no-go","sham":0,"trial_type":"pit-trial","trial_index":187,"time_elapsed":1202001,"internal_node_id":"0.0-176.0","task_version":"battery-v0.1"},{"rune":"T","hex":"#f73b6a7A","correct":32,"choice":32,"rt":810.204999987036,"accuracy":1,"outcome":"-1","keys":[2310.714999999618],"total_keys":1,"block":2,"trial":174,"robot":3,"valence":"lose","action":"go","sham":0,"trial_type":"pit-trial","trial_index":188,"time_elapsed":1205513,"internal_node_id":"0.0-177.0","task_version":"battery-v0.1"},{"rune":"B","hex":"#3366ff99","correct":32,"choice":32,"rt":456.76000000094064,"accuracy":1,"outcome":"+10","keys":[1957.8249999904074],"total_keys":1,"block":2,"trial":175,"robot":1,"valence":"win","action":"go","sham":0,"trial_type":"pit-trial","trial_index":189,"time_elapsed":1208673,"internal_node_id":"0.0-178.0","task_version":"battery-v0.1"},{"rune":"R","hex":"#f73b6a7A","correct":-1,"choice":-1,"rt":-1,"accuracy":1,"outcome":"-1","keys":[2966.145000013057],"total_keys":1,"block":2,"trial":176,"robot":4,"valence":"lose","action":"no-go","sham":0,"trial_type":"pit-trial","trial_index":190,"time_elapsed":1212677,"internal_node_id":"0.0-179.0","task_version":"battery-v0.1"},{"rune":"R","hex":"#f73b6a7A","correct":-1,"choice":32,"rt":709.0150000003632,"accuracy":0,"outcome":"-10","keys":[2209.965000016382],"total_keys":1,"block":2,"trial":177,"robot":4,"valence":"lose","action":"no-go","sham":0,"trial_type":"pit-trial","trial_index":191,"time_elapsed":1216089,"internal_node_id":"0.0-180.0","task_version":"battery-v0.1"},{"rune":"T","hex":"#f73b6a7A","correct":32,"choice":32,"rt":841.6399999987334,"accuracy":1,"outcome":"-1","keys":[2342.6000000035856],"total_keys":1,"block":2,"trial":178,"robot":3,"valence":"lose","action":"go","sham":0,"trial_type":"pit-trial","trial_index":192,"time_elapsed":1219634,"internal_node_id":"0.0-181.0","task_version":"battery-v0.1"},{"rune":"B","hex":"#3366ff99","correct":32,"choice":32,"rt":561.470000015106,"accuracy":1,"outcome":"+10","keys":[2061.4950000017416],"total_keys":1,"block":2,"trial":179,"robot":1,"valence":"win","action":"go","sham":0,"trial_type":"pit-trial","trial_index":193,"time_elapsed":1222897,"internal_node_id":"0.0-182.0","task_version":"battery-v0.1"},{"rune":"E","hex":"#3366ff99","correct":-1,"choice":32,"rt":561.8900000117719,"accuracy":0,"outcome":"+1","keys":[2062.9449999833014],"total_keys":1,"block":2,"trial":180,"robot":2,"valence":"win","action":"no-go","sham":0,"trial_type":"pit-trial","trial_index":194,"time_elapsed":1226162,"internal_node_id":"0.0-183.0","task_version":"battery-v0.1"},{"rune":"T","hex":"#f73b6a7A","correct":32,"choice":32,"rt":536.5949999832083,"accuracy":1,"outcome":"-10","keys":[2037.7299999818206],"total_keys":1,"block":2,"trial":181,"robot":3,"valence":"lose","action":"go","sham":1,"trial_type":"pit-trial","trial_index":195,"time_elapsed":1229402,"internal_node_id":"0.0-184.0","task_version":"battery-v0.1"},{"rune":"E","hex":"#3366ff99","correct":-1,"choice":-1,"rt":-1,"accuracy":1,"outcome":"+1","keys":[],"total_keys":0,"block":2,"trial":182,"robot":2,"valence":"win","action":"no-go","sham":1,"trial_type":"pit-trial","trial_index":196,"time_elapsed":1233405,"internal_node_id":"0.0-185.0","task_version":"battery-v0.1"},{"rune":"B","hex":"#3366ff99","correct":32,"choice":32,"rt":533.9349999849219,"accuracy":1,"outcome":"+1","keys":[2035.0749999925029],"total_keys":1,"block":2,"trial":183,"robot":1,"valence":"win","action":"go","sham":1,"trial_type":"pit-trial","trial_index":197,"time_elapsed":1236642,"internal_node_id":"0.0-186.0","task_version":"battery-v0.1"},{"rune":"R","hex":"#f73b6a7A","correct":-1,"choice":-1,"rt":-1,"accuracy":1,"outcome":"-10","keys":[],"total_keys":0,"block":2,"trial":184,"robot":4,"valence":"lose","action":"no-go","sham":1,"trial_type":"pit-trial","trial_index":198,"time_elapsed":1240645,"internal_node_id":"0.0-187.0","task_version":"battery-v0.1"},{"rune":"T","hex":"#f73b6a7A","correct":32,"choice":32,"rt":638.9049999997951,"accuracy":1,"outcome":"-1","keys":[2139.0450000180863],"total_keys":1,"block":2,"trial":185,"robot":3,"valence":"lose","action":"go","sham":0,"trial_type":"pit-trial","trial_index":199,"time_elapsed":1243986,"internal_node_id":"0.0-188.0","task_version":"battery-v0.1"},{"rune":"B","hex":"#3366ff99","correct":32,"choice":32,"rt":576.4650000201073,"accuracy":1,"outcome":"+10","keys":[2077.549999987241],"total_keys":1,"block":2,"trial":186,"robot":1,"valence":"win","action":"go","sham":0,"trial_type":"pit-trial","trial_index":200,"time_elapsed":1247266,"internal_node_id":"0.0-189.0","task_version":"battery-v0.1"},{"rune":"E","hex":"#3366ff99","correct":-1,"choice":32,"rt":833.119999995688,"accuracy":0,"outcome":"+1","keys":[2334.340000001248],"total_keys":1,"block":2,"trial":187,"robot":2,"valence":"win","action":"no-go","sham":0,"trial_type":"pit-trial","trial_index":201,"time_elapsed":1250802,"internal_node_id":"0.0-190.0","task_version":"battery-v0.1"},{"rune":"R","hex":"#f73b6a7A","correct":-1,"choice":-1,"rt":-1,"accuracy":1,"outcome":"-1","keys":[],"total_keys":0,"block":2,"trial":188,"robot":4,"valence":"lose","action":"no-go","sham":0,"trial_type":"pit-trial","trial_index":202,"time_elapsed":1254805,"internal_node_id":"0.0-191.0","task_version":"battery-v0.1"},{"rune":"E","hex":"#3366ff99","correct":-1,"choice":-1,"rt":-1,"accuracy":1,"outcome":"+10","keys":[],"total_keys":0,"block":2,"trial":189,"robot":2,"valence":"win","action":"no-go","sham":0,"trial_type":"pit-trial","trial_index":203,"time_elapsed":1258808,"internal_node_id":"0.0-192.0","task_version":"battery-v0.1"},{"rune":"T","hex":"#f73b6a7A","correct":32,"choice":32,"rt":674.8050000169314,"accuracy":1,"outcome":"-1","keys":[2175.3349999780767],"total_keys":1,"block":2,"trial":190,"robot":3,"valence":"lose","action":"go","sham":0,"trial_type":"pit-trial","trial_index":204,"time_elapsed":1262185,"internal_node_id":"0.0-193.0","task_version":"battery-v0.1"},{"rune":"R","hex":"#f73b6a7A","correct":-1,"choice":-1,"rt":-1,"accuracy":1,"outcome":"-1","keys":[],"total_keys":0,"block":2,"trial":191,"robot":4,"valence":"lose","action":"no-go","sham":0,"trial_type":"pit-trial","trial_index":205,"time_elapsed":1266188,"internal_node_id":"0.0-194.0","task_version":"battery-v0.1"},{"rune":"B","hex":"#3366ff99","correct":32,"choice":32,"rt":566.5399999998044,"accuracy":1,"outcome":"+10","keys":[2067.704999994021],"total_keys":1,"block":2,"trial":192,"robot":1,"valence":"win","action":"go","sham":0,"trial_type":"pit-trial","trial_index":206,"time_elapsed":1269457,"internal_node_id":"0.0-195.0","task_version":"battery-v0.1"},{"rune":"R","hex":"#f73b6a7A","correct":-1,"choice":-1,"rt":-1,"accuracy":1,"outcome":"-1","keys":[],"total_keys":0,"block":2,"trial":193,"robot":4,"valence":"lose","action":"no-go","sham":0,"trial_type":"pit-trial","trial_index":207,"time_elapsed":1273460,"internal_node_id":"0.0-196.0","task_version":"battery-v0.1"},{"rune":"N","hex":"#3366ff99","correct":32,"choice":32,"rt":830.1700000010896,"accuracy":1,"outcome":"+10","keys":[2331.659999996191],"total_keys":1,"block":2,"trial":194,"robot":1,"valence":"win","action":"go","sham":0,"trial_type":"pit-trial","trial_index":208,"time_elapsed":1276993,"internal_node_id":"0.0-197.0","task_version":"battery-v0.1"},{"rune":"E","hex":"#3366ff99","correct":-1,"choice":-1,"rt":-1,"accuracy":1,"outcome":"+10","keys":[],"total_keys":0,"block":2,"trial":195,"robot":2,"valence":"win","action":"no-go","sham":0,"trial_type":"pit-trial","trial_index":209,"time_elapsed":1280996,"internal_node_id":"0.0-198.0","task_version":"battery-v0.1"},{"rune":"Z","hex":"#f73b6a7A","correct":32,"choice":32,"rt":1007.8450000146404,"accuracy":1,"outcome":"-1","keys":[2507.949999999255],"total_keys":1,"block":2,"trial":196,"robot":3,"valence":"lose","action":"go","sham":0,"trial_type":"pit-trial","trial_index":210,"time_elapsed":1284706,"internal_node_id":"0.0-199.0","task_version":"battery-v0.1"},{"rune":"N","hex":"#3366ff99","correct":32,"choice":32,"rt":1088.4549999900628,"accuracy":1,"outcome":"+10","keys":[2589.525000017602],"total_keys":1,"block":2,"trial":197,"robot":1,"valence":"win","action":"go","sham":0,"trial_type":"pit-trial","trial_index":211,"time_elapsed":1288498,"internal_node_id":"0.0-200.0","task_version":"battery-v0.1"},{"rune":"E","hex":"#3366ff99","correct":-1,"choice":-1,"rt":-1,"accuracy":1,"outcome":"+10","keys":[],"total_keys":0,"block":2,"trial":198,"robot":2,"valence":"win","action":"no-go","sham":0,"trial_type":"pit-trial","trial_index":212,"time_elapsed":1292502,"internal_node_id":"0.0-201.0","task_version":"battery-v0.1"},{"rune":"R","hex":"#f73b6a7A","correct":-1,"choice":-1,"rt":-1,"accuracy":1,"outcome":"-1","keys":[],"total_keys":0,"block":2,"trial":199,"robot":4,"valence":"lose","action":"no-go","sham":0,"trial_type":"pit-trial","trial_index":213,"time_elapsed":1296504,"internal_node_id":"0.0-202.0","task_version":"battery-v0.1"},{"rune":"Z","hex":"#f73b6a7A","correct":32,"choice":32,"rt":1161.9950000022072,"accuracy":1,"outcome":"-1","keys":[2663.024999987101],"total_keys":1,"block":2,"trial":200,"robot":3,"valence":"lose","action":"go","sham":0,"trial_type":"pit-trial","trial_index":214,"time_elapsed":1300369,"internal_node_id":"0.0-203.0","task_version":"battery-v0.1"},{"rune":"Z","hex":"#f73b6a7A","correct":32,"choice":32,"rt":625.2350000140723,"accuracy":1,"outcome":"-1","keys":[2126.075000007404],"total_keys":1,"block":2,"trial":201,"robot":3,"valence":"lose","action":"go","sham":0,"trial_type":"pit-trial","trial_index":215,"time_elapsed":1303697,"internal_node_id":"0.0-204.0","task_version":"battery-v0.1"},{"rune":"R","hex":"#f73b6a7A","correct":-1,"choice":-1,"rt":-1,"accuracy":1,"outcome":"-1","keys":[],"total_keys":0,"block":2,"trial":202,"robot":4,"valence":"lose","action":"no-go","sham":0,"trial_type":"pit-trial","trial_index":216,"time_elapsed":1307701,"internal_node_id":"0.0-205.0","task_version":"battery-v0.1"},{"rune":"E","hex":"#3366ff99","correct":-1,"choice":-1,"rt":-1,"accuracy":1,"outcome":"+10","keys":[],"total_keys":0,"block":2,"trial":203,"robot":2,"valence":"win","action":"no-go","sham":0,"trial_type":"pit-trial","trial_index":217,"time_elapsed":1311704,"internal_node_id":"0.0-206.0","task_version":"battery-v0.1"},{"rune":"N","hex":"#3366ff99","correct":32,"choice":32,"rt":883.1000000063796,"accuracy":1,"outcome":"+10","keys":[2384.140000009211],"total_keys":1,"block":2,"trial":204,"robot":1,"valence":"win","action":"go","sham":0,"trial_type":"pit-trial","trial_index":218,"time_elapsed":1315290,"internal_node_id":"0.0-207.0","task_version":"battery-v0.1"},{"rune":"R","hex":"#f73b6a7A","correct":-1,"choice":-1,"rt":-1,"accuracy":1,"outcome":"-1","keys":[],"total_keys":0,"block":2,"trial":205,"robot":4,"valence":"lose","action":"no-go","sham":0,"trial_type":"pit-trial","trial_index":219,"time_elapsed":1319294,"internal_node_id":"0.0-208.0","task_version":"battery-v0.1"},{"rune":"N","hex":"#3366ff99","correct":32,"choice":32,"rt":908.804999984568,"accuracy":1,"outcome":"+10","keys":[2409.8050000029616],"total_keys":1,"block":2,"trial":206,"robot":1,"valence":"win","action":"go","sham":0,"trial_type":"pit-trial","trial_index":220,"time_elapsed":1322906,"internal_node_id":"0.0-209.0","task_version":"battery-v0.1"},{"rune":"E","hex":"#3366ff99","correct":-1,"choice":-1,"rt":-1,"accuracy":1,"outcome":"+10","keys":[],"total_keys":0,"block":2,"trial":207,"robot":2,"valence":"win","action":"no-go","sham":0,"trial_type":"pit-trial","trial_index":221,"time_elapsed":1326909,"internal_node_id":"0.0-210.0","task_version":"battery-v0.1"},{"rune":"Z","hex":"#f73b6a7A","correct":32,"choice":-1,"rt":-1,"accuracy":0,"outcome":"-10","keys":[],"total_keys":0,"block":2,"trial":208,"robot":3,"valence":"lose","action":"go","sham":0,"trial_type":"pit-trial","trial_index":222,"time_elapsed":1330912,"internal_node_id":"0.0-211.0","task_version":"battery-v0.1"},{"rune":"D","hex":"#f73b6a7A","correct":32,"choice":32,"rt":810.6750000151806,"accuracy":1,"outcome":"-1","keys":[2311.7249999777414],"total_keys":1,"block":2,"trial":209,"robot":3,"valence":"lose","action":"go","sham":0,"trial_type":"pit-trial","trial_index":223,"time_elapsed":1334426,"internal_node_id":"0.0-212.0","task_version":"battery-v0.1"},{"rune":"K","hex":"#3366ff99","correct":-1,"choice":32,"rt":855.1399999996647,"accuracy":0,"outcome":"+1","keys":[2357.075000007171],"total_keys":1,"block":2,"trial":210,"robot":2,"valence":"win","action":"no-go","sham":0,"trial_type":"pit-trial","trial_index":224,"time_elapsed":1337985,"internal_node_id":"0.0-213.0","task_version":"battery-v0.1"},{"rune":"Z","hex":"#f73b6a7A","correct":32,"choice":32,"rt":913.9250000007451,"accuracy":1,"outcome":"-1","keys":[2414.809999987483],"total_keys":1,"block":2,"trial":211,"robot":3,"valence":"lose","action":"go","sham":0,"trial_type":"pit-trial","trial_index":225,"time_elapsed":1341602,"internal_node_id":"0.0-214.0","task_version":"battery-v0.1"},{"rune":"N","hex":"#3366ff99","correct":32,"choice":32,"rt":617.789999989327,"accuracy":1,"outcome":"+10","keys":[2117.919999989681],"total_keys":1,"block":2,"trial":212,"robot":1,"valence":"win","action":"go","sham":0,"trial_type":"pit-trial","trial_index":226,"time_elapsed":1344922,"internal_node_id":"0.0-215.0","task_version":"battery-v0.1"},{"rune":"N","hex":"#3366ff99","correct":32,"choice":32,"rt":408.5250000061933,"accuracy":1,"outcome":"+10","keys":[1909.509999997681],"total_keys":1,"block":2,"trial":213,"robot":1,"valence":"win","action":"go","sham":0,"trial_type":"pit-trial","trial_index":227,"time_elapsed":1348034,"internal_node_id":"0.0-216.0","task_version":"battery-v0.1"},{"rune":"Z","hex":"#f73b6a7A","correct":32,"choice":32,"rt":888.5050000099,"accuracy":1,"outcome":"-10","keys":[2389.454999996815],"total_keys":1,"block":2,"trial":214,"robot":3,"valence":"lose","action":"go","sham":1,"trial_type":"pit-trial","trial_index":228,"time_elapsed":1351625,"internal_node_id":"0.0-217.0","task_version":"battery-v0.1"},{"rune":"K","hex":"#3366ff99","correct":-1,"choice":-1,"rt":-1,"accuracy":1,"outcome":"+10","keys":[],"total_keys":0,"block":2,"trial":215,"robot":2,"valence":"win","action":"no-go","sham":0,"trial_type":"pit-trial","trial_index":229,"time_elapsed":1355629,"internal_node_id":"0.0-218.0","task_version":"battery-v0.1"},{"rune":"D","hex":"#f73b6a7A","correct":32,"choice":32,"rt":517.1599999885075,"accuracy":1,"outcome":"-10","keys":[2018.3499999984633],"total_keys":1,"block":2,"trial":216,"robot":3,"valence":"lose","action":"go","sham":1,"trial_type":"pit-trial","trial_index":230,"time_elapsed":1358850,"internal_node_id":"0.0-219.0","task_version":"battery-v0.1"},{"rune":"K","hex":"#3366ff99","correct":-1,"choice":-1,"rt":-1,"accuracy":1,"outcome":"+1","keys":[],"total_keys":0,"block":2,"trial":217,"robot":2,"valence":"win","action":"no-go","sham":1,"trial_type":"pit-trial","trial_index":231,"time_elapsed":1362852,"internal_node_id":"0.0-220.0","task_version":"battery-v0.1"},{"rune":"Z","hex":"#f73b6a7A","correct":32,"choice":32,"rt":582.6149999920744,"accuracy":1,"outcome":"-1","keys":[2083.069999993313],"total_keys":1,"block":2,"trial":218,"robot":3,"valence":"lose","action":"go","sham":0,"trial_type":"pit-trial","trial_index":232,"time_elapsed":1366136,"internal_node_id":"0.0-221.0","task_version":"battery-v0.1"},{"rune":"N","hex":"#3366ff99","correct":32,"choice":32,"rt":417.2050000051968,"accuracy":1,"outcome":"+10","keys":[1918.485000001965],"total_keys":1,"block":2,"trial":219,"robot":1,"valence":"win","action":"go","sham":0,"trial_type":"pit-trial","trial_index":233,"time_elapsed":1369257,"internal_node_id":"0.0-222.0","task_version":"battery-v0.1"},{"rune":"D","hex":"#f73b6a7A","correct":32,"choice":32,"rt":889.339999994263,"accuracy":1,"outcome":"-10","keys":[2389.5750000083353],"total_keys":1,"block":2,"trial":220,"robot":3,"valence":"lose","action":"go","sham":1,"trial_type":"pit-trial","trial_index":234,"time_elapsed":1372849,"internal_node_id":"0.0-223.0","task_version":"battery-v0.1"},{"rune":"Z","hex":"#f73b6a7A","correct":32,"choice":32,"rt":591.6150000120979,"accuracy":1,"outcome":"-1","keys":[2093.315000005532],"total_keys":1,"block":2,"trial":221,"robot":3,"valence":"lose","action":"go","sham":0,"trial_type":"pit-trial","trial_index":235,"time_elapsed":1376145,"internal_node_id":"0.0-224.0","task_version":"battery-v0.1"},{"rune":"D","hex":"#f73b6a7A","correct":32,"choice":32,"rt":401.27500001108274,"accuracy":1,"outcome":"-1","keys":[1902.3000000161119],"total_keys":1,"block":2,"trial":222,"robot":3,"valence":"lose","action":"go","sham":0,"trial_type":"pit-trial","trial_index":236,"time_elapsed":1379248,"internal_node_id":"0.0-225.0","task_version":"battery-v0.1"},{"rune":"K","hex":"#3366ff99","correct":-1,"choice":-1,"rt":-1,"accuracy":1,"outcome":"+10","keys":[],"total_keys":0,"block":2,"trial":223,"robot":2,"valence":"win","action":"no-go","sham":0,"trial_type":"pit-trial","trial_index":237,"time_elapsed":1383252,"internal_node_id":"0.0-226.0","task_version":"battery-v0.1"},{"rune":"N","hex":"#3366ff99","correct":32,"choice":32,"rt":853.5150000243448,"accuracy":1,"outcome":"+1","keys":[2354.364999977406],"total_keys":1,"block":2,"trial":224,"robot":1,"valence":"win","action":"go","sham":1,"trial_type":"pit-trial","trial_index":238,"time_elapsed":1386809,"internal_node_id":"0.0-227.0","task_version":"battery-v0.1"},{"rune":"D","hex":"#f73b6a7A","correct":32,"choice":32,"rt":634.6750000084285,"accuracy":1,"outcome":"-1","keys":[2134.6899999771267],"total_keys":1,"block":2,"trial":225,"robot":3,"valence":"lose","action":"go","sham":0,"trial_type":"pit-trial","trial_index":239,"time_elapsed":1390145,"internal_node_id":"0.0-228.0","task_version":"battery-v0.1"},{"rune":"N","hex":"#3366ff99","correct":32,"choice":32,"rt":464.01500000501983,"accuracy":1,"outcome":"+10","keys":[1965.9699999901932],"total_keys":1,"block":2,"trial":226,"robot":1,"valence":"win","action":"go","sham":0,"trial_type":"pit-trial","trial_index":240,"time_elapsed":1393314,"internal_node_id":"0.0-229.0","task_version":"battery-v0.1"},{"rune":"Z","hex":"#f73b6a7A","correct":32,"choice":32,"rt":511.9600000034552,"accuracy":1,"outcome":"-1","keys":[2013.0100000242237],"total_keys":1,"block":2,"trial":227,"robot":3,"valence":"lose","action":"go","sham":0,"trial_type":"pit-trial","trial_index":241,"time_elapsed":1396528,"internal_node_id":"0.0-230.0","task_version":"battery-v0.1"},{"rune":"K","hex":"#3366ff99","correct":-1,"choice":-1,"rt":-1,"accuracy":1,"outcome":"+10","keys":[],"total_keys":0,"block":2,"trial":228,"robot":2,"valence":"win","action":"no-go","sham":0,"trial_type":"pit-trial","trial_index":242,"time_elapsed":1400532,"internal_node_id":"0.0-231.0","task_version":"battery-v0.1"},{"rune":"D","hex":"#f73b6a7A","correct":32,"choice":32,"rt":653.7249999819323,"accuracy":1,"outcome":"-1","keys":[2154.769999993732],"total_keys":1,"block":2,"trial":229,"robot":3,"valence":"lose","action":"go","sham":0,"trial_type":"pit-trial","trial_index":243,"time_elapsed":1403889,"internal_node_id":"0.0-232.0","task_version":"battery-v0.1"},{"rune":"N","hex":"#3366ff99","correct":32,"choice":32,"rt":713.4000000078231,"accuracy":1,"outcome":"+10","keys":[2213.4899999946356],"total_keys":1,"block":2,"trial":230,"robot":1,"valence":"win","action":"go","sham":0,"trial_type":"pit-trial","trial_index":244,"time_elapsed":1407305,"internal_node_id":"0.0-233.0","task_version":"battery-v0.1"},{"rune":"K","hex":"#3366ff99","correct":-1,"choice":-1,"rt":-1,"accuracy":1,"outcome":"+10","keys":[],"total_keys":0,"block":2,"trial":231,"robot":2,"valence":"win","action":"no-go","sham":0,"trial_type":"pit-trial","trial_index":245,"time_elapsed":1411307,"internal_node_id":"0.0-234.0","task_version":"battery-v0.1"},{"rune":"Z","hex":"#f73b6a7A","correct":32,"choice":32,"rt":718.0000000225846,"accuracy":1,"outcome":"-1","keys":[2219.940000009956],"total_keys":1,"block":2,"trial":232,"robot":3,"valence":"lose","action":"go","sham":0,"trial_type":"pit-trial","trial_index":246,"time_elapsed":1414729,"internal_node_id":"0.0-235.0","task_version":"battery-v0.1"},{"rune":"K","hex":"#3366ff99","correct":-1,"choice":-1,"rt":-1,"accuracy":1,"outcome":"+10","keys":[],"total_keys":0,"block":2,"trial":233,"robot":2,"valence":"win","action":"no-go","sham":0,"trial_type":"pit-trial","trial_index":247,"time_elapsed":1418733,"internal_node_id":"0.0-236.0","task_version":"battery-v0.1"},{"rune":"D","hex":"#f73b6a7A","correct":32,"choice":32,"rt":860.8299999905284,"accuracy":1,"outcome":"-1","keys":[2361.8750000023283],"total_keys":1,"block":2,"trial":234,"robot":3,"valence":"lose","action":"go","sham":0,"trial_type":"pit-trial","trial_index":248,"time_elapsed":1422297,"internal_node_id":"0.0-237.0","task_version":"battery-v0.1"},{"rune":"N","hex":"#3366ff99","correct":32,"choice":32,"rt":816.2550000124611,"accuracy":1,"outcome":"+10","keys":[2317.7900000009686],"total_keys":1,"block":2,"trial":235,"robot":1,"valence":"win","action":"go","sham":0,"trial_type":"pit-trial","trial_index":249,"time_elapsed":1425818,"internal_node_id":"0.0-238.0","task_version":"battery-v0.1"},{"rune":"Z","hex":"#f73b6a7A","correct":32,"choice":32,"rt":776.7199999943841,"accuracy":1,"outcome":"-1","keys":[2277.8500000131316],"total_keys":1,"block":2,"trial":236,"robot":3,"valence":"lose","action":"go","sham":0,"trial_type":"pit-trial","trial_index":250,"time_elapsed":1429298,"internal_node_id":"0.0-239.0","task_version":"battery-v0.1"},{"rune":"D","hex":"#f73b6a7A","correct":32,"choice":32,"rt":681.5950000018347,"accuracy":1,"outcome":"-1","keys":[2181.715000013355],"total_keys":1,"block":2,"trial":237,"robot":3,"valence":"lose","action":"go","sham":0,"trial_type":"pit-trial","trial_index":251,"time_elapsed":1432682,"internal_node_id":"0.0-240.0","task_version":"battery-v0.1"},{"rune":"Z","hex":"#f73b6a7A","correct":32,"choice":32,"rt":768.9350000000559,"accuracy":1,"outcome":"-10","keys":[2270.189999981085],"total_keys":1,"block":2,"trial":238,"robot":3,"valence":"lose","action":"go","sham":1,"trial_type":"pit-trial","trial_index":252,"time_elapsed":1436154,"internal_node_id":"0.0-241.0","task_version":"battery-v0.1"},{"rune":"K","hex":"#3366ff99","correct":-1,"choice":-1,"rt":-1,"accuracy":1,"outcome":"+10","keys":[],"total_keys":0,"block":2,"trial":239,"robot":2,"valence":"win","action":"no-go","sham":0,"trial_type":"pit-trial","trial_index":253,"time_elapsed":1440156,"internal_node_id":"0.0-242.0","task_version":"battery-v0.1"},{"rune":"N","hex":"#3366ff99","correct":32,"choice":32,"rt":887.0349999924656,"accuracy":1,"outcome":"+10","keys":[2387.430000002496],"total_keys":1,"block":2,"trial":240,"robot":1,"valence":"win","action":"go","sham":0,"trial_type":"pit-trial","trial_index":254,"time_elapsed":1443746,"internal_node_id":"0.0-243.0","task_version":"battery-v0.1"},{"view_history":"[{\"page_index\":0,\"viewing_time\":3584.999999991851}]","rt":3585.255000012694,"trial_type":"pit-instructions","trial_index":255,"time_elapsed":1447332,"internal_node_id":"0.0-244.0","task_version":"battery-v0.1"},{"rt":12870.90999999782,"responses":{"age":"40","gender-categorical":"Female","gender-free-response":"","ethnicity":"Not Hispanic or Latino","race":["White"],"language":"Yes","fluency":"Very well"},"survey":"demographics","trial_type":"survey-demo","trial_index":256,"time_elapsed":1460204,"internal_node_id":"0.0-245.0","task_version":"battery-v0.1"},{"rt":24585.800000000745,"responses":{"difficulty":"3","fun":"4","clarity":"5","strategy":"just tried to remember what was good and what was bad","feedback":""},"survey":"debrief","trial_type":"survey-debrief","trial_index":257,"time_elapsed":1484792,"internal_node_id":"0.0-246.0","task_version":"battery-v0.1","interactions":"[{\"event\":\"blur\",\"trial\":11,\"time\":180149},{\"event\":\"focus\",\"trial\":11,\"time\":308343},{\"event\":\"blur\",\"trial\":61,\"time\":636870},{\"event\":\"focus\",\"trial\":63,\"time\":647346},{\"event\":\"blur\",\"trial\":64,\"time\":649437},{\"event\":\"focus\",\"trial\":65,\"time\":654426},{\"event\":\"blur\",\"trial\":79,\"time\":706617},{\"event\":\"focus\",\"trial\":81,\"time\":716439},{\"event\":\"blur\",\"trial\":105,\"time\":798961},{\"event\":\"focus\",\"trial\":105,\"time\":802163},{\"event\":\"blur\",\"trial\":106,\"time\":803462},{\"event\":\"focus\",\"trial\":106,\"time\":805793},{\"event\":\"blur\",\"trial\":134,\"time\":910349},{\"event\":\"focus\",\"trial\":134,\"time\":1001896},{\"event\":\"blur\",\"trial\":138,\"time\":1021058},{\"event\":\"focus\",\"trial\":138,\"time\":1023170},{\"event\":\"blur\",\"trial\":139,\"time\":1024358},{\"event\":\"focus\",\"trial\":144,\"time\":1044392}]"}]