[{"view_history":"[{\"page_index\":0,\"viewing_time\":2614.495000001625},{\"page_index\":1,\"viewing_time\":3007.0249999989755},{\"page_index\":2,\"viewing_time\":1872.8750000009313},{\"page_index\":3,\"viewing_time\":6665.385000000242},{\"page_index\":4,\"viewing_time\":6231.960000000981},{\"page_index\":5,\"viewing_time\":5890.874999997322}]","rt":26284.395000002405,"trial_type":"pit-instructions","trial_index":0,"time_elapsed":26362,"internal_node_id":"0.0-0.0-0.0","task_version":"battery-v0.1"},{"rune":"","hex":"#FFFFF080","correct":32,"choice":-1,"rt":-1,"accuracy":0,"outcome":"+0","keys":[1495.2899999989313],"total_keys":1,"block":0,"trial_type":"pit-trial","trial_index":1,"time_elapsed":30367,"internal_node_id":"0.0-0.0-1.0-0.0","task_version":"battery-v0.1"},{"rune":"","hex":"#FFFFF080","correct":32,"choice":-1,"rt":-1,"accuracy":0,"outcome":"+0","keys":[89.38499999931082,3065.660000000207],"total_keys":2,"block":0,"trial_type":"pit-trial","trial_index":2,"time_elapsed":34370,"internal_node_id":"0.0-0.0-1.0-0.1","task_version":"battery-v0.1"},{"rune":"","hex":"#FFFFF080","correct":32,"choice":-1,"rt":-1,"accuracy":0,"outcome":"+0","keys":[3326.8650000027264],"total_keys":1,"block":0,"trial_type":"pit-trial","trial_index":3,"time_elapsed":38373,"internal_node_id":"0.0-0.0-1.0-0.2","task_version":"battery-v0.1"},{"rune":"","hex":"#FFFFF080","correct":32,"choice":-1,"rt":-1,"accuracy":0,"outcome":"+0","keys":[3162.365000000136],"total_keys":1,"block":0,"trial_type":"pit-trial","trial_index":4,"time_elapsed":42378,"internal_node_id":"0.0-0.0-1.0-0.3","task_version":"battery-v0.1"},{"view_history":"[{\"page_index\":0,\"viewing_time\":6893.970000000991}]","rt":6894.830000001093,"trial_type":"pit-instructions","trial_index":5,"time_elapsed":49275,"internal_node_id":"0.0-0.0-2.0","task_version":"battery-v0.1"},{"rune":"","hex":"#FFFFF080","correct":-1,"choice":-1,"rt":-1,"accuracy":1,"outcome":"+10","keys":[],"total_keys":0,"block":0,"trial_type":"pit-trial","trial_index":6,"time_elapsed":53281,"internal_node_id":"0.0-0.0-3.0-0.0","task_version":"battery-v0.1"},{"rune":"","hex":"#FFFFF080","correct":-1,"choice":-1,"rt":-1,"accuracy":1,"outcome":"+10","keys":[],"total_keys":0,"block":0,"trial_type":"pit-trial","trial_index":7,"time_elapsed":57289,"internal_node_id":"0.0-0.0-3.0-0.1","task_version":"battery-v0.1"},{"rune":"","hex":"#FFFFF080","correct":-1,"choice":-1,"rt":-1,"accuracy":1,"outcome":"+10","keys":[],"total_keys":0,"block":0,"trial_type":"pit-trial","trial_index":8,"time_elapsed":61291,"internal_node_id":"0.0-0.0-3.0-0.2","task_version":"battery-v0.1"},{"rune":"","hex":"#FFFFF080","correct":-1,"choice":-1,"rt":-1,"accuracy":1,"outcome":"+10","keys":[],"total_keys":0,"block":0,"trial_type":"pit-trial","trial_index":9,"time_elapsed":65294,"internal_node_id":"0.0-0.0-3.0-0.3","task_version":"battery-v0.1"},{"responses":["Press SPACE","Do nothing"],"num_errors":0,"rt":11052.494999999908,"trial_type":"pit-comprehension","trial_index":10,"time_elapsed":76351,"internal_node_id":"0.0-0.0-4.0","task_version":"battery-v0.1"},{"view_history":"[{\"page_index\":0,\"viewing_time\":3931.7249999985506},{\"page_index\":1,\"viewing_time\":6595.509999999194},{\"page_index\":2,\"viewing_time\":3556.8750000020373},{\"page_index\":3,\"viewing_time\":5441.494999999122},{\"page_index\":4,\"viewing_time\":4712.50499999951},{\"page_index\":5,\"viewing_time\":6184.105000000272},{\"page_index\":6,\"viewing_time\":8673.934999998892},{\"page_index\":7,\"viewing_time\":7704.359999999724},{\"page_index\":8,\"viewing_time\":3153.2200000001467},{\"page_index\":9,\"viewing_time\":2112.925000001269},{\"page_index\":10,\"viewing_time\":1695.6050000007963}]","rt":53763.15500000055,"trial_type":"pit-instructions","trial_index":11,"time_elapsed":130125,"internal_node_id":"0.0-1.0-0.0","task_version":"battery-v0.1"},{"responses":["+10","+1","True","True"],"num_errors":1,"rt":23496.48000000161,"trial_type":"pit-comprehension","trial_index":12,"time_elapsed":153627,"internal_node_id":"0.0-1.0-1.0","task_version":"battery-v0.1"},{"view_history":"[{\"page_index\":0,\"viewing_time\":5083.060000000842},{\"page_index\":1,\"viewing_time\":2168.2499999988067},{\"page_index\":2,\"viewing_time\":2656.010000002425},{\"page_index\":3,\"viewing_time\":2055.7349999980943},{\"page_index\":4,\"viewing_time\":1135.9499999998661},{\"page_index\":5,\"viewing_time\":18026.734999999462},{\"page_index\":6,\"viewing_time\":10472.905000002356},{\"page_index\":7,\"viewing_time\":3169.0400000006775},{\"page_index\":8,\"viewing_time\":1248.649999997724},{\"page_index\":9,\"viewing_time\":831.4850000024308},{\"page_index\":10,\"viewing_time\":967.6599999984319}]","rt":47816.02500000008,"trial_type":"pit-instructions","trial_index":13,"time_elapsed":201453,"internal_node_id":"0.0-1.1-0.1","task_version":"battery-v0.1"},{"responses":["+10","-1","True","True"],"num_errors":0,"rt":20481.00500000146,"trial_type":"pit-comprehension","trial_index":14,"time_elapsed":221939,"internal_node_id":"0.0-1.1-1.1","task_version":"battery-v0.1"},{"view_history":"[{\"page_index\":0,\"viewing_time\":1498.9999999997963},{\"page_index\":1,\"viewing_time\":3664.854999999079}]","rt":5164.3999999978405,"trial_type":"pit-instructions","trial_index":15,"time_elapsed":227114,"internal_node_id":"0.0-2.0","task_version":"battery-v0.1"},{"rune":"X","hex":"#3366ff99","correct":32,"choice":-1,"rt":-1,"accuracy":0,"outcome":"+10","keys":[3325.5949999984296],"total_keys":1,"block":1,"trial":1,"robot":1,"valence":"win","action":"go","sham":1,"trial_type":"pit-trial","trial_index":16,"time_elapsed":231118,"internal_node_id":"0.0-3.0","task_version":"battery-v0.1"},{"rune":"G","hex":"#3366ff99","correct":-1,"choice":32,"rt":589.2749999984517,"accuracy":0,"outcome":"+1","keys":[2089.4100000004983],"total_keys":1,"block":1,"trial":2,"robot":2,"valence":"win","action":"no-go","sham":0,"trial_type":"pit-trial","trial_index":17,"time_elapsed":234412,"internal_node_id":"0.0-4.0","task_version":"battery-v0.1"},{"rune":"U","hex":"#f73b6a7A","correct":-1,"choice":-1,"rt":-1,"accuracy":1,"outcome":"-1","keys":[],"total_keys":0,"block":1,"trial":3,"robot":4,"valence":"lose","action":"no-go","sham":0,"trial_type":"pit-trial","trial_index":18,"time_elapsed":238414,"internal_node_id":"0.0-5.0","task_version":"battery-v0.1"},{"rune":"M","hex":"#f73b6a7A","correct":-1,"choice":-1,"rt":-1,"accuracy":1,"outcome":"-1","keys":[],"total_keys":0,"block":1,"trial":4,"robot":4,"valence":"lose","action":"no-go","sham":0,"trial_type":"pit-trial","trial_index":19,"time_elapsed":242424,"internal_node_id":"0.0-6.0","task_version":"battery-v0.1"},{"rune":"G","hex":"#3366ff99","correct":-1,"choice":32,"rt":429.60500000117463,"accuracy":0,"outcome":"+1","keys":[1929.710000000341],"total_keys":1,"block":1,"trial":5,"robot":2,"valence":"win","action":"no-go","sham":0,"trial_type":"pit-trial","trial_index":20,"time_elapsed":245557,"internal_node_id":"0.0-7.0","task_version":"battery-v0.1"},{"rune":"U","hex":"#f73b6a7A","correct":-1,"choice":32,"rt":871.900000001915,"accuracy":0,"outcome":"-10","keys":[2372.0700000012584],"total_keys":1,"block":1,"trial":6,"robot":4,"valence":"lose","action":"no-go","sham":0,"trial_type":"pit-trial","trial_index":21,"time_elapsed":249131,"internal_node_id":"0.0-8.0","task_version":"battery-v0.1"},{"rune":"M","hex":"#f73b6a7A","correct":-1,"choice":-1,"rt":-1,"accuracy":1,"outcome":"-1","keys":[],"total_keys":0,"block":1,"trial":7,"robot":4,"valence":"lose","action":"no-go","sham":0,"trial_type":"pit-trial","trial_index":22,"time_elapsed":253135,"internal_node_id":"0.0-9.0","task_version":"battery-v0.1"},{"rune":"X","hex":"#3366ff99","correct":32,"choice":32,"rt":404.9349999986589,"accuracy":1,"outcome":"+10","keys":[1905.1550000003772],"total_keys":1,"block":1,"trial":8,"robot":1,"valence":"win","action":"go","sham":0,"trial_type":"pit-trial","trial_index":23,"time_elapsed":256244,"internal_node_id":"0.0-10.0","task_version":"battery-v0.1"},{"rune":"M","hex":"#f73b6a7A","correct":-1,"choice":-1,"rt":-1,"accuracy":1,"outcome":"-1","keys":[],"total_keys":0,"block":1,"trial":9,"robot":4,"valence":"lose","action":"no-go","sham":0,"trial_type":"pit-trial","trial_index":24,"time_elapsed":260248,"internal_node_id":"0.0-11.0","task_version":"battery-v0.1"},{"rune":"G","hex":"#3366ff99","correct":-1,"choice":32,"rt":386.804999998305,"accuracy":0,"outcome":"+1","keys":[1886.9899999990303],"total_keys":1,"block":1,"trial":10,"robot":2,"valence":"win","action":"no-go","sham":0,"trial_type":"pit-trial","trial_index":25,"time_elapsed":263339,"internal_node_id":"0.0-12.0","task_version":"battery-v0.1"},{"rune":"U","hex":"#f73b6a7A","correct":-1,"choice":-1,"rt":-1,"accuracy":1,"outcome":"-1","keys":[],"total_keys":0,"block":1,"trial":11,"robot":4,"valence":"lose","action":"no-go","sham":0,"trial_type":"pit-trial","trial_index":26,"time_elapsed":267343,"internal_node_id":"0.0-13.0","task_version":"battery-v0.1"},{"rune":"X","hex":"#3366ff99","correct":32,"choice":32,"rt":442.54000000003725,"accuracy":1,"outcome":"+10","keys":[1942.5300000002608],"total_keys":1,"block":1,"trial":12,"robot":1,"valence":"win","action":"go","sham":0,"trial_type":"pit-trial","trial_index":27,"time_elapsed":270492,"internal_node_id":"0.0-14.0","task_version":"battery-v0.1"},{"rune":"G","hex":"#3366ff99","correct":-1,"choice":32,"rt":359.5949999981094,"accuracy":0,"outcome":"+10","keys":[1859.6450000004843],"total_keys":1,"block":1,"trial":13,"robot":2,"valence":"win","action":"no-go","sham":1,"trial_type":"pit-trial","trial_index":28,"time_elapsed":273556,"internal_node_id":"0.0-15.0","task_version":"battery-v0.1"},{"rune":"X","hex":"#3366ff99","correct":32,"choice":32,"rt":415.38000000221655,"accuracy":1,"outcome":"+10","keys":[1915.4850000013248],"total_keys":1,"block":1,"trial":14,"robot":1,"valence":"win","action":"go","sham":0,"trial_type":"pit-trial","trial_index":29,"time_elapsed":276676,"internal_node_id":"0.0-16.0","task_version":"battery-v0.1"},{"rune":"M","hex":"#f73b6a7A","correct":-1,"choice":-1,"rt":-1,"accuracy":1,"outcome":"-1","keys":[],"total_keys":0,"block":1,"trial":15,"robot":4,"valence":"lose","action":"no-go","sham":0,"trial_type":"pit-trial","trial_index":30,"time_elapsed":280682,"internal_node_id":"0.0-17.0","task_version":"battery-v0.1"},{"rune":"U","hex":"#f73b6a7A","correct":-1,"choice":32,"rt":369.87499999668216,"accuracy":0,"outcome":"-10","keys":[1869.9949999973178],"total_keys":1,"block":1,"trial":16,"robot":4,"valence":"lose","action":"no-go","sham":0,"trial_type":"pit-trial","trial_index":31,"time_elapsed":283756,"internal_node_id":"0.0-18.0","task_version":"battery-v0.1"},{"rune":"X","hex":"#3366ff99","correct":32,"choice":32,"rt":199.63999999890802,"accuracy":1,"outcome":"+10","keys":[1699.929999998887],"total_keys":1,"block":1,"trial":17,"robot":1,"valence":"win","action":"go","sham":0,"trial_type":"pit-trial","trial_index":32,"time_elapsed":286660,"internal_node_id":"0.0-19.0","task_version":"battery-v0.1"},{"rune":"U","hex":"#f73b6a7A","correct":-1,"choice":-1,"rt":-1,"accuracy":1,"outcome":"-1","keys":[],"total_keys":0,"block":1,"trial":18,"robot":4,"valence":"lose","action":"no-go","sham":0,"trial_type":"pit-trial","trial_index":33,"time_elapsed":290664,"internal_node_id":"0.0-20.0","task_version":"battery-v0.1"},{"rune":"M","hex":"#f73b6a7A","correct":-1,"choice":-1,"rt":-1,"accuracy":1,"outcome":"-1","keys":[],"total_keys":0,"block":1,"trial":19,"robot":4,"valence":"lose","action":"no-go","sham":0,"trial_type":"pit-trial","trial_index":34,"time_elapsed":294668,"internal_node_id":"0.0-21.0","task_version":"battery-v0.1"},{"rune":"G","hex":"#3366ff99","correct":-1,"choice":32,"rt":280.6249999994179,"accuracy":0,"outcome":"+1","keys":[1780.7700000011828],"total_keys":1,"block":1,"trial":20,"robot":2,"valence":"win","action":"no-go","sham":0,"trial_type":"pit-trial","trial_index":35,"time_elapsed":297653,"internal_node_id":"0.0-22.0","task_version":"battery-v0.1"},{"rune":"M","hex":"#f73b6a7A","correct":-1,"choice":-1,"rt":-1,"accuracy":1,"outcome":"-1","keys":[],"total_keys":0,"block":1,"trial":21,"robot":4,"valence":"lose","action":"no-go","sham":0,"trial_type":"pit-trial","trial_index":36,"time_elapsed":301657,"internal_node_id":"0.0-23.0","task_version":"battery-v0.1"},{"rune":"U","hex":"#f73b6a7A","correct":-1,"choice":-1,"rt":-1,"accuracy":1,"outcome":"-1","keys":[],"total_keys":0,"block":1,"trial":22,"robot":4,"valence":"lose","action":"no-go","sham":0,"trial_type":"pit-trial","trial_index":37,"time_elapsed":305661,"internal_node_id":"0.0-24.0","task_version":"battery-v0.1"},{"rune":"X","hex":"#3366ff99","correct":32,"choice":32,"rt":383.43000000168104,"accuracy":1,"outcome":"+10","keys":[1883.545000000624],"total_keys":1,"block":1,"trial":23,"robot":1,"valence":"win","action":"go","sham":0,"trial_type":"pit-trial","trial_index":38,"time_elapsed":308748,"internal_node_id":"0.0-25.0","task_version":"battery-v0.1"},{"rune":"G","hex":"#3366ff99","correct":-1,"choice":32,"rt":663.1949999973294,"accuracy":0,"outcome":"+10","keys":[2163.350000002538],"total_keys":1,"block":1,"trial":24,"robot":2,"valence":"win","action":"no-go","sham":1,"trial_type":"pit-trial","trial_index":39,"time_elapsed":312116,"internal_node_id":"0.0-26.0","task_version":"battery-v0.1"},{"rune":"U","hex":"#f73b6a7A","correct":-1,"choice":-1,"rt":-1,"accuracy":1,"outcome":"-1","keys":[],"total_keys":0,"block":1,"trial":25,"robot":4,"valence":"lose","action":"no-go","sham":0,"trial_type":"pit-trial","trial_index":40,"time_elapsed":316120,"internal_node_id":"0.0-27.0","task_version":"battery-v0.1"},{"rune":"X","hex":"#3366ff99","correct":32,"choice":32,"rt":380.8149999968009,"accuracy":1,"outcome":"+10","keys":[1880.9150000015507],"total_keys":1,"block":1,"trial":26,"robot":1,"valence":"win","action":"go","sham":0,"trial_type":"pit-trial","trial_index":41,"time_elapsed":319205,"internal_node_id":"0.0-28.0","task_version":"battery-v0.1"},{"rune":"G","hex":"#3366ff99","correct":-1,"choice":32,"rt":422.9300000006333,"accuracy":0,"outcome":"+1","keys":[1923.0500000012107],"total_keys":1,"block":1,"trial":27,"robot":2,"valence":"win","action":"no-go","sham":0,"trial_type":"pit-trial","trial_index":42,"time_elapsed":322332,"internal_node_id":"0.0-29.0","task_version":"battery-v0.1"},{"rune":"M","hex":"#f73b6a7A","correct":-1,"choice":-1,"rt":-1,"accuracy":1,"outcome":"-10","keys":[],"total_keys":0,"block":1,"trial":28,"robot":4,"valence":"lose","action":"no-go","sham":1,"trial_type":"pit-trial","trial_index":43,"time_elapsed":326336,"internal_node_id":"0.0-30.0","task_version":"battery-v0.1"},{"rune":"X","hex":"#3366ff99","correct":32,"choice":32,"rt":253.04999999934807,"accuracy":1,"outcome":"+10","keys":[1753.1049999997485],"total_keys":1,"block":1,"trial":29,"robot":1,"valence":"win","action":"go","sham":0,"trial_type":"pit-trial","trial_index":44,"time_elapsed":329292,"internal_node_id":"0.0-31.0","task_version":"battery-v0.1"},{"rune":"G","hex":"#3366ff99","correct":-1,"choice":32,"rt":472.1400000016438,"accuracy":0,"outcome":"+10","keys":[1972.7549999988405],"total_keys":1,"block":1,"trial":30,"robot":2,"valence":"win","action":"no-go","sham":1,"trial_type":"pit-trial","trial_index":45,"time_elapsed":332468,"internal_node_id":"0.0-32.0","task_version":"battery-v0.1"},{"rune":"U","hex":"#f73b6a7A","correct":-1,"choice":-1,"rt":-1,"accuracy":1,"outcome":"-1","keys":[],"total_keys":0,"block":1,"trial":31,"robot":4,"valence":"lose","action":"no-go","sham":0,"trial_type":"pit-trial","trial_index":46,"time_elapsed":336472,"internal_node_id":"0.0-33.0","task_version":"battery-v0.1"},{"rune":"M","hex":"#f73b6a7A","correct":-1,"choice":32,"rt":205.0950000011362,"accuracy":0,"outcome":"-10","keys":[1705.1900000005844],"total_keys":1,"block":1,"trial":32,"robot":4,"valence":"lose","action":"no-go","sham":0,"trial_type":"pit-trial","trial_index":47,"time_elapsed":339381,"internal_node_id":"0.0-34.0","task_version":"battery-v0.1"},{"rune":"G","hex":"#3366ff99","correct":-1,"choice":32,"rt":399.3450000016601,"accuracy":0,"outcome":"+1","keys":[1899.424999999639],"total_keys":1,"block":1,"trial":33,"robot":2,"valence":"win","action":"no-go","sham":0,"trial_type":"pit-trial","trial_index":48,"time_elapsed":342484,"internal_node_id":"0.0-35.0","task_version":"battery-v0.1"},{"rune":"B","hex":"#f73b6a7A","correct":32,"choice":-1,"rt":-1,"accuracy":0,"outcome":"-10","keys":[],"total_keys":0,"block":1,"trial":34,"robot":3,"valence":"lose","action":"go","sham":0,"trial_type":"pit-trial","trial_index":49,"time_elapsed":346487,"internal_node_id":"0.0-36.0","task_version":"battery-v0.1"},{"rune":"M","hex":"#f73b6a7A","correct":-1,"choice":32,"rt":566.340000001248,"accuracy":0,"outcome":"-10","keys":[2066.4550000001327],"total_keys":1,"block":1,"trial":35,"robot":4,"valence":"lose","action":"no-go","sham":0,"trial_type":"pit-trial","trial_index":50,"time_elapsed":349757,"internal_node_id":"0.0-37.0","task_version":"battery-v0.1"},{"rune":"X","hex":"#3366ff99","correct":32,"choice":32,"rt":359.8950000014156,"accuracy":1,"outcome":"+10","keys":[1859.9949999989476],"total_keys":1,"block":1,"trial":36,"robot":1,"valence":"win","action":"go","sham":0,"trial_type":"pit-trial","trial_index":51,"time_elapsed":352820,"internal_node_id":"0.0-38.0","task_version":"battery-v0.1"},{"rune":"G","hex":"#3366ff99","correct":-1,"choice":32,"rt":355.56499999802327,"accuracy":0,"outcome":"+10","keys":[1855.6900000002934],"total_keys":1,"block":1,"trial":37,"robot":2,"valence":"win","action":"no-go","sham":1,"trial_type":"pit-trial","trial_index":52,"time_elapsed":355879,"internal_node_id":"0.0-39.0","task_version":"battery-v0.1"},{"rune":"X","hex":"#3366ff99","correct":32,"choice":32,"rt":364.77499999816064,"accuracy":1,"outcome":"+1","keys":[1864.9949999999371],"total_keys":1,"block":1,"trial":38,"robot":1,"valence":"win","action":"go","sham":1,"trial_type":"pit-trial","trial_index":53,"time_elapsed":358948,"internal_node_id":"0.0-40.0","task_version":"battery-v0.1"},{"rune":"M","hex":"#f73b6a7A","correct":-1,"choice":-1,"rt":-1,"accuracy":1,"outcome":"-1","keys":[],"total_keys":0,"block":1,"trial":39,"robot":4,"valence":"lose","action":"no-go","sham":0,"trial_type":"pit-trial","trial_index":54,"time_elapsed":362952,"internal_node_id":"0.0-41.0","task_version":"battery-v0.1"},{"rune":"B","hex":"#f73b6a7A","correct":32,"choice":-1,"rt":-1,"accuracy":0,"outcome":"-10","keys":[],"total_keys":0,"block":1,"trial":40,"robot":3,"valence":"lose","action":"go","sham":0,"trial_type":"pit-trial","trial_index":55,"time_elapsed":366956,"internal_node_id":"0.0-42.0","task_version":"battery-v0.1"},{"rune":"B","hex":"#f73b6a7A","correct":32,"choice":32,"rt":513.74500000017,"accuracy":1,"outcome":"-10","keys":[2013.8899999983842],"total_keys":1,"block":1,"trial":41,"robot":3,"valence":"lose","action":"go","sham":1,"trial_type":"pit-trial","trial_index":56,"time_elapsed":370173,"internal_node_id":"0.0-43.0","task_version":"battery-v0.1"},{"rune":"L","hex":"#3366ff99","correct":32,"choice":32,"rt":358.82499999931315,"accuracy":1,"outcome":"+10","keys":[1858.895000001241],"total_keys":1,"block":1,"trial":42,"robot":1,"valence":"win","action":"go","sham":0,"trial_type":"pit-trial","trial_index":57,"time_elapsed":373236,"internal_node_id":"0.0-44.0","task_version":"battery-v0.1"},{"rune":"J","hex":"#3366ff99","correct":-1,"choice":32,"rt":456.63499999861233,"accuracy":0,"outcome":"+1","keys":[1956.8300000028685],"total_keys":1,"block":1,"trial":43,"robot":2,"valence":"win","action":"no-go","sham":0,"trial_type":"pit-trial","trial_index":58,"time_elapsed":376396,"internal_node_id":"0.0-45.0","task_version":"battery-v0.1"},{"rune":"M","hex":"#f73b6a7A","correct":-1,"choice":32,"rt":486.6099999998696,"accuracy":0,"outcome":"-10","keys":[1052.705000001879,1986.735000002198],"total_keys":2,"block":1,"trial":44,"robot":4,"valence":"lose","action":"no-go","sham":0,"trial_type":"pit-trial","trial_index":59,"time_elapsed":379588,"internal_node_id":"0.0-46.0","task_version":"battery-v0.1"},{"rune":"M","hex":"#f73b6a7A","correct":-1,"choice":32,"rt":249.81999999727122,"accuracy":0,"outcome":"-10","keys":[1750.0099999997183],"total_keys":1,"block":1,"trial":45,"robot":4,"valence":"lose","action":"no-go","sham":0,"trial_type":"pit-trial","trial_index":60,"time_elapsed":382540,"internal_node_id":"0.0-47.0","task_version":"battery-v0.1"},{"rune":"B","hex":"#f73b6a7A","correct":32,"choice":-1,"rt":-1,"accuracy":0,"outcome":"-1","keys":[],"total_keys":0,"block":1,"trial":46,"robot":3,"valence":"lose","action":"go","sham":1,"trial_type":"pit-trial","trial_index":61,"time_elapsed":386545,"internal_node_id":"0.0-48.0","task_version":"battery-v0.1"},{"rune":"J","hex":"#3366ff99","correct":-1,"choice":32,"rt":171.31499999959487,"accuracy":0,"outcome":"+1","keys":[1671.4200000023702],"total_keys":1,"block":1,"trial":47,"robot":2,"valence":"win","action":"no-go","sham":0,"trial_type":"pit-trial","trial_index":62,"time_elapsed":389420,"internal_node_id":"0.0-49.0","task_version":"battery-v0.1"},{"rune":"L","hex":"#3366ff99","correct":32,"choice":32,"rt":785.4549999974552,"accuracy":1,"outcome":"+10","keys":[2285.6250000004075],"total_keys":1,"block":1,"trial":48,"robot":1,"valence":"win","action":"go","sham":0,"trial_type":"pit-trial","trial_index":63,"time_elapsed":392908,"internal_node_id":"0.0-50.0","task_version":"battery-v0.1"},{"rune":"J","hex":"#3366ff99","correct":-1,"choice":32,"rt":463.3450000001467,"accuracy":0,"outcome":"+1","keys":[1964.8850000012899],"total_keys":1,"block":1,"trial":49,"robot":2,"valence":"win","action":"no-go","sham":0,"trial_type":"pit-trial","trial_index":64,"time_elapsed":396076,"internal_node_id":"0.0-51.0","task_version":"battery-v0.1"},{"rune":"B","hex":"#f73b6a7A","correct":32,"choice":-1,"rt":-1,"accuracy":0,"outcome":"-1","keys":[],"total_keys":0,"block":1,"trial":50,"robot":3,"valence":"lose","action":"go","sham":1,"trial_type":"pit-trial","trial_index":65,"time_elapsed":400079,"internal_node_id":"0.0-52.0","task_version":"battery-v0.1"},{"rune":"I","hex":"#f73b6a7A","correct":-1,"choice":32,"rt":630.959999998624,"accuracy":0,"outcome":"-10","keys":[1082.7849999986356,2131.0749999975087],"total_keys":2,"block":1,"trial":51,"robot":4,"valence":"lose","action":"no-go","sham":0,"trial_type":"pit-trial","trial_index":66,"time_elapsed":403412,"internal_node_id":"0.0-53.0","task_version":"battery-v0.1"},{"rune":"L","hex":"#3366ff99","correct":32,"choice":32,"rt":288.590000000142,"accuracy":1,"outcome":"+1","keys":[1788.7000000010012],"total_keys":1,"block":1,"trial":52,"robot":1,"valence":"win","action":"go","sham":1,"trial_type":"pit-trial","trial_index":67,"time_elapsed":406404,"internal_node_id":"0.0-54.0","task_version":"battery-v0.1"},{"rune":"I","hex":"#f73b6a7A","correct":-1,"choice":32,"rt":296.58999999810476,"accuracy":0,"outcome":"-10","keys":[1796.9149999989895],"total_keys":1,"block":1,"trial":53,"robot":4,"valence":"lose","action":"no-go","sham":0,"trial_type":"pit-trial","trial_index":68,"time_elapsed":409404,"internal_node_id":"0.0-55.0","task_version":"battery-v0.1"},{"rune":"B","hex":"#f73b6a7A","correct":32,"choice":-1,"rt":-1,"accuracy":0,"outcome":"-1","keys":[],"total_keys":0,"block":1,"trial":54,"robot":3,"valence":"lose","action":"go","sham":1,"trial_type":"pit-trial","trial_index":69,"time_elapsed":413406,"internal_node_id":"0.0-56.0","task_version":"battery-v0.1"},{"rune":"J","hex":"#3366ff99","correct":-1,"choice":32,"rt":215.06000000226777,"accuracy":0,"outcome":"+1","keys":[1715.2200000018347],"total_keys":1,"block":1,"trial":55,"robot":2,"valence":"win","action":"no-go","sham":0,"trial_type":"pit-trial","trial_index":70,"time_elapsed":416324,"internal_node_id":"0.0-57.0","task_version":"battery-v0.1"},{"rune":"L","hex":"#3366ff99","correct":32,"choice":32,"rt":367.10500000120373,"accuracy":1,"outcome":"+10","keys":[1868.2499999995343],"total_keys":1,"block":1,"trial":56,"robot":1,"valence":"win","action":"go","sham":0,"trial_type":"pit-trial","trial_index":71,"time_elapsed":419396,"internal_node_id":"0.0-58.0","task_version":"battery-v0.1"},{"rune":"I","hex":"#f73b6a7A","correct":-1,"choice":-1,"rt":-1,"accuracy":1,"outcome":"-10","keys":[],"total_keys":0,"block":1,"trial":57,"robot":4,"valence":"lose","action":"no-go","sham":1,"trial_type":"pit-trial","trial_index":72,"time_elapsed":423399,"internal_node_id":"0.0-59.0","task_version":"battery-v0.1"},{"rune":"J","hex":"#3366ff99","correct":-1,"choice":32,"rt":349.7800000004354,"accuracy":0,"outcome":"+1","keys":[1849.9400000000605],"total_keys":1,"block":1,"trial":58,"robot":2,"valence":"win","action":"no-go","sham":0,"trial_type":"pit-trial","trial_index":73,"time_elapsed":426452,"internal_node_id":"0.0-60.0","task_version":"battery-v0.1"},{"rune":"L","hex":"#3366ff99","correct":32,"choice":32,"rt":400.42000000178814,"accuracy":1,"outcome":"+10","keys":[1900.5299999989802],"total_keys":1,"block":1,"trial":59,"robot":1,"valence":"win","action":"go","sham":0,"trial_type":"pit-trial","trial_index":74,"time_elapsed":429556,"internal_node_id":"0.0-61.0","task_version":"battery-v0.1"},{"rune":"B","hex":"#f73b6a7A","correct":32,"choice":-1,"rt":-1,"accuracy":0,"outcome":"-1","keys":[],"total_keys":0,"block":1,"trial":60,"robot":3,"valence":"lose","action":"go","sham":1,"trial_type":"pit-trial","trial_index":75,"time_elapsed":433558,"internal_node_id":"0.0-62.0","task_version":"battery-v0.1"},{"rune":"B","hex":"#f73b6a7A","correct":32,"choice":-1,"rt":-1,"accuracy":0,"outcome":"-10","keys":[],"total_keys":0,"block":1,"trial":61,"robot":3,"valence":"lose","action":"go","sham":0,"trial_type":"pit-trial","trial_index":76,"time_elapsed":437562,"internal_node_id":"0.0-63.0","task_version":"battery-v0.1"},{"rune":"L","hex":"#3366ff99","correct":32,"choice":32,"rt":883.0699999998324,"accuracy":1,"outcome":"+10","keys":[1117.9749999974156,2383.1849999987753],"total_keys":2,"block":1,"trial":62,"robot":1,"valence":"win","action":"go","sham":0,"trial_type":"pit-trial","trial_index":77,"time_elapsed":441148,"internal_node_id":"0.0-64.0","task_version":"battery-v0.1"},{"rune":"J","hex":"#3366ff99","correct":-1,"choice":32,"rt":401.33000000054017,"accuracy":0,"outcome":"+1","keys":[1901.4849999984726],"total_keys":1,"block":1,"trial":63,"robot":2,"valence":"win","action":"no-go","sham":0,"trial_type":"pit-trial","trial_index":78,"time_elapsed":444252,"internal_node_id":"0.0-65.0","task_version":"battery-v0.1"},{"rune":"I","hex":"#f73b6a7A","correct":-1,"choice":32,"rt":111.78000000293832,"accuracy":0,"outcome":"-10","keys":[1611.9150000013178],"total_keys":1,"block":1,"trial":64,"robot":4,"valence":"lose","action":"no-go","sham":0,"trial_type":"pit-trial","trial_index":79,"time_elapsed":447068,"internal_node_id":"0.0-66.0","task_version":"battery-v0.1"},{"rune":"L","hex":"#3366ff99","correct":32,"choice":32,"rt":469.3599999991129,"accuracy":1,"outcome":"+10","keys":[1970.5150000008289],"total_keys":1,"block":1,"trial":65,"robot":1,"valence":"win","action":"go","sham":0,"trial_type":"pit-trial","trial_index":80,"time_elapsed":450244,"internal_node_id":"0.0-67.0","task_version":"battery-v0.1"},{"rune":"J","hex":"#3366ff99","correct":-1,"choice":32,"rt":344.5500000016764,"accuracy":0,"outcome":"+1","keys":[1844.6350000012899],"total_keys":1,"block":1,"trial":66,"robot":2,"valence":"win","action":"no-go","sham":0,"trial_type":"pit-trial","trial_index":81,"time_elapsed":453293,"internal_node_id":"0.0-68.0","task_version":"battery-v0.1"},{"rune":"B","hex":"#f73b6a7A","correct":32,"choice":-1,"rt":-1,"accuracy":0,"outcome":"-10","keys":[],"total_keys":0,"block":1,"trial":67,"robot":3,"valence":"lose","action":"go","sham":0,"trial_type":"pit-trial","trial_index":82,"time_elapsed":457295,"internal_node_id":"0.0-69.0","task_version":"battery-v0.1"},{"rune":"I","hex":"#f73b6a7A","correct":-1,"choice":-1,"rt":-1,"accuracy":1,"outcome":"-1","keys":[],"total_keys":0,"block":1,"trial":68,"robot":4,"valence":"lose","action":"no-go","sham":0,"trial_type":"pit-trial","trial_index":83,"time_elapsed":461298,"internal_node_id":"0.0-70.0","task_version":"battery-v0.1"},{"rune":"B","hex":"#f73b6a7A","correct":32,"choice":-1,"rt":-1,"accuracy":0,"outcome":"-10","keys":[],"total_keys":0,"block":1,"trial":69,"robot":3,"valence":"lose","action":"go","sham":0,"trial_type":"pit-trial","trial_index":84,"time_elapsed":465303,"internal_node_id":"0.0-71.0","task_version":"battery-v0.1"},{"rune":"I","hex":"#f73b6a7A","correct":-1,"choice":32,"rt":359.7249999984051,"accuracy":0,"outcome":"-10","keys":[1859.8300000012387],"total_keys":1,"block":1,"trial":70,"robot":4,"valence":"lose","action":"no-go","sham":0,"trial_type":"pit-trial","trial_index":85,"time_elapsed":468365,"internal_node_id":"0.0-72.0","task_version":"battery-v0.1"},{"rune":"J","hex":"#3366ff99","correct":-1,"choice":32,"rt":351.490000000922,"accuracy":0,"outcome":"+10","keys":[1851.799999996787],"total_keys":1,"block":1,"trial":71,"robot":2,"valence":"win","action":"no-go","sham":1,"trial_type":"pit-trial","trial_index":86,"time_elapsed":471419,"internal_node_id":"0.0-73.0","task_version":"battery-v0.1"},{"rune":"L","hex":"#3366ff99","correct":32,"choice":32,"rt":401.8100000030827,"accuracy":1,"outcome":"+10","keys":[1901.9699999989825],"total_keys":1,"block":1,"trial":72,"robot":1,"valence":"win","action":"go","sham":0,"trial_type":"pit-trial","trial_index":87,"time_elapsed":474524,"internal_node_id":"0.0-74.0","task_version":"battery-v0.1"},{"rune":"I","hex":"#f73b6a7A","correct":-1,"choice":-1,"rt":-1,"accuracy":1,"outcome":"-1","keys":[],"total_keys":0,"block":1,"trial":73,"robot":4,"valence":"lose","action":"no-go","sham":0,"trial_type":"pit-trial","trial_index":88,"time_elapsed":478528,"internal_node_id":"0.0-75.0","task_version":"battery-v0.1"},{"rune":"Z","hex":"#3366ff99","correct":32,"choice":32,"rt":339.80499999964377,"accuracy":1,"outcome":"+10","keys":[1839.915000000503],"total_keys":1,"block":1,"trial":74,"robot":1,"valence":"win","action":"go","sham":0,"trial_type":"pit-trial","trial_index":89,"time_elapsed":481572,"internal_node_id":"0.0-76.0","task_version":"battery-v0.1"},{"rune":"J","hex":"#3366ff99","correct":-1,"choice":32,"rt":345.08999999891967,"accuracy":0,"outcome":"+10","keys":[1845.1900000000023],"total_keys":1,"block":1,"trial":75,"robot":2,"valence":"win","action":"no-go","sham":1,"trial_type":"pit-trial","trial_index":90,"time_elapsed":484620,"internal_node_id":"0.0-77.0","task_version":"battery-v0.1"},{"rune":"F","hex":"#f73b6a7A","correct":32,"choice":32,"rt":279.98500000103377,"accuracy":1,"outcome":"-1","keys":[1780.094999998284],"total_keys":1,"block":1,"trial":76,"robot":3,"valence":"lose","action":"go","sham":0,"trial_type":"pit-trial","trial_index":91,"time_elapsed":487605,"internal_node_id":"0.0-78.0","task_version":"battery-v0.1"},{"rune":"F","hex":"#f73b6a7A","correct":32,"choice":32,"rt":679.9400000018068,"accuracy":1,"outcome":"-1","keys":[2180.049999999057],"total_keys":1,"block":1,"trial":77,"robot":3,"valence":"lose","action":"go","sham":0,"trial_type":"pit-trial","trial_index":92,"time_elapsed":490988,"internal_node_id":"0.0-79.0","task_version":"battery-v0.1"},{"rune":"J","hex":"#3366ff99","correct":-1,"choice":32,"rt":777.1800000009243,"accuracy":0,"outcome":"+10","keys":[1349.8049999980722,2277.2599999989616],"total_keys":2,"block":1,"trial":78,"robot":2,"valence":"win","action":"no-go","sham":1,"trial_type":"pit-trial","trial_index":93,"time_elapsed":494468,"internal_node_id":"0.0-80.0","task_version":"battery-v0.1"},{"rune":"I","hex":"#f73b6a7A","correct":-1,"choice":-1,"rt":-1,"accuracy":1,"outcome":"-1","keys":[],"total_keys":0,"block":1,"trial":79,"robot":4,"valence":"lose","action":"no-go","sham":0,"trial_type":"pit-trial","trial_index":94,"time_elapsed":498472,"internal_node_id":"0.0-81.0","task_version":"battery-v0.1"},{"rune":"Z","hex":"#3366ff99","correct":32,"choice":32,"rt":316.6099999980652,"accuracy":1,"outcome":"+10","keys":[1816.7549999997718],"total_keys":1,"block":1,"trial":80,"robot":1,"valence":"win","action":"go","sham":0,"trial_type":"pit-trial","trial_index":95,"time_elapsed":501492,"internal_node_id":"0.0-82.0","task_version":"battery-v0.1"},{"rune":"I","hex":"#f73b6a7A","correct":-1,"choice":-1,"rt":-1,"accuracy":1,"outcome":"-1","keys":[],"total_keys":0,"block":1,"trial":81,"robot":4,"valence":"lose","action":"no-go","sham":0,"trial_type":"pit-trial","trial_index":96,"time_elapsed":505496,"internal_node_id":"0.0-83.0","task_version":"battery-v0.1"},{"rune":"Z","hex":"#3366ff99","correct":32,"choice":32,"rt":188.08999999967637,"accuracy":1,"outcome":"+10","keys":[1688.240000003134],"total_keys":1,"block":1,"trial":82,"robot":1,"valence":"win","action":"go","sham":0,"trial_type":"pit-trial","trial_index":97,"time_elapsed":508389,"internal_node_id":"0.0-84.0","task_version":"battery-v0.1"},{"rune":"F","hex":"#f73b6a7A","correct":32,"choice":-1,"rt":-1,"accuracy":0,"outcome":"-10","keys":[],"total_keys":0,"block":1,"trial":83,"robot":3,"valence":"lose","action":"go","sham":0,"trial_type":"pit-trial","trial_index":98,"time_elapsed":512393,"internal_node_id":"0.0-85.0","task_version":"battery-v0.1"},{"rune":"J","hex":"#3366ff99","correct":-1,"choice":32,"rt":260.54500000103144,"accuracy":0,"outcome":"+1","keys":[1760.6550000018324],"total_keys":1,"block":1,"trial":84,"robot":2,"valence":"win","action":"no-go","sham":0,"trial_type":"pit-trial","trial_index":99,"time_elapsed":515356,"internal_node_id":"0.0-86.0","task_version":"battery-v0.1"},{"rune":"Z","hex":"#3366ff99","correct":32,"choice":32,"rt":258.64999999979045,"accuracy":1,"outcome":"+10","keys":[1758.8099999993574],"total_keys":1,"block":1,"trial":85,"robot":1,"valence":"win","action":"go","sham":0,"trial_type":"pit-trial","trial_index":100,"time_elapsed":518318,"internal_node_id":"0.0-87.0","task_version":"battery-v0.1"},{"rune":"I","hex":"#f73b6a7A","correct":-1,"choice":-1,"rt":-1,"accuracy":1,"outcome":"-1","keys":[],"total_keys":0,"block":1,"trial":86,"robot":4,"valence":"lose","action":"no-go","sham":0,"trial_type":"pit-trial","trial_index":101,"time_elapsed":522322,"internal_node_id":"0.0-88.0","task_version":"battery-v0.1"},{"rune":"J","hex":"#3366ff99","correct":-1,"choice":32,"rt":186.03000000072643,"accuracy":0,"outcome":"+1","keys":[1686.089999999269],"total_keys":1,"block":1,"trial":87,"robot":2,"valence":"win","action":"no-go","sham":0,"trial_type":"pit-trial","trial_index":102,"time_elapsed":525213,"internal_node_id":"0.0-89.0","task_version":"battery-v0.1"},{"rune":"F","hex":"#f73b6a7A","correct":32,"choice":32,"rt":1033.0200000025798,"accuracy":1,"outcome":"-1","keys":[2533.0999999968335],"total_keys":1,"block":1,"trial":88,"robot":3,"valence":"lose","action":"go","sham":0,"trial_type":"pit-trial","trial_index":103,"time_elapsed":528949,"internal_node_id":"0.0-90.0","task_version":"battery-v0.1"},{"rune":"K","hex":"#f73b6a7A","correct":32,"choice":32,"rt":871.2899999991059,"accuracy":1,"outcome":"-10","keys":[2371.3750000024447],"total_keys":1,"block":1,"trial":89,"robot":3,"valence":"lose","action":"go","sham":1,"trial_type":"pit-trial","trial_index":104,"time_elapsed":532524,"internal_node_id":"0.0-91.0","task_version":"battery-v0.1"},{"rune":"Z","hex":"#3366ff99","correct":32,"choice":32,"rt":280.61999999766704,"accuracy":1,"outcome":"+1","keys":[1780.814999998198,2796.7649999990826],"total_keys":2,"block":1,"trial":90,"robot":1,"valence":"win","action":"go","sham":1,"trial_type":"pit-trial","trial_index":105,"time_elapsed":535508,"internal_node_id":"0.0-92.0","task_version":"battery-v0.1"},{"rune":"V","hex":"#3366ff99","correct":-1,"choice":32,"rt":414.50500000058673,"accuracy":0,"outcome":"+1","keys":[1916.205000001355],"total_keys":1,"block":1,"trial":91,"robot":2,"valence":"win","action":"no-go","sham":0,"trial_type":"pit-trial","trial_index":106,"time_elapsed":538628,"internal_node_id":"0.0-93.0","task_version":"battery-v0.1"},{"rune":"F","hex":"#f73b6a7A","correct":32,"choice":32,"rt":231.85999999986961,"accuracy":1,"outcome":"-1","keys":[1731.9500000011176],"total_keys":1,"block":1,"trial":92,"robot":3,"valence":"lose","action":"go","sham":0,"trial_type":"pit-trial","trial_index":107,"time_elapsed":541564,"internal_node_id":"0.0-94.0","task_version":"battery-v0.1"},{"rune":"V","hex":"#3366ff99","correct":-1,"choice":32,"rt":392.27000000025146,"accuracy":0,"outcome":"+1","keys":[1892.3849999991944],"total_keys":1,"block":1,"trial":93,"robot":2,"valence":"win","action":"no-go","sham":0,"trial_type":"pit-trial","trial_index":108,"time_elapsed":544660,"internal_node_id":"0.0-95.0","task_version":"battery-v0.1"},{"rune":"K","hex":"#f73b6a7A","correct":32,"choice":32,"rt":753.3100000000559,"accuracy":1,"outcome":"-10","keys":[2253.3850000000093],"total_keys":1,"block":1,"trial":94,"robot":3,"valence":"lose","action":"go","sham":1,"trial_type":"pit-trial","trial_index":109,"time_elapsed":548116,"internal_node_id":"0.0-96.0","task_version":"battery-v0.1"},{"rune":"Z","hex":"#3366ff99","correct":32,"choice":32,"rt":489.034999998752,"accuracy":1,"outcome":"+1","keys":[1989.1500000011874],"total_keys":1,"block":1,"trial":95,"robot":1,"valence":"win","action":"go","sham":1,"trial_type":"pit-trial","trial_index":110,"time_elapsed":551309,"internal_node_id":"0.0-97.0","task_version":"battery-v0.1"},{"rune":"F","hex":"#f73b6a7A","correct":32,"choice":-1,"rt":-1,"accuracy":0,"outcome":"-10","keys":[],"total_keys":0,"block":1,"trial":96,"robot":3,"valence":"lose","action":"go","sham":0,"trial_type":"pit-trial","trial_index":111,"time_elapsed":555311,"internal_node_id":"0.0-98.0","task_version":"battery-v0.1"},{"rune":"K","hex":"#f73b6a7A","correct":32,"choice":32,"rt":774.7300000009127,"accuracy":1,"outcome":"-1","keys":[2274.8200000023935],"total_keys":1,"block":1,"trial":97,"robot":3,"valence":"lose","action":"go","sham":0,"trial_type":"pit-trial","trial_index":112,"time_elapsed":558789,"internal_node_id":"0.0-99.0","task_version":"battery-v0.1"},{"rune":"V","hex":"#3366ff99","correct":-1,"choice":32,"rt":327.6850000002887,"accuracy":0,"outcome":"+1","keys":[1827.8199999985518],"total_keys":1,"block":1,"trial":98,"robot":2,"valence":"win","action":"no-go","sham":0,"trial_type":"pit-trial","trial_index":113,"time_elapsed":561821,"internal_node_id":"0.0-100.0","task_version":"battery-v0.1"},{"rune":"Z","hex":"#3366ff99","correct":32,"choice":32,"rt":287.8449999989243,"accuracy":1,"outcome":"+10","keys":[1787.9600000014761],"total_keys":1,"block":1,"trial":99,"robot":1,"valence":"win","action":"go","sham":0,"trial_type":"pit-trial","trial_index":114,"time_elapsed":564812,"internal_node_id":"0.0-101.0","task_version":"battery-v0.1"},{"rune":"F","hex":"#f73b6a7A","correct":32,"choice":-1,"rt":-1,"accuracy":0,"outcome":"-1","keys":[],"total_keys":0,"block":1,"trial":100,"robot":3,"valence":"lose","action":"go","sham":1,"trial_type":"pit-trial","trial_index":115,"time_elapsed":568815,"internal_node_id":"0.0-102.0","task_version":"battery-v0.1"},{"rune":"V","hex":"#3366ff99","correct":-1,"choice":32,"rt":373.6849999986589,"accuracy":0,"outcome":"+1","keys":[1873.8699999994133],"total_keys":1,"block":1,"trial":101,"robot":2,"valence":"win","action":"no-go","sham":0,"trial_type":"pit-trial","trial_index":116,"time_elapsed":571893,"internal_node_id":"0.0-103.0","task_version":"battery-v0.1"},{"rune":"F","hex":"#f73b6a7A","correct":32,"choice":-1,"rt":-1,"accuracy":0,"outcome":"-10","keys":[],"total_keys":0,"block":1,"trial":102,"robot":3,"valence":"lose","action":"go","sham":0,"trial_type":"pit-trial","trial_index":117,"time_elapsed":575897,"internal_node_id":"0.0-104.0","task_version":"battery-v0.1"},{"rune":"K","hex":"#f73b6a7A","correct":32,"choice":32,"rt":498.30999999912456,"accuracy":1,"outcome":"-1","keys":[1998.4350000013364],"total_keys":1,"block":1,"trial":103,"robot":3,"valence":"lose","action":"go","sham":0,"trial_type":"pit-trial","trial_index":118,"time_elapsed":579100,"internal_node_id":"0.0-105.0","task_version":"battery-v0.1"},{"rune":"Z","hex":"#3366ff99","correct":32,"choice":32,"rt":385.214999998454,"accuracy":1,"outcome":"+10","keys":[1885.3950000011828],"total_keys":1,"block":1,"trial":104,"robot":1,"valence":"win","action":"go","sham":0,"trial_type":"pit-trial","trial_index":119,"time_elapsed":582189,"internal_node_id":"0.0-106.0","task_version":"battery-v0.1"},{"rune":"K","hex":"#f73b6a7A","correct":32,"choice":-1,"rt":-1,"accuracy":0,"outcome":"-1","keys":[],"total_keys":0,"block":1,"trial":105,"robot":3,"valence":"lose","action":"go","sham":1,"trial_type":"pit-trial","trial_index":120,"time_elapsed":586192,"internal_node_id":"0.0-107.0","task_version":"battery-v0.1"},{"rune":"V","hex":"#3366ff99","correct":-1,"choice":32,"rt":316.4550000000745,"accuracy":0,"outcome":"+1","keys":[1817.1650000003865],"total_keys":1,"block":1,"trial":106,"robot":2,"valence":"win","action":"no-go","sham":0,"trial_type":"pit-trial","trial_index":121,"time_elapsed":589213,"internal_node_id":"0.0-108.0","task_version":"battery-v0.1"},{"rune":"F","hex":"#f73b6a7A","correct":32,"choice":-1,"rt":-1,"accuracy":0,"outcome":"-10","keys":[],"total_keys":0,"block":1,"trial":107,"robot":3,"valence":"lose","action":"go","sham":0,"trial_type":"pit-trial","trial_index":122,"time_elapsed":593215,"internal_node_id":"0.0-109.0","task_version":"battery-v0.1"},{"rune":"Z","hex":"#3366ff99","correct":32,"choice":32,"rt":287.3150000013411,"accuracy":1,"outcome":"+10","keys":[1787.4549999978626],"total_keys":1,"block":1,"trial":108,"robot":1,"valence":"win","action":"go","sham":0,"trial_type":"pit-trial","trial_index":123,"time_elapsed":596205,"internal_node_id":"0.0-110.0","task_version":"battery-v0.1"},{"rune":"F","hex":"#f73b6a7A","correct":32,"choice":-1,"rt":-1,"accuracy":0,"outcome":"-1","keys":[],"total_keys":0,"block":1,"trial":109,"robot":3,"valence":"lose","action":"go","sham":1,"trial_type":"pit-trial","trial_index":124,"time_elapsed":600209,"internal_node_id":"0.0-111.0","task_version":"battery-v0.1"},{"rune":"Z","hex":"#3366ff99","correct":32,"choice":32,"rt":412.2599999974482,"accuracy":1,"outcome":"+10","keys":[1912.560000000638],"total_keys":1,"block":1,"trial":110,"robot":1,"valence":"win","action":"go","sham":0,"trial_type":"pit-trial","trial_index":125,"time_elapsed":603325,"internal_node_id":"0.0-112.0","task_version":"battery-v0.1"},{"rune":"V","hex":"#3366ff99","correct":-1,"choice":32,"rt":561.4800000002142,"accuracy":0,"outcome":"+1","keys":[2062.695000000531],"total_keys":1,"block":1,"trial":111,"robot":2,"valence":"win","action":"no-go","sham":0,"trial_type":"pit-trial","trial_index":126,"time_elapsed":606591,"internal_node_id":"0.0-113.0","task_version":"battery-v0.1"},{"rune":"K","hex":"#f73b6a7A","correct":32,"choice":32,"rt":758.2449999972014,"accuracy":1,"outcome":"-1","keys":[2258.3449999983422],"total_keys":1,"block":1,"trial":112,"robot":3,"valence":"lose","action":"go","sham":0,"trial_type":"pit-trial","trial_index":127,"time_elapsed":610053,"internal_node_id":"0.0-114.0","task_version":"battery-v0.1"},{"rune":"F","hex":"#f73b6a7A","correct":32,"choice":-1,"rt":-1,"accuracy":0,"outcome":"-10","keys":[],"total_keys":0,"block":1,"trial":113,"robot":3,"valence":"lose","action":"go","sham":0,"trial_type":"pit-trial","trial_index":128,"time_elapsed":614057,"internal_node_id":"0.0-115.0","task_version":"battery-v0.1"},{"rune":"Z","hex":"#3366ff99","correct":32,"choice":32,"rt":365.6349999983795,"accuracy":1,"outcome":"+10","keys":[1865.8649999997579],"total_keys":1,"block":1,"trial":114,"robot":1,"valence":"win","action":"go","sham":0,"trial_type":"pit-trial","trial_index":129,"time_elapsed":617127,"internal_node_id":"0.0-116.0","task_version":"battery-v0.1"},{"rune":"K","hex":"#f73b6a7A","correct":32,"choice":32,"rt":502.349999998929,"accuracy":1,"outcome":"-10","keys":[2002.4149999989895],"total_keys":1,"block":1,"trial":115,"robot":3,"valence":"lose","action":"go","sham":1,"trial_type":"pit-trial","trial_index":130,"time_elapsed":620333,"internal_node_id":"0.0-117.0","task_version":"battery-v0.1"},{"rune":"V","hex":"#3366ff99","correct":-1,"choice":32,"rt":135.1250000006985,"accuracy":0,"outcome":"+10","keys":[892.1399999998976,1299.3699999969685,1635.3649999982445],"total_keys":3,"block":1,"trial":116,"robot":2,"valence":"win","action":"no-go","sham":1,"trial_type":"pit-trial","trial_index":131,"time_elapsed":623172,"internal_node_id":"0.0-118.0","task_version":"battery-v0.1"},{"rune":"V","hex":"#3366ff99","correct":-1,"choice":32,"rt":168.02500000258442,"accuracy":0,"outcome":"+1","keys":[1669.2000000001863,2029.835000001127,2269.655000000028],"total_keys":3,"block":1,"trial":117,"robot":2,"valence":"win","action":"no-go","sham":0,"trial_type":"pit-trial","trial_index":132,"time_elapsed":626044,"internal_node_id":"0.0-119.0","task_version":"battery-v0.1"},{"rune":"F","hex":"#f73b6a7A","correct":32,"choice":32,"rt":353.31500000029337,"accuracy":1,"outcome":"-10","keys":[893.739999999525,1205.0999999991618,1445.3149999971502,1853.2149999991525],"total_keys":4,"block":1,"trial":118,"robot":3,"valence":"lose","action":"go","sham":1,"trial_type":"pit-trial","trial_index":133,"time_elapsed":629101,"internal_node_id":"0.0-120.0","task_version":"battery-v0.1"},{"rune":"Z","hex":"#3366ff99","correct":32,"choice":32,"rt":143.6200000026729,"accuracy":1,"outcome":"+1","keys":[1643.770000002347,2116.0600000002887,2348.1300000021,2572.920000002254],"total_keys":4,"block":1,"trial":119,"robot":1,"valence":"win","action":"go","sham":1,"trial_type":"pit-trial","trial_index":134,"time_elapsed":631948,"internal_node_id":"0.0-121.0","task_version":"battery-v0.1"},{"rune":"K","hex":"#f73b6a7A","correct":32,"choice":32,"rt":105.30500000098255,"accuracy":1,"outcome":"-10","keys":[1126.3749999997672,1381.1749999986496,1605.4999999979045],"total_keys":3,"block":1,"trial":120,"robot":3,"valence":"lose","action":"go","sham":1,"trial_type":"pit-trial","trial_index":135,"time_elapsed":634757,"internal_node_id":"0.0-122.0","task_version":"battery-v0.1"},{"view_history":"[{\"page_index\":0,\"viewing_time\":15482.379999997676},{\"page_index\":1,\"viewing_time\":3969.055000001448}]","rt":19452.054999997956,"trial_type":"pit-instructions","trial_index":136,"time_elapsed":654211,"internal_node_id":"0.0-123.0","task_version":"battery-v0.1"},{"rune":"Q","hex":"#3366ff99","correct":32,"choice":32,"rt":311.25500000058673,"accuracy":1,"outcome":"+10","keys":[1171.2149999985704,1811.3899999989662],"total_keys":2,"block":2,"trial":121,"robot":1,"valence":"win","action":"go","sham":0,"trial_type":"pit-trial","trial_index":137,"time_elapsed":657229,"internal_node_id":"0.0-124.0","task_version":"battery-v0.1"},{"rune":"H","hex":"#3366ff99","correct":32,"choice":32,"rt":383.7500000009313,"accuracy":1,"outcome":"+10","keys":[1331.97999999905,1883.9599999992643],"total_keys":2,"block":2,"trial":122,"robot":1,"valence":"win","action":"go","sham":0,"trial_type":"pit-trial","trial_index":138,"time_elapsed":660316,"internal_node_id":"0.0-125.0","task_version":"battery-v0.1"},{"rune":"W","hex":"#3366ff99","correct":-1,"choice":32,"rt":144.33999999891967,"accuracy":0,"outcome":"+1","keys":[1030.5850000004284,1644.529999997816],"total_keys":2,"block":2,"trial":123,"robot":2,"valence":"win","action":"no-go","sham":0,"trial_type":"pit-trial","trial_index":139,"time_elapsed":663164,"internal_node_id":"0.0-126.0","task_version":"battery-v0.1"},{"rune":"Y","hex":"#f73b6a7A","correct":-1,"choice":-1,"rt":-1,"accuracy":1,"outcome":"-1","keys":[1437.3599999998696,2941.1150000013877],"total_keys":2,"block":2,"trial":124,"robot":4,"valence":"lose","action":"no-go","sham":0,"trial_type":"pit-trial","trial_index":140,"time_elapsed":667168,"internal_node_id":"0.0-127.0","task_version":"battery-v0.1"},{"rune":"H","hex":"#3366ff99","correct":32,"choice":32,"rt":45.05000000062864,"accuracy":1,"outcome":"+10","keys":[1545.1749999992317],"total_keys":1,"block":2,"trial":125,"robot":1,"valence":"win","action":"go","sham":0,"trial_type":"pit-trial","trial_index":141,"time_elapsed":669917,"internal_node_id":"0.0-128.0","task_version":"battery-v0.1"},{"rune":"Q","hex":"#3366ff99","correct":32,"choice":32,"rt":81.02499999955762,"accuracy":1,"outcome":"+10","keys":[1581.219999999972,2133.379999999306],"total_keys":2,"block":2,"trial":126,"robot":1,"valence":"win","action":"go","sham":0,"trial_type":"pit-trial","trial_index":142,"time_elapsed":672700,"internal_node_id":"0.0-129.0","task_version":"battery-v0.1"},{"rune":"Y","hex":"#f73b6a7A","correct":-1,"choice":32,"rt":25.8750000030268,"accuracy":0,"outcome":"-10","keys":[1268.9050000008428,1525.9750000004424],"total_keys":2,"block":2,"trial":127,"robot":4,"valence":"lose","action":"no-go","sham":0,"trial_type":"pit-trial","trial_index":143,"time_elapsed":675429,"internal_node_id":"0.0-130.0","task_version":"battery-v0.1"},{"rune":"W","hex":"#3366ff99","correct":-1,"choice":32,"rt":232.5700000001816,"accuracy":0,"outcome":"+1","keys":[1413.2099999987986,1732.7800000021234],"total_keys":2,"block":2,"trial":128,"robot":2,"valence":"win","action":"no-go","sham":0,"trial_type":"pit-trial","trial_index":144,"time_elapsed":678365,"internal_node_id":"0.0-131.0","task_version":"battery-v0.1"},{"rune":"Y","hex":"#f73b6a7A","correct":-1,"choice":32,"rt":375.6450000000186,"accuracy":0,"outcome":"-10","keys":[1875.8000000016764],"total_keys":1,"block":2,"trial":129,"robot":4,"valence":"lose","action":"no-go","sham":0,"trial_type":"pit-trial","trial_index":145,"time_elapsed":681445,"internal_node_id":"0.0-132.0","task_version":"battery-v0.1"},{"rune":"H","hex":"#3366ff99","correct":32,"choice":32,"rt":176.42500000144355,"accuracy":1,"outcome":"+10","keys":[1676.5249999989755,2020.075000000419],"total_keys":2,"block":2,"trial":130,"robot":1,"valence":"win","action":"go","sham":0,"trial_type":"pit-trial","trial_index":146,"time_elapsed":684325,"internal_node_id":"0.0-133.0","task_version":"battery-v0.1"},{"rune":"Q","hex":"#3366ff99","correct":32,"choice":32,"rt":316.9600000001956,"accuracy":1,"outcome":"+10","keys":[1818.665000002482,2059.420000001439],"total_keys":2,"block":2,"trial":131,"robot":1,"valence":"win","action":"go","sham":0,"trial_type":"pit-trial","trial_index":147,"time_elapsed":687348,"internal_node_id":"0.0-134.0","task_version":"battery-v0.1"},{"rune":"W","hex":"#3366ff99","correct":-1,"choice":32,"rt":272.55000000155997,"accuracy":0,"outcome":"+1","keys":[1772.6650000003865,2046.4150000006193,2268.674999999348],"total_keys":3,"block":2,"trial":132,"robot":2,"valence":"win","action":"no-go","sham":0,"trial_type":"pit-trial","trial_index":148,"time_elapsed":690324,"internal_node_id":"0.0-135.0","task_version":"battery-v0.1"},{"rune":"Q","hex":"#3366ff99","correct":32,"choice":32,"rt":265.7099999997299,"accuracy":1,"outcome":"+10","keys":[1765.8700000029057,1965.8800000033807,2221.2050000017043],"total_keys":3,"block":2,"trial":133,"robot":1,"valence":"win","action":"go","sham":0,"trial_type":"pit-trial","trial_index":149,"time_elapsed":693293,"internal_node_id":"0.0-136.0","task_version":"battery-v0.1"},{"rune":"W","hex":"#3366ff99","correct":-1,"choice":32,"rt":144.7699999990873,"accuracy":0,"outcome":"+1","keys":[1645.5249999999069,1916.9200000033015],"total_keys":2,"block":2,"trial":134,"robot":2,"valence":"win","action":"no-go","sham":0,"trial_type":"pit-trial","trial_index":150,"time_elapsed":696141,"internal_node_id":"0.0-137.0","task_version":"battery-v0.1"},{"rune":"H","hex":"#3366ff99","correct":32,"choice":32,"rt":521.0449999977136,"accuracy":1,"outcome":"+10","keys":[2021.164999998291],"total_keys":1,"block":2,"trial":135,"robot":1,"valence":"win","action":"go","sham":0,"trial_type":"pit-trial","trial_index":151,"time_elapsed":699366,"internal_node_id":"0.0-138.0","task_version":"battery-v0.1"},{"rune":"Y","hex":"#f73b6a7A","correct":-1,"choice":-1,"rt":-1,"accuracy":1,"outcome":"-1","keys":[],"total_keys":0,"block":2,"trial":136,"robot":4,"valence":"lose","action":"no-go","sham":0,"trial_type":"pit-trial","trial_index":152,"time_elapsed":703369,"internal_node_id":"0.0-139.0","task_version":"battery-v0.1"},{"rune":"H","hex":"#3366ff99","correct":32,"choice":32,"rt":355.7149999978719,"accuracy":1,"outcome":"+10","keys":[1855.9649999988033,2088.0899999975227],"total_keys":2,"block":2,"trial":137,"robot":1,"valence":"win","action":"go","sham":0,"trial_type":"pit-trial","trial_index":153,"time_elapsed":706428,"internal_node_id":"0.0-140.0","task_version":"battery-v0.1"},{"rune":"Y","hex":"#f73b6a7A","correct":-1,"choice":-1,"rt":-1,"accuracy":1,"outcome":"-1","keys":[],"total_keys":0,"block":2,"trial":138,"robot":4,"valence":"lose","action":"no-go","sham":0,"trial_type":"pit-trial","trial_index":154,"time_elapsed":710431,"internal_node_id":"0.0-141.0","task_version":"battery-v0.1"},{"rune":"W","hex":"#3366ff99","correct":-1,"choice":32,"rt":293.73499999940395,"accuracy":0,"outcome":"+1","keys":[1793.884999999078],"total_keys":1,"block":2,"trial":139,"robot":2,"valence":"win","action":"no-go","sham":0,"trial_type":"pit-trial","trial_index":155,"time_elapsed":713428,"internal_node_id":"0.0-142.0","task_version":"battery-v0.1"},{"rune":"Q","hex":"#3366ff99","correct":32,"choice":32,"rt":369.68500000145286,"accuracy":1,"outcome":"+10","keys":[1869.764999999432,2261.6949999973876,2614.190000000177],"total_keys":3,"block":2,"trial":140,"robot":1,"valence":"win","action":"go","sham":0,"trial_type":"pit-trial","trial_index":156,"time_elapsed":716500,"internal_node_id":"0.0-143.0","task_version":"battery-v0.1"},{"rune":"W","hex":"#3366ff99","correct":-1,"choice":32,"rt":305.0749999965774,"accuracy":0,"outcome":"+1","keys":[1805.1699999996927,2341.730000000098],"total_keys":2,"block":2,"trial":141,"robot":2,"valence":"win","action":"no-go","sham":0,"trial_type":"pit-trial","trial_index":157,"time_elapsed":719508,"internal_node_id":"0.0-144.0","task_version":"battery-v0.1"},{"rune":"H","hex":"#3366ff99","correct":32,"choice":32,"rt":473.4150000003865,"accuracy":1,"outcome":"+10","keys":[1973.5099999997765],"total_keys":1,"block":2,"trial":142,"robot":1,"valence":"win","action":"go","sham":0,"trial_type":"pit-trial","trial_index":158,"time_elapsed":722684,"internal_node_id":"0.0-145.0","task_version":"battery-v0.1"},{"rune":"Y","hex":"#f73b6a7A","correct":-1,"choice":32,"rt":448.5100000021048,"accuracy":0,"outcome":"-10","keys":[1948.6450000003679],"total_keys":1,"block":2,"trial":143,"robot":4,"valence":"lose","action":"no-go","sham":0,"trial_type":"pit-trial","trial_index":159,"time_elapsed":725836,"internal_node_id":"0.0-146.0","task_version":"battery-v0.1"},{"rune":"Q","hex":"#3366ff99","correct":32,"choice":32,"rt":319.9800000002142,"accuracy":1,"outcome":"+10","keys":[1820.1400000035064],"total_keys":1,"block":2,"trial":144,"robot":1,"valence":"win","action":"go","sham":0,"trial_type":"pit-trial","trial_index":160,"time_elapsed":728860,"internal_node_id":"0.0-147.0","task_version":"battery-v0.1"},{"rune":"Q","hex":"#3366ff99","correct":32,"choice":32,"rt":384.9399999999441,"accuracy":1,"outcome":"+10","keys":[1885.3600000002189],"total_keys":1,"block":2,"trial":145,"robot":1,"valence":"win","action":"go","sham":0,"trial_type":"pit-trial","trial_index":161,"time_elapsed":731948,"internal_node_id":"0.0-148.0","task_version":"battery-v0.1"},{"rune":"Y","hex":"#f73b6a7A","correct":-1,"choice":-1,"rt":-1,"accuracy":1,"outcome":"-1","keys":[],"total_keys":0,"block":2,"trial":146,"robot":4,"valence":"lose","action":"no-go","sham":0,"trial_type":"pit-trial","trial_index":162,"time_elapsed":735952,"internal_node_id":"0.0-149.0","task_version":"battery-v0.1"},{"rune":"W","hex":"#3366ff99","correct":-1,"choice":32,"rt":325.76500000129454,"accuracy":0,"outcome":"+1","keys":[1825.8999999997905],"total_keys":1,"block":2,"trial":147,"robot":2,"valence":"win","action":"no-go","sham":0,"trial_type":"pit-trial","trial_index":163,"time_elapsed":738981,"internal_node_id":"0.0-150.0","task_version":"battery-v0.1"},{"rune":"H","hex":"#3366ff99","correct":32,"choice":32,"rt":392.7350000012666,"accuracy":1,"outcome":"+10","keys":[1892.8950000008335],"total_keys":1,"block":2,"trial":148,"robot":1,"valence":"win","action":"go","sham":0,"trial_type":"pit-trial","trial_index":164,"time_elapsed":742077,"internal_node_id":"0.0-151.0","task_version":"battery-v0.1"},{"rune":"W","hex":"#3366ff99","correct":-1,"choice":32,"rt":296.17500000307336,"accuracy":0,"outcome":"+10","keys":[1796.5899999979883],"total_keys":1,"block":2,"trial":149,"robot":2,"valence":"win","action":"no-go","sham":1,"trial_type":"pit-trial","trial_index":165,"time_elapsed":745076,"internal_node_id":"0.0-152.0","task_version":"battery-v0.1"},{"rune":"Q","hex":"#3366ff99","correct":32,"choice":32,"rt":288.7799999988638,"accuracy":1,"outcome":"+10","keys":[1789.4100000011967,2165.6199999997625],"total_keys":2,"block":2,"trial":150,"robot":1,"valence":"win","action":"go","sham":0,"trial_type":"pit-trial","trial_index":166,"time_elapsed":748068,"internal_node_id":"0.0-153.0","task_version":"battery-v0.1"},{"rune":"Y","hex":"#f73b6a7A","correct":-1,"choice":-1,"rt":-1,"accuracy":1,"outcome":"-1","keys":[],"total_keys":0,"block":2,"trial":151,"robot":4,"valence":"lose","action":"no-go","sham":0,"trial_type":"pit-trial","trial_index":167,"time_elapsed":752071,"internal_node_id":"0.0-154.0","task_version":"battery-v0.1"},{"rune":"H","hex":"#3366ff99","correct":32,"choice":32,"rt":422.02499999990687,"accuracy":1,"outcome":"+10","keys":[1922.1749999996973,2258.789999999921],"total_keys":2,"block":2,"trial":152,"robot":1,"valence":"win","action":"go","sham":0,"trial_type":"pit-trial","trial_index":168,"time_elapsed":755196,"internal_node_id":"0.0-155.0","task_version":"battery-v0.1"},{"rune":"T","hex":"#3366ff99","correct":32,"choice":32,"rt":263.4250000009779,"accuracy":1,"outcome":"+10","keys":[1763.5300000001444,2075.4249999991152],"total_keys":2,"block":2,"trial":153,"robot":1,"valence":"win","action":"go","sham":0,"trial_type":"pit-trial","trial_index":169,"time_elapsed":758164,"internal_node_id":"0.0-156.0","task_version":"battery-v0.1"},{"rune":"W","hex":"#3366ff99","correct":-1,"choice":32,"rt":258.02499999909196,"accuracy":0,"outcome":"+1","keys":[1758.1399999981513,2053.700000000419],"total_keys":2,"block":2,"trial":154,"robot":2,"valence":"win","action":"no-go","sham":0,"trial_type":"pit-trial","trial_index":170,"time_elapsed":761124,"internal_node_id":"0.0-157.0","task_version":"battery-v0.1"},{"rune":"H","hex":"#3366ff99","correct":32,"choice":32,"rt":320.6350000000093,"accuracy":1,"outcome":"+10","keys":[1820.6800000006333,2212.950000001001],"total_keys":2,"block":2,"trial":155,"robot":1,"valence":"win","action":"go","sham":0,"trial_type":"pit-trial","trial_index":171,"time_elapsed":764148,"internal_node_id":"0.0-158.0","task_version":"battery-v0.1"},{"rune":"Y","hex":"#f73b6a7A","correct":-1,"choice":-1,"rt":-1,"accuracy":1,"outcome":"-1","keys":[],"total_keys":0,"block":2,"trial":156,"robot":4,"valence":"lose","action":"no-go","sham":0,"trial_type":"pit-trial","trial_index":172,"time_elapsed":768151,"internal_node_id":"0.0-159.0","task_version":"battery-v0.1"},{"rune":"H","hex":"#3366ff99","correct":32,"choice":32,"rt":278.63000000070315,"accuracy":1,"outcome":"+10","keys":[1778.8199999995995,2170.7050000004238,2435.010000001057],"total_keys":3,"block":2,"trial":157,"robot":1,"valence":"win","action":"go","sham":0,"trial_type":"pit-trial","trial_index":173,"time_elapsed":771132,"internal_node_id":"0.0-160.0","task_version":"battery-v0.1"},{"rune":"T","hex":"#3366ff99","correct":32,"choice":32,"rt":272.87000000069384,"accuracy":1,"outcome":"+10","keys":[1773.0200000004843],"total_keys":1,"block":2,"trial":158,"robot":1,"valence":"win","action":"go","sham":0,"trial_type":"pit-trial","trial_index":174,"time_elapsed":774108,"internal_node_id":"0.0-161.0","task_version":"battery-v0.1"},{"rune":"W","hex":"#3366ff99","correct":-1,"choice":32,"rt":297.3999999995576,"accuracy":0,"outcome":"+1","keys":[1797.480000001029],"total_keys":1,"block":2,"trial":159,"robot":2,"valence":"win","action":"no-go","sham":0,"trial_type":"pit-trial","trial_index":175,"time_elapsed":777108,"internal_node_id":"0.0-162.0","task_version":"battery-v0.1"},{"rune":"Y","hex":"#f73b6a7A","correct":-1,"choice":-1,"rt":-1,"accuracy":1,"outcome":"-1","keys":[],"total_keys":0,"block":2,"trial":160,"robot":4,"valence":"lose","action":"no-go","sham":0,"trial_type":"pit-trial","trial_index":176,"time_elapsed":781112,"internal_node_id":"0.0-163.0","task_version":"battery-v0.1"},{"rune":"S","hex":"#f73b6a7A","correct":32,"choice":32,"rt":1133.4349999997066,"accuracy":1,"outcome":"-1","keys":[2633.5550000004005],"total_keys":1,"block":2,"trial":161,"robot":3,"valence":"lose","action":"go","sham":0,"trial_type":"pit-trial","trial_index":177,"time_elapsed":784948,"internal_node_id":"0.0-164.0","task_version":"battery-v0.1"},{"rune":"W","hex":"#3366ff99","correct":-1,"choice":32,"rt":287.59999999962747,"accuracy":0,"outcome":"+1","keys":[1786.7550000010524],"total_keys":1,"block":2,"trial":162,"robot":2,"valence":"win","action":"no-go","sham":0,"trial_type":"pit-trial","trial_index":178,"time_elapsed":787940,"internal_node_id":"0.0-165.0","task_version":"battery-v0.1"},{"rune":"E","hex":"#f73b6a7A","correct":-1,"choice":-1,"rt":-1,"accuracy":1,"outcome":"-1","keys":[],"total_keys":0,"block":2,"trial":163,"robot":4,"valence":"lose","action":"no-go","sham":0,"trial_type":"pit-trial","trial_index":179,"time_elapsed":791943,"internal_node_id":"0.0-166.0","task_version":"battery-v0.1"},{"rune":"T","hex":"#3366ff99","correct":32,"choice":32,"rt":437.73999999754597,"accuracy":1,"outcome":"+10","keys":[1937.8200000027427],"total_keys":1,"block":2,"trial":164,"robot":1,"valence":"win","action":"go","sham":0,"trial_type":"pit-trial","trial_index":180,"time_elapsed":795084,"internal_node_id":"0.0-167.0","task_version":"battery-v0.1"},{"rune":"S","hex":"#f73b6a7A","correct":32,"choice":-1,"rt":-1,"accuracy":0,"outcome":"-10","keys":[1436.904999998631,2869.8650000004563],"total_keys":2,"block":2,"trial":165,"robot":3,"valence":"lose","action":"go","sham":0,"trial_type":"pit-trial","trial_index":181,"time_elapsed":799087,"internal_node_id":"0.0-168.0","task_version":"battery-v0.1"},{"rune":"T","hex":"#3366ff99","correct":32,"choice":32,"rt":181.10000000160653,"accuracy":1,"outcome":"+10","keys":[1681.2449999997625,2153.565000000526],"total_keys":2,"block":2,"trial":166,"robot":1,"valence":"win","action":"go","sham":0,"trial_type":"pit-trial","trial_index":182,"time_elapsed":801972,"internal_node_id":"0.0-169.0","task_version":"battery-v0.1"},{"rune":"E","hex":"#f73b6a7A","correct":-1,"choice":-1,"rt":-1,"accuracy":1,"outcome":"-10","keys":[],"total_keys":0,"block":2,"trial":167,"robot":4,"valence":"lose","action":"no-go","sham":1,"trial_type":"pit-trial","trial_index":183,"time_elapsed":805979,"internal_node_id":"0.0-170.0","task_version":"battery-v0.1"},{"rune":"W","hex":"#3366ff99","correct":-1,"choice":32,"rt":282.45500000042375,"accuracy":0,"outcome":"+1","keys":[1782.6400000012945,2206.4449999998324,2533.3300000020536,2829.545000000624],"total_keys":4,"block":2,"trial":168,"robot":2,"valence":"win","action":"no-go","sham":0,"trial_type":"pit-trial","trial_index":184,"time_elapsed":808965,"internal_node_id":"0.0-171.0","task_version":"battery-v0.1"},{"rune":"S","hex":"#f73b6a7A","correct":32,"choice":-1,"rt":-1,"accuracy":0,"outcome":"-10","keys":[],"total_keys":0,"block":2,"trial":169,"robot":3,"valence":"lose","action":"go","sham":0,"trial_type":"pit-trial","trial_index":185,"time_elapsed":812967,"internal_node_id":"0.0-172.0","task_version":"battery-v0.1"},{"rune":"T","hex":"#3366ff99","correct":32,"choice":32,"rt":389.02000000234693,"accuracy":1,"outcome":"+1","keys":[810.7749999981606,1282.2699999996694,1889.064999999362],"total_keys":3,"block":2,"trial":170,"robot":1,"valence":"win","action":"go","sham":1,"trial_type":"pit-trial","trial_index":186,"time_elapsed":816060,"internal_node_id":"0.0-173.0","task_version":"battery-v0.1"},{"rune":"E","hex":"#f73b6a7A","correct":-1,"choice":32,"rt":208.23999999987427,"accuracy":0,"outcome":"-10","keys":[1708.3200000015786],"total_keys":1,"block":2,"trial":171,"robot":4,"valence":"lose","action":"no-go","sham":0,"trial_type":"pit-trial","trial_index":187,"time_elapsed":818972,"internal_node_id":"0.0-174.0","task_version":"battery-v0.1"},{"rune":"D","hex":"#3366ff99","correct":-1,"choice":32,"rt":359.53499999956694,"accuracy":0,"outcome":"+1","keys":[1859.6499999985099],"total_keys":1,"block":2,"trial":172,"robot":2,"valence":"win","action":"no-go","sham":0,"trial_type":"pit-trial","trial_index":188,"time_elapsed":822036,"internal_node_id":"0.0-175.0","task_version":"battery-v0.1"},{"rune":"E","hex":"#f73b6a7A","correct":-1,"choice":-1,"rt":-1,"accuracy":1,"outcome":"-1","keys":[],"total_keys":0,"block":2,"trial":173,"robot":4,"valence":"lose","action":"no-go","sham":0,"trial_type":"pit-trial","trial_index":189,"time_elapsed":826039,"internal_node_id":"0.0-176.0","task_version":"battery-v0.1"},{"rune":"S","hex":"#f73b6a7A","correct":32,"choice":-1,"rt":-1,"accuracy":0,"outcome":"-10","keys":[],"total_keys":0,"block":2,"trial":174,"robot":3,"valence":"lose","action":"go","sham":0,"trial_type":"pit-trial","trial_index":190,"time_elapsed":830042,"internal_node_id":"0.0-177.0","task_version":"battery-v0.1"},{"rune":"D","hex":"#3366ff99","correct":-1,"choice":32,"rt":354.3199999985518,"accuracy":0,"outcome":"+10","keys":[1854.4900000016205,2397.8650000026682],"total_keys":2,"block":2,"trial":175,"robot":2,"valence":"win","action":"no-go","sham":1,"trial_type":"pit-trial","trial_index":191,"time_elapsed":833100,"internal_node_id":"0.0-178.0","task_version":"battery-v0.1"},{"rune":"T","hex":"#3366ff99","correct":32,"choice":32,"rt":384.31499999936204,"accuracy":1,"outcome":"+10","keys":[1884.474999998929],"total_keys":1,"block":2,"trial":176,"robot":1,"valence":"win","action":"go","sham":0,"trial_type":"pit-trial","trial_index":192,"time_elapsed":836188,"internal_node_id":"0.0-179.0","task_version":"battery-v0.1"},{"rune":"S","hex":"#f73b6a7A","correct":32,"choice":-1,"rt":-1,"accuracy":0,"outcome":"-10","keys":[3491.135000000242],"total_keys":1,"block":2,"trial":177,"robot":3,"valence":"lose","action":"go","sham":0,"trial_type":"pit-trial","trial_index":193,"time_elapsed":840193,"internal_node_id":"0.0-180.0","task_version":"battery-v0.1"},{"rune":"T","hex":"#3366ff99","correct":32,"choice":32,"rt":339.18000000261236,"accuracy":1,"outcome":"+10","keys":[1840.054999996908],"total_keys":1,"block":2,"trial":178,"robot":1,"valence":"win","action":"go","sham":0,"trial_type":"pit-trial","trial_index":194,"time_elapsed":843236,"internal_node_id":"0.0-181.0","task_version":"battery-v0.1"},{"rune":"D","hex":"#3366ff99","correct":-1,"choice":32,"rt":431.7800000025891,"accuracy":0,"outcome":"+1","keys":[1931.9050000013085],"total_keys":1,"block":2,"trial":179,"robot":2,"valence":"win","action":"no-go","sham":0,"trial_type":"pit-trial","trial_index":195,"time_elapsed":846372,"internal_node_id":"0.0-182.0","task_version":"battery-v0.1"},{"rune":"E","hex":"#f73b6a7A","correct":-1,"choice":-1,"rt":-1,"accuracy":1,"outcome":"-1","keys":[],"total_keys":0,"block":2,"trial":180,"robot":4,"valence":"lose","action":"no-go","sham":0,"trial_type":"pit-trial","trial_index":196,"time_elapsed":850376,"internal_node_id":"0.0-183.0","task_version":"battery-v0.1"},{"rune":"D","hex":"#3366ff99","correct":-1,"choice":32,"rt":370.8549999973038,"accuracy":0,"outcome":"+1","keys":[1873.2149999996182],"total_keys":1,"block":2,"trial":181,"robot":2,"valence":"win","action":"no-go","sham":0,"trial_type":"pit-trial","trial_index":197,"time_elapsed":853452,"internal_node_id":"0.0-184.0","task_version":"battery-v0.1"},{"rune":"S","hex":"#f73b6a7A","correct":32,"choice":32,"rt":329.38999999896623,"accuracy":1,"outcome":"-1","keys":[1829.505000001518],"total_keys":1,"block":2,"trial":182,"robot":3,"valence":"lose","action":"go","sham":0,"trial_type":"pit-trial","trial_index":198,"time_elapsed":856484,"internal_node_id":"0.0-185.0","task_version":"battery-v0.1"},{"rune":"E","hex":"#f73b6a7A","correct":-1,"choice":-1,"rt":-1,"accuracy":1,"outcome":"-1","keys":[],"total_keys":0,"block":2,"trial":183,"robot":4,"valence":"lose","action":"no-go","sham":0,"trial_type":"pit-trial","trial_index":199,"time_elapsed":860486,"internal_node_id":"0.0-186.0","task_version":"battery-v0.1"},{"rune":"T","hex":"#3366ff99","correct":32,"choice":32,"rt":334.295000000624,"accuracy":1,"outcome":"+10","keys":[1834.3800000002375],"total_keys":1,"block":2,"trial":184,"robot":1,"valence":"win","action":"go","sham":0,"trial_type":"pit-trial","trial_index":200,"time_elapsed":863524,"internal_node_id":"0.0-187.0","task_version":"battery-v0.1"},{"rune":"E","hex":"#f73b6a7A","correct":-1,"choice":-1,"rt":-1,"accuracy":1,"outcome":"-1","keys":[],"total_keys":0,"block":2,"trial":185,"robot":4,"valence":"lose","action":"no-go","sham":0,"trial_type":"pit-trial","trial_index":201,"time_elapsed":867528,"internal_node_id":"0.0-188.0","task_version":"battery-v0.1"},{"rune":"D","hex":"#3366ff99","correct":-1,"choice":32,"rt":315.2699999992037,"accuracy":0,"outcome":"+1","keys":[1815.5149999983842],"total_keys":1,"block":2,"trial":186,"robot":2,"valence":"win","action":"no-go","sham":0,"trial_type":"pit-trial","trial_index":202,"time_elapsed":870548,"internal_node_id":"0.0-189.0","task_version":"battery-v0.1"},{"rune":"T","hex":"#3366ff99","correct":32,"choice":32,"rt":401.95499999751337,"accuracy":1,"outcome":"+10","keys":[1902.1350000002421],"total_keys":1,"block":2,"trial":187,"robot":1,"valence":"win","action":"go","sham":0,"trial_type":"pit-trial","trial_index":203,"time_elapsed":873652,"internal_node_id":"0.0-190.0","task_version":"battery-v0.1"},{"rune":"S","hex":"#f73b6a7A","correct":32,"choice":32,"rt":495.9000000017695,"accuracy":1,"outcome":"-1","keys":[1996.044999999809],"total_keys":1,"block":2,"trial":188,"robot":3,"valence":"lose","action":"go","sham":0,"trial_type":"pit-trial","trial_index":204,"time_elapsed":876852,"internal_node_id":"0.0-191.0","task_version":"battery-v0.1"},{"rune":"S","hex":"#f73b6a7A","correct":32,"choice":32,"rt":375.90500000072643,"accuracy":1,"outcome":"-1","keys":[1876.0800000018207],"total_keys":1,"block":2,"trial":189,"robot":3,"valence":"lose","action":"go","sham":0,"trial_type":"pit-trial","trial_index":205,"time_elapsed":879932,"internal_node_id":"0.0-192.0","task_version":"battery-v0.1"},{"rune":"T","hex":"#3366ff99","correct":32,"choice":32,"rt":256.6299999997718,"accuracy":1,"outcome":"+10","keys":[1756.9949999997625],"total_keys":1,"block":2,"trial":190,"robot":1,"valence":"win","action":"go","sham":0,"trial_type":"pit-trial","trial_index":206,"time_elapsed":882892,"internal_node_id":"0.0-193.0","task_version":"battery-v0.1"},{"rune":"D","hex":"#3366ff99","correct":-1,"choice":32,"rt":327.40000000200234,"accuracy":0,"outcome":"+1","keys":[1827.6499999992084],"total_keys":1,"block":2,"trial":191,"robot":2,"valence":"win","action":"no-go","sham":0,"trial_type":"pit-trial","trial_index":207,"time_elapsed":885924,"internal_node_id":"0.0-194.0","task_version":"battery-v0.1"},{"rune":"E","hex":"#f73b6a7A","correct":-1,"choice":-1,"rt":-1,"accuracy":1,"outcome":"-1","keys":[],"total_keys":0,"block":2,"trial":192,"robot":4,"valence":"lose","action":"no-go","sham":0,"trial_type":"pit-trial","trial_index":208,"time_elapsed":889928,"internal_node_id":"0.0-195.0","task_version":"battery-v0.1"},{"rune":"T","hex":"#3366ff99","correct":32,"choice":32,"rt":557.3750000003492,"accuracy":1,"outcome":"+1","keys":[2057.4649999979883],"total_keys":1,"block":2,"trial":193,"robot":1,"valence":"win","action":"go","sham":1,"trial_type":"pit-trial","trial_index":209,"time_elapsed":893187,"internal_node_id":"0.0-196.0","task_version":"battery-v0.1"},{"rune":"R","hex":"#f73b6a7A","correct":32,"choice":-1,"rt":-1,"accuracy":0,"outcome":"-10","keys":[],"total_keys":0,"block":2,"trial":194,"robot":3,"valence":"lose","action":"go","sham":0,"trial_type":"pit-trial","trial_index":210,"time_elapsed":897191,"internal_node_id":"0.0-197.0","task_version":"battery-v0.1"},{"rune":"D","hex":"#3366ff99","correct":-1,"choice":32,"rt":205.6849999971455,"accuracy":0,"outcome":"+1","keys":[1706.2349999977741],"total_keys":1,"block":2,"trial":195,"robot":2,"valence":"win","action":"no-go","sham":0,"trial_type":"pit-trial","trial_index":211,"time_elapsed":900100,"internal_node_id":"0.0-198.0","task_version":"battery-v0.1"},{"rune":"E","hex":"#f73b6a7A","correct":-1,"choice":-1,"rt":-1,"accuracy":1,"outcome":"-1","keys":[],"total_keys":0,"block":2,"trial":196,"robot":4,"valence":"lose","action":"no-go","sham":0,"trial_type":"pit-trial","trial_index":212,"time_elapsed":904104,"internal_node_id":"0.0-199.0","task_version":"battery-v0.1"},{"rune":"D","hex":"#3366ff99","correct":-1,"choice":32,"rt":411.9250000002794,"accuracy":0,"outcome":"+1","keys":[1912.0599999987753],"total_keys":1,"block":2,"trial":197,"robot":2,"valence":"win","action":"no-go","sham":0,"trial_type":"pit-trial","trial_index":213,"time_elapsed":907220,"internal_node_id":"0.0-200.0","task_version":"battery-v0.1"},{"rune":"R","hex":"#f73b6a7A","correct":32,"choice":32,"rt":535.140000000014,"accuracy":1,"outcome":"-1","keys":[2035.274999998277],"total_keys":1,"block":2,"trial":198,"robot":3,"valence":"lose","action":"go","sham":0,"trial_type":"pit-trial","trial_index":214,"time_elapsed":910459,"internal_node_id":"0.0-201.0","task_version":"battery-v0.1"},{"rune":"E","hex":"#f73b6a7A","correct":-1,"choice":-1,"rt":-1,"accuracy":1,"outcome":"-1","keys":[],"total_keys":0,"block":2,"trial":199,"robot":4,"valence":"lose","action":"no-go","sham":0,"trial_type":"pit-trial","trial_index":215,"time_elapsed":914462,"internal_node_id":"0.0-202.0","task_version":"battery-v0.1"},{"rune":"T","hex":"#3366ff99","correct":32,"choice":32,"rt":647.4000000017695,"accuracy":1,"outcome":"+1","keys":[2147.489999999292],"total_keys":1,"block":2,"trial":200,"robot":1,"valence":"win","action":"go","sham":1,"trial_type":"pit-trial","trial_index":216,"time_elapsed":917812,"internal_node_id":"0.0-203.0","task_version":"battery-v0.1"},{"rune":"R","hex":"#f73b6a7A","correct":32,"choice":32,"rt":401.1400000017602,"accuracy":1,"outcome":"-10","keys":[1901.3199999971548],"total_keys":1,"block":2,"trial":201,"robot":3,"valence":"lose","action":"go","sham":1,"trial_type":"pit-trial","trial_index":217,"time_elapsed":920916,"internal_node_id":"0.0-204.0","task_version":"battery-v0.1"},{"rune":"D","hex":"#3366ff99","correct":-1,"choice":32,"rt":360.2649999994319,"accuracy":0,"outcome":"+1","keys":[1860.4150000028312],"total_keys":1,"block":2,"trial":202,"robot":2,"valence":"win","action":"no-go","sham":0,"trial_type":"pit-trial","trial_index":218,"time_elapsed":923979,"internal_node_id":"0.0-205.0","task_version":"battery-v0.1"},{"rune":"E","hex":"#f73b6a7A","correct":-1,"choice":-1,"rt":-1,"accuracy":1,"outcome":"-1","keys":[],"total_keys":0,"block":2,"trial":203,"robot":4,"valence":"lose","action":"no-go","sham":0,"trial_type":"pit-trial","trial_index":219,"time_elapsed":927983,"internal_node_id":"0.0-206.0","task_version":"battery-v0.1"},{"rune":"C","hex":"#f73b6a7A","correct":32,"choice":-1,"rt":-1,"accuracy":0,"outcome":"-10","keys":[],"total_keys":0,"block":2,"trial":204,"robot":3,"valence":"lose","action":"go","sham":0,"trial_type":"pit-trial","trial_index":220,"time_elapsed":931987,"internal_node_id":"0.0-207.0","task_version":"battery-v0.1"},{"rune":"C","hex":"#f73b6a7A","correct":32,"choice":32,"rt":560.785000001546,"accuracy":1,"outcome":"-1","keys":[2060.8850000025705],"total_keys":1,"block":2,"trial":205,"robot":3,"valence":"lose","action":"go","sham":0,"trial_type":"pit-trial","trial_index":221,"time_elapsed":935251,"internal_node_id":"0.0-208.0","task_version":"battery-v0.1"},{"rune":"E","hex":"#f73b6a7A","correct":-1,"choice":32,"rt":25.63500000187196,"accuracy":0,"outcome":"-10","keys":[1525.849999998114],"total_keys":1,"block":2,"trial":206,"robot":4,"valence":"lose","action":"no-go","sham":0,"trial_type":"pit-trial","trial_index":222,"time_elapsed":937981,"internal_node_id":"0.0-209.0","task_version":"battery-v0.1"},{"rune":"D","hex":"#3366ff99","correct":-1,"choice":32,"rt":79.58000000147149,"accuracy":0,"outcome":"+1","keys":[1579.7700000003679],"total_keys":1,"block":2,"trial":207,"robot":2,"valence":"win","action":"no-go","sham":0,"trial_type":"pit-trial","trial_index":223,"time_elapsed":940764,"internal_node_id":"0.0-210.0","task_version":"battery-v0.1"},{"rune":"R","hex":"#f73b6a7A","correct":32,"choice":32,"rt":328.97999999835156,"accuracy":1,"outcome":"-1","keys":[1829.1300000018673],"total_keys":1,"block":2,"trial":208,"robot":3,"valence":"lose","action":"go","sham":0,"trial_type":"pit-trial","trial_index":224,"time_elapsed":943795,"internal_node_id":"0.0-211.0","task_version":"battery-v0.1"},{"rune":"C","hex":"#f73b6a7A","correct":32,"choice":-1,"rt":-1,"accuracy":0,"outcome":"-10","keys":[],"total_keys":0,"block":2,"trial":209,"robot":3,"valence":"lose","action":"go","sham":0,"trial_type":"pit-trial","trial_index":225,"time_elapsed":947801,"internal_node_id":"0.0-212.0","task_version":"battery-v0.1"},{"rune":"P","hex":"#3366ff99","correct":-1,"choice":32,"rt":376.2850000021281,"accuracy":0,"outcome":"+10","keys":[1876.4199999968987],"total_keys":1,"block":2,"trial":210,"robot":2,"valence":"win","action":"no-go","sham":1,"trial_type":"pit-trial","trial_index":226,"time_elapsed":950880,"internal_node_id":"0.0-213.0","task_version":"battery-v0.1"},{"rune":"N","hex":"#f73b6a7A","correct":-1,"choice":-1,"rt":-1,"accuracy":1,"outcome":"-1","keys":[],"total_keys":0,"block":2,"trial":211,"robot":4,"valence":"lose","action":"no-go","sham":0,"trial_type":"pit-trial","trial_index":227,"time_elapsed":954884,"internal_node_id":"0.0-214.0","task_version":"battery-v0.1"},{"rune":"R","hex":"#f73b6a7A","correct":32,"choice":-1,"rt":-1,"accuracy":0,"outcome":"-1","keys":[],"total_keys":0,"block":2,"trial":212,"robot":3,"valence":"lose","action":"go","sham":1,"trial_type":"pit-trial","trial_index":228,"time_elapsed":958889,"internal_node_id":"0.0-215.0","task_version":"battery-v0.1"},{"rune":"C","hex":"#f73b6a7A","correct":32,"choice":32,"rt":547.3300000012387,"accuracy":1,"outcome":"-1","keys":[2047.4499999982072],"total_keys":1,"block":2,"trial":213,"robot":3,"valence":"lose","action":"go","sham":0,"trial_type":"pit-trial","trial_index":229,"time_elapsed":962140,"internal_node_id":"0.0-216.0","task_version":"battery-v0.1"},{"rune":"N","hex":"#f73b6a7A","correct":-1,"choice":-1,"rt":-1,"accuracy":1,"outcome":"-1","keys":[],"total_keys":0,"block":2,"trial":214,"robot":4,"valence":"lose","action":"no-go","sham":0,"trial_type":"pit-trial","trial_index":230,"time_elapsed":966143,"internal_node_id":"0.0-217.0","task_version":"battery-v0.1"},{"rune":"P","hex":"#3366ff99","correct":-1,"choice":32,"rt":261.36500000208616,"accuracy":0,"outcome":"+1","keys":[1761.4300000022631],"total_keys":1,"block":2,"trial":215,"robot":2,"valence":"win","action":"no-go","sham":0,"trial_type":"pit-trial","trial_index":231,"time_elapsed":969107,"internal_node_id":"0.0-218.0","task_version":"battery-v0.1"},{"rune":"R","hex":"#f73b6a7A","correct":32,"choice":-1,"rt":-1,"accuracy":0,"outcome":"-10","keys":[],"total_keys":0,"block":2,"trial":216,"robot":3,"valence":"lose","action":"go","sham":0,"trial_type":"pit-trial","trial_index":232,"time_elapsed":973110,"internal_node_id":"0.0-219.0","task_version":"battery-v0.1"},{"rune":"C","hex":"#f73b6a7A","correct":32,"choice":32,"rt":670.4100000024773,"accuracy":1,"outcome":"-1","keys":[2171.220000000205],"total_keys":1,"block":2,"trial":217,"robot":3,"valence":"lose","action":"go","sham":0,"trial_type":"pit-trial","trial_index":233,"time_elapsed":976483,"internal_node_id":"0.0-220.0","task_version":"battery-v0.1"},{"rune":"P","hex":"#3366ff99","correct":-1,"choice":32,"rt":376.1700000031851,"accuracy":0,"outcome":"+1","keys":[1876.4350000019185],"total_keys":1,"block":2,"trial":218,"robot":2,"valence":"win","action":"no-go","sham":0,"trial_type":"pit-trial","trial_index":234,"time_elapsed":979563,"internal_node_id":"0.0-221.0","task_version":"battery-v0.1"},{"rune":"R","hex":"#f73b6a7A","correct":32,"choice":32,"rt":440.5499999993481,"accuracy":1,"outcome":"-1","keys":[351.2799999989802,1940.7199999986915],"total_keys":2,"block":2,"trial":219,"robot":3,"valence":"lose","action":"go","sham":0,"trial_type":"pit-trial","trial_index":235,"time_elapsed":982707,"internal_node_id":"0.0-222.0","task_version":"battery-v0.1"},{"rune":"N","hex":"#f73b6a7A","correct":-1,"choice":-1,"rt":-1,"accuracy":1,"outcome":"-10","keys":[],"total_keys":0,"block":2,"trial":220,"robot":4,"valence":"lose","action":"no-go","sham":1,"trial_type":"pit-trial","trial_index":236,"time_elapsed":986711,"internal_node_id":"0.0-223.0","task_version":"battery-v0.1"},{"rune":"N","hex":"#f73b6a7A","correct":-1,"choice":32,"rt":430.0650000005262,"accuracy":0,"outcome":"-10","keys":[1930.1500000001397,2489.169999997015],"total_keys":2,"block":2,"trial":221,"robot":4,"valence":"lose","action":"no-go","sham":0,"trial_type":"pit-trial","trial_index":237,"time_elapsed":989844,"internal_node_id":"0.0-224.0","task_version":"battery-v0.1"},{"rune":"C","hex":"#f73b6a7A","correct":32,"choice":32,"rt":286.56499999854714,"accuracy":1,"outcome":"-1","keys":[1787.0299999994459],"total_keys":1,"block":2,"trial":222,"robot":3,"valence":"lose","action":"go","sham":0,"trial_type":"pit-trial","trial_index":238,"time_elapsed":992835,"internal_node_id":"0.0-225.0","task_version":"battery-v0.1"},{"rune":"P","hex":"#3366ff99","correct":-1,"choice":32,"rt":329.02499999909196,"accuracy":0,"outcome":"+1","keys":[1829.2250000012573],"total_keys":1,"block":2,"trial":223,"robot":2,"valence":"win","action":"no-go","sham":0,"trial_type":"pit-trial","trial_index":239,"time_elapsed":995868,"internal_node_id":"0.0-226.0","task_version":"battery-v0.1"},{"rune":"R","hex":"#f73b6a7A","correct":32,"choice":32,"rt":456.1549999999115,"accuracy":1,"outcome":"-10","keys":[1956.279999998631],"total_keys":1,"block":2,"trial":224,"robot":3,"valence":"lose","action":"go","sham":1,"trial_type":"pit-trial","trial_index":240,"time_elapsed":999028,"internal_node_id":"0.0-227.0","task_version":"battery-v0.1"},{"rune":"N","hex":"#f73b6a7A","correct":-1,"choice":32,"rt":439.3600000003353,"accuracy":0,"outcome":"-10","keys":[1939.4599999977509],"total_keys":1,"block":2,"trial":225,"robot":4,"valence":"lose","action":"no-go","sham":0,"trial_type":"pit-trial","trial_index":241,"time_elapsed":1002171,"internal_node_id":"0.0-228.0","task_version":"battery-v0.1"},{"rune":"R","hex":"#f73b6a7A","correct":32,"choice":32,"rt":300.650000001071,"accuracy":1,"outcome":"-1","keys":[1804.4600000029895],"total_keys":1,"block":2,"trial":226,"robot":3,"valence":"lose","action":"go","sham":0,"trial_type":"pit-trial","trial_index":242,"time_elapsed":1005180,"internal_node_id":"0.0-229.0","task_version":"battery-v0.1"},{"rune":"P","hex":"#3366ff99","correct":-1,"choice":32,"rt":422.9699999996228,"accuracy":0,"outcome":"+1","keys":[1923.0450000031851],"total_keys":1,"block":2,"trial":227,"robot":2,"valence":"win","action":"no-go","sham":0,"trial_type":"pit-trial","trial_index":243,"time_elapsed":1008307,"internal_node_id":"0.0-230.0","task_version":"battery-v0.1"},{"rune":"C","hex":"#f73b6a7A","correct":32,"choice":-1,"rt":-1,"accuracy":0,"outcome":"-10","keys":[3780.6899999997113],"total_keys":1,"block":2,"trial":228,"robot":3,"valence":"lose","action":"go","sham":0,"trial_type":"pit-trial","trial_index":244,"time_elapsed":1012311,"internal_node_id":"0.0-231.0","task_version":"battery-v0.1"},{"rune":"R","hex":"#f73b6a7A","correct":32,"choice":32,"rt":253.31000000005588,"accuracy":1,"outcome":"-1","keys":[1753.4500000001863],"total_keys":1,"block":2,"trial":229,"robot":3,"valence":"lose","action":"go","sham":0,"trial_type":"pit-trial","trial_index":245,"time_elapsed":1015268,"internal_node_id":"0.0-232.0","task_version":"battery-v0.1"},{"rune":"C","hex":"#f73b6a7A","correct":32,"choice":32,"rt":304.2349999996368,"accuracy":1,"outcome":"-1","keys":[1804.3649999999907],"total_keys":1,"block":2,"trial":230,"robot":3,"valence":"lose","action":"go","sham":0,"trial_type":"pit-trial","trial_index":246,"time_elapsed":1018276,"internal_node_id":"0.0-233.0","task_version":"battery-v0.1"},{"rune":"P","hex":"#3366ff99","correct":-1,"choice":32,"rt":496.7499999983702,"accuracy":0,"outcome":"+1","keys":[1996.8450000014855],"total_keys":1,"block":2,"trial":231,"robot":2,"valence":"win","action":"no-go","sham":0,"trial_type":"pit-trial","trial_index":247,"time_elapsed":1021475,"internal_node_id":"0.0-234.0","task_version":"battery-v0.1"},{"rune":"N","hex":"#f73b6a7A","correct":-1,"choice":32,"rt":257.2950000030687,"accuracy":0,"outcome":"-10","keys":[1757.3699999994133],"total_keys":1,"block":2,"trial":232,"robot":4,"valence":"lose","action":"no-go","sham":0,"trial_type":"pit-trial","trial_index":248,"time_elapsed":1024435,"internal_node_id":"0.0-235.0","task_version":"battery-v0.1"},{"rune":"N","hex":"#f73b6a7A","correct":-1,"choice":32,"rt":568.0650000030873,"accuracy":0,"outcome":"-10","keys":[2068.234999998822],"total_keys":1,"block":2,"trial":233,"robot":4,"valence":"lose","action":"no-go","sham":0,"trial_type":"pit-trial","trial_index":249,"time_elapsed":1027707,"internal_node_id":"0.0-236.0","task_version":"battery-v0.1"},{"rune":"C","hex":"#f73b6a7A","correct":32,"choice":32,"rt":489.129999998142,"accuracy":1,"outcome":"-10","keys":[1989.5799999976298],"total_keys":1,"block":2,"trial":234,"robot":3,"valence":"lose","action":"go","sham":1,"trial_type":"pit-trial","trial_index":250,"time_elapsed":1030901,"internal_node_id":"0.0-237.0","task_version":"battery-v0.1"},{"rune":"R","hex":"#f73b6a7A","correct":32,"choice":32,"rt":406.23000000044703,"accuracy":1,"outcome":"-1","keys":[1906.3900000001304],"total_keys":1,"block":2,"trial":235,"robot":3,"valence":"lose","action":"go","sham":0,"trial_type":"pit-trial","trial_index":251,"time_elapsed":1034011,"internal_node_id":"0.0-238.0","task_version":"battery-v0.1"},{"rune":"P","hex":"#3366ff99","correct":-1,"choice":32,"rt":377.8149999999441,"accuracy":0,"outcome":"+1","keys":[1878.035000001546],"total_keys":1,"block":2,"trial":236,"robot":2,"valence":"win","action":"no-go","sham":0,"trial_type":"pit-trial","trial_index":252,"time_elapsed":1037093,"internal_node_id":"0.0-239.0","task_version":"battery-v0.1"},{"rune":"R","hex":"#f73b6a7A","correct":32,"choice":32,"rt":318.42999999935273,"accuracy":1,"outcome":"-1","keys":[1818.8349999982165],"total_keys":1,"block":2,"trial":237,"robot":3,"valence":"lose","action":"go","sham":0,"trial_type":"pit-trial","trial_index":253,"time_elapsed":1040115,"internal_node_id":"0.0-240.0","task_version":"battery-v0.1"},{"rune":"N","hex":"#f73b6a7A","correct":-1,"choice":32,"rt":680.7149999986868,"accuracy":0,"outcome":"-10","keys":[2180.850000000559],"total_keys":1,"block":2,"trial":238,"robot":4,"valence":"lose","action":"no-go","sham":0,"trial_type":"pit-trial","trial_index":254,"time_elapsed":1043499,"internal_node_id":"0.0-241.0","task_version":"battery-v0.1"},{"rune":"C","hex":"#f73b6a7A","correct":32,"choice":32,"rt":1016.2749999980442,"accuracy":1,"outcome":"-1","keys":[2516.4049999985145],"total_keys":1,"block":2,"trial":239,"robot":3,"valence":"lose","action":"go","sham":0,"trial_type":"pit-trial","trial_index":255,"time_elapsed":1047219,"internal_node_id":"0.0-242.0","task_version":"battery-v0.1"},{"rune":"P","hex":"#3366ff99","correct":-1,"choice":-1,"rt":-1,"accuracy":1,"outcome":"+10","keys":[],"total_keys":0,"block":2,"trial":240,"robot":2,"valence":"win","action":"no-go","sham":0,"trial_type":"pit-trial","trial_index":256,"time_elapsed":1051223,"internal_node_id":"0.0-243.0","task_version":"battery-v0.1"},{"view_history":"[{\"page_index\":0,\"viewing_time\":2675.0649999994785}]","rt":2675.64499999932,"trial_type":"pit-instructions","trial_index":257,"time_elapsed":1053902,"internal_node_id":"0.0-244.0","task_version":"battery-v0.1"},{"rt":15358.635000000708,"responses":{"age":"37","gender-categorical":"Female","gender-free-response":"","ethnicity":"Not Hispanic or Latino","race":["White"],"language":"Yes","fluency":"Very well"},"survey":"demographics","trial_type":"survey-demo","trial_index":258,"time_elapsed":1069265,"internal_node_id":"0.0-245.0","task_version":"battery-v0.1"},{"rt":62459.5000000007,"responses":{"difficulty":"2","fun":"4","clarity":"4","strategy":"I tried to remember the letter on the chest of the robot to see if it corresponded to the right action.","feedback":""},"survey":"debrief","trial_type":"survey-debrief","trial_index":259,"time_elapsed":1131728,"internal_node_id":"0.0-246.0","task_version":"battery-v0.1","interactions":"[{\"event\":\"blur\",\"trial\":136,\"time\":639466},{\"event\":\"focus\",\"trial\":136,\"time\":646109},{\"event\":\"blur\",\"trial\":259,\"time\":1076701},{\"event\":\"focus\",\"trial\":259,\"time\":1079234}]"}]