[{"view_history":"[{\"page_index\":0,\"viewing_time\":2717},{\"page_index\":1,\"viewing_time\":20107},{\"page_index\":2,\"viewing_time\":4613},{\"page_index\":3,\"viewing_time\":9878},{\"page_index\":4,\"viewing_time\":3831},{\"page_index\":5,\"viewing_time\":7505}]","rt":48652,"trial_type":"pit-instructions","trial_index":0,"time_elapsed":48660,"internal_node_id":"0.0-0.0-0.0","task_version":"battery-v0.1"},{"rune":"","hex":"#FFFFF080","correct":32,"choice":32,"rt":808,"accuracy":1,"outcome":"+10","keys":[2311],"total_keys":1,"block":0,"trial_type":"pit-trial","trial_index":1,"time_elapsed":52178,"internal_node_id":"0.0-0.0-1.0-0.0","task_version":"battery-v0.1"},{"rune":"","hex":"#FFFFF080","correct":32,"choice":32,"rt":346,"accuracy":1,"outcome":"+10","keys":[1850],"total_keys":1,"block":0,"trial_type":"pit-trial","trial_index":2,"time_elapsed":55243,"internal_node_id":"0.0-0.0-1.0-0.1","task_version":"battery-v0.1"},{"rune":"","hex":"#FFFFF080","correct":32,"choice":32,"rt":394,"accuracy":1,"outcome":"+10","keys":[1906],"total_keys":1,"block":0,"trial_type":"pit-trial","trial_index":3,"time_elapsed":58365,"internal_node_id":"0.0-0.0-1.0-0.2","task_version":"battery-v0.1"},{"rune":"","hex":"#FFFFF080","correct":32,"choice":32,"rt":328,"accuracy":1,"outcome":"+10","keys":[1830],"total_keys":1,"block":0,"trial_type":"pit-trial","trial_index":4,"time_elapsed":61405,"internal_node_id":"0.0-0.0-1.0-0.3","task_version":"battery-v0.1"},{"view_history":"[{\"page_index\":0,\"viewing_time\":3841}]","rt":3842,"trial_type":"pit-instructions","trial_index":5,"time_elapsed":65247,"internal_node_id":"0.0-0.0-2.0","task_version":"battery-v0.1"},{"rune":"","hex":"#FFFFF080","correct":-1,"choice":-1,"rt":-1,"accuracy":1,"outcome":"+10","keys":[],"total_keys":0,"block":0,"trial_type":"pit-trial","trial_index":6,"time_elapsed":69255,"internal_node_id":"0.0-0.0-3.0-0.0","task_version":"battery-v0.1"},{"rune":"","hex":"#FFFFF080","correct":-1,"choice":-1,"rt":-1,"accuracy":1,"outcome":"+10","keys":[],"total_keys":0,"block":0,"trial_type":"pit-trial","trial_index":7,"time_elapsed":73272,"internal_node_id":"0.0-0.0-3.0-0.1","task_version":"battery-v0.1"},{"rune":"","hex":"#FFFFF080","correct":-1,"choice":-1,"rt":-1,"accuracy":1,"outcome":"+10","keys":[],"total_keys":0,"block":0,"trial_type":"pit-trial","trial_index":8,"time_elapsed":77299,"internal_node_id":"0.0-0.0-3.0-0.2","task_version":"battery-v0.1"},{"rune":"","hex":"#FFFFF080","correct":-1,"choice":-1,"rt":-1,"accuracy":1,"outcome":"+10","keys":[],"total_keys":0,"block":0,"trial_type":"pit-trial","trial_index":9,"time_elapsed":81302,"internal_node_id":"0.0-0.0-3.0-0.3","task_version":"battery-v0.1"},{"responses":["Press SPACE","Do nothing"],"num_errors":0,"rt":7645,"trial_type":"pit-comprehension","trial_index":10,"time_elapsed":88951,"internal_node_id":"0.0-0.0-4.0","task_version":"battery-v0.1"},{"view_history":"[{\"page_index\":0,\"viewing_time\":3186},{\"page_index\":1,\"viewing_time\":5678},{\"page_index\":2,\"viewing_time\":11061},{\"page_index\":3,\"viewing_time\":5702},{\"page_index\":4,\"viewing_time\":5492},{\"page_index\":5,\"viewing_time\":11202},{\"page_index\":6,\"viewing_time\":8520},{\"page_index\":7,\"viewing_time\":9054},{\"page_index\":8,\"viewing_time\":5423},{\"page_index\":9,\"viewing_time\":3279},{\"page_index\":10,\"viewing_time\":2692}]","rt":71289,"trial_type":"pit-instructions","trial_index":11,"time_elapsed":160243,"internal_node_id":"0.0-1.0-0.0","task_version":"battery-v0.1"},{"responses":["+10","-1","True","True"],"num_errors":0,"rt":13997,"trial_type":"pit-comprehension","trial_index":12,"time_elapsed":174243,"internal_node_id":"0.0-1.0-1.0","task_version":"battery-v0.1"},{"view_history":"[{\"page_index\":0,\"viewing_time\":1667},{\"page_index\":1,\"viewing_time\":4269}]","rt":5936,"trial_type":"pit-instructions","trial_index":13,"time_elapsed":180182,"internal_node_id":"0.0-2.0","task_version":"battery-v0.1"},{"rune":"S","hex":"#3366ff99","correct":-1,"choice":32,"rt":486,"accuracy":0,"outcome":"+1","keys":[1995],"total_keys":1,"block":1,"trial":1,"robot":2,"valence":"win","action":"no-go","sham":0,"trial_type":"pit-trial","trial_index":14,"time_elapsed":183379,"internal_node_id":"0.0-3.0","task_version":"battery-v0.1"},{"rune":"K","hex":"#f73b6a7A","correct":-1,"choice":32,"rt":804,"accuracy":0,"outcome":"-10","keys":[2310],"total_keys":1,"block":1,"trial":2,"robot":4,"valence":"lose","action":"no-go","sham":0,"trial_type":"pit-trial","trial_index":15,"time_elapsed":186904,"internal_node_id":"0.0-4.0","task_version":"battery-v0.1"},{"rune":"U","hex":"#3366ff99","correct":32,"choice":32,"rt":596,"accuracy":1,"outcome":"+10","keys":[2098],"total_keys":1,"block":1,"trial":3,"robot":1,"valence":"win","action":"go","sham":0,"trial_type":"pit-trial","trial_index":16,"time_elapsed":190207,"internal_node_id":"0.0-5.0","task_version":"battery-v0.1"},{"rune":"C","hex":"#f73b6a7A","correct":-1,"choice":32,"rt":837,"accuracy":0,"outcome":"-1","keys":[2346],"total_keys":1,"block":1,"trial":4,"robot":4,"valence":"lose","action":"no-go","sham":1,"trial_type":"pit-trial","trial_index":17,"time_elapsed":193756,"internal_node_id":"0.0-6.0","task_version":"battery-v0.1"},{"rune":"C","hex":"#f73b6a7A","correct":-1,"choice":32,"rt":881,"accuracy":0,"outcome":"-1","keys":[2390],"total_keys":1,"block":1,"trial":5,"robot":4,"valence":"lose","action":"no-go","sham":1,"trial_type":"pit-trial","trial_index":18,"time_elapsed":197361,"internal_node_id":"0.0-7.0","task_version":"battery-v0.1"},{"rune":"K","hex":"#f73b6a7A","correct":-1,"choice":-1,"rt":-1,"accuracy":1,"outcome":"-1","keys":[],"total_keys":0,"block":1,"trial":6,"robot":4,"valence":"lose","action":"no-go","sham":0,"trial_type":"pit-trial","trial_index":19,"time_elapsed":201372,"internal_node_id":"0.0-8.0","task_version":"battery-v0.1"},{"rune":"U","hex":"#3366ff99","correct":32,"choice":-1,"rt":-1,"accuracy":0,"outcome":"+1","keys":[2848],"total_keys":1,"block":1,"trial":7,"robot":1,"valence":"win","action":"go","sham":0,"trial_type":"pit-trial","trial_index":20,"time_elapsed":205389,"internal_node_id":"0.0-9.0","task_version":"battery-v0.1"},{"rune":"S","hex":"#3366ff99","correct":-1,"choice":32,"rt":1210,"accuracy":0,"outcome":"+10","keys":[2717],"total_keys":1,"block":1,"trial":8,"robot":2,"valence":"win","action":"no-go","sham":1,"trial_type":"pit-trial","trial_index":21,"time_elapsed":209321,"internal_node_id":"0.0-10.0","task_version":"battery-v0.1"},{"rune":"C","hex":"#f73b6a7A","correct":-1,"choice":32,"rt":1218,"accuracy":0,"outcome":"-10","keys":[2730],"total_keys":1,"block":1,"trial":9,"robot":4,"valence":"lose","action":"no-go","sham":0,"trial_type":"pit-trial","trial_index":22,"time_elapsed":213253,"internal_node_id":"0.0-11.0","task_version":"battery-v0.1"},{"rune":"S","hex":"#3366ff99","correct":-1,"choice":32,"rt":1068,"accuracy":0,"outcome":"+1","keys":[2573],"total_keys":1,"block":1,"trial":10,"robot":2,"valence":"win","action":"no-go","sham":0,"trial_type":"pit-trial","trial_index":23,"time_elapsed":217036,"internal_node_id":"0.0-12.0","task_version":"battery-v0.1"},{"rune":"U","hex":"#3366ff99","correct":32,"choice":-1,"rt":-1,"accuracy":0,"outcome":"+1","keys":[2934],"total_keys":1,"block":1,"trial":11,"robot":1,"valence":"win","action":"go","sham":0,"trial_type":"pit-trial","trial_index":24,"time_elapsed":221045,"internal_node_id":"0.0-13.0","task_version":"battery-v0.1"},{"rune":"K","hex":"#f73b6a7A","correct":-1,"choice":32,"rt":1259,"accuracy":0,"outcome":"-10","keys":[2773],"total_keys":1,"block":1,"trial":12,"robot":4,"valence":"lose","action":"no-go","sham":0,"trial_type":"pit-trial","trial_index":25,"time_elapsed":225031,"internal_node_id":"0.0-14.0","task_version":"battery-v0.1"},{"rune":"C","hex":"#f73b6a7A","correct":-1,"choice":32,"rt":1113,"accuracy":0,"outcome":"-1","keys":[2619],"total_keys":1,"block":1,"trial":13,"robot":4,"valence":"lose","action":"no-go","sham":1,"trial_type":"pit-trial","trial_index":26,"time_elapsed":228855,"internal_node_id":"0.0-15.0","task_version":"battery-v0.1"},{"rune":"K","hex":"#f73b6a7A","correct":-1,"choice":-1,"rt":-1,"accuracy":1,"outcome":"-10","keys":[],"total_keys":0,"block":1,"trial":14,"robot":4,"valence":"lose","action":"no-go","sham":1,"trial_type":"pit-trial","trial_index":27,"time_elapsed":232874,"internal_node_id":"0.0-16.0","task_version":"battery-v0.1"},{"rune":"S","hex":"#3366ff99","correct":-1,"choice":32,"rt":988,"accuracy":0,"outcome":"+1","keys":[2497],"total_keys":1,"block":1,"trial":15,"robot":2,"valence":"win","action":"no-go","sham":0,"trial_type":"pit-trial","trial_index":28,"time_elapsed":236583,"internal_node_id":"0.0-17.0","task_version":"battery-v0.1"},{"rune":"U","hex":"#3366ff99","correct":32,"choice":-1,"rt":-1,"accuracy":0,"outcome":"+1","keys":[],"total_keys":0,"block":1,"trial":16,"robot":1,"valence":"win","action":"go","sham":0,"trial_type":"pit-trial","trial_index":29,"time_elapsed":240602,"internal_node_id":"0.0-18.0","task_version":"battery-v0.1"},{"rune":"U","hex":"#3366ff99","correct":32,"choice":32,"rt":860,"accuracy":1,"outcome":"+10","keys":[2370],"total_keys":1,"block":1,"trial":17,"robot":1,"valence":"win","action":"go","sham":0,"trial_type":"pit-trial","trial_index":30,"time_elapsed":244178,"internal_node_id":"0.0-19.0","task_version":"battery-v0.1"},{"rune":"S","hex":"#3366ff99","correct":-1,"choice":32,"rt":993,"accuracy":0,"outcome":"+1","keys":[2506],"total_keys":1,"block":1,"trial":18,"robot":2,"valence":"win","action":"no-go","sham":0,"trial_type":"pit-trial","trial_index":31,"time_elapsed":247896,"internal_node_id":"0.0-20.0","task_version":"battery-v0.1"},{"rune":"C","hex":"#f73b6a7A","correct":-1,"choice":32,"rt":1181,"accuracy":0,"outcome":"-10","keys":[2692],"total_keys":1,"block":1,"trial":19,"robot":4,"valence":"lose","action":"no-go","sham":0,"trial_type":"pit-trial","trial_index":32,"time_elapsed":251797,"internal_node_id":"0.0-21.0","task_version":"battery-v0.1"},{"rune":"K","hex":"#f73b6a7A","correct":-1,"choice":-1,"rt":-1,"accuracy":1,"outcome":"-1","keys":[],"total_keys":0,"block":1,"trial":20,"robot":4,"valence":"lose","action":"no-go","sham":0,"trial_type":"pit-trial","trial_index":33,"time_elapsed":255809,"internal_node_id":"0.0-22.0","task_version":"battery-v0.1"},{"rune":"U","hex":"#3366ff99","correct":32,"choice":32,"rt":1284,"accuracy":1,"outcome":"+10","keys":[2795],"total_keys":1,"block":1,"trial":21,"robot":1,"valence":"win","action":"go","sham":0,"trial_type":"pit-trial","trial_index":34,"time_elapsed":259807,"internal_node_id":"0.0-23.0","task_version":"battery-v0.1"},{"rune":"C","hex":"#f73b6a7A","correct":-1,"choice":32,"rt":1250,"accuracy":0,"outcome":"-10","keys":[2759],"total_keys":1,"block":1,"trial":22,"robot":4,"valence":"lose","action":"no-go","sham":0,"trial_type":"pit-trial","trial_index":35,"time_elapsed":263766,"internal_node_id":"0.0-24.0","task_version":"battery-v0.1"},{"rune":"K","hex":"#f73b6a7A","correct":-1,"choice":-1,"rt":-1,"accuracy":1,"outcome":"-10","keys":[],"total_keys":0,"block":1,"trial":23,"robot":4,"valence":"lose","action":"no-go","sham":1,"trial_type":"pit-trial","trial_index":36,"time_elapsed":267790,"internal_node_id":"0.0-25.0","task_version":"battery-v0.1"},{"rune":"S","hex":"#3366ff99","correct":-1,"choice":32,"rt":982,"accuracy":0,"outcome":"+1","keys":[2494],"total_keys":1,"block":1,"trial":24,"robot":2,"valence":"win","action":"no-go","sham":0,"trial_type":"pit-trial","trial_index":37,"time_elapsed":271490,"internal_node_id":"0.0-26.0","task_version":"battery-v0.1"},{"rune":"C","hex":"#f73b6a7A","correct":-1,"choice":-1,"rt":-1,"accuracy":1,"outcome":"-1","keys":[],"total_keys":0,"block":1,"trial":25,"robot":4,"valence":"lose","action":"no-go","sham":0,"trial_type":"pit-trial","trial_index":38,"time_elapsed":275492,"internal_node_id":"0.0-27.0","task_version":"battery-v0.1"},{"rune":"K","hex":"#f73b6a7A","correct":-1,"choice":-1,"rt":-1,"accuracy":1,"outcome":"-1","keys":[],"total_keys":0,"block":1,"trial":26,"robot":4,"valence":"lose","action":"no-go","sham":0,"trial_type":"pit-trial","trial_index":39,"time_elapsed":279511,"internal_node_id":"0.0-28.0","task_version":"battery-v0.1"},{"rune":"U","hex":"#3366ff99","correct":32,"choice":32,"rt":1028,"accuracy":1,"outcome":"+10","keys":[2542],"total_keys":1,"block":1,"trial":27,"robot":1,"valence":"win","action":"go","sham":0,"trial_type":"pit-trial","trial_index":40,"time_elapsed":283265,"internal_node_id":"0.0-29.0","task_version":"battery-v0.1"},{"rune":"S","hex":"#3366ff99","correct":-1,"choice":32,"rt":929,"accuracy":0,"outcome":"+1","keys":[2438],"total_keys":1,"block":1,"trial":28,"robot":2,"valence":"win","action":"no-go","sham":0,"trial_type":"pit-trial","trial_index":41,"time_elapsed":286906,"internal_node_id":"0.0-30.0","task_version":"battery-v0.1"},{"rune":"K","hex":"#f73b6a7A","correct":-1,"choice":-1,"rt":-1,"accuracy":1,"outcome":"-1","keys":[],"total_keys":0,"block":1,"trial":29,"robot":4,"valence":"lose","action":"no-go","sham":0,"trial_type":"pit-trial","trial_index":42,"time_elapsed":290918,"internal_node_id":"0.0-31.0","task_version":"battery-v0.1"},{"rune":"S","hex":"#3366ff99","correct":-1,"choice":32,"rt":1087,"accuracy":0,"outcome":"+10","keys":[2601],"total_keys":1,"block":1,"trial":30,"robot":2,"valence":"win","action":"no-go","sham":1,"trial_type":"pit-trial","trial_index":43,"time_elapsed":294732,"internal_node_id":"0.0-32.0","task_version":"battery-v0.1"},{"rune":"U","hex":"#3366ff99","correct":32,"choice":32,"rt":1047,"accuracy":1,"outcome":"+10","keys":[2555],"total_keys":1,"block":1,"trial":31,"robot":1,"valence":"win","action":"go","sham":0,"trial_type":"pit-trial","trial_index":44,"time_elapsed":298488,"internal_node_id":"0.0-33.0","task_version":"battery-v0.1"},{"rune":"C","hex":"#f73b6a7A","correct":-1,"choice":-1,"rt":-1,"accuracy":1,"outcome":"-1","keys":[],"total_keys":0,"block":1,"trial":32,"robot":4,"valence":"lose","action":"no-go","sham":0,"trial_type":"pit-trial","trial_index":45,"time_elapsed":302506,"internal_node_id":"0.0-34.0","task_version":"battery-v0.1"},{"rune":"S","hex":"#3366ff99","correct":-1,"choice":32,"rt":898,"accuracy":0,"outcome":"+1","keys":[2413],"total_keys":1,"block":1,"trial":33,"robot":2,"valence":"win","action":"no-go","sham":0,"trial_type":"pit-trial","trial_index":46,"time_elapsed":306126,"internal_node_id":"0.0-35.0","task_version":"battery-v0.1"},{"rune":"K","hex":"#f73b6a7A","correct":-1,"choice":-1,"rt":-1,"accuracy":1,"outcome":"-1","keys":[],"total_keys":0,"block":1,"trial":34,"robot":4,"valence":"lose","action":"no-go","sham":0,"trial_type":"pit-trial","trial_index":47,"time_elapsed":310149,"internal_node_id":"0.0-36.0","task_version":"battery-v0.1"},{"rune":"L","hex":"#f73b6a7A","correct":32,"choice":32,"rt":1079,"accuracy":1,"outcome":"-1","keys":[2594],"total_keys":1,"block":1,"trial":35,"robot":3,"valence":"lose","action":"go","sham":0,"trial_type":"pit-trial","trial_index":48,"time_elapsed":313959,"internal_node_id":"0.0-37.0","task_version":"battery-v0.1"},{"rune":"U","hex":"#3366ff99","correct":32,"choice":-1,"rt":-1,"accuracy":0,"outcome":"+1","keys":[2911],"total_keys":1,"block":1,"trial":36,"robot":1,"valence":"win","action":"go","sham":0,"trial_type":"pit-trial","trial_index":49,"time_elapsed":317974,"internal_node_id":"0.0-38.0","task_version":"battery-v0.1"},{"rune":"K","hex":"#f73b6a7A","correct":-1,"choice":-1,"rt":-1,"accuracy":1,"outcome":"-1","keys":[],"total_keys":0,"block":1,"trial":37,"robot":4,"valence":"lose","action":"no-go","sham":0,"trial_type":"pit-trial","trial_index":50,"time_elapsed":321991,"internal_node_id":"0.0-39.0","task_version":"battery-v0.1"},{"rune":"U","hex":"#3366ff99","correct":32,"choice":32,"rt":865,"accuracy":1,"outcome":"+1","keys":[2376],"total_keys":1,"block":1,"trial":38,"robot":1,"valence":"win","action":"go","sham":1,"trial_type":"pit-trial","trial_index":51,"time_elapsed":325579,"internal_node_id":"0.0-40.0","task_version":"battery-v0.1"},{"rune":"S","hex":"#3366ff99","correct":-1,"choice":-1,"rt":-1,"accuracy":1,"outcome":"+10","keys":[],"total_keys":0,"block":1,"trial":39,"robot":2,"valence":"win","action":"no-go","sham":0,"trial_type":"pit-trial","trial_index":52,"time_elapsed":329608,"internal_node_id":"0.0-41.0","task_version":"battery-v0.1"},{"rune":"L","hex":"#f73b6a7A","correct":32,"choice":32,"rt":1254,"accuracy":1,"outcome":"-1","keys":[2759],"total_keys":1,"block":1,"trial":40,"robot":3,"valence":"lose","action":"go","sham":0,"trial_type":"pit-trial","trial_index":53,"time_elapsed":333577,"internal_node_id":"0.0-42.0","task_version":"battery-v0.1"},{"rune":"K","hex":"#f73b6a7A","correct":-1,"choice":-1,"rt":-1,"accuracy":1,"outcome":"-1","keys":[],"total_keys":0,"block":1,"trial":41,"robot":4,"valence":"lose","action":"no-go","sham":0,"trial_type":"pit-trial","trial_index":54,"time_elapsed":337591,"internal_node_id":"0.0-43.0","task_version":"battery-v0.1"},{"rune":"Q","hex":"#3366ff99","correct":-1,"choice":32,"rt":821,"accuracy":0,"outcome":"+1","keys":[2329],"total_keys":1,"block":1,"trial":42,"robot":2,"valence":"win","action":"no-go","sham":0,"trial_type":"pit-trial","trial_index":55,"time_elapsed":341134,"internal_node_id":"0.0-44.0","task_version":"battery-v0.1"},{"rune":"Y","hex":"#3366ff99","correct":32,"choice":32,"rt":809,"accuracy":1,"outcome":"+10","keys":[2322],"total_keys":1,"block":1,"trial":43,"robot":1,"valence":"win","action":"go","sham":0,"trial_type":"pit-trial","trial_index":56,"time_elapsed":344667,"internal_node_id":"0.0-45.0","task_version":"battery-v0.1"},{"rune":"L","hex":"#f73b6a7A","correct":32,"choice":-1,"rt":-1,"accuracy":0,"outcome":"-1","keys":[],"total_keys":0,"block":1,"trial":44,"robot":3,"valence":"lose","action":"go","sham":1,"trial_type":"pit-trial","trial_index":57,"time_elapsed":348687,"internal_node_id":"0.0-46.0","task_version":"battery-v0.1"},{"rune":"L","hex":"#f73b6a7A","correct":32,"choice":-1,"rt":-1,"accuracy":0,"outcome":"-10","keys":[],"total_keys":0,"block":1,"trial":45,"robot":3,"valence":"lose","action":"go","sham":0,"trial_type":"pit-trial","trial_index":58,"time_elapsed":352703,"internal_node_id":"0.0-47.0","task_version":"battery-v0.1"},{"rune":"Y","hex":"#3366ff99","correct":32,"choice":-1,"rt":-1,"accuracy":0,"outcome":"+1","keys":[3064],"total_keys":1,"block":1,"trial":46,"robot":1,"valence":"win","action":"go","sham":0,"trial_type":"pit-trial","trial_index":59,"time_elapsed":356715,"internal_node_id":"0.0-48.0","task_version":"battery-v0.1"},{"rune":"K","hex":"#f73b6a7A","correct":-1,"choice":-1,"rt":-1,"accuracy":1,"outcome":"-10","keys":[],"total_keys":0,"block":1,"trial":47,"robot":4,"valence":"lose","action":"no-go","sham":1,"trial_type":"pit-trial","trial_index":60,"time_elapsed":360726,"internal_node_id":"0.0-49.0","task_version":"battery-v0.1"},{"rune":"Q","hex":"#3366ff99","correct":-1,"choice":32,"rt":1147,"accuracy":0,"outcome":"+10","keys":[2658],"total_keys":1,"block":1,"trial":48,"robot":2,"valence":"win","action":"no-go","sham":1,"trial_type":"pit-trial","trial_index":61,"time_elapsed":364597,"internal_node_id":"0.0-50.0","task_version":"battery-v0.1"},{"rune":"I","hex":"#f73b6a7A","correct":-1,"choice":-1,"rt":-1,"accuracy":1,"outcome":"-1","keys":[],"total_keys":0,"block":1,"trial":49,"robot":4,"valence":"lose","action":"no-go","sham":0,"trial_type":"pit-trial","trial_index":62,"time_elapsed":368620,"internal_node_id":"0.0-51.0","task_version":"battery-v0.1"},{"rune":"Y","hex":"#3366ff99","correct":32,"choice":32,"rt":1181,"accuracy":1,"outcome":"+10","keys":[2694],"total_keys":1,"block":1,"trial":50,"robot":1,"valence":"win","action":"go","sham":0,"trial_type":"pit-trial","trial_index":63,"time_elapsed":372518,"internal_node_id":"0.0-52.0","task_version":"battery-v0.1"},{"rune":"L","hex":"#f73b6a7A","correct":32,"choice":-1,"rt":-1,"accuracy":0,"outcome":"-10","keys":[],"total_keys":0,"block":1,"trial":51,"robot":3,"valence":"lose","action":"go","sham":0,"trial_type":"pit-trial","trial_index":64,"time_elapsed":376526,"internal_node_id":"0.0-53.0","task_version":"battery-v0.1"},{"rune":"Q","hex":"#3366ff99","correct":-1,"choice":-1,"rt":-1,"accuracy":1,"outcome":"+10","keys":[],"total_keys":0,"block":1,"trial":52,"robot":2,"valence":"win","action":"no-go","sham":0,"trial_type":"pit-trial","trial_index":65,"time_elapsed":380535,"internal_node_id":"0.0-54.0","task_version":"battery-v0.1"},{"rune":"I","hex":"#f73b6a7A","correct":-1,"choice":-1,"rt":-1,"accuracy":1,"outcome":"-1","keys":[2923],"total_keys":1,"block":1,"trial":53,"robot":4,"valence":"lose","action":"no-go","sham":0,"trial_type":"pit-trial","trial_index":66,"time_elapsed":384553,"internal_node_id":"0.0-55.0","task_version":"battery-v0.1"},{"rune":"Q","hex":"#3366ff99","correct":-1,"choice":-1,"rt":-1,"accuracy":1,"outcome":"+10","keys":[3225],"total_keys":1,"block":1,"trial":54,"robot":2,"valence":"win","action":"no-go","sham":0,"trial_type":"pit-trial","trial_index":67,"time_elapsed":388577,"internal_node_id":"0.0-56.0","task_version":"battery-v0.1"},{"rune":"L","hex":"#f73b6a7A","correct":32,"choice":-1,"rt":-1,"accuracy":0,"outcome":"-1","keys":[],"total_keys":0,"block":1,"trial":55,"robot":3,"valence":"lose","action":"go","sham":1,"trial_type":"pit-trial","trial_index":68,"time_elapsed":392589,"internal_node_id":"0.0-57.0","task_version":"battery-v0.1"},{"rune":"Y","hex":"#3366ff99","correct":32,"choice":-1,"rt":-1,"accuracy":0,"outcome":"+1","keys":[],"total_keys":0,"block":1,"trial":56,"robot":1,"valence":"win","action":"go","sham":0,"trial_type":"pit-trial","trial_index":69,"time_elapsed":396605,"internal_node_id":"0.0-58.0","task_version":"battery-v0.1"},{"rune":"I","hex":"#f73b6a7A","correct":-1,"choice":-1,"rt":-1,"accuracy":1,"outcome":"-10","keys":[],"total_keys":0,"block":1,"trial":57,"robot":4,"valence":"lose","action":"no-go","sham":1,"trial_type":"pit-trial","trial_index":70,"time_elapsed":400620,"internal_node_id":"0.0-59.0","task_version":"battery-v0.1"},{"rune":"L","hex":"#f73b6a7A","correct":32,"choice":32,"rt":1160,"accuracy":1,"outcome":"-1","keys":[2662],"total_keys":1,"block":1,"trial":58,"robot":3,"valence":"lose","action":"go","sham":0,"trial_type":"pit-trial","trial_index":71,"time_elapsed":404491,"internal_node_id":"0.0-60.0","task_version":"battery-v0.1"},{"rune":"Y","hex":"#3366ff99","correct":32,"choice":32,"rt":1178,"accuracy":1,"outcome":"+1","keys":[2679],"total_keys":1,"block":1,"trial":59,"robot":1,"valence":"win","action":"go","sham":1,"trial_type":"pit-trial","trial_index":72,"time_elapsed":408386,"internal_node_id":"0.0-61.0","task_version":"battery-v0.1"},{"rune":"Q","hex":"#3366ff99","correct":-1,"choice":32,"rt":1190,"accuracy":0,"outcome":"+1","keys":[2697],"total_keys":1,"block":1,"trial":60,"robot":2,"valence":"win","action":"no-go","sham":0,"trial_type":"pit-trial","trial_index":73,"time_elapsed":412292,"internal_node_id":"0.0-62.0","task_version":"battery-v0.1"},{"rune":"Q","hex":"#3366ff99","correct":-1,"choice":-1,"rt":-1,"accuracy":1,"outcome":"+10","keys":[],"total_keys":0,"block":1,"trial":61,"robot":2,"valence":"win","action":"no-go","sham":0,"trial_type":"pit-trial","trial_index":74,"time_elapsed":416314,"internal_node_id":"0.0-63.0","task_version":"battery-v0.1"},{"rune":"L","hex":"#f73b6a7A","correct":32,"choice":-1,"rt":-1,"accuracy":0,"outcome":"-10","keys":[2841],"total_keys":1,"block":1,"trial":62,"robot":3,"valence":"lose","action":"go","sham":0,"trial_type":"pit-trial","trial_index":75,"time_elapsed":420334,"internal_node_id":"0.0-64.0","task_version":"battery-v0.1"},{"rune":"Y","hex":"#3366ff99","correct":32,"choice":-1,"rt":-1,"accuracy":0,"outcome":"+10","keys":[],"total_keys":0,"block":1,"trial":63,"robot":1,"valence":"win","action":"go","sham":1,"trial_type":"pit-trial","trial_index":76,"time_elapsed":424338,"internal_node_id":"0.0-65.0","task_version":"battery-v0.1"},{"rune":"I","hex":"#f73b6a7A","correct":-1,"choice":-1,"rt":-1,"accuracy":1,"outcome":"-1","keys":[],"total_keys":0,"block":1,"trial":64,"robot":4,"valence":"lose","action":"no-go","sham":0,"trial_type":"pit-trial","trial_index":77,"time_elapsed":428363,"internal_node_id":"0.0-66.0","task_version":"battery-v0.1"},{"rune":"I","hex":"#f73b6a7A","correct":-1,"choice":32,"rt":1176,"accuracy":0,"outcome":"-10","keys":[2689],"total_keys":1,"block":1,"trial":65,"robot":4,"valence":"lose","action":"no-go","sham":0,"trial_type":"pit-trial","trial_index":78,"time_elapsed":432267,"internal_node_id":"0.0-67.0","task_version":"battery-v0.1"},{"rune":"Y","hex":"#3366ff99","correct":32,"choice":-1,"rt":-1,"accuracy":0,"outcome":"+1","keys":[],"total_keys":0,"block":1,"trial":66,"robot":1,"valence":"win","action":"go","sham":0,"trial_type":"pit-trial","trial_index":79,"time_elapsed":436277,"internal_node_id":"0.0-68.0","task_version":"battery-v0.1"},{"rune":"L","hex":"#f73b6a7A","correct":32,"choice":-1,"rt":-1,"accuracy":0,"outcome":"-10","keys":[3071],"total_keys":1,"block":1,"trial":67,"robot":3,"valence":"lose","action":"go","sham":0,"trial_type":"pit-trial","trial_index":80,"time_elapsed":440284,"internal_node_id":"0.0-69.0","task_version":"battery-v0.1"},{"rune":"Q","hex":"#3366ff99","correct":-1,"choice":32,"rt":1093,"accuracy":0,"outcome":"+1","keys":[2600],"total_keys":1,"block":1,"trial":68,"robot":2,"valence":"win","action":"no-go","sham":0,"trial_type":"pit-trial","trial_index":81,"time_elapsed":444085,"internal_node_id":"0.0-70.0","task_version":"battery-v0.1"},{"rune":"Q","hex":"#3366ff99","correct":-1,"choice":-1,"rt":-1,"accuracy":1,"outcome":"+10","keys":[],"total_keys":0,"block":1,"trial":69,"robot":2,"valence":"win","action":"no-go","sham":0,"trial_type":"pit-trial","trial_index":82,"time_elapsed":448097,"internal_node_id":"0.0-71.0","task_version":"battery-v0.1"},{"rune":"Y","hex":"#3366ff99","correct":32,"choice":32,"rt":1088,"accuracy":1,"outcome":"+10","keys":[2602],"total_keys":1,"block":1,"trial":70,"robot":1,"valence":"win","action":"go","sham":0,"trial_type":"pit-trial","trial_index":83,"time_elapsed":451906,"internal_node_id":"0.0-72.0","task_version":"battery-v0.1"},{"rune":"L","hex":"#f73b6a7A","correct":32,"choice":-1,"rt":-1,"accuracy":0,"outcome":"-10","keys":[],"total_keys":0,"block":1,"trial":71,"robot":3,"valence":"lose","action":"go","sham":0,"trial_type":"pit-trial","trial_index":84,"time_elapsed":455930,"internal_node_id":"0.0-73.0","task_version":"battery-v0.1"},{"rune":"I","hex":"#f73b6a7A","correct":-1,"choice":32,"rt":982,"accuracy":0,"outcome":"-10","keys":[2490],"total_keys":1,"block":1,"trial":72,"robot":4,"valence":"lose","action":"no-go","sham":0,"trial_type":"pit-trial","trial_index":85,"time_elapsed":459627,"internal_node_id":"0.0-74.0","task_version":"battery-v0.1"},{"rune":"E","hex":"#3366ff99","correct":32,"choice":32,"rt":818,"accuracy":1,"outcome":"+10","keys":[2329],"total_keys":1,"block":1,"trial":73,"robot":1,"valence":"win","action":"go","sham":0,"trial_type":"pit-trial","trial_index":86,"time_elapsed":463169,"internal_node_id":"0.0-75.0","task_version":"battery-v0.1"},{"rune":"Q","hex":"#3366ff99","correct":-1,"choice":32,"rt":1032,"accuracy":0,"outcome":"+1","keys":[2532],"total_keys":1,"block":1,"trial":74,"robot":2,"valence":"win","action":"no-go","sham":0,"trial_type":"pit-trial","trial_index":87,"time_elapsed":466911,"internal_node_id":"0.0-76.0","task_version":"battery-v0.1"},{"rune":"D","hex":"#f73b6a7A","correct":32,"choice":-1,"rt":-1,"accuracy":0,"outcome":"-10","keys":[],"total_keys":0,"block":1,"trial":75,"robot":3,"valence":"lose","action":"go","sham":0,"trial_type":"pit-trial","trial_index":88,"time_elapsed":470930,"internal_node_id":"0.0-77.0","task_version":"battery-v0.1"},{"rune":"I","hex":"#f73b6a7A","correct":-1,"choice":-1,"rt":-1,"accuracy":1,"outcome":"-1","keys":[],"total_keys":0,"block":1,"trial":76,"robot":4,"valence":"lose","action":"no-go","sham":0,"trial_type":"pit-trial","trial_index":89,"time_elapsed":474949,"internal_node_id":"0.0-78.0","task_version":"battery-v0.1"},{"rune":"E","hex":"#3366ff99","correct":32,"choice":32,"rt":1232,"accuracy":1,"outcome":"+10","keys":[2744],"total_keys":1,"block":1,"trial":77,"robot":1,"valence":"win","action":"go","sham":0,"trial_type":"pit-trial","trial_index":90,"time_elapsed":478898,"internal_node_id":"0.0-79.0","task_version":"battery-v0.1"},{"rune":"D","hex":"#f73b6a7A","correct":32,"choice":-1,"rt":-1,"accuracy":0,"outcome":"-10","keys":[],"total_keys":0,"block":1,"trial":78,"robot":3,"valence":"lose","action":"go","sham":0,"trial_type":"pit-trial","trial_index":91,"time_elapsed":482917,"internal_node_id":"0.0-80.0","task_version":"battery-v0.1"},{"rune":"I","hex":"#f73b6a7A","correct":-1,"choice":32,"rt":731,"accuracy":0,"outcome":"-10","keys":[2232],"total_keys":1,"block":1,"trial":79,"robot":4,"valence":"lose","action":"no-go","sham":0,"trial_type":"pit-trial","trial_index":92,"time_elapsed":486352,"internal_node_id":"0.0-81.0","task_version":"battery-v0.1"},{"rune":"Q","hex":"#3366ff99","correct":-1,"choice":32,"rt":1165,"accuracy":0,"outcome":"+1","keys":[2678],"total_keys":1,"block":1,"trial":80,"robot":2,"valence":"win","action":"no-go","sham":0,"trial_type":"pit-trial","trial_index":93,"time_elapsed":490243,"internal_node_id":"0.0-82.0","task_version":"battery-v0.1"},{"rune":"I","hex":"#f73b6a7A","correct":-1,"choice":-1,"rt":-1,"accuracy":1,"outcome":"-1","keys":[],"total_keys":0,"block":1,"trial":81,"robot":4,"valence":"lose","action":"no-go","sham":0,"trial_type":"pit-trial","trial_index":94,"time_elapsed":494246,"internal_node_id":"0.0-83.0","task_version":"battery-v0.1"},{"rune":"E","hex":"#3366ff99","correct":32,"choice":32,"rt":1081,"accuracy":1,"outcome":"+10","keys":[2582],"total_keys":1,"block":1,"trial":82,"robot":1,"valence":"win","action":"go","sham":0,"trial_type":"pit-trial","trial_index":95,"time_elapsed":498032,"internal_node_id":"0.0-84.0","task_version":"battery-v0.1"},{"rune":"Q","hex":"#3366ff99","correct":-1,"choice":32,"rt":1254,"accuracy":0,"outcome":"+1","keys":[2759],"total_keys":1,"block":1,"trial":83,"robot":2,"valence":"win","action":"no-go","sham":0,"trial_type":"pit-trial","trial_index":96,"time_elapsed":501994,"internal_node_id":"0.0-85.0","task_version":"battery-v0.1"},{"rune":"D","hex":"#f73b6a7A","correct":32,"choice":-1,"rt":-1,"accuracy":0,"outcome":"-10","keys":[],"total_keys":0,"block":1,"trial":84,"robot":3,"valence":"lose","action":"go","sham":0,"trial_type":"pit-trial","trial_index":97,"time_elapsed":506010,"internal_node_id":"0.0-86.0","task_version":"battery-v0.1"},{"rune":"E","hex":"#3366ff99","correct":32,"choice":32,"rt":1276,"accuracy":1,"outcome":"+10","keys":[2789],"total_keys":1,"block":1,"trial":85,"robot":1,"valence":"win","action":"go","sham":0,"trial_type":"pit-trial","trial_index":98,"time_elapsed":510001,"internal_node_id":"0.0-87.0","task_version":"battery-v0.1"},{"rune":"D","hex":"#f73b6a7A","correct":32,"choice":32,"rt":1146,"accuracy":1,"outcome":"-10","keys":[2661],"total_keys":1,"block":1,"trial":86,"robot":3,"valence":"lose","action":"go","sham":1,"trial_type":"pit-trial","trial_index":99,"time_elapsed":513874,"internal_node_id":"0.0-88.0","task_version":"battery-v0.1"},{"rune":"I","hex":"#f73b6a7A","correct":-1,"choice":-1,"rt":-1,"accuracy":1,"outcome":"-1","keys":[],"total_keys":0,"block":1,"trial":87,"robot":4,"valence":"lose","action":"no-go","sham":0,"trial_type":"pit-trial","trial_index":100,"time_elapsed":517890,"internal_node_id":"0.0-89.0","task_version":"battery-v0.1"},{"rune":"Q","hex":"#3366ff99","correct":-1,"choice":32,"rt":1119,"accuracy":0,"outcome":"+1","keys":[2630],"total_keys":1,"block":1,"trial":88,"robot":2,"valence":"win","action":"no-go","sham":0,"trial_type":"pit-trial","trial_index":101,"time_elapsed":521731,"internal_node_id":"0.0-90.0","task_version":"battery-v0.1"},{"rune":"B","hex":"#f73b6a7A","correct":32,"choice":32,"rt":904,"accuracy":1,"outcome":"-1","keys":[2410],"total_keys":1,"block":1,"trial":89,"robot":3,"valence":"lose","action":"go","sham":0,"trial_type":"pit-trial","trial_index":102,"time_elapsed":525357,"internal_node_id":"0.0-91.0","task_version":"battery-v0.1"},{"rune":"E","hex":"#3366ff99","correct":32,"choice":32,"rt":1073,"accuracy":1,"outcome":"+10","keys":[2580],"total_keys":1,"block":1,"trial":90,"robot":1,"valence":"win","action":"go","sham":0,"trial_type":"pit-trial","trial_index":103,"time_elapsed":529149,"internal_node_id":"0.0-92.0","task_version":"battery-v0.1"},{"rune":"D","hex":"#f73b6a7A","correct":32,"choice":-1,"rt":-1,"accuracy":0,"outcome":"-1","keys":[],"total_keys":0,"block":1,"trial":91,"robot":3,"valence":"lose","action":"go","sham":1,"trial_type":"pit-trial","trial_index":104,"time_elapsed":533165,"internal_node_id":"0.0-93.0","task_version":"battery-v0.1"},{"rune":"J","hex":"#3366ff99","correct":-1,"choice":32,"rt":1043,"accuracy":0,"outcome":"+10","keys":[2555],"total_keys":1,"block":1,"trial":92,"robot":2,"valence":"win","action":"no-go","sham":1,"trial_type":"pit-trial","trial_index":105,"time_elapsed":536922,"internal_node_id":"0.0-94.0","task_version":"battery-v0.1"},{"rune":"E","hex":"#3366ff99","correct":32,"choice":32,"rt":1167,"accuracy":1,"outcome":"+10","keys":[2671],"total_keys":1,"block":1,"trial":93,"robot":1,"valence":"win","action":"go","sham":0,"trial_type":"pit-trial","trial_index":106,"time_elapsed":540803,"internal_node_id":"0.0-95.0","task_version":"battery-v0.1"},{"rune":"D","hex":"#f73b6a7A","correct":32,"choice":-1,"rt":-1,"accuracy":0,"outcome":"-10","keys":[],"total_keys":0,"block":1,"trial":94,"robot":3,"valence":"lose","action":"go","sham":0,"trial_type":"pit-trial","trial_index":107,"time_elapsed":544819,"internal_node_id":"0.0-96.0","task_version":"battery-v0.1"},{"rune":"J","hex":"#3366ff99","correct":-1,"choice":32,"rt":1298,"accuracy":0,"outcome":"+1","keys":[2798],"total_keys":1,"block":1,"trial":95,"robot":2,"valence":"win","action":"no-go","sham":0,"trial_type":"pit-trial","trial_index":108,"time_elapsed":548820,"internal_node_id":"0.0-97.0","task_version":"battery-v0.1"},{"rune":"B","hex":"#f73b6a7A","correct":32,"choice":-1,"rt":-1,"accuracy":0,"outcome":"-10","keys":[3100],"total_keys":1,"block":1,"trial":96,"robot":3,"valence":"lose","action":"go","sham":0,"trial_type":"pit-trial","trial_index":109,"time_elapsed":552830,"internal_node_id":"0.0-98.0","task_version":"battery-v0.1"},{"rune":"D","hex":"#f73b6a7A","correct":32,"choice":32,"rt":970,"accuracy":1,"outcome":"-1","keys":[2474],"total_keys":1,"block":1,"trial":97,"robot":3,"valence":"lose","action":"go","sham":0,"trial_type":"pit-trial","trial_index":110,"time_elapsed":556514,"internal_node_id":"0.0-99.0","task_version":"battery-v0.1"},{"rune":"J","hex":"#3366ff99","correct":-1,"choice":32,"rt":1258,"accuracy":0,"outcome":"+1","keys":[2767],"total_keys":1,"block":1,"trial":98,"robot":2,"valence":"win","action":"no-go","sham":0,"trial_type":"pit-trial","trial_index":111,"time_elapsed":560492,"internal_node_id":"0.0-100.0","task_version":"battery-v0.1"},{"rune":"B","hex":"#f73b6a7A","correct":32,"choice":-1,"rt":-1,"accuracy":0,"outcome":"-10","keys":[2909],"total_keys":1,"block":1,"trial":99,"robot":3,"valence":"lose","action":"go","sham":0,"trial_type":"pit-trial","trial_index":112,"time_elapsed":564519,"internal_node_id":"0.0-101.0","task_version":"battery-v0.1"},{"rune":"E","hex":"#3366ff99","correct":32,"choice":32,"rt":1149,"accuracy":1,"outcome":"+10","keys":[2650],"total_keys":1,"block":1,"trial":100,"robot":1,"valence":"win","action":"go","sham":0,"trial_type":"pit-trial","trial_index":113,"time_elapsed":568376,"internal_node_id":"0.0-102.0","task_version":"battery-v0.1"},{"rune":"E","hex":"#3366ff99","correct":32,"choice":32,"rt":683,"accuracy":1,"outcome":"+10","keys":[2193],"total_keys":1,"block":1,"trial":101,"robot":1,"valence":"win","action":"go","sham":0,"trial_type":"pit-trial","trial_index":114,"time_elapsed":571777,"internal_node_id":"0.0-103.0","task_version":"battery-v0.1"},{"rune":"J","hex":"#3366ff99","correct":-1,"choice":32,"rt":846,"accuracy":0,"outcome":"+10","keys":[2352],"total_keys":1,"block":1,"trial":102,"robot":2,"valence":"win","action":"no-go","sham":1,"trial_type":"pit-trial","trial_index":115,"time_elapsed":575332,"internal_node_id":"0.0-104.0","task_version":"battery-v0.1"},{"rune":"B","hex":"#f73b6a7A","correct":32,"choice":32,"rt":1151,"accuracy":1,"outcome":"-10","keys":[2662],"total_keys":1,"block":1,"trial":103,"robot":3,"valence":"lose","action":"go","sham":1,"trial_type":"pit-trial","trial_index":116,"time_elapsed":579207,"internal_node_id":"0.0-105.0","task_version":"battery-v0.1"},{"rune":"D","hex":"#f73b6a7A","correct":32,"choice":32,"rt":835,"accuracy":1,"outcome":"-1","keys":[2338],"total_keys":1,"block":1,"trial":104,"robot":3,"valence":"lose","action":"go","sham":0,"trial_type":"pit-trial","trial_index":117,"time_elapsed":582754,"internal_node_id":"0.0-106.0","task_version":"battery-v0.1"},{"rune":"B","hex":"#f73b6a7A","correct":32,"choice":32,"rt":1225,"accuracy":1,"outcome":"-1","keys":[2727],"total_keys":1,"block":1,"trial":105,"robot":3,"valence":"lose","action":"go","sham":0,"trial_type":"pit-trial","trial_index":118,"time_elapsed":586687,"internal_node_id":"0.0-107.0","task_version":"battery-v0.1"},{"rune":"E","hex":"#3366ff99","correct":32,"choice":32,"rt":1123,"accuracy":1,"outcome":"+10","keys":[2627],"total_keys":1,"block":1,"trial":106,"robot":1,"valence":"win","action":"go","sham":0,"trial_type":"pit-trial","trial_index":119,"time_elapsed":590518,"internal_node_id":"0.0-108.0","task_version":"battery-v0.1"},{"rune":"D","hex":"#f73b6a7A","correct":32,"choice":-1,"rt":-1,"accuracy":0,"outcome":"-10","keys":[2899],"total_keys":1,"block":1,"trial":107,"robot":3,"valence":"lose","action":"go","sham":0,"trial_type":"pit-trial","trial_index":120,"time_elapsed":594537,"internal_node_id":"0.0-109.0","task_version":"battery-v0.1"},{"rune":"J","hex":"#3366ff99","correct":-1,"choice":32,"rt":1119,"accuracy":0,"outcome":"+1","keys":[2633],"total_keys":1,"block":1,"trial":108,"robot":2,"valence":"win","action":"no-go","sham":0,"trial_type":"pit-trial","trial_index":121,"time_elapsed":598372,"internal_node_id":"0.0-110.0","task_version":"battery-v0.1"},{"rune":"D","hex":"#f73b6a7A","correct":32,"choice":-1,"rt":-1,"accuracy":0,"outcome":"-10","keys":[],"total_keys":0,"block":1,"trial":109,"robot":3,"valence":"lose","action":"go","sham":0,"trial_type":"pit-trial","trial_index":122,"time_elapsed":602387,"internal_node_id":"0.0-111.0","task_version":"battery-v0.1"},{"rune":"E","hex":"#3366ff99","correct":32,"choice":32,"rt":891,"accuracy":1,"outcome":"+10","keys":[2399],"total_keys":1,"block":1,"trial":110,"robot":1,"valence":"win","action":"go","sham":0,"trial_type":"pit-trial","trial_index":123,"time_elapsed":605990,"internal_node_id":"0.0-112.0","task_version":"battery-v0.1"},{"rune":"B","hex":"#f73b6a7A","correct":32,"choice":32,"rt":1275,"accuracy":1,"outcome":"-1","keys":[2788],"total_keys":1,"block":1,"trial":111,"robot":3,"valence":"lose","action":"go","sham":0,"trial_type":"pit-trial","trial_index":124,"time_elapsed":609984,"internal_node_id":"0.0-113.0","task_version":"battery-v0.1"},{"rune":"J","hex":"#3366ff99","correct":-1,"choice":-1,"rt":-1,"accuracy":1,"outcome":"+1","keys":[],"total_keys":0,"block":1,"trial":112,"robot":2,"valence":"win","action":"no-go","sham":1,"trial_type":"pit-trial","trial_index":125,"time_elapsed":613996,"internal_node_id":"0.0-114.0","task_version":"battery-v0.1"},{"rune":"J","hex":"#3366ff99","correct":-1,"choice":32,"rt":1033,"accuracy":0,"outcome":"+1","keys":[2541],"total_keys":1,"block":1,"trial":113,"robot":2,"valence":"win","action":"no-go","sham":0,"trial_type":"pit-trial","trial_index":126,"time_elapsed":617744,"internal_node_id":"0.0-115.0","task_version":"battery-v0.1"},{"rune":"B","hex":"#f73b6a7A","correct":32,"choice":32,"rt":1016,"accuracy":1,"outcome":"-10","keys":[2523],"total_keys":1,"block":1,"trial":114,"robot":3,"valence":"lose","action":"go","sham":1,"trial_type":"pit-trial","trial_index":127,"time_elapsed":621478,"internal_node_id":"0.0-116.0","task_version":"battery-v0.1"},{"rune":"D","hex":"#f73b6a7A","correct":32,"choice":-1,"rt":-1,"accuracy":0,"outcome":"-10","keys":[],"total_keys":0,"block":1,"trial":115,"robot":3,"valence":"lose","action":"go","sham":0,"trial_type":"pit-trial","trial_index":128,"time_elapsed":625494,"internal_node_id":"0.0-117.0","task_version":"battery-v0.1"},{"rune":"E","hex":"#3366ff99","correct":32,"choice":32,"rt":1119,"accuracy":1,"outcome":"+10","keys":[2629],"total_keys":1,"block":1,"trial":116,"robot":1,"valence":"win","action":"go","sham":0,"trial_type":"pit-trial","trial_index":129,"time_elapsed":629330,"internal_node_id":"0.0-118.0","task_version":"battery-v0.1"},{"rune":"B","hex":"#f73b6a7A","correct":32,"choice":32,"rt":1189,"accuracy":1,"outcome":"-1","keys":[2690],"total_keys":1,"block":1,"trial":117,"robot":3,"valence":"lose","action":"go","sham":0,"trial_type":"pit-trial","trial_index":130,"time_elapsed":633231,"internal_node_id":"0.0-119.0","task_version":"battery-v0.1"},{"rune":"D","hex":"#f73b6a7A","correct":32,"choice":-1,"rt":-1,"accuracy":0,"outcome":"-10","keys":[],"total_keys":0,"block":1,"trial":118,"robot":3,"valence":"lose","action":"go","sham":0,"trial_type":"pit-trial","trial_index":131,"time_elapsed":637239,"internal_node_id":"0.0-120.0","task_version":"battery-v0.1"},{"rune":"J","hex":"#3366ff99","correct":-1,"choice":32,"rt":857,"accuracy":0,"outcome":"+10","keys":[2367],"total_keys":1,"block":1,"trial":119,"robot":2,"valence":"win","action":"no-go","sham":1,"trial_type":"pit-trial","trial_index":132,"time_elapsed":640807,"internal_node_id":"0.0-121.0","task_version":"battery-v0.1"},{"rune":"E","hex":"#3366ff99","correct":32,"choice":32,"rt":1026,"accuracy":1,"outcome":"+10","keys":[2532],"total_keys":1,"block":1,"trial":120,"robot":1,"valence":"win","action":"go","sham":0,"trial_type":"pit-trial","trial_index":133,"time_elapsed":644545,"internal_node_id":"0.0-122.0","task_version":"battery-v0.1"},{"view_history":"[{\"page_index\":0,\"viewing_time\":37201},{\"page_index\":1,\"viewing_time\":4489}]","rt":41690,"trial_type":"pit-instructions","trial_index":134,"time_elapsed":686236,"internal_node_id":"0.0-123.0","task_version":"battery-v0.1"},{"rune":"W","hex":"#3366ff99","correct":32,"choice":32,"rt":586,"accuracy":1,"outcome":"+10","keys":[2097],"total_keys":1,"block":2,"trial":121,"robot":1,"valence":"win","action":"go","sham":0,"trial_type":"pit-trial","trial_index":135,"time_elapsed":689536,"internal_node_id":"0.0-124.0","task_version":"battery-v0.1"},{"rune":"Z","hex":"#f73b6a7A","correct":-1,"choice":32,"rt":710,"accuracy":0,"outcome":"-10","keys":[2222],"total_keys":1,"block":2,"trial":122,"robot":4,"valence":"lose","action":"no-go","sham":0,"trial_type":"pit-trial","trial_index":136,"time_elapsed":692972,"internal_node_id":"0.0-125.0","task_version":"battery-v0.1"},{"rune":"P","hex":"#3366ff99","correct":32,"choice":32,"rt":727,"accuracy":1,"outcome":"+10","keys":[2234],"total_keys":1,"block":2,"trial":123,"robot":1,"valence":"win","action":"go","sham":0,"trial_type":"pit-trial","trial_index":137,"time_elapsed":696410,"internal_node_id":"0.0-126.0","task_version":"battery-v0.1"},{"rune":"M","hex":"#3366ff99","correct":-1,"choice":32,"rt":844,"accuracy":0,"outcome":"+1","keys":[2348],"total_keys":1,"block":2,"trial":124,"robot":2,"valence":"win","action":"no-go","sham":0,"trial_type":"pit-trial","trial_index":138,"time_elapsed":699961,"internal_node_id":"0.0-127.0","task_version":"battery-v0.1"},{"rune":"M","hex":"#3366ff99","correct":-1,"choice":32,"rt":927,"accuracy":0,"outcome":"+1","keys":[2437],"total_keys":1,"block":2,"trial":125,"robot":2,"valence":"win","action":"no-go","sham":0,"trial_type":"pit-trial","trial_index":139,"time_elapsed":703604,"internal_node_id":"0.0-128.0","task_version":"battery-v0.1"},{"rune":"Z","hex":"#f73b6a7A","correct":-1,"choice":-1,"rt":-1,"accuracy":1,"outcome":"-1","keys":[],"total_keys":0,"block":2,"trial":126,"robot":4,"valence":"lose","action":"no-go","sham":0,"trial_type":"pit-trial","trial_index":140,"time_elapsed":707621,"internal_node_id":"0.0-129.0","task_version":"battery-v0.1"},{"rune":"P","hex":"#3366ff99","correct":32,"choice":32,"rt":826,"accuracy":1,"outcome":"+10","keys":[2338],"total_keys":1,"block":2,"trial":127,"robot":1,"valence":"win","action":"go","sham":0,"trial_type":"pit-trial","trial_index":141,"time_elapsed":711163,"internal_node_id":"0.0-130.0","task_version":"battery-v0.1"},{"rune":"W","hex":"#3366ff99","correct":32,"choice":32,"rt":1070,"accuracy":1,"outcome":"+10","keys":[2579],"total_keys":1,"block":2,"trial":128,"robot":1,"valence":"win","action":"go","sham":0,"trial_type":"pit-trial","trial_index":142,"time_elapsed":714950,"internal_node_id":"0.0-131.0","task_version":"battery-v0.1"},{"rune":"M","hex":"#3366ff99","correct":-1,"choice":-1,"rt":-1,"accuracy":1,"outcome":"+10","keys":[],"total_keys":0,"block":2,"trial":129,"robot":2,"valence":"win","action":"no-go","sham":0,"trial_type":"pit-trial","trial_index":143,"time_elapsed":718969,"internal_node_id":"0.0-132.0","task_version":"battery-v0.1"},{"rune":"P","hex":"#3366ff99","correct":32,"choice":32,"rt":1146,"accuracy":1,"outcome":"+10","keys":[2655],"total_keys":1,"block":2,"trial":130,"robot":1,"valence":"win","action":"go","sham":0,"trial_type":"pit-trial","trial_index":144,"time_elapsed":722834,"internal_node_id":"0.0-133.0","task_version":"battery-v0.1"},{"rune":"W","hex":"#3366ff99","correct":32,"choice":32,"rt":1179,"accuracy":1,"outcome":"+10","keys":[2694],"total_keys":1,"block":2,"trial":131,"robot":1,"valence":"win","action":"go","sham":0,"trial_type":"pit-trial","trial_index":145,"time_elapsed":726733,"internal_node_id":"0.0-134.0","task_version":"battery-v0.1"},{"rune":"Z","hex":"#f73b6a7A","correct":-1,"choice":-1,"rt":-1,"accuracy":1,"outcome":"-1","keys":[],"total_keys":0,"block":2,"trial":132,"robot":4,"valence":"lose","action":"no-go","sham":0,"trial_type":"pit-trial","trial_index":146,"time_elapsed":730748,"internal_node_id":"0.0-135.0","task_version":"battery-v0.1"},{"rune":"Z","hex":"#f73b6a7A","correct":-1,"choice":-1,"rt":-1,"accuracy":1,"outcome":"-1","keys":[],"total_keys":0,"block":2,"trial":133,"robot":4,"valence":"lose","action":"no-go","sham":0,"trial_type":"pit-trial","trial_index":147,"time_elapsed":734764,"internal_node_id":"0.0-136.0","task_version":"battery-v0.1"},{"rune":"W","hex":"#3366ff99","correct":32,"choice":32,"rt":921,"accuracy":1,"outcome":"+10","keys":[2428],"total_keys":1,"block":2,"trial":134,"robot":1,"valence":"win","action":"go","sham":0,"trial_type":"pit-trial","trial_index":148,"time_elapsed":738394,"internal_node_id":"0.0-137.0","task_version":"battery-v0.1"},{"rune":"M","hex":"#3366ff99","correct":-1,"choice":-1,"rt":-1,"accuracy":1,"outcome":"+10","keys":[],"total_keys":0,"block":2,"trial":135,"robot":2,"valence":"win","action":"no-go","sham":0,"trial_type":"pit-trial","trial_index":149,"time_elapsed":742399,"internal_node_id":"0.0-138.0","task_version":"battery-v0.1"},{"rune":"P","hex":"#3366ff99","correct":32,"choice":32,"rt":1171,"accuracy":1,"outcome":"+10","keys":[2681],"total_keys":1,"block":2,"trial":136,"robot":1,"valence":"win","action":"go","sham":0,"trial_type":"pit-trial","trial_index":150,"time_elapsed":746290,"internal_node_id":"0.0-139.0","task_version":"battery-v0.1"},{"rune":"W","hex":"#3366ff99","correct":32,"choice":32,"rt":1052,"accuracy":1,"outcome":"+10","keys":[2567],"total_keys":1,"block":2,"trial":137,"robot":1,"valence":"win","action":"go","sham":0,"trial_type":"pit-trial","trial_index":151,"time_elapsed":750070,"internal_node_id":"0.0-140.0","task_version":"battery-v0.1"},{"rune":"M","hex":"#3366ff99","correct":-1,"choice":-1,"rt":-1,"accuracy":1,"outcome":"+10","keys":[],"total_keys":0,"block":2,"trial":138,"robot":2,"valence":"win","action":"no-go","sham":0,"trial_type":"pit-trial","trial_index":152,"time_elapsed":754084,"internal_node_id":"0.0-141.0","task_version":"battery-v0.1"},{"rune":"Z","hex":"#f73b6a7A","correct":-1,"choice":-1,"rt":-1,"accuracy":1,"outcome":"-1","keys":[],"total_keys":0,"block":2,"trial":139,"robot":4,"valence":"lose","action":"no-go","sham":0,"trial_type":"pit-trial","trial_index":153,"time_elapsed":758095,"internal_node_id":"0.0-142.0","task_version":"battery-v0.1"},{"rune":"P","hex":"#3366ff99","correct":32,"choice":32,"rt":1058,"accuracy":1,"outcome":"+10","keys":[2561],"total_keys":1,"block":2,"trial":140,"robot":1,"valence":"win","action":"go","sham":0,"trial_type":"pit-trial","trial_index":154,"time_elapsed":761863,"internal_node_id":"0.0-143.0","task_version":"battery-v0.1"},{"rune":"Z","hex":"#f73b6a7A","correct":-1,"choice":-1,"rt":-1,"accuracy":1,"outcome":"-10","keys":[],"total_keys":0,"block":2,"trial":141,"robot":4,"valence":"lose","action":"no-go","sham":1,"trial_type":"pit-trial","trial_index":155,"time_elapsed":765869,"internal_node_id":"0.0-144.0","task_version":"battery-v0.1"},{"rune":"W","hex":"#3366ff99","correct":32,"choice":32,"rt":1032,"accuracy":1,"outcome":"+1","keys":[2538],"total_keys":1,"block":2,"trial":142,"robot":1,"valence":"win","action":"go","sham":1,"trial_type":"pit-trial","trial_index":156,"time_elapsed":769621,"internal_node_id":"0.0-145.0","task_version":"battery-v0.1"},{"rune":"M","hex":"#3366ff99","correct":-1,"choice":-1,"rt":-1,"accuracy":1,"outcome":"+10","keys":[2820],"total_keys":1,"block":2,"trial":143,"robot":2,"valence":"win","action":"no-go","sham":0,"trial_type":"pit-trial","trial_index":157,"time_elapsed":773629,"internal_node_id":"0.0-146.0","task_version":"battery-v0.1"},{"rune":"P","hex":"#3366ff99","correct":32,"choice":-1,"rt":-1,"accuracy":0,"outcome":"+1","keys":[],"total_keys":0,"block":2,"trial":144,"robot":1,"valence":"win","action":"go","sham":0,"trial_type":"pit-trial","trial_index":158,"time_elapsed":777658,"internal_node_id":"0.0-147.0","task_version":"battery-v0.1"},{"rune":"Z","hex":"#f73b6a7A","correct":-1,"choice":32,"rt":999,"accuracy":0,"outcome":"-10","keys":[2512],"total_keys":1,"block":2,"trial":145,"robot":4,"valence":"lose","action":"no-go","sham":0,"trial_type":"pit-trial","trial_index":159,"time_elapsed":781371,"internal_node_id":"0.0-148.0","task_version":"battery-v0.1"},{"rune":"W","hex":"#3366ff99","correct":32,"choice":-1,"rt":-1,"accuracy":0,"outcome":"+10","keys":[],"total_keys":0,"block":2,"trial":146,"robot":1,"valence":"win","action":"go","sham":1,"trial_type":"pit-trial","trial_index":160,"time_elapsed":785378,"internal_node_id":"0.0-149.0","task_version":"battery-v0.1"},{"rune":"P","hex":"#3366ff99","correct":32,"choice":32,"rt":868,"accuracy":1,"outcome":"+10","keys":[2378],"total_keys":1,"block":2,"trial":147,"robot":1,"valence":"win","action":"go","sham":0,"trial_type":"pit-trial","trial_index":161,"time_elapsed":788959,"internal_node_id":"0.0-150.0","task_version":"battery-v0.1"},{"rune":"M","hex":"#3366ff99","correct":-1,"choice":-1,"rt":-1,"accuracy":1,"outcome":"+10","keys":[],"total_keys":0,"block":2,"trial":148,"robot":2,"valence":"win","action":"no-go","sham":0,"trial_type":"pit-trial","trial_index":162,"time_elapsed":792971,"internal_node_id":"0.0-151.0","task_version":"battery-v0.1"},{"rune":"M","hex":"#3366ff99","correct":-1,"choice":-1,"rt":-1,"accuracy":1,"outcome":"+10","keys":[],"total_keys":0,"block":2,"trial":149,"robot":2,"valence":"win","action":"no-go","sham":0,"trial_type":"pit-trial","trial_index":163,"time_elapsed":796984,"internal_node_id":"0.0-152.0","task_version":"battery-v0.1"},{"rune":"W","hex":"#3366ff99","correct":32,"choice":-1,"rt":-1,"accuracy":0,"outcome":"+1","keys":[],"total_keys":0,"block":2,"trial":150,"robot":1,"valence":"win","action":"go","sham":0,"trial_type":"pit-trial","trial_index":164,"time_elapsed":801003,"internal_node_id":"0.0-153.0","task_version":"battery-v0.1"},{"rune":"Z","hex":"#f73b6a7A","correct":-1,"choice":-1,"rt":-1,"accuracy":1,"outcome":"-1","keys":[],"total_keys":0,"block":2,"trial":151,"robot":4,"valence":"lose","action":"no-go","sham":0,"trial_type":"pit-trial","trial_index":165,"time_elapsed":805012,"internal_node_id":"0.0-154.0","task_version":"battery-v0.1"},{"rune":"P","hex":"#3366ff99","correct":32,"choice":32,"rt":1253,"accuracy":1,"outcome":"+10","keys":[2758],"total_keys":1,"block":2,"trial":152,"robot":1,"valence":"win","action":"go","sham":0,"trial_type":"pit-trial","trial_index":166,"time_elapsed":808976,"internal_node_id":"0.0-155.0","task_version":"battery-v0.1"},{"rune":"V","hex":"#3366ff99","correct":32,"choice":-1,"rt":-1,"accuracy":0,"outcome":"+1","keys":[2940],"total_keys":1,"block":2,"trial":153,"robot":1,"valence":"win","action":"go","sham":0,"trial_type":"pit-trial","trial_index":167,"time_elapsed":812986,"internal_node_id":"0.0-156.0","task_version":"battery-v0.1"},{"rune":"Z","hex":"#f73b6a7A","correct":-1,"choice":-1,"rt":-1,"accuracy":1,"outcome":"-10","keys":[],"total_keys":0,"block":2,"trial":154,"robot":4,"valence":"lose","action":"no-go","sham":1,"trial_type":"pit-trial","trial_index":168,"time_elapsed":816996,"internal_node_id":"0.0-157.0","task_version":"battery-v0.1"},{"rune":"P","hex":"#3366ff99","correct":32,"choice":32,"rt":1233,"accuracy":1,"outcome":"+10","keys":[2743],"total_keys":1,"block":2,"trial":155,"robot":1,"valence":"win","action":"go","sham":0,"trial_type":"pit-trial","trial_index":169,"time_elapsed":820948,"internal_node_id":"0.0-158.0","task_version":"battery-v0.1"},{"rune":"M","hex":"#3366ff99","correct":-1,"choice":-1,"rt":-1,"accuracy":1,"outcome":"+1","keys":[],"total_keys":0,"block":2,"trial":156,"robot":2,"valence":"win","action":"no-go","sham":1,"trial_type":"pit-trial","trial_index":170,"time_elapsed":824962,"internal_node_id":"0.0-159.0","task_version":"battery-v0.1"},{"rune":"Z","hex":"#f73b6a7A","correct":-1,"choice":-1,"rt":-1,"accuracy":1,"outcome":"-1","keys":[],"total_keys":0,"block":2,"trial":157,"robot":4,"valence":"lose","action":"no-go","sham":0,"trial_type":"pit-trial","trial_index":171,"time_elapsed":828979,"internal_node_id":"0.0-160.0","task_version":"battery-v0.1"},{"rune":"V","hex":"#3366ff99","correct":32,"choice":-1,"rt":-1,"accuracy":0,"outcome":"+1","keys":[2856],"total_keys":1,"block":2,"trial":158,"robot":1,"valence":"win","action":"go","sham":0,"trial_type":"pit-trial","trial_index":172,"time_elapsed":832993,"internal_node_id":"0.0-161.0","task_version":"battery-v0.1"},{"rune":"P","hex":"#3366ff99","correct":32,"choice":-1,"rt":-1,"accuracy":0,"outcome":"+10","keys":[2825],"total_keys":1,"block":2,"trial":159,"robot":1,"valence":"win","action":"go","sham":1,"trial_type":"pit-trial","trial_index":173,"time_elapsed":837018,"internal_node_id":"0.0-162.0","task_version":"battery-v0.1"},{"rune":"M","hex":"#3366ff99","correct":-1,"choice":-1,"rt":-1,"accuracy":1,"outcome":"+10","keys":[2873],"total_keys":1,"block":2,"trial":160,"robot":2,"valence":"win","action":"no-go","sham":0,"trial_type":"pit-trial","trial_index":174,"time_elapsed":841021,"internal_node_id":"0.0-163.0","task_version":"battery-v0.1"},{"rune":"V","hex":"#3366ff99","correct":32,"choice":32,"rt":1248,"accuracy":1,"outcome":"+10","keys":[2759],"total_keys":1,"block":2,"trial":161,"robot":1,"valence":"win","action":"go","sham":0,"trial_type":"pit-trial","trial_index":175,"time_elapsed":844992,"internal_node_id":"0.0-164.0","task_version":"battery-v0.1"},{"rune":"R","hex":"#f73b6a7A","correct":32,"choice":32,"rt":1053,"accuracy":1,"outcome":"-1","keys":[2557],"total_keys":1,"block":2,"trial":162,"robot":3,"valence":"lose","action":"go","sham":0,"trial_type":"pit-trial","trial_index":176,"time_elapsed":848757,"internal_node_id":"0.0-165.0","task_version":"battery-v0.1"},{"rune":"M","hex":"#3366ff99","correct":-1,"choice":32,"rt":1143,"accuracy":0,"outcome":"+1","keys":[2655],"total_keys":1,"block":2,"trial":163,"robot":2,"valence":"win","action":"no-go","sham":0,"trial_type":"pit-trial","trial_index":177,"time_elapsed":852616,"internal_node_id":"0.0-166.0","task_version":"battery-v0.1"},{"rune":"X","hex":"#f73b6a7A","correct":-1,"choice":32,"rt":860,"accuracy":0,"outcome":"-10","keys":[2371],"total_keys":1,"block":2,"trial":164,"robot":4,"valence":"lose","action":"no-go","sham":0,"trial_type":"pit-trial","trial_index":178,"time_elapsed":856194,"internal_node_id":"0.0-167.0","task_version":"battery-v0.1"},{"rune":"X","hex":"#f73b6a7A","correct":-1,"choice":-1,"rt":-1,"accuracy":1,"outcome":"-1","keys":[],"total_keys":0,"block":2,"trial":165,"robot":4,"valence":"lose","action":"no-go","sham":0,"trial_type":"pit-trial","trial_index":179,"time_elapsed":860210,"internal_node_id":"0.0-168.0","task_version":"battery-v0.1"},{"rune":"M","hex":"#3366ff99","correct":-1,"choice":32,"rt":1141,"accuracy":0,"outcome":"+10","keys":[2652],"total_keys":1,"block":2,"trial":166,"robot":2,"valence":"win","action":"no-go","sham":1,"trial_type":"pit-trial","trial_index":180,"time_elapsed":864071,"internal_node_id":"0.0-169.0","task_version":"battery-v0.1"},{"rune":"V","hex":"#3366ff99","correct":32,"choice":-1,"rt":-1,"accuracy":0,"outcome":"+10","keys":[2877],"total_keys":1,"block":2,"trial":167,"robot":1,"valence":"win","action":"go","sham":1,"trial_type":"pit-trial","trial_index":181,"time_elapsed":868094,"internal_node_id":"0.0-170.0","task_version":"battery-v0.1"},{"rune":"R","hex":"#f73b6a7A","correct":32,"choice":32,"rt":1252,"accuracy":1,"outcome":"-10","keys":[2760],"total_keys":1,"block":2,"trial":168,"robot":3,"valence":"lose","action":"go","sham":1,"trial_type":"pit-trial","trial_index":182,"time_elapsed":872058,"internal_node_id":"0.0-171.0","task_version":"battery-v0.1"},{"rune":"V","hex":"#3366ff99","correct":32,"choice":32,"rt":1041,"accuracy":1,"outcome":"+1","keys":[2547],"total_keys":1,"block":2,"trial":169,"robot":1,"valence":"win","action":"go","sham":1,"trial_type":"pit-trial","trial_index":183,"time_elapsed":875817,"internal_node_id":"0.0-172.0","task_version":"battery-v0.1"},{"rune":"R","hex":"#f73b6a7A","correct":32,"choice":-1,"rt":-1,"accuracy":0,"outcome":"-10","keys":[2876],"total_keys":1,"block":2,"trial":170,"robot":3,"valence":"lose","action":"go","sham":0,"trial_type":"pit-trial","trial_index":184,"time_elapsed":879827,"internal_node_id":"0.0-173.0","task_version":"battery-v0.1"},{"rune":"X","hex":"#f73b6a7A","correct":-1,"choice":-1,"rt":-1,"accuracy":1,"outcome":"-1","keys":[],"total_keys":0,"block":2,"trial":171,"robot":4,"valence":"lose","action":"no-go","sham":0,"trial_type":"pit-trial","trial_index":185,"time_elapsed":883846,"internal_node_id":"0.0-174.0","task_version":"battery-v0.1"},{"rune":"F","hex":"#3366ff99","correct":-1,"choice":32,"rt":657,"accuracy":0,"outcome":"+10","keys":[2168],"total_keys":1,"block":2,"trial":172,"robot":2,"valence":"win","action":"no-go","sham":1,"trial_type":"pit-trial","trial_index":186,"time_elapsed":887221,"internal_node_id":"0.0-175.0","task_version":"battery-v0.1"},{"rune":"R","hex":"#f73b6a7A","correct":32,"choice":-1,"rt":-1,"accuracy":0,"outcome":"-10","keys":[],"total_keys":0,"block":2,"trial":173,"robot":3,"valence":"lose","action":"go","sham":0,"trial_type":"pit-trial","trial_index":187,"time_elapsed":891238,"internal_node_id":"0.0-176.0","task_version":"battery-v0.1"},{"rune":"X","hex":"#f73b6a7A","correct":-1,"choice":32,"rt":1056,"accuracy":0,"outcome":"-10","keys":[2568],"total_keys":1,"block":2,"trial":174,"robot":4,"valence":"lose","action":"no-go","sham":0,"trial_type":"pit-trial","trial_index":188,"time_elapsed":895011,"internal_node_id":"0.0-177.0","task_version":"battery-v0.1"},{"rune":"V","hex":"#3366ff99","correct":32,"choice":-1,"rt":-1,"accuracy":0,"outcome":"+1","keys":[2818],"total_keys":1,"block":2,"trial":175,"robot":1,"valence":"win","action":"go","sham":0,"trial_type":"pit-trial","trial_index":189,"time_elapsed":899017,"internal_node_id":"0.0-178.0","task_version":"battery-v0.1"},{"rune":"F","hex":"#3366ff99","correct":-1,"choice":32,"rt":1264,"accuracy":0,"outcome":"+1","keys":[2765],"total_keys":1,"block":2,"trial":176,"robot":2,"valence":"win","action":"no-go","sham":0,"trial_type":"pit-trial","trial_index":190,"time_elapsed":902990,"internal_node_id":"0.0-179.0","task_version":"battery-v0.1"},{"rune":"F","hex":"#3366ff99","correct":-1,"choice":-1,"rt":-1,"accuracy":1,"outcome":"+10","keys":[],"total_keys":0,"block":2,"trial":177,"robot":2,"valence":"win","action":"no-go","sham":0,"trial_type":"pit-trial","trial_index":191,"time_elapsed":906999,"internal_node_id":"0.0-180.0","task_version":"battery-v0.1"},{"rune":"V","hex":"#3366ff99","correct":32,"choice":32,"rt":908,"accuracy":1,"outcome":"+10","keys":[2416],"total_keys":1,"block":2,"trial":178,"robot":1,"valence":"win","action":"go","sham":0,"trial_type":"pit-trial","trial_index":192,"time_elapsed":910631,"internal_node_id":"0.0-181.0","task_version":"battery-v0.1"},{"rune":"R","hex":"#f73b6a7A","correct":32,"choice":32,"rt":470,"accuracy":1,"outcome":"-10","keys":[1983],"total_keys":1,"block":2,"trial":179,"robot":3,"valence":"lose","action":"go","sham":1,"trial_type":"pit-trial","trial_index":193,"time_elapsed":913816,"internal_node_id":"0.0-182.0","task_version":"battery-v0.1"},{"rune":"X","hex":"#f73b6a7A","correct":-1,"choice":32,"rt":712,"accuracy":0,"outcome":"-10","keys":[2221],"total_keys":1,"block":2,"trial":180,"robot":4,"valence":"lose","action":"no-go","sham":0,"trial_type":"pit-trial","trial_index":194,"time_elapsed":917243,"internal_node_id":"0.0-183.0","task_version":"battery-v0.1"},{"rune":"R","hex":"#f73b6a7A","correct":32,"choice":-1,"rt":-1,"accuracy":0,"outcome":"-10","keys":[3460],"total_keys":1,"block":2,"trial":181,"robot":3,"valence":"lose","action":"go","sham":0,"trial_type":"pit-trial","trial_index":195,"time_elapsed":921273,"internal_node_id":"0.0-184.0","task_version":"battery-v0.1"},{"rune":"X","hex":"#f73b6a7A","correct":-1,"choice":-1,"rt":-1,"accuracy":1,"outcome":"-10","keys":[],"total_keys":0,"block":2,"trial":182,"robot":4,"valence":"lose","action":"no-go","sham":1,"trial_type":"pit-trial","trial_index":196,"time_elapsed":925293,"internal_node_id":"0.0-185.0","task_version":"battery-v0.1"},{"rune":"F","hex":"#3366ff99","correct":-1,"choice":32,"rt":1134,"accuracy":0,"outcome":"+1","keys":[2649],"total_keys":1,"block":2,"trial":183,"robot":2,"valence":"win","action":"no-go","sham":0,"trial_type":"pit-trial","trial_index":197,"time_elapsed":929149,"internal_node_id":"0.0-186.0","task_version":"battery-v0.1"},{"rune":"V","hex":"#3366ff99","correct":32,"choice":32,"rt":894,"accuracy":1,"outcome":"+10","keys":[2403],"total_keys":1,"block":2,"trial":184,"robot":1,"valence":"win","action":"go","sham":0,"trial_type":"pit-trial","trial_index":198,"time_elapsed":932762,"internal_node_id":"0.0-187.0","task_version":"battery-v0.1"},{"rune":"R","hex":"#f73b6a7A","correct":32,"choice":32,"rt":1191,"accuracy":1,"outcome":"-1","keys":[2701],"total_keys":1,"block":2,"trial":185,"robot":3,"valence":"lose","action":"go","sham":0,"trial_type":"pit-trial","trial_index":199,"time_elapsed":936680,"internal_node_id":"0.0-188.0","task_version":"battery-v0.1"},{"rune":"F","hex":"#3366ff99","correct":-1,"choice":32,"rt":995,"accuracy":0,"outcome":"+1","keys":[2496],"total_keys":1,"block":2,"trial":186,"robot":2,"valence":"win","action":"no-go","sham":0,"trial_type":"pit-trial","trial_index":200,"time_elapsed":940386,"internal_node_id":"0.0-189.0","task_version":"battery-v0.1"},{"rune":"V","hex":"#3366ff99","correct":32,"choice":32,"rt":1284,"accuracy":1,"outcome":"+10","keys":[2791],"total_keys":1,"block":2,"trial":187,"robot":1,"valence":"win","action":"go","sham":0,"trial_type":"pit-trial","trial_index":201,"time_elapsed":944389,"internal_node_id":"0.0-190.0","task_version":"battery-v0.1"},{"rune":"X","hex":"#f73b6a7A","correct":-1,"choice":32,"rt":1051,"accuracy":0,"outcome":"-10","keys":[2564],"total_keys":1,"block":2,"trial":188,"robot":4,"valence":"lose","action":"no-go","sham":0,"trial_type":"pit-trial","trial_index":202,"time_elapsed":948166,"internal_node_id":"0.0-191.0","task_version":"battery-v0.1"},{"rune":"R","hex":"#f73b6a7A","correct":32,"choice":32,"rt":902,"accuracy":1,"outcome":"-1","keys":[2410],"total_keys":1,"block":2,"trial":189,"robot":3,"valence":"lose","action":"go","sham":0,"trial_type":"pit-trial","trial_index":203,"time_elapsed":951780,"internal_node_id":"0.0-192.0","task_version":"battery-v0.1"},{"rune":"F","hex":"#3366ff99","correct":-1,"choice":-1,"rt":-1,"accuracy":1,"outcome":"+10","keys":[],"total_keys":0,"block":2,"trial":190,"robot":2,"valence":"win","action":"no-go","sham":0,"trial_type":"pit-trial","trial_index":204,"time_elapsed":955787,"internal_node_id":"0.0-193.0","task_version":"battery-v0.1"},{"rune":"V","hex":"#3366ff99","correct":32,"choice":32,"rt":1016,"accuracy":1,"outcome":"+10","keys":[2525],"total_keys":1,"block":2,"trial":191,"robot":1,"valence":"win","action":"go","sham":0,"trial_type":"pit-trial","trial_index":205,"time_elapsed":959515,"internal_node_id":"0.0-194.0","task_version":"battery-v0.1"},{"rune":"X","hex":"#f73b6a7A","correct":-1,"choice":-1,"rt":-1,"accuracy":1,"outcome":"-1","keys":[],"total_keys":0,"block":2,"trial":192,"robot":4,"valence":"lose","action":"no-go","sham":0,"trial_type":"pit-trial","trial_index":206,"time_elapsed":963533,"internal_node_id":"0.0-195.0","task_version":"battery-v0.1"},{"rune":"V","hex":"#3366ff99","correct":32,"choice":32,"rt":997,"accuracy":1,"outcome":"+10","keys":[2500],"total_keys":1,"block":2,"trial":193,"robot":1,"valence":"win","action":"go","sham":0,"trial_type":"pit-trial","trial_index":207,"time_elapsed":967236,"internal_node_id":"0.0-196.0","task_version":"battery-v0.1"},{"rune":"T","hex":"#f73b6a7A","correct":32,"choice":32,"rt":955,"accuracy":1,"outcome":"-1","keys":[2460],"total_keys":1,"block":2,"trial":194,"robot":3,"valence":"lose","action":"go","sham":0,"trial_type":"pit-trial","trial_index":208,"time_elapsed":970908,"internal_node_id":"0.0-197.0","task_version":"battery-v0.1"},{"rune":"F","hex":"#3366ff99","correct":-1,"choice":-1,"rt":-1,"accuracy":1,"outcome":"+10","keys":[],"total_keys":0,"block":2,"trial":195,"robot":2,"valence":"win","action":"no-go","sham":0,"trial_type":"pit-trial","trial_index":209,"time_elapsed":974910,"internal_node_id":"0.0-198.0","task_version":"battery-v0.1"},{"rune":"X","hex":"#f73b6a7A","correct":-1,"choice":-1,"rt":-1,"accuracy":1,"outcome":"-1","keys":[],"total_keys":0,"block":2,"trial":196,"robot":4,"valence":"lose","action":"no-go","sham":0,"trial_type":"pit-trial","trial_index":210,"time_elapsed":978927,"internal_node_id":"0.0-199.0","task_version":"battery-v0.1"},{"rune":"F","hex":"#3366ff99","correct":-1,"choice":-1,"rt":-1,"accuracy":1,"outcome":"+1","keys":[],"total_keys":0,"block":2,"trial":197,"robot":2,"valence":"win","action":"no-go","sham":1,"trial_type":"pit-trial","trial_index":211,"time_elapsed":982953,"internal_node_id":"0.0-200.0","task_version":"battery-v0.1"},{"rune":"V","hex":"#3366ff99","correct":32,"choice":32,"rt":1090,"accuracy":1,"outcome":"+10","keys":[2599],"total_keys":1,"block":2,"trial":198,"robot":1,"valence":"win","action":"go","sham":0,"trial_type":"pit-trial","trial_index":212,"time_elapsed":986761,"internal_node_id":"0.0-201.0","task_version":"battery-v0.1"},{"rune":"T","hex":"#f73b6a7A","correct":32,"choice":32,"rt":977,"accuracy":1,"outcome":"-1","keys":[2489],"total_keys":1,"block":2,"trial":199,"robot":3,"valence":"lose","action":"go","sham":0,"trial_type":"pit-trial","trial_index":213,"time_elapsed":990459,"internal_node_id":"0.0-202.0","task_version":"battery-v0.1"},{"rune":"X","hex":"#f73b6a7A","correct":-1,"choice":-1,"rt":-1,"accuracy":1,"outcome":"-1","keys":[],"total_keys":0,"block":2,"trial":200,"robot":4,"valence":"lose","action":"no-go","sham":0,"trial_type":"pit-trial","trial_index":214,"time_elapsed":994475,"internal_node_id":"0.0-203.0","task_version":"battery-v0.1"},{"rune":"F","hex":"#3366ff99","correct":-1,"choice":-1,"rt":-1,"accuracy":1,"outcome":"+1","keys":[],"total_keys":0,"block":2,"trial":201,"robot":2,"valence":"win","action":"no-go","sham":1,"trial_type":"pit-trial","trial_index":215,"time_elapsed":998495,"internal_node_id":"0.0-204.0","task_version":"battery-v0.1"},{"rune":"H","hex":"#f73b6a7A","correct":32,"choice":32,"rt":869,"accuracy":1,"outcome":"-10","keys":[2380],"total_keys":1,"block":2,"trial":202,"robot":3,"valence":"lose","action":"go","sham":1,"trial_type":"pit-trial","trial_index":216,"time_elapsed":1002088,"internal_node_id":"0.0-205.0","task_version":"battery-v0.1"},{"rune":"T","hex":"#f73b6a7A","correct":32,"choice":32,"rt":1121,"accuracy":1,"outcome":"-1","keys":[2635],"total_keys":1,"block":2,"trial":203,"robot":3,"valence":"lose","action":"go","sham":0,"trial_type":"pit-trial","trial_index":217,"time_elapsed":1005934,"internal_node_id":"0.0-206.0","task_version":"battery-v0.1"},{"rune":"X","hex":"#f73b6a7A","correct":-1,"choice":-1,"rt":-1,"accuracy":1,"outcome":"-1","keys":[],"total_keys":0,"block":2,"trial":204,"robot":4,"valence":"lose","action":"no-go","sham":0,"trial_type":"pit-trial","trial_index":218,"time_elapsed":1009941,"internal_node_id":"0.0-207.0","task_version":"battery-v0.1"},{"rune":"T","hex":"#f73b6a7A","correct":32,"choice":-1,"rt":-1,"accuracy":0,"outcome":"-10","keys":[2894],"total_keys":1,"block":2,"trial":205,"robot":3,"valence":"lose","action":"go","sham":0,"trial_type":"pit-trial","trial_index":219,"time_elapsed":1013954,"internal_node_id":"0.0-208.0","task_version":"battery-v0.1"},{"rune":"H","hex":"#f73b6a7A","correct":32,"choice":32,"rt":920,"accuracy":1,"outcome":"-1","keys":[2433],"total_keys":1,"block":2,"trial":206,"robot":3,"valence":"lose","action":"go","sham":0,"trial_type":"pit-trial","trial_index":220,"time_elapsed":1017602,"internal_node_id":"0.0-209.0","task_version":"battery-v0.1"},{"rune":"F","hex":"#3366ff99","correct":-1,"choice":-1,"rt":-1,"accuracy":1,"outcome":"+10","keys":[],"total_keys":0,"block":2,"trial":207,"robot":2,"valence":"win","action":"no-go","sham":0,"trial_type":"pit-trial","trial_index":221,"time_elapsed":1021626,"internal_node_id":"0.0-210.0","task_version":"battery-v0.1"},{"rune":"X","hex":"#f73b6a7A","correct":-1,"choice":32,"rt":976,"accuracy":0,"outcome":"-1","keys":[2482],"total_keys":1,"block":2,"trial":208,"robot":4,"valence":"lose","action":"no-go","sham":1,"trial_type":"pit-trial","trial_index":222,"time_elapsed":1025320,"internal_node_id":"0.0-211.0","task_version":"battery-v0.1"},{"rune":"G","hex":"#f73b6a7A","correct":-1,"choice":32,"rt":827,"accuracy":0,"outcome":"-10","keys":[2339],"total_keys":1,"block":2,"trial":209,"robot":4,"valence":"lose","action":"no-go","sham":0,"trial_type":"pit-trial","trial_index":223,"time_elapsed":1028872,"internal_node_id":"0.0-212.0","task_version":"battery-v0.1"},{"rune":"N","hex":"#3366ff99","correct":-1,"choice":32,"rt":1069,"accuracy":0,"outcome":"+1","keys":[2580],"total_keys":1,"block":2,"trial":210,"robot":2,"valence":"win","action":"no-go","sham":0,"trial_type":"pit-trial","trial_index":224,"time_elapsed":1032654,"internal_node_id":"0.0-213.0","task_version":"battery-v0.1"},{"rune":"H","hex":"#f73b6a7A","correct":32,"choice":-1,"rt":-1,"accuracy":0,"outcome":"-1","keys":[],"total_keys":0,"block":2,"trial":211,"robot":3,"valence":"lose","action":"go","sham":1,"trial_type":"pit-trial","trial_index":225,"time_elapsed":1036676,"internal_node_id":"0.0-214.0","task_version":"battery-v0.1"},{"rune":"T","hex":"#f73b6a7A","correct":32,"choice":32,"rt":851,"accuracy":1,"outcome":"-1","keys":[2358],"total_keys":1,"block":2,"trial":212,"robot":3,"valence":"lose","action":"go","sham":0,"trial_type":"pit-trial","trial_index":226,"time_elapsed":1040250,"internal_node_id":"0.0-215.0","task_version":"battery-v0.1"},{"rune":"T","hex":"#f73b6a7A","correct":32,"choice":32,"rt":908,"accuracy":1,"outcome":"-1","keys":[2419],"total_keys":1,"block":2,"trial":213,"robot":3,"valence":"lose","action":"go","sham":0,"trial_type":"pit-trial","trial_index":227,"time_elapsed":1043883,"internal_node_id":"0.0-216.0","task_version":"battery-v0.1"},{"rune":"G","hex":"#f73b6a7A","correct":-1,"choice":-1,"rt":-1,"accuracy":1,"outcome":"-1","keys":[],"total_keys":0,"block":2,"trial":214,"robot":4,"valence":"lose","action":"no-go","sham":0,"trial_type":"pit-trial","trial_index":228,"time_elapsed":1047892,"internal_node_id":"0.0-217.0","task_version":"battery-v0.1"},{"rune":"N","hex":"#3366ff99","correct":-1,"choice":32,"rt":1062,"accuracy":0,"outcome":"+1","keys":[2577],"total_keys":1,"block":2,"trial":215,"robot":2,"valence":"win","action":"no-go","sham":0,"trial_type":"pit-trial","trial_index":229,"time_elapsed":1051681,"internal_node_id":"0.0-218.0","task_version":"battery-v0.1"},{"rune":"H","hex":"#f73b6a7A","correct":32,"choice":32,"rt":969,"accuracy":1,"outcome":"-1","keys":[2475],"total_keys":1,"block":2,"trial":216,"robot":3,"valence":"lose","action":"go","sham":0,"trial_type":"pit-trial","trial_index":230,"time_elapsed":1055362,"internal_node_id":"0.0-219.0","task_version":"battery-v0.1"},{"rune":"T","hex":"#f73b6a7A","correct":32,"choice":32,"rt":903,"accuracy":1,"outcome":"-1","keys":[2402],"total_keys":1,"block":2,"trial":217,"robot":3,"valence":"lose","action":"go","sham":0,"trial_type":"pit-trial","trial_index":231,"time_elapsed":1058967,"internal_node_id":"0.0-220.0","task_version":"battery-v0.1"},{"rune":"G","hex":"#f73b6a7A","correct":-1,"choice":-1,"rt":-1,"accuracy":1,"outcome":"-1","keys":[],"total_keys":0,"block":2,"trial":218,"robot":4,"valence":"lose","action":"no-go","sham":0,"trial_type":"pit-trial","trial_index":232,"time_elapsed":1062981,"internal_node_id":"0.0-221.0","task_version":"battery-v0.1"},{"rune":"N","hex":"#3366ff99","correct":-1,"choice":-1,"rt":-1,"accuracy":1,"outcome":"+10","keys":[],"total_keys":0,"block":2,"trial":219,"robot":2,"valence":"win","action":"no-go","sham":0,"trial_type":"pit-trial","trial_index":233,"time_elapsed":1066997,"internal_node_id":"0.0-222.0","task_version":"battery-v0.1"},{"rune":"H","hex":"#f73b6a7A","correct":32,"choice":32,"rt":1030,"accuracy":1,"outcome":"-1","keys":[2537],"total_keys":1,"block":2,"trial":220,"robot":3,"valence":"lose","action":"go","sham":0,"trial_type":"pit-trial","trial_index":234,"time_elapsed":1070746,"internal_node_id":"0.0-223.0","task_version":"battery-v0.1"},{"rune":"G","hex":"#f73b6a7A","correct":-1,"choice":-1,"rt":-1,"accuracy":1,"outcome":"-1","keys":[],"total_keys":0,"block":2,"trial":221,"robot":4,"valence":"lose","action":"no-go","sham":0,"trial_type":"pit-trial","trial_index":235,"time_elapsed":1074757,"internal_node_id":"0.0-224.0","task_version":"battery-v0.1"},{"rune":"H","hex":"#f73b6a7A","correct":32,"choice":32,"rt":937,"accuracy":1,"outcome":"-1","keys":[2448],"total_keys":1,"block":2,"trial":222,"robot":3,"valence":"lose","action":"go","sham":0,"trial_type":"pit-trial","trial_index":236,"time_elapsed":1078419,"internal_node_id":"0.0-225.0","task_version":"battery-v0.1"},{"rune":"N","hex":"#3366ff99","correct":-1,"choice":-1,"rt":-1,"accuracy":1,"outcome":"+10","keys":[],"total_keys":0,"block":2,"trial":223,"robot":2,"valence":"win","action":"no-go","sham":0,"trial_type":"pit-trial","trial_index":237,"time_elapsed":1082439,"internal_node_id":"0.0-226.0","task_version":"battery-v0.1"},{"rune":"T","hex":"#f73b6a7A","correct":32,"choice":32,"rt":649,"accuracy":1,"outcome":"-1","keys":[2158],"total_keys":1,"block":2,"trial":224,"robot":3,"valence":"lose","action":"go","sham":0,"trial_type":"pit-trial","trial_index":238,"time_elapsed":1085802,"internal_node_id":"0.0-227.0","task_version":"battery-v0.1"},{"rune":"N","hex":"#3366ff99","correct":-1,"choice":-1,"rt":-1,"accuracy":1,"outcome":"+10","keys":[],"total_keys":0,"block":2,"trial":225,"robot":2,"valence":"win","action":"no-go","sham":0,"trial_type":"pit-trial","trial_index":239,"time_elapsed":1089815,"internal_node_id":"0.0-228.0","task_version":"battery-v0.1"},{"rune":"H","hex":"#f73b6a7A","correct":32,"choice":32,"rt":891,"accuracy":1,"outcome":"-1","keys":[2400],"total_keys":1,"block":2,"trial":226,"robot":3,"valence":"lose","action":"go","sham":0,"trial_type":"pit-trial","trial_index":240,"time_elapsed":1093426,"internal_node_id":"0.0-229.0","task_version":"battery-v0.1"},{"rune":"G","hex":"#f73b6a7A","correct":-1,"choice":-1,"rt":-1,"accuracy":1,"outcome":"-1","keys":[],"total_keys":0,"block":2,"trial":227,"robot":4,"valence":"lose","action":"no-go","sham":0,"trial_type":"pit-trial","trial_index":241,"time_elapsed":1097434,"internal_node_id":"0.0-230.0","task_version":"battery-v0.1"},{"rune":"T","hex":"#f73b6a7A","correct":32,"choice":32,"rt":602,"accuracy":1,"outcome":"-10","keys":[2106],"total_keys":1,"block":2,"trial":228,"robot":3,"valence":"lose","action":"go","sham":1,"trial_type":"pit-trial","trial_index":242,"time_elapsed":1100757,"internal_node_id":"0.0-231.0","task_version":"battery-v0.1"},{"rune":"N","hex":"#3366ff99","correct":-1,"choice":-1,"rt":-1,"accuracy":1,"outcome":"+10","keys":[],"total_keys":0,"block":2,"trial":229,"robot":2,"valence":"win","action":"no-go","sham":0,"trial_type":"pit-trial","trial_index":243,"time_elapsed":1104781,"internal_node_id":"0.0-232.0","task_version":"battery-v0.1"},{"rune":"T","hex":"#f73b6a7A","correct":32,"choice":-1,"rt":-1,"accuracy":0,"outcome":"-10","keys":[],"total_keys":0,"block":2,"trial":230,"robot":3,"valence":"lose","action":"go","sham":0,"trial_type":"pit-trial","trial_index":244,"time_elapsed":1108793,"internal_node_id":"0.0-233.0","task_version":"battery-v0.1"},{"rune":"G","hex":"#f73b6a7A","correct":-1,"choice":-1,"rt":-1,"accuracy":1,"outcome":"-1","keys":[2870],"total_keys":1,"block":2,"trial":231,"robot":4,"valence":"lose","action":"no-go","sham":0,"trial_type":"pit-trial","trial_index":245,"time_elapsed":1112810,"internal_node_id":"0.0-234.0","task_version":"battery-v0.1"},{"rune":"H","hex":"#f73b6a7A","correct":32,"choice":-1,"rt":-1,"accuracy":0,"outcome":"-10","keys":[],"total_keys":0,"block":2,"trial":232,"robot":3,"valence":"lose","action":"go","sham":0,"trial_type":"pit-trial","trial_index":246,"time_elapsed":1116834,"internal_node_id":"0.0-235.0","task_version":"battery-v0.1"},{"rune":"H","hex":"#f73b6a7A","correct":32,"choice":32,"rt":521,"accuracy":1,"outcome":"-1","keys":[2028],"total_keys":1,"block":2,"trial":233,"robot":3,"valence":"lose","action":"go","sham":0,"trial_type":"pit-trial","trial_index":247,"time_elapsed":1120069,"internal_node_id":"0.0-236.0","task_version":"battery-v0.1"},{"rune":"N","hex":"#3366ff99","correct":-1,"choice":-1,"rt":-1,"accuracy":1,"outcome":"+1","keys":[],"total_keys":0,"block":2,"trial":234,"robot":2,"valence":"win","action":"no-go","sham":1,"trial_type":"pit-trial","trial_index":248,"time_elapsed":1124082,"internal_node_id":"0.0-237.0","task_version":"battery-v0.1"},{"rune":"T","hex":"#f73b6a7A","correct":32,"choice":-1,"rt":-1,"accuracy":0,"outcome":"-10","keys":[],"total_keys":0,"block":2,"trial":235,"robot":3,"valence":"lose","action":"go","sham":0,"trial_type":"pit-trial","trial_index":249,"time_elapsed":1128088,"internal_node_id":"0.0-238.0","task_version":"battery-v0.1"},{"rune":"G","hex":"#f73b6a7A","correct":-1,"choice":32,"rt":1041,"accuracy":0,"outcome":"-1","keys":[2544],"total_keys":1,"block":2,"trial":236,"robot":4,"valence":"lose","action":"no-go","sham":1,"trial_type":"pit-trial","trial_index":250,"time_elapsed":1131834,"internal_node_id":"0.0-239.0","task_version":"battery-v0.1"},{"rune":"G","hex":"#f73b6a7A","correct":-1,"choice":32,"rt":452,"accuracy":0,"outcome":"-10","keys":[1965],"total_keys":1,"block":2,"trial":237,"robot":4,"valence":"lose","action":"no-go","sham":0,"trial_type":"pit-trial","trial_index":251,"time_elapsed":1135014,"internal_node_id":"0.0-240.0","task_version":"battery-v0.1"},{"rune":"H","hex":"#f73b6a7A","correct":32,"choice":-1,"rt":-1,"accuracy":0,"outcome":"-10","keys":[2899],"total_keys":1,"block":2,"trial":238,"robot":3,"valence":"lose","action":"go","sham":0,"trial_type":"pit-trial","trial_index":252,"time_elapsed":1139023,"internal_node_id":"0.0-241.0","task_version":"battery-v0.1"},{"rune":"N","hex":"#3366ff99","correct":-1,"choice":-1,"rt":-1,"accuracy":1,"outcome":"+10","keys":[],"total_keys":0,"block":2,"trial":239,"robot":2,"valence":"win","action":"no-go","sham":0,"trial_type":"pit-trial","trial_index":253,"time_elapsed":1143034,"internal_node_id":"0.0-242.0","task_version":"battery-v0.1"},{"rune":"T","hex":"#f73b6a7A","correct":32,"choice":32,"rt":783,"accuracy":1,"outcome":"-10","keys":[2294],"total_keys":1,"block":2,"trial":240,"robot":3,"valence":"lose","action":"go","sham":1,"trial_type":"pit-trial","trial_index":254,"time_elapsed":1146544,"internal_node_id":"0.0-243.0","task_version":"battery-v0.1"},{"view_history":"[{\"page_index\":0,\"viewing_time\":3139}]","rt":3140,"trial_type":"pit-instructions","trial_index":255,"time_elapsed":1149684,"internal_node_id":"0.0-244.0","task_version":"battery-v0.1"},{"rt":14636,"responses":{"age":"32","gender-categorical":"Male","gender-free-response":"","ethnicity":"Not Hispanic or Latino","race":["White"],"language":"Yes","fluency":"Very well"},"survey":"demographics","trial_type":"survey-demo","trial_index":256,"time_elapsed":1164326,"internal_node_id":"0.0-245.0","task_version":"battery-v0.1"},{"rt":100747,"responses":{"difficulty":"3","fun":"4","clarity":"5","strategy":"Tried to keep track of which did and didn't need repairs on a notepad.","feedback":""},"survey":"debrief","trial_type":"survey-debrief","trial_index":257,"time_elapsed":1265075,"internal_node_id":"0.0-246.0","task_version":"battery-v0.1","interactions":"[{\"event\":\"focus\",\"trial\":0,\"time\":4}]"}]