[{"view_history":"[{\"page_index\":0,\"viewing_time\":4712.22999994643},{\"page_index\":1,\"viewing_time\":4294.435000047088},{\"page_index\":2,\"viewing_time\":2982.229999965057},{\"page_index\":3,\"viewing_time\":7093.449999985751},{\"page_index\":4,\"viewing_time\":8216.490000020713},{\"page_index\":5,\"viewing_time\":5864.390000002459}]","rt":33164.53999996884,"trial_type":"pit-instructions","trial_index":0,"time_elapsed":33178,"internal_node_id":"0.0-0.0-0.0","task_version":"battery-v0.1"},{"rune":"","hex":"#FFFFF080","correct":32,"choice":-1,"rt":-1,"accuracy":0,"outcome":"+0","keys":[],"total_keys":0,"block":0,"trial_type":"pit-trial","trial_index":1,"time_elapsed":37183,"internal_node_id":"0.0-0.0-1.0-0.0","task_version":"battery-v0.1"},{"rune":"","hex":"#FFFFF080","correct":32,"choice":-1,"rt":-1,"accuracy":0,"outcome":"+0","keys":[109.82999997213483,3387.784999969881],"total_keys":2,"block":0,"trial_type":"pit-trial","trial_index":2,"time_elapsed":41188,"internal_node_id":"0.0-0.0-1.0-0.1","task_version":"battery-v0.1"},{"rune":"","hex":"#FFFFF080","correct":32,"choice":-1,"rt":-1,"accuracy":0,"outcome":"+0","keys":[3360.0899999728426],"total_keys":1,"block":0,"trial_type":"pit-trial","trial_index":3,"time_elapsed":45192,"internal_node_id":"0.0-0.0-1.0-0.2","task_version":"battery-v0.1"},{"rune":"","hex":"#FFFFF080","correct":32,"choice":-1,"rt":-1,"accuracy":0,"outcome":"+0","keys":[3372.7899999939837],"total_keys":1,"block":0,"trial_type":"pit-trial","trial_index":4,"time_elapsed":49197,"internal_node_id":"0.0-0.0-1.0-0.3","task_version":"battery-v0.1"},{"view_history":"[{\"page_index\":0,\"viewing_time\":4614.049999974668}]","rt":4615.285000007134,"trial_type":"pit-instructions","trial_index":5,"time_elapsed":53815,"internal_node_id":"0.0-0.0-2.0","task_version":"battery-v0.1"},{"rune":"","hex":"#FFFFF080","correct":-1,"choice":-1,"rt":-1,"accuracy":1,"outcome":"+10","keys":[],"total_keys":0,"block":0,"trial_type":"pit-trial","trial_index":6,"time_elapsed":57825,"internal_node_id":"0.0-0.0-3.0-0.0","task_version":"battery-v0.1"},{"rune":"","hex":"#FFFFF080","correct":-1,"choice":-1,"rt":-1,"accuracy":1,"outcome":"+10","keys":[],"total_keys":0,"block":0,"trial_type":"pit-trial","trial_index":7,"time_elapsed":61832,"internal_node_id":"0.0-0.0-3.0-0.1","task_version":"battery-v0.1"},{"rune":"","hex":"#FFFFF080","correct":-1,"choice":-1,"rt":-1,"accuracy":1,"outcome":"+10","keys":[],"total_keys":0,"block":0,"trial_type":"pit-trial","trial_index":8,"time_elapsed":65841,"internal_node_id":"0.0-0.0-3.0-0.2","task_version":"battery-v0.1"},{"rune":"","hex":"#FFFFF080","correct":-1,"choice":-1,"rt":-1,"accuracy":1,"outcome":"+10","keys":[],"total_keys":0,"block":0,"trial_type":"pit-trial","trial_index":9,"time_elapsed":69844,"internal_node_id":"0.0-0.0-3.0-0.3","task_version":"battery-v0.1"},{"responses":["Press SPACE","Do nothing"],"num_errors":0,"rt":9575.630000035744,"trial_type":"pit-comprehension","trial_index":10,"time_elapsed":79423,"internal_node_id":"0.0-0.0-4.0","task_version":"battery-v0.1"},{"view_history":"[{\"page_index\":0,\"viewing_time\":10978.665000002366},{\"page_index\":1,\"viewing_time\":3685.910000000149},{\"page_index\":2,\"viewing_time\":8078.4700000076555},{\"page_index\":3,\"viewing_time\":5360.27499998454},{\"page_index\":4,\"viewing_time\":3416.8599999975413},{\"page_index\":5,\"viewing_time\":11978.69499999797},{\"page_index\":6,\"viewing_time\":9984.319999988656},{\"page_index\":7,\"viewing_time\":4303.409999993164},{\"page_index\":8,\"viewing_time\":3782.130000006873},{\"page_index\":9,\"viewing_time\":2392.210000019986},{\"page_index\":10,\"viewing_time\":2551.919999998063}]","rt":66513.42999999179,"trial_type":"pit-instructions","trial_index":11,"time_elapsed":145944,"internal_node_id":"0.0-1.0-0.0","task_version":"battery-v0.1"},{"responses":["+10","-1","True","True"],"num_errors":0,"rt":13300.274999986868,"trial_type":"pit-comprehension","trial_index":12,"time_elapsed":159251,"internal_node_id":"0.0-1.0-1.0","task_version":"battery-v0.1"},{"view_history":"[{\"page_index\":0,\"viewing_time\":2353.7999999825843},{\"page_index\":1,\"viewing_time\":4109.8800000036135}]","rt":6465.190000017174,"trial_type":"pit-instructions","trial_index":13,"time_elapsed":165733,"internal_node_id":"0.0-2.0","task_version":"battery-v0.1"},{"rune":"R","hex":"#f73b6a7A","correct":-1,"choice":32,"rt":836.3249999820255,"accuracy":0,"outcome":"-10","keys":[2336.684999987483],"total_keys":1,"block":1,"trial":1,"robot":4,"valence":"lose","action":"no-go","sham":0,"trial_type":"pit-trial","trial_index":14,"time_elapsed":169280,"internal_node_id":"0.0-3.0","task_version":"battery-v0.1"},{"rune":"L","hex":"#3366ff99","correct":-1,"choice":32,"rt":858.7350000161678,"accuracy":0,"outcome":"+10","keys":[2359.500000020489],"total_keys":1,"block":1,"trial":2,"robot":2,"valence":"win","action":"no-go","sham":1,"trial_type":"pit-trial","trial_index":15,"time_elapsed":172844,"internal_node_id":"0.0-4.0","task_version":"battery-v0.1"},{"rune":"V","hex":"#3366ff99","correct":32,"choice":32,"rt":986.254999996163,"accuracy":1,"outcome":"+10","keys":[2486.7300000041723],"total_keys":1,"block":1,"trial":3,"robot":1,"valence":"win","action":"go","sham":0,"trial_type":"pit-trial","trial_index":16,"time_elapsed":176536,"internal_node_id":"0.0-5.0","task_version":"battery-v0.1"},{"rune":"J","hex":"#3366ff99","correct":32,"choice":32,"rt":921.7199999839067,"accuracy":1,"outcome":"+10","keys":[2421.9199999934062],"total_keys":1,"block":1,"trial":4,"robot":1,"valence":"win","action":"go","sham":0,"trial_type":"pit-trial","trial_index":17,"time_elapsed":180160,"internal_node_id":"0.0-6.0","task_version":"battery-v0.1"},{"rune":"V","hex":"#3366ff99","correct":32,"choice":32,"rt":995.374999998603,"accuracy":1,"outcome":"+10","keys":[2495.7600000198],"total_keys":1,"block":1,"trial":5,"robot":1,"valence":"win","action":"go","sham":0,"trial_type":"pit-trial","trial_index":18,"time_elapsed":183859,"internal_node_id":"0.0-7.0","task_version":"battery-v0.1"},{"rune":"R","hex":"#f73b6a7A","correct":-1,"choice":-1,"rt":-1,"accuracy":1,"outcome":"-1","keys":[],"total_keys":0,"block":1,"trial":6,"robot":4,"valence":"lose","action":"no-go","sham":0,"trial_type":"pit-trial","trial_index":19,"time_elapsed":187862,"internal_node_id":"0.0-8.0","task_version":"battery-v0.1"},{"rune":"J","hex":"#3366ff99","correct":32,"choice":32,"rt":771.0950000328012,"accuracy":1,"outcome":"+10","keys":[2272.0899999840185],"total_keys":1,"block":1,"trial":7,"robot":1,"valence":"win","action":"go","sham":0,"trial_type":"pit-trial","trial_index":20,"time_elapsed":191338,"internal_node_id":"0.0-9.0","task_version":"battery-v0.1"},{"rune":"L","hex":"#3366ff99","correct":-1,"choice":32,"rt":792.1350000542589,"accuracy":0,"outcome":"+1","keys":[2292.7200000267476],"total_keys":1,"block":1,"trial":8,"robot":2,"valence":"win","action":"no-go","sham":0,"trial_type":"pit-trial","trial_index":21,"time_elapsed":194836,"internal_node_id":"0.0-10.0","task_version":"battery-v0.1"},{"rune":"L","hex":"#3366ff99","correct":-1,"choice":32,"rt":895.9100000211038,"accuracy":0,"outcome":"+1","keys":[2396.7549999943003],"total_keys":1,"block":1,"trial":9,"robot":2,"valence":"win","action":"no-go","sham":0,"trial_type":"pit-trial","trial_index":22,"time_elapsed":198436,"internal_node_id":"0.0-11.0","task_version":"battery-v0.1"},{"rune":"V","hex":"#3366ff99","correct":32,"choice":32,"rt":708.939999982249,"accuracy":1,"outcome":"+1","keys":[2209.575000044424],"total_keys":1,"block":1,"trial":10,"robot":1,"valence":"win","action":"go","sham":1,"trial_type":"pit-trial","trial_index":23,"time_elapsed":201849,"internal_node_id":"0.0-12.0","task_version":"battery-v0.1"},{"rune":"J","hex":"#3366ff99","correct":32,"choice":32,"rt":1109.664999996312,"accuracy":1,"outcome":"+10","keys":[2610.694999981206],"total_keys":1,"block":1,"trial":11,"robot":1,"valence":"win","action":"go","sham":0,"trial_type":"pit-trial","trial_index":24,"time_elapsed":205663,"internal_node_id":"0.0-13.0","task_version":"battery-v0.1"},{"rune":"R","hex":"#f73b6a7A","correct":-1,"choice":-1,"rt":-1,"accuracy":1,"outcome":"-10","keys":[2906.8700000061654],"total_keys":1,"block":1,"trial":12,"robot":4,"valence":"lose","action":"no-go","sham":1,"trial_type":"pit-trial","trial_index":25,"time_elapsed":209668,"internal_node_id":"0.0-14.0","task_version":"battery-v0.1"},{"rune":"J","hex":"#3366ff99","correct":32,"choice":32,"rt":705.3899999591522,"accuracy":1,"outcome":"+10","keys":[2205.6400000001304],"total_keys":1,"block":1,"trial":13,"robot":1,"valence":"win","action":"go","sham":0,"trial_type":"pit-trial","trial_index":26,"time_elapsed":213076,"internal_node_id":"0.0-15.0","task_version":"battery-v0.1"},{"rune":"R","hex":"#f73b6a7A","correct":-1,"choice":-1,"rt":-1,"accuracy":1,"outcome":"-1","keys":[],"total_keys":0,"block":1,"trial":14,"robot":4,"valence":"lose","action":"no-go","sham":0,"trial_type":"pit-trial","trial_index":27,"time_elapsed":217080,"internal_node_id":"0.0-16.0","task_version":"battery-v0.1"},{"rune":"V","hex":"#3366ff99","correct":32,"choice":32,"rt":493.49999998230487,"accuracy":1,"outcome":"+10","keys":[1994.5000000298023],"total_keys":1,"block":1,"trial":15,"robot":1,"valence":"win","action":"go","sham":0,"trial_type":"pit-trial","trial_index":28,"time_elapsed":220277,"internal_node_id":"0.0-17.0","task_version":"battery-v0.1"},{"rune":"L","hex":"#3366ff99","correct":-1,"choice":32,"rt":1049.0950000239536,"accuracy":0,"outcome":"+1","keys":[2549.2799999774434],"total_keys":1,"block":1,"trial":16,"robot":2,"valence":"win","action":"no-go","sham":0,"trial_type":"pit-trial","trial_index":29,"time_elapsed":224029,"internal_node_id":"0.0-18.0","task_version":"battery-v0.1"},{"rune":"R","hex":"#f73b6a7A","correct":-1,"choice":-1,"rt":-1,"accuracy":1,"outcome":"-1","keys":[],"total_keys":0,"block":1,"trial":17,"robot":4,"valence":"lose","action":"no-go","sham":0,"trial_type":"pit-trial","trial_index":30,"time_elapsed":228032,"internal_node_id":"0.0-19.0","task_version":"battery-v0.1"},{"rune":"V","hex":"#3366ff99","correct":32,"choice":32,"rt":774.4999999995343,"accuracy":1,"outcome":"+10","keys":[2274.604999984149],"total_keys":1,"block":1,"trial":18,"robot":1,"valence":"win","action":"go","sham":0,"trial_type":"pit-trial","trial_index":31,"time_elapsed":231510,"internal_node_id":"0.0-20.0","task_version":"battery-v0.1"},{"rune":"J","hex":"#3366ff99","correct":32,"choice":32,"rt":705.4149999748915,"accuracy":1,"outcome":"+10","keys":[2206.155000021681],"total_keys":1,"block":1,"trial":19,"robot":1,"valence":"win","action":"go","sham":0,"trial_type":"pit-trial","trial_index":32,"time_elapsed":234919,"internal_node_id":"0.0-21.0","task_version":"battery-v0.1"},{"rune":"L","hex":"#3366ff99","correct":-1,"choice":32,"rt":670.2199999708682,"accuracy":0,"outcome":"+1","keys":[2170.9050000063144],"total_keys":1,"block":1,"trial":20,"robot":2,"valence":"win","action":"no-go","sham":0,"trial_type":"pit-trial","trial_index":33,"time_elapsed":238293,"internal_node_id":"0.0-22.0","task_version":"battery-v0.1"},{"rune":"V","hex":"#3366ff99","correct":32,"choice":32,"rt":803.2250000396743,"accuracy":1,"outcome":"+10","keys":[2303.5950000048615],"total_keys":1,"block":1,"trial":21,"robot":1,"valence":"win","action":"go","sham":0,"trial_type":"pit-trial","trial_index":34,"time_elapsed":241801,"internal_node_id":"0.0-23.0","task_version":"battery-v0.1"},{"rune":"R","hex":"#f73b6a7A","correct":-1,"choice":-1,"rt":-1,"accuracy":1,"outcome":"-10","keys":[],"total_keys":0,"block":1,"trial":22,"robot":4,"valence":"lose","action":"no-go","sham":1,"trial_type":"pit-trial","trial_index":35,"time_elapsed":245805,"internal_node_id":"0.0-24.0","task_version":"battery-v0.1"},{"rune":"L","hex":"#3366ff99","correct":-1,"choice":32,"rt":576.7800000030547,"accuracy":0,"outcome":"+1","keys":[2077.7499999967404],"total_keys":1,"block":1,"trial":23,"robot":2,"valence":"win","action":"no-go","sham":0,"trial_type":"pit-trial","trial_index":36,"time_elapsed":249085,"internal_node_id":"0.0-25.0","task_version":"battery-v0.1"},{"rune":"J","hex":"#3366ff99","correct":32,"choice":32,"rt":644.594999961555,"accuracy":1,"outcome":"+10","keys":[2144.620000035502],"total_keys":1,"block":1,"trial":24,"robot":1,"valence":"win","action":"go","sham":0,"trial_type":"pit-trial","trial_index":37,"time_elapsed":252433,"internal_node_id":"0.0-26.0","task_version":"battery-v0.1"},{"rune":"L","hex":"#3366ff99","correct":-1,"choice":-1,"rt":-1,"accuracy":1,"outcome":"+1","keys":[],"total_keys":0,"block":1,"trial":25,"robot":2,"valence":"win","action":"no-go","sham":1,"trial_type":"pit-trial","trial_index":38,"time_elapsed":256442,"internal_node_id":"0.0-27.0","task_version":"battery-v0.1"},{"rune":"J","hex":"#3366ff99","correct":32,"choice":32,"rt":605.8699999703094,"accuracy":1,"outcome":"+1","keys":[2106.710000021849],"total_keys":1,"block":1,"trial":26,"robot":1,"valence":"win","action":"go","sham":1,"trial_type":"pit-trial","trial_index":39,"time_elapsed":259755,"internal_node_id":"0.0-28.0","task_version":"battery-v0.1"},{"rune":"V","hex":"#3366ff99","correct":32,"choice":32,"rt":603.0099999625236,"accuracy":1,"outcome":"+10","keys":[2103.6500000045635],"total_keys":1,"block":1,"trial":27,"robot":1,"valence":"win","action":"go","sham":0,"trial_type":"pit-trial","trial_index":40,"time_elapsed":263064,"internal_node_id":"0.0-29.0","task_version":"battery-v0.1"},{"rune":"R","hex":"#f73b6a7A","correct":-1,"choice":-1,"rt":-1,"accuracy":1,"outcome":"-1","keys":[],"total_keys":0,"block":1,"trial":28,"robot":4,"valence":"lose","action":"no-go","sham":0,"trial_type":"pit-trial","trial_index":41,"time_elapsed":267068,"internal_node_id":"0.0-30.0","task_version":"battery-v0.1"},{"rune":"L","hex":"#3366ff99","correct":-1,"choice":32,"rt":774.8150000115857,"accuracy":0,"outcome":"+1","keys":[2274.939999973867],"total_keys":1,"block":1,"trial":29,"robot":2,"valence":"win","action":"no-go","sham":0,"trial_type":"pit-trial","trial_index":42,"time_elapsed":270547,"internal_node_id":"0.0-31.0","task_version":"battery-v0.1"},{"rune":"V","hex":"#3366ff99","correct":32,"choice":32,"rt":542.6950000110082,"accuracy":1,"outcome":"+10","keys":[2042.7550000022165],"total_keys":1,"block":1,"trial":30,"robot":1,"valence":"win","action":"go","sham":0,"trial_type":"pit-trial","trial_index":43,"time_elapsed":273796,"internal_node_id":"0.0-32.0","task_version":"battery-v0.1"},{"rune":"R","hex":"#f73b6a7A","correct":-1,"choice":-1,"rt":-1,"accuracy":1,"outcome":"-1","keys":[],"total_keys":0,"block":1,"trial":31,"robot":4,"valence":"lose","action":"no-go","sham":0,"trial_type":"pit-trial","trial_index":44,"time_elapsed":277799,"internal_node_id":"0.0-33.0","task_version":"battery-v0.1"},{"rune":"J","hex":"#3366ff99","correct":32,"choice":32,"rt":617.3249999992549,"accuracy":1,"outcome":"+10","keys":[2117.904999991879],"total_keys":1,"block":1,"trial":32,"robot":1,"valence":"win","action":"go","sham":0,"trial_type":"pit-trial","trial_index":45,"time_elapsed":281123,"internal_node_id":"0.0-34.0","task_version":"battery-v0.1"},{"rune":"W","hex":"#3366ff99","correct":32,"choice":32,"rt":759.4299999764189,"accuracy":1,"outcome":"+10","keys":[2260.4799999971874],"total_keys":1,"block":1,"trial":33,"robot":1,"valence":"win","action":"go","sham":0,"trial_type":"pit-trial","trial_index":46,"time_elapsed":284587,"internal_node_id":"0.0-35.0","task_version":"battery-v0.1"},{"rune":"R","hex":"#f73b6a7A","correct":-1,"choice":-1,"rt":-1,"accuracy":1,"outcome":"-1","keys":[],"total_keys":0,"block":1,"trial":34,"robot":4,"valence":"lose","action":"no-go","sham":0,"trial_type":"pit-trial","trial_index":47,"time_elapsed":288593,"internal_node_id":"0.0-36.0","task_version":"battery-v0.1"},{"rune":"L","hex":"#3366ff99","correct":-1,"choice":-1,"rt":-1,"accuracy":1,"outcome":"+10","keys":[],"total_keys":0,"block":1,"trial":35,"robot":2,"valence":"win","action":"no-go","sham":0,"trial_type":"pit-trial","trial_index":48,"time_elapsed":292597,"internal_node_id":"0.0-37.0","task_version":"battery-v0.1"},{"rune":"V","hex":"#3366ff99","correct":32,"choice":32,"rt":685.5349999968894,"accuracy":1,"outcome":"+10","keys":[2186.23499997193],"total_keys":1,"block":1,"trial":36,"robot":1,"valence":"win","action":"go","sham":0,"trial_type":"pit-trial","trial_index":49,"time_elapsed":295987,"internal_node_id":"0.0-38.0","task_version":"battery-v0.1"},{"rune":"V","hex":"#3366ff99","correct":32,"choice":32,"rt":700.8650000207126,"accuracy":1,"outcome":"+1","keys":[2201.709999993909],"total_keys":1,"block":1,"trial":37,"robot":1,"valence":"win","action":"go","sham":1,"trial_type":"pit-trial","trial_index":50,"time_elapsed":299394,"internal_node_id":"0.0-39.0","task_version":"battery-v0.1"},{"rune":"L","hex":"#3366ff99","correct":-1,"choice":-1,"rt":-1,"accuracy":1,"outcome":"+10","keys":[],"total_keys":0,"block":1,"trial":38,"robot":2,"valence":"win","action":"no-go","sham":0,"trial_type":"pit-trial","trial_index":51,"time_elapsed":303398,"internal_node_id":"0.0-40.0","task_version":"battery-v0.1"},{"rune":"W","hex":"#3366ff99","correct":32,"choice":32,"rt":677.1150000276975,"accuracy":1,"outcome":"+1","keys":[2177.209999994375],"total_keys":1,"block":1,"trial":39,"robot":1,"valence":"win","action":"go","sham":1,"trial_type":"pit-trial","trial_index":52,"time_elapsed":306779,"internal_node_id":"0.0-41.0","task_version":"battery-v0.1"},{"rune":"R","hex":"#f73b6a7A","correct":-1,"choice":-1,"rt":-1,"accuracy":1,"outcome":"-1","keys":[],"total_keys":0,"block":1,"trial":40,"robot":4,"valence":"lose","action":"no-go","sham":0,"trial_type":"pit-trial","trial_index":53,"time_elapsed":310783,"internal_node_id":"0.0-42.0","task_version":"battery-v0.1"},{"rune":"S","hex":"#f73b6a7A","correct":32,"choice":-1,"rt":-1,"accuracy":0,"outcome":"-10","keys":[],"total_keys":0,"block":1,"trial":41,"robot":3,"valence":"lose","action":"go","sham":0,"trial_type":"pit-trial","trial_index":54,"time_elapsed":314788,"internal_node_id":"0.0-43.0","task_version":"battery-v0.1"},{"rune":"W","hex":"#3366ff99","correct":32,"choice":32,"rt":787.9500000271946,"accuracy":1,"outcome":"+10","keys":[2288.2150000077672],"total_keys":1,"block":1,"trial":42,"robot":1,"valence":"win","action":"go","sham":0,"trial_type":"pit-trial","trial_index":55,"time_elapsed":318280,"internal_node_id":"0.0-44.0","task_version":"battery-v0.1"},{"rune":"L","hex":"#3366ff99","correct":-1,"choice":-1,"rt":-1,"accuracy":1,"outcome":"+10","keys":[],"total_keys":0,"block":1,"trial":43,"robot":2,"valence":"win","action":"no-go","sham":0,"trial_type":"pit-trial","trial_index":56,"time_elapsed":322287,"internal_node_id":"0.0-45.0","task_version":"battery-v0.1"},{"rune":"B","hex":"#f73b6a7A","correct":-1,"choice":32,"rt":858.745000034105,"accuracy":0,"outcome":"-10","keys":[2359.534999995958],"total_keys":1,"block":1,"trial":44,"robot":4,"valence":"lose","action":"no-go","sham":0,"trial_type":"pit-trial","trial_index":57,"time_elapsed":325851,"internal_node_id":"0.0-46.0","task_version":"battery-v0.1"},{"rune":"S","hex":"#f73b6a7A","correct":32,"choice":32,"rt":801.0300000314601,"accuracy":1,"outcome":"-1","keys":[2302.055000036489],"total_keys":1,"block":1,"trial":45,"robot":3,"valence":"lose","action":"go","sham":0,"trial_type":"pit-trial","trial_index":58,"time_elapsed":329357,"internal_node_id":"0.0-47.0","task_version":"battery-v0.1"},{"rune":"L","hex":"#3366ff99","correct":-1,"choice":-1,"rt":-1,"accuracy":1,"outcome":"+10","keys":[],"total_keys":0,"block":1,"trial":46,"robot":2,"valence":"win","action":"no-go","sham":0,"trial_type":"pit-trial","trial_index":59,"time_elapsed":333363,"internal_node_id":"0.0-48.0","task_version":"battery-v0.1"},{"rune":"W","hex":"#3366ff99","correct":32,"choice":32,"rt":673.2949999859557,"accuracy":1,"outcome":"+10","keys":[2174.3249999708496],"total_keys":1,"block":1,"trial":47,"robot":1,"valence":"win","action":"go","sham":0,"trial_type":"pit-trial","trial_index":60,"time_elapsed":336741,"internal_node_id":"0.0-49.0","task_version":"battery-v0.1"},{"rune":"B","hex":"#f73b6a7A","correct":-1,"choice":32,"rt":1216.515000036452,"accuracy":0,"outcome":"-10","keys":[2717.324999975972],"total_keys":1,"block":1,"trial":48,"robot":4,"valence":"lose","action":"no-go","sham":0,"trial_type":"pit-trial","trial_index":61,"time_elapsed":340661,"internal_node_id":"0.0-50.0","task_version":"battery-v0.1"},{"rune":"S","hex":"#f73b6a7A","correct":32,"choice":32,"rt":769.1750000230968,"accuracy":1,"outcome":"-1","keys":[2269.2600000300445],"total_keys":1,"block":1,"trial":49,"robot":3,"valence":"lose","action":"go","sham":0,"trial_type":"pit-trial","trial_index":62,"time_elapsed":344132,"internal_node_id":"0.0-51.0","task_version":"battery-v0.1"},{"rune":"E","hex":"#3366ff99","correct":-1,"choice":32,"rt":770.795000018552,"accuracy":0,"outcome":"+1","keys":[2271.6449999716133],"total_keys":1,"block":1,"trial":50,"robot":2,"valence":"win","action":"no-go","sham":0,"trial_type":"pit-trial","trial_index":63,"time_elapsed":347608,"internal_node_id":"0.0-52.0","task_version":"battery-v0.1"},{"rune":"B","hex":"#f73b6a7A","correct":-1,"choice":-1,"rt":-1,"accuracy":1,"outcome":"-1","keys":[],"total_keys":0,"block":1,"trial":51,"robot":4,"valence":"lose","action":"no-go","sham":0,"trial_type":"pit-trial","trial_index":64,"time_elapsed":351615,"internal_node_id":"0.0-53.0","task_version":"battery-v0.1"},{"rune":"W","hex":"#3366ff99","correct":32,"choice":32,"rt":766.9999999925494,"accuracy":1,"outcome":"+10","keys":[2267.1899999841116],"total_keys":1,"block":1,"trial":52,"robot":1,"valence":"win","action":"go","sham":0,"trial_type":"pit-trial","trial_index":65,"time_elapsed":355085,"internal_node_id":"0.0-54.0","task_version":"battery-v0.1"},{"rune":"W","hex":"#3366ff99","correct":32,"choice":32,"rt":736.6250000195578,"accuracy":1,"outcome":"+10","keys":[2237.6649999641813],"total_keys":1,"block":1,"trial":53,"robot":1,"valence":"win","action":"go","sham":0,"trial_type":"pit-trial","trial_index":66,"time_elapsed":358526,"internal_node_id":"0.0-55.0","task_version":"battery-v0.1"},{"rune":"S","hex":"#f73b6a7A","correct":32,"choice":-1,"rt":-1,"accuracy":0,"outcome":"-10","keys":[],"total_keys":0,"block":1,"trial":54,"robot":3,"valence":"lose","action":"go","sham":0,"trial_type":"pit-trial","trial_index":67,"time_elapsed":362533,"internal_node_id":"0.0-56.0","task_version":"battery-v0.1"},{"rune":"B","hex":"#f73b6a7A","correct":-1,"choice":32,"rt":577.0499999634922,"accuracy":0,"outcome":"-10","keys":[2077.930000028573],"total_keys":1,"block":1,"trial":55,"robot":4,"valence":"lose","action":"no-go","sham":0,"trial_type":"pit-trial","trial_index":68,"time_elapsed":365818,"internal_node_id":"0.0-57.0","task_version":"battery-v0.1"},{"rune":"E","hex":"#3366ff99","correct":-1,"choice":32,"rt":730.5300000007264,"accuracy":0,"outcome":"+1","keys":[2230.9900000109337],"total_keys":1,"block":1,"trial":56,"robot":2,"valence":"win","action":"no-go","sham":0,"trial_type":"pit-trial","trial_index":69,"time_elapsed":369254,"internal_node_id":"0.0-58.0","task_version":"battery-v0.1"},{"rune":"W","hex":"#3366ff99","correct":32,"choice":32,"rt":833.5599999991246,"accuracy":1,"outcome":"+1","keys":[2334.52999999281],"total_keys":1,"block":1,"trial":57,"robot":1,"valence":"win","action":"go","sham":1,"trial_type":"pit-trial","trial_index":70,"time_elapsed":372792,"internal_node_id":"0.0-59.0","task_version":"battery-v0.1"},{"rune":"S","hex":"#f73b6a7A","correct":32,"choice":32,"rt":669.8949999990873,"accuracy":1,"outcome":"-1","keys":[2170.780000044033],"total_keys":1,"block":1,"trial":58,"robot":3,"valence":"lose","action":"go","sham":0,"trial_type":"pit-trial","trial_index":71,"time_elapsed":376168,"internal_node_id":"0.0-60.0","task_version":"battery-v0.1"},{"rune":"E","hex":"#3366ff99","correct":-1,"choice":32,"rt":671.5949999634176,"accuracy":0,"outcome":"+10","keys":[2172.32499999227],"total_keys":1,"block":1,"trial":59,"robot":2,"valence":"win","action":"no-go","sham":1,"trial_type":"pit-trial","trial_index":72,"time_elapsed":379544,"internal_node_id":"0.0-61.0","task_version":"battery-v0.1"},{"rune":"B","hex":"#f73b6a7A","correct":-1,"choice":-1,"rt":-1,"accuracy":1,"outcome":"-1","keys":[],"total_keys":0,"block":1,"trial":60,"robot":4,"valence":"lose","action":"no-go","sham":0,"trial_type":"pit-trial","trial_index":73,"time_elapsed":383547,"internal_node_id":"0.0-62.0","task_version":"battery-v0.1"},{"rune":"E","hex":"#3366ff99","correct":-1,"choice":32,"rt":611.8249999708496,"accuracy":0,"outcome":"+1","keys":[2112.4049999634735],"total_keys":1,"block":1,"trial":61,"robot":2,"valence":"win","action":"no-go","sham":0,"trial_type":"pit-trial","trial_index":74,"time_elapsed":386866,"internal_node_id":"0.0-63.0","task_version":"battery-v0.1"},{"rune":"W","hex":"#3366ff99","correct":32,"choice":32,"rt":673.6500000115484,"accuracy":1,"outcome":"+10","keys":[2174.064999970142],"total_keys":1,"block":1,"trial":62,"robot":1,"valence":"win","action":"go","sham":0,"trial_type":"pit-trial","trial_index":75,"time_elapsed":390244,"internal_node_id":"0.0-64.0","task_version":"battery-v0.1"},{"rune":"B","hex":"#f73b6a7A","correct":-1,"choice":32,"rt":858.1250000279397,"accuracy":0,"outcome":"-10","keys":[2358.905000030063],"total_keys":1,"block":1,"trial":63,"robot":4,"valence":"lose","action":"no-go","sham":0,"trial_type":"pit-trial","trial_index":76,"time_elapsed":393809,"internal_node_id":"0.0-65.0","task_version":"battery-v0.1"},{"rune":"S","hex":"#f73b6a7A","correct":32,"choice":32,"rt":579.8850000137463,"accuracy":1,"outcome":"-10","keys":[2079.9849999602884],"total_keys":1,"block":1,"trial":64,"robot":3,"valence":"lose","action":"go","sham":1,"trial_type":"pit-trial","trial_index":77,"time_elapsed":397092,"internal_node_id":"0.0-66.0","task_version":"battery-v0.1"},{"rune":"W","hex":"#3366ff99","correct":32,"choice":32,"rt":605.4349999758415,"accuracy":1,"outcome":"+10","keys":[2106.165000004694],"total_keys":1,"block":1,"trial":65,"robot":1,"valence":"win","action":"go","sham":0,"trial_type":"pit-trial","trial_index":78,"time_elapsed":400401,"internal_node_id":"0.0-67.0","task_version":"battery-v0.1"},{"rune":"B","hex":"#f73b6a7A","correct":-1,"choice":-1,"rt":-1,"accuracy":1,"outcome":"-1","keys":[],"total_keys":0,"block":1,"trial":66,"robot":4,"valence":"lose","action":"no-go","sham":0,"trial_type":"pit-trial","trial_index":79,"time_elapsed":404406,"internal_node_id":"0.0-68.0","task_version":"battery-v0.1"},{"rune":"S","hex":"#f73b6a7A","correct":32,"choice":-1,"rt":-1,"accuracy":0,"outcome":"-10","keys":[],"total_keys":0,"block":1,"trial":67,"robot":3,"valence":"lose","action":"go","sham":0,"trial_type":"pit-trial","trial_index":80,"time_elapsed":408413,"internal_node_id":"0.0-69.0","task_version":"battery-v0.1"},{"rune":"E","hex":"#3366ff99","correct":-1,"choice":32,"rt":781.1799999908544,"accuracy":0,"outcome":"+1","keys":[2281.8349999724887],"total_keys":1,"block":1,"trial":68,"robot":2,"valence":"win","action":"no-go","sham":0,"trial_type":"pit-trial","trial_index":81,"time_elapsed":411900,"internal_node_id":"0.0-70.0","task_version":"battery-v0.1"},{"rune":"B","hex":"#f73b6a7A","correct":-1,"choice":-1,"rt":-1,"accuracy":1,"outcome":"-1","keys":[],"total_keys":0,"block":1,"trial":69,"robot":4,"valence":"lose","action":"no-go","sham":0,"trial_type":"pit-trial","trial_index":82,"time_elapsed":415905,"internal_node_id":"0.0-71.0","task_version":"battery-v0.1"},{"rune":"S","hex":"#f73b6a7A","correct":32,"choice":32,"rt":513.3550000027753,"accuracy":1,"outcome":"-1","keys":[2014.3549999920651],"total_keys":1,"block":1,"trial":70,"robot":3,"valence":"lose","action":"go","sham":0,"trial_type":"pit-trial","trial_index":83,"time_elapsed":419122,"internal_node_id":"0.0-72.0","task_version":"battery-v0.1"},{"rune":"E","hex":"#3366ff99","correct":-1,"choice":32,"rt":1155.510000011418,"accuracy":0,"outcome":"+1","keys":[2656.520000018645],"total_keys":1,"block":1,"trial":71,"robot":2,"valence":"win","action":"no-go","sham":0,"trial_type":"pit-trial","trial_index":84,"time_elapsed":422981,"internal_node_id":"0.0-73.0","task_version":"battery-v0.1"},{"rune":"W","hex":"#3366ff99","correct":32,"choice":32,"rt":573.4700000029989,"accuracy":1,"outcome":"+10","keys":[2074.1000000271015],"total_keys":1,"block":1,"trial":72,"robot":1,"valence":"win","action":"go","sham":0,"trial_type":"pit-trial","trial_index":85,"time_elapsed":426258,"internal_node_id":"0.0-74.0","task_version":"battery-v0.1"},{"rune":"W","hex":"#3366ff99","correct":32,"choice":32,"rt":514.6899999817833,"accuracy":1,"outcome":"+10","keys":[2015.430000028573],"total_keys":1,"block":1,"trial":73,"robot":1,"valence":"win","action":"go","sham":0,"trial_type":"pit-trial","trial_index":86,"time_elapsed":429478,"internal_node_id":"0.0-75.0","task_version":"battery-v0.1"},{"rune":"G","hex":"#f73b6a7A","correct":32,"choice":-1,"rt":-1,"accuracy":0,"outcome":"-10","keys":[],"total_keys":0,"block":1,"trial":74,"robot":3,"valence":"lose","action":"go","sham":0,"trial_type":"pit-trial","trial_index":87,"time_elapsed":433485,"internal_node_id":"0.0-76.0","task_version":"battery-v0.1"},{"rune":"B","hex":"#f73b6a7A","correct":-1,"choice":-1,"rt":-1,"accuracy":1,"outcome":"-10","keys":[],"total_keys":0,"block":1,"trial":75,"robot":4,"valence":"lose","action":"no-go","sham":1,"trial_type":"pit-trial","trial_index":88,"time_elapsed":437494,"internal_node_id":"0.0-77.0","task_version":"battery-v0.1"},{"rune":"E","hex":"#3366ff99","correct":-1,"choice":32,"rt":489.6149999694899,"accuracy":0,"outcome":"+1","keys":[1990.2449999935925],"total_keys":1,"block":1,"trial":76,"robot":2,"valence":"win","action":"no-go","sham":0,"trial_type":"pit-trial","trial_index":89,"time_elapsed":440694,"internal_node_id":"0.0-78.0","task_version":"battery-v0.1"},{"rune":"B","hex":"#f73b6a7A","correct":-1,"choice":32,"rt":790.6799999764189,"accuracy":0,"outcome":"-10","keys":[2291.6800000239164],"total_keys":1,"block":1,"trial":77,"robot":4,"valence":"lose","action":"no-go","sham":0,"trial_type":"pit-trial","trial_index":90,"time_elapsed":444188,"internal_node_id":"0.0-79.0","task_version":"battery-v0.1"},{"rune":"E","hex":"#3366ff99","correct":-1,"choice":32,"rt":803.1800000462681,"accuracy":0,"outcome":"+1","keys":[2303.989999985788],"total_keys":1,"block":1,"trial":78,"robot":2,"valence":"win","action":"no-go","sham":0,"trial_type":"pit-trial","trial_index":91,"time_elapsed":447695,"internal_node_id":"0.0-80.0","task_version":"battery-v0.1"},{"rune":"G","hex":"#f73b6a7A","correct":32,"choice":32,"rt":766.330000013113,"accuracy":1,"outcome":"-10","keys":[2266.964999958873],"total_keys":1,"block":1,"trial":79,"robot":3,"valence":"lose","action":"go","sham":1,"trial_type":"pit-trial","trial_index":92,"time_elapsed":451165,"internal_node_id":"0.0-81.0","task_version":"battery-v0.1"},{"rune":"W","hex":"#3366ff99","correct":32,"choice":32,"rt":772.5600000121631,"accuracy":1,"outcome":"+1","keys":[2273.449999978766],"total_keys":1,"block":1,"trial":80,"robot":1,"valence":"win","action":"go","sham":1,"trial_type":"pit-trial","trial_index":93,"time_elapsed":454641,"internal_node_id":"0.0-82.0","task_version":"battery-v0.1"},{"rune":"B","hex":"#f73b6a7A","correct":-1,"choice":-1,"rt":-1,"accuracy":1,"outcome":"-1","keys":[],"total_keys":0,"block":1,"trial":81,"robot":4,"valence":"lose","action":"no-go","sham":0,"trial_type":"pit-trial","trial_index":94,"time_elapsed":458645,"internal_node_id":"0.0-83.0","task_version":"battery-v0.1"},{"rune":"G","hex":"#f73b6a7A","correct":32,"choice":32,"rt":681.2599999830127,"accuracy":1,"outcome":"-10","keys":[2182.189999963157],"total_keys":1,"block":1,"trial":82,"robot":3,"valence":"lose","action":"go","sham":1,"trial_type":"pit-trial","trial_index":95,"time_elapsed":462030,"internal_node_id":"0.0-84.0","task_version":"battery-v0.1"},{"rune":"E","hex":"#3366ff99","correct":-1,"choice":32,"rt":889.9349999846891,"accuracy":0,"outcome":"+1","keys":[2390.639999997802],"total_keys":1,"block":1,"trial":83,"robot":2,"valence":"win","action":"no-go","sham":0,"trial_type":"pit-trial","trial_index":96,"time_elapsed":465624,"internal_node_id":"0.0-85.0","task_version":"battery-v0.1"},{"rune":"H","hex":"#f73b6a7A","correct":32,"choice":32,"rt":894.544999988284,"accuracy":1,"outcome":"-10","keys":[2395.2399999834597],"total_keys":1,"block":1,"trial":84,"robot":3,"valence":"lose","action":"go","sham":1,"trial_type":"pit-trial","trial_index":97,"time_elapsed":469222,"internal_node_id":"0.0-86.0","task_version":"battery-v0.1"},{"rune":"G","hex":"#f73b6a7A","correct":32,"choice":32,"rt":737.7700000070035,"accuracy":1,"outcome":"-1","keys":[2237.810000020545],"total_keys":1,"block":1,"trial":85,"robot":3,"valence":"lose","action":"go","sham":0,"trial_type":"pit-trial","trial_index":98,"time_elapsed":472663,"internal_node_id":"0.0-87.0","task_version":"battery-v0.1"},{"rune":"B","hex":"#f73b6a7A","correct":-1,"choice":-1,"rt":-1,"accuracy":1,"outcome":"-1","keys":[],"total_keys":0,"block":1,"trial":86,"robot":4,"valence":"lose","action":"no-go","sham":0,"trial_type":"pit-trial","trial_index":99,"time_elapsed":476670,"internal_node_id":"0.0-88.0","task_version":"battery-v0.1"},{"rune":"E","hex":"#3366ff99","correct":-1,"choice":-1,"rt":-1,"accuracy":1,"outcome":"+10","keys":[],"total_keys":0,"block":1,"trial":87,"robot":2,"valence":"win","action":"no-go","sham":0,"trial_type":"pit-trial","trial_index":100,"time_elapsed":480677,"internal_node_id":"0.0-89.0","task_version":"battery-v0.1"},{"rune":"H","hex":"#f73b6a7A","correct":32,"choice":32,"rt":749.2249999777414,"accuracy":1,"outcome":"-1","keys":[2249.3100000428967],"total_keys":1,"block":1,"trial":88,"robot":3,"valence":"lose","action":"go","sham":0,"trial_type":"pit-trial","trial_index":101,"time_elapsed":484130,"internal_node_id":"0.0-90.0","task_version":"battery-v0.1"},{"rune":"D","hex":"#f73b6a7A","correct":-1,"choice":-1,"rt":-1,"accuracy":1,"outcome":"-1","keys":[],"total_keys":0,"block":1,"trial":89,"robot":4,"valence":"lose","action":"no-go","sham":0,"trial_type":"pit-trial","trial_index":102,"time_elapsed":488136,"internal_node_id":"0.0-91.0","task_version":"battery-v0.1"},{"rune":"H","hex":"#f73b6a7A","correct":32,"choice":-1,"rt":-1,"accuracy":0,"outcome":"-10","keys":[],"total_keys":0,"block":1,"trial":90,"robot":3,"valence":"lose","action":"go","sham":0,"trial_type":"pit-trial","trial_index":103,"time_elapsed":492140,"internal_node_id":"0.0-92.0","task_version":"battery-v0.1"},{"rune":"G","hex":"#f73b6a7A","correct":32,"choice":-1,"rt":-1,"accuracy":0,"outcome":"-10","keys":[],"total_keys":0,"block":1,"trial":91,"robot":3,"valence":"lose","action":"go","sham":0,"trial_type":"pit-trial","trial_index":104,"time_elapsed":496146,"internal_node_id":"0.0-93.0","task_version":"battery-v0.1"},{"rune":"Y","hex":"#3366ff99","correct":-1,"choice":32,"rt":566.8949999962933,"accuracy":0,"outcome":"+1","keys":[2067.689999996219],"total_keys":1,"block":1,"trial":92,"robot":2,"valence":"win","action":"no-go","sham":0,"trial_type":"pit-trial","trial_index":105,"time_elapsed":499418,"internal_node_id":"0.0-94.0","task_version":"battery-v0.1"},{"rune":"Y","hex":"#3366ff99","correct":-1,"choice":-1,"rt":-1,"accuracy":1,"outcome":"+10","keys":[],"total_keys":0,"block":1,"trial":93,"robot":2,"valence":"win","action":"no-go","sham":0,"trial_type":"pit-trial","trial_index":106,"time_elapsed":503424,"internal_node_id":"0.0-95.0","task_version":"battery-v0.1"},{"rune":"G","hex":"#f73b6a7A","correct":32,"choice":32,"rt":938.7450000504032,"accuracy":1,"outcome":"-1","keys":[2439.7299999836832],"total_keys":1,"block":1,"trial":94,"robot":3,"valence":"lose","action":"go","sham":0,"trial_type":"pit-trial","trial_index":107,"time_elapsed":507068,"internal_node_id":"0.0-96.0","task_version":"battery-v0.1"},{"rune":"H","hex":"#f73b6a7A","correct":32,"choice":-1,"rt":-1,"accuracy":0,"outcome":"-10","keys":[],"total_keys":0,"block":1,"trial":95,"robot":3,"valence":"lose","action":"go","sham":0,"trial_type":"pit-trial","trial_index":108,"time_elapsed":511074,"internal_node_id":"0.0-97.0","task_version":"battery-v0.1"},{"rune":"D","hex":"#f73b6a7A","correct":-1,"choice":-1,"rt":-1,"accuracy":1,"outcome":"-1","keys":[],"total_keys":0,"block":1,"trial":96,"robot":4,"valence":"lose","action":"no-go","sham":0,"trial_type":"pit-trial","trial_index":109,"time_elapsed":515078,"internal_node_id":"0.0-98.0","task_version":"battery-v0.1"},{"rune":"Y","hex":"#3366ff99","correct":-1,"choice":32,"rt":622.4849999998696,"accuracy":0,"outcome":"+1","keys":[2123.3150000334717],"total_keys":1,"block":1,"trial":97,"robot":2,"valence":"win","action":"no-go","sham":0,"trial_type":"pit-trial","trial_index":110,"time_elapsed":518407,"internal_node_id":"0.0-99.0","task_version":"battery-v0.1"},{"rune":"D","hex":"#f73b6a7A","correct":-1,"choice":32,"rt":890.2200000011362,"accuracy":0,"outcome":"-10","keys":[2390.35000000149],"total_keys":1,"block":1,"trial":98,"robot":4,"valence":"lose","action":"no-go","sham":0,"trial_type":"pit-trial","trial_index":111,"time_elapsed":522001,"internal_node_id":"0.0-100.0","task_version":"battery-v0.1"},{"rune":"G","hex":"#f73b6a7A","correct":32,"choice":-1,"rt":-1,"accuracy":0,"outcome":"-10","keys":[],"total_keys":0,"block":1,"trial":99,"robot":3,"valence":"lose","action":"go","sham":0,"trial_type":"pit-trial","trial_index":112,"time_elapsed":526004,"internal_node_id":"0.0-101.0","task_version":"battery-v0.1"},{"rune":"H","hex":"#f73b6a7A","correct":32,"choice":32,"rt":773.700000019744,"accuracy":1,"outcome":"-10","keys":[2274.619999981951],"total_keys":1,"block":1,"trial":100,"robot":3,"valence":"lose","action":"go","sham":1,"trial_type":"pit-trial","trial_index":113,"time_elapsed":529481,"internal_node_id":"0.0-102.0","task_version":"battery-v0.1"},{"rune":"H","hex":"#f73b6a7A","correct":32,"choice":-1,"rt":-1,"accuracy":0,"outcome":"-10","keys":[],"total_keys":0,"block":1,"trial":101,"robot":3,"valence":"lose","action":"go","sham":0,"trial_type":"pit-trial","trial_index":114,"time_elapsed":533487,"internal_node_id":"0.0-103.0","task_version":"battery-v0.1"},{"rune":"G","hex":"#f73b6a7A","correct":32,"choice":32,"rt":713.5600000037812,"accuracy":1,"outcome":"-1","keys":[2213.850000000093],"total_keys":1,"block":1,"trial":102,"robot":3,"valence":"lose","action":"go","sham":0,"trial_type":"pit-trial","trial_index":115,"time_elapsed":536906,"internal_node_id":"0.0-104.0","task_version":"battery-v0.1"},{"rune":"Y","hex":"#3366ff99","correct":-1,"choice":32,"rt":705.7299999869429,"accuracy":0,"outcome":"+1","keys":[2206.5350000048056],"total_keys":1,"block":1,"trial":103,"robot":2,"valence":"win","action":"no-go","sham":0,"trial_type":"pit-trial","trial_index":116,"time_elapsed":540316,"internal_node_id":"0.0-105.0","task_version":"battery-v0.1"},{"rune":"D","hex":"#f73b6a7A","correct":-1,"choice":-1,"rt":-1,"accuracy":1,"outcome":"-1","keys":[],"total_keys":0,"block":1,"trial":104,"robot":4,"valence":"lose","action":"no-go","sham":0,"trial_type":"pit-trial","trial_index":117,"time_elapsed":544319,"internal_node_id":"0.0-106.0","task_version":"battery-v0.1"},{"rune":"H","hex":"#f73b6a7A","correct":32,"choice":-1,"rt":-1,"accuracy":0,"outcome":"-10","keys":[],"total_keys":0,"block":1,"trial":105,"robot":3,"valence":"lose","action":"go","sham":0,"trial_type":"pit-trial","trial_index":118,"time_elapsed":548323,"internal_node_id":"0.0-107.0","task_version":"battery-v0.1"},{"rune":"D","hex":"#f73b6a7A","correct":-1,"choice":-1,"rt":-1,"accuracy":1,"outcome":"-10","keys":[],"total_keys":0,"block":1,"trial":106,"robot":4,"valence":"lose","action":"no-go","sham":1,"trial_type":"pit-trial","trial_index":119,"time_elapsed":552326,"internal_node_id":"0.0-108.0","task_version":"battery-v0.1"},{"rune":"G","hex":"#f73b6a7A","correct":32,"choice":-1,"rt":-1,"accuracy":0,"outcome":"-10","keys":[],"total_keys":0,"block":1,"trial":107,"robot":3,"valence":"lose","action":"go","sham":0,"trial_type":"pit-trial","trial_index":120,"time_elapsed":556332,"internal_node_id":"0.0-109.0","task_version":"battery-v0.1"},{"rune":"Y","hex":"#3366ff99","correct":-1,"choice":32,"rt":382.0649999543093,"accuracy":0,"outcome":"+1","keys":[1882.6299999491312],"total_keys":1,"block":1,"trial":108,"robot":2,"valence":"win","action":"no-go","sham":0,"trial_type":"pit-trial","trial_index":121,"time_elapsed":559420,"internal_node_id":"0.0-110.0","task_version":"battery-v0.1"},{"rune":"G","hex":"#f73b6a7A","correct":32,"choice":32,"rt":671.8150000087917,"accuracy":1,"outcome":"-1","keys":[2172.59999999078],"total_keys":1,"block":1,"trial":109,"robot":3,"valence":"lose","action":"go","sham":0,"trial_type":"pit-trial","trial_index":122,"time_elapsed":562795,"internal_node_id":"0.0-111.0","task_version":"battery-v0.1"},{"rune":"H","hex":"#f73b6a7A","correct":32,"choice":32,"rt":544.7799999965355,"accuracy":1,"outcome":"-10","keys":[2045.7100000348873],"total_keys":1,"block":1,"trial":110,"robot":3,"valence":"lose","action":"go","sham":1,"trial_type":"pit-trial","trial_index":123,"time_elapsed":566044,"internal_node_id":"0.0-112.0","task_version":"battery-v0.1"},{"rune":"Y","hex":"#3366ff99","correct":-1,"choice":-1,"rt":-1,"accuracy":1,"outcome":"+10","keys":[],"total_keys":0,"block":1,"trial":111,"robot":2,"valence":"win","action":"no-go","sham":0,"trial_type":"pit-trial","trial_index":124,"time_elapsed":570048,"internal_node_id":"0.0-113.0","task_version":"battery-v0.1"},{"rune":"D","hex":"#f73b6a7A","correct":-1,"choice":32,"rt":818.3950000093319,"accuracy":0,"outcome":"-10","keys":[2319.199999968987],"total_keys":1,"block":1,"trial":112,"robot":4,"valence":"lose","action":"no-go","sham":0,"trial_type":"pit-trial","trial_index":125,"time_elapsed":573570,"internal_node_id":"0.0-114.0","task_version":"battery-v0.1"},{"rune":"Y","hex":"#3366ff99","correct":-1,"choice":-1,"rt":-1,"accuracy":1,"outcome":"+10","keys":[],"total_keys":0,"block":1,"trial":113,"robot":2,"valence":"win","action":"no-go","sham":0,"trial_type":"pit-trial","trial_index":126,"time_elapsed":577580,"internal_node_id":"0.0-115.0","task_version":"battery-v0.1"},{"rune":"G","hex":"#f73b6a7A","correct":32,"choice":-1,"rt":-1,"accuracy":0,"outcome":"-10","keys":[],"total_keys":0,"block":1,"trial":114,"robot":3,"valence":"lose","action":"go","sham":0,"trial_type":"pit-trial","trial_index":127,"time_elapsed":581584,"internal_node_id":"0.0-116.0","task_version":"battery-v0.1"},{"rune":"H","hex":"#f73b6a7A","correct":32,"choice":-1,"rt":-1,"accuracy":0,"outcome":"-10","keys":[],"total_keys":0,"block":1,"trial":115,"robot":3,"valence":"lose","action":"go","sham":0,"trial_type":"pit-trial","trial_index":128,"time_elapsed":585588,"internal_node_id":"0.0-117.0","task_version":"battery-v0.1"},{"rune":"D","hex":"#f73b6a7A","correct":-1,"choice":-1,"rt":-1,"accuracy":1,"outcome":"-1","keys":[],"total_keys":0,"block":1,"trial":116,"robot":4,"valence":"lose","action":"no-go","sham":0,"trial_type":"pit-trial","trial_index":129,"time_elapsed":589591,"internal_node_id":"0.0-118.0","task_version":"battery-v0.1"},{"rune":"G","hex":"#f73b6a7A","correct":32,"choice":-1,"rt":-1,"accuracy":0,"outcome":"-10","keys":[],"total_keys":0,"block":1,"trial":117,"robot":3,"valence":"lose","action":"go","sham":0,"trial_type":"pit-trial","trial_index":130,"time_elapsed":593593,"internal_node_id":"0.0-119.0","task_version":"battery-v0.1"},{"rune":"D","hex":"#f73b6a7A","correct":-1,"choice":-1,"rt":-1,"accuracy":1,"outcome":"-1","keys":[],"total_keys":0,"block":1,"trial":118,"robot":4,"valence":"lose","action":"no-go","sham":0,"trial_type":"pit-trial","trial_index":131,"time_elapsed":597596,"internal_node_id":"0.0-120.0","task_version":"battery-v0.1"},{"rune":"Y","hex":"#3366ff99","correct":-1,"choice":-1,"rt":-1,"accuracy":1,"outcome":"+10","keys":[],"total_keys":0,"block":1,"trial":119,"robot":2,"valence":"win","action":"no-go","sham":0,"trial_type":"pit-trial","trial_index":132,"time_elapsed":601599,"internal_node_id":"0.0-121.0","task_version":"battery-v0.1"},{"rune":"H","hex":"#f73b6a7A","correct":32,"choice":32,"rt":1013.6449999990873,"accuracy":1,"outcome":"-1","keys":[2513.7899999972433],"total_keys":1,"block":1,"trial":120,"robot":3,"valence":"lose","action":"go","sham":0,"trial_type":"pit-trial","trial_index":133,"time_elapsed":605318,"internal_node_id":"0.0-122.0","task_version":"battery-v0.1"},{"view_history":"[{\"page_index\":0,\"viewing_time\":2904.1549999965355},{\"page_index\":1,\"viewing_time\":2452.3349999799393}]","rt":5357.749999966472,"trial_type":"pit-instructions","trial_index":134,"time_elapsed":610677,"internal_node_id":"0.0-123.0","task_version":"battery-v0.1"},{"rune":"Q","hex":"#3366ff99","correct":32,"choice":32,"rt":949.5050000259653,"accuracy":1,"outcome":"+10","keys":[2449.745000049006],"total_keys":1,"block":2,"trial":121,"robot":1,"valence":"win","action":"go","sham":0,"trial_type":"pit-trial","trial_index":135,"time_elapsed":614338,"internal_node_id":"0.0-124.0","task_version":"battery-v0.1"},{"rune":"F","hex":"#f73b6a7A","correct":-1,"choice":32,"rt":801.1050000204705,"accuracy":0,"outcome":"-10","keys":[2302.1450000233017],"total_keys":1,"block":2,"trial":122,"robot":4,"valence":"lose","action":"no-go","sham":0,"trial_type":"pit-trial","trial_index":136,"time_elapsed":617843,"internal_node_id":"0.0-125.0","task_version":"battery-v0.1"},{"rune":"I","hex":"#f73b6a7A","correct":-1,"choice":32,"rt":1013.4950000210665,"accuracy":0,"outcome":"-10","keys":[2514.539999945555],"total_keys":1,"block":2,"trial":123,"robot":4,"valence":"lose","action":"no-go","sham":0,"trial_type":"pit-trial","trial_index":137,"time_elapsed":621560,"internal_node_id":"0.0-126.0","task_version":"battery-v0.1"},{"rune":"U","hex":"#3366ff99","correct":-1,"choice":32,"rt":1024.7700000181794,"accuracy":0,"outcome":"+10","keys":[2524.9799999874085],"total_keys":1,"block":2,"trial":124,"robot":2,"valence":"win","action":"no-go","sham":1,"trial_type":"pit-trial","trial_index":138,"time_elapsed":625289,"internal_node_id":"0.0-127.0","task_version":"battery-v0.1"},{"rune":"Q","hex":"#3366ff99","correct":32,"choice":32,"rt":674.4000000180677,"accuracy":1,"outcome":"+10","keys":[2175.2400000113994],"total_keys":1,"block":2,"trial":125,"robot":1,"valence":"win","action":"go","sham":0,"trial_type":"pit-trial","trial_index":139,"time_elapsed":628668,"internal_node_id":"0.0-128.0","task_version":"battery-v0.1"},{"rune":"U","hex":"#3366ff99","correct":-1,"choice":32,"rt":381.82000000961125,"accuracy":0,"outcome":"+10","keys":[1881.824999989476],"total_keys":1,"block":2,"trial":126,"robot":2,"valence":"win","action":"no-go","sham":1,"trial_type":"pit-trial","trial_index":140,"time_elapsed":631756,"internal_node_id":"0.0-129.0","task_version":"battery-v0.1"},{"rune":"F","hex":"#f73b6a7A","correct":-1,"choice":-1,"rt":-1,"accuracy":1,"outcome":"-10","keys":[],"total_keys":0,"block":2,"trial":127,"robot":4,"valence":"lose","action":"no-go","sham":1,"trial_type":"pit-trial","trial_index":141,"time_elapsed":635763,"internal_node_id":"0.0-130.0","task_version":"battery-v0.1"},{"rune":"I","hex":"#f73b6a7A","correct":-1,"choice":-1,"rt":-1,"accuracy":1,"outcome":"-1","keys":[],"total_keys":0,"block":2,"trial":128,"robot":4,"valence":"lose","action":"no-go","sham":0,"trial_type":"pit-trial","trial_index":142,"time_elapsed":639766,"internal_node_id":"0.0-131.0","task_version":"battery-v0.1"},{"rune":"U","hex":"#3366ff99","correct":-1,"choice":32,"rt":780.2350000129081,"accuracy":0,"outcome":"+10","keys":[2281.25],"total_keys":1,"block":2,"trial":129,"robot":2,"valence":"win","action":"no-go","sham":1,"trial_type":"pit-trial","trial_index":143,"time_elapsed":643250,"internal_node_id":"0.0-132.0","task_version":"battery-v0.1"},{"rune":"F","hex":"#f73b6a7A","correct":-1,"choice":-1,"rt":-1,"accuracy":1,"outcome":"-1","keys":[],"total_keys":0,"block":2,"trial":130,"robot":4,"valence":"lose","action":"no-go","sham":0,"trial_type":"pit-trial","trial_index":144,"time_elapsed":647253,"internal_node_id":"0.0-133.0","task_version":"battery-v0.1"},{"rune":"I","hex":"#f73b6a7A","correct":-1,"choice":-1,"rt":-1,"accuracy":1,"outcome":"-1","keys":[],"total_keys":0,"block":2,"trial":131,"robot":4,"valence":"lose","action":"no-go","sham":0,"trial_type":"pit-trial","trial_index":145,"time_elapsed":651256,"internal_node_id":"0.0-134.0","task_version":"battery-v0.1"},{"rune":"Q","hex":"#3366ff99","correct":32,"choice":32,"rt":506.180000025779,"accuracy":1,"outcome":"+10","keys":[2006.9550000480376],"total_keys":1,"block":2,"trial":132,"robot":1,"valence":"win","action":"go","sham":0,"trial_type":"pit-trial","trial_index":146,"time_elapsed":654466,"internal_node_id":"0.0-135.0","task_version":"battery-v0.1"},{"rune":"Q","hex":"#3366ff99","correct":32,"choice":32,"rt":512.8449999610893,"accuracy":1,"outcome":"+10","keys":[2013.0950000020675],"total_keys":1,"block":2,"trial":133,"robot":1,"valence":"win","action":"go","sham":0,"trial_type":"pit-trial","trial_index":147,"time_elapsed":657683,"internal_node_id":"0.0-136.0","task_version":"battery-v0.1"},{"rune":"F","hex":"#f73b6a7A","correct":-1,"choice":32,"rt":834.9300000118092,"accuracy":0,"outcome":"-10","keys":[2335.045000014361],"total_keys":1,"block":2,"trial":134,"robot":4,"valence":"lose","action":"no-go","sham":0,"trial_type":"pit-trial","trial_index":148,"time_elapsed":661221,"internal_node_id":"0.0-137.0","task_version":"battery-v0.1"},{"rune":"I","hex":"#f73b6a7A","correct":-1,"choice":-1,"rt":-1,"accuracy":1,"outcome":"-1","keys":[],"total_keys":0,"block":2,"trial":135,"robot":4,"valence":"lose","action":"no-go","sham":0,"trial_type":"pit-trial","trial_index":149,"time_elapsed":665224,"internal_node_id":"0.0-138.0","task_version":"battery-v0.1"},{"rune":"U","hex":"#3366ff99","correct":-1,"choice":32,"rt":449.350000009872,"accuracy":0,"outcome":"+1","keys":[1949.5400000014342],"total_keys":1,"block":2,"trial":136,"robot":2,"valence":"win","action":"no-go","sham":0,"trial_type":"pit-trial","trial_index":150,"time_elapsed":668379,"internal_node_id":"0.0-139.0","task_version":"battery-v0.1"},{"rune":"U","hex":"#3366ff99","correct":-1,"choice":32,"rt":480.7950000395067,"accuracy":0,"outcome":"+1","keys":[1981.2650000094436],"total_keys":1,"block":2,"trial":137,"robot":2,"valence":"win","action":"no-go","sham":0,"trial_type":"pit-trial","trial_index":151,"time_elapsed":671564,"internal_node_id":"0.0-140.0","task_version":"battery-v0.1"},{"rune":"I","hex":"#f73b6a7A","correct":-1,"choice":-1,"rt":-1,"accuracy":1,"outcome":"-10","keys":[],"total_keys":0,"block":2,"trial":138,"robot":4,"valence":"lose","action":"no-go","sham":1,"trial_type":"pit-trial","trial_index":152,"time_elapsed":675571,"internal_node_id":"0.0-141.0","task_version":"battery-v0.1"},{"rune":"Q","hex":"#3366ff99","correct":32,"choice":32,"rt":522.7699999813922,"accuracy":1,"outcome":"+10","keys":[2023.8050000043586],"total_keys":1,"block":2,"trial":139,"robot":1,"valence":"win","action":"go","sham":0,"trial_type":"pit-trial","trial_index":153,"time_elapsed":678797,"internal_node_id":"0.0-142.0","task_version":"battery-v0.1"},{"rune":"F","hex":"#f73b6a7A","correct":-1,"choice":32,"rt":802.6950000203215,"accuracy":0,"outcome":"-1","keys":[2302.9199999873526],"total_keys":1,"block":2,"trial":140,"robot":4,"valence":"lose","action":"no-go","sham":1,"trial_type":"pit-trial","trial_index":154,"time_elapsed":682304,"internal_node_id":"0.0-143.0","task_version":"battery-v0.1"},{"rune":"U","hex":"#3366ff99","correct":-1,"choice":32,"rt":916.0200000042096,"accuracy":0,"outcome":"+1","keys":[2416.045000019949],"total_keys":1,"block":2,"trial":141,"robot":2,"valence":"win","action":"no-go","sham":0,"trial_type":"pit-trial","trial_index":155,"time_elapsed":685927,"internal_node_id":"0.0-144.0","task_version":"battery-v0.1"},{"rune":"I","hex":"#f73b6a7A","correct":-1,"choice":-1,"rt":-1,"accuracy":1,"outcome":"-1","keys":[],"total_keys":0,"block":2,"trial":142,"robot":4,"valence":"lose","action":"no-go","sham":0,"trial_type":"pit-trial","trial_index":156,"time_elapsed":689933,"internal_node_id":"0.0-145.0","task_version":"battery-v0.1"},{"rune":"F","hex":"#f73b6a7A","correct":-1,"choice":32,"rt":744.9950000154786,"accuracy":0,"outcome":"-1","keys":[2245.9750000271015],"total_keys":1,"block":2,"trial":143,"robot":4,"valence":"lose","action":"no-go","sham":1,"trial_type":"pit-trial","trial_index":157,"time_elapsed":693383,"internal_node_id":"0.0-146.0","task_version":"battery-v0.1"},{"rune":"Q","hex":"#3366ff99","correct":32,"choice":32,"rt":447.96999997925013,"accuracy":1,"outcome":"+1","keys":[1948.0450000264682],"total_keys":1,"block":2,"trial":144,"robot":1,"valence":"win","action":"go","sham":1,"trial_type":"pit-trial","trial_index":158,"time_elapsed":696537,"internal_node_id":"0.0-147.0","task_version":"battery-v0.1"},{"rune":"U","hex":"#3366ff99","correct":-1,"choice":32,"rt":701.9500000169501,"accuracy":0,"outcome":"+1","keys":[2201.9599999766797],"total_keys":1,"block":2,"trial":145,"robot":2,"valence":"win","action":"no-go","sham":0,"trial_type":"pit-trial","trial_index":159,"time_elapsed":699945,"internal_node_id":"0.0-148.0","task_version":"battery-v0.1"},{"rune":"I","hex":"#f73b6a7A","correct":-1,"choice":-1,"rt":-1,"accuracy":1,"outcome":"-1","keys":[],"total_keys":0,"block":2,"trial":146,"robot":4,"valence":"lose","action":"no-go","sham":0,"trial_type":"pit-trial","trial_index":160,"time_elapsed":703952,"internal_node_id":"0.0-149.0","task_version":"battery-v0.1"},{"rune":"Q","hex":"#3366ff99","correct":32,"choice":32,"rt":477.76499995961785,"accuracy":1,"outcome":"+10","keys":[1979.5349999913014],"total_keys":1,"block":2,"trial":147,"robot":1,"valence":"win","action":"go","sham":0,"trial_type":"pit-trial","trial_index":161,"time_elapsed":707138,"internal_node_id":"0.0-150.0","task_version":"battery-v0.1"},{"rune":"F","hex":"#f73b6a7A","correct":-1,"choice":32,"rt":858.7499999557622,"accuracy":0,"outcome":"-10","keys":[2359.4499999890104],"total_keys":1,"block":2,"trial":148,"robot":4,"valence":"lose","action":"no-go","sham":0,"trial_type":"pit-trial","trial_index":162,"time_elapsed":710702,"internal_node_id":"0.0-151.0","task_version":"battery-v0.1"},{"rune":"U","hex":"#3366ff99","correct":-1,"choice":32,"rt":712.1899999910966,"accuracy":0,"outcome":"+1","keys":[2212.404999998398],"total_keys":1,"block":2,"trial":149,"robot":2,"valence":"win","action":"no-go","sham":0,"trial_type":"pit-trial","trial_index":163,"time_elapsed":714117,"internal_node_id":"0.0-152.0","task_version":"battery-v0.1"},{"rune":"F","hex":"#f73b6a7A","correct":-1,"choice":32,"rt":695.4100000439212,"accuracy":0,"outcome":"-1","keys":[2196.064999967348],"total_keys":1,"block":2,"trial":150,"robot":4,"valence":"lose","action":"no-go","sham":1,"trial_type":"pit-trial","trial_index":164,"time_elapsed":717519,"internal_node_id":"0.0-153.0","task_version":"battery-v0.1"},{"rune":"Q","hex":"#3366ff99","correct":32,"choice":32,"rt":800.0599999795668,"accuracy":1,"outcome":"+10","keys":[2300.5300000077114],"total_keys":1,"block":2,"trial":151,"robot":1,"valence":"win","action":"go","sham":0,"trial_type":"pit-trial","trial_index":165,"time_elapsed":721023,"internal_node_id":"0.0-154.0","task_version":"battery-v0.1"},{"rune":"I","hex":"#f73b6a7A","correct":-1,"choice":32,"rt":800.0800000154413,"accuracy":0,"outcome":"-10","keys":[2301.065000006929],"total_keys":1,"block":2,"trial":152,"robot":4,"valence":"lose","action":"no-go","sham":0,"trial_type":"pit-trial","trial_index":166,"time_elapsed":724527,"internal_node_id":"0.0-155.0","task_version":"battery-v0.1"},{"rune":"U","hex":"#3366ff99","correct":-1,"choice":-1,"rt":-1,"accuracy":1,"outcome":"+10","keys":[],"total_keys":0,"block":2,"trial":153,"robot":2,"valence":"win","action":"no-go","sham":0,"trial_type":"pit-trial","trial_index":167,"time_elapsed":728532,"internal_node_id":"0.0-156.0","task_version":"battery-v0.1"},{"rune":"T","hex":"#f73b6a7A","correct":32,"choice":32,"rt":876.1850000009872,"accuracy":1,"outcome":"-1","keys":[2377.2350000217557],"total_keys":1,"block":2,"trial":154,"robot":3,"valence":"lose","action":"go","sham":0,"trial_type":"pit-trial","trial_index":168,"time_elapsed":732111,"internal_node_id":"0.0-157.0","task_version":"battery-v0.1"},{"rune":"I","hex":"#f73b6a7A","correct":-1,"choice":-1,"rt":-1,"accuracy":1,"outcome":"-10","keys":[],"total_keys":0,"block":2,"trial":155,"robot":4,"valence":"lose","action":"no-go","sham":1,"trial_type":"pit-trial","trial_index":169,"time_elapsed":736116,"internal_node_id":"0.0-158.0","task_version":"battery-v0.1"},{"rune":"Q","hex":"#3366ff99","correct":32,"choice":32,"rt":495.16499997116625,"accuracy":1,"outcome":"+1","keys":[1996.1150000453927],"total_keys":1,"block":2,"trial":156,"robot":1,"valence":"win","action":"go","sham":1,"trial_type":"pit-trial","trial_index":170,"time_elapsed":739316,"internal_node_id":"0.0-159.0","task_version":"battery-v0.1"},{"rune":"T","hex":"#f73b6a7A","correct":32,"choice":32,"rt":636.3100000307895,"accuracy":1,"outcome":"-1","keys":[2137.125000008382],"total_keys":1,"block":2,"trial":157,"robot":3,"valence":"lose","action":"go","sham":0,"trial_type":"pit-trial","trial_index":171,"time_elapsed":742659,"internal_node_id":"0.0-160.0","task_version":"battery-v0.1"},{"rune":"U","hex":"#3366ff99","correct":-1,"choice":32,"rt":931.2449999852106,"accuracy":0,"outcome":"+10","keys":[2431.734999991022],"total_keys":1,"block":2,"trial":158,"robot":2,"valence":"win","action":"no-go","sham":1,"trial_type":"pit-trial","trial_index":172,"time_elapsed":746295,"internal_node_id":"0.0-161.0","task_version":"battery-v0.1"},{"rune":"Q","hex":"#3366ff99","correct":32,"choice":32,"rt":601.4849999919534,"accuracy":1,"outcome":"+10","keys":[2101.4849999919534],"total_keys":1,"block":2,"trial":159,"robot":1,"valence":"win","action":"go","sham":0,"trial_type":"pit-trial","trial_index":173,"time_elapsed":749601,"internal_node_id":"0.0-162.0","task_version":"battery-v0.1"},{"rune":"I","hex":"#f73b6a7A","correct":-1,"choice":32,"rt":801.7400000244379,"accuracy":0,"outcome":"-10","keys":[2301.969999971334],"total_keys":1,"block":2,"trial":160,"robot":4,"valence":"lose","action":"no-go","sham":0,"trial_type":"pit-trial","trial_index":174,"time_elapsed":753106,"internal_node_id":"0.0-163.0","task_version":"battery-v0.1"},{"rune":"X","hex":"#3366ff99","correct":-1,"choice":32,"rt":863.6550000519492,"accuracy":0,"outcome":"+10","keys":[2364.4099999801256],"total_keys":1,"block":2,"trial":161,"robot":2,"valence":"win","action":"no-go","sham":1,"trial_type":"pit-trial","trial_index":175,"time_elapsed":756674,"internal_node_id":"0.0-164.0","task_version":"battery-v0.1"},{"rune":"I","hex":"#f73b6a7A","correct":-1,"choice":-1,"rt":-1,"accuracy":1,"outcome":"-1","keys":[],"total_keys":0,"block":2,"trial":162,"robot":4,"valence":"lose","action":"no-go","sham":0,"trial_type":"pit-trial","trial_index":176,"time_elapsed":760678,"internal_node_id":"0.0-165.0","task_version":"battery-v0.1"},{"rune":"T","hex":"#f73b6a7A","correct":32,"choice":32,"rt":646.2999999639578,"accuracy":1,"outcome":"-10","keys":[2146.390000008978],"total_keys":1,"block":2,"trial":163,"robot":3,"valence":"lose","action":"go","sham":1,"trial_type":"pit-trial","trial_index":177,"time_elapsed":764028,"internal_node_id":"0.0-166.0","task_version":"battery-v0.1"},{"rune":"M","hex":"#3366ff99","correct":32,"choice":32,"rt":700.5450000287965,"accuracy":1,"outcome":"+10","keys":[2201.404999999795],"total_keys":1,"block":2,"trial":164,"robot":1,"valence":"win","action":"go","sham":0,"trial_type":"pit-trial","trial_index":178,"time_elapsed":767434,"internal_node_id":"0.0-167.0","task_version":"battery-v0.1"},{"rune":"X","hex":"#3366ff99","correct":-1,"choice":32,"rt":704.3350000167266,"accuracy":0,"outcome":"+1","keys":[2205.355000041891],"total_keys":1,"block":2,"trial":165,"robot":2,"valence":"win","action":"no-go","sham":0,"trial_type":"pit-trial","trial_index":179,"time_elapsed":770843,"internal_node_id":"0.0-168.0","task_version":"battery-v0.1"},{"rune":"I","hex":"#f73b6a7A","correct":-1,"choice":-1,"rt":-1,"accuracy":1,"outcome":"-1","keys":[],"total_keys":0,"block":2,"trial":166,"robot":4,"valence":"lose","action":"no-go","sham":0,"trial_type":"pit-trial","trial_index":180,"time_elapsed":774850,"internal_node_id":"0.0-169.0","task_version":"battery-v0.1"},{"rune":"T","hex":"#f73b6a7A","correct":32,"choice":-1,"rt":-1,"accuracy":0,"outcome":"-10","keys":[],"total_keys":0,"block":2,"trial":167,"robot":3,"valence":"lose","action":"go","sham":0,"trial_type":"pit-trial","trial_index":181,"time_elapsed":778855,"internal_node_id":"0.0-170.0","task_version":"battery-v0.1"},{"rune":"M","hex":"#3366ff99","correct":32,"choice":32,"rt":683.0499999923632,"accuracy":1,"outcome":"+10","keys":[2185.5799999902956],"total_keys":1,"block":2,"trial":168,"robot":1,"valence":"win","action":"go","sham":0,"trial_type":"pit-trial","trial_index":182,"time_elapsed":782246,"internal_node_id":"0.0-171.0","task_version":"battery-v0.1"},{"rune":"P","hex":"#f73b6a7A","correct":-1,"choice":-1,"rt":-1,"accuracy":1,"outcome":"-1","keys":[2930.805000010878],"total_keys":1,"block":2,"trial":169,"robot":4,"valence":"lose","action":"no-go","sham":0,"trial_type":"pit-trial","trial_index":183,"time_elapsed":786251,"internal_node_id":"0.0-172.0","task_version":"battery-v0.1"},{"rune":"M","hex":"#3366ff99","correct":32,"choice":32,"rt":706.160000001546,"accuracy":1,"outcome":"+1","keys":[2206.400000024587],"total_keys":1,"block":2,"trial":170,"robot":1,"valence":"win","action":"go","sham":1,"trial_type":"pit-trial","trial_index":184,"time_elapsed":789662,"internal_node_id":"0.0-173.0","task_version":"battery-v0.1"},{"rune":"X","hex":"#3366ff99","correct":-1,"choice":32,"rt":800.9099999908358,"accuracy":0,"outcome":"+1","keys":[2301.5500000328757],"total_keys":1,"block":2,"trial":171,"robot":2,"valence":"win","action":"no-go","sham":0,"trial_type":"pit-trial","trial_index":185,"time_elapsed":793167,"internal_node_id":"0.0-174.0","task_version":"battery-v0.1"},{"rune":"T","hex":"#f73b6a7A","correct":32,"choice":-1,"rt":-1,"accuracy":0,"outcome":"-10","keys":[],"total_keys":0,"block":2,"trial":172,"robot":3,"valence":"lose","action":"go","sham":0,"trial_type":"pit-trial","trial_index":186,"time_elapsed":797175,"internal_node_id":"0.0-175.0","task_version":"battery-v0.1"},{"rune":"M","hex":"#3366ff99","correct":32,"choice":32,"rt":865.3050000430085,"accuracy":1,"outcome":"+10","keys":[2365.4650000389665],"total_keys":1,"block":2,"trial":173,"robot":1,"valence":"win","action":"go","sham":0,"trial_type":"pit-trial","trial_index":187,"time_elapsed":800745,"internal_node_id":"0.0-176.0","task_version":"battery-v0.1"},{"rune":"T","hex":"#f73b6a7A","correct":32,"choice":32,"rt":1146.3949999888428,"accuracy":1,"outcome":"-10","keys":[2646.6599999694154],"total_keys":1,"block":2,"trial":174,"robot":3,"valence":"lose","action":"go","sham":1,"trial_type":"pit-trial","trial_index":188,"time_elapsed":804598,"internal_node_id":"0.0-177.0","task_version":"battery-v0.1"},{"rune":"X","hex":"#3366ff99","correct":-1,"choice":32,"rt":832.1299999952316,"accuracy":0,"outcome":"+1","keys":[2333.0800000112504],"total_keys":1,"block":2,"trial":175,"robot":2,"valence":"win","action":"no-go","sham":0,"trial_type":"pit-trial","trial_index":189,"time_elapsed":808134,"internal_node_id":"0.0-178.0","task_version":"battery-v0.1"},{"rune":"P","hex":"#f73b6a7A","correct":-1,"choice":-1,"rt":-1,"accuracy":1,"outcome":"-1","keys":[],"total_keys":0,"block":2,"trial":176,"robot":4,"valence":"lose","action":"no-go","sham":0,"trial_type":"pit-trial","trial_index":190,"time_elapsed":812138,"internal_node_id":"0.0-179.0","task_version":"battery-v0.1"},{"rune":"X","hex":"#3366ff99","correct":-1,"choice":32,"rt":676.4799999655224,"accuracy":0,"outcome":"+1","keys":[2176.5500000328757],"total_keys":1,"block":2,"trial":177,"robot":2,"valence":"win","action":"no-go","sham":0,"trial_type":"pit-trial","trial_index":191,"time_elapsed":815518,"internal_node_id":"0.0-180.0","task_version":"battery-v0.1"},{"rune":"M","hex":"#3366ff99","correct":32,"choice":32,"rt":866.0800000070594,"accuracy":1,"outcome":"+1","keys":[2366.985000029672],"total_keys":1,"block":2,"trial":178,"robot":1,"valence":"win","action":"go","sham":1,"trial_type":"pit-trial","trial_index":192,"time_elapsed":819088,"internal_node_id":"0.0-181.0","task_version":"battery-v0.1"},{"rune":"T","hex":"#f73b6a7A","correct":32,"choice":32,"rt":894.9049999937415,"accuracy":1,"outcome":"-1","keys":[2395.8550000097603],"total_keys":1,"block":2,"trial":179,"robot":3,"valence":"lose","action":"go","sham":0,"trial_type":"pit-trial","trial_index":193,"time_elapsed":822687,"internal_node_id":"0.0-182.0","task_version":"battery-v0.1"},{"rune":"P","hex":"#f73b6a7A","correct":-1,"choice":-1,"rt":-1,"accuracy":1,"outcome":"-1","keys":[],"total_keys":0,"block":2,"trial":180,"robot":4,"valence":"lose","action":"no-go","sham":0,"trial_type":"pit-trial","trial_index":194,"time_elapsed":826692,"internal_node_id":"0.0-183.0","task_version":"battery-v0.1"},{"rune":"X","hex":"#3366ff99","correct":-1,"choice":32,"rt":870.2849999535829,"accuracy":0,"outcome":"+10","keys":[2371.179999958258],"total_keys":1,"block":2,"trial":181,"robot":2,"valence":"win","action":"no-go","sham":1,"trial_type":"pit-trial","trial_index":195,"time_elapsed":830273,"internal_node_id":"0.0-184.0","task_version":"battery-v0.1"},{"rune":"P","hex":"#f73b6a7A","correct":-1,"choice":32,"rt":918.4699999750592,"accuracy":0,"outcome":"-1","keys":[2418.844999978319],"total_keys":1,"block":2,"trial":182,"robot":4,"valence":"lose","action":"no-go","sham":1,"trial_type":"pit-trial","trial_index":196,"time_elapsed":833895,"internal_node_id":"0.0-185.0","task_version":"battery-v0.1"},{"rune":"M","hex":"#3366ff99","correct":32,"choice":32,"rt":866.1449999781325,"accuracy":1,"outcome":"+1","keys":[2366.180000011809],"total_keys":1,"block":2,"trial":183,"robot":1,"valence":"win","action":"go","sham":1,"trial_type":"pit-trial","trial_index":197,"time_elapsed":837465,"internal_node_id":"0.0-186.0","task_version":"battery-v0.1"},{"rune":"T","hex":"#f73b6a7A","correct":32,"choice":-1,"rt":-1,"accuracy":0,"outcome":"-10","keys":[],"total_keys":0,"block":2,"trial":184,"robot":3,"valence":"lose","action":"go","sham":0,"trial_type":"pit-trial","trial_index":198,"time_elapsed":841477,"internal_node_id":"0.0-187.0","task_version":"battery-v0.1"},{"rune":"M","hex":"#3366ff99","correct":32,"choice":32,"rt":538.6650000000373,"accuracy":1,"outcome":"+10","keys":[2039.6799999871291],"total_keys":1,"block":2,"trial":185,"robot":1,"valence":"win","action":"go","sham":0,"trial_type":"pit-trial","trial_index":199,"time_elapsed":844719,"internal_node_id":"0.0-188.0","task_version":"battery-v0.1"},{"rune":"X","hex":"#3366ff99","correct":-1,"choice":32,"rt":707.6799999922514,"accuracy":0,"outcome":"+1","keys":[2207.73000002373],"total_keys":1,"block":2,"trial":186,"robot":2,"valence":"win","action":"no-go","sham":0,"trial_type":"pit-trial","trial_index":200,"time_elapsed":848131,"internal_node_id":"0.0-189.0","task_version":"battery-v0.1"},{"rune":"P","hex":"#f73b6a7A","correct":-1,"choice":32,"rt":795.7000000169501,"accuracy":0,"outcome":"-10","keys":[2295.8549999748357],"total_keys":1,"block":2,"trial":187,"robot":4,"valence":"lose","action":"no-go","sham":0,"trial_type":"pit-trial","trial_index":201,"time_elapsed":851631,"internal_node_id":"0.0-190.0","task_version":"battery-v0.1"},{"rune":"T","hex":"#f73b6a7A","correct":32,"choice":32,"rt":1060.2749999961816,"accuracy":1,"outcome":"-1","keys":[2560.3600000031292],"total_keys":1,"block":2,"trial":188,"robot":3,"valence":"lose","action":"go","sham":0,"trial_type":"pit-trial","trial_index":202,"time_elapsed":855395,"internal_node_id":"0.0-191.0","task_version":"battery-v0.1"},{"rune":"T","hex":"#f73b6a7A","correct":32,"choice":-1,"rt":-1,"accuracy":0,"outcome":"-10","keys":[],"total_keys":0,"block":2,"trial":189,"robot":3,"valence":"lose","action":"go","sham":0,"trial_type":"pit-trial","trial_index":203,"time_elapsed":859403,"internal_node_id":"0.0-192.0","task_version":"battery-v0.1"},{"rune":"M","hex":"#3366ff99","correct":32,"choice":32,"rt":765.8700000029057,"accuracy":1,"outcome":"+1","keys":[2266.089999990072],"total_keys":1,"block":2,"trial":190,"robot":1,"valence":"win","action":"go","sham":1,"trial_type":"pit-trial","trial_index":204,"time_elapsed":862874,"internal_node_id":"0.0-193.0","task_version":"battery-v0.1"},{"rune":"X","hex":"#3366ff99","correct":-1,"choice":-1,"rt":-1,"accuracy":1,"outcome":"+10","keys":[],"total_keys":0,"block":2,"trial":191,"robot":2,"valence":"win","action":"no-go","sham":0,"trial_type":"pit-trial","trial_index":205,"time_elapsed":866877,"internal_node_id":"0.0-194.0","task_version":"battery-v0.1"},{"rune":"P","hex":"#f73b6a7A","correct":-1,"choice":32,"rt":776.0700000217184,"accuracy":0,"outcome":"-10","keys":[2276.0850000195205],"total_keys":1,"block":2,"trial":192,"robot":4,"valence":"lose","action":"no-go","sham":0,"trial_type":"pit-trial","trial_index":206,"time_elapsed":870356,"internal_node_id":"0.0-195.0","task_version":"battery-v0.1"},{"rune":"C","hex":"#3366ff99","correct":32,"choice":32,"rt":734.6599999582395,"accuracy":1,"outcome":"+10","keys":[2234.809999994468],"total_keys":1,"block":2,"trial":193,"robot":1,"valence":"win","action":"go","sham":0,"trial_type":"pit-trial","trial_index":207,"time_elapsed":873794,"internal_node_id":"0.0-196.0","task_version":"battery-v0.1"},{"rune":"P","hex":"#f73b6a7A","correct":-1,"choice":32,"rt":1120.4900000011548,"accuracy":0,"outcome":"-10","keys":[2621.519999986049],"total_keys":1,"block":2,"trial":194,"robot":4,"valence":"lose","action":"no-go","sham":0,"trial_type":"pit-trial","trial_index":208,"time_elapsed":877618,"internal_node_id":"0.0-197.0","task_version":"battery-v0.1"},{"rune":"Z","hex":"#f73b6a7A","correct":32,"choice":32,"rt":730.5749999941327,"accuracy":1,"outcome":"-1","keys":[2230.7099999743514],"total_keys":1,"block":2,"trial":195,"robot":3,"valence":"lose","action":"go","sham":0,"trial_type":"pit-trial","trial_index":209,"time_elapsed":881051,"internal_node_id":"0.0-198.0","task_version":"battery-v0.1"},{"rune":"X","hex":"#3366ff99","correct":-1,"choice":-1,"rt":-1,"accuracy":1,"outcome":"+10","keys":[],"total_keys":0,"block":2,"trial":196,"robot":2,"valence":"win","action":"no-go","sham":0,"trial_type":"pit-trial","trial_index":210,"time_elapsed":885055,"internal_node_id":"0.0-199.0","task_version":"battery-v0.1"},{"rune":"X","hex":"#3366ff99","correct":-1,"choice":-1,"rt":-1,"accuracy":1,"outcome":"+10","keys":[],"total_keys":0,"block":2,"trial":197,"robot":2,"valence":"win","action":"no-go","sham":0,"trial_type":"pit-trial","trial_index":211,"time_elapsed":889059,"internal_node_id":"0.0-200.0","task_version":"battery-v0.1"},{"rune":"C","hex":"#3366ff99","correct":32,"choice":32,"rt":623.4450000338256,"accuracy":1,"outcome":"+10","keys":[2124.0799999795854],"total_keys":1,"block":2,"trial":198,"robot":1,"valence":"win","action":"go","sham":0,"trial_type":"pit-trial","trial_index":212,"time_elapsed":892388,"internal_node_id":"0.0-201.0","task_version":"battery-v0.1"},{"rune":"P","hex":"#f73b6a7A","correct":-1,"choice":-1,"rt":-1,"accuracy":1,"outcome":"-1","keys":[],"total_keys":0,"block":2,"trial":199,"robot":4,"valence":"lose","action":"no-go","sham":0,"trial_type":"pit-trial","trial_index":213,"time_elapsed":896394,"internal_node_id":"0.0-202.0","task_version":"battery-v0.1"},{"rune":"Z","hex":"#f73b6a7A","correct":32,"choice":32,"rt":843.0800000205636,"accuracy":1,"outcome":"-1","keys":[2344.094999949448],"total_keys":1,"block":2,"trial":200,"robot":3,"valence":"lose","action":"go","sham":0,"trial_type":"pit-trial","trial_index":214,"time_elapsed":899942,"internal_node_id":"0.0-203.0","task_version":"battery-v0.1"},{"rune":"X","hex":"#3366ff99","correct":-1,"choice":32,"rt":859.8900000215508,"accuracy":0,"outcome":"+10","keys":[2360.670000023674],"total_keys":1,"block":2,"trial":201,"robot":2,"valence":"win","action":"no-go","sham":1,"trial_type":"pit-trial","trial_index":215,"time_elapsed":903509,"internal_node_id":"0.0-204.0","task_version":"battery-v0.1"},{"rune":"P","hex":"#f73b6a7A","correct":-1,"choice":-1,"rt":-1,"accuracy":1,"outcome":"-1","keys":[],"total_keys":0,"block":2,"trial":202,"robot":4,"valence":"lose","action":"no-go","sham":0,"trial_type":"pit-trial","trial_index":216,"time_elapsed":907514,"internal_node_id":"0.0-205.0","task_version":"battery-v0.1"},{"rune":"Z","hex":"#f73b6a7A","correct":32,"choice":32,"rt":836.6500000120141,"accuracy":1,"outcome":"-1","keys":[2336.680000007618],"total_keys":1,"block":2,"trial":203,"robot":3,"valence":"lose","action":"go","sham":0,"trial_type":"pit-trial","trial_index":217,"time_elapsed":911053,"internal_node_id":"0.0-206.0","task_version":"battery-v0.1"},{"rune":"C","hex":"#3366ff99","correct":32,"choice":32,"rt":610.0500000175089,"accuracy":1,"outcome":"+10","keys":[2110.1899999775924],"total_keys":1,"block":2,"trial":204,"robot":1,"valence":"win","action":"go","sham":0,"trial_type":"pit-trial","trial_index":218,"time_elapsed":914367,"internal_node_id":"0.0-207.0","task_version":"battery-v0.1"},{"rune":"C","hex":"#3366ff99","correct":32,"choice":32,"rt":667.394999996759,"accuracy":1,"outcome":"+10","keys":[2168.394999986049],"total_keys":1,"block":2,"trial":205,"robot":1,"valence":"win","action":"go","sham":0,"trial_type":"pit-trial","trial_index":219,"time_elapsed":917743,"internal_node_id":"0.0-208.0","task_version":"battery-v0.1"},{"rune":"Z","hex":"#f73b6a7A","correct":32,"choice":32,"rt":767.6499999943189,"accuracy":1,"outcome":"-1","keys":[2267.725000041537],"total_keys":1,"block":2,"trial":206,"robot":3,"valence":"lose","action":"go","sham":0,"trial_type":"pit-trial","trial_index":220,"time_elapsed":921213,"internal_node_id":"0.0-209.0","task_version":"battery-v0.1"},{"rune":"P","hex":"#f73b6a7A","correct":-1,"choice":-1,"rt":-1,"accuracy":1,"outcome":"-10","keys":[],"total_keys":0,"block":2,"trial":207,"robot":4,"valence":"lose","action":"no-go","sham":1,"trial_type":"pit-trial","trial_index":221,"time_elapsed":925218,"internal_node_id":"0.0-210.0","task_version":"battery-v0.1"},{"rune":"X","hex":"#3366ff99","correct":-1,"choice":32,"rt":774.8949999804609,"accuracy":0,"outcome":"+10","keys":[2275.02000000095],"total_keys":1,"block":2,"trial":208,"robot":2,"valence":"win","action":"no-go","sham":1,"trial_type":"pit-trial","trial_index":222,"time_elapsed":928696,"internal_node_id":"0.0-211.0","task_version":"battery-v0.1"},{"rune":"K","hex":"#f73b6a7A","correct":32,"choice":-1,"rt":-1,"accuracy":0,"outcome":"-10","keys":[],"total_keys":0,"block":2,"trial":209,"robot":3,"valence":"lose","action":"go","sham":0,"trial_type":"pit-trial","trial_index":223,"time_elapsed":932699,"internal_node_id":"0.0-212.0","task_version":"battery-v0.1"},{"rune":"C","hex":"#3366ff99","correct":32,"choice":32,"rt":556.7000000155531,"accuracy":1,"outcome":"+10","keys":[2056.8800000473857],"total_keys":1,"block":2,"trial":210,"robot":1,"valence":"win","action":"go","sham":0,"trial_type":"pit-trial","trial_index":224,"time_elapsed":935959,"internal_node_id":"0.0-213.0","task_version":"battery-v0.1"},{"rune":"N","hex":"#3366ff99","correct":-1,"choice":32,"rt":704.7449999954551,"accuracy":0,"outcome":"+1","keys":[2205.779999960214],"total_keys":1,"block":2,"trial":211,"robot":2,"valence":"win","action":"no-go","sham":0,"trial_type":"pit-trial","trial_index":225,"time_elapsed":939372,"internal_node_id":"0.0-214.0","task_version":"battery-v0.1"},{"rune":"Z","hex":"#f73b6a7A","correct":32,"choice":32,"rt":723.3000000123866,"accuracy":1,"outcome":"-1","keys":[2223.7300000269897],"total_keys":1,"block":2,"trial":212,"robot":3,"valence":"lose","action":"go","sham":0,"trial_type":"pit-trial","trial_index":226,"time_elapsed":942798,"internal_node_id":"0.0-215.0","task_version":"battery-v0.1"},{"rune":"Z","hex":"#f73b6a7A","correct":32,"choice":32,"rt":609.8800000036135,"accuracy":1,"outcome":"-10","keys":[2110.0200000219047],"total_keys":1,"block":2,"trial":213,"robot":3,"valence":"lose","action":"go","sham":1,"trial_type":"pit-trial","trial_index":227,"time_elapsed":946111,"internal_node_id":"0.0-216.0","task_version":"battery-v0.1"},{"rune":"N","hex":"#3366ff99","correct":-1,"choice":-1,"rt":-1,"accuracy":1,"outcome":"+1","keys":[],"total_keys":0,"block":2,"trial":214,"robot":2,"valence":"win","action":"no-go","sham":1,"trial_type":"pit-trial","trial_index":228,"time_elapsed":950115,"internal_node_id":"0.0-217.0","task_version":"battery-v0.1"},{"rune":"C","hex":"#3366ff99","correct":32,"choice":32,"rt":783.4750000038184,"accuracy":1,"outcome":"+10","keys":[2284.5000000088476],"total_keys":1,"block":2,"trial":215,"robot":1,"valence":"win","action":"go","sham":0,"trial_type":"pit-trial","trial_index":229,"time_elapsed":953603,"internal_node_id":"0.0-218.0","task_version":"battery-v0.1"},{"rune":"K","hex":"#f73b6a7A","correct":32,"choice":32,"rt":829.6899999841116,"accuracy":1,"outcome":"-1","keys":[2329.764999973122],"total_keys":1,"block":2,"trial":216,"robot":3,"valence":"lose","action":"go","sham":0,"trial_type":"pit-trial","trial_index":230,"time_elapsed":957135,"internal_node_id":"0.0-219.0","task_version":"battery-v0.1"},{"rune":"C","hex":"#3366ff99","correct":32,"choice":32,"rt":728.5549999796785,"accuracy":1,"outcome":"+10","keys":[2229.605000000447],"total_keys":1,"block":2,"trial":217,"robot":1,"valence":"win","action":"go","sham":0,"trial_type":"pit-trial","trial_index":231,"time_elapsed":960568,"internal_node_id":"0.0-220.0","task_version":"battery-v0.1"},{"rune":"Z","hex":"#f73b6a7A","correct":32,"choice":32,"rt":930.6700000306591,"accuracy":1,"outcome":"-1","keys":[2430.7499999995343],"total_keys":1,"block":2,"trial":218,"robot":3,"valence":"lose","action":"go","sham":0,"trial_type":"pit-trial","trial_index":232,"time_elapsed":964201,"internal_node_id":"0.0-221.0","task_version":"battery-v0.1"},{"rune":"K","hex":"#f73b6a7A","correct":32,"choice":32,"rt":705.0550000276417,"accuracy":1,"outcome":"-1","keys":[2206.064999976661],"total_keys":1,"block":2,"trial":219,"robot":3,"valence":"lose","action":"go","sham":0,"trial_type":"pit-trial","trial_index":233,"time_elapsed":967610,"internal_node_id":"0.0-222.0","task_version":"battery-v0.1"},{"rune":"N","hex":"#3366ff99","correct":-1,"choice":32,"rt":669.8249999899417,"accuracy":0,"outcome":"+1","keys":[2170.5049999873154],"total_keys":1,"block":2,"trial":220,"robot":2,"valence":"win","action":"no-go","sham":0,"trial_type":"pit-trial","trial_index":234,"time_elapsed":970985,"internal_node_id":"0.0-223.0","task_version":"battery-v0.1"},{"rune":"C","hex":"#3366ff99","correct":32,"choice":32,"rt":803.1550000305288,"accuracy":1,"outcome":"+10","keys":[2303.814999992028],"total_keys":1,"block":2,"trial":221,"robot":1,"valence":"win","action":"go","sham":0,"trial_type":"pit-trial","trial_index":235,"time_elapsed":974492,"internal_node_id":"0.0-224.0","task_version":"battery-v0.1"},{"rune":"Z","hex":"#f73b6a7A","correct":32,"choice":32,"rt":826.3249999727122,"accuracy":1,"outcome":"-1","keys":[2327.2950000246055],"total_keys":1,"block":2,"trial":222,"robot":3,"valence":"lose","action":"go","sham":0,"trial_type":"pit-trial","trial_index":236,"time_elapsed":978025,"internal_node_id":"0.0-225.0","task_version":"battery-v0.1"},{"rune":"K","hex":"#f73b6a7A","correct":32,"choice":32,"rt":898.4049999853596,"accuracy":1,"outcome":"-1","keys":[2399.154999991879],"total_keys":1,"block":2,"trial":223,"robot":3,"valence":"lose","action":"go","sham":0,"trial_type":"pit-trial","trial_index":237,"time_elapsed":981628,"internal_node_id":"0.0-226.0","task_version":"battery-v0.1"},{"rune":"N","hex":"#3366ff99","correct":-1,"choice":32,"rt":831.6600000252947,"accuracy":0,"outcome":"+10","keys":[2331.6999999806285],"total_keys":1,"block":2,"trial":224,"robot":2,"valence":"win","action":"no-go","sham":1,"trial_type":"pit-trial","trial_index":238,"time_elapsed":985162,"internal_node_id":"0.0-227.0","task_version":"battery-v0.1"},{"rune":"C","hex":"#3366ff99","correct":32,"choice":32,"rt":642.1050000353716,"accuracy":1,"outcome":"+10","keys":[2142.969999986235],"total_keys":1,"block":2,"trial":225,"robot":1,"valence":"win","action":"go","sham":0,"trial_type":"pit-trial","trial_index":239,"time_elapsed":988508,"internal_node_id":"0.0-228.0","task_version":"battery-v0.1"},{"rune":"K","hex":"#f73b6a7A","correct":32,"choice":32,"rt":983.814999985043,"accuracy":1,"outcome":"-10","keys":[2483.974999981001],"total_keys":1,"block":2,"trial":226,"robot":3,"valence":"lose","action":"go","sham":1,"trial_type":"pit-trial","trial_index":240,"time_elapsed":992195,"internal_node_id":"0.0-229.0","task_version":"battery-v0.1"},{"rune":"Z","hex":"#f73b6a7A","correct":32,"choice":32,"rt":836.4499999443069,"accuracy":1,"outcome":"-1","keys":[2337.3649999848567],"total_keys":1,"block":2,"trial":227,"robot":3,"valence":"lose","action":"go","sham":0,"trial_type":"pit-trial","trial_index":241,"time_elapsed":995735,"internal_node_id":"0.0-230.0","task_version":"battery-v0.1"},{"rune":"N","hex":"#3366ff99","correct":-1,"choice":32,"rt":954.5599999837577,"accuracy":0,"outcome":"+1","keys":[2455.2249999833293],"total_keys":1,"block":2,"trial":228,"robot":2,"valence":"win","action":"no-go","sham":0,"trial_type":"pit-trial","trial_index":242,"time_elapsed":999395,"internal_node_id":"0.0-231.0","task_version":"battery-v0.1"},{"rune":"K","hex":"#f73b6a7A","correct":32,"choice":-1,"rt":-1,"accuracy":0,"outcome":"-10","keys":[],"total_keys":0,"block":2,"trial":229,"robot":3,"valence":"lose","action":"go","sham":0,"trial_type":"pit-trial","trial_index":243,"time_elapsed":1003402,"internal_node_id":"0.0-232.0","task_version":"battery-v0.1"},{"rune":"C","hex":"#3366ff99","correct":32,"choice":32,"rt":554.1550000198185,"accuracy":1,"outcome":"+1","keys":[2054.564999998547],"total_keys":1,"block":2,"trial":230,"robot":1,"valence":"win","action":"go","sham":1,"trial_type":"pit-trial","trial_index":244,"time_elapsed":1006663,"internal_node_id":"0.0-233.0","task_version":"battery-v0.1"},{"rune":"N","hex":"#3366ff99","correct":-1,"choice":-1,"rt":-1,"accuracy":1,"outcome":"+10","keys":[],"total_keys":0,"block":2,"trial":231,"robot":2,"valence":"win","action":"no-go","sham":0,"trial_type":"pit-trial","trial_index":245,"time_elapsed":1010669,"internal_node_id":"0.0-234.0","task_version":"battery-v0.1"},{"rune":"Z","hex":"#f73b6a7A","correct":32,"choice":32,"rt":766.185000014957,"accuracy":1,"outcome":"-1","keys":[2267.1649999683723],"total_keys":1,"block":2,"trial":232,"robot":3,"valence":"lose","action":"go","sham":0,"trial_type":"pit-trial","trial_index":246,"time_elapsed":1014139,"internal_node_id":"0.0-235.0","task_version":"battery-v0.1"},{"rune":"K","hex":"#f73b6a7A","correct":32,"choice":-1,"rt":-1,"accuracy":0,"outcome":"-10","keys":[],"total_keys":0,"block":2,"trial":233,"robot":3,"valence":"lose","action":"go","sham":0,"trial_type":"pit-trial","trial_index":247,"time_elapsed":1018144,"internal_node_id":"0.0-236.0","task_version":"battery-v0.1"},{"rune":"Z","hex":"#f73b6a7A","correct":32,"choice":32,"rt":621.259999985341,"accuracy":1,"outcome":"-1","keys":[2122.2700000507757],"total_keys":1,"block":2,"trial":234,"robot":3,"valence":"lose","action":"go","sham":0,"trial_type":"pit-trial","trial_index":248,"time_elapsed":1021471,"internal_node_id":"0.0-237.0","task_version":"battery-v0.1"},{"rune":"C","hex":"#3366ff99","correct":32,"choice":32,"rt":500.43000001460314,"accuracy":1,"outcome":"+10","keys":[2001.3749999925494],"total_keys":1,"block":2,"trial":235,"robot":1,"valence":"win","action":"go","sham":0,"trial_type":"pit-trial","trial_index":249,"time_elapsed":1024675,"internal_node_id":"0.0-238.0","task_version":"battery-v0.1"},{"rune":"N","hex":"#3366ff99","correct":-1,"choice":32,"rt":643.3100000140257,"accuracy":0,"outcome":"+10","keys":[2143.519999983255],"total_keys":1,"block":2,"trial":236,"robot":2,"valence":"win","action":"no-go","sham":1,"trial_type":"pit-trial","trial_index":250,"time_elapsed":1028022,"internal_node_id":"0.0-239.0","task_version":"battery-v0.1"},{"rune":"N","hex":"#3366ff99","correct":-1,"choice":-1,"rt":-1,"accuracy":1,"outcome":"+10","keys":[],"total_keys":0,"block":2,"trial":237,"robot":2,"valence":"win","action":"no-go","sham":0,"trial_type":"pit-trial","trial_index":251,"time_elapsed":1032029,"internal_node_id":"0.0-240.0","task_version":"battery-v0.1"},{"rune":"Z","hex":"#f73b6a7A","correct":32,"choice":32,"rt":584.0949999983422,"accuracy":1,"outcome":"-1","keys":[2084.6199999796227],"total_keys":1,"block":2,"trial":238,"robot":3,"valence":"lose","action":"go","sham":0,"trial_type":"pit-trial","trial_index":252,"time_elapsed":1035317,"internal_node_id":"0.0-241.0","task_version":"battery-v0.1"},{"rune":"C","hex":"#3366ff99","correct":32,"choice":32,"rt":700.6300000357442,"accuracy":1,"outcome":"+1","keys":[2201.574999955483],"total_keys":1,"block":2,"trial":239,"robot":1,"valence":"win","action":"go","sham":1,"trial_type":"pit-trial","trial_index":253,"time_elapsed":1038726,"internal_node_id":"0.0-242.0","task_version":"battery-v0.1"},{"rune":"K","hex":"#f73b6a7A","correct":32,"choice":32,"rt":792.6100000040606,"accuracy":1,"outcome":"-1","keys":[2293.474999954924],"total_keys":1,"block":2,"trial":240,"robot":3,"valence":"lose","action":"go","sham":0,"trial_type":"pit-trial","trial_index":254,"time_elapsed":1042222,"internal_node_id":"0.0-243.0","task_version":"battery-v0.1"},{"view_history":"[{\"page_index\":0,\"viewing_time\":3348.775000020396}]","rt":3349.950000003446,"trial_type":"pit-instructions","trial_index":255,"time_elapsed":1045573,"internal_node_id":"0.0-244.0","task_version":"battery-v0.1"},{"rt":13400.599999993574,"responses":{"age":"37","gender-categorical":"Male","gender-free-response":"","ethnicity":"Not Hispanic or Latino","race":["Black or African American"],"language":"Yes","fluency":"Very well"},"survey":"demographics","trial_type":"survey-demo","trial_index":256,"time_elapsed":1058983,"internal_node_id":"0.0-245.0","task_version":"battery-v0.1"},{"rt":38891.56499999808,"responses":{"difficulty":"5","fun":"4","clarity":"5","strategy":"I just tried to remember what robots needed repair by the symbols and occasionally switched this up.","feedback":"Interesting and somewhat fun."},"survey":"debrief","trial_type":"survey-debrief","trial_index":257,"time_elapsed":1097879,"internal_node_id":"0.0-246.0","task_version":"battery-v0.1","interactions":"[{\"event\":\"blur\",\"trial\":10,\"time\":71421},{\"event\":\"focus\",\"trial\":10,\"time\":74023}]"}]