[{"view_history":"[{\"page_index\":0,\"viewing_time\":4621.720000053756},{\"page_index\":1,\"viewing_time\":5015.949999913573},{\"page_index\":2,\"viewing_time\":3624.0400000242516},{\"page_index\":3,\"viewing_time\":9439.989999984391},{\"page_index\":4,\"viewing_time\":9063.945000059903},{\"page_index\":5,\"viewing_time\":8415.825000032783}]","rt":40182.239999994636,"trial_type":"pit-instructions","trial_index":0,"time_elapsed":40203,"internal_node_id":"0.0-0.0-0.0","task_version":"battery-v0.1"},{"rune":"","hex":"#FFFFF080","correct":32,"choice":-1,"rt":-1,"accuracy":0,"outcome":"+0","keys":[1364.3699999665841],"total_keys":1,"block":0,"trial_type":"pit-trial","trial_index":1,"time_elapsed":44208,"internal_node_id":"0.0-0.0-1.0-0.0","task_version":"battery-v0.1"},{"rune":"","hex":"#FFFFF080","correct":32,"choice":32,"rt":593.1199999758974,"accuracy":1,"outcome":"+10","keys":[2093.20999996271],"total_keys":1,"block":0,"trial_type":"pit-trial","trial_index":2,"time_elapsed":47506,"internal_node_id":"0.0-0.0-1.0-0.1","task_version":"battery-v0.1"},{"rune":"","hex":"#FFFFF080","correct":32,"choice":32,"rt":807.4600000400096,"accuracy":1,"outcome":"+10","keys":[2308.2749999593943],"total_keys":1,"block":0,"trial_type":"pit-trial","trial_index":3,"time_elapsed":51018,"internal_node_id":"0.0-0.0-1.0-0.2","task_version":"battery-v0.1"},{"rune":"","hex":"#FFFFF080","correct":32,"choice":32,"rt":497.3949999548495,"accuracy":1,"outcome":"+10","keys":[1998.1350000016391],"total_keys":1,"block":0,"trial_type":"pit-trial","trial_index":4,"time_elapsed":54220,"internal_node_id":"0.0-0.0-1.0-0.3","task_version":"battery-v0.1"},{"view_history":"[{\"page_index\":0,\"viewing_time\":7548.39999997057}]","rt":7548.704999964684,"trial_type":"pit-instructions","trial_index":5,"time_elapsed":61770,"internal_node_id":"0.0-0.0-2.0","task_version":"battery-v0.1"},{"rune":"","hex":"#FFFFF080","correct":-1,"choice":-1,"rt":-1,"accuracy":1,"outcome":"+10","keys":[],"total_keys":0,"block":0,"trial_type":"pit-trial","trial_index":6,"time_elapsed":65780,"internal_node_id":"0.0-0.0-3.0-0.0","task_version":"battery-v0.1"},{"rune":"","hex":"#FFFFF080","correct":-1,"choice":-1,"rt":-1,"accuracy":1,"outcome":"+10","keys":[],"total_keys":0,"block":0,"trial_type":"pit-trial","trial_index":7,"time_elapsed":69784,"internal_node_id":"0.0-0.0-3.0-0.1","task_version":"battery-v0.1"},{"rune":"","hex":"#FFFFF080","correct":-1,"choice":-1,"rt":-1,"accuracy":1,"outcome":"+10","keys":[],"total_keys":0,"block":0,"trial_type":"pit-trial","trial_index":8,"time_elapsed":73787,"internal_node_id":"0.0-0.0-3.0-0.2","task_version":"battery-v0.1"},{"rune":"","hex":"#FFFFF080","correct":-1,"choice":-1,"rt":-1,"accuracy":1,"outcome":"+10","keys":[],"total_keys":0,"block":0,"trial_type":"pit-trial","trial_index":9,"time_elapsed":77790,"internal_node_id":"0.0-0.0-3.0-0.3","task_version":"battery-v0.1"},{"responses":["Press SPACE","Do nothing"],"num_errors":0,"rt":8090.274999965914,"trial_type":"pit-comprehension","trial_index":10,"time_elapsed":85883,"internal_node_id":"0.0-0.0-4.0","task_version":"battery-v0.1"},{"view_history":"[{\"page_index\":0,\"viewing_time\":8147.344999946654},{\"page_index\":1,\"viewing_time\":6903.8900000741705},{\"page_index\":2,\"viewing_time\":5807.999999960884},{\"page_index\":3,\"viewing_time\":5216.045000008307},{\"page_index\":4,\"viewing_time\":8847.915000049397},{\"page_index\":5,\"viewing_time\":10143.94999993965},{\"page_index\":6,\"viewing_time\":7023.879999993369},{\"page_index\":7,\"viewing_time\":6664.130000048317},{\"page_index\":8,\"viewing_time\":7296.009999932721},{\"page_index\":9,\"viewing_time\":4543.830000096932},{\"page_index\":10,\"viewing_time\":2984.0549998916686}]","rt":73579.40499996766,"trial_type":"pit-instructions","trial_index":11,"time_elapsed":159466,"internal_node_id":"0.0-1.0-0.0","task_version":"battery-v0.1"},{"responses":["+10","-1","True","True"],"num_errors":0,"rt":17438.644999987446,"trial_type":"pit-comprehension","trial_index":12,"time_elapsed":176907,"internal_node_id":"0.0-1.0-1.0","task_version":"battery-v0.1"},{"view_history":"[{\"page_index\":0,\"viewing_time\":3708.5650000954047},{\"page_index\":1,\"viewing_time\":8935.964999953285}]","rt":12644.825000083074,"trial_type":"pit-instructions","trial_index":13,"time_elapsed":189554,"internal_node_id":"0.0-2.0","task_version":"battery-v0.1"},{"rune":"I","hex":"#f73b6a7A","correct":-1,"choice":32,"rt":743.0999999633059,"accuracy":0,"outcome":"-1","keys":[2244.1199999302626],"total_keys":1,"block":1,"trial":1,"robot":4,"valence":"lose","action":"no-go","sham":1,"trial_type":"pit-trial","trial_index":14,"time_elapsed":193002,"internal_node_id":"0.0-3.0","task_version":"battery-v0.1"},{"rune":"B","hex":"#3366ff99","correct":32,"choice":32,"rt":920.8649999927729,"accuracy":1,"outcome":"+10","keys":[2422.1599999582395],"total_keys":1,"block":1,"trial":2,"robot":1,"valence":"win","action":"go","sham":0,"trial_type":"pit-trial","trial_index":15,"time_elapsed":196627,"internal_node_id":"0.0-4.0","task_version":"battery-v0.1"},{"rune":"J","hex":"#3366ff99","correct":32,"choice":-1,"rt":-1,"accuracy":0,"outcome":"+1","keys":[],"total_keys":0,"block":1,"trial":3,"robot":1,"valence":"win","action":"go","sham":0,"trial_type":"pit-trial","trial_index":16,"time_elapsed":200631,"internal_node_id":"0.0-5.0","task_version":"battery-v0.1"},{"rune":"N","hex":"#3366ff99","correct":-1,"choice":32,"rt":835.0000000791624,"accuracy":0,"outcome":"+1","keys":[2336.7350000189617],"total_keys":1,"block":1,"trial":4,"robot":2,"valence":"win","action":"no-go","sham":0,"trial_type":"pit-trial","trial_index":17,"time_elapsed":204170,"internal_node_id":"0.0-6.0","task_version":"battery-v0.1"},{"rune":"N","hex":"#3366ff99","correct":-1,"choice":32,"rt":1090.1350000640377,"accuracy":0,"outcome":"+1","keys":[2590.625000069849],"total_keys":1,"block":1,"trial":5,"robot":2,"valence":"win","action":"no-go","sham":0,"trial_type":"pit-trial","trial_index":18,"time_elapsed":207963,"internal_node_id":"0.0-7.0","task_version":"battery-v0.1"},{"rune":"B","hex":"#3366ff99","correct":32,"choice":32,"rt":1006.2250000191852,"accuracy":1,"outcome":"+10","keys":[2507.179999956861],"total_keys":1,"block":1,"trial":6,"robot":1,"valence":"win","action":"go","sham":0,"trial_type":"pit-trial","trial_index":19,"time_elapsed":211675,"internal_node_id":"0.0-8.0","task_version":"battery-v0.1"},{"rune":"J","hex":"#3366ff99","correct":32,"choice":-1,"rt":-1,"accuracy":0,"outcome":"+1","keys":[],"total_keys":0,"block":1,"trial":7,"robot":1,"valence":"win","action":"go","sham":0,"trial_type":"pit-trial","trial_index":20,"time_elapsed":215680,"internal_node_id":"0.0-9.0","task_version":"battery-v0.1"},{"rune":"I","hex":"#f73b6a7A","correct":-1,"choice":32,"rt":858.47500001546,"accuracy":0,"outcome":"-10","keys":[2358.5549999261275],"total_keys":1,"block":1,"trial":8,"robot":4,"valence":"lose","action":"no-go","sham":0,"trial_type":"pit-trial","trial_index":21,"time_elapsed":219242,"internal_node_id":"0.0-10.0","task_version":"battery-v0.1"},{"rune":"N","hex":"#3366ff99","correct":-1,"choice":32,"rt":1170.15999997966,"accuracy":0,"outcome":"+1","keys":[2670.9399999817833],"total_keys":1,"block":1,"trial":9,"robot":2,"valence":"win","action":"no-go","sham":0,"trial_type":"pit-trial","trial_index":22,"time_elapsed":223115,"internal_node_id":"0.0-11.0","task_version":"battery-v0.1"},{"rune":"B","hex":"#3366ff99","correct":32,"choice":32,"rt":973.5299999592826,"accuracy":1,"outcome":"+10","keys":[2474.220000091009],"total_keys":1,"block":1,"trial":10,"robot":1,"valence":"win","action":"go","sham":0,"trial_type":"pit-trial","trial_index":23,"time_elapsed":226794,"internal_node_id":"0.0-12.0","task_version":"battery-v0.1"},{"rune":"J","hex":"#3366ff99","correct":32,"choice":-1,"rt":-1,"accuracy":0,"outcome":"+1","keys":[],"total_keys":0,"block":1,"trial":11,"robot":1,"valence":"win","action":"go","sham":0,"trial_type":"pit-trial","trial_index":24,"time_elapsed":230802,"internal_node_id":"0.0-13.0","task_version":"battery-v0.1"},{"rune":"I","hex":"#f73b6a7A","correct":-1,"choice":32,"rt":1288.399999961257,"accuracy":0,"outcome":"-10","keys":[2788.789999904111],"total_keys":1,"block":1,"trial":12,"robot":4,"valence":"lose","action":"no-go","sham":0,"trial_type":"pit-trial","trial_index":25,"time_elapsed":234794,"internal_node_id":"0.0-14.0","task_version":"battery-v0.1"},{"rune":"J","hex":"#3366ff99","correct":32,"choice":32,"rt":1049.3400000268593,"accuracy":1,"outcome":"+10","keys":[2550.370000069961],"total_keys":1,"block":1,"trial":13,"robot":1,"valence":"win","action":"go","sham":0,"trial_type":"pit-trial","trial_index":26,"time_elapsed":238548,"internal_node_id":"0.0-15.0","task_version":"battery-v0.1"},{"rune":"N","hex":"#3366ff99","correct":-1,"choice":-1,"rt":-1,"accuracy":1,"outcome":"+1","keys":[],"total_keys":0,"block":1,"trial":14,"robot":2,"valence":"win","action":"no-go","sham":1,"trial_type":"pit-trial","trial_index":27,"time_elapsed":242552,"internal_node_id":"0.0-16.0","task_version":"battery-v0.1"},{"rune":"B","hex":"#3366ff99","correct":32,"choice":32,"rt":866.6799999773502,"accuracy":1,"outcome":"+10","keys":[2368.345000082627],"total_keys":1,"block":1,"trial":15,"robot":1,"valence":"win","action":"go","sham":0,"trial_type":"pit-trial","trial_index":28,"time_elapsed":246124,"internal_node_id":"0.0-17.0","task_version":"battery-v0.1"},{"rune":"I","hex":"#f73b6a7A","correct":-1,"choice":-1,"rt":-1,"accuracy":1,"outcome":"-1","keys":[2985.524999909103],"total_keys":1,"block":1,"trial":16,"robot":4,"valence":"lose","action":"no-go","sham":0,"trial_type":"pit-trial","trial_index":29,"time_elapsed":250129,"internal_node_id":"0.0-18.0","task_version":"battery-v0.1"},{"rune":"N","hex":"#3366ff99","correct":-1,"choice":-1,"rt":-1,"accuracy":1,"outcome":"+10","keys":[2807.0600000210106],"total_keys":1,"block":1,"trial":17,"robot":2,"valence":"win","action":"no-go","sham":0,"trial_type":"pit-trial","trial_index":30,"time_elapsed":254132,"internal_node_id":"0.0-19.0","task_version":"battery-v0.1"},{"rune":"I","hex":"#f73b6a7A","correct":-1,"choice":-1,"rt":-1,"accuracy":1,"outcome":"-1","keys":[],"total_keys":0,"block":1,"trial":18,"robot":4,"valence":"lose","action":"no-go","sham":0,"trial_type":"pit-trial","trial_index":31,"time_elapsed":258137,"internal_node_id":"0.0-20.0","task_version":"battery-v0.1"},{"rune":"B","hex":"#3366ff99","correct":32,"choice":32,"rt":600.4650000249967,"accuracy":1,"outcome":"+1","keys":[2100.9199999971315],"total_keys":1,"block":1,"trial":19,"robot":1,"valence":"win","action":"go","sham":1,"trial_type":"pit-trial","trial_index":32,"time_elapsed":261442,"internal_node_id":"0.0-21.0","task_version":"battery-v0.1"},{"rune":"J","hex":"#3366ff99","correct":32,"choice":32,"rt":1145.3399999300018,"accuracy":1,"outcome":"+10","keys":[2645.4299999168143],"total_keys":1,"block":1,"trial":20,"robot":1,"valence":"win","action":"go","sham":0,"trial_type":"pit-trial","trial_index":33,"time_elapsed":265290,"internal_node_id":"0.0-22.0","task_version":"battery-v0.1"},{"rune":"N","hex":"#3366ff99","correct":-1,"choice":32,"rt":952.1500000264496,"accuracy":0,"outcome":"+10","keys":[2452.3449999978766],"total_keys":1,"block":1,"trial":21,"robot":2,"valence":"win","action":"no-go","sham":1,"trial_type":"pit-trial","trial_index":34,"time_elapsed":268945,"internal_node_id":"0.0-23.0","task_version":"battery-v0.1"},{"rune":"J","hex":"#3366ff99","correct":32,"choice":-1,"rt":-1,"accuracy":0,"outcome":"+10","keys":[],"total_keys":0,"block":1,"trial":22,"robot":1,"valence":"win","action":"go","sham":1,"trial_type":"pit-trial","trial_index":35,"time_elapsed":272949,"internal_node_id":"0.0-24.0","task_version":"battery-v0.1"},{"rune":"I","hex":"#f73b6a7A","correct":-1,"choice":-1,"rt":-1,"accuracy":1,"outcome":"-1","keys":[2819.740000064485],"total_keys":1,"block":1,"trial":23,"robot":4,"valence":"lose","action":"no-go","sham":0,"trial_type":"pit-trial","trial_index":36,"time_elapsed":276953,"internal_node_id":"0.0-25.0","task_version":"battery-v0.1"},{"rune":"B","hex":"#3366ff99","correct":32,"choice":32,"rt":1063.5600000387058,"accuracy":1,"outcome":"+1","keys":[2565.3049999382347],"total_keys":1,"block":1,"trial":24,"robot":1,"valence":"win","action":"go","sham":1,"trial_type":"pit-trial","trial_index":37,"time_elapsed":280721,"internal_node_id":"0.0-26.0","task_version":"battery-v0.1"},{"rune":"B","hex":"#3366ff99","correct":32,"choice":-1,"rt":-1,"accuracy":0,"outcome":"+1","keys":[],"total_keys":0,"block":1,"trial":25,"robot":1,"valence":"win","action":"go","sham":0,"trial_type":"pit-trial","trial_index":38,"time_elapsed":284726,"internal_node_id":"0.0-27.0","task_version":"battery-v0.1"},{"rune":"N","hex":"#3366ff99","correct":-1,"choice":32,"rt":716.4600000251085,"accuracy":0,"outcome":"+1","keys":[2217.38499996718],"total_keys":1,"block":1,"trial":26,"robot":2,"valence":"win","action":"no-go","sham":0,"trial_type":"pit-trial","trial_index":39,"time_elapsed":288145,"internal_node_id":"0.0-28.0","task_version":"battery-v0.1"},{"rune":"I","hex":"#f73b6a7A","correct":-1,"choice":-1,"rt":-1,"accuracy":1,"outcome":"-10","keys":[],"total_keys":0,"block":1,"trial":27,"robot":4,"valence":"lose","action":"no-go","sham":1,"trial_type":"pit-trial","trial_index":40,"time_elapsed":292148,"internal_node_id":"0.0-29.0","task_version":"battery-v0.1"},{"rune":"J","hex":"#3366ff99","correct":32,"choice":32,"rt":853.8199999602512,"accuracy":1,"outcome":"+10","keys":[2353.8499999558553],"total_keys":1,"block":1,"trial":28,"robot":1,"valence":"win","action":"go","sham":0,"trial_type":"pit-trial","trial_index":41,"time_elapsed":295707,"internal_node_id":"0.0-30.0","task_version":"battery-v0.1"},{"rune":"J","hex":"#3366ff99","correct":32,"choice":32,"rt":951.3499999884516,"accuracy":1,"outcome":"+1","keys":[2452.2000000579283],"total_keys":1,"block":1,"trial":29,"robot":1,"valence":"win","action":"go","sham":1,"trial_type":"pit-trial","trial_index":42,"time_elapsed":299364,"internal_node_id":"0.0-31.0","task_version":"battery-v0.1"},{"rune":"I","hex":"#f73b6a7A","correct":-1,"choice":32,"rt":828.3750000409782,"accuracy":0,"outcome":"-10","keys":[2329.700000002049],"total_keys":1,"block":1,"trial":30,"robot":4,"valence":"lose","action":"no-go","sham":0,"trial_type":"pit-trial","trial_index":43,"time_elapsed":302898,"internal_node_id":"0.0-32.0","task_version":"battery-v0.1"},{"rune":"N","hex":"#3366ff99","correct":-1,"choice":32,"rt":694.9099999619648,"accuracy":0,"outcome":"+1","keys":[2196.0100000724196],"total_keys":1,"block":1,"trial":31,"robot":2,"valence":"win","action":"no-go","sham":0,"trial_type":"pit-trial","trial_index":44,"time_elapsed":306297,"internal_node_id":"0.0-33.0","task_version":"battery-v0.1"},{"rune":"B","hex":"#3366ff99","correct":32,"choice":32,"rt":614.3099999753758,"accuracy":1,"outcome":"+10","keys":[2115.9099999349564],"total_keys":1,"block":1,"trial":32,"robot":1,"valence":"win","action":"go","sham":0,"trial_type":"pit-trial","trial_index":45,"time_elapsed":309617,"internal_node_id":"0.0-34.0","task_version":"battery-v0.1"},{"rune":"I","hex":"#f73b6a7A","correct":-1,"choice":-1,"rt":-1,"accuracy":1,"outcome":"-1","keys":[],"total_keys":0,"block":1,"trial":33,"robot":4,"valence":"lose","action":"no-go","sham":0,"trial_type":"pit-trial","trial_index":46,"time_elapsed":313621,"internal_node_id":"0.0-35.0","task_version":"battery-v0.1"},{"rune":"J","hex":"#3366ff99","correct":32,"choice":32,"rt":853.7900000810623,"accuracy":1,"outcome":"+10","keys":[2354.0450000436977],"total_keys":1,"block":1,"trial":34,"robot":1,"valence":"win","action":"go","sham":0,"trial_type":"pit-trial","trial_index":47,"time_elapsed":317177,"internal_node_id":"0.0-36.0","task_version":"battery-v0.1"},{"rune":"N","hex":"#3366ff99","correct":-1,"choice":-1,"rt":-1,"accuracy":1,"outcome":"+10","keys":[],"total_keys":0,"block":1,"trial":35,"robot":2,"valence":"win","action":"no-go","sham":0,"trial_type":"pit-trial","trial_index":48,"time_elapsed":321180,"internal_node_id":"0.0-37.0","task_version":"battery-v0.1"},{"rune":"P","hex":"#3366ff99","correct":32,"choice":32,"rt":1037.2649999335408,"accuracy":1,"outcome":"+10","keys":[2537.5450000865385],"total_keys":1,"block":1,"trial":36,"robot":1,"valence":"win","action":"go","sham":0,"trial_type":"pit-trial","trial_index":49,"time_elapsed":324921,"internal_node_id":"0.0-38.0","task_version":"battery-v0.1"},{"rune":"I","hex":"#f73b6a7A","correct":-1,"choice":32,"rt":1217.4400000367314,"accuracy":0,"outcome":"-10","keys":[2717.939999885857],"total_keys":1,"block":1,"trial":37,"robot":4,"valence":"lose","action":"no-go","sham":0,"trial_type":"pit-trial","trial_index":50,"time_elapsed":328842,"internal_node_id":"0.0-39.0","task_version":"battery-v0.1"},{"rune":"J","hex":"#3366ff99","correct":32,"choice":32,"rt":967.9449999239296,"accuracy":1,"outcome":"+1","keys":[2468.4950000373647],"total_keys":1,"block":1,"trial":38,"robot":1,"valence":"win","action":"go","sham":1,"trial_type":"pit-trial","trial_index":51,"time_elapsed":332515,"internal_node_id":"0.0-40.0","task_version":"battery-v0.1"},{"rune":"P","hex":"#3366ff99","correct":32,"choice":32,"rt":1060.9150000382215,"accuracy":1,"outcome":"+10","keys":[2561.6349999327213],"total_keys":1,"block":1,"trial":39,"robot":1,"valence":"win","action":"go","sham":0,"trial_type":"pit-trial","trial_index":52,"time_elapsed":336282,"internal_node_id":"0.0-41.0","task_version":"battery-v0.1"},{"rune":"N","hex":"#3366ff99","correct":-1,"choice":32,"rt":783.6799999931827,"accuracy":0,"outcome":"+1","keys":[2284.0050000231713],"total_keys":1,"block":1,"trial":40,"robot":2,"valence":"win","action":"no-go","sham":0,"trial_type":"pit-trial","trial_index":53,"time_elapsed":339770,"internal_node_id":"0.0-42.0","task_version":"battery-v0.1"},{"rune":"K","hex":"#f73b6a7A","correct":-1,"choice":32,"rt":1191.105000092648,"accuracy":0,"outcome":"-10","keys":[2691.9550000457093],"total_keys":1,"block":1,"trial":41,"robot":4,"valence":"lose","action":"no-go","sham":0,"trial_type":"pit-trial","trial_index":54,"time_elapsed":343665,"internal_node_id":"0.0-43.0","task_version":"battery-v0.1"},{"rune":"Y","hex":"#f73b6a7A","correct":32,"choice":32,"rt":928.249999997206,"accuracy":1,"outcome":"-10","keys":[2429.850000073202],"total_keys":1,"block":1,"trial":42,"robot":3,"valence":"lose","action":"go","sham":1,"trial_type":"pit-trial","trial_index":55,"time_elapsed":347298,"internal_node_id":"0.0-44.0","task_version":"battery-v0.1"},{"rune":"N","hex":"#3366ff99","correct":-1,"choice":32,"rt":936.0199999064207,"accuracy":0,"outcome":"+1","keys":[2437.664999975823],"total_keys":1,"block":1,"trial":43,"robot":2,"valence":"win","action":"no-go","sham":0,"trial_type":"pit-trial","trial_index":56,"time_elapsed":350939,"internal_node_id":"0.0-45.0","task_version":"battery-v0.1"},{"rune":"P","hex":"#3366ff99","correct":32,"choice":32,"rt":981.8650000961497,"accuracy":1,"outcome":"+10","keys":[2482.2500000009313],"total_keys":1,"block":1,"trial":44,"robot":1,"valence":"win","action":"go","sham":0,"trial_type":"pit-trial","trial_index":57,"time_elapsed":354626,"internal_node_id":"0.0-46.0","task_version":"battery-v0.1"},{"rune":"N","hex":"#3366ff99","correct":-1,"choice":32,"rt":822.1999999368563,"accuracy":0,"outcome":"+1","keys":[2322.4499999778345],"total_keys":1,"block":1,"trial":45,"robot":2,"valence":"win","action":"no-go","sham":0,"trial_type":"pit-trial","trial_index":58,"time_elapsed":358152,"internal_node_id":"0.0-47.0","task_version":"battery-v0.1"},{"rune":"K","hex":"#f73b6a7A","correct":-1,"choice":-1,"rt":-1,"accuracy":1,"outcome":"-1","keys":[],"total_keys":0,"block":1,"trial":46,"robot":4,"valence":"lose","action":"no-go","sham":0,"trial_type":"pit-trial","trial_index":59,"time_elapsed":362157,"internal_node_id":"0.0-48.0","task_version":"battery-v0.1"},{"rune":"Y","hex":"#f73b6a7A","correct":32,"choice":-1,"rt":-1,"accuracy":0,"outcome":"-10","keys":[],"total_keys":0,"block":1,"trial":47,"robot":3,"valence":"lose","action":"go","sham":0,"trial_type":"pit-trial","trial_index":60,"time_elapsed":366163,"internal_node_id":"0.0-49.0","task_version":"battery-v0.1"},{"rune":"P","hex":"#3366ff99","correct":32,"choice":32,"rt":668.5350000625476,"accuracy":1,"outcome":"+10","keys":[2169.110000017099],"total_keys":1,"block":1,"trial":48,"robot":1,"valence":"win","action":"go","sham":0,"trial_type":"pit-trial","trial_index":61,"time_elapsed":369536,"internal_node_id":"0.0-50.0","task_version":"battery-v0.1"},{"rune":"Y","hex":"#f73b6a7A","correct":32,"choice":32,"rt":1202.9549999861047,"accuracy":1,"outcome":"-1","keys":[2703.2299999846146],"total_keys":1,"block":1,"trial":49,"robot":3,"valence":"lose","action":"go","sham":0,"trial_type":"pit-trial","trial_index":62,"time_elapsed":373442,"internal_node_id":"0.0-51.0","task_version":"battery-v0.1"},{"rune":"K","hex":"#f73b6a7A","correct":-1,"choice":-1,"rt":-1,"accuracy":1,"outcome":"-1","keys":[2802.445000037551],"total_keys":1,"block":1,"trial":50,"robot":4,"valence":"lose","action":"no-go","sham":0,"trial_type":"pit-trial","trial_index":63,"time_elapsed":377447,"internal_node_id":"0.0-52.0","task_version":"battery-v0.1"},{"rune":"P","hex":"#3366ff99","correct":32,"choice":32,"rt":825.5949999438599,"accuracy":1,"outcome":"+10","keys":[2325.9549998911098],"total_keys":1,"block":1,"trial":51,"robot":1,"valence":"win","action":"go","sham":0,"trial_type":"pit-trial","trial_index":64,"time_elapsed":380977,"internal_node_id":"0.0-53.0","task_version":"battery-v0.1"},{"rune":"H","hex":"#3366ff99","correct":-1,"choice":-1,"rt":-1,"accuracy":1,"outcome":"+10","keys":[],"total_keys":0,"block":1,"trial":52,"robot":2,"valence":"win","action":"no-go","sham":0,"trial_type":"pit-trial","trial_index":65,"time_elapsed":384982,"internal_node_id":"0.0-54.0","task_version":"battery-v0.1"},{"rune":"H","hex":"#3366ff99","correct":-1,"choice":-1,"rt":-1,"accuracy":1,"outcome":"+10","keys":[],"total_keys":0,"block":1,"trial":53,"robot":2,"valence":"win","action":"no-go","sham":0,"trial_type":"pit-trial","trial_index":66,"time_elapsed":388987,"internal_node_id":"0.0-55.0","task_version":"battery-v0.1"},{"rune":"P","hex":"#3366ff99","correct":32,"choice":32,"rt":704.0050000650808,"accuracy":1,"outcome":"+10","keys":[2204.4499999610707],"total_keys":1,"block":1,"trial":54,"robot":1,"valence":"win","action":"go","sham":0,"trial_type":"pit-trial","trial_index":67,"time_elapsed":392395,"internal_node_id":"0.0-56.0","task_version":"battery-v0.1"},{"rune":"Y","hex":"#f73b6a7A","correct":32,"choice":-1,"rt":-1,"accuracy":0,"outcome":"-1","keys":[],"total_keys":0,"block":1,"trial":55,"robot":3,"valence":"lose","action":"go","sham":1,"trial_type":"pit-trial","trial_index":68,"time_elapsed":396400,"internal_node_id":"0.0-57.0","task_version":"battery-v0.1"},{"rune":"K","hex":"#f73b6a7A","correct":-1,"choice":32,"rt":840.2249999344349,"accuracy":0,"outcome":"-10","keys":[2340.684999944642],"total_keys":1,"block":1,"trial":56,"robot":4,"valence":"lose","action":"no-go","sham":0,"trial_type":"pit-trial","trial_index":69,"time_elapsed":399945,"internal_node_id":"0.0-58.0","task_version":"battery-v0.1"},{"rune":"Y","hex":"#f73b6a7A","correct":32,"choice":-1,"rt":-1,"accuracy":0,"outcome":"-10","keys":[],"total_keys":0,"block":1,"trial":57,"robot":3,"valence":"lose","action":"go","sham":0,"trial_type":"pit-trial","trial_index":70,"time_elapsed":403949,"internal_node_id":"0.0-59.0","task_version":"battery-v0.1"},{"rune":"K","hex":"#f73b6a7A","correct":-1,"choice":-1,"rt":-1,"accuracy":1,"outcome":"-10","keys":[],"total_keys":0,"block":1,"trial":58,"robot":4,"valence":"lose","action":"no-go","sham":1,"trial_type":"pit-trial","trial_index":71,"time_elapsed":407954,"internal_node_id":"0.0-60.0","task_version":"battery-v0.1"},{"rune":"H","hex":"#3366ff99","correct":-1,"choice":32,"rt":807.0900000166148,"accuracy":0,"outcome":"+10","keys":[2308.6399999447167],"total_keys":1,"block":1,"trial":59,"robot":2,"valence":"win","action":"no-go","sham":1,"trial_type":"pit-trial","trial_index":72,"time_elapsed":411464,"internal_node_id":"0.0-61.0","task_version":"battery-v0.1"},{"rune":"P","hex":"#3366ff99","correct":32,"choice":32,"rt":737.8099999623373,"accuracy":1,"outcome":"+10","keys":[2238.6100000003353],"total_keys":1,"block":1,"trial":60,"robot":1,"valence":"win","action":"go","sham":0,"trial_type":"pit-trial","trial_index":73,"time_elapsed":414905,"internal_node_id":"0.0-62.0","task_version":"battery-v0.1"},{"rune":"H","hex":"#3366ff99","correct":-1,"choice":32,"rt":576.8999999854714,"accuracy":0,"outcome":"+1","keys":[2077.6599999517202],"total_keys":1,"block":1,"trial":61,"robot":2,"valence":"win","action":"no-go","sham":0,"trial_type":"pit-trial","trial_index":74,"time_elapsed":418186,"internal_node_id":"0.0-63.0","task_version":"battery-v0.1"},{"rune":"K","hex":"#f73b6a7A","correct":-1,"choice":32,"rt":893.6400000238791,"accuracy":0,"outcome":"-10","keys":[2395.0049999402836],"total_keys":1,"block":1,"trial":62,"robot":4,"valence":"lose","action":"no-go","sham":0,"trial_type":"pit-trial","trial_index":75,"time_elapsed":421784,"internal_node_id":"0.0-64.0","task_version":"battery-v0.1"},{"rune":"P","hex":"#3366ff99","correct":32,"choice":32,"rt":608.3050000015646,"accuracy":1,"outcome":"+10","keys":[2110.08499993477],"total_keys":1,"block":1,"trial":63,"robot":1,"valence":"win","action":"go","sham":0,"trial_type":"pit-trial","trial_index":76,"time_elapsed":425097,"internal_node_id":"0.0-65.0","task_version":"battery-v0.1"},{"rune":"Y","hex":"#f73b6a7A","correct":32,"choice":-1,"rt":-1,"accuracy":0,"outcome":"-10","keys":[],"total_keys":0,"block":1,"trial":64,"robot":3,"valence":"lose","action":"go","sham":0,"trial_type":"pit-trial","trial_index":77,"time_elapsed":429101,"internal_node_id":"0.0-66.0","task_version":"battery-v0.1"},{"rune":"H","hex":"#3366ff99","correct":-1,"choice":32,"rt":547.4049999611452,"accuracy":0,"outcome":"+1","keys":[2047.9300000006333],"total_keys":1,"block":1,"trial":65,"robot":2,"valence":"win","action":"no-go","sham":0,"trial_type":"pit-trial","trial_index":78,"time_elapsed":432354,"internal_node_id":"0.0-67.0","task_version":"battery-v0.1"},{"rune":"K","hex":"#f73b6a7A","correct":-1,"choice":-1,"rt":-1,"accuracy":1,"outcome":"-1","keys":[],"total_keys":0,"block":1,"trial":66,"robot":4,"valence":"lose","action":"no-go","sham":0,"trial_type":"pit-trial","trial_index":79,"time_elapsed":436357,"internal_node_id":"0.0-68.0","task_version":"battery-v0.1"},{"rune":"Y","hex":"#f73b6a7A","correct":32,"choice":-1,"rt":-1,"accuracy":0,"outcome":"-10","keys":[3032.4049999471754],"total_keys":1,"block":1,"trial":67,"robot":3,"valence":"lose","action":"go","sham":0,"trial_type":"pit-trial","trial_index":80,"time_elapsed":440360,"internal_node_id":"0.0-69.0","task_version":"battery-v0.1"},{"rune":"P","hex":"#3366ff99","correct":32,"choice":32,"rt":777.9699999373406,"accuracy":1,"outcome":"+10","keys":[2278.6700000287965],"total_keys":1,"block":1,"trial":68,"robot":1,"valence":"win","action":"go","sham":0,"trial_type":"pit-trial","trial_index":81,"time_elapsed":443842,"internal_node_id":"0.0-70.0","task_version":"battery-v0.1"},{"rune":"Y","hex":"#f73b6a7A","correct":32,"choice":32,"rt":926.0149999754503,"accuracy":1,"outcome":"-1","keys":[2426.949999993667],"total_keys":1,"block":1,"trial":69,"robot":3,"valence":"lose","action":"go","sham":0,"trial_type":"pit-trial","trial_index":82,"time_elapsed":447473,"internal_node_id":"0.0-71.0","task_version":"battery-v0.1"},{"rune":"P","hex":"#3366ff99","correct":32,"choice":32,"rt":630.6300000287592,"accuracy":1,"outcome":"+10","keys":[2131.9300000322983],"total_keys":1,"block":1,"trial":70,"robot":1,"valence":"win","action":"go","sham":0,"trial_type":"pit-trial","trial_index":83,"time_elapsed":450808,"internal_node_id":"0.0-72.0","task_version":"battery-v0.1"},{"rune":"H","hex":"#3366ff99","correct":-1,"choice":32,"rt":961.4150000270456,"accuracy":0,"outcome":"+1","keys":[2462.3549999669194],"total_keys":1,"block":1,"trial":71,"robot":2,"valence":"win","action":"no-go","sham":0,"trial_type":"pit-trial","trial_index":84,"time_elapsed":454472,"internal_node_id":"0.0-73.0","task_version":"battery-v0.1"},{"rune":"K","hex":"#f73b6a7A","correct":-1,"choice":32,"rt":1041.4099999470636,"accuracy":0,"outcome":"-10","keys":[2542.4549999879673],"total_keys":1,"block":1,"trial":72,"robot":4,"valence":"lose","action":"no-go","sham":0,"trial_type":"pit-trial","trial_index":85,"time_elapsed":458227,"internal_node_id":"0.0-74.0","task_version":"battery-v0.1"},{"rune":"F","hex":"#f73b6a7A","correct":32,"choice":32,"rt":998.3200000133365,"accuracy":1,"outcome":"-1","keys":[2498.5399999422953],"total_keys":1,"block":1,"trial":73,"robot":3,"valence":"lose","action":"go","sham":0,"trial_type":"pit-trial","trial_index":86,"time_elapsed":461928,"internal_node_id":"0.0-75.0","task_version":"battery-v0.1"},{"rune":"H","hex":"#3366ff99","correct":-1,"choice":32,"rt":753.4400000004098,"accuracy":0,"outcome":"+1","keys":[2254.160000011325],"total_keys":1,"block":1,"trial":74,"robot":2,"valence":"win","action":"no-go","sham":0,"trial_type":"pit-trial","trial_index":87,"time_elapsed":465386,"internal_node_id":"0.0-76.0","task_version":"battery-v0.1"},{"rune":"P","hex":"#3366ff99","correct":32,"choice":32,"rt":447.5349999265745,"accuracy":1,"outcome":"+10","keys":[1948.1800000648946],"total_keys":1,"block":1,"trial":75,"robot":1,"valence":"win","action":"go","sham":0,"trial_type":"pit-trial","trial_index":88,"time_elapsed":468538,"internal_node_id":"0.0-77.0","task_version":"battery-v0.1"},{"rune":"K","hex":"#f73b6a7A","correct":-1,"choice":32,"rt":822.745000012219,"accuracy":0,"outcome":"-10","keys":[2322.855000034906],"total_keys":1,"block":1,"trial":76,"robot":4,"valence":"lose","action":"no-go","sham":0,"trial_type":"pit-trial","trial_index":89,"time_elapsed":472064,"internal_node_id":"0.0-78.0","task_version":"battery-v0.1"},{"rune":"H","hex":"#3366ff99","correct":-1,"choice":32,"rt":737.8449999960139,"accuracy":0,"outcome":"+1","keys":[2238.63000003621],"total_keys":1,"block":1,"trial":77,"robot":2,"valence":"win","action":"no-go","sham":0,"trial_type":"pit-trial","trial_index":90,"time_elapsed":475505,"internal_node_id":"0.0-79.0","task_version":"battery-v0.1"},{"rune":"P","hex":"#3366ff99","correct":32,"choice":32,"rt":670.8199999993667,"accuracy":1,"outcome":"+10","keys":[2172.7099999552593],"total_keys":1,"block":1,"trial":78,"robot":1,"valence":"win","action":"go","sham":0,"trial_type":"pit-trial","trial_index":91,"time_elapsed":478881,"internal_node_id":"0.0-80.0","task_version":"battery-v0.1"},{"rune":"F","hex":"#f73b6a7A","correct":32,"choice":-1,"rt":-1,"accuracy":0,"outcome":"-1","keys":[],"total_keys":0,"block":1,"trial":79,"robot":3,"valence":"lose","action":"go","sham":1,"trial_type":"pit-trial","trial_index":92,"time_elapsed":482884,"internal_node_id":"0.0-81.0","task_version":"battery-v0.1"},{"rune":"K","hex":"#f73b6a7A","correct":-1,"choice":-1,"rt":-1,"accuracy":1,"outcome":"-10","keys":[],"total_keys":0,"block":1,"trial":80,"robot":4,"valence":"lose","action":"no-go","sham":1,"trial_type":"pit-trial","trial_index":93,"time_elapsed":486887,"internal_node_id":"0.0-82.0","task_version":"battery-v0.1"},{"rune":"K","hex":"#f73b6a7A","correct":-1,"choice":32,"rt":1176.439999951981,"accuracy":0,"outcome":"-10","keys":[2677.830000058748],"total_keys":1,"block":1,"trial":81,"robot":4,"valence":"lose","action":"no-go","sham":0,"trial_type":"pit-trial","trial_index":94,"time_elapsed":490768,"internal_node_id":"0.0-83.0","task_version":"battery-v0.1"},{"rune":"F","hex":"#f73b6a7A","correct":32,"choice":32,"rt":730.1649999571964,"accuracy":1,"outcome":"-1","keys":[2230.459999991581],"total_keys":1,"block":1,"trial":82,"robot":3,"valence":"lose","action":"go","sham":0,"trial_type":"pit-trial","trial_index":95,"time_elapsed":494203,"internal_node_id":"0.0-84.0","task_version":"battery-v0.1"},{"rune":"L","hex":"#f73b6a7A","correct":32,"choice":32,"rt":837.7049999544397,"accuracy":1,"outcome":"-1","keys":[2337.7950000576675],"total_keys":1,"block":1,"trial":83,"robot":3,"valence":"lose","action":"go","sham":0,"trial_type":"pit-trial","trial_index":96,"time_elapsed":497746,"internal_node_id":"0.0-85.0","task_version":"battery-v0.1"},{"rune":"H","hex":"#3366ff99","correct":-1,"choice":-1,"rt":-1,"accuracy":1,"outcome":"+10","keys":[],"total_keys":0,"block":1,"trial":84,"robot":2,"valence":"win","action":"no-go","sham":0,"trial_type":"pit-trial","trial_index":97,"time_elapsed":501749,"internal_node_id":"0.0-86.0","task_version":"battery-v0.1"},{"rune":"H","hex":"#3366ff99","correct":-1,"choice":-1,"rt":-1,"accuracy":1,"outcome":"+10","keys":[],"total_keys":0,"block":1,"trial":85,"robot":2,"valence":"win","action":"no-go","sham":0,"trial_type":"pit-trial","trial_index":98,"time_elapsed":505753,"internal_node_id":"0.0-87.0","task_version":"battery-v0.1"},{"rune":"F","hex":"#f73b6a7A","correct":32,"choice":32,"rt":919.6650000521913,"accuracy":1,"outcome":"-10","keys":[2421.4250000659376],"total_keys":1,"block":1,"trial":86,"robot":3,"valence":"lose","action":"go","sham":1,"trial_type":"pit-trial","trial_index":99,"time_elapsed":509376,"internal_node_id":"0.0-88.0","task_version":"battery-v0.1"},{"rune":"L","hex":"#f73b6a7A","correct":32,"choice":-1,"rt":-1,"accuracy":0,"outcome":"-10","keys":[],"total_keys":0,"block":1,"trial":87,"robot":3,"valence":"lose","action":"go","sham":0,"trial_type":"pit-trial","trial_index":100,"time_elapsed":513380,"internal_node_id":"0.0-89.0","task_version":"battery-v0.1"},{"rune":"K","hex":"#f73b6a7A","correct":-1,"choice":32,"rt":765.5250000534579,"accuracy":0,"outcome":"-10","keys":[2265.7449999824166],"total_keys":1,"block":1,"trial":88,"robot":4,"valence":"lose","action":"no-go","sham":0,"trial_type":"pit-trial","trial_index":101,"time_elapsed":516848,"internal_node_id":"0.0-90.0","task_version":"battery-v0.1"},{"rune":"F","hex":"#f73b6a7A","correct":32,"choice":-1,"rt":-1,"accuracy":0,"outcome":"-10","keys":[],"total_keys":0,"block":1,"trial":89,"robot":3,"valence":"lose","action":"go","sham":0,"trial_type":"pit-trial","trial_index":102,"time_elapsed":520852,"internal_node_id":"0.0-91.0","task_version":"battery-v0.1"},{"rune":"C","hex":"#f73b6a7A","correct":-1,"choice":32,"rt":597.2500001080334,"accuracy":0,"outcome":"-10","keys":[2097.895000013523],"total_keys":1,"block":1,"trial":90,"robot":4,"valence":"lose","action":"no-go","sham":0,"trial_type":"pit-trial","trial_index":103,"time_elapsed":524153,"internal_node_id":"0.0-92.0","task_version":"battery-v0.1"},{"rune":"W","hex":"#3366ff99","correct":-1,"choice":32,"rt":606.6850000061095,"accuracy":0,"outcome":"+1","keys":[2106.7100000800565],"total_keys":1,"block":1,"trial":91,"robot":2,"valence":"win","action":"no-go","sham":0,"trial_type":"pit-trial","trial_index":104,"time_elapsed":527464,"internal_node_id":"0.0-93.0","task_version":"battery-v0.1"},{"rune":"L","hex":"#f73b6a7A","correct":32,"choice":32,"rt":698.4449999872595,"accuracy":1,"outcome":"-10","keys":[2198.699999949895],"total_keys":1,"block":1,"trial":92,"robot":3,"valence":"lose","action":"go","sham":1,"trial_type":"pit-trial","trial_index":105,"time_elapsed":530866,"internal_node_id":"0.0-94.0","task_version":"battery-v0.1"},{"rune":"L","hex":"#f73b6a7A","correct":32,"choice":-1,"rt":-1,"accuracy":0,"outcome":"-1","keys":[],"total_keys":0,"block":1,"trial":93,"robot":3,"valence":"lose","action":"go","sham":1,"trial_type":"pit-trial","trial_index":106,"time_elapsed":534871,"internal_node_id":"0.0-95.0","task_version":"battery-v0.1"},{"rune":"C","hex":"#f73b6a7A","correct":-1,"choice":32,"rt":688.4599999757484,"accuracy":0,"outcome":"-10","keys":[2189.6399999968708],"total_keys":1,"block":1,"trial":94,"robot":4,"valence":"lose","action":"no-go","sham":0,"trial_type":"pit-trial","trial_index":107,"time_elapsed":538263,"internal_node_id":"0.0-96.0","task_version":"battery-v0.1"},{"rune":"W","hex":"#3366ff99","correct":-1,"choice":32,"rt":802.1949999965727,"accuracy":0,"outcome":"+1","keys":[2302.629999932833],"total_keys":1,"block":1,"trial":95,"robot":2,"valence":"win","action":"no-go","sham":0,"trial_type":"pit-trial","trial_index":108,"time_elapsed":541768,"internal_node_id":"0.0-97.0","task_version":"battery-v0.1"},{"rune":"F","hex":"#f73b6a7A","correct":32,"choice":-1,"rt":-1,"accuracy":0,"outcome":"-1","keys":[],"total_keys":0,"block":1,"trial":96,"robot":3,"valence":"lose","action":"go","sham":1,"trial_type":"pit-trial","trial_index":109,"time_elapsed":545772,"internal_node_id":"0.0-98.0","task_version":"battery-v0.1"},{"rune":"W","hex":"#3366ff99","correct":-1,"choice":32,"rt":908.1800000276417,"accuracy":0,"outcome":"+1","keys":[2408.545000012964],"total_keys":1,"block":1,"trial":97,"robot":2,"valence":"win","action":"no-go","sham":0,"trial_type":"pit-trial","trial_index":110,"time_elapsed":549384,"internal_node_id":"0.0-99.0","task_version":"battery-v0.1"},{"rune":"F","hex":"#f73b6a7A","correct":32,"choice":32,"rt":674.0249999566004,"accuracy":1,"outcome":"-10","keys":[2174.0650000283495],"total_keys":1,"block":1,"trial":98,"robot":3,"valence":"lose","action":"go","sham":1,"trial_type":"pit-trial","trial_index":111,"time_elapsed":552761,"internal_node_id":"0.0-100.0","task_version":"battery-v0.1"},{"rune":"L","hex":"#f73b6a7A","correct":32,"choice":-1,"rt":-1,"accuracy":0,"outcome":"-10","keys":[],"total_keys":0,"block":1,"trial":99,"robot":3,"valence":"lose","action":"go","sham":0,"trial_type":"pit-trial","trial_index":112,"time_elapsed":556773,"internal_node_id":"0.0-101.0","task_version":"battery-v0.1"},{"rune":"C","hex":"#f73b6a7A","correct":-1,"choice":32,"rt":595.8300000056624,"accuracy":0,"outcome":"-10","keys":[2097.799999988638],"total_keys":1,"block":1,"trial":100,"robot":4,"valence":"lose","action":"no-go","sham":0,"trial_type":"pit-trial","trial_index":113,"time_elapsed":560073,"internal_node_id":"0.0-102.0","task_version":"battery-v0.1"},{"rune":"L","hex":"#f73b6a7A","correct":32,"choice":32,"rt":774.1300000343472,"accuracy":1,"outcome":"-1","keys":[2276.01000003051],"total_keys":1,"block":1,"trial":101,"robot":3,"valence":"lose","action":"go","sham":0,"trial_type":"pit-trial","trial_index":114,"time_elapsed":563553,"internal_node_id":"0.0-103.0","task_version":"battery-v0.1"},{"rune":"F","hex":"#f73b6a7A","correct":32,"choice":32,"rt":670.5700000748038,"accuracy":1,"outcome":"-1","keys":[2172.2849999787286],"total_keys":1,"block":1,"trial":102,"robot":3,"valence":"lose","action":"go","sham":0,"trial_type":"pit-trial","trial_index":115,"time_elapsed":566928,"internal_node_id":"0.0-104.0","task_version":"battery-v0.1"},{"rune":"W","hex":"#3366ff99","correct":-1,"choice":-1,"rt":-1,"accuracy":1,"outcome":"+1","keys":[],"total_keys":0,"block":1,"trial":103,"robot":2,"valence":"win","action":"no-go","sham":1,"trial_type":"pit-trial","trial_index":116,"time_elapsed":570933,"internal_node_id":"0.0-105.0","task_version":"battery-v0.1"},{"rune":"C","hex":"#f73b6a7A","correct":-1,"choice":32,"rt":1076.314999954775,"accuracy":0,"outcome":"-10","keys":[2576.7350000096485],"total_keys":1,"block":1,"trial":104,"robot":4,"valence":"lose","action":"no-go","sham":0,"trial_type":"pit-trial","trial_index":117,"time_elapsed":574712,"internal_node_id":"0.0-106.0","task_version":"battery-v0.1"},{"rune":"L","hex":"#f73b6a7A","correct":32,"choice":32,"rt":824.5800000149757,"accuracy":1,"outcome":"-1","keys":[2325.7849999936298],"total_keys":1,"block":1,"trial":105,"robot":3,"valence":"lose","action":"go","sham":0,"trial_type":"pit-trial","trial_index":118,"time_elapsed":578241,"internal_node_id":"0.0-107.0","task_version":"battery-v0.1"},{"rune":"W","hex":"#3366ff99","correct":-1,"choice":-1,"rt":-1,"accuracy":1,"outcome":"+10","keys":[],"total_keys":0,"block":1,"trial":106,"robot":2,"valence":"win","action":"no-go","sham":0,"trial_type":"pit-trial","trial_index":119,"time_elapsed":582246,"internal_node_id":"0.0-108.0","task_version":"battery-v0.1"},{"rune":"C","hex":"#f73b6a7A","correct":-1,"choice":-1,"rt":-1,"accuracy":1,"outcome":"-1","keys":[],"total_keys":0,"block":1,"trial":107,"robot":4,"valence":"lose","action":"no-go","sham":0,"trial_type":"pit-trial","trial_index":120,"time_elapsed":586250,"internal_node_id":"0.0-109.0","task_version":"battery-v0.1"},{"rune":"F","hex":"#f73b6a7A","correct":32,"choice":32,"rt":918.9999999944121,"accuracy":1,"outcome":"-1","keys":[2419.0550000639632],"total_keys":1,"block":1,"trial":108,"robot":3,"valence":"lose","action":"go","sham":0,"trial_type":"pit-trial","trial_index":121,"time_elapsed":589874,"internal_node_id":"0.0-110.0","task_version":"battery-v0.1"},{"rune":"L","hex":"#f73b6a7A","correct":32,"choice":32,"rt":1012.8950000507757,"accuracy":1,"outcome":"-10","keys":[2513.715000008233],"total_keys":1,"block":1,"trial":109,"robot":3,"valence":"lose","action":"go","sham":1,"trial_type":"pit-trial","trial_index":122,"time_elapsed":593592,"internal_node_id":"0.0-111.0","task_version":"battery-v0.1"},{"rune":"F","hex":"#f73b6a7A","correct":32,"choice":-1,"rt":-1,"accuracy":0,"outcome":"-10","keys":[],"total_keys":0,"block":1,"trial":110,"robot":3,"valence":"lose","action":"go","sham":0,"trial_type":"pit-trial","trial_index":123,"time_elapsed":597597,"internal_node_id":"0.0-112.0","task_version":"battery-v0.1"},{"rune":"W","hex":"#3366ff99","correct":-1,"choice":-1,"rt":-1,"accuracy":1,"outcome":"+10","keys":[],"total_keys":0,"block":1,"trial":111,"robot":2,"valence":"win","action":"no-go","sham":0,"trial_type":"pit-trial","trial_index":124,"time_elapsed":601600,"internal_node_id":"0.0-113.0","task_version":"battery-v0.1"},{"rune":"C","hex":"#f73b6a7A","correct":-1,"choice":-1,"rt":-1,"accuracy":1,"outcome":"-1","keys":[],"total_keys":0,"block":1,"trial":112,"robot":4,"valence":"lose","action":"no-go","sham":0,"trial_type":"pit-trial","trial_index":125,"time_elapsed":605605,"internal_node_id":"0.0-114.0","task_version":"battery-v0.1"},{"rune":"C","hex":"#f73b6a7A","correct":-1,"choice":-1,"rt":-1,"accuracy":1,"outcome":"-1","keys":[],"total_keys":0,"block":1,"trial":113,"robot":4,"valence":"lose","action":"no-go","sham":0,"trial_type":"pit-trial","trial_index":126,"time_elapsed":609608,"internal_node_id":"0.0-115.0","task_version":"battery-v0.1"},{"rune":"F","hex":"#f73b6a7A","correct":32,"choice":32,"rt":1107.0150000741705,"accuracy":1,"outcome":"-1","keys":[2607.064999989234],"total_keys":1,"block":1,"trial":114,"robot":3,"valence":"lose","action":"go","sham":0,"trial_type":"pit-trial","trial_index":127,"time_elapsed":613417,"internal_node_id":"0.0-116.0","task_version":"battery-v0.1"},{"rune":"W","hex":"#3366ff99","correct":-1,"choice":-1,"rt":-1,"accuracy":1,"outcome":"+1","keys":[],"total_keys":0,"block":1,"trial":115,"robot":2,"valence":"win","action":"no-go","sham":1,"trial_type":"pit-trial","trial_index":128,"time_elapsed":617422,"internal_node_id":"0.0-117.0","task_version":"battery-v0.1"},{"rune":"L","hex":"#f73b6a7A","correct":32,"choice":32,"rt":881.3400000799447,"accuracy":1,"outcome":"-1","keys":[2381.364999921061],"total_keys":1,"block":1,"trial":116,"robot":3,"valence":"lose","action":"go","sham":0,"trial_type":"pit-trial","trial_index":129,"time_elapsed":621007,"internal_node_id":"0.0-118.0","task_version":"battery-v0.1"},{"rune":"F","hex":"#f73b6a7A","correct":32,"choice":32,"rt":1002.6300000026822,"accuracy":1,"outcome":"-1","keys":[2503.1050000106916],"total_keys":1,"block":1,"trial":117,"robot":3,"valence":"lose","action":"go","sham":0,"trial_type":"pit-trial","trial_index":130,"time_elapsed":624713,"internal_node_id":"0.0-119.0","task_version":"battery-v0.1"},{"rune":"L","hex":"#f73b6a7A","correct":32,"choice":32,"rt":838.980000000447,"accuracy":1,"outcome":"-1","keys":[2339.14499997627],"total_keys":1,"block":1,"trial":118,"robot":3,"valence":"lose","action":"go","sham":0,"trial_type":"pit-trial","trial_index":131,"time_elapsed":628255,"internal_node_id":"0.0-120.0","task_version":"battery-v0.1"},{"rune":"C","hex":"#f73b6a7A","correct":-1,"choice":32,"rt":624.0900000557303,"accuracy":0,"outcome":"-10","keys":[2125.5449999589473],"total_keys":1,"block":1,"trial":119,"robot":4,"valence":"lose","action":"no-go","sham":0,"trial_type":"pit-trial","trial_index":132,"time_elapsed":631583,"internal_node_id":"0.0-121.0","task_version":"battery-v0.1"},{"rune":"W","hex":"#3366ff99","correct":-1,"choice":-1,"rt":-1,"accuracy":1,"outcome":"+10","keys":[],"total_keys":0,"block":1,"trial":120,"robot":2,"valence":"win","action":"no-go","sham":0,"trial_type":"pit-trial","trial_index":133,"time_elapsed":635586,"internal_node_id":"0.0-122.0","task_version":"battery-v0.1"},{"view_history":"[{\"page_index\":0,\"viewing_time\":8930.924999993294},{\"page_index\":1,\"viewing_time\":3231.6550000105053}]","rt":12162.914999993518,"trial_type":"pit-instructions","trial_index":134,"time_elapsed":647752,"internal_node_id":"0.0-123.0","task_version":"battery-v0.1"},{"rune":"R","hex":"#f73b6a7A","correct":-1,"choice":32,"rt":952.019999967888,"accuracy":0,"outcome":"-1","keys":[2452.2499999729916],"total_keys":1,"block":2,"trial":121,"robot":4,"valence":"lose","action":"no-go","sham":1,"trial_type":"pit-trial","trial_index":135,"time_elapsed":651408,"internal_node_id":"0.0-124.0","task_version":"battery-v0.1"},{"rune":"D","hex":"#3366ff99","correct":32,"choice":-1,"rt":-1,"accuracy":0,"outcome":"+1","keys":[],"total_keys":0,"block":2,"trial":122,"robot":1,"valence":"win","action":"go","sham":0,"trial_type":"pit-trial","trial_index":136,"time_elapsed":655411,"internal_node_id":"0.0-125.0","task_version":"battery-v0.1"},{"rune":"M","hex":"#3366ff99","correct":-1,"choice":-1,"rt":-1,"accuracy":1,"outcome":"+1","keys":[],"total_keys":0,"block":2,"trial":123,"robot":2,"valence":"win","action":"no-go","sham":1,"trial_type":"pit-trial","trial_index":137,"time_elapsed":659414,"internal_node_id":"0.0-126.0","task_version":"battery-v0.1"},{"rune":"Q","hex":"#f73b6a7A","correct":-1,"choice":32,"rt":1186.3049999810755,"accuracy":0,"outcome":"-10","keys":[2686.450000037439],"total_keys":1,"block":2,"trial":124,"robot":4,"valence":"lose","action":"no-go","sham":0,"trial_type":"pit-trial","trial_index":138,"time_elapsed":663305,"internal_node_id":"0.0-127.0","task_version":"battery-v0.1"},{"rune":"Q","hex":"#f73b6a7A","correct":-1,"choice":-1,"rt":-1,"accuracy":1,"outcome":"-1","keys":[],"total_keys":0,"block":2,"trial":125,"robot":4,"valence":"lose","action":"no-go","sham":0,"trial_type":"pit-trial","trial_index":139,"time_elapsed":667309,"internal_node_id":"0.0-128.0","task_version":"battery-v0.1"},{"rune":"R","hex":"#f73b6a7A","correct":-1,"choice":32,"rt":769.7499999776483,"accuracy":0,"outcome":"-10","keys":[2270.094999927096],"total_keys":1,"block":2,"trial":126,"robot":4,"valence":"lose","action":"no-go","sham":0,"trial_type":"pit-trial","trial_index":140,"time_elapsed":670783,"internal_node_id":"0.0-129.0","task_version":"battery-v0.1"},{"rune":"D","hex":"#3366ff99","correct":32,"choice":32,"rt":905.6349999736995,"accuracy":1,"outcome":"+10","keys":[2405.6499999715015],"total_keys":1,"block":2,"trial":127,"robot":1,"valence":"win","action":"go","sham":0,"trial_type":"pit-trial","trial_index":141,"time_elapsed":674392,"internal_node_id":"0.0-130.0","task_version":"battery-v0.1"},{"rune":"M","hex":"#3366ff99","correct":-1,"choice":32,"rt":448.82500008679926,"accuracy":0,"outcome":"+10","keys":[1949.3200000142679],"total_keys":1,"block":2,"trial":128,"robot":2,"valence":"win","action":"no-go","sham":1,"trial_type":"pit-trial","trial_index":142,"time_elapsed":677545,"internal_node_id":"0.0-131.0","task_version":"battery-v0.1"},{"rune":"D","hex":"#3366ff99","correct":32,"choice":32,"rt":605.5149999447167,"accuracy":1,"outcome":"+10","keys":[2106.235000072047],"total_keys":1,"block":2,"trial":129,"robot":1,"valence":"win","action":"go","sham":0,"trial_type":"pit-trial","trial_index":143,"time_elapsed":680856,"internal_node_id":"0.0-132.0","task_version":"battery-v0.1"},{"rune":"R","hex":"#f73b6a7A","correct":-1,"choice":-1,"rt":-1,"accuracy":1,"outcome":"-1","keys":[],"total_keys":0,"block":2,"trial":130,"robot":4,"valence":"lose","action":"no-go","sham":0,"trial_type":"pit-trial","trial_index":144,"time_elapsed":684859,"internal_node_id":"0.0-133.0","task_version":"battery-v0.1"},{"rune":"M","hex":"#3366ff99","correct":-1,"choice":32,"rt":573.5149999381974,"accuracy":0,"outcome":"+1","keys":[2073.549999971874],"total_keys":1,"block":2,"trial":131,"robot":2,"valence":"win","action":"no-go","sham":0,"trial_type":"pit-trial","trial_index":145,"time_elapsed":688140,"internal_node_id":"0.0-134.0","task_version":"battery-v0.1"},{"rune":"Q","hex":"#f73b6a7A","correct":-1,"choice":32,"rt":963.5349999880418,"accuracy":0,"outcome":"-10","keys":[2464.2349999630824],"total_keys":1,"block":2,"trial":132,"robot":4,"valence":"lose","action":"no-go","sham":0,"trial_type":"pit-trial","trial_index":146,"time_elapsed":691808,"internal_node_id":"0.0-135.0","task_version":"battery-v0.1"},{"rune":"M","hex":"#3366ff99","correct":-1,"choice":32,"rt":679.4949999311939,"accuracy":0,"outcome":"+1","keys":[2181.2599999830127],"total_keys":1,"block":2,"trial":133,"robot":2,"valence":"win","action":"no-go","sham":0,"trial_type":"pit-trial","trial_index":147,"time_elapsed":695192,"internal_node_id":"0.0-136.0","task_version":"battery-v0.1"},{"rune":"Q","hex":"#f73b6a7A","correct":-1,"choice":-1,"rt":-1,"accuracy":1,"outcome":"-1","keys":[],"total_keys":0,"block":2,"trial":134,"robot":4,"valence":"lose","action":"no-go","sham":0,"trial_type":"pit-trial","trial_index":148,"time_elapsed":699197,"internal_node_id":"0.0-137.0","task_version":"battery-v0.1"},{"rune":"D","hex":"#3366ff99","correct":32,"choice":32,"rt":619.9849999975413,"accuracy":1,"outcome":"+10","keys":[2121.195000014268],"total_keys":1,"block":2,"trial":135,"robot":1,"valence":"win","action":"go","sham":0,"trial_type":"pit-trial","trial_index":149,"time_elapsed":702521,"internal_node_id":"0.0-138.0","task_version":"battery-v0.1"},{"rune":"R","hex":"#f73b6a7A","correct":-1,"choice":32,"rt":847.6950000040233,"accuracy":0,"outcome":"-10","keys":[2348.3649999834597],"total_keys":1,"block":2,"trial":136,"robot":4,"valence":"lose","action":"no-go","sham":0,"trial_type":"pit-trial","trial_index":150,"time_elapsed":706071,"internal_node_id":"0.0-139.0","task_version":"battery-v0.1"},{"rune":"D","hex":"#3366ff99","correct":32,"choice":32,"rt":608.4450000198558,"accuracy":1,"outcome":"+10","keys":[2110.3350000921637],"total_keys":1,"block":2,"trial":137,"robot":1,"valence":"win","action":"go","sham":0,"trial_type":"pit-trial","trial_index":151,"time_elapsed":709384,"internal_node_id":"0.0-140.0","task_version":"battery-v0.1"},{"rune":"M","hex":"#3366ff99","correct":-1,"choice":32,"rt":681.6800000378862,"accuracy":0,"outcome":"+1","keys":[2181.6849999595433],"total_keys":1,"block":2,"trial":138,"robot":2,"valence":"win","action":"no-go","sham":0,"trial_type":"pit-trial","trial_index":152,"time_elapsed":712769,"internal_node_id":"0.0-141.0","task_version":"battery-v0.1"},{"rune":"R","hex":"#f73b6a7A","correct":-1,"choice":32,"rt":782.1450000628829,"accuracy":0,"outcome":"-10","keys":[2282.119999988936],"total_keys":1,"block":2,"trial":139,"robot":4,"valence":"lose","action":"no-go","sham":0,"trial_type":"pit-trial","trial_index":153,"time_elapsed":716257,"internal_node_id":"0.0-142.0","task_version":"battery-v0.1"},{"rune":"Q","hex":"#f73b6a7A","correct":-1,"choice":32,"rt":839.3099999520928,"accuracy":0,"outcome":"-10","keys":[2340.77500004787],"total_keys":1,"block":2,"trial":140,"robot":4,"valence":"lose","action":"no-go","sham":0,"trial_type":"pit-trial","trial_index":154,"time_elapsed":719801,"internal_node_id":"0.0-143.0","task_version":"battery-v0.1"},{"rune":"D","hex":"#3366ff99","correct":32,"choice":32,"rt":654.755000025034,"accuracy":1,"outcome":"+10","keys":[2156.099999905564],"total_keys":1,"block":2,"trial":141,"robot":1,"valence":"win","action":"go","sham":0,"trial_type":"pit-trial","trial_index":155,"time_elapsed":723160,"internal_node_id":"0.0-144.0","task_version":"battery-v0.1"},{"rune":"Q","hex":"#f73b6a7A","correct":-1,"choice":-1,"rt":-1,"accuracy":1,"outcome":"-1","keys":[],"total_keys":0,"block":2,"trial":142,"robot":4,"valence":"lose","action":"no-go","sham":0,"trial_type":"pit-trial","trial_index":156,"time_elapsed":727164,"internal_node_id":"0.0-145.0","task_version":"battery-v0.1"},{"rune":"R","hex":"#f73b6a7A","correct":-1,"choice":-1,"rt":-1,"accuracy":1,"outcome":"-1","keys":[],"total_keys":0,"block":2,"trial":143,"robot":4,"valence":"lose","action":"no-go","sham":0,"trial_type":"pit-trial","trial_index":157,"time_elapsed":731167,"internal_node_id":"0.0-146.0","task_version":"battery-v0.1"},{"rune":"M","hex":"#3366ff99","correct":-1,"choice":-1,"rt":-1,"accuracy":1,"outcome":"+10","keys":[],"total_keys":0,"block":2,"trial":144,"robot":2,"valence":"win","action":"no-go","sham":0,"trial_type":"pit-trial","trial_index":158,"time_elapsed":735171,"internal_node_id":"0.0-147.0","task_version":"battery-v0.1"},{"rune":"D","hex":"#3366ff99","correct":32,"choice":32,"rt":693.859999999404,"accuracy":1,"outcome":"+10","keys":[2194.4949999451637],"total_keys":1,"block":2,"trial":145,"robot":1,"valence":"win","action":"go","sham":0,"trial_type":"pit-trial","trial_index":159,"time_elapsed":738571,"internal_node_id":"0.0-148.0","task_version":"battery-v0.1"},{"rune":"M","hex":"#3366ff99","correct":-1,"choice":32,"rt":795.8250000374392,"accuracy":0,"outcome":"+1","keys":[2297.41500003729],"total_keys":1,"block":2,"trial":146,"robot":2,"valence":"win","action":"no-go","sham":0,"trial_type":"pit-trial","trial_index":160,"time_elapsed":742073,"internal_node_id":"0.0-149.0","task_version":"battery-v0.1"},{"rune":"Q","hex":"#f73b6a7A","correct":-1,"choice":-1,"rt":-1,"accuracy":1,"outcome":"-1","keys":[],"total_keys":0,"block":2,"trial":147,"robot":4,"valence":"lose","action":"no-go","sham":0,"trial_type":"pit-trial","trial_index":161,"time_elapsed":746076,"internal_node_id":"0.0-150.0","task_version":"battery-v0.1"},{"rune":"R","hex":"#f73b6a7A","correct":-1,"choice":-1,"rt":-1,"accuracy":1,"outcome":"-1","keys":[],"total_keys":0,"block":2,"trial":148,"robot":4,"valence":"lose","action":"no-go","sham":0,"trial_type":"pit-trial","trial_index":162,"time_elapsed":750082,"internal_node_id":"0.0-151.0","task_version":"battery-v0.1"},{"rune":"D","hex":"#3366ff99","correct":32,"choice":32,"rt":767.4649999244139,"accuracy":1,"outcome":"+10","keys":[2268.3999999426305],"total_keys":1,"block":2,"trial":149,"robot":1,"valence":"win","action":"go","sham":0,"trial_type":"pit-trial","trial_index":163,"time_elapsed":753553,"internal_node_id":"0.0-152.0","task_version":"battery-v0.1"},{"rune":"R","hex":"#f73b6a7A","correct":-1,"choice":-1,"rt":-1,"accuracy":1,"outcome":"-1","keys":[],"total_keys":0,"block":2,"trial":150,"robot":4,"valence":"lose","action":"no-go","sham":0,"trial_type":"pit-trial","trial_index":164,"time_elapsed":757559,"internal_node_id":"0.0-153.0","task_version":"battery-v0.1"},{"rune":"M","hex":"#3366ff99","correct":-1,"choice":-1,"rt":-1,"accuracy":1,"outcome":"+10","keys":[],"total_keys":0,"block":2,"trial":151,"robot":2,"valence":"win","action":"no-go","sham":0,"trial_type":"pit-trial","trial_index":165,"time_elapsed":761563,"internal_node_id":"0.0-154.0","task_version":"battery-v0.1"},{"rune":"Q","hex":"#f73b6a7A","correct":-1,"choice":-1,"rt":-1,"accuracy":1,"outcome":"-1","keys":[],"total_keys":0,"block":2,"trial":152,"robot":4,"valence":"lose","action":"no-go","sham":0,"trial_type":"pit-trial","trial_index":166,"time_elapsed":765567,"internal_node_id":"0.0-155.0","task_version":"battery-v0.1"},{"rune":"R","hex":"#f73b6a7A","correct":-1,"choice":-1,"rt":-1,"accuracy":1,"outcome":"-10","keys":[],"total_keys":0,"block":2,"trial":153,"robot":4,"valence":"lose","action":"no-go","sham":1,"trial_type":"pit-trial","trial_index":167,"time_elapsed":769571,"internal_node_id":"0.0-156.0","task_version":"battery-v0.1"},{"rune":"M","hex":"#3366ff99","correct":-1,"choice":-1,"rt":-1,"accuracy":1,"outcome":"+10","keys":[],"total_keys":0,"block":2,"trial":154,"robot":2,"valence":"win","action":"no-go","sham":0,"trial_type":"pit-trial","trial_index":168,"time_elapsed":773574,"internal_node_id":"0.0-157.0","task_version":"battery-v0.1"},{"rune":"D","hex":"#3366ff99","correct":32,"choice":32,"rt":713.6249999748543,"accuracy":1,"outcome":"+10","keys":[2214.604999986477],"total_keys":1,"block":2,"trial":155,"robot":1,"valence":"win","action":"go","sham":0,"trial_type":"pit-trial","trial_index":169,"time_elapsed":776992,"internal_node_id":"0.0-158.0","task_version":"battery-v0.1"},{"rune":"V","hex":"#f73b6a7A","correct":32,"choice":-1,"rt":-1,"accuracy":0,"outcome":"-1","keys":[],"total_keys":0,"block":2,"trial":156,"robot":3,"valence":"lose","action":"go","sham":1,"trial_type":"pit-trial","trial_index":170,"time_elapsed":781008,"internal_node_id":"0.0-159.0","task_version":"battery-v0.1"},{"rune":"V","hex":"#f73b6a7A","correct":32,"choice":-1,"rt":-1,"accuracy":0,"outcome":"-10","keys":[],"total_keys":0,"block":2,"trial":157,"robot":3,"valence":"lose","action":"go","sham":0,"trial_type":"pit-trial","trial_index":171,"time_elapsed":785013,"internal_node_id":"0.0-160.0","task_version":"battery-v0.1"},{"rune":"M","hex":"#3366ff99","correct":-1,"choice":-1,"rt":-1,"accuracy":1,"outcome":"+1","keys":[],"total_keys":0,"block":2,"trial":158,"robot":2,"valence":"win","action":"no-go","sham":1,"trial_type":"pit-trial","trial_index":172,"time_elapsed":789016,"internal_node_id":"0.0-161.0","task_version":"battery-v0.1"},{"rune":"D","hex":"#3366ff99","correct":32,"choice":32,"rt":649.8049999354407,"accuracy":1,"outcome":"+10","keys":[2150.015000021085],"total_keys":1,"block":2,"trial":159,"robot":1,"valence":"win","action":"go","sham":0,"trial_type":"pit-trial","trial_index":173,"time_elapsed":792368,"internal_node_id":"0.0-162.0","task_version":"battery-v0.1"},{"rune":"R","hex":"#f73b6a7A","correct":-1,"choice":-1,"rt":-1,"accuracy":1,"outcome":"-1","keys":[],"total_keys":0,"block":2,"trial":160,"robot":4,"valence":"lose","action":"no-go","sham":0,"trial_type":"pit-trial","trial_index":174,"time_elapsed":796374,"internal_node_id":"0.0-163.0","task_version":"battery-v0.1"},{"rune":"R","hex":"#f73b6a7A","correct":-1,"choice":-1,"rt":-1,"accuracy":1,"outcome":"-1","keys":[],"total_keys":0,"block":2,"trial":161,"robot":4,"valence":"lose","action":"no-go","sham":0,"trial_type":"pit-trial","trial_index":175,"time_elapsed":800377,"internal_node_id":"0.0-164.0","task_version":"battery-v0.1"},{"rune":"E","hex":"#3366ff99","correct":32,"choice":32,"rt":647.8300000308082,"accuracy":1,"outcome":"+10","keys":[2148.6250000307336],"total_keys":1,"block":2,"trial":162,"robot":1,"valence":"win","action":"go","sham":0,"trial_type":"pit-trial","trial_index":176,"time_elapsed":803729,"internal_node_id":"0.0-165.0","task_version":"battery-v0.1"},{"rune":"T","hex":"#3366ff99","correct":-1,"choice":32,"rt":638.9799999305978,"accuracy":0,"outcome":"+1","keys":[2139.5949999568984],"total_keys":1,"block":2,"trial":163,"robot":2,"valence":"win","action":"no-go","sham":0,"trial_type":"pit-trial","trial_index":177,"time_elapsed":807071,"internal_node_id":"0.0-166.0","task_version":"battery-v0.1"},{"rune":"V","hex":"#f73b6a7A","correct":32,"choice":-1,"rt":-1,"accuracy":0,"outcome":"-10","keys":[],"total_keys":0,"block":2,"trial":164,"robot":3,"valence":"lose","action":"go","sham":0,"trial_type":"pit-trial","trial_index":178,"time_elapsed":811074,"internal_node_id":"0.0-167.0","task_version":"battery-v0.1"},{"rune":"V","hex":"#f73b6a7A","correct":32,"choice":32,"rt":476.51499998755753,"accuracy":1,"outcome":"-1","keys":[1978.2950000371784],"total_keys":1,"block":2,"trial":165,"robot":3,"valence":"lose","action":"go","sham":0,"trial_type":"pit-trial","trial_index":179,"time_elapsed":814255,"internal_node_id":"0.0-168.0","task_version":"battery-v0.1"},{"rune":"E","hex":"#3366ff99","correct":32,"choice":-1,"rt":-1,"accuracy":0,"outcome":"+1","keys":[],"total_keys":0,"block":2,"trial":166,"robot":1,"valence":"win","action":"go","sham":0,"trial_type":"pit-trial","trial_index":180,"time_elapsed":818260,"internal_node_id":"0.0-169.0","task_version":"battery-v0.1"},{"rune":"R","hex":"#f73b6a7A","correct":-1,"choice":32,"rt":723.8699999870732,"accuracy":0,"outcome":"-10","keys":[2224.1650000214577],"total_keys":1,"block":2,"trial":167,"robot":4,"valence":"lose","action":"no-go","sham":0,"trial_type":"pit-trial","trial_index":181,"time_elapsed":821689,"internal_node_id":"0.0-170.0","task_version":"battery-v0.1"},{"rune":"T","hex":"#3366ff99","correct":-1,"choice":32,"rt":1287.6900000264868,"accuracy":0,"outcome":"+1","keys":[2787.875000038184],"total_keys":1,"block":2,"trial":168,"robot":2,"valence":"win","action":"no-go","sham":0,"trial_type":"pit-trial","trial_index":182,"time_elapsed":825679,"internal_node_id":"0.0-171.0","task_version":"battery-v0.1"},{"rune":"E","hex":"#3366ff99","correct":32,"choice":32,"rt":519.1399999894202,"accuracy":1,"outcome":"+10","keys":[2019.9600000632927],"total_keys":1,"block":2,"trial":169,"robot":1,"valence":"win","action":"go","sham":0,"trial_type":"pit-trial","trial_index":183,"time_elapsed":828901,"internal_node_id":"0.0-172.0","task_version":"battery-v0.1"},{"rune":"T","hex":"#3366ff99","correct":-1,"choice":-1,"rt":-1,"accuracy":1,"outcome":"+10","keys":[],"total_keys":0,"block":2,"trial":170,"robot":2,"valence":"win","action":"no-go","sham":0,"trial_type":"pit-trial","trial_index":184,"time_elapsed":832905,"internal_node_id":"0.0-173.0","task_version":"battery-v0.1"},{"rune":"V","hex":"#f73b6a7A","correct":32,"choice":32,"rt":773.769999970682,"accuracy":1,"outcome":"-10","keys":[2274.794999975711],"total_keys":1,"block":2,"trial":171,"robot":3,"valence":"lose","action":"go","sham":1,"trial_type":"pit-trial","trial_index":185,"time_elapsed":836383,"internal_node_id":"0.0-174.0","task_version":"battery-v0.1"},{"rune":"U","hex":"#f73b6a7A","correct":-1,"choice":32,"rt":768.1050000246614,"accuracy":0,"outcome":"-10","keys":[2268.5899999924004],"total_keys":1,"block":2,"trial":172,"robot":4,"valence":"lose","action":"no-go","sham":0,"trial_type":"pit-trial","trial_index":186,"time_elapsed":839855,"internal_node_id":"0.0-175.0","task_version":"battery-v0.1"},{"rune":"U","hex":"#f73b6a7A","correct":-1,"choice":-1,"rt":-1,"accuracy":1,"outcome":"-10","keys":[],"total_keys":0,"block":2,"trial":173,"robot":4,"valence":"lose","action":"no-go","sham":1,"trial_type":"pit-trial","trial_index":187,"time_elapsed":843859,"internal_node_id":"0.0-176.0","task_version":"battery-v0.1"},{"rune":"T","hex":"#3366ff99","correct":-1,"choice":32,"rt":1020.2349999453872,"accuracy":0,"outcome":"+1","keys":[2520.875000045635],"total_keys":1,"block":2,"trial":174,"robot":2,"valence":"win","action":"no-go","sham":0,"trial_type":"pit-trial","trial_index":188,"time_elapsed":847583,"internal_node_id":"0.0-177.0","task_version":"battery-v0.1"},{"rune":"E","hex":"#3366ff99","correct":32,"choice":-1,"rt":-1,"accuracy":0,"outcome":"+1","keys":[],"total_keys":0,"block":2,"trial":175,"robot":1,"valence":"win","action":"go","sham":0,"trial_type":"pit-trial","trial_index":189,"time_elapsed":851592,"internal_node_id":"0.0-178.0","task_version":"battery-v0.1"},{"rune":"V","hex":"#f73b6a7A","correct":32,"choice":32,"rt":936.5149999503046,"accuracy":1,"outcome":"-1","keys":[2436.7750000674278],"total_keys":1,"block":2,"trial":176,"robot":3,"valence":"lose","action":"go","sham":0,"trial_type":"pit-trial","trial_index":190,"time_elapsed":855232,"internal_node_id":"0.0-179.0","task_version":"battery-v0.1"},{"rune":"T","hex":"#3366ff99","correct":-1,"choice":32,"rt":1069.3050000118092,"accuracy":0,"outcome":"+1","keys":[2569.675000035204],"total_keys":1,"block":2,"trial":177,"robot":2,"valence":"win","action":"no-go","sham":0,"trial_type":"pit-trial","trial_index":191,"time_elapsed":859011,"internal_node_id":"0.0-180.0","task_version":"battery-v0.1"},{"rune":"U","hex":"#f73b6a7A","correct":-1,"choice":-1,"rt":-1,"accuracy":1,"outcome":"-1","keys":[],"total_keys":0,"block":2,"trial":178,"robot":4,"valence":"lose","action":"no-go","sham":0,"trial_type":"pit-trial","trial_index":192,"time_elapsed":863024,"internal_node_id":"0.0-181.0","task_version":"battery-v0.1"},{"rune":"V","hex":"#f73b6a7A","correct":32,"choice":-1,"rt":-1,"accuracy":0,"outcome":"-10","keys":[],"total_keys":0,"block":2,"trial":179,"robot":3,"valence":"lose","action":"go","sham":0,"trial_type":"pit-trial","trial_index":193,"time_elapsed":867029,"internal_node_id":"0.0-182.0","task_version":"battery-v0.1"},{"rune":"E","hex":"#3366ff99","correct":32,"choice":-1,"rt":-1,"accuracy":0,"outcome":"+1","keys":[],"total_keys":0,"block":2,"trial":180,"robot":1,"valence":"win","action":"go","sham":0,"trial_type":"pit-trial","trial_index":194,"time_elapsed":871034,"internal_node_id":"0.0-183.0","task_version":"battery-v0.1"},{"rune":"E","hex":"#3366ff99","correct":32,"choice":32,"rt":844.9300000211224,"accuracy":1,"outcome":"+10","keys":[2345.854999963194],"total_keys":1,"block":2,"trial":181,"robot":1,"valence":"win","action":"go","sham":0,"trial_type":"pit-trial","trial_index":195,"time_elapsed":874584,"internal_node_id":"0.0-184.0","task_version":"battery-v0.1"},{"rune":"V","hex":"#f73b6a7A","correct":32,"choice":32,"rt":719.465000089258,"accuracy":1,"outcome":"-10","keys":[2220.4950000159442],"total_keys":1,"block":2,"trial":182,"robot":3,"valence":"lose","action":"go","sham":1,"trial_type":"pit-trial","trial_index":196,"time_elapsed":878006,"internal_node_id":"0.0-185.0","task_version":"battery-v0.1"},{"rune":"T","hex":"#3366ff99","correct":-1,"choice":-1,"rt":-1,"accuracy":1,"outcome":"+10","keys":[],"total_keys":0,"block":2,"trial":183,"robot":2,"valence":"win","action":"no-go","sham":0,"trial_type":"pit-trial","trial_index":197,"time_elapsed":882010,"internal_node_id":"0.0-186.0","task_version":"battery-v0.1"},{"rune":"U","hex":"#f73b6a7A","correct":-1,"choice":32,"rt":710.5849999934435,"accuracy":0,"outcome":"-10","keys":[2211.4049999509007],"total_keys":1,"block":2,"trial":184,"robot":4,"valence":"lose","action":"no-go","sham":0,"trial_type":"pit-trial","trial_index":198,"time_elapsed":885424,"internal_node_id":"0.0-187.0","task_version":"battery-v0.1"},{"rune":"U","hex":"#f73b6a7A","correct":-1,"choice":-1,"rt":-1,"accuracy":1,"outcome":"-1","keys":[],"total_keys":0,"block":2,"trial":185,"robot":4,"valence":"lose","action":"no-go","sham":0,"trial_type":"pit-trial","trial_index":199,"time_elapsed":889429,"internal_node_id":"0.0-188.0","task_version":"battery-v0.1"},{"rune":"T","hex":"#3366ff99","correct":-1,"choice":32,"rt":778.5699999658391,"accuracy":0,"outcome":"+1","keys":[2279.5049999840558],"total_keys":1,"block":2,"trial":186,"robot":2,"valence":"win","action":"no-go","sham":0,"trial_type":"pit-trial","trial_index":200,"time_elapsed":892911,"internal_node_id":"0.0-189.0","task_version":"battery-v0.1"},{"rune":"V","hex":"#f73b6a7A","correct":32,"choice":-1,"rt":-1,"accuracy":0,"outcome":"-10","keys":[],"total_keys":0,"block":2,"trial":187,"robot":3,"valence":"lose","action":"go","sham":0,"trial_type":"pit-trial","trial_index":201,"time_elapsed":896915,"internal_node_id":"0.0-190.0","task_version":"battery-v0.1"},{"rune":"E","hex":"#3366ff99","correct":32,"choice":32,"rt":1043.294999981299,"accuracy":1,"outcome":"+10","keys":[2544.6650000521913],"total_keys":1,"block":2,"trial":188,"robot":1,"valence":"win","action":"go","sham":0,"trial_type":"pit-trial","trial_index":202,"time_elapsed":900663,"internal_node_id":"0.0-191.0","task_version":"battery-v0.1"},{"rune":"V","hex":"#f73b6a7A","correct":32,"choice":32,"rt":720.9150000708178,"accuracy":1,"outcome":"-1","keys":[2221.1050000041723],"total_keys":1,"block":2,"trial":189,"robot":3,"valence":"lose","action":"go","sham":0,"trial_type":"pit-trial","trial_index":203,"time_elapsed":904086,"internal_node_id":"0.0-192.0","task_version":"battery-v0.1"},{"rune":"E","hex":"#3366ff99","correct":32,"choice":32,"rt":833.225000067614,"accuracy":1,"outcome":"+10","keys":[2334.4250000081956],"total_keys":1,"block":2,"trial":190,"robot":1,"valence":"win","action":"go","sham":0,"trial_type":"pit-trial","trial_index":204,"time_elapsed":907623,"internal_node_id":"0.0-193.0","task_version":"battery-v0.1"},{"rune":"U","hex":"#f73b6a7A","correct":-1,"choice":32,"rt":769.9600000632927,"accuracy":0,"outcome":"-10","keys":[2270.269999979064],"total_keys":1,"block":2,"trial":191,"robot":4,"valence":"lose","action":"no-go","sham":0,"trial_type":"pit-trial","trial_index":205,"time_elapsed":911096,"internal_node_id":"0.0-194.0","task_version":"battery-v0.1"},{"rune":"T","hex":"#3366ff99","correct":-1,"choice":32,"rt":719.3500000284985,"accuracy":0,"outcome":"+1","keys":[2220.839999965392],"total_keys":1,"block":2,"trial":192,"robot":2,"valence":"win","action":"no-go","sham":0,"trial_type":"pit-trial","trial_index":206,"time_elapsed":914520,"internal_node_id":"0.0-195.0","task_version":"battery-v0.1"},{"rune":"T","hex":"#3366ff99","correct":-1,"choice":-1,"rt":-1,"accuracy":1,"outcome":"+10","keys":[],"total_keys":0,"block":2,"trial":193,"robot":2,"valence":"win","action":"no-go","sham":0,"trial_type":"pit-trial","trial_index":207,"time_elapsed":918526,"internal_node_id":"0.0-196.0","task_version":"battery-v0.1"},{"rune":"G","hex":"#3366ff99","correct":32,"choice":32,"rt":698.1400001095608,"accuracy":1,"outcome":"+10","keys":[2198.3900000341237],"total_keys":1,"block":2,"trial":194,"robot":1,"valence":"win","action":"go","sham":0,"trial_type":"pit-trial","trial_index":208,"time_elapsed":921927,"internal_node_id":"0.0-197.0","task_version":"battery-v0.1"},{"rune":"U","hex":"#f73b6a7A","correct":-1,"choice":32,"rt":897.5600000703707,"accuracy":0,"outcome":"-1","keys":[2397.8200000710785],"total_keys":1,"block":2,"trial":195,"robot":4,"valence":"lose","action":"no-go","sham":1,"trial_type":"pit-trial","trial_index":209,"time_elapsed":925527,"internal_node_id":"0.0-198.0","task_version":"battery-v0.1"},{"rune":"X","hex":"#f73b6a7A","correct":32,"choice":32,"rt":720.1350000686944,"accuracy":1,"outcome":"-1","keys":[2220.1699999859557],"total_keys":1,"block":2,"trial":196,"robot":3,"valence":"lose","action":"go","sham":0,"trial_type":"pit-trial","trial_index":210,"time_elapsed":928951,"internal_node_id":"0.0-199.0","task_version":"battery-v0.1"},{"rune":"G","hex":"#3366ff99","correct":32,"choice":32,"rt":841.1799999885261,"accuracy":1,"outcome":"+10","keys":[2341.2849999731407],"total_keys":1,"block":2,"trial":197,"robot":1,"valence":"win","action":"go","sham":0,"trial_type":"pit-trial","trial_index":211,"time_elapsed":932494,"internal_node_id":"0.0-200.0","task_version":"battery-v0.1"},{"rune":"T","hex":"#3366ff99","correct":-1,"choice":-1,"rt":-1,"accuracy":1,"outcome":"+1","keys":[],"total_keys":0,"block":2,"trial":198,"robot":2,"valence":"win","action":"no-go","sham":1,"trial_type":"pit-trial","trial_index":212,"time_elapsed":936499,"internal_node_id":"0.0-201.0","task_version":"battery-v0.1"},{"rune":"U","hex":"#f73b6a7A","correct":-1,"choice":32,"rt":656.8099999567494,"accuracy":0,"outcome":"-1","keys":[2158.7899998994544],"total_keys":1,"block":2,"trial":199,"robot":4,"valence":"lose","action":"no-go","sham":1,"trial_type":"pit-trial","trial_index":213,"time_elapsed":939863,"internal_node_id":"0.0-202.0","task_version":"battery-v0.1"},{"rune":"X","hex":"#f73b6a7A","correct":32,"choice":32,"rt":678.9499999722466,"accuracy":1,"outcome":"-10","keys":[2180.724999983795],"total_keys":1,"block":2,"trial":200,"robot":3,"valence":"lose","action":"go","sham":1,"trial_type":"pit-trial","trial_index":214,"time_elapsed":943247,"internal_node_id":"0.0-203.0","task_version":"battery-v0.1"},{"rune":"G","hex":"#3366ff99","correct":32,"choice":32,"rt":528.3749999944121,"accuracy":1,"outcome":"+10","keys":[2028.8949999958277],"total_keys":1,"block":2,"trial":201,"robot":1,"valence":"win","action":"go","sham":0,"trial_type":"pit-trial","trial_index":215,"time_elapsed":946481,"internal_node_id":"0.0-204.0","task_version":"battery-v0.1"},{"rune":"X","hex":"#f73b6a7A","correct":32,"choice":-1,"rt":-1,"accuracy":0,"outcome":"-10","keys":[],"total_keys":0,"block":2,"trial":202,"robot":3,"valence":"lose","action":"go","sham":0,"trial_type":"pit-trial","trial_index":216,"time_elapsed":950486,"internal_node_id":"0.0-205.0","task_version":"battery-v0.1"},{"rune":"U","hex":"#f73b6a7A","correct":-1,"choice":32,"rt":705.9100000187755,"accuracy":0,"outcome":"-10","keys":[2206.929999985732],"total_keys":1,"block":2,"trial":203,"robot":4,"valence":"lose","action":"no-go","sham":0,"trial_type":"pit-trial","trial_index":217,"time_elapsed":953895,"internal_node_id":"0.0-206.0","task_version":"battery-v0.1"},{"rune":"T","hex":"#3366ff99","correct":-1,"choice":-1,"rt":-1,"accuracy":1,"outcome":"+10","keys":[],"total_keys":0,"block":2,"trial":204,"robot":2,"valence":"win","action":"no-go","sham":0,"trial_type":"pit-trial","trial_index":218,"time_elapsed":957899,"internal_node_id":"0.0-207.0","task_version":"battery-v0.1"},{"rune":"X","hex":"#f73b6a7A","correct":32,"choice":32,"rt":660.3499999037012,"accuracy":1,"outcome":"-10","keys":[2161.559999920428],"total_keys":1,"block":2,"trial":205,"robot":3,"valence":"lose","action":"go","sham":1,"trial_type":"pit-trial","trial_index":219,"time_elapsed":961262,"internal_node_id":"0.0-208.0","task_version":"battery-v0.1"},{"rune":"T","hex":"#3366ff99","correct":-1,"choice":32,"rt":687.5700000673532,"accuracy":0,"outcome":"+1","keys":[2189.0849999617785],"total_keys":1,"block":2,"trial":206,"robot":2,"valence":"win","action":"no-go","sham":0,"trial_type":"pit-trial","trial_index":220,"time_elapsed":964654,"internal_node_id":"0.0-209.0","task_version":"battery-v0.1"},{"rune":"G","hex":"#3366ff99","correct":32,"choice":32,"rt":600.8199999341741,"accuracy":1,"outcome":"+1","keys":[2101.7649999121204],"total_keys":1,"block":2,"trial":207,"robot":1,"valence":"win","action":"go","sham":1,"trial_type":"pit-trial","trial_index":221,"time_elapsed":967960,"internal_node_id":"0.0-210.0","task_version":"battery-v0.1"},{"rune":"U","hex":"#f73b6a7A","correct":-1,"choice":32,"rt":822.745000012219,"accuracy":0,"outcome":"-1","keys":[2323.274999973364],"total_keys":1,"block":2,"trial":208,"robot":4,"valence":"lose","action":"no-go","sham":1,"trial_type":"pit-trial","trial_index":222,"time_elapsed":971486,"internal_node_id":"0.0-211.0","task_version":"battery-v0.1"},{"rune":"Z","hex":"#3366ff99","correct":-1,"choice":32,"rt":946.8800000613555,"accuracy":0,"outcome":"+1","keys":[2446.944999974221],"total_keys":1,"block":2,"trial":209,"robot":2,"valence":"win","action":"no-go","sham":0,"trial_type":"pit-trial","trial_index":223,"time_elapsed":975136,"internal_node_id":"0.0-212.0","task_version":"battery-v0.1"},{"rune":"G","hex":"#3366ff99","correct":32,"choice":-1,"rt":-1,"accuracy":0,"outcome":"+1","keys":[],"total_keys":0,"block":2,"trial":210,"robot":1,"valence":"win","action":"go","sham":0,"trial_type":"pit-trial","trial_index":224,"time_elapsed":979139,"internal_node_id":"0.0-213.0","task_version":"battery-v0.1"},{"rune":"S","hex":"#f73b6a7A","correct":32,"choice":32,"rt":563.5450000409037,"accuracy":1,"outcome":"-1","keys":[2064.714999985881],"total_keys":1,"block":2,"trial":211,"robot":3,"valence":"lose","action":"go","sham":0,"trial_type":"pit-trial","trial_index":225,"time_elapsed":982407,"internal_node_id":"0.0-214.0","task_version":"battery-v0.1"},{"rune":"X","hex":"#f73b6a7A","correct":32,"choice":32,"rt":671.4149999897927,"accuracy":1,"outcome":"-1","keys":[2172.6749999215826],"total_keys":1,"block":2,"trial":212,"robot":3,"valence":"lose","action":"go","sham":0,"trial_type":"pit-trial","trial_index":226,"time_elapsed":985783,"internal_node_id":"0.0-215.0","task_version":"battery-v0.1"},{"rune":"Z","hex":"#3366ff99","correct":-1,"choice":32,"rt":710.9900000505149,"accuracy":0,"outcome":"+1","keys":[2212.3500000452623],"total_keys":1,"block":2,"trial":213,"robot":2,"valence":"win","action":"no-go","sham":0,"trial_type":"pit-trial","trial_index":227,"time_elapsed":989198,"internal_node_id":"0.0-216.0","task_version":"battery-v0.1"},{"rune":"G","hex":"#3366ff99","correct":32,"choice":32,"rt":1191.8650000588968,"accuracy":1,"outcome":"+1","keys":[2692.9650000529364],"total_keys":1,"block":2,"trial":214,"robot":1,"valence":"win","action":"go","sham":1,"trial_type":"pit-trial","trial_index":228,"time_elapsed":993095,"internal_node_id":"0.0-217.0","task_version":"battery-v0.1"},{"rune":"S","hex":"#f73b6a7A","correct":32,"choice":32,"rt":751.9150000298396,"accuracy":1,"outcome":"-1","keys":[2251.9199999514967],"total_keys":1,"block":2,"trial":215,"robot":3,"valence":"lose","action":"go","sham":0,"trial_type":"pit-trial","trial_index":229,"time_elapsed":996552,"internal_node_id":"0.0-218.0","task_version":"battery-v0.1"},{"rune":"X","hex":"#f73b6a7A","correct":32,"choice":32,"rt":527.754999930039,"accuracy":1,"outcome":"-1","keys":[2028.4949999768287],"total_keys":1,"block":2,"trial":216,"robot":3,"valence":"lose","action":"go","sham":0,"trial_type":"pit-trial","trial_index":230,"time_elapsed":999784,"internal_node_id":"0.0-219.0","task_version":"battery-v0.1"},{"rune":"G","hex":"#3366ff99","correct":32,"choice":-1,"rt":-1,"accuracy":0,"outcome":"+1","keys":[],"total_keys":0,"block":2,"trial":217,"robot":1,"valence":"win","action":"go","sham":0,"trial_type":"pit-trial","trial_index":231,"time_elapsed":1003788,"internal_node_id":"0.0-220.0","task_version":"battery-v0.1"},{"rune":"Z","hex":"#3366ff99","correct":-1,"choice":-1,"rt":-1,"accuracy":1,"outcome":"+10","keys":[],"total_keys":0,"block":2,"trial":218,"robot":2,"valence":"win","action":"no-go","sham":0,"trial_type":"pit-trial","trial_index":232,"time_elapsed":1007792,"internal_node_id":"0.0-221.0","task_version":"battery-v0.1"},{"rune":"X","hex":"#f73b6a7A","correct":32,"choice":32,"rt":636.91999996081,"accuracy":1,"outcome":"-1","keys":[2138.0849999841303],"total_keys":1,"block":2,"trial":219,"robot":3,"valence":"lose","action":"go","sham":0,"trial_type":"pit-trial","trial_index":233,"time_elapsed":1011135,"internal_node_id":"0.0-222.0","task_version":"battery-v0.1"},{"rune":"S","hex":"#f73b6a7A","correct":32,"choice":32,"rt":710.7449999311939,"accuracy":1,"outcome":"-1","keys":[2212.42999995593],"total_keys":1,"block":2,"trial":220,"robot":3,"valence":"lose","action":"go","sham":0,"trial_type":"pit-trial","trial_index":234,"time_elapsed":1014550,"internal_node_id":"0.0-223.0","task_version":"battery-v0.1"},{"rune":"G","hex":"#3366ff99","correct":32,"choice":-1,"rt":-1,"accuracy":0,"outcome":"+1","keys":[],"total_keys":0,"block":2,"trial":221,"robot":1,"valence":"win","action":"go","sham":0,"trial_type":"pit-trial","trial_index":235,"time_elapsed":1018554,"internal_node_id":"0.0-224.0","task_version":"battery-v0.1"},{"rune":"S","hex":"#f73b6a7A","correct":32,"choice":32,"rt":612.2850000392646,"accuracy":1,"outcome":"-10","keys":[2113.6699999915436],"total_keys":1,"block":2,"trial":222,"robot":3,"valence":"lose","action":"go","sham":1,"trial_type":"pit-trial","trial_index":236,"time_elapsed":1021871,"internal_node_id":"0.0-225.0","task_version":"battery-v0.1"},{"rune":"Z","hex":"#3366ff99","correct":-1,"choice":-1,"rt":-1,"accuracy":1,"outcome":"+10","keys":[],"total_keys":0,"block":2,"trial":223,"robot":2,"valence":"win","action":"no-go","sham":0,"trial_type":"pit-trial","trial_index":237,"time_elapsed":1025874,"internal_node_id":"0.0-226.0","task_version":"battery-v0.1"},{"rune":"X","hex":"#f73b6a7A","correct":32,"choice":32,"rt":613.2500000530854,"accuracy":1,"outcome":"-1","keys":[2113.954999949783],"total_keys":1,"block":2,"trial":224,"robot":3,"valence":"lose","action":"go","sham":0,"trial_type":"pit-trial","trial_index":238,"time_elapsed":1029191,"internal_node_id":"0.0-227.0","task_version":"battery-v0.1"},{"rune":"X","hex":"#f73b6a7A","correct":32,"choice":32,"rt":712.9799999529496,"accuracy":1,"outcome":"-1","keys":[2213.289999985136],"total_keys":1,"block":2,"trial":225,"robot":3,"valence":"lose","action":"go","sham":0,"trial_type":"pit-trial","trial_index":239,"time_elapsed":1032609,"internal_node_id":"0.0-228.0","task_version":"battery-v0.1"},{"rune":"S","hex":"#f73b6a7A","correct":32,"choice":32,"rt":693.1649999460205,"accuracy":1,"outcome":"-10","keys":[2193.885000073351],"total_keys":1,"block":2,"trial":226,"robot":3,"valence":"lose","action":"go","sham":1,"trial_type":"pit-trial","trial_index":240,"time_elapsed":1036011,"internal_node_id":"0.0-229.0","task_version":"battery-v0.1"},{"rune":"G","hex":"#3366ff99","correct":32,"choice":-1,"rt":-1,"accuracy":0,"outcome":"+1","keys":[],"total_keys":0,"block":2,"trial":227,"robot":1,"valence":"win","action":"go","sham":0,"trial_type":"pit-trial","trial_index":241,"time_elapsed":1040016,"internal_node_id":"0.0-230.0","task_version":"battery-v0.1"},{"rune":"Z","hex":"#3366ff99","correct":-1,"choice":32,"rt":622.6000000024214,"accuracy":0,"outcome":"+1","keys":[2123.4450000338256],"total_keys":1,"block":2,"trial":228,"robot":2,"valence":"win","action":"no-go","sham":0,"trial_type":"pit-trial","trial_index":242,"time_elapsed":1043343,"internal_node_id":"0.0-231.0","task_version":"battery-v0.1"},{"rune":"S","hex":"#f73b6a7A","correct":32,"choice":32,"rt":633.4400000050664,"accuracy":1,"outcome":"-1","keys":[2133.5650000255555],"total_keys":1,"block":2,"trial":229,"robot":3,"valence":"lose","action":"go","sham":0,"trial_type":"pit-trial","trial_index":243,"time_elapsed":1046679,"internal_node_id":"0.0-232.0","task_version":"battery-v0.1"},{"rune":"X","hex":"#f73b6a7A","correct":32,"choice":32,"rt":647.8799999458715,"accuracy":1,"outcome":"-1","keys":[2147.9349998990074],"total_keys":1,"block":2,"trial":230,"robot":3,"valence":"lose","action":"go","sham":0,"trial_type":"pit-trial","trial_index":244,"time_elapsed":1050031,"internal_node_id":"0.0-233.0","task_version":"battery-v0.1"},{"rune":"G","hex":"#3366ff99","correct":32,"choice":-1,"rt":-1,"accuracy":0,"outcome":"+1","keys":[],"total_keys":0,"block":2,"trial":231,"robot":1,"valence":"win","action":"go","sham":0,"trial_type":"pit-trial","trial_index":245,"time_elapsed":1054035,"internal_node_id":"0.0-234.0","task_version":"battery-v0.1"},{"rune":"Z","hex":"#3366ff99","correct":-1,"choice":32,"rt":468.53499999269843,"accuracy":0,"outcome":"+1","keys":[1969.245000043884],"total_keys":1,"block":2,"trial":232,"robot":2,"valence":"win","action":"no-go","sham":0,"trial_type":"pit-trial","trial_index":246,"time_elapsed":1057208,"internal_node_id":"0.0-235.0","task_version":"battery-v0.1"},{"rune":"G","hex":"#3366ff99","correct":32,"choice":-1,"rt":-1,"accuracy":0,"outcome":"+1","keys":[],"total_keys":0,"block":2,"trial":233,"robot":1,"valence":"win","action":"go","sham":0,"trial_type":"pit-trial","trial_index":247,"time_elapsed":1061214,"internal_node_id":"0.0-236.0","task_version":"battery-v0.1"},{"rune":"X","hex":"#f73b6a7A","correct":32,"choice":32,"rt":695.8400000585243,"accuracy":1,"outcome":"-1","keys":[2197.870000032708],"total_keys":1,"block":2,"trial":234,"robot":3,"valence":"lose","action":"go","sham":0,"trial_type":"pit-trial","trial_index":248,"time_elapsed":1064614,"internal_node_id":"0.0-237.0","task_version":"battery-v0.1"},{"rune":"S","hex":"#f73b6a7A","correct":32,"choice":32,"rt":640.5650000087917,"accuracy":1,"outcome":"-10","keys":[2142.519999993965],"total_keys":1,"block":2,"trial":235,"robot":3,"valence":"lose","action":"go","sham":1,"trial_type":"pit-trial","trial_index":249,"time_elapsed":1067960,"internal_node_id":"0.0-238.0","task_version":"battery-v0.1"},{"rune":"Z","hex":"#3366ff99","correct":-1,"choice":32,"rt":526.3000000268221,"accuracy":0,"outcome":"+1","keys":[2026.4149999711663],"total_keys":1,"block":2,"trial":236,"robot":2,"valence":"win","action":"no-go","sham":0,"trial_type":"pit-trial","trial_index":250,"time_elapsed":1071192,"internal_node_id":"0.0-239.0","task_version":"battery-v0.1"},{"rune":"S","hex":"#f73b6a7A","correct":32,"choice":32,"rt":758.2599999150261,"accuracy":1,"outcome":"-10","keys":[2259.0600000694394],"total_keys":1,"block":2,"trial":237,"robot":3,"valence":"lose","action":"go","sham":1,"trial_type":"pit-trial","trial_index":251,"time_elapsed":1074656,"internal_node_id":"0.0-240.0","task_version":"battery-v0.1"},{"rune":"G","hex":"#3366ff99","correct":32,"choice":-1,"rt":-1,"accuracy":0,"outcome":"+1","keys":[],"total_keys":0,"block":2,"trial":238,"robot":1,"valence":"win","action":"go","sham":0,"trial_type":"pit-trial","trial_index":252,"time_elapsed":1078661,"internal_node_id":"0.0-241.0","task_version":"battery-v0.1"},{"rune":"Z","hex":"#3366ff99","correct":-1,"choice":32,"rt":536.7550000082701,"accuracy":0,"outcome":"+10","keys":[2036.9299999438226],"total_keys":1,"block":2,"trial":239,"robot":2,"valence":"win","action":"no-go","sham":1,"trial_type":"pit-trial","trial_index":253,"time_elapsed":1081902,"internal_node_id":"0.0-242.0","task_version":"battery-v0.1"},{"rune":"X","hex":"#f73b6a7A","correct":32,"choice":32,"rt":666.4599999785423,"accuracy":1,"outcome":"-1","keys":[2166.71999997925],"total_keys":1,"block":2,"trial":240,"robot":3,"valence":"lose","action":"go","sham":0,"trial_type":"pit-trial","trial_index":254,"time_elapsed":1085271,"internal_node_id":"0.0-243.0","task_version":"battery-v0.1"},{"view_history":"[{\"page_index\":0,\"viewing_time\":2782.335000112653}]","rt":2782.645000028424,"trial_type":"pit-instructions","trial_index":255,"time_elapsed":1088055,"internal_node_id":"0.0-244.0","task_version":"battery-v0.1"},{"rt":15686.53499998618,"responses":{"age":"65","gender-categorical":"Female","gender-free-response":"","ethnicity":"Not Hispanic or Latino","race":["White"],"language":"Yes","fluency":"Very well"},"survey":"demographics","trial_type":"survey-demo","trial_index":256,"time_elapsed":1103744,"internal_node_id":"0.0-245.0","task_version":"battery-v0.1"},{"rt":38557.239999994636,"responses":{"difficulty":"2","fun":"5","clarity":"5","strategy":"Tried to remember but failed most of the time","feedback":"none"},"survey":"debrief","trial_type":"survey-debrief","trial_index":257,"time_elapsed":1142303,"internal_node_id":"0.0-246.0","task_version":"battery-v0.1","interactions":"[{\"event\":\"blur\",\"trial\":257,\"time\":1107408},{\"event\":\"focus\",\"trial\":257,\"time\":1109268}]"}]