[{"view_history":"[{\"page_index\":0,\"viewing_time\":4126.120000146329},{\"page_index\":1,\"viewing_time\":5599.999999627471},{\"page_index\":2,\"viewing_time\":2951.8500003032386},{\"page_index\":3,\"viewing_time\":6624.349999707192},{\"page_index\":4,\"viewing_time\":5487.819999922067},{\"page_index\":5,\"viewing_time\":6255.970000289381}]","rt":31047.410000115633,"trial_type":"pit-instructions","trial_index":0,"time_elapsed":31059,"internal_node_id":"0.0-0.0-0.0","task_version":"battery-v0.1"},{"rune":"","hex":"#FFFFF080","correct":32,"choice":-1,"rt":-1,"accuracy":0,"outcome":"+0","keys":[],"total_keys":0,"block":0,"trial_type":"pit-trial","trial_index":1,"time_elapsed":35064,"internal_node_id":"0.0-0.0-1.0-0.0","task_version":"battery-v0.1"},{"rune":"","hex":"#FFFFF080","correct":32,"choice":32,"rt":290.8100001513958,"accuracy":1,"outcome":"+10","keys":[1792.4950001761317],"total_keys":1,"block":0,"trial_type":"pit-trial","trial_index":2,"time_elapsed":38059,"internal_node_id":"0.0-0.0-1.0-0.1","task_version":"battery-v0.1"},{"rune":"","hex":"#FFFFF080","correct":32,"choice":32,"rt":256.8449997343123,"accuracy":1,"outcome":"+10","keys":[1757.584999781102],"total_keys":1,"block":0,"trial_type":"pit-trial","trial_index":3,"time_elapsed":41019,"internal_node_id":"0.0-0.0-1.0-0.2","task_version":"battery-v0.1"},{"rune":"","hex":"#FFFFF080","correct":32,"choice":32,"rt":293.7400001101196,"accuracy":1,"outcome":"+10","keys":[1793.9349999651313],"total_keys":1,"block":0,"trial_type":"pit-trial","trial_index":4,"time_elapsed":44015,"internal_node_id":"0.0-0.0-1.0-0.3","task_version":"battery-v0.1"},{"view_history":"[{\"page_index\":0,\"viewing_time\":9553.299999795854}]","rt":9553.98999992758,"trial_type":"pit-instructions","trial_index":5,"time_elapsed":53570,"internal_node_id":"0.0-0.0-2.0","task_version":"battery-v0.1"},{"rune":"","hex":"#FFFFF080","correct":-1,"choice":-1,"rt":-1,"accuracy":1,"outcome":"+10","keys":[],"total_keys":0,"block":0,"trial_type":"pit-trial","trial_index":6,"time_elapsed":57575,"internal_node_id":"0.0-0.0-3.0-0.0","task_version":"battery-v0.1"},{"rune":"","hex":"#FFFFF080","correct":-1,"choice":-1,"rt":-1,"accuracy":1,"outcome":"+10","keys":[],"total_keys":0,"block":0,"trial_type":"pit-trial","trial_index":7,"time_elapsed":61578,"internal_node_id":"0.0-0.0-3.0-0.1","task_version":"battery-v0.1"},{"rune":"","hex":"#FFFFF080","correct":-1,"choice":-1,"rt":-1,"accuracy":1,"outcome":"+10","keys":[],"total_keys":0,"block":0,"trial_type":"pit-trial","trial_index":8,"time_elapsed":65581,"internal_node_id":"0.0-0.0-3.0-0.2","task_version":"battery-v0.1"},{"rune":"","hex":"#FFFFF080","correct":-1,"choice":-1,"rt":-1,"accuracy":1,"outcome":"+10","keys":[],"total_keys":0,"block":0,"trial_type":"pit-trial","trial_index":9,"time_elapsed":69584,"internal_node_id":"0.0-0.0-3.0-0.3","task_version":"battery-v0.1"},{"responses":["Press SPACE","Do nothing"],"num_errors":0,"rt":10096.43999999389,"trial_type":"pit-comprehension","trial_index":10,"time_elapsed":79683,"internal_node_id":"0.0-0.0-4.0","task_version":"battery-v0.1"},{"view_history":"[{\"page_index\":0,\"viewing_time\":6841.320000123233},{\"page_index\":1,\"viewing_time\":8481.019999831915},{\"page_index\":2,\"viewing_time\":5327.415000181645},{\"page_index\":3,\"viewing_time\":7239.800000097603},{\"page_index\":4,\"viewing_time\":8319.544999860227},{\"page_index\":5,\"viewing_time\":12376.569999847561},{\"page_index\":6,\"viewing_time\":4479.740000329912},{\"page_index\":7,\"viewing_time\":3903.589999768883},{\"page_index\":8,\"viewing_time\":5320.009999908507},{\"page_index\":9,\"viewing_time\":3281.27000015229},{\"page_index\":10,\"viewing_time\":5806.739999912679}]","rt":71377.53000017256,"trial_type":"pit-instructions","trial_index":11,"time_elapsed":151066,"internal_node_id":"0.0-1.0-0.0","task_version":"battery-v0.1"},{"responses":["+10","+10","True","True"],"num_errors":1,"rt":25334.824999794364,"trial_type":"pit-comprehension","trial_index":12,"time_elapsed":176403,"internal_node_id":"0.0-1.0-1.0","task_version":"battery-v0.1"},{"view_history":"[{\"page_index\":0,\"viewing_time\":5618.125000037253},{\"page_index\":1,\"viewing_time\":2976.1849995702505},{\"page_index\":2,\"viewing_time\":607.795000076294},{\"page_index\":3,\"viewing_time\":647.9950002394617},{\"page_index\":4,\"viewing_time\":1256.180000025779},{\"page_index\":5,\"viewing_time\":2743.7649997882545},{\"page_index\":6,\"viewing_time\":14487.990000285208},{\"page_index\":7,\"viewing_time\":527.9500000178814},{\"page_index\":8,\"viewing_time\":496.10499991104007},{\"page_index\":9,\"viewing_time\":463.9699999243021},{\"page_index\":10,\"viewing_time\":439.85999980941415}]","rt":30266.53999974951,"trial_type":"pit-instructions","trial_index":13,"time_elapsed":206674,"internal_node_id":"0.0-1.1-0.1","task_version":"battery-v0.1"},{"responses":["+10","+1","True","True"],"num_errors":1,"rt":10046.105000190437,"trial_type":"pit-comprehension","trial_index":14,"time_elapsed":216723,"internal_node_id":"0.0-1.1-1.1","task_version":"battery-v0.1"},{"view_history":"[{\"page_index\":0,\"viewing_time\":1891.6250001639128},{\"page_index\":1,\"viewing_time\":453.9399999193847},{\"page_index\":2,\"viewing_time\":376.1199996806681},{\"page_index\":3,\"viewing_time\":175.8750001899898},{\"page_index\":4,\"viewing_time\":175.99500017240644},{\"page_index\":5,\"viewing_time\":200.06499998271465},{\"page_index\":6,\"viewing_time\":5255.965000018477},{\"page_index\":7,\"viewing_time\":807.6599999330938},{\"page_index\":8,\"viewing_time\":496.3599997572601},{\"page_index\":9,\"viewing_time\":503.7250001914799},{\"page_index\":10,\"viewing_time\":456.29999972879887}]","rt":10794.209999963641,"trial_type":"pit-instructions","trial_index":15,"time_elapsed":227522,"internal_node_id":"0.0-1.2-0.2","task_version":"battery-v0.1"},{"responses":["+10","-1","True","True"],"num_errors":0,"rt":7358.024999964982,"trial_type":"pit-comprehension","trial_index":16,"time_elapsed":234883,"internal_node_id":"0.0-1.2-1.2","task_version":"battery-v0.1"},{"view_history":"[{\"page_index\":0,\"viewing_time\":2587.569999974221},{\"page_index\":1,\"viewing_time\":3711.260000243783}]","rt":6299.345000181347,"trial_type":"pit-instructions","trial_index":17,"time_elapsed":241185,"internal_node_id":"0.0-2.0","task_version":"battery-v0.1"},{"rune":"X","hex":"#3366ff99","correct":32,"choice":32,"rt":297.7350000292063,"accuracy":1,"outcome":"+10","keys":[1798.560000024736],"total_keys":1,"block":1,"trial":1,"robot":1,"valence":"win","action":"go","sham":0,"trial_type":"pit-trial","trial_index":18,"time_elapsed":244188,"internal_node_id":"0.0-3.0","task_version":"battery-v0.1"},{"rune":"N","hex":"#3366ff99","correct":32,"choice":32,"rt":422.4700001068413,"accuracy":1,"outcome":"+10","keys":[1922.9700001887977],"total_keys":1,"block":1,"trial":2,"robot":1,"valence":"win","action":"go","sham":0,"trial_type":"pit-trial","trial_index":19,"time_elapsed":247314,"internal_node_id":"0.0-4.0","task_version":"battery-v0.1"},{"rune":"V","hex":"#3366ff99","correct":-1,"choice":32,"rt":263.25999991968274,"accuracy":0,"outcome":"+1","keys":[1763.790000230074],"total_keys":1,"block":1,"trial":3,"robot":2,"valence":"win","action":"no-go","sham":0,"trial_type":"pit-trial","trial_index":20,"time_elapsed":250280,"internal_node_id":"0.0-5.0","task_version":"battery-v0.1"},{"rune":"D","hex":"#f73b6a7A","correct":-1,"choice":32,"rt":464.01000022888184,"accuracy":0,"outcome":"-10","keys":[1964.1149998642504],"total_keys":1,"block":1,"trial":4,"robot":4,"valence":"lose","action":"no-go","sham":0,"trial_type":"pit-trial","trial_index":21,"time_elapsed":253447,"internal_node_id":"0.0-6.0","task_version":"battery-v0.1"},{"rune":"V","hex":"#3366ff99","correct":-1,"choice":32,"rt":299.31499995291233,"accuracy":0,"outcome":"+1","keys":[1799.450000282377],"total_keys":1,"block":1,"trial":5,"robot":2,"valence":"win","action":"no-go","sham":0,"trial_type":"pit-trial","trial_index":22,"time_elapsed":256448,"internal_node_id":"0.0-7.0","task_version":"battery-v0.1"},{"rune":"X","hex":"#3366ff99","correct":32,"choice":32,"rt":387.75999983772635,"accuracy":1,"outcome":"+10","keys":[1889.0499998815358],"total_keys":1,"block":1,"trial":6,"robot":1,"valence":"win","action":"go","sham":0,"trial_type":"pit-trial","trial_index":23,"time_elapsed":259540,"internal_node_id":"0.0-8.0","task_version":"battery-v0.1"},{"rune":"D","hex":"#f73b6a7A","correct":-1,"choice":-1,"rt":-1,"accuracy":1,"outcome":"-10","keys":[],"total_keys":0,"block":1,"trial":7,"robot":4,"valence":"lose","action":"no-go","sham":1,"trial_type":"pit-trial","trial_index":24,"time_elapsed":263543,"internal_node_id":"0.0-9.0","task_version":"battery-v0.1"},{"rune":"N","hex":"#3366ff99","correct":32,"choice":32,"rt":261.0149998217821,"accuracy":1,"outcome":"+10","keys":[1761.2699996680021],"total_keys":1,"block":1,"trial":8,"robot":1,"valence":"win","action":"go","sham":0,"trial_type":"pit-trial","trial_index":25,"time_elapsed":266507,"internal_node_id":"0.0-10.0","task_version":"battery-v0.1"},{"rune":"X","hex":"#3366ff99","correct":32,"choice":32,"rt":402.40500029176474,"accuracy":1,"outcome":"+10","keys":[1902.5650001130998],"total_keys":1,"block":1,"trial":9,"robot":1,"valence":"win","action":"go","sham":0,"trial_type":"pit-trial","trial_index":26,"time_elapsed":269612,"internal_node_id":"0.0-11.0","task_version":"battery-v0.1"},{"rune":"D","hex":"#f73b6a7A","correct":-1,"choice":32,"rt":414.10499997437,"accuracy":0,"outcome":"-10","keys":[1914.6799999289215],"total_keys":1,"block":1,"trial":10,"robot":4,"valence":"lose","action":"no-go","sham":0,"trial_type":"pit-trial","trial_index":27,"time_elapsed":272730,"internal_node_id":"0.0-12.0","task_version":"battery-v0.1"},{"rune":"V","hex":"#3366ff99","correct":-1,"choice":32,"rt":313.3950000628829,"accuracy":0,"outcome":"+1","keys":[1814.005000051111],"total_keys":1,"block":1,"trial":11,"robot":2,"valence":"win","action":"no-go","sham":0,"trial_type":"pit-trial","trial_index":28,"time_elapsed":275746,"internal_node_id":"0.0-13.0","task_version":"battery-v0.1"},{"rune":"N","hex":"#3366ff99","correct":32,"choice":32,"rt":336.51999989524484,"accuracy":1,"outcome":"+10","keys":[1837.3549999669194],"total_keys":1,"block":1,"trial":12,"robot":1,"valence":"win","action":"go","sham":0,"trial_type":"pit-trial","trial_index":29,"time_elapsed":278786,"internal_node_id":"0.0-14.0","task_version":"battery-v0.1"},{"rune":"V","hex":"#3366ff99","correct":-1,"choice":32,"rt":253.53999994695187,"accuracy":0,"outcome":"+1","keys":[1753.6550001241267],"total_keys":1,"block":1,"trial":13,"robot":2,"valence":"win","action":"no-go","sham":0,"trial_type":"pit-trial","trial_index":30,"time_elapsed":281743,"internal_node_id":"0.0-15.0","task_version":"battery-v0.1"},{"rune":"X","hex":"#3366ff99","correct":32,"choice":32,"rt":761.9150001555681,"accuracy":1,"outcome":"+10","keys":[2262.6849999651313],"total_keys":1,"block":1,"trial":14,"robot":1,"valence":"win","action":"go","sham":0,"trial_type":"pit-trial","trial_index":31,"time_elapsed":285208,"internal_node_id":"0.0-16.0","task_version":"battery-v0.1"},{"rune":"D","hex":"#f73b6a7A","correct":-1,"choice":-1,"rt":-1,"accuracy":1,"outcome":"-1","keys":[],"total_keys":0,"block":1,"trial":15,"robot":4,"valence":"lose","action":"no-go","sham":0,"trial_type":"pit-trial","trial_index":32,"time_elapsed":289212,"internal_node_id":"0.0-17.0","task_version":"battery-v0.1"},{"rune":"N","hex":"#3366ff99","correct":32,"choice":32,"rt":284.854999743402,"accuracy":1,"outcome":"+10","keys":[1785.7799995690584],"total_keys":1,"block":1,"trial":16,"robot":1,"valence":"win","action":"go","sham":0,"trial_type":"pit-trial","trial_index":33,"time_elapsed":292200,"internal_node_id":"0.0-18.0","task_version":"battery-v0.1"},{"rune":"X","hex":"#3366ff99","correct":32,"choice":32,"rt":382.8749996609986,"accuracy":1,"outcome":"+10","keys":[1884.1300001367927],"total_keys":1,"block":1,"trial":17,"robot":1,"valence":"win","action":"go","sham":0,"trial_type":"pit-trial","trial_index":34,"time_elapsed":295287,"internal_node_id":"0.0-19.0","task_version":"battery-v0.1"},{"rune":"V","hex":"#3366ff99","correct":-1,"choice":32,"rt":252.6549999602139,"accuracy":0,"outcome":"+10","keys":[1754.5100003480911],"total_keys":1,"block":1,"trial":18,"robot":2,"valence":"win","action":"no-go","sham":1,"trial_type":"pit-trial","trial_index":35,"time_elapsed":298244,"internal_node_id":"0.0-20.0","task_version":"battery-v0.1"},{"rune":"D","hex":"#f73b6a7A","correct":-1,"choice":32,"rt":805.1449996419251,"accuracy":0,"outcome":"-10","keys":[2306.399999652058],"total_keys":1,"block":1,"trial":19,"robot":4,"valence":"lose","action":"no-go","sham":0,"trial_type":"pit-trial","trial_index":36,"time_elapsed":301753,"internal_node_id":"0.0-21.0","task_version":"battery-v0.1"},{"rune":"N","hex":"#3366ff99","correct":32,"choice":32,"rt":283.80499966442585,"accuracy":1,"outcome":"+10","keys":[1784.244999755174],"total_keys":1,"block":1,"trial":20,"robot":1,"valence":"win","action":"go","sham":0,"trial_type":"pit-trial","trial_index":37,"time_elapsed":304739,"internal_node_id":"0.0-22.0","task_version":"battery-v0.1"},{"rune":"X","hex":"#3366ff99","correct":32,"choice":32,"rt":381.86000008136034,"accuracy":1,"outcome":"+10","keys":[1882.9100001603365],"total_keys":1,"block":1,"trial":21,"robot":1,"valence":"win","action":"go","sham":0,"trial_type":"pit-trial","trial_index":38,"time_elapsed":307824,"internal_node_id":"0.0-23.0","task_version":"battery-v0.1"},{"rune":"N","hex":"#3366ff99","correct":32,"choice":32,"rt":280.1299998536706,"accuracy":1,"outcome":"+10","keys":[1780.339999590069],"total_keys":1,"block":1,"trial":22,"robot":1,"valence":"win","action":"go","sham":0,"trial_type":"pit-trial","trial_index":39,"time_elapsed":310807,"internal_node_id":"0.0-24.0","task_version":"battery-v0.1"},{"rune":"D","hex":"#f73b6a7A","correct":-1,"choice":-1,"rt":-1,"accuracy":1,"outcome":"-1","keys":[],"total_keys":0,"block":1,"trial":23,"robot":4,"valence":"lose","action":"no-go","sham":0,"trial_type":"pit-trial","trial_index":40,"time_elapsed":314810,"internal_node_id":"0.0-25.0","task_version":"battery-v0.1"},{"rune":"V","hex":"#3366ff99","correct":-1,"choice":32,"rt":190.1799999177456,"accuracy":0,"outcome":"+10","keys":[1690.5500004068017],"total_keys":1,"block":1,"trial":24,"robot":2,"valence":"win","action":"no-go","sham":1,"trial_type":"pit-trial","trial_index":41,"time_elapsed":317704,"internal_node_id":"0.0-26.0","task_version":"battery-v0.1"},{"rune":"V","hex":"#3366ff99","correct":-1,"choice":32,"rt":247.4850001744926,"accuracy":0,"outcome":"+1","keys":[1748.4450000338256],"total_keys":1,"block":1,"trial":25,"robot":2,"valence":"win","action":"no-go","sham":0,"trial_type":"pit-trial","trial_index":42,"time_elapsed":320655,"internal_node_id":"0.0-27.0","task_version":"battery-v0.1"},{"rune":"X","hex":"#3366ff99","correct":32,"choice":32,"rt":433.275000192225,"accuracy":1,"outcome":"+1","keys":[1933.3599996753037],"total_keys":1,"block":1,"trial":26,"robot":1,"valence":"win","action":"go","sham":1,"trial_type":"pit-trial","trial_index":43,"time_elapsed":323791,"internal_node_id":"0.0-28.0","task_version":"battery-v0.1"},{"rune":"D","hex":"#f73b6a7A","correct":-1,"choice":32,"rt":743.4849999845028,"accuracy":0,"outcome":"-10","keys":[2243.940000422299],"total_keys":1,"block":1,"trial":27,"robot":4,"valence":"lose","action":"no-go","sham":0,"trial_type":"pit-trial","trial_index":44,"time_elapsed":327238,"internal_node_id":"0.0-29.0","task_version":"battery-v0.1"},{"rune":"N","hex":"#3366ff99","correct":32,"choice":32,"rt":317.20499973744154,"accuracy":1,"outcome":"+10","keys":[1818.304999731481],"total_keys":1,"block":1,"trial":28,"robot":1,"valence":"win","action":"go","sham":0,"trial_type":"pit-trial","trial_index":45,"time_elapsed":330259,"internal_node_id":"0.0-30.0","task_version":"battery-v0.1"},{"rune":"V","hex":"#3366ff99","correct":-1,"choice":-1,"rt":-1,"accuracy":1,"outcome":"+10","keys":[],"total_keys":0,"block":1,"trial":29,"robot":2,"valence":"win","action":"no-go","sham":0,"trial_type":"pit-trial","trial_index":46,"time_elapsed":334264,"internal_node_id":"0.0-31.0","task_version":"battery-v0.1"},{"rune":"X","hex":"#3366ff99","correct":32,"choice":32,"rt":313.5350001975894,"accuracy":1,"outcome":"+10","keys":[1813.8600001111627],"total_keys":1,"block":1,"trial":30,"robot":1,"valence":"win","action":"go","sham":0,"trial_type":"pit-trial","trial_index":47,"time_elapsed":337281,"internal_node_id":"0.0-32.0","task_version":"battery-v0.1"},{"rune":"D","hex":"#f73b6a7A","correct":-1,"choice":-1,"rt":-1,"accuracy":1,"outcome":"-1","keys":[],"total_keys":0,"block":1,"trial":31,"robot":4,"valence":"lose","action":"no-go","sham":0,"trial_type":"pit-trial","trial_index":48,"time_elapsed":341284,"internal_node_id":"0.0-33.0","task_version":"battery-v0.1"},{"rune":"N","hex":"#3366ff99","correct":32,"choice":32,"rt":379.56500006839633,"accuracy":1,"outcome":"+10","keys":[1880.0550000742078],"total_keys":1,"block":1,"trial":32,"robot":1,"valence":"win","action":"go","sham":0,"trial_type":"pit-trial","trial_index":49,"time_elapsed":344365,"internal_node_id":"0.0-34.0","task_version":"battery-v0.1"},{"rune":"D","hex":"#f73b6a7A","correct":-1,"choice":-1,"rt":-1,"accuracy":1,"outcome":"-10","keys":[],"total_keys":0,"block":1,"trial":33,"robot":4,"valence":"lose","action":"no-go","sham":1,"trial_type":"pit-trial","trial_index":50,"time_elapsed":348368,"internal_node_id":"0.0-35.0","task_version":"battery-v0.1"},{"rune":"X","hex":"#3366ff99","correct":32,"choice":32,"rt":372.7099997922778,"accuracy":1,"outcome":"+10","keys":[24.474999867379665,1872.959999833256],"total_keys":2,"block":1,"trial":34,"robot":1,"valence":"win","action":"go","sham":0,"trial_type":"pit-trial","trial_index":51,"time_elapsed":351443,"internal_node_id":"0.0-36.0","task_version":"battery-v0.1"},{"rune":"V","hex":"#3366ff99","correct":-1,"choice":-1,"rt":-1,"accuracy":1,"outcome":"+10","keys":[],"total_keys":0,"block":1,"trial":35,"robot":2,"valence":"win","action":"no-go","sham":0,"trial_type":"pit-trial","trial_index":52,"time_elapsed":355447,"internal_node_id":"0.0-37.0","task_version":"battery-v0.1"},{"rune":"I","hex":"#3366ff99","correct":32,"choice":32,"rt":888.8649996370077,"accuracy":1,"outcome":"+10","keys":[2388.950000051409],"total_keys":1,"block":1,"trial":36,"robot":1,"valence":"win","action":"go","sham":0,"trial_type":"pit-trial","trial_index":53,"time_elapsed":359038,"internal_node_id":"0.0-38.0","task_version":"battery-v0.1"},{"rune":"D","hex":"#f73b6a7A","correct":-1,"choice":32,"rt":873.5100002959371,"accuracy":0,"outcome":"-1","keys":[2374.474999960512],"total_keys":1,"block":1,"trial":37,"robot":4,"valence":"lose","action":"no-go","sham":1,"trial_type":"pit-trial","trial_index":54,"time_elapsed":362615,"internal_node_id":"0.0-39.0","task_version":"battery-v0.1"},{"rune":"V","hex":"#3366ff99","correct":-1,"choice":32,"rt":318.6200000345707,"accuracy":0,"outcome":"+1","keys":[1818.844999652356],"total_keys":1,"block":1,"trial":38,"robot":2,"valence":"win","action":"no-go","sham":0,"trial_type":"pit-trial","trial_index":55,"time_elapsed":365636,"internal_node_id":"0.0-40.0","task_version":"battery-v0.1"},{"rune":"I","hex":"#3366ff99","correct":32,"choice":32,"rt":221.0750002413988,"accuracy":1,"outcome":"+1","keys":[1721.1899999529123],"total_keys":1,"block":1,"trial":39,"robot":1,"valence":"win","action":"go","sham":1,"trial_type":"pit-trial","trial_index":56,"time_elapsed":368562,"internal_node_id":"0.0-41.0","task_version":"battery-v0.1"},{"rune":"X","hex":"#3366ff99","correct":32,"choice":32,"rt":366.96500005200505,"accuracy":1,"outcome":"+10","keys":[1868.2300001382828],"total_keys":1,"block":1,"trial":40,"robot":1,"valence":"win","action":"go","sham":0,"trial_type":"pit-trial","trial_index":57,"time_elapsed":371633,"internal_node_id":"0.0-42.0","task_version":"battery-v0.1"},{"rune":"B","hex":"#f73b6a7A","correct":-1,"choice":32,"rt":732.6349997892976,"accuracy":0,"outcome":"-1","keys":[2232.795000076294],"total_keys":1,"block":1,"trial":41,"robot":4,"valence":"lose","action":"no-go","sham":1,"trial_type":"pit-trial","trial_index":58,"time_elapsed":375068,"internal_node_id":"0.0-43.0","task_version":"battery-v0.1"},{"rune":"K","hex":"#f73b6a7A","correct":32,"choice":32,"rt":682.6049997471273,"accuracy":1,"outcome":"-1","keys":[2183.8400000706315],"total_keys":1,"block":1,"trial":42,"robot":3,"valence":"lose","action":"go","sham":0,"trial_type":"pit-trial","trial_index":59,"time_elapsed":378454,"internal_node_id":"0.0-44.0","task_version":"battery-v0.1"},{"rune":"I","hex":"#3366ff99","correct":32,"choice":32,"rt":447.99999985843897,"accuracy":1,"outcome":"+1","keys":[1949.1200000047684],"total_keys":1,"block":1,"trial":43,"robot":1,"valence":"win","action":"go","sham":1,"trial_type":"pit-trial","trial_index":60,"time_elapsed":381605,"internal_node_id":"0.0-45.0","task_version":"battery-v0.1"},{"rune":"V","hex":"#3366ff99","correct":-1,"choice":32,"rt":433.9250000193715,"accuracy":0,"outcome":"+10","keys":[1934.590000193566],"total_keys":1,"block":1,"trial":44,"robot":2,"valence":"win","action":"no-go","sham":1,"trial_type":"pit-trial","trial_index":61,"time_elapsed":384743,"internal_node_id":"0.0-46.0","task_version":"battery-v0.1"},{"rune":"K","hex":"#f73b6a7A","correct":32,"choice":-1,"rt":-1,"accuracy":0,"outcome":"-10","keys":[3320.110000204295],"total_keys":1,"block":1,"trial":45,"robot":3,"valence":"lose","action":"go","sham":0,"trial_type":"pit-trial","trial_index":62,"time_elapsed":388747,"internal_node_id":"0.0-47.0","task_version":"battery-v0.1"},{"rune":"B","hex":"#f73b6a7A","correct":-1,"choice":-1,"rt":-1,"accuracy":1,"outcome":"-1","keys":[],"total_keys":0,"block":1,"trial":46,"robot":4,"valence":"lose","action":"no-go","sham":0,"trial_type":"pit-trial","trial_index":63,"time_elapsed":392750,"internal_node_id":"0.0-48.0","task_version":"battery-v0.1"},{"rune":"V","hex":"#3366ff99","correct":-1,"choice":32,"rt":354.5400002039969,"accuracy":0,"outcome":"+1","keys":[1854.784999974072],"total_keys":1,"block":1,"trial":47,"robot":2,"valence":"win","action":"no-go","sham":0,"trial_type":"pit-trial","trial_index":64,"time_elapsed":395807,"internal_node_id":"0.0-49.0","task_version":"battery-v0.1"},{"rune":"I","hex":"#3366ff99","correct":32,"choice":32,"rt":713.9350003562868,"accuracy":1,"outcome":"+10","keys":[2214.784999843687],"total_keys":1,"block":1,"trial":48,"robot":1,"valence":"win","action":"go","sham":0,"trial_type":"pit-trial","trial_index":65,"time_elapsed":399224,"internal_node_id":"0.0-50.0","task_version":"battery-v0.1"},{"rune":"C","hex":"#3366ff99","correct":-1,"choice":32,"rt":826.5849999152124,"accuracy":0,"outcome":"+1","keys":[2326.804999727756],"total_keys":1,"block":1,"trial":49,"robot":2,"valence":"win","action":"no-go","sham":0,"trial_type":"pit-trial","trial_index":66,"time_elapsed":402754,"internal_node_id":"0.0-51.0","task_version":"battery-v0.1"},{"rune":"I","hex":"#3366ff99","correct":32,"choice":32,"rt":677.6649998500943,"accuracy":1,"outcome":"+1","keys":[2178.330000024289],"total_keys":1,"block":1,"trial":50,"robot":1,"valence":"win","action":"go","sham":1,"trial_type":"pit-trial","trial_index":67,"time_elapsed":406135,"internal_node_id":"0.0-52.0","task_version":"battery-v0.1"},{"rune":"K","hex":"#f73b6a7A","correct":32,"choice":-1,"rt":-1,"accuracy":0,"outcome":"-10","keys":[],"total_keys":0,"block":1,"trial":51,"robot":3,"valence":"lose","action":"go","sham":0,"trial_type":"pit-trial","trial_index":68,"time_elapsed":410138,"internal_node_id":"0.0-53.0","task_version":"battery-v0.1"},{"rune":"B","hex":"#f73b6a7A","correct":-1,"choice":-1,"rt":-1,"accuracy":1,"outcome":"-10","keys":[],"total_keys":0,"block":1,"trial":52,"robot":4,"valence":"lose","action":"no-go","sham":1,"trial_type":"pit-trial","trial_index":69,"time_elapsed":414141,"internal_node_id":"0.0-54.0","task_version":"battery-v0.1"},{"rune":"K","hex":"#f73b6a7A","correct":32,"choice":32,"rt":407.8449998050928,"accuracy":1,"outcome":"-1","keys":[1909.1400001198053],"total_keys":1,"block":1,"trial":53,"robot":3,"valence":"lose","action":"go","sham":0,"trial_type":"pit-trial","trial_index":70,"time_elapsed":417252,"internal_node_id":"0.0-55.0","task_version":"battery-v0.1"},{"rune":"B","hex":"#f73b6a7A","correct":-1,"choice":32,"rt":1113.1450003013015,"accuracy":0,"outcome":"-1","keys":[2613.6249997653067],"total_keys":1,"block":1,"trial":54,"robot":4,"valence":"lose","action":"no-go","sham":1,"trial_type":"pit-trial","trial_index":71,"time_elapsed":421068,"internal_node_id":"0.0-56.0","task_version":"battery-v0.1"},{"rune":"C","hex":"#3366ff99","correct":-1,"choice":32,"rt":391.764999832958,"accuracy":0,"outcome":"+1","keys":[1892.0399998314679],"total_keys":1,"block":1,"trial":55,"robot":2,"valence":"win","action":"no-go","sham":0,"trial_type":"pit-trial","trial_index":72,"time_elapsed":424164,"internal_node_id":"0.0-57.0","task_version":"battery-v0.1"},{"rune":"I","hex":"#3366ff99","correct":32,"choice":32,"rt":347.9949999600649,"accuracy":1,"outcome":"+10","keys":[1849.0849998779595],"total_keys":1,"block":1,"trial":56,"robot":1,"valence":"win","action":"go","sham":0,"trial_type":"pit-trial","trial_index":73,"time_elapsed":427216,"internal_node_id":"0.0-58.0","task_version":"battery-v0.1"},{"rune":"B","hex":"#f73b6a7A","correct":-1,"choice":32,"rt":801.4949997887015,"accuracy":0,"outcome":"-10","keys":[2301.5850000083447],"total_keys":1,"block":1,"trial":57,"robot":4,"valence":"lose","action":"no-go","sham":0,"trial_type":"pit-trial","trial_index":74,"time_elapsed":430720,"internal_node_id":"0.0-59.0","task_version":"battery-v0.1"},{"rune":"I","hex":"#3366ff99","correct":32,"choice":32,"rt":313.8199998065829,"accuracy":1,"outcome":"+10","keys":[1813.9249999076128],"total_keys":1,"block":1,"trial":58,"robot":1,"valence":"win","action":"go","sham":0,"trial_type":"pit-trial","trial_index":75,"time_elapsed":433736,"internal_node_id":"0.0-60.0","task_version":"battery-v0.1"},{"rune":"C","hex":"#3366ff99","correct":-1,"choice":32,"rt":472.39999985322356,"accuracy":0,"outcome":"+1","keys":[1973.7249999307096],"total_keys":1,"block":1,"trial":59,"robot":2,"valence":"win","action":"no-go","sham":0,"trial_type":"pit-trial","trial_index":76,"time_elapsed":436913,"internal_node_id":"0.0-61.0","task_version":"battery-v0.1"},{"rune":"K","hex":"#f73b6a7A","correct":32,"choice":-1,"rt":-1,"accuracy":0,"outcome":"-10","keys":[3516.8649996630847],"total_keys":1,"block":1,"trial":60,"robot":3,"valence":"lose","action":"go","sham":0,"trial_type":"pit-trial","trial_index":77,"time_elapsed":440917,"internal_node_id":"0.0-62.0","task_version":"battery-v0.1"},{"rune":"B","hex":"#f73b6a7A","correct":-1,"choice":32,"rt":227.36500017344952,"accuracy":0,"outcome":"-10","keys":[1729.1000001132488],"total_keys":1,"block":1,"trial":61,"robot":4,"valence":"lose","action":"no-go","sham":0,"trial_type":"pit-trial","trial_index":78,"time_elapsed":443849,"internal_node_id":"0.0-63.0","task_version":"battery-v0.1"},{"rune":"K","hex":"#f73b6a7A","correct":32,"choice":-1,"rt":-1,"accuracy":0,"outcome":"-1","keys":[],"total_keys":0,"block":1,"trial":62,"robot":3,"valence":"lose","action":"go","sham":1,"trial_type":"pit-trial","trial_index":79,"time_elapsed":447851,"internal_node_id":"0.0-64.0","task_version":"battery-v0.1"},{"rune":"C","hex":"#3366ff99","correct":-1,"choice":32,"rt":380.86000038310885,"accuracy":0,"outcome":"+1","keys":[1880.9699998237193],"total_keys":1,"block":1,"trial":63,"robot":2,"valence":"win","action":"no-go","sham":0,"trial_type":"pit-trial","trial_index":80,"time_elapsed":450935,"internal_node_id":"0.0-65.0","task_version":"battery-v0.1"},{"rune":"I","hex":"#3366ff99","correct":32,"choice":32,"rt":901.6050002537668,"accuracy":1,"outcome":"+10","keys":[2403.4549999050796],"total_keys":1,"block":1,"trial":64,"robot":1,"valence":"win","action":"go","sham":0,"trial_type":"pit-trial","trial_index":81,"time_elapsed":454541,"internal_node_id":"0.0-66.0","task_version":"battery-v0.1"},{"rune":"I","hex":"#3366ff99","correct":32,"choice":32,"rt":386.90000027418137,"accuracy":1,"outcome":"+10","keys":[1887.4400001950562],"total_keys":1,"block":1,"trial":65,"robot":1,"valence":"win","action":"go","sham":0,"trial_type":"pit-trial","trial_index":82,"time_elapsed":457632,"internal_node_id":"0.0-67.0","task_version":"battery-v0.1"},{"rune":"C","hex":"#3366ff99","correct":-1,"choice":32,"rt":322.57500011473894,"accuracy":0,"outcome":"+10","keys":[1823.254999704659],"total_keys":1,"block":1,"trial":66,"robot":2,"valence":"win","action":"no-go","sham":1,"trial_type":"pit-trial","trial_index":83,"time_elapsed":460657,"internal_node_id":"0.0-68.0","task_version":"battery-v0.1"},{"rune":"B","hex":"#f73b6a7A","correct":-1,"choice":-1,"rt":-1,"accuracy":1,"outcome":"-1","keys":[],"total_keys":0,"block":1,"trial":67,"robot":4,"valence":"lose","action":"no-go","sham":0,"trial_type":"pit-trial","trial_index":84,"time_elapsed":464660,"internal_node_id":"0.0-69.0","task_version":"battery-v0.1"},{"rune":"K","hex":"#f73b6a7A","correct":32,"choice":-1,"rt":-1,"accuracy":0,"outcome":"-10","keys":[],"total_keys":0,"block":1,"trial":68,"robot":3,"valence":"lose","action":"go","sham":0,"trial_type":"pit-trial","trial_index":85,"time_elapsed":468664,"internal_node_id":"0.0-70.0","task_version":"battery-v0.1"},{"rune":"C","hex":"#3366ff99","correct":-1,"choice":32,"rt":417.27499989792705,"accuracy":0,"outcome":"+1","keys":[1917.8649997338653],"total_keys":1,"block":1,"trial":69,"robot":2,"valence":"win","action":"no-go","sham":0,"trial_type":"pit-trial","trial_index":86,"time_elapsed":471785,"internal_node_id":"0.0-71.0","task_version":"battery-v0.1"},{"rune":"K","hex":"#f73b6a7A","correct":32,"choice":32,"rt":702.2750000469387,"accuracy":1,"outcome":"-1","keys":[2203.495000023395],"total_keys":1,"block":1,"trial":70,"robot":3,"valence":"lose","action":"go","sham":0,"trial_type":"pit-trial","trial_index":87,"time_elapsed":475191,"internal_node_id":"0.0-72.0","task_version":"battery-v0.1"},{"rune":"B","hex":"#f73b6a7A","correct":-1,"choice":-1,"rt":-1,"accuracy":1,"outcome":"-1","keys":[],"total_keys":0,"block":1,"trial":71,"robot":4,"valence":"lose","action":"no-go","sham":0,"trial_type":"pit-trial","trial_index":88,"time_elapsed":479195,"internal_node_id":"0.0-73.0","task_version":"battery-v0.1"},{"rune":"I","hex":"#3366ff99","correct":32,"choice":32,"rt":201.40999974682927,"accuracy":1,"outcome":"+10","keys":[1702.8250000439584],"total_keys":1,"block":1,"trial":72,"robot":1,"valence":"win","action":"go","sham":0,"trial_type":"pit-trial","trial_index":89,"time_elapsed":482102,"internal_node_id":"0.0-74.0","task_version":"battery-v0.1"},{"rune":"I","hex":"#3366ff99","correct":32,"choice":32,"rt":512.7399996854365,"accuracy":1,"outcome":"+10","keys":[2013.3849997073412],"total_keys":1,"block":1,"trial":73,"robot":1,"valence":"win","action":"go","sham":0,"trial_type":"pit-trial","trial_index":90,"time_elapsed":485318,"internal_node_id":"0.0-75.0","task_version":"battery-v0.1"},{"rune":"C","hex":"#3366ff99","correct":-1,"choice":32,"rt":868.7100000679493,"accuracy":0,"outcome":"+1","keys":[2369.2299998365343],"total_keys":1,"block":1,"trial":74,"robot":2,"valence":"win","action":"no-go","sham":0,"trial_type":"pit-trial","trial_index":91,"time_elapsed":488890,"internal_node_id":"0.0-76.0","task_version":"battery-v0.1"},{"rune":"B","hex":"#f73b6a7A","correct":-1,"choice":32,"rt":512.3350000940263,"accuracy":0,"outcome":"-10","keys":[2013.4749999269843],"total_keys":1,"block":1,"trial":75,"robot":4,"valence":"lose","action":"no-go","sham":0,"trial_type":"pit-trial","trial_index":92,"time_elapsed":492107,"internal_node_id":"0.0-77.0","task_version":"battery-v0.1"},{"rune":"U","hex":"#f73b6a7A","correct":32,"choice":-1,"rt":-1,"accuracy":0,"outcome":"-10","keys":[],"total_keys":0,"block":1,"trial":76,"robot":3,"valence":"lose","action":"go","sham":0,"trial_type":"pit-trial","trial_index":93,"time_elapsed":496110,"internal_node_id":"0.0-78.0","task_version":"battery-v0.1"},{"rune":"I","hex":"#3366ff99","correct":32,"choice":32,"rt":452.38499995321035,"accuracy":1,"outcome":"+1","keys":[1953.199999872595],"total_keys":1,"block":1,"trial":77,"robot":1,"valence":"win","action":"go","sham":1,"trial_type":"pit-trial","trial_index":94,"time_elapsed":499265,"internal_node_id":"0.0-79.0","task_version":"battery-v0.1"},{"rune":"C","hex":"#3366ff99","correct":-1,"choice":32,"rt":432.7949997968972,"accuracy":0,"outcome":"+1","keys":[1934.2049998231232],"total_keys":1,"block":1,"trial":78,"robot":2,"valence":"win","action":"no-go","sham":0,"trial_type":"pit-trial","trial_index":95,"time_elapsed":502402,"internal_node_id":"0.0-80.0","task_version":"battery-v0.1"},{"rune":"B","hex":"#f73b6a7A","correct":-1,"choice":32,"rt":751.5199999324977,"accuracy":0,"outcome":"-10","keys":[2253.4050000831485],"total_keys":1,"block":1,"trial":79,"robot":4,"valence":"lose","action":"no-go","sham":0,"trial_type":"pit-trial","trial_index":96,"time_elapsed":505859,"internal_node_id":"0.0-81.0","task_version":"battery-v0.1"},{"rune":"U","hex":"#f73b6a7A","correct":32,"choice":32,"rt":422.04499989748,"accuracy":1,"outcome":"-10","keys":[1923.8249999471009],"total_keys":1,"block":1,"trial":80,"robot":3,"valence":"lose","action":"go","sham":1,"trial_type":"pit-trial","trial_index":97,"time_elapsed":508985,"internal_node_id":"0.0-82.0","task_version":"battery-v0.1"},{"rune":"C","hex":"#3366ff99","correct":-1,"choice":-1,"rt":-1,"accuracy":1,"outcome":"+10","keys":[],"total_keys":0,"block":1,"trial":81,"robot":2,"valence":"win","action":"no-go","sham":0,"trial_type":"pit-trial","trial_index":98,"time_elapsed":512988,"internal_node_id":"0.0-83.0","task_version":"battery-v0.1"},{"rune":"U","hex":"#f73b6a7A","correct":32,"choice":32,"rt":679.9550000578165,"accuracy":1,"outcome":"-1","keys":[2180.614999961108],"total_keys":1,"block":1,"trial":82,"robot":3,"valence":"lose","action":"go","sham":0,"trial_type":"pit-trial","trial_index":99,"time_elapsed":516372,"internal_node_id":"0.0-84.0","task_version":"battery-v0.1"},{"rune":"W","hex":"#f73b6a7A","correct":32,"choice":32,"rt":840.8449999988079,"accuracy":1,"outcome":"-1","keys":[2341.459999792278],"total_keys":1,"block":1,"trial":83,"robot":3,"valence":"lose","action":"go","sham":0,"trial_type":"pit-trial","trial_index":100,"time_elapsed":519916,"internal_node_id":"0.0-85.0","task_version":"battery-v0.1"},{"rune":"B","hex":"#f73b6a7A","correct":-1,"choice":-1,"rt":-1,"accuracy":1,"outcome":"-10","keys":[],"total_keys":0,"block":1,"trial":84,"robot":4,"valence":"lose","action":"no-go","sham":1,"trial_type":"pit-trial","trial_index":101,"time_elapsed":523919,"internal_node_id":"0.0-86.0","task_version":"battery-v0.1"},{"rune":"C","hex":"#3366ff99","correct":-1,"choice":-1,"rt":-1,"accuracy":1,"outcome":"+10","keys":[],"total_keys":0,"block":1,"trial":85,"robot":2,"valence":"win","action":"no-go","sham":0,"trial_type":"pit-trial","trial_index":102,"time_elapsed":527921,"internal_node_id":"0.0-87.0","task_version":"battery-v0.1"},{"rune":"U","hex":"#f73b6a7A","correct":32,"choice":-1,"rt":-1,"accuracy":0,"outcome":"-10","keys":[],"total_keys":0,"block":1,"trial":86,"robot":3,"valence":"lose","action":"go","sham":0,"trial_type":"pit-trial","trial_index":103,"time_elapsed":531924,"internal_node_id":"0.0-88.0","task_version":"battery-v0.1"},{"rune":"W","hex":"#f73b6a7A","correct":32,"choice":-1,"rt":-1,"accuracy":0,"outcome":"-10","keys":[],"total_keys":0,"block":1,"trial":87,"robot":3,"valence":"lose","action":"go","sham":0,"trial_type":"pit-trial","trial_index":104,"time_elapsed":535927,"internal_node_id":"0.0-89.0","task_version":"battery-v0.1"},{"rune":"B","hex":"#f73b6a7A","correct":-1,"choice":-1,"rt":-1,"accuracy":1,"outcome":"-1","keys":[],"total_keys":0,"block":1,"trial":88,"robot":4,"valence":"lose","action":"no-go","sham":0,"trial_type":"pit-trial","trial_index":105,"time_elapsed":539930,"internal_node_id":"0.0-90.0","task_version":"battery-v0.1"},{"rune":"U","hex":"#f73b6a7A","correct":32,"choice":-1,"rt":-1,"accuracy":0,"outcome":"-10","keys":[],"total_keys":0,"block":1,"trial":89,"robot":3,"valence":"lose","action":"go","sham":0,"trial_type":"pit-trial","trial_index":106,"time_elapsed":543933,"internal_node_id":"0.0-91.0","task_version":"battery-v0.1"},{"rune":"R","hex":"#3366ff99","correct":-1,"choice":32,"rt":1237.7550001256168,"accuracy":0,"outcome":"+10","keys":[2738.1349997594953],"total_keys":1,"block":1,"trial":90,"robot":2,"valence":"win","action":"no-go","sham":1,"trial_type":"pit-trial","trial_index":107,"time_elapsed":547873,"internal_node_id":"0.0-92.0","task_version":"battery-v0.1"},{"rune":"P","hex":"#f73b6a7A","correct":-1,"choice":32,"rt":642.9149997420609,"accuracy":0,"outcome":"-10","keys":[2143.2199999690056],"total_keys":1,"block":1,"trial":91,"robot":4,"valence":"lose","action":"no-go","sham":0,"trial_type":"pit-trial","trial_index":108,"time_elapsed":551218,"internal_node_id":"0.0-93.0","task_version":"battery-v0.1"},{"rune":"W","hex":"#f73b6a7A","correct":32,"choice":32,"rt":443.96499963477254,"accuracy":1,"outcome":"-1","keys":[1944.2650000564754],"total_keys":1,"block":1,"trial":92,"robot":3,"valence":"lose","action":"go","sham":0,"trial_type":"pit-trial","trial_index":109,"time_elapsed":554365,"internal_node_id":"0.0-94.0","task_version":"battery-v0.1"},{"rune":"R","hex":"#3366ff99","correct":-1,"choice":32,"rt":901.4449999667704,"accuracy":0,"outcome":"+1","keys":[2402.1600000560284],"total_keys":1,"block":1,"trial":93,"robot":2,"valence":"win","action":"no-go","sham":0,"trial_type":"pit-trial","trial_index":110,"time_elapsed":557970,"internal_node_id":"0.0-95.0","task_version":"battery-v0.1"},{"rune":"W","hex":"#f73b6a7A","correct":32,"choice":-1,"rt":-1,"accuracy":0,"outcome":"-1","keys":[],"total_keys":0,"block":1,"trial":94,"robot":3,"valence":"lose","action":"go","sham":1,"trial_type":"pit-trial","trial_index":111,"time_elapsed":561974,"internal_node_id":"0.0-96.0","task_version":"battery-v0.1"},{"rune":"P","hex":"#f73b6a7A","correct":-1,"choice":32,"rt":54.35500014573336,"accuracy":0,"outcome":"-10","keys":[1555.3549998439848],"total_keys":1,"block":1,"trial":95,"robot":4,"valence":"lose","action":"no-go","sham":0,"trial_type":"pit-trial","trial_index":112,"time_elapsed":564731,"internal_node_id":"0.0-97.0","task_version":"battery-v0.1"},{"rune":"U","hex":"#f73b6a7A","correct":32,"choice":32,"rt":757.8600002452731,"accuracy":1,"outcome":"-1","keys":[2258.660000283271],"total_keys":1,"block":1,"trial":96,"robot":3,"valence":"lose","action":"go","sham":0,"trial_type":"pit-trial","trial_index":113,"time_elapsed":568193,"internal_node_id":"0.0-98.0","task_version":"battery-v0.1"},{"rune":"U","hex":"#f73b6a7A","correct":32,"choice":32,"rt":513.4900002740324,"accuracy":1,"outcome":"-1","keys":[2013.8500002212822],"total_keys":1,"block":1,"trial":97,"robot":3,"valence":"lose","action":"go","sham":0,"trial_type":"pit-trial","trial_index":114,"time_elapsed":571410,"internal_node_id":"0.0-99.0","task_version":"battery-v0.1"},{"rune":"P","hex":"#f73b6a7A","correct":-1,"choice":-1,"rt":-1,"accuracy":1,"outcome":"-1","keys":[],"total_keys":0,"block":1,"trial":98,"robot":4,"valence":"lose","action":"no-go","sham":0,"trial_type":"pit-trial","trial_index":115,"time_elapsed":575414,"internal_node_id":"0.0-100.0","task_version":"battery-v0.1"},{"rune":"W","hex":"#f73b6a7A","correct":32,"choice":32,"rt":558.530000038445,"accuracy":1,"outcome":"-1","keys":[1300.4650003276765,2059.485000092536],"total_keys":2,"block":1,"trial":99,"robot":3,"valence":"lose","action":"go","sham":0,"trial_type":"pit-trial","trial_index":116,"time_elapsed":578675,"internal_node_id":"0.0-101.0","task_version":"battery-v0.1"},{"rune":"R","hex":"#3366ff99","correct":-1,"choice":32,"rt":477.76499995961785,"accuracy":0,"outcome":"+1","keys":[1977.940000128001],"total_keys":1,"block":1,"trial":100,"robot":2,"valence":"win","action":"no-go","sham":0,"trial_type":"pit-trial","trial_index":117,"time_elapsed":581856,"internal_node_id":"0.0-102.0","task_version":"battery-v0.1"},{"rune":"P","hex":"#f73b6a7A","correct":-1,"choice":32,"rt":278.3950003795326,"accuracy":0,"outcome":"-10","keys":[1779.0099997073412],"total_keys":1,"block":1,"trial":101,"robot":4,"valence":"lose","action":"no-go","sham":0,"trial_type":"pit-trial","trial_index":118,"time_elapsed":584837,"internal_node_id":"0.0-103.0","task_version":"battery-v0.1"},{"rune":"W","hex":"#f73b6a7A","correct":32,"choice":32,"rt":494.4050000049174,"accuracy":1,"outcome":"-1","keys":[1994.429999962449],"total_keys":1,"block":1,"trial":102,"robot":3,"valence":"lose","action":"go","sham":0,"trial_type":"pit-trial","trial_index":119,"time_elapsed":588035,"internal_node_id":"0.0-104.0","task_version":"battery-v0.1"},{"rune":"U","hex":"#f73b6a7A","correct":32,"choice":-1,"rt":-1,"accuracy":0,"outcome":"-10","keys":[],"total_keys":0,"block":1,"trial":103,"robot":3,"valence":"lose","action":"go","sham":0,"trial_type":"pit-trial","trial_index":120,"time_elapsed":592038,"internal_node_id":"0.0-105.0","task_version":"battery-v0.1"},{"rune":"R","hex":"#3366ff99","correct":-1,"choice":32,"rt":677.2400001063943,"accuracy":0,"outcome":"+1","keys":[2178.6949997767806],"total_keys":1,"block":1,"trial":104,"robot":2,"valence":"win","action":"no-go","sham":0,"trial_type":"pit-trial","trial_index":121,"time_elapsed":595420,"internal_node_id":"0.0-106.0","task_version":"battery-v0.1"},{"rune":"P","hex":"#f73b6a7A","correct":-1,"choice":32,"rt":872.1400001086295,"accuracy":0,"outcome":"-10","keys":[2372.4100003018975],"total_keys":1,"block":1,"trial":105,"robot":4,"valence":"lose","action":"no-go","sham":0,"trial_type":"pit-trial","trial_index":122,"time_elapsed":598995,"internal_node_id":"0.0-107.0","task_version":"battery-v0.1"},{"rune":"W","hex":"#f73b6a7A","correct":32,"choice":32,"rt":448.1150000356138,"accuracy":1,"outcome":"-10","keys":[1948.5700000077486],"total_keys":1,"block":1,"trial":106,"robot":3,"valence":"lose","action":"go","sham":1,"trial_type":"pit-trial","trial_index":123,"time_elapsed":602146,"internal_node_id":"0.0-108.0","task_version":"battery-v0.1"},{"rune":"U","hex":"#f73b6a7A","correct":32,"choice":32,"rt":437.2399998828769,"accuracy":1,"outcome":"-10","keys":[1938.825000077486],"total_keys":1,"block":1,"trial":107,"robot":3,"valence":"lose","action":"go","sham":1,"trial_type":"pit-trial","trial_index":124,"time_elapsed":605287,"internal_node_id":"0.0-109.0","task_version":"battery-v0.1"},{"rune":"R","hex":"#3366ff99","correct":-1,"choice":32,"rt":347.84500021487474,"accuracy":0,"outcome":"+1","keys":[1848.6649999395013],"total_keys":1,"block":1,"trial":108,"robot":2,"valence":"win","action":"no-go","sham":0,"trial_type":"pit-trial","trial_index":125,"time_elapsed":608338,"internal_node_id":"0.0-110.0","task_version":"battery-v0.1"},{"rune":"P","hex":"#f73b6a7A","correct":-1,"choice":-1,"rt":-1,"accuracy":1,"outcome":"-1","keys":[],"total_keys":0,"block":1,"trial":109,"robot":4,"valence":"lose","action":"no-go","sham":0,"trial_type":"pit-trial","trial_index":126,"time_elapsed":612342,"internal_node_id":"0.0-111.0","task_version":"battery-v0.1"},{"rune":"U","hex":"#f73b6a7A","correct":32,"choice":-1,"rt":-1,"accuracy":0,"outcome":"-10","keys":[],"total_keys":0,"block":1,"trial":110,"robot":3,"valence":"lose","action":"go","sham":0,"trial_type":"pit-trial","trial_index":127,"time_elapsed":616346,"internal_node_id":"0.0-112.0","task_version":"battery-v0.1"},{"rune":"R","hex":"#3366ff99","correct":-1,"choice":32,"rt":468.2700000703335,"accuracy":0,"outcome":"+10","keys":[1969.19499989599],"total_keys":1,"block":1,"trial":111,"robot":2,"valence":"win","action":"no-go","sham":1,"trial_type":"pit-trial","trial_index":128,"time_elapsed":619518,"internal_node_id":"0.0-113.0","task_version":"battery-v0.1"},{"rune":"W","hex":"#f73b6a7A","correct":32,"choice":-1,"rt":-1,"accuracy":0,"outcome":"-10","keys":[],"total_keys":0,"block":1,"trial":112,"robot":3,"valence":"lose","action":"go","sham":0,"trial_type":"pit-trial","trial_index":129,"time_elapsed":623522,"internal_node_id":"0.0-114.0","task_version":"battery-v0.1"},{"rune":"P","hex":"#f73b6a7A","correct":-1,"choice":-1,"rt":-1,"accuracy":1,"outcome":"-1","keys":[],"total_keys":0,"block":1,"trial":113,"robot":4,"valence":"lose","action":"no-go","sham":0,"trial_type":"pit-trial","trial_index":130,"time_elapsed":627525,"internal_node_id":"0.0-115.0","task_version":"battery-v0.1"},{"rune":"U","hex":"#f73b6a7A","correct":32,"choice":32,"rt":575.2699999138713,"accuracy":1,"outcome":"-1","keys":[2076.4999999664724],"total_keys":1,"block":1,"trial":114,"robot":3,"valence":"lose","action":"go","sham":0,"trial_type":"pit-trial","trial_index":131,"time_elapsed":630805,"internal_node_id":"0.0-116.0","task_version":"battery-v0.1"},{"rune":"W","hex":"#f73b6a7A","correct":32,"choice":32,"rt":853.390000294894,"accuracy":1,"outcome":"-1","keys":[2353.740000165999],"total_keys":1,"block":1,"trial":115,"robot":3,"valence":"lose","action":"go","sham":0,"trial_type":"pit-trial","trial_index":132,"time_elapsed":634361,"internal_node_id":"0.0-117.0","task_version":"battery-v0.1"},{"rune":"R","hex":"#3366ff99","correct":-1,"choice":-1,"rt":-1,"accuracy":1,"outcome":"+10","keys":[],"total_keys":0,"block":1,"trial":116,"robot":2,"valence":"win","action":"no-go","sham":0,"trial_type":"pit-trial","trial_index":133,"time_elapsed":638364,"internal_node_id":"0.0-118.0","task_version":"battery-v0.1"},{"rune":"W","hex":"#f73b6a7A","correct":32,"choice":-1,"rt":-1,"accuracy":0,"outcome":"-10","keys":[],"total_keys":0,"block":1,"trial":117,"robot":3,"valence":"lose","action":"go","sham":0,"trial_type":"pit-trial","trial_index":134,"time_elapsed":642367,"internal_node_id":"0.0-119.0","task_version":"battery-v0.1"},{"rune":"R","hex":"#3366ff99","correct":-1,"choice":32,"rt":615.8699998632073,"accuracy":0,"outcome":"+10","keys":[2116.9400000944734],"total_keys":1,"block":1,"trial":118,"robot":2,"valence":"win","action":"no-go","sham":1,"trial_type":"pit-trial","trial_index":135,"time_elapsed":645687,"internal_node_id":"0.0-120.0","task_version":"battery-v0.1"},{"rune":"U","hex":"#f73b6a7A","correct":32,"choice":-1,"rt":-1,"accuracy":0,"outcome":"-10","keys":[],"total_keys":0,"block":1,"trial":119,"robot":3,"valence":"lose","action":"go","sham":0,"trial_type":"pit-trial","trial_index":136,"time_elapsed":649690,"internal_node_id":"0.0-121.0","task_version":"battery-v0.1"},{"rune":"P","hex":"#f73b6a7A","correct":-1,"choice":32,"rt":533.5150002501905,"accuracy":0,"outcome":"-10","keys":[2034.4750001095235],"total_keys":1,"block":1,"trial":120,"robot":4,"valence":"lose","action":"no-go","sham":0,"trial_type":"pit-trial","trial_index":137,"time_elapsed":652927,"internal_node_id":"0.0-122.0","task_version":"battery-v0.1"},{"view_history":"[{\"page_index\":0,\"viewing_time\":17704.424999654293},{\"page_index\":1,\"viewing_time\":2575.9000000543892}]","rt":20281.12499974668,"trial_type":"pit-instructions","trial_index":138,"time_elapsed":673209,"internal_node_id":"0.0-123.0","task_version":"battery-v0.1"},{"rune":"E","hex":"#f73b6a7A","correct":-1,"choice":32,"rt":494.1300000064075,"accuracy":0,"outcome":"-10","keys":[1994.9099998921156],"total_keys":1,"block":2,"trial":121,"robot":4,"valence":"lose","action":"no-go","sham":0,"trial_type":"pit-trial","trial_index":139,"time_elapsed":676410,"internal_node_id":"0.0-124.0","task_version":"battery-v0.1"},{"rune":"L","hex":"#f73b6a7A","correct":-1,"choice":32,"rt":357.20499977469444,"accuracy":0,"outcome":"-1","keys":[1858.3849999122322],"total_keys":1,"block":2,"trial":122,"robot":4,"valence":"lose","action":"no-go","sham":1,"trial_type":"pit-trial","trial_index":140,"time_elapsed":679472,"internal_node_id":"0.0-125.0","task_version":"battery-v0.1"},{"rune":"G","hex":"#3366ff99","correct":-1,"choice":32,"rt":270.9050001576543,"accuracy":0,"outcome":"+1","keys":[1771.3199998252094],"total_keys":1,"block":2,"trial":123,"robot":2,"valence":"win","action":"no-go","sham":0,"trial_type":"pit-trial","trial_index":141,"time_elapsed":682447,"internal_node_id":"0.0-126.0","task_version":"battery-v0.1"},{"rune":"S","hex":"#3366ff99","correct":32,"choice":32,"rt":556.9799998775125,"accuracy":1,"outcome":"+10","keys":[2057.490000035614],"total_keys":1,"block":2,"trial":124,"robot":1,"valence":"win","action":"go","sham":0,"trial_type":"pit-trial","trial_index":142,"time_elapsed":685706,"internal_node_id":"0.0-127.0","task_version":"battery-v0.1"},{"rune":"G","hex":"#3366ff99","correct":-1,"choice":32,"rt":438.9599999412894,"accuracy":0,"outcome":"+10","keys":[1939.334999769926],"total_keys":1,"block":2,"trial":125,"robot":2,"valence":"win","action":"no-go","sham":1,"trial_type":"pit-trial","trial_index":143,"time_elapsed":688848,"internal_node_id":"0.0-128.0","task_version":"battery-v0.1"},{"rune":"E","hex":"#f73b6a7A","correct":-1,"choice":-1,"rt":-1,"accuracy":1,"outcome":"-1","keys":[],"total_keys":0,"block":2,"trial":126,"robot":4,"valence":"lose","action":"no-go","sham":0,"trial_type":"pit-trial","trial_index":144,"time_elapsed":692851,"internal_node_id":"0.0-129.0","task_version":"battery-v0.1"},{"rune":"S","hex":"#3366ff99","correct":32,"choice":32,"rt":521.6649998910725,"accuracy":1,"outcome":"+10","keys":[2021.710000000894],"total_keys":1,"block":2,"trial":127,"robot":1,"valence":"win","action":"go","sham":0,"trial_type":"pit-trial","trial_index":145,"time_elapsed":696077,"internal_node_id":"0.0-130.0","task_version":"battery-v0.1"},{"rune":"L","hex":"#f73b6a7A","correct":-1,"choice":-1,"rt":-1,"accuracy":1,"outcome":"-1","keys":[],"total_keys":0,"block":2,"trial":128,"robot":4,"valence":"lose","action":"no-go","sham":0,"trial_type":"pit-trial","trial_index":146,"time_elapsed":700080,"internal_node_id":"0.0-131.0","task_version":"battery-v0.1"},{"rune":"E","hex":"#f73b6a7A","correct":-1,"choice":32,"rt":367.5649999640882,"accuracy":0,"outcome":"-10","keys":[1868.7900002114475],"total_keys":1,"block":2,"trial":129,"robot":4,"valence":"lose","action":"no-go","sham":0,"trial_type":"pit-trial","trial_index":147,"time_elapsed":703151,"internal_node_id":"0.0-132.0","task_version":"battery-v0.1"},{"rune":"S","hex":"#3366ff99","correct":32,"choice":32,"rt":307.544999755919,"accuracy":1,"outcome":"+10","keys":[1809.330000076443],"total_keys":1,"block":2,"trial":130,"robot":1,"valence":"win","action":"go","sham":0,"trial_type":"pit-trial","trial_index":148,"time_elapsed":706163,"internal_node_id":"0.0-133.0","task_version":"battery-v0.1"},{"rune":"G","hex":"#3366ff99","correct":-1,"choice":32,"rt":891.865000128746,"accuracy":0,"outcome":"+1","keys":[2392.3149998299778],"total_keys":1,"block":2,"trial":131,"robot":2,"valence":"win","action":"no-go","sham":0,"trial_type":"pit-trial","trial_index":149,"time_elapsed":709760,"internal_node_id":"0.0-134.0","task_version":"battery-v0.1"},{"rune":"L","hex":"#f73b6a7A","correct":-1,"choice":32,"rt":652.2599998861551,"accuracy":0,"outcome":"-10","keys":[2152.740000281483],"total_keys":1,"block":2,"trial":132,"robot":4,"valence":"lose","action":"no-go","sham":0,"trial_type":"pit-trial","trial_index":150,"time_elapsed":713115,"internal_node_id":"0.0-135.0","task_version":"battery-v0.1"},{"rune":"S","hex":"#3366ff99","correct":32,"choice":32,"rt":496.7600000090897,"accuracy":1,"outcome":"+10","keys":[1997.789999935776],"total_keys":1,"block":2,"trial":133,"robot":1,"valence":"win","action":"go","sham":0,"trial_type":"pit-trial","trial_index":151,"time_elapsed":716315,"internal_node_id":"0.0-136.0","task_version":"battery-v0.1"},{"rune":"E","hex":"#f73b6a7A","correct":-1,"choice":-1,"rt":-1,"accuracy":1,"outcome":"-1","keys":[],"total_keys":0,"block":2,"trial":134,"robot":4,"valence":"lose","action":"no-go","sham":0,"trial_type":"pit-trial","trial_index":152,"time_elapsed":720318,"internal_node_id":"0.0-137.0","task_version":"battery-v0.1"},{"rune":"L","hex":"#f73b6a7A","correct":-1,"choice":32,"rt":1009.7750001586974,"accuracy":0,"outcome":"-10","keys":[2509.9300001747906],"total_keys":1,"block":2,"trial":135,"robot":4,"valence":"lose","action":"no-go","sham":0,"trial_type":"pit-trial","trial_index":153,"time_elapsed":724031,"internal_node_id":"0.0-138.0","task_version":"battery-v0.1"},{"rune":"G","hex":"#3366ff99","correct":-1,"choice":-1,"rt":-1,"accuracy":1,"outcome":"+1","keys":[],"total_keys":0,"block":2,"trial":136,"robot":2,"valence":"win","action":"no-go","sham":1,"trial_type":"pit-trial","trial_index":154,"time_elapsed":728034,"internal_node_id":"0.0-139.0","task_version":"battery-v0.1"},{"rune":"E","hex":"#f73b6a7A","correct":-1,"choice":-1,"rt":-1,"accuracy":1,"outcome":"-1","keys":[],"total_keys":0,"block":2,"trial":137,"robot":4,"valence":"lose","action":"no-go","sham":0,"trial_type":"pit-trial","trial_index":155,"time_elapsed":732037,"internal_node_id":"0.0-140.0","task_version":"battery-v0.1"},{"rune":"S","hex":"#3366ff99","correct":32,"choice":32,"rt":351.5449999831617,"accuracy":1,"outcome":"+10","keys":[1852.6500002481043],"total_keys":1,"block":2,"trial":138,"robot":1,"valence":"win","action":"go","sham":0,"trial_type":"pit-trial","trial_index":156,"time_elapsed":735092,"internal_node_id":"0.0-141.0","task_version":"battery-v0.1"},{"rune":"L","hex":"#f73b6a7A","correct":-1,"choice":32,"rt":802.4550001136959,"accuracy":0,"outcome":"-1","keys":[2303.960000164807],"total_keys":1,"block":2,"trial":139,"robot":4,"valence":"lose","action":"no-go","sham":1,"trial_type":"pit-trial","trial_index":157,"time_elapsed":738600,"internal_node_id":"0.0-142.0","task_version":"battery-v0.1"},{"rune":"G","hex":"#3366ff99","correct":-1,"choice":32,"rt":527.1250000223517,"accuracy":0,"outcome":"+1","keys":[2027.529999613762],"total_keys":1,"block":2,"trial":140,"robot":2,"valence":"win","action":"no-go","sham":0,"trial_type":"pit-trial","trial_index":158,"time_elapsed":741830,"internal_node_id":"0.0-143.0","task_version":"battery-v0.1"},{"rune":"L","hex":"#f73b6a7A","correct":-1,"choice":-1,"rt":-1,"accuracy":1,"outcome":"-1","keys":[],"total_keys":0,"block":2,"trial":141,"robot":4,"valence":"lose","action":"no-go","sham":0,"trial_type":"pit-trial","trial_index":159,"time_elapsed":745833,"internal_node_id":"0.0-144.0","task_version":"battery-v0.1"},{"rune":"E","hex":"#f73b6a7A","correct":-1,"choice":32,"rt":688.8299998827279,"accuracy":0,"outcome":"-10","keys":[2189.5650001242757],"total_keys":1,"block":2,"trial":142,"robot":4,"valence":"lose","action":"no-go","sham":0,"trial_type":"pit-trial","trial_index":160,"time_elapsed":749227,"internal_node_id":"0.0-145.0","task_version":"battery-v0.1"},{"rune":"G","hex":"#3366ff99","correct":-1,"choice":32,"rt":437.0750002563,"accuracy":0,"outcome":"+10","keys":[1937.6499997451901],"total_keys":1,"block":2,"trial":143,"robot":2,"valence":"win","action":"no-go","sham":1,"trial_type":"pit-trial","trial_index":161,"time_elapsed":752367,"internal_node_id":"0.0-146.0","task_version":"battery-v0.1"},{"rune":"S","hex":"#3366ff99","correct":32,"choice":32,"rt":593.0949999019504,"accuracy":1,"outcome":"+1","keys":[2093.2499999180436],"total_keys":1,"block":2,"trial":144,"robot":1,"valence":"win","action":"go","sham":1,"trial_type":"pit-trial","trial_index":162,"time_elapsed":755662,"internal_node_id":"0.0-147.0","task_version":"battery-v0.1"},{"rune":"S","hex":"#3366ff99","correct":32,"choice":-1,"rt":-1,"accuracy":0,"outcome":"+1","keys":[],"total_keys":0,"block":2,"trial":145,"robot":1,"valence":"win","action":"go","sham":0,"trial_type":"pit-trial","trial_index":163,"time_elapsed":759665,"internal_node_id":"0.0-148.0","task_version":"battery-v0.1"},{"rune":"E","hex":"#f73b6a7A","correct":-1,"choice":32,"rt":790.3800001367927,"accuracy":0,"outcome":"-10","keys":[2290.525000076741],"total_keys":1,"block":2,"trial":146,"robot":4,"valence":"lose","action":"no-go","sham":0,"trial_type":"pit-trial","trial_index":164,"time_elapsed":763158,"internal_node_id":"0.0-149.0","task_version":"battery-v0.1"},{"rune":"L","hex":"#f73b6a7A","correct":-1,"choice":32,"rt":644.0699999220669,"accuracy":0,"outcome":"-10","keys":[2144.88000003621],"total_keys":1,"block":2,"trial":147,"robot":4,"valence":"lose","action":"no-go","sham":0,"trial_type":"pit-trial","trial_index":165,"time_elapsed":766506,"internal_node_id":"0.0-150.0","task_version":"battery-v0.1"},{"rune":"G","hex":"#3366ff99","correct":-1,"choice":32,"rt":227.5549997575581,"accuracy":0,"outcome":"+1","keys":[1728.1599999405444],"total_keys":1,"block":2,"trial":148,"robot":2,"valence":"win","action":"no-go","sham":0,"trial_type":"pit-trial","trial_index":166,"time_elapsed":769437,"internal_node_id":"0.0-151.0","task_version":"battery-v0.1"},{"rune":"G","hex":"#3366ff99","correct":-1,"choice":32,"rt":265.625,"accuracy":0,"outcome":"+1","keys":[1766.9750000350177],"total_keys":1,"block":2,"trial":149,"robot":2,"valence":"win","action":"no-go","sham":0,"trial_type":"pit-trial","trial_index":167,"time_elapsed":772407,"internal_node_id":"0.0-152.0","task_version":"battery-v0.1"},{"rune":"S","hex":"#3366ff99","correct":32,"choice":32,"rt":278.7649999372661,"accuracy":1,"outcome":"+10","keys":[1779.4200000353158],"total_keys":1,"block":2,"trial":150,"robot":1,"valence":"win","action":"go","sham":0,"trial_type":"pit-trial","trial_index":168,"time_elapsed":775390,"internal_node_id":"0.0-153.0","task_version":"battery-v0.1"},{"rune":"E","hex":"#f73b6a7A","correct":-1,"choice":-1,"rt":-1,"accuracy":1,"outcome":"-1","keys":[],"total_keys":0,"block":2,"trial":151,"robot":4,"valence":"lose","action":"no-go","sham":0,"trial_type":"pit-trial","trial_index":169,"time_elapsed":779392,"internal_node_id":"0.0-154.0","task_version":"battery-v0.1"},{"rune":"L","hex":"#f73b6a7A","correct":-1,"choice":32,"rt":514.3300001509488,"accuracy":0,"outcome":"-10","keys":[2014.930000063032],"total_keys":1,"block":2,"trial":152,"robot":4,"valence":"lose","action":"no-go","sham":0,"trial_type":"pit-trial","trial_index":170,"time_elapsed":782609,"internal_node_id":"0.0-155.0","task_version":"battery-v0.1"},{"rune":"H","hex":"#f73b6a7A","correct":32,"choice":32,"rt":168.56999974697828,"accuracy":1,"outcome":"-10","keys":[1669.8850002139807],"total_keys":1,"block":2,"trial":153,"robot":3,"valence":"lose","action":"go","sham":1,"trial_type":"pit-trial","trial_index":171,"time_elapsed":785481,"internal_node_id":"0.0-156.0","task_version":"battery-v0.1"},{"rune":"S","hex":"#3366ff99","correct":32,"choice":32,"rt":248.0399999767542,"accuracy":1,"outcome":"+10","keys":[1748.4450000338256],"total_keys":1,"block":2,"trial":154,"robot":1,"valence":"win","action":"go","sham":0,"trial_type":"pit-trial","trial_index":172,"time_elapsed":788432,"internal_node_id":"0.0-157.0","task_version":"battery-v0.1"},{"rune":"E","hex":"#f73b6a7A","correct":-1,"choice":32,"rt":483.39000018313527,"accuracy":0,"outcome":"-10","keys":[1983.9500002563],"total_keys":1,"block":2,"trial":155,"robot":4,"valence":"lose","action":"no-go","sham":0,"trial_type":"pit-trial","trial_index":173,"time_elapsed":791619,"internal_node_id":"0.0-158.0","task_version":"battery-v0.1"},{"rune":"G","hex":"#3366ff99","correct":-1,"choice":32,"rt":237.96499986201525,"accuracy":0,"outcome":"+1","keys":[1738.5350000113249],"total_keys":1,"block":2,"trial":156,"robot":2,"valence":"win","action":"no-go","sham":0,"trial_type":"pit-trial","trial_index":174,"time_elapsed":794561,"internal_node_id":"0.0-159.0","task_version":"battery-v0.1"},{"rune":"H","hex":"#f73b6a7A","correct":32,"choice":-1,"rt":-1,"accuracy":0,"outcome":"-10","keys":[],"total_keys":0,"block":2,"trial":157,"robot":3,"valence":"lose","action":"go","sham":0,"trial_type":"pit-trial","trial_index":175,"time_elapsed":798564,"internal_node_id":"0.0-160.0","task_version":"battery-v0.1"},{"rune":"S","hex":"#3366ff99","correct":32,"choice":32,"rt":354.2949999682605,"accuracy":1,"outcome":"+10","keys":[1854.6549999155104],"total_keys":1,"block":2,"trial":158,"robot":1,"valence":"win","action":"go","sham":0,"trial_type":"pit-trial","trial_index":176,"time_elapsed":801621,"internal_node_id":"0.0-161.0","task_version":"battery-v0.1"},{"rune":"E","hex":"#f73b6a7A","correct":-1,"choice":32,"rt":468.8650001771748,"accuracy":0,"outcome":"-10","keys":[1969.2049999721348],"total_keys":1,"block":2,"trial":159,"robot":4,"valence":"lose","action":"no-go","sham":0,"trial_type":"pit-trial","trial_index":177,"time_elapsed":804792,"internal_node_id":"0.0-162.0","task_version":"battery-v0.1"},{"rune":"G","hex":"#3366ff99","correct":-1,"choice":-1,"rt":-1,"accuracy":1,"outcome":"+1","keys":[],"total_keys":0,"block":2,"trial":160,"robot":2,"valence":"win","action":"no-go","sham":1,"trial_type":"pit-trial","trial_index":178,"time_elapsed":808796,"internal_node_id":"0.0-163.0","task_version":"battery-v0.1"},{"rune":"M","hex":"#3366ff99","correct":-1,"choice":32,"rt":366.1449998617172,"accuracy":0,"outcome":"+1","keys":[1866.63500033319],"total_keys":1,"block":2,"trial":161,"robot":2,"valence":"win","action":"no-go","sham":0,"trial_type":"pit-trial","trial_index":179,"time_elapsed":811865,"internal_node_id":"0.0-164.0","task_version":"battery-v0.1"},{"rune":"E","hex":"#f73b6a7A","correct":-1,"choice":32,"rt":811.6299998946488,"accuracy":0,"outcome":"-10","keys":[2312.420000322163],"total_keys":1,"block":2,"trial":162,"robot":4,"valence":"lose","action":"no-go","sham":0,"trial_type":"pit-trial","trial_index":180,"time_elapsed":815380,"internal_node_id":"0.0-165.0","task_version":"battery-v0.1"},{"rune":"H","hex":"#f73b6a7A","correct":32,"choice":32,"rt":617.8200002759695,"accuracy":1,"outcome":"-10","keys":[2118.789999745786],"total_keys":1,"block":2,"trial":163,"robot":3,"valence":"lose","action":"go","sham":1,"trial_type":"pit-trial","trial_index":181,"time_elapsed":818701,"internal_node_id":"0.0-166.0","task_version":"battery-v0.1"},{"rune":"Z","hex":"#3366ff99","correct":32,"choice":32,"rt":321.8950000591576,"accuracy":1,"outcome":"+10","keys":[1822.4999997764826],"total_keys":1,"block":2,"trial":164,"robot":1,"valence":"win","action":"go","sham":0,"trial_type":"pit-trial","trial_index":182,"time_elapsed":821727,"internal_node_id":"0.0-167.0","task_version":"battery-v0.1"},{"rune":"M","hex":"#3366ff99","correct":-1,"choice":32,"rt":310.21499959751964,"accuracy":0,"outcome":"+10","keys":[1810.554999858141],"total_keys":1,"block":2,"trial":165,"robot":2,"valence":"win","action":"no-go","sham":1,"trial_type":"pit-trial","trial_index":183,"time_elapsed":824740,"internal_node_id":"0.0-168.0","task_version":"battery-v0.1"},{"rune":"H","hex":"#f73b6a7A","correct":32,"choice":-1,"rt":-1,"accuracy":0,"outcome":"-10","keys":[],"total_keys":0,"block":2,"trial":166,"robot":3,"valence":"lose","action":"go","sham":0,"trial_type":"pit-trial","trial_index":184,"time_elapsed":828743,"internal_node_id":"0.0-169.0","task_version":"battery-v0.1"},{"rune":"Z","hex":"#3366ff99","correct":32,"choice":32,"rt":353.5549999214709,"accuracy":1,"outcome":"+10","keys":[1854.0050000883639],"total_keys":1,"block":2,"trial":167,"robot":1,"valence":"win","action":"go","sham":0,"trial_type":"pit-trial","trial_index":185,"time_elapsed":831800,"internal_node_id":"0.0-170.0","task_version":"battery-v0.1"},{"rune":"E","hex":"#f73b6a7A","correct":-1,"choice":32,"rt":248.3449997380376,"accuracy":0,"outcome":"-10","keys":[1749.634999781847],"total_keys":1,"block":2,"trial":168,"robot":4,"valence":"lose","action":"no-go","sham":0,"trial_type":"pit-trial","trial_index":186,"time_elapsed":834752,"internal_node_id":"0.0-171.0","task_version":"battery-v0.1"},{"rune":"H","hex":"#f73b6a7A","correct":32,"choice":32,"rt":141.31500013172626,"accuracy":1,"outcome":"-1","keys":[1642.9900000803173],"total_keys":1,"block":2,"trial":169,"robot":3,"valence":"lose","action":"go","sham":0,"trial_type":"pit-trial","trial_index":187,"time_elapsed":837597,"internal_node_id":"0.0-172.0","task_version":"battery-v0.1"},{"rune":"Z","hex":"#3366ff99","correct":32,"choice":-1,"rt":-1,"accuracy":0,"outcome":"+1","keys":[],"total_keys":0,"block":2,"trial":170,"robot":1,"valence":"win","action":"go","sham":0,"trial_type":"pit-trial","trial_index":188,"time_elapsed":841600,"internal_node_id":"0.0-173.0","task_version":"battery-v0.1"},{"rune":"Y","hex":"#f73b6a7A","correct":-1,"choice":32,"rt":597.3099996335804,"accuracy":0,"outcome":"-10","keys":[2098.1099996715784],"total_keys":1,"block":2,"trial":171,"robot":4,"valence":"lose","action":"no-go","sham":0,"trial_type":"pit-trial","trial_index":189,"time_elapsed":844900,"internal_node_id":"0.0-174.0","task_version":"battery-v0.1"},{"rune":"M","hex":"#3366ff99","correct":-1,"choice":32,"rt":392.9649996571243,"accuracy":0,"outcome":"+10","keys":[1893.725000321865],"total_keys":1,"block":2,"trial":172,"robot":2,"valence":"win","action":"no-go","sham":1,"trial_type":"pit-trial","trial_index":190,"time_elapsed":847996,"internal_node_id":"0.0-175.0","task_version":"battery-v0.1"},{"rune":"H","hex":"#f73b6a7A","correct":32,"choice":32,"rt":767.750000115484,"accuracy":1,"outcome":"-1","keys":[2268.604999873787],"total_keys":1,"block":2,"trial":173,"robot":3,"valence":"lose","action":"go","sham":0,"trial_type":"pit-trial","trial_index":191,"time_elapsed":851466,"internal_node_id":"0.0-176.0","task_version":"battery-v0.1"},{"rune":"M","hex":"#3366ff99","correct":-1,"choice":-1,"rt":-1,"accuracy":1,"outcome":"+10","keys":[],"total_keys":0,"block":2,"trial":174,"robot":2,"valence":"win","action":"no-go","sham":0,"trial_type":"pit-trial","trial_index":192,"time_elapsed":855469,"internal_node_id":"0.0-177.0","task_version":"battery-v0.1"},{"rune":"Z","hex":"#3366ff99","correct":32,"choice":-1,"rt":-1,"accuracy":0,"outcome":"+1","keys":[],"total_keys":0,"block":2,"trial":175,"robot":1,"valence":"win","action":"go","sham":0,"trial_type":"pit-trial","trial_index":193,"time_elapsed":859472,"internal_node_id":"0.0-178.0","task_version":"battery-v0.1"},{"rune":"Y","hex":"#f73b6a7A","correct":-1,"choice":-1,"rt":-1,"accuracy":1,"outcome":"-1","keys":[],"total_keys":0,"block":2,"trial":176,"robot":4,"valence":"lose","action":"no-go","sham":0,"trial_type":"pit-trial","trial_index":194,"time_elapsed":863477,"internal_node_id":"0.0-179.0","task_version":"battery-v0.1"},{"rune":"M","hex":"#3366ff99","correct":-1,"choice":32,"rt":477.8649997897446,"accuracy":0,"outcome":"+1","keys":[1978.8600001484156],"total_keys":1,"block":2,"trial":177,"robot":2,"valence":"win","action":"no-go","sham":0,"trial_type":"pit-trial","trial_index":195,"time_elapsed":866658,"internal_node_id":"0.0-180.0","task_version":"battery-v0.1"},{"rune":"Y","hex":"#f73b6a7A","correct":-1,"choice":32,"rt":163.44500007107854,"accuracy":0,"outcome":"-10","keys":[1664.1699997708201],"total_keys":1,"block":2,"trial":178,"robot":4,"valence":"lose","action":"no-go","sham":0,"trial_type":"pit-trial","trial_index":196,"time_elapsed":869525,"internal_node_id":"0.0-181.0","task_version":"battery-v0.1"},{"rune":"H","hex":"#f73b6a7A","correct":32,"choice":32,"rt":193.0650002323091,"accuracy":1,"outcome":"-1","keys":[1693.435000255704],"total_keys":1,"block":2,"trial":179,"robot":3,"valence":"lose","action":"go","sham":0,"trial_type":"pit-trial","trial_index":197,"time_elapsed":872421,"internal_node_id":"0.0-182.0","task_version":"battery-v0.1"},{"rune":"Z","hex":"#3366ff99","correct":32,"choice":32,"rt":153.8450000807643,"accuracy":1,"outcome":"+10","keys":[1654.2500001378357],"total_keys":1,"block":2,"trial":180,"robot":1,"valence":"win","action":"go","sham":0,"trial_type":"pit-trial","trial_index":198,"time_elapsed":875277,"internal_node_id":"0.0-183.0","task_version":"battery-v0.1"},{"rune":"Z","hex":"#3366ff99","correct":32,"choice":32,"rt":99.02000008150935,"accuracy":1,"outcome":"+10","keys":[1599.7649999335408],"total_keys":1,"block":2,"trial":181,"robot":1,"valence":"win","action":"go","sham":0,"trial_type":"pit-trial","trial_index":199,"time_elapsed":878079,"internal_node_id":"0.0-184.0","task_version":"battery-v0.1"},{"rune":"M","hex":"#3366ff99","correct":-1,"choice":32,"rt":223.0499996803701,"accuracy":0,"outcome":"+1","keys":[1723.5650001093745],"total_keys":1,"block":2,"trial":182,"robot":2,"valence":"win","action":"no-go","sham":0,"trial_type":"pit-trial","trial_index":200,"time_elapsed":881006,"internal_node_id":"0.0-185.0","task_version":"battery-v0.1"},{"rune":"Y","hex":"#f73b6a7A","correct":-1,"choice":32,"rt":207.68499979749322,"accuracy":0,"outcome":"-10","keys":[1708.3149999380112],"total_keys":1,"block":2,"trial":183,"robot":4,"valence":"lose","action":"no-go","sham":0,"trial_type":"pit-trial","trial_index":201,"time_elapsed":883917,"internal_node_id":"0.0-186.0","task_version":"battery-v0.1"},{"rune":"H","hex":"#f73b6a7A","correct":32,"choice":32,"rt":239.04000036418438,"accuracy":1,"outcome":"-1","keys":[1739.6849999204278],"total_keys":1,"block":2,"trial":184,"robot":3,"valence":"lose","action":"go","sham":0,"trial_type":"pit-trial","trial_index":202,"time_elapsed":886860,"internal_node_id":"0.0-187.0","task_version":"battery-v0.1"},{"rune":"M","hex":"#3366ff99","correct":-1,"choice":-1,"rt":-1,"accuracy":1,"outcome":"+10","keys":[],"total_keys":0,"block":2,"trial":185,"robot":2,"valence":"win","action":"no-go","sham":0,"trial_type":"pit-trial","trial_index":203,"time_elapsed":890863,"internal_node_id":"0.0-188.0","task_version":"battery-v0.1"},{"rune":"H","hex":"#f73b6a7A","correct":32,"choice":-1,"rt":-1,"accuracy":0,"outcome":"-10","keys":[],"total_keys":0,"block":2,"trial":186,"robot":3,"valence":"lose","action":"go","sham":0,"trial_type":"pit-trial","trial_index":204,"time_elapsed":894866,"internal_node_id":"0.0-189.0","task_version":"battery-v0.1"},{"rune":"Y","hex":"#f73b6a7A","correct":-1,"choice":-1,"rt":-1,"accuracy":1,"outcome":"-10","keys":[],"total_keys":0,"block":2,"trial":187,"robot":4,"valence":"lose","action":"no-go","sham":1,"trial_type":"pit-trial","trial_index":205,"time_elapsed":898870,"internal_node_id":"0.0-190.0","task_version":"battery-v0.1"},{"rune":"Z","hex":"#3366ff99","correct":32,"choice":-1,"rt":-1,"accuracy":0,"outcome":"+1","keys":[],"total_keys":0,"block":2,"trial":188,"robot":1,"valence":"win","action":"go","sham":0,"trial_type":"pit-trial","trial_index":206,"time_elapsed":902873,"internal_node_id":"0.0-191.0","task_version":"battery-v0.1"},{"rune":"Z","hex":"#3366ff99","correct":32,"choice":32,"rt":301.2899998575449,"accuracy":1,"outcome":"+10","keys":[1801.7950002104044],"total_keys":1,"block":2,"trial":189,"robot":1,"valence":"win","action":"go","sham":0,"trial_type":"pit-trial","trial_index":207,"time_elapsed":905878,"internal_node_id":"0.0-192.0","task_version":"battery-v0.1"},{"rune":"H","hex":"#f73b6a7A","correct":32,"choice":-1,"rt":-1,"accuracy":0,"outcome":"-10","keys":[],"total_keys":0,"block":2,"trial":190,"robot":3,"valence":"lose","action":"go","sham":0,"trial_type":"pit-trial","trial_index":208,"time_elapsed":909881,"internal_node_id":"0.0-193.0","task_version":"battery-v0.1"},{"rune":"M","hex":"#3366ff99","correct":-1,"choice":32,"rt":353.0350001528859,"accuracy":0,"outcome":"+1","keys":[1854.1500000283122],"total_keys":1,"block":2,"trial":191,"robot":2,"valence":"win","action":"no-go","sham":0,"trial_type":"pit-trial","trial_index":209,"time_elapsed":912937,"internal_node_id":"0.0-194.0","task_version":"battery-v0.1"},{"rune":"Y","hex":"#f73b6a7A","correct":-1,"choice":32,"rt":553.4900003112853,"accuracy":0,"outcome":"-10","keys":[2053.8200000301003],"total_keys":1,"block":2,"trial":192,"robot":4,"valence":"lose","action":"no-go","sham":0,"trial_type":"pit-trial","trial_index":210,"time_elapsed":916194,"internal_node_id":"0.0-195.0","task_version":"battery-v0.1"},{"rune":"F","hex":"#3366ff99","correct":32,"choice":32,"rt":372.9400001466274,"accuracy":1,"outcome":"+10","keys":[1873.3000000938773],"total_keys":1,"block":2,"trial":193,"robot":1,"valence":"win","action":"go","sham":0,"trial_type":"pit-trial","trial_index":211,"time_elapsed":919270,"internal_node_id":"0.0-196.0","task_version":"battery-v0.1"},{"rune":"Q","hex":"#f73b6a7A","correct":32,"choice":-1,"rt":-1,"accuracy":0,"outcome":"-1","keys":[],"total_keys":0,"block":2,"trial":194,"robot":3,"valence":"lose","action":"go","sham":1,"trial_type":"pit-trial","trial_index":212,"time_elapsed":923274,"internal_node_id":"0.0-197.0","task_version":"battery-v0.1"},{"rune":"M","hex":"#3366ff99","correct":-1,"choice":32,"rt":390.6800001859665,"accuracy":0,"outcome":"+1","keys":[1891.4600000716746],"total_keys":1,"block":2,"trial":195,"robot":2,"valence":"win","action":"no-go","sham":0,"trial_type":"pit-trial","trial_index":213,"time_elapsed":926368,"internal_node_id":"0.0-198.0","task_version":"battery-v0.1"},{"rune":"Y","hex":"#f73b6a7A","correct":-1,"choice":-1,"rt":-1,"accuracy":1,"outcome":"-1","keys":[],"total_keys":0,"block":2,"trial":196,"robot":4,"valence":"lose","action":"no-go","sham":0,"trial_type":"pit-trial","trial_index":214,"time_elapsed":930372,"internal_node_id":"0.0-199.0","task_version":"battery-v0.1"},{"rune":"F","hex":"#3366ff99","correct":32,"choice":-1,"rt":-1,"accuracy":0,"outcome":"+1","keys":[],"total_keys":0,"block":2,"trial":197,"robot":1,"valence":"win","action":"go","sham":0,"trial_type":"pit-trial","trial_index":215,"time_elapsed":934376,"internal_node_id":"0.0-200.0","task_version":"battery-v0.1"},{"rune":"M","hex":"#3366ff99","correct":-1,"choice":32,"rt":649.9899998307228,"accuracy":0,"outcome":"+1","keys":[2150.0199995934963],"total_keys":1,"block":2,"trial":198,"robot":2,"valence":"win","action":"no-go","sham":0,"trial_type":"pit-trial","trial_index":216,"time_elapsed":937728,"internal_node_id":"0.0-201.0","task_version":"battery-v0.1"},{"rune":"Q","hex":"#f73b6a7A","correct":32,"choice":32,"rt":292.650000192225,"accuracy":1,"outcome":"-10","keys":[1793.8699997030199],"total_keys":1,"block":2,"trial":199,"robot":3,"valence":"lose","action":"go","sham":1,"trial_type":"pit-trial","trial_index":217,"time_elapsed":940724,"internal_node_id":"0.0-202.0","task_version":"battery-v0.1"},{"rune":"Y","hex":"#f73b6a7A","correct":-1,"choice":32,"rt":663.3849996142089,"accuracy":0,"outcome":"-10","keys":[2163.4999997913837],"total_keys":1,"block":2,"trial":200,"robot":4,"valence":"lose","action":"no-go","sham":0,"trial_type":"pit-trial","trial_index":218,"time_elapsed":944090,"internal_node_id":"0.0-203.0","task_version":"battery-v0.1"},{"rune":"F","hex":"#3366ff99","correct":32,"choice":32,"rt":177.02500009909272,"accuracy":1,"outcome":"+10","keys":[1678.1999999657273],"total_keys":1,"block":2,"trial":201,"robot":1,"valence":"win","action":"go","sham":0,"trial_type":"pit-trial","trial_index":219,"time_elapsed":946971,"internal_node_id":"0.0-204.0","task_version":"battery-v0.1"},{"rune":"M","hex":"#3366ff99","correct":-1,"choice":32,"rt":272.8549996390939,"accuracy":0,"outcome":"+1","keys":[1773.6349999904633],"total_keys":1,"block":2,"trial":202,"robot":2,"valence":"win","action":"no-go","sham":0,"trial_type":"pit-trial","trial_index":220,"time_elapsed":949948,"internal_node_id":"0.0-205.0","task_version":"battery-v0.1"},{"rune":"Q","hex":"#f73b6a7A","correct":32,"choice":32,"rt":841.6599999181926,"accuracy":1,"outcome":"-1","keys":[2341.899999883026],"total_keys":1,"block":2,"trial":203,"robot":3,"valence":"lose","action":"go","sham":0,"trial_type":"pit-trial","trial_index":221,"time_elapsed":953492,"internal_node_id":"0.0-206.0","task_version":"battery-v0.1"},{"rune":"Y","hex":"#f73b6a7A","correct":-1,"choice":-1,"rt":-1,"accuracy":1,"outcome":"-1","keys":[],"total_keys":0,"block":2,"trial":204,"robot":4,"valence":"lose","action":"no-go","sham":0,"trial_type":"pit-trial","trial_index":222,"time_elapsed":957496,"internal_node_id":"0.0-207.0","task_version":"battery-v0.1"},{"rune":"Y","hex":"#f73b6a7A","correct":-1,"choice":32,"rt":789.5750002935529,"accuracy":0,"outcome":"-10","keys":[2289.6699998527765],"total_keys":1,"block":2,"trial":205,"robot":4,"valence":"lose","action":"no-go","sham":0,"trial_type":"pit-trial","trial_index":223,"time_elapsed":960988,"internal_node_id":"0.0-208.0","task_version":"battery-v0.1"},{"rune":"M","hex":"#3366ff99","correct":-1,"choice":32,"rt":252.9649999924004,"accuracy":0,"outcome":"+10","keys":[1753.6249998956919],"total_keys":1,"block":2,"trial":206,"robot":2,"valence":"win","action":"no-go","sham":1,"trial_type":"pit-trial","trial_index":224,"time_elapsed":963945,"internal_node_id":"0.0-209.0","task_version":"battery-v0.1"},{"rune":"F","hex":"#3366ff99","correct":32,"choice":32,"rt":337.84000016748905,"accuracy":1,"outcome":"+10","keys":[1838.4950002655387],"total_keys":1,"block":2,"trial":207,"robot":1,"valence":"win","action":"go","sham":0,"trial_type":"pit-trial","trial_index":225,"time_elapsed":966986,"internal_node_id":"0.0-210.0","task_version":"battery-v0.1"},{"rune":"Q","hex":"#f73b6a7A","correct":32,"choice":-1,"rt":-1,"accuracy":0,"outcome":"-10","keys":[],"total_keys":0,"block":2,"trial":208,"robot":3,"valence":"lose","action":"go","sham":0,"trial_type":"pit-trial","trial_index":226,"time_elapsed":970990,"internal_node_id":"0.0-211.0","task_version":"battery-v0.1"},{"rune":"F","hex":"#3366ff99","correct":32,"choice":32,"rt":358.405000064522,"accuracy":1,"outcome":"+10","keys":[1859.4450000673532],"total_keys":1,"block":2,"trial":209,"robot":1,"valence":"win","action":"go","sham":0,"trial_type":"pit-trial","trial_index":227,"time_elapsed":974052,"internal_node_id":"0.0-212.0","task_version":"battery-v0.1"},{"rune":"J","hex":"#f73b6a7A","correct":32,"choice":32,"rt":688.045000191778,"accuracy":1,"outcome":"-1","keys":[2189.0600002370775],"total_keys":1,"block":2,"trial":210,"robot":3,"valence":"lose","action":"go","sham":0,"trial_type":"pit-trial","trial_index":228,"time_elapsed":977444,"internal_node_id":"0.0-213.0","task_version":"battery-v0.1"},{"rune":"Q","hex":"#f73b6a7A","correct":32,"choice":32,"rt":635.5699999257922,"accuracy":1,"outcome":"-1","keys":[2136.8849999271333],"total_keys":1,"block":2,"trial":211,"robot":3,"valence":"lose","action":"go","sham":0,"trial_type":"pit-trial","trial_index":229,"time_elapsed":980784,"internal_node_id":"0.0-214.0","task_version":"battery-v0.1"},{"rune":"T","hex":"#3366ff99","correct":-1,"choice":32,"rt":457.55500020459294,"accuracy":0,"outcome":"+1","keys":[1958.0250000581145],"total_keys":1,"block":2,"trial":212,"robot":2,"valence":"win","action":"no-go","sham":0,"trial_type":"pit-trial","trial_index":230,"time_elapsed":983945,"internal_node_id":"0.0-215.0","task_version":"battery-v0.1"},{"rune":"T","hex":"#3366ff99","correct":-1,"choice":32,"rt":1192.3250001855195,"accuracy":0,"outcome":"+1","keys":[2692.724999971688],"total_keys":1,"block":2,"trial":213,"robot":2,"valence":"win","action":"no-go","sham":0,"trial_type":"pit-trial","trial_index":231,"time_elapsed":987839,"internal_node_id":"0.0-216.0","task_version":"battery-v0.1"},{"rune":"J","hex":"#f73b6a7A","correct":32,"choice":32,"rt":707.6449999585748,"accuracy":1,"outcome":"-1","keys":[2207.7800002880394],"total_keys":1,"block":2,"trial":214,"robot":3,"valence":"lose","action":"go","sham":0,"trial_type":"pit-trial","trial_index":232,"time_elapsed":991250,"internal_node_id":"0.0-217.0","task_version":"battery-v0.1"},{"rune":"Q","hex":"#f73b6a7A","correct":32,"choice":-1,"rt":-1,"accuracy":0,"outcome":"-1","keys":[],"total_keys":0,"block":2,"trial":215,"robot":3,"valence":"lose","action":"go","sham":1,"trial_type":"pit-trial","trial_index":233,"time_elapsed":995254,"internal_node_id":"0.0-218.0","task_version":"battery-v0.1"},{"rune":"F","hex":"#3366ff99","correct":32,"choice":32,"rt":379.9250000156462,"accuracy":1,"outcome":"+10","keys":[1880.6000002659857],"total_keys":1,"block":2,"trial":216,"robot":1,"valence":"win","action":"go","sham":0,"trial_type":"pit-trial","trial_index":234,"time_elapsed":998337,"internal_node_id":"0.0-219.0","task_version":"battery-v0.1"},{"rune":"J","hex":"#f73b6a7A","correct":32,"choice":32,"rt":542.8900001570582,"accuracy":1,"outcome":"-10","keys":[2042.9449998773634],"total_keys":1,"block":2,"trial":217,"robot":3,"valence":"lose","action":"go","sham":1,"trial_type":"pit-trial","trial_index":235,"time_elapsed":1001583,"internal_node_id":"0.0-220.0","task_version":"battery-v0.1"},{"rune":"T","hex":"#3366ff99","correct":-1,"choice":32,"rt":388.40499985963106,"accuracy":0,"outcome":"+1","keys":[1889.1749996691942],"total_keys":1,"block":2,"trial":218,"robot":2,"valence":"win","action":"no-go","sham":0,"trial_type":"pit-trial","trial_index":236,"time_elapsed":1004674,"internal_node_id":"0.0-221.0","task_version":"battery-v0.1"},{"rune":"F","hex":"#3366ff99","correct":32,"choice":32,"rt":777.3449998348951,"accuracy":1,"outcome":"+10","keys":[2277.6649999432266],"total_keys":1,"block":2,"trial":219,"robot":1,"valence":"win","action":"go","sham":0,"trial_type":"pit-trial","trial_index":237,"time_elapsed":1008155,"internal_node_id":"0.0-222.0","task_version":"battery-v0.1"},{"rune":"Q","hex":"#f73b6a7A","correct":32,"choice":-1,"rt":-1,"accuracy":0,"outcome":"-10","keys":[],"total_keys":0,"block":2,"trial":220,"robot":3,"valence":"lose","action":"go","sham":0,"trial_type":"pit-trial","trial_index":238,"time_elapsed":1012158,"internal_node_id":"0.0-223.0","task_version":"battery-v0.1"},{"rune":"F","hex":"#3366ff99","correct":32,"choice":-1,"rt":-1,"accuracy":0,"outcome":"+1","keys":[],"total_keys":0,"block":2,"trial":221,"robot":1,"valence":"win","action":"go","sham":0,"trial_type":"pit-trial","trial_index":239,"time_elapsed":1016162,"internal_node_id":"0.0-224.0","task_version":"battery-v0.1"},{"rune":"Q","hex":"#f73b6a7A","correct":32,"choice":-1,"rt":-1,"accuracy":0,"outcome":"-1","keys":[],"total_keys":0,"block":2,"trial":222,"robot":3,"valence":"lose","action":"go","sham":1,"trial_type":"pit-trial","trial_index":240,"time_elapsed":1020167,"internal_node_id":"0.0-225.0","task_version":"battery-v0.1"},{"rune":"T","hex":"#3366ff99","correct":-1,"choice":32,"rt":217.28499978780746,"accuracy":0,"outcome":"+1","keys":[1717.875000089407],"total_keys":1,"block":2,"trial":223,"robot":2,"valence":"win","action":"no-go","sham":0,"trial_type":"pit-trial","trial_index":241,"time_elapsed":1023087,"internal_node_id":"0.0-226.0","task_version":"battery-v0.1"},{"rune":"J","hex":"#f73b6a7A","correct":32,"choice":32,"rt":307.00499983504415,"accuracy":1,"outcome":"-1","keys":[1807.475000154227],"total_keys":1,"block":2,"trial":224,"robot":3,"valence":"lose","action":"go","sham":0,"trial_type":"pit-trial","trial_index":242,"time_elapsed":1026097,"internal_node_id":"0.0-227.0","task_version":"battery-v0.1"},{"rune":"Q","hex":"#f73b6a7A","correct":32,"choice":-1,"rt":-1,"accuracy":0,"outcome":"-10","keys":[],"total_keys":0,"block":2,"trial":225,"robot":3,"valence":"lose","action":"go","sham":0,"trial_type":"pit-trial","trial_index":243,"time_elapsed":1030101,"internal_node_id":"0.0-228.0","task_version":"battery-v0.1"},{"rune":"T","hex":"#3366ff99","correct":-1,"choice":-1,"rt":-1,"accuracy":1,"outcome":"+1","keys":[3646.9999998807907],"total_keys":1,"block":2,"trial":226,"robot":2,"valence":"win","action":"no-go","sham":1,"trial_type":"pit-trial","trial_index":244,"time_elapsed":1034105,"internal_node_id":"0.0-229.0","task_version":"battery-v0.1"},{"rune":"F","hex":"#3366ff99","correct":32,"choice":32,"rt":320.0199999846518,"accuracy":1,"outcome":"+1","keys":[1821.314999833703],"total_keys":1,"block":2,"trial":227,"robot":1,"valence":"win","action":"go","sham":1,"trial_type":"pit-trial","trial_index":245,"time_elapsed":1037129,"internal_node_id":"0.0-230.0","task_version":"battery-v0.1"},{"rune":"J","hex":"#f73b6a7A","correct":32,"choice":32,"rt":463.3849998936057,"accuracy":1,"outcome":"-1","keys":[1963.4799999184906],"total_keys":1,"block":2,"trial":228,"robot":3,"valence":"lose","action":"go","sham":0,"trial_type":"pit-trial","trial_index":246,"time_elapsed":1040295,"internal_node_id":"0.0-231.0","task_version":"battery-v0.1"},{"rune":"J","hex":"#f73b6a7A","correct":32,"choice":-1,"rt":-1,"accuracy":0,"outcome":"-10","keys":[],"total_keys":0,"block":2,"trial":229,"robot":3,"valence":"lose","action":"go","sham":0,"trial_type":"pit-trial","trial_index":247,"time_elapsed":1044298,"internal_node_id":"0.0-232.0","task_version":"battery-v0.1"},{"rune":"T","hex":"#3366ff99","correct":-1,"choice":32,"rt":309.9899999797344,"accuracy":0,"outcome":"+1","keys":[1810.4500002227724],"total_keys":1,"block":2,"trial":230,"robot":2,"valence":"win","action":"no-go","sham":0,"trial_type":"pit-trial","trial_index":248,"time_elapsed":1047311,"internal_node_id":"0.0-233.0","task_version":"battery-v0.1"},{"rune":"F","hex":"#3366ff99","correct":32,"choice":32,"rt":311.810000333935,"accuracy":1,"outcome":"+10","keys":[1813.4349999018013],"total_keys":1,"block":2,"trial":231,"robot":1,"valence":"win","action":"go","sham":0,"trial_type":"pit-trial","trial_index":249,"time_elapsed":1050327,"internal_node_id":"0.0-234.0","task_version":"battery-v0.1"},{"rune":"Q","hex":"#f73b6a7A","correct":32,"choice":32,"rt":493.99999994784594,"accuracy":1,"outcome":"-1","keys":[1994.7900003753603],"total_keys":1,"block":2,"trial":232,"robot":3,"valence":"lose","action":"go","sham":0,"trial_type":"pit-trial","trial_index":250,"time_elapsed":1053524,"internal_node_id":"0.0-235.0","task_version":"battery-v0.1"},{"rune":"F","hex":"#3366ff99","correct":32,"choice":32,"rt":348.1299998238683,"accuracy":1,"outcome":"+10","keys":[1848.2300001196563],"total_keys":1,"block":2,"trial":233,"robot":1,"valence":"win","action":"go","sham":0,"trial_type":"pit-trial","trial_index":251,"time_elapsed":1056575,"internal_node_id":"0.0-236.0","task_version":"battery-v0.1"},{"rune":"T","hex":"#3366ff99","correct":-1,"choice":32,"rt":402.6700002141297,"accuracy":0,"outcome":"+1","keys":[1903.3900001086295],"total_keys":1,"block":2,"trial":234,"robot":2,"valence":"win","action":"no-go","sham":0,"trial_type":"pit-trial","trial_index":252,"time_elapsed":1059681,"internal_node_id":"0.0-237.0","task_version":"battery-v0.1"},{"rune":"J","hex":"#f73b6a7A","correct":32,"choice":-1,"rt":-1,"accuracy":0,"outcome":"-10","keys":[3925.7000000216067],"total_keys":1,"block":2,"trial":235,"robot":3,"valence":"lose","action":"go","sham":0,"trial_type":"pit-trial","trial_index":253,"time_elapsed":1063686,"internal_node_id":"0.0-238.0","task_version":"battery-v0.1"},{"rune":"Q","hex":"#f73b6a7A","correct":32,"choice":32,"rt":837.0649996213615,"accuracy":1,"outcome":"-1","keys":[2337.915000040084],"total_keys":1,"block":2,"trial":236,"robot":3,"valence":"lose","action":"go","sham":0,"trial_type":"pit-trial","trial_index":254,"time_elapsed":1067226,"internal_node_id":"0.0-239.0","task_version":"battery-v0.1"},{"rune":"F","hex":"#3366ff99","correct":32,"choice":-1,"rt":-1,"accuracy":0,"outcome":"+1","keys":[],"total_keys":0,"block":2,"trial":237,"robot":1,"valence":"win","action":"go","sham":0,"trial_type":"pit-trial","trial_index":255,"time_elapsed":1071229,"internal_node_id":"0.0-240.0","task_version":"battery-v0.1"},{"rune":"Q","hex":"#f73b6a7A","correct":32,"choice":32,"rt":1119.6050001308322,"accuracy":1,"outcome":"-10","keys":[2619.990000035614],"total_keys":1,"block":2,"trial":238,"robot":3,"valence":"lose","action":"go","sham":1,"trial_type":"pit-trial","trial_index":256,"time_elapsed":1075052,"internal_node_id":"0.0-241.0","task_version":"battery-v0.1"},{"rune":"J","hex":"#f73b6a7A","correct":32,"choice":32,"rt":258.2950000651181,"accuracy":1,"outcome":"-1","keys":[1758.7699997238815],"total_keys":1,"block":2,"trial":239,"robot":3,"valence":"lose","action":"go","sham":0,"trial_type":"pit-trial","trial_index":257,"time_elapsed":1078013,"internal_node_id":"0.0-242.0","task_version":"battery-v0.1"},{"rune":"T","hex":"#3366ff99","correct":-1,"choice":32,"rt":293.9400002360344,"accuracy":0,"outcome":"+10","keys":[1794.3349997512996],"total_keys":1,"block":2,"trial":240,"robot":2,"valence":"win","action":"no-go","sham":1,"trial_type":"pit-trial","trial_index":258,"time_elapsed":1081010,"internal_node_id":"0.0-243.0","task_version":"battery-v0.1"},{"view_history":"[{\"page_index\":0,\"viewing_time\":3590.735000092536}]","rt":3591.2350001744926,"trial_type":"pit-instructions","trial_index":259,"time_elapsed":1084602,"internal_node_id":"0.0-244.0","task_version":"battery-v0.1"},{"rt":16309.229999780655,"responses":{"age":"49","gender-categorical":"Male","gender-free-response":"","ethnicity":"Not Hispanic or Latino","race":["White"],"language":"Yes","fluency":"Very well"},"survey":"demographics","trial_type":"survey-demo","trial_index":260,"time_elapsed":1100914,"internal_node_id":"0.0-245.0","task_version":"battery-v0.1"},{"rt":19693.78500012681,"responses":{"difficulty":"4","fun":"4","clarity":"5","strategy":"no","feedback":"No comments"},"survey":"debrief","trial_type":"survey-debrief","trial_index":261,"time_elapsed":1120610,"internal_node_id":"0.0-246.0","task_version":"battery-v0.1","interactions":"[{\"event\":\"blur\",\"trial\":55,\"time\":365195},{\"event\":\"focus\",\"trial\":56,\"time\":365926},{\"event\":\"blur\",\"trial\":69,\"time\":411921},{\"event\":\"focus\",\"trial\":69,\"time\":413656},{\"event\":\"blur\",\"trial\":138,\"time\":662241},{\"event\":\"focus\",\"trial\":138,\"time\":668052}]"}]