[{"view_history":"[{\"page_index\":0,\"viewing_time\":2555.984999984503},{\"page_index\":1,\"viewing_time\":3001.705000177026},{\"page_index\":2,\"viewing_time\":2375.9300000965595},{\"page_index\":3,\"viewing_time\":9395.914999768138},{\"page_index\":4,\"viewing_time\":5991.984999738634},{\"page_index\":5,\"viewing_time\":4233.900000341237}]","rt":27556.389999575913,"trial_type":"pit-instructions","trial_index":0,"time_elapsed":27567,"internal_node_id":"0.0-0.0-0.0","task_version":"battery-v0.1"},{"rune":"","hex":"#FFFFF080","correct":32,"choice":-1,"rt":-1,"accuracy":0,"outcome":"+0","keys":[3664.6649995818734],"total_keys":1,"block":0,"trial_type":"pit-trial","trial_index":1,"time_elapsed":31571,"internal_node_id":"0.0-0.0-1.0-0.0","task_version":"battery-v0.1"},{"rune":"","hex":"#FFFFF080","correct":32,"choice":32,"rt":511.2349996343255,"accuracy":1,"outcome":"+10","keys":[2011.4849992096424],"total_keys":1,"block":0,"trial_type":"pit-trial","trial_index":2,"time_elapsed":34785,"internal_node_id":"0.0-0.0-1.0-0.1","task_version":"battery-v0.1"},{"rune":"","hex":"#FFFFF080","correct":32,"choice":32,"rt":185.27499958872795,"accuracy":1,"outcome":"+10","keys":[1685.8750004321337],"total_keys":1,"block":0,"trial_type":"pit-trial","trial_index":3,"time_elapsed":37674,"internal_node_id":"0.0-0.0-1.0-0.2","task_version":"battery-v0.1"},{"rune":"","hex":"#FFFFF080","correct":32,"choice":32,"rt":264.9900000542402,"accuracy":1,"outcome":"+10","keys":[1765.1199996471405],"total_keys":1,"block":0,"trial_type":"pit-trial","trial_index":4,"time_elapsed":40642,"internal_node_id":"0.0-0.0-1.0-0.3","task_version":"battery-v0.1"},{"view_history":"[{\"page_index\":0,\"viewing_time\":5878.049999475479}]","rt":5878.5499995574355,"trial_type":"pit-instructions","trial_index":5,"time_elapsed":46522,"internal_node_id":"0.0-0.0-2.0","task_version":"battery-v0.1"},{"rune":"","hex":"#FFFFF080","correct":-1,"choice":-1,"rt":-1,"accuracy":1,"outcome":"+10","keys":[],"total_keys":0,"block":0,"trial_type":"pit-trial","trial_index":6,"time_elapsed":50525,"internal_node_id":"0.0-0.0-3.0-0.0","task_version":"battery-v0.1"},{"rune":"","hex":"#FFFFF080","correct":-1,"choice":-1,"rt":-1,"accuracy":1,"outcome":"+10","keys":[],"total_keys":0,"block":0,"trial_type":"pit-trial","trial_index":7,"time_elapsed":54528,"internal_node_id":"0.0-0.0-3.0-0.1","task_version":"battery-v0.1"},{"rune":"","hex":"#FFFFF080","correct":-1,"choice":-1,"rt":-1,"accuracy":1,"outcome":"+10","keys":[],"total_keys":0,"block":0,"trial_type":"pit-trial","trial_index":8,"time_elapsed":58531,"internal_node_id":"0.0-0.0-3.0-0.2","task_version":"battery-v0.1"},{"rune":"","hex":"#FFFFF080","correct":-1,"choice":-1,"rt":-1,"accuracy":1,"outcome":"+10","keys":[],"total_keys":0,"block":0,"trial_type":"pit-trial","trial_index":9,"time_elapsed":62534,"internal_node_id":"0.0-0.0-3.0-0.3","task_version":"battery-v0.1"},{"responses":["Press SPACE","Do nothing"],"num_errors":0,"rt":5659.905000589788,"trial_type":"pit-comprehension","trial_index":10,"time_elapsed":68197,"internal_node_id":"0.0-0.0-4.0","task_version":"battery-v0.1"},{"view_history":"[{\"page_index\":0,\"viewing_time\":5073.880000039935},{\"page_index\":1,\"viewing_time\":4091.8349996209145},{\"page_index\":2,\"viewing_time\":4737.994999624789},{\"page_index\":3,\"viewing_time\":4449.980000033975},{\"page_index\":4,\"viewing_time\":5457.775000482798},{\"page_index\":5,\"viewing_time\":8177.910000085831},{\"page_index\":6,\"viewing_time\":6960.099999792874},{\"page_index\":7,\"viewing_time\":4029.9399998039007},{\"page_index\":8,\"viewing_time\":2181.780000217259},{\"page_index\":9,\"viewing_time\":5136.079999618232},{\"page_index\":10,\"viewing_time\":2271.93000074476}]","rt":52569.73999924958,"trial_type":"pit-instructions","trial_index":11,"time_elapsed":120774,"internal_node_id":"0.0-1.0-0.0","task_version":"battery-v0.1"},{"responses":["+10","-1","True","True"],"num_errors":0,"rt":23070.33499982208,"trial_type":"pit-comprehension","trial_index":12,"time_elapsed":143847,"internal_node_id":"0.0-1.0-1.0","task_version":"battery-v0.1"},{"view_history":"[{\"page_index\":0,\"viewing_time\":1959.5550000667572},{\"page_index\":1,\"viewing_time\":2722.035000100732}]","rt":4682.074999436736,"trial_type":"pit-instructions","trial_index":13,"time_elapsed":148537,"internal_node_id":"0.0-2.0","task_version":"battery-v0.1"},{"rune":"W","hex":"#f73b6a7A","correct":-1,"choice":-1,"rt":-1,"accuracy":1,"outcome":"-1","keys":[],"total_keys":0,"block":1,"trial":1,"robot":4,"valence":"lose","action":"no-go","sham":0,"trial_type":"pit-trial","trial_index":14,"time_elapsed":152541,"internal_node_id":"0.0-3.0","task_version":"battery-v0.1"},{"rune":"P","hex":"#3366ff99","correct":-1,"choice":32,"rt":710.81000007689,"accuracy":0,"outcome":"+1","keys":[2211.6350000724196],"total_keys":1,"block":1,"trial":2,"robot":2,"valence":"win","action":"no-go","sham":0,"trial_type":"pit-trial","trial_index":15,"time_elapsed":155955,"internal_node_id":"0.0-4.0","task_version":"battery-v0.1"},{"rune":"V","hex":"#3366ff99","correct":32,"choice":32,"rt":568.6149997636676,"accuracy":1,"outcome":"+10","keys":[2068.8950000330806],"total_keys":1,"block":1,"trial":3,"robot":1,"valence":"win","action":"go","sham":0,"trial_type":"pit-trial","trial_index":16,"time_elapsed":159227,"internal_node_id":"0.0-5.0","task_version":"battery-v0.1"},{"rune":"N","hex":"#3366ff99","correct":32,"choice":32,"rt":568.2400008663535,"accuracy":1,"outcome":"+10","keys":[2069.1249994561076],"total_keys":1,"block":1,"trial":4,"robot":1,"valence":"win","action":"go","sham":0,"trial_type":"pit-trial","trial_index":17,"time_elapsed":162498,"internal_node_id":"0.0-6.0","task_version":"battery-v0.1"},{"rune":"V","hex":"#3366ff99","correct":32,"choice":32,"rt":545.0550001114607,"accuracy":1,"outcome":"+10","keys":[2045.3700004145503],"total_keys":1,"block":1,"trial":5,"robot":1,"valence":"win","action":"go","sham":0,"trial_type":"pit-trial","trial_index":18,"time_elapsed":165746,"internal_node_id":"0.0-7.0","task_version":"battery-v0.1"},{"rune":"W","hex":"#f73b6a7A","correct":-1,"choice":32,"rt":448.5500007867813,"accuracy":0,"outcome":"-10","keys":[1949.1250002756715],"total_keys":1,"block":1,"trial":6,"robot":4,"valence":"lose","action":"no-go","sham":0,"trial_type":"pit-trial","trial_index":19,"time_elapsed":168899,"internal_node_id":"0.0-8.0","task_version":"battery-v0.1"},{"rune":"P","hex":"#3366ff99","correct":-1,"choice":32,"rt":448.8399997353554,"accuracy":0,"outcome":"+1","keys":[1949.070000089705],"total_keys":1,"block":1,"trial":7,"robot":2,"valence":"win","action":"no-go","sham":0,"trial_type":"pit-trial","trial_index":20,"time_elapsed":172050,"internal_node_id":"0.0-9.0","task_version":"battery-v0.1"},{"rune":"N","hex":"#3366ff99","correct":32,"choice":32,"rt":577.5800002738833,"accuracy":1,"outcome":"+10","keys":[2078.3399995416403],"total_keys":1,"block":1,"trial":8,"robot":1,"valence":"win","action":"go","sham":0,"trial_type":"pit-trial","trial_index":21,"time_elapsed":175331,"internal_node_id":"0.0-10.0","task_version":"battery-v0.1"},{"rune":"N","hex":"#3366ff99","correct":32,"choice":32,"rt":528.2450001686811,"accuracy":1,"outcome":"+1","keys":[2029.0999999269843],"total_keys":1,"block":1,"trial":9,"robot":1,"valence":"win","action":"go","sham":1,"trial_type":"pit-trial","trial_index":22,"time_elapsed":178562,"internal_node_id":"0.0-11.0","task_version":"battery-v0.1"},{"rune":"P","hex":"#3366ff99","correct":-1,"choice":32,"rt":544.4150008261204,"accuracy":0,"outcome":"+10","keys":[2045.464999973774],"total_keys":1,"block":1,"trial":10,"robot":2,"valence":"win","action":"no-go","sham":1,"trial_type":"pit-trial","trial_index":23,"time_elapsed":181811,"internal_node_id":"0.0-12.0","task_version":"battery-v0.1"},{"rune":"V","hex":"#3366ff99","correct":32,"choice":32,"rt":496.23499996960163,"accuracy":1,"outcome":"+10","keys":[1996.5549996122718],"total_keys":1,"block":1,"trial":11,"robot":1,"valence":"win","action":"go","sham":0,"trial_type":"pit-trial","trial_index":24,"time_elapsed":185010,"internal_node_id":"0.0-13.0","task_version":"battery-v0.1"},{"rune":"W","hex":"#f73b6a7A","correct":-1,"choice":-1,"rt":-1,"accuracy":1,"outcome":"-1","keys":[],"total_keys":0,"block":1,"trial":12,"robot":4,"valence":"lose","action":"no-go","sham":0,"trial_type":"pit-trial","trial_index":25,"time_elapsed":189013,"internal_node_id":"0.0-14.0","task_version":"battery-v0.1"},{"rune":"W","hex":"#f73b6a7A","correct":-1,"choice":-1,"rt":-1,"accuracy":1,"outcome":"-10","keys":[],"total_keys":0,"block":1,"trial":13,"robot":4,"valence":"lose","action":"no-go","sham":1,"trial_type":"pit-trial","trial_index":26,"time_elapsed":193018,"internal_node_id":"0.0-15.0","task_version":"battery-v0.1"},{"rune":"N","hex":"#3366ff99","correct":32,"choice":32,"rt":481.65000043809414,"accuracy":1,"outcome":"+1","keys":[1981.920000165701],"total_keys":1,"block":1,"trial":14,"robot":1,"valence":"win","action":"go","sham":1,"trial_type":"pit-trial","trial_index":27,"time_elapsed":196202,"internal_node_id":"0.0-16.0","task_version":"battery-v0.1"},{"rune":"V","hex":"#3366ff99","correct":32,"choice":32,"rt":664.8450000211596,"accuracy":1,"outcome":"+10","keys":[2165.5850000679493],"total_keys":1,"block":1,"trial":15,"robot":1,"valence":"win","action":"go","sham":0,"trial_type":"pit-trial","trial_index":28,"time_elapsed":199570,"internal_node_id":"0.0-17.0","task_version":"battery-v0.1"},{"rune":"P","hex":"#3366ff99","correct":-1,"choice":32,"rt":513.1049994379282,"accuracy":0,"outcome":"+10","keys":[2013.7749994173646],"total_keys":1,"block":1,"trial":16,"robot":2,"valence":"win","action":"no-go","sham":1,"trial_type":"pit-trial","trial_index":29,"time_elapsed":202786,"internal_node_id":"0.0-18.0","task_version":"battery-v0.1"},{"rune":"N","hex":"#3366ff99","correct":32,"choice":32,"rt":448.9799998700619,"accuracy":1,"outcome":"+10","keys":[1949.4749996811152],"total_keys":1,"block":1,"trial":17,"robot":1,"valence":"win","action":"go","sham":0,"trial_type":"pit-trial","trial_index":30,"time_elapsed":205938,"internal_node_id":"0.0-19.0","task_version":"battery-v0.1"},{"rune":"W","hex":"#f73b6a7A","correct":-1,"choice":32,"rt":713.2899994030595,"accuracy":0,"outcome":"-10","keys":[2214.114999398589],"total_keys":1,"block":1,"trial":18,"robot":4,"valence":"lose","action":"no-go","sham":0,"trial_type":"pit-trial","trial_index":31,"time_elapsed":209355,"internal_node_id":"0.0-20.0","task_version":"battery-v0.1"},{"rune":"P","hex":"#3366ff99","correct":-1,"choice":32,"rt":488.9249997213483,"accuracy":0,"outcome":"+1","keys":[1989.330000244081],"total_keys":1,"block":1,"trial":19,"robot":2,"valence":"win","action":"no-go","sham":0,"trial_type":"pit-trial","trial_index":32,"time_elapsed":212547,"internal_node_id":"0.0-21.0","task_version":"battery-v0.1"},{"rune":"V","hex":"#3366ff99","correct":32,"choice":32,"rt":495.2549999579787,"accuracy":1,"outcome":"+10","keys":[1995.695000514388],"total_keys":1,"block":1,"trial":20,"robot":1,"valence":"win","action":"go","sham":0,"trial_type":"pit-trial","trial_index":33,"time_elapsed":215746,"internal_node_id":"0.0-22.0","task_version":"battery-v0.1"},{"rune":"P","hex":"#3366ff99","correct":-1,"choice":32,"rt":544.9850000441074,"accuracy":0,"outcome":"+1","keys":[2045.6550000235438],"total_keys":1,"block":1,"trial":21,"robot":2,"valence":"win","action":"no-go","sham":0,"trial_type":"pit-trial","trial_index":34,"time_elapsed":218994,"internal_node_id":"0.0-23.0","task_version":"battery-v0.1"},{"rune":"N","hex":"#3366ff99","correct":32,"choice":32,"rt":840.850000269711,"accuracy":1,"outcome":"+1","keys":[2341.594999656081],"total_keys":1,"block":1,"trial":22,"robot":1,"valence":"win","action":"go","sham":1,"trial_type":"pit-trial","trial_index":35,"time_elapsed":222538,"internal_node_id":"0.0-24.0","task_version":"battery-v0.1"},{"rune":"W","hex":"#f73b6a7A","correct":-1,"choice":32,"rt":889.4349997863173,"accuracy":0,"outcome":"-1","keys":[2389.69000056386],"total_keys":1,"block":1,"trial":23,"robot":4,"valence":"lose","action":"no-go","sham":1,"trial_type":"pit-trial","trial_index":36,"time_elapsed":226130,"internal_node_id":"0.0-25.0","task_version":"battery-v0.1"},{"rune":"V","hex":"#3366ff99","correct":32,"choice":32,"rt":576.3349998742342,"accuracy":1,"outcome":"+10","keys":[2077.779999934137],"total_keys":1,"block":1,"trial":24,"robot":1,"valence":"win","action":"go","sham":0,"trial_type":"pit-trial","trial_index":37,"time_elapsed":229411,"internal_node_id":"0.0-26.0","task_version":"battery-v0.1"},{"rune":"P","hex":"#3366ff99","correct":-1,"choice":32,"rt":449.1300005465746,"accuracy":0,"outcome":"+1","keys":[1949.3499994277954],"total_keys":1,"block":1,"trial":25,"robot":2,"valence":"win","action":"no-go","sham":0,"trial_type":"pit-trial","trial_index":38,"time_elapsed":232562,"internal_node_id":"0.0-27.0","task_version":"battery-v0.1"},{"rune":"V","hex":"#3366ff99","correct":32,"choice":32,"rt":392.5200002267957,"accuracy":1,"outcome":"+10","keys":[1893.020000308752],"total_keys":1,"block":1,"trial":26,"robot":1,"valence":"win","action":"go","sham":0,"trial_type":"pit-trial","trial_index":39,"time_elapsed":235659,"internal_node_id":"0.0-28.0","task_version":"battery-v0.1"},{"rune":"W","hex":"#f73b6a7A","correct":-1,"choice":32,"rt":744.8100000619888,"accuracy":0,"outcome":"-10","keys":[2245.0949996709824],"total_keys":1,"block":1,"trial":27,"robot":4,"valence":"lose","action":"no-go","sham":0,"trial_type":"pit-trial","trial_index":40,"time_elapsed":239106,"internal_node_id":"0.0-29.0","task_version":"battery-v0.1"},{"rune":"N","hex":"#3366ff99","correct":32,"choice":32,"rt":568.775000050664,"accuracy":1,"outcome":"+10","keys":[2069.8549998924136],"total_keys":1,"block":1,"trial":28,"robot":1,"valence":"win","action":"go","sham":0,"trial_type":"pit-trial","trial_index":41,"time_elapsed":242378,"internal_node_id":"0.0-30.0","task_version":"battery-v0.1"},{"rune":"W","hex":"#f73b6a7A","correct":-1,"choice":-1,"rt":-1,"accuracy":1,"outcome":"-1","keys":[],"total_keys":0,"block":1,"trial":29,"robot":4,"valence":"lose","action":"no-go","sham":0,"trial_type":"pit-trial","trial_index":42,"time_elapsed":246381,"internal_node_id":"0.0-31.0","task_version":"battery-v0.1"},{"rune":"V","hex":"#3366ff99","correct":32,"choice":32,"rt":517.930000089109,"accuracy":1,"outcome":"+10","keys":[2018.439999781549],"total_keys":1,"block":1,"trial":30,"robot":1,"valence":"win","action":"go","sham":0,"trial_type":"pit-trial","trial_index":43,"time_elapsed":249603,"internal_node_id":"0.0-32.0","task_version":"battery-v0.1"},{"rune":"P","hex":"#3366ff99","correct":-1,"choice":32,"rt":552.9349995777011,"accuracy":0,"outcome":"+1","keys":[2053.044999949634],"total_keys":1,"block":1,"trial":31,"robot":2,"valence":"win","action":"no-go","sham":0,"trial_type":"pit-trial","trial_index":44,"time_elapsed":252858,"internal_node_id":"0.0-33.0","task_version":"battery-v0.1"},{"rune":"N","hex":"#3366ff99","correct":32,"choice":32,"rt":593.1150000542402,"accuracy":1,"outcome":"+10","keys":[2093.3250002563],"total_keys":1,"block":1,"trial":32,"robot":1,"valence":"win","action":"go","sham":0,"trial_type":"pit-trial","trial_index":45,"time_elapsed":256154,"internal_node_id":"0.0-34.0","task_version":"battery-v0.1"},{"rune":"W","hex":"#f73b6a7A","correct":-1,"choice":-1,"rt":-1,"accuracy":1,"outcome":"-1","keys":[],"total_keys":0,"block":1,"trial":33,"robot":4,"valence":"lose","action":"no-go","sham":0,"trial_type":"pit-trial","trial_index":46,"time_elapsed":260157,"internal_node_id":"0.0-35.0","task_version":"battery-v0.1"},{"rune":"N","hex":"#3366ff99","correct":32,"choice":32,"rt":502.8499998152256,"accuracy":1,"outcome":"+10","keys":[2003.5649994388223],"total_keys":1,"block":1,"trial":34,"robot":1,"valence":"win","action":"go","sham":0,"trial_type":"pit-trial","trial_index":47,"time_elapsed":263362,"internal_node_id":"0.0-36.0","task_version":"battery-v0.1"},{"rune":"Z","hex":"#3366ff99","correct":32,"choice":32,"rt":464.20999988913536,"accuracy":1,"outcome":"+1","keys":[1965.4249995946884],"total_keys":1,"block":1,"trial":35,"robot":1,"valence":"win","action":"go","sham":1,"trial_type":"pit-trial","trial_index":48,"time_elapsed":266530,"internal_node_id":"0.0-37.0","task_version":"battery-v0.1"},{"rune":"P","hex":"#3366ff99","correct":-1,"choice":32,"rt":809.4350006431341,"accuracy":0,"outcome":"+1","keys":[2310.109999962151],"total_keys":1,"block":1,"trial":36,"robot":2,"valence":"win","action":"no-go","sham":0,"trial_type":"pit-trial","trial_index":49,"time_elapsed":270043,"internal_node_id":"0.0-38.0","task_version":"battery-v0.1"},{"rune":"Z","hex":"#3366ff99","correct":32,"choice":32,"rt":568.3150002732873,"accuracy":1,"outcome":"+10","keys":[2068.95500048995],"total_keys":1,"block":1,"trial":37,"robot":1,"valence":"win","action":"go","sham":0,"trial_type":"pit-trial","trial_index":50,"time_elapsed":273314,"internal_node_id":"0.0-39.0","task_version":"battery-v0.1"},{"rune":"N","hex":"#3366ff99","correct":32,"choice":32,"rt":489.9150002747774,"accuracy":1,"outcome":"+10","keys":[1990.140000358224],"total_keys":1,"block":1,"trial":38,"robot":1,"valence":"win","action":"go","sham":0,"trial_type":"pit-trial","trial_index":51,"time_elapsed":276507,"internal_node_id":"0.0-40.0","task_version":"battery-v0.1"},{"rune":"P","hex":"#3366ff99","correct":-1,"choice":32,"rt":528.3650001510978,"accuracy":0,"outcome":"+1","keys":[2028.9899995550513],"total_keys":1,"block":1,"trial":39,"robot":2,"valence":"win","action":"no-go","sham":0,"trial_type":"pit-trial","trial_index":52,"time_elapsed":279738,"internal_node_id":"0.0-41.0","task_version":"battery-v0.1"},{"rune":"W","hex":"#f73b6a7A","correct":-1,"choice":-1,"rt":-1,"accuracy":1,"outcome":"-10","keys":[],"total_keys":0,"block":1,"trial":40,"robot":4,"valence":"lose","action":"no-go","sham":1,"trial_type":"pit-trial","trial_index":53,"time_elapsed":283740,"internal_node_id":"0.0-42.0","task_version":"battery-v0.1"},{"rune":"U","hex":"#f73b6a7A","correct":-1,"choice":32,"rt":407.92000014334917,"accuracy":0,"outcome":"-10","keys":[1908.2649992778897],"total_keys":1,"block":1,"trial":41,"robot":4,"valence":"lose","action":"no-go","sham":0,"trial_type":"pit-trial","trial_index":54,"time_elapsed":286851,"internal_node_id":"0.0-43.0","task_version":"battery-v0.1"},{"rune":"X","hex":"#f73b6a7A","correct":32,"choice":-1,"rt":-1,"accuracy":0,"outcome":"-10","keys":[],"total_keys":0,"block":1,"trial":42,"robot":3,"valence":"lose","action":"go","sham":0,"trial_type":"pit-trial","trial_index":55,"time_elapsed":290855,"internal_node_id":"0.0-44.0","task_version":"battery-v0.1"},{"rune":"Z","hex":"#3366ff99","correct":32,"choice":32,"rt":620.3049998730421,"accuracy":1,"outcome":"+10","keys":[2120.8750000223517],"total_keys":1,"block":1,"trial":43,"robot":1,"valence":"win","action":"go","sham":0,"trial_type":"pit-trial","trial_index":56,"time_elapsed":294179,"internal_node_id":"0.0-45.0","task_version":"battery-v0.1"},{"rune":"P","hex":"#3366ff99","correct":-1,"choice":32,"rt":495.8950001746416,"accuracy":0,"outcome":"+1","keys":[1996.8849997967482],"total_keys":1,"block":1,"trial":44,"robot":2,"valence":"win","action":"no-go","sham":0,"trial_type":"pit-trial","trial_index":57,"time_elapsed":297378,"internal_node_id":"0.0-46.0","task_version":"battery-v0.1"},{"rune":"P","hex":"#3366ff99","correct":-1,"choice":32,"rt":592.790000140667,"accuracy":0,"outcome":"+1","keys":[2093.7650008127093],"total_keys":1,"block":1,"trial":45,"robot":2,"valence":"win","action":"no-go","sham":0,"trial_type":"pit-trial","trial_index":58,"time_elapsed":300675,"internal_node_id":"0.0-47.0","task_version":"battery-v0.1"},{"rune":"Z","hex":"#3366ff99","correct":32,"choice":32,"rt":680.3450006991625,"accuracy":1,"outcome":"+10","keys":[2181.3549995422363],"total_keys":1,"block":1,"trial":46,"robot":1,"valence":"win","action":"go","sham":0,"trial_type":"pit-trial","trial_index":59,"time_elapsed":304059,"internal_node_id":"0.0-48.0","task_version":"battery-v0.1"},{"rune":"U","hex":"#f73b6a7A","correct":-1,"choice":-1,"rt":-1,"accuracy":1,"outcome":"-10","keys":[],"total_keys":0,"block":1,"trial":47,"robot":4,"valence":"lose","action":"no-go","sham":1,"trial_type":"pit-trial","trial_index":60,"time_elapsed":308063,"internal_node_id":"0.0-49.0","task_version":"battery-v0.1"},{"rune":"X","hex":"#f73b6a7A","correct":32,"choice":-1,"rt":-1,"accuracy":0,"outcome":"-10","keys":[],"total_keys":0,"block":1,"trial":48,"robot":3,"valence":"lose","action":"go","sham":0,"trial_type":"pit-trial","trial_index":61,"time_elapsed":312065,"internal_node_id":"0.0-50.0","task_version":"battery-v0.1"},{"rune":"Z","hex":"#3366ff99","correct":32,"choice":32,"rt":738.0200000479817,"accuracy":1,"outcome":"+10","keys":[2238.764999434352],"total_keys":1,"block":1,"trial":49,"robot":1,"valence":"win","action":"go","sham":0,"trial_type":"pit-trial","trial_index":62,"time_elapsed":315506,"internal_node_id":"0.0-51.0","task_version":"battery-v0.1"},{"rune":"U","hex":"#f73b6a7A","correct":-1,"choice":32,"rt":617.5250001251698,"accuracy":0,"outcome":"-10","keys":[2117.7799999713898],"total_keys":1,"block":1,"trial":50,"robot":4,"valence":"lose","action":"no-go","sham":0,"trial_type":"pit-trial","trial_index":63,"time_elapsed":318826,"internal_node_id":"0.0-52.0","task_version":"battery-v0.1"},{"rune":"X","hex":"#f73b6a7A","correct":32,"choice":32,"rt":1097.3899997770786,"accuracy":1,"outcome":"-1","keys":[2597.7900000289083],"total_keys":1,"block":1,"trial":51,"robot":3,"valence":"lose","action":"go","sham":0,"trial_type":"pit-trial","trial_index":64,"time_elapsed":322627,"internal_node_id":"0.0-53.0","task_version":"battery-v0.1"},{"rune":"E","hex":"#3366ff99","correct":-1,"choice":32,"rt":449.239999987185,"accuracy":0,"outcome":"+10","keys":[1949.4549995288253],"total_keys":1,"block":1,"trial":52,"robot":2,"valence":"win","action":"no-go","sham":1,"trial_type":"pit-trial","trial_index":65,"time_elapsed":325778,"internal_node_id":"0.0-54.0","task_version":"battery-v0.1"},{"rune":"X","hex":"#f73b6a7A","correct":32,"choice":-1,"rt":-1,"accuracy":0,"outcome":"-10","keys":[],"total_keys":0,"block":1,"trial":53,"robot":3,"valence":"lose","action":"go","sham":0,"trial_type":"pit-trial","trial_index":66,"time_elapsed":329781,"internal_node_id":"0.0-55.0","task_version":"battery-v0.1"},{"rune":"E","hex":"#3366ff99","correct":-1,"choice":32,"rt":469.8599996045232,"accuracy":0,"outcome":"+1","keys":[1970.6949992105365],"total_keys":1,"block":1,"trial":54,"robot":2,"valence":"win","action":"no-go","sham":0,"trial_type":"pit-trial","trial_index":67,"time_elapsed":332955,"internal_node_id":"0.0-56.0","task_version":"battery-v0.1"},{"rune":"Z","hex":"#3366ff99","correct":32,"choice":32,"rt":440.98500069230795,"accuracy":1,"outcome":"+10","keys":[1941.6300002485514],"total_keys":1,"block":1,"trial":55,"robot":1,"valence":"win","action":"go","sham":0,"trial_type":"pit-trial","trial_index":68,"time_elapsed":336099,"internal_node_id":"0.0-57.0","task_version":"battery-v0.1"},{"rune":"U","hex":"#f73b6a7A","correct":-1,"choice":32,"rt":1183.1249995157123,"accuracy":0,"outcome":"-10","keys":[2684.2200001701713],"total_keys":1,"block":1,"trial":56,"robot":4,"valence":"lose","action":"no-go","sham":0,"trial_type":"pit-trial","trial_index":69,"time_elapsed":339987,"internal_node_id":"0.0-58.0","task_version":"battery-v0.1"},{"rune":"E","hex":"#3366ff99","correct":-1,"choice":32,"rt":505.0049992278218,"accuracy":0,"outcome":"+1","keys":[2005.405000410974],"total_keys":1,"block":1,"trial":57,"robot":2,"valence":"win","action":"no-go","sham":0,"trial_type":"pit-trial","trial_index":70,"time_elapsed":343195,"internal_node_id":"0.0-59.0","task_version":"battery-v0.1"},{"rune":"Z","hex":"#3366ff99","correct":32,"choice":32,"rt":424.1349995136261,"accuracy":1,"outcome":"+1","keys":[1924.8999999836087],"total_keys":1,"block":1,"trial":58,"robot":1,"valence":"win","action":"go","sham":1,"trial_type":"pit-trial","trial_index":71,"time_elapsed":346323,"internal_node_id":"0.0-60.0","task_version":"battery-v0.1"},{"rune":"U","hex":"#f73b6a7A","correct":-1,"choice":32,"rt":961.40499971807,"accuracy":0,"outcome":"-10","keys":[2461.540000513196],"total_keys":1,"block":1,"trial":59,"robot":4,"valence":"lose","action":"no-go","sham":0,"trial_type":"pit-trial","trial_index":72,"time_elapsed":349988,"internal_node_id":"0.0-61.0","task_version":"battery-v0.1"},{"rune":"X","hex":"#f73b6a7A","correct":32,"choice":32,"rt":344.15999986231327,"accuracy":1,"outcome":"-1","keys":[1844.7749996557832],"total_keys":1,"block":1,"trial":60,"robot":3,"valence":"lose","action":"go","sham":0,"trial_type":"pit-trial","trial_index":73,"time_elapsed":353035,"internal_node_id":"0.0-62.0","task_version":"battery-v0.1"},{"rune":"X","hex":"#f73b6a7A","correct":32,"choice":32,"rt":792.6799999549985,"accuracy":1,"outcome":"-10","keys":[2293.3900002390146],"total_keys":1,"block":1,"trial":61,"robot":3,"valence":"lose","action":"go","sham":1,"trial_type":"pit-trial","trial_index":74,"time_elapsed":356531,"internal_node_id":"0.0-63.0","task_version":"battery-v0.1"},{"rune":"E","hex":"#3366ff99","correct":-1,"choice":32,"rt":560.9349999576807,"accuracy":0,"outcome":"+1","keys":[2061.659999191761],"total_keys":1,"block":1,"trial":62,"robot":2,"valence":"win","action":"no-go","sham":0,"trial_type":"pit-trial","trial_index":75,"time_elapsed":359795,"internal_node_id":"0.0-64.0","task_version":"battery-v0.1"},{"rune":"Z","hex":"#3366ff99","correct":32,"choice":32,"rt":392.64499954879284,"accuracy":1,"outcome":"+10","keys":[1892.7549999207258],"total_keys":1,"block":1,"trial":63,"robot":1,"valence":"win","action":"go","sham":0,"trial_type":"pit-trial","trial_index":76,"time_elapsed":362891,"internal_node_id":"0.0-65.0","task_version":"battery-v0.1"},{"rune":"U","hex":"#f73b6a7A","correct":-1,"choice":-1,"rt":-1,"accuracy":1,"outcome":"-1","keys":[],"total_keys":0,"block":1,"trial":64,"robot":4,"valence":"lose","action":"no-go","sham":0,"trial_type":"pit-trial","trial_index":77,"time_elapsed":366895,"internal_node_id":"0.0-66.0","task_version":"battery-v0.1"},{"rune":"U","hex":"#f73b6a7A","correct":-1,"choice":32,"rt":1148.8200007006526,"accuracy":0,"outcome":"-10","keys":[2649.720000103116],"total_keys":1,"block":1,"trial":65,"robot":4,"valence":"lose","action":"no-go","sham":0,"trial_type":"pit-trial","trial_index":78,"time_elapsed":370747,"internal_node_id":"0.0-67.0","task_version":"battery-v0.1"},{"rune":"Z","hex":"#3366ff99","correct":32,"choice":32,"rt":528.9200004190207,"accuracy":1,"outcome":"+1","keys":[2029.0100006386638],"total_keys":1,"block":1,"trial":66,"robot":1,"valence":"win","action":"go","sham":1,"trial_type":"pit-trial","trial_index":79,"time_elapsed":373978,"internal_node_id":"0.0-68.0","task_version":"battery-v0.1"},{"rune":"X","hex":"#f73b6a7A","correct":32,"choice":-1,"rt":-1,"accuracy":0,"outcome":"-10","keys":[],"total_keys":0,"block":1,"trial":67,"robot":3,"valence":"lose","action":"go","sham":0,"trial_type":"pit-trial","trial_index":80,"time_elapsed":377982,"internal_node_id":"0.0-69.0","task_version":"battery-v0.1"},{"rune":"E","hex":"#3366ff99","correct":-1,"choice":32,"rt":509.18500032275915,"accuracy":0,"outcome":"+1","keys":[2009.650000371039],"total_keys":1,"block":1,"trial":68,"robot":2,"valence":"win","action":"no-go","sham":0,"trial_type":"pit-trial","trial_index":81,"time_elapsed":381194,"internal_node_id":"0.0-70.0","task_version":"battery-v0.1"},{"rune":"E","hex":"#3366ff99","correct":-1,"choice":32,"rt":497.29499965906143,"accuracy":0,"outcome":"+1","keys":[1997.9550000280142],"total_keys":1,"block":1,"trial":69,"robot":2,"valence":"win","action":"no-go","sham":0,"trial_type":"pit-trial","trial_index":82,"time_elapsed":384395,"internal_node_id":"0.0-71.0","task_version":"battery-v0.1"},{"rune":"U","hex":"#f73b6a7A","correct":-1,"choice":32,"rt":295.5650007352233,"accuracy":0,"outcome":"-10","keys":[1797.0800008624792],"total_keys":1,"block":1,"trial":70,"robot":4,"valence":"lose","action":"no-go","sham":0,"trial_type":"pit-trial","trial_index":83,"time_elapsed":387395,"internal_node_id":"0.0-72.0","task_version":"battery-v0.1"},{"rune":"Z","hex":"#3366ff99","correct":32,"choice":32,"rt":560.3049993515015,"accuracy":1,"outcome":"+10","keys":[2060.560000129044],"total_keys":1,"block":1,"trial":71,"robot":1,"valence":"win","action":"go","sham":0,"trial_type":"pit-trial","trial_index":84,"time_elapsed":390659,"internal_node_id":"0.0-73.0","task_version":"battery-v0.1"},{"rune":"X","hex":"#f73b6a7A","correct":32,"choice":-1,"rt":-1,"accuracy":0,"outcome":"-10","keys":[],"total_keys":0,"block":1,"trial":72,"robot":3,"valence":"lose","action":"go","sham":0,"trial_type":"pit-trial","trial_index":85,"time_elapsed":394662,"internal_node_id":"0.0-74.0","task_version":"battery-v0.1"},{"rune":"U","hex":"#f73b6a7A","correct":-1,"choice":-1,"rt":-1,"accuracy":1,"outcome":"-1","keys":[],"total_keys":0,"block":1,"trial":73,"robot":4,"valence":"lose","action":"no-go","sham":0,"trial_type":"pit-trial","trial_index":86,"time_elapsed":398665,"internal_node_id":"0.0-75.0","task_version":"battery-v0.1"},{"rune":"T","hex":"#f73b6a7A","correct":32,"choice":-1,"rt":-1,"accuracy":0,"outcome":"-10","keys":[],"total_keys":0,"block":1,"trial":74,"robot":3,"valence":"lose","action":"go","sham":0,"trial_type":"pit-trial","trial_index":87,"time_elapsed":402668,"internal_node_id":"0.0-76.0","task_version":"battery-v0.1"},{"rune":"Z","hex":"#3366ff99","correct":32,"choice":32,"rt":456.0099998489022,"accuracy":1,"outcome":"+10","keys":[1956.1649998649955],"total_keys":1,"block":1,"trial":75,"robot":1,"valence":"win","action":"go","sham":0,"trial_type":"pit-trial","trial_index":88,"time_elapsed":405827,"internal_node_id":"0.0-77.0","task_version":"battery-v0.1"},{"rune":"E","hex":"#3366ff99","correct":-1,"choice":32,"rt":609.0299999341369,"accuracy":0,"outcome":"+1","keys":[2109.9399998784065],"total_keys":1,"block":1,"trial":76,"robot":2,"valence":"win","action":"no-go","sham":0,"trial_type":"pit-trial","trial_index":89,"time_elapsed":409139,"internal_node_id":"0.0-78.0","task_version":"battery-v0.1"},{"rune":"E","hex":"#3366ff99","correct":-1,"choice":32,"rt":473.5249998047948,"accuracy":0,"outcome":"+1","keys":[1973.8650005310774],"total_keys":1,"block":1,"trial":77,"robot":2,"valence":"win","action":"no-go","sham":0,"trial_type":"pit-trial","trial_index":90,"time_elapsed":412315,"internal_node_id":"0.0-79.0","task_version":"battery-v0.1"},{"rune":"U","hex":"#f73b6a7A","correct":-1,"choice":-1,"rt":-1,"accuracy":1,"outcome":"-10","keys":[],"total_keys":0,"block":1,"trial":78,"robot":4,"valence":"lose","action":"no-go","sham":1,"trial_type":"pit-trial","trial_index":91,"time_elapsed":416317,"internal_node_id":"0.0-80.0","task_version":"battery-v0.1"},{"rune":"T","hex":"#f73b6a7A","correct":32,"choice":-1,"rt":-1,"accuracy":0,"outcome":"-10","keys":[],"total_keys":0,"block":1,"trial":79,"robot":3,"valence":"lose","action":"go","sham":0,"trial_type":"pit-trial","trial_index":92,"time_elapsed":420320,"internal_node_id":"0.0-81.0","task_version":"battery-v0.1"},{"rune":"Z","hex":"#3366ff99","correct":32,"choice":32,"rt":428.2200001180172,"accuracy":1,"outcome":"+10","keys":[1928.7149999290705],"total_keys":1,"block":1,"trial":80,"robot":1,"valence":"win","action":"go","sham":0,"trial_type":"pit-trial","trial_index":93,"time_elapsed":423451,"internal_node_id":"0.0-82.0","task_version":"battery-v0.1"},{"rune":"C","hex":"#f73b6a7A","correct":32,"choice":-1,"rt":-1,"accuracy":0,"outcome":"-10","keys":[],"total_keys":0,"block":1,"trial":81,"robot":3,"valence":"lose","action":"go","sham":0,"trial_type":"pit-trial","trial_index":94,"time_elapsed":427454,"internal_node_id":"0.0-83.0","task_version":"battery-v0.1"},{"rune":"U","hex":"#f73b6a7A","correct":-1,"choice":-1,"rt":-1,"accuracy":1,"outcome":"-10","keys":[],"total_keys":0,"block":1,"trial":82,"robot":4,"valence":"lose","action":"no-go","sham":1,"trial_type":"pit-trial","trial_index":95,"time_elapsed":431457,"internal_node_id":"0.0-84.0","task_version":"battery-v0.1"},{"rune":"T","hex":"#f73b6a7A","correct":32,"choice":32,"rt":787.2299998998642,"accuracy":1,"outcome":"-1","keys":[2287.2599996626377],"total_keys":1,"block":1,"trial":83,"robot":3,"valence":"lose","action":"go","sham":0,"trial_type":"pit-trial","trial_index":96,"time_elapsed":434946,"internal_node_id":"0.0-85.0","task_version":"battery-v0.1"},{"rune":"E","hex":"#3366ff99","correct":-1,"choice":32,"rt":513.4100001305342,"accuracy":0,"outcome":"+1","keys":[2013.985000550747],"total_keys":1,"block":1,"trial":84,"robot":2,"valence":"win","action":"no-go","sham":0,"trial_type":"pit-trial","trial_index":97,"time_elapsed":438162,"internal_node_id":"0.0-86.0","task_version":"battery-v0.1"},{"rune":"U","hex":"#f73b6a7A","correct":-1,"choice":32,"rt":993.6500005424023,"accuracy":0,"outcome":"-10","keys":[2493.8650000840425],"total_keys":1,"block":1,"trial":85,"robot":4,"valence":"lose","action":"no-go","sham":0,"trial_type":"pit-trial","trial_index":98,"time_elapsed":441859,"internal_node_id":"0.0-87.0","task_version":"battery-v0.1"},{"rune":"C","hex":"#f73b6a7A","correct":32,"choice":-1,"rt":-1,"accuracy":0,"outcome":"-10","keys":[],"total_keys":0,"block":1,"trial":86,"robot":3,"valence":"lose","action":"go","sham":0,"trial_type":"pit-trial","trial_index":99,"time_elapsed":445862,"internal_node_id":"0.0-88.0","task_version":"battery-v0.1"},{"rune":"T","hex":"#f73b6a7A","correct":32,"choice":32,"rt":917.879999615252,"accuracy":1,"outcome":"-10","keys":[2418.695000000298],"total_keys":1,"block":1,"trial":87,"robot":3,"valence":"lose","action":"go","sham":1,"trial_type":"pit-trial","trial_index":100,"time_elapsed":449483,"internal_node_id":"0.0-89.0","task_version":"battery-v0.1"},{"rune":"E","hex":"#3366ff99","correct":-1,"choice":32,"rt":480.30500020831823,"accuracy":0,"outcome":"+1","keys":[1980.9550000354648],"total_keys":1,"block":1,"trial":88,"robot":2,"valence":"win","action":"no-go","sham":0,"trial_type":"pit-trial","trial_index":101,"time_elapsed":452667,"internal_node_id":"0.0-90.0","task_version":"battery-v0.1"},{"rune":"M","hex":"#f73b6a7A","correct":-1,"choice":-1,"rt":-1,"accuracy":1,"outcome":"-1","keys":[],"total_keys":0,"block":1,"trial":89,"robot":4,"valence":"lose","action":"no-go","sham":0,"trial_type":"pit-trial","trial_index":102,"time_elapsed":456670,"internal_node_id":"0.0-91.0","task_version":"battery-v0.1"},{"rune":"C","hex":"#f73b6a7A","correct":32,"choice":-1,"rt":-1,"accuracy":0,"outcome":"-10","keys":[],"total_keys":0,"block":1,"trial":90,"robot":3,"valence":"lose","action":"go","sham":0,"trial_type":"pit-trial","trial_index":103,"time_elapsed":460673,"internal_node_id":"0.0-92.0","task_version":"battery-v0.1"},{"rune":"Q","hex":"#3366ff99","correct":-1,"choice":-1,"rt":-1,"accuracy":1,"outcome":"+1","keys":[],"total_keys":0,"block":1,"trial":91,"robot":2,"valence":"win","action":"no-go","sham":1,"trial_type":"pit-trial","trial_index":104,"time_elapsed":464677,"internal_node_id":"0.0-93.0","task_version":"battery-v0.1"},{"rune":"T","hex":"#f73b6a7A","correct":32,"choice":-1,"rt":-1,"accuracy":0,"outcome":"-10","keys":[],"total_keys":0,"block":1,"trial":92,"robot":3,"valence":"lose","action":"go","sham":0,"trial_type":"pit-trial","trial_index":105,"time_elapsed":468679,"internal_node_id":"0.0-94.0","task_version":"battery-v0.1"},{"rune":"T","hex":"#f73b6a7A","correct":32,"choice":-1,"rt":-1,"accuracy":0,"outcome":"-10","keys":[],"total_keys":0,"block":1,"trial":93,"robot":3,"valence":"lose","action":"go","sham":0,"trial_type":"pit-trial","trial_index":106,"time_elapsed":472682,"internal_node_id":"0.0-95.0","task_version":"battery-v0.1"},{"rune":"M","hex":"#f73b6a7A","correct":-1,"choice":-1,"rt":-1,"accuracy":1,"outcome":"-1","keys":[],"total_keys":0,"block":1,"trial":94,"robot":4,"valence":"lose","action":"no-go","sham":0,"trial_type":"pit-trial","trial_index":107,"time_elapsed":476686,"internal_node_id":"0.0-96.0","task_version":"battery-v0.1"},{"rune":"C","hex":"#f73b6a7A","correct":32,"choice":-1,"rt":-1,"accuracy":0,"outcome":"-10","keys":[],"total_keys":0,"block":1,"trial":95,"robot":3,"valence":"lose","action":"go","sham":0,"trial_type":"pit-trial","trial_index":108,"time_elapsed":480689,"internal_node_id":"0.0-97.0","task_version":"battery-v0.1"},{"rune":"Q","hex":"#3366ff99","correct":-1,"choice":32,"rt":306.9200003519654,"accuracy":0,"outcome":"+10","keys":[1807.3899997398257],"total_keys":1,"block":1,"trial":96,"robot":2,"valence":"win","action":"no-go","sham":1,"trial_type":"pit-trial","trial_index":109,"time_elapsed":483699,"internal_node_id":"0.0-98.0","task_version":"battery-v0.1"},{"rune":"Q","hex":"#3366ff99","correct":-1,"choice":32,"rt":416.0299999639392,"accuracy":0,"outcome":"+10","keys":[1917.2099996358156],"total_keys":1,"block":1,"trial":97,"robot":2,"valence":"win","action":"no-go","sham":1,"trial_type":"pit-trial","trial_index":110,"time_elapsed":486819,"internal_node_id":"0.0-99.0","task_version":"battery-v0.1"},{"rune":"C","hex":"#f73b6a7A","correct":32,"choice":-1,"rt":-1,"accuracy":0,"outcome":"-1","keys":[],"total_keys":0,"block":1,"trial":98,"robot":3,"valence":"lose","action":"go","sham":1,"trial_type":"pit-trial","trial_index":111,"time_elapsed":490822,"internal_node_id":"0.0-100.0","task_version":"battery-v0.1"},{"rune":"M","hex":"#f73b6a7A","correct":-1,"choice":-1,"rt":-1,"accuracy":1,"outcome":"-1","keys":[],"total_keys":0,"block":1,"trial":99,"robot":4,"valence":"lose","action":"no-go","sham":0,"trial_type":"pit-trial","trial_index":112,"time_elapsed":494826,"internal_node_id":"0.0-101.0","task_version":"battery-v0.1"},{"rune":"T","hex":"#f73b6a7A","correct":32,"choice":-1,"rt":-1,"accuracy":0,"outcome":"-10","keys":[],"total_keys":0,"block":1,"trial":100,"robot":3,"valence":"lose","action":"go","sham":0,"trial_type":"pit-trial","trial_index":113,"time_elapsed":498829,"internal_node_id":"0.0-102.0","task_version":"battery-v0.1"},{"rune":"M","hex":"#f73b6a7A","correct":-1,"choice":-1,"rt":-1,"accuracy":1,"outcome":"-10","keys":[],"total_keys":0,"block":1,"trial":101,"robot":4,"valence":"lose","action":"no-go","sham":1,"trial_type":"pit-trial","trial_index":114,"time_elapsed":502832,"internal_node_id":"0.0-103.0","task_version":"battery-v0.1"},{"rune":"Q","hex":"#3366ff99","correct":-1,"choice":32,"rt":364.01000060141087,"accuracy":0,"outcome":"+1","keys":[1864.2100002616644],"total_keys":1,"block":1,"trial":102,"robot":2,"valence":"win","action":"no-go","sham":0,"trial_type":"pit-trial","trial_index":115,"time_elapsed":505898,"internal_node_id":"0.0-104.0","task_version":"battery-v0.1"},{"rune":"C","hex":"#f73b6a7A","correct":32,"choice":-1,"rt":-1,"accuracy":0,"outcome":"-10","keys":[],"total_keys":0,"block":1,"trial":103,"robot":3,"valence":"lose","action":"go","sham":0,"trial_type":"pit-trial","trial_index":116,"time_elapsed":509902,"internal_node_id":"0.0-105.0","task_version":"battery-v0.1"},{"rune":"T","hex":"#f73b6a7A","correct":32,"choice":32,"rt":278.2899998128414,"accuracy":1,"outcome":"-1","keys":[1778.3999992534518],"total_keys":1,"block":1,"trial":104,"robot":3,"valence":"lose","action":"go","sham":0,"trial_type":"pit-trial","trial_index":117,"time_elapsed":512884,"internal_node_id":"0.0-106.0","task_version":"battery-v0.1"},{"rune":"M","hex":"#f73b6a7A","correct":-1,"choice":-1,"rt":-1,"accuracy":1,"outcome":"-1","keys":[],"total_keys":0,"block":1,"trial":105,"robot":4,"valence":"lose","action":"no-go","sham":0,"trial_type":"pit-trial","trial_index":118,"time_elapsed":516887,"internal_node_id":"0.0-107.0","task_version":"battery-v0.1"},{"rune":"Q","hex":"#3366ff99","correct":-1,"choice":32,"rt":388.98999989032745,"accuracy":0,"outcome":"+10","keys":[1889.835000038147],"total_keys":1,"block":1,"trial":106,"robot":2,"valence":"win","action":"no-go","sham":1,"trial_type":"pit-trial","trial_index":119,"time_elapsed":519980,"internal_node_id":"0.0-108.0","task_version":"battery-v0.1"},{"rune":"C","hex":"#f73b6a7A","correct":32,"choice":-1,"rt":-1,"accuracy":0,"outcome":"-10","keys":[],"total_keys":0,"block":1,"trial":107,"robot":3,"valence":"lose","action":"go","sham":0,"trial_type":"pit-trial","trial_index":120,"time_elapsed":523983,"internal_node_id":"0.0-109.0","task_version":"battery-v0.1"},{"rune":"T","hex":"#f73b6a7A","correct":32,"choice":-1,"rt":-1,"accuracy":0,"outcome":"-10","keys":[],"total_keys":0,"block":1,"trial":108,"robot":3,"valence":"lose","action":"go","sham":0,"trial_type":"pit-trial","trial_index":121,"time_elapsed":527986,"internal_node_id":"0.0-110.0","task_version":"battery-v0.1"},{"rune":"Q","hex":"#3366ff99","correct":-1,"choice":32,"rt":993.6649994924664,"accuracy":0,"outcome":"+1","keys":[2494.7700006887317],"total_keys":1,"block":1,"trial":109,"robot":2,"valence":"win","action":"no-go","sham":0,"trial_type":"pit-trial","trial_index":122,"time_elapsed":531683,"internal_node_id":"0.0-111.0","task_version":"battery-v0.1"},{"rune":"M","hex":"#f73b6a7A","correct":-1,"choice":-1,"rt":-1,"accuracy":1,"outcome":"-10","keys":[],"total_keys":0,"block":1,"trial":110,"robot":4,"valence":"lose","action":"no-go","sham":1,"trial_type":"pit-trial","trial_index":123,"time_elapsed":535686,"internal_node_id":"0.0-112.0","task_version":"battery-v0.1"},{"rune":"C","hex":"#f73b6a7A","correct":32,"choice":-1,"rt":-1,"accuracy":0,"outcome":"-10","keys":[],"total_keys":0,"block":1,"trial":111,"robot":3,"valence":"lose","action":"go","sham":0,"trial_type":"pit-trial","trial_index":124,"time_elapsed":539689,"internal_node_id":"0.0-113.0","task_version":"battery-v0.1"},{"rune":"T","hex":"#f73b6a7A","correct":32,"choice":32,"rt":962.9899999126792,"accuracy":1,"outcome":"-1","keys":[2463.840000331402],"total_keys":1,"block":1,"trial":112,"robot":3,"valence":"lose","action":"go","sham":0,"trial_type":"pit-trial","trial_index":125,"time_elapsed":543356,"internal_node_id":"0.0-114.0","task_version":"battery-v0.1"},{"rune":"M","hex":"#f73b6a7A","correct":-1,"choice":32,"rt":896.7850003391504,"accuracy":0,"outcome":"-10","keys":[2397.245000116527],"total_keys":1,"block":1,"trial":113,"robot":4,"valence":"lose","action":"no-go","sham":0,"trial_type":"pit-trial","trial_index":126,"time_elapsed":546956,"internal_node_id":"0.0-115.0","task_version":"battery-v0.1"},{"rune":"T","hex":"#f73b6a7A","correct":32,"choice":-1,"rt":-1,"accuracy":0,"outcome":"-10","keys":[],"total_keys":0,"block":1,"trial":114,"robot":3,"valence":"lose","action":"go","sham":0,"trial_type":"pit-trial","trial_index":127,"time_elapsed":550959,"internal_node_id":"0.0-116.0","task_version":"battery-v0.1"},{"rune":"C","hex":"#f73b6a7A","correct":32,"choice":32,"rt":268.98999977856874,"accuracy":1,"outcome":"-1","keys":[1769.5549996569753],"total_keys":1,"block":1,"trial":115,"robot":3,"valence":"lose","action":"go","sham":0,"trial_type":"pit-trial","trial_index":128,"time_elapsed":553931,"internal_node_id":"0.0-117.0","task_version":"battery-v0.1"},{"rune":"Q","hex":"#3366ff99","correct":-1,"choice":-1,"rt":-1,"accuracy":1,"outcome":"+10","keys":[],"total_keys":0,"block":1,"trial":116,"robot":2,"valence":"win","action":"no-go","sham":0,"trial_type":"pit-trial","trial_index":129,"time_elapsed":557934,"internal_node_id":"0.0-118.0","task_version":"battery-v0.1"},{"rune":"M","hex":"#f73b6a7A","correct":-1,"choice":-1,"rt":-1,"accuracy":1,"outcome":"-1","keys":[],"total_keys":0,"block":1,"trial":117,"robot":4,"valence":"lose","action":"no-go","sham":0,"trial_type":"pit-trial","trial_index":130,"time_elapsed":561937,"internal_node_id":"0.0-119.0","task_version":"battery-v0.1"},{"rune":"T","hex":"#f73b6a7A","correct":32,"choice":-1,"rt":-1,"accuracy":0,"outcome":"-1","keys":[],"total_keys":0,"block":1,"trial":118,"robot":3,"valence":"lose","action":"go","sham":1,"trial_type":"pit-trial","trial_index":131,"time_elapsed":565941,"internal_node_id":"0.0-120.0","task_version":"battery-v0.1"},{"rune":"C","hex":"#f73b6a7A","correct":32,"choice":-1,"rt":-1,"accuracy":0,"outcome":"-10","keys":[],"total_keys":0,"block":1,"trial":119,"robot":3,"valence":"lose","action":"go","sham":0,"trial_type":"pit-trial","trial_index":132,"time_elapsed":569944,"internal_node_id":"0.0-121.0","task_version":"battery-v0.1"},{"rune":"Q","hex":"#3366ff99","correct":-1,"choice":32,"rt":412.6900006085634,"accuracy":0,"outcome":"+10","keys":[1913.2449999451637],"total_keys":1,"block":1,"trial":120,"robot":2,"valence":"win","action":"no-go","sham":1,"trial_type":"pit-trial","trial_index":133,"time_elapsed":573060,"internal_node_id":"0.0-122.0","task_version":"battery-v0.1"},{"view_history":"[{\"page_index\":0,\"viewing_time\":233505.8150002733},{\"page_index\":1,\"viewing_time\":3285.744999535382}]","rt":236792.16499999166,"trial_type":"pit-instructions","trial_index":134,"time_elapsed":809857,"internal_node_id":"0.0-123.0","task_version":"battery-v0.1"},{"rune":"S","hex":"#3366ff99","correct":32,"choice":32,"rt":578.3400004729629,"accuracy":1,"outcome":"+10","keys":[2078.385000117123],"total_keys":1,"block":2,"trial":121,"robot":1,"valence":"win","action":"go","sham":0,"trial_type":"pit-trial","trial_index":135,"time_elapsed":813141,"internal_node_id":"0.0-124.0","task_version":"battery-v0.1"},{"rune":"L","hex":"#f73b6a7A","correct":-1,"choice":-1,"rt":-1,"accuracy":1,"outcome":"-10","keys":[],"total_keys":0,"block":2,"trial":122,"robot":4,"valence":"lose","action":"no-go","sham":1,"trial_type":"pit-trial","trial_index":136,"time_elapsed":817144,"internal_node_id":"0.0-125.0","task_version":"battery-v0.1"},{"rune":"Y","hex":"#3366ff99","correct":-1,"choice":32,"rt":389.7000001743436,"accuracy":0,"outcome":"+1","keys":[1890.1650002226233],"total_keys":1,"block":2,"trial":123,"robot":2,"valence":"win","action":"no-go","sham":0,"trial_type":"pit-trial","trial_index":137,"time_elapsed":820236,"internal_node_id":"0.0-126.0","task_version":"battery-v0.1"},{"rune":"H","hex":"#f73b6a7A","correct":-1,"choice":32,"rt":857.3399996384978,"accuracy":0,"outcome":"-10","keys":[2358.035000041127],"total_keys":1,"block":2,"trial":124,"robot":4,"valence":"lose","action":"no-go","sham":0,"trial_type":"pit-trial","trial_index":138,"time_elapsed":824298,"internal_node_id":"0.0-127.0","task_version":"battery-v0.1"},{"rune":"S","hex":"#3366ff99","correct":32,"choice":-1,"rt":-1,"accuracy":0,"outcome":"+1","keys":[3263.5900005698204],"total_keys":1,"block":2,"trial":125,"robot":1,"valence":"win","action":"go","sham":0,"trial_type":"pit-trial","trial_index":139,"time_elapsed":828301,"internal_node_id":"0.0-128.0","task_version":"battery-v0.1"},{"rune":"L","hex":"#f73b6a7A","correct":-1,"choice":32,"rt":696.2099997326732,"accuracy":0,"outcome":"-10","keys":[2197.1900006756186],"total_keys":1,"block":2,"trial":126,"robot":4,"valence":"lose","action":"no-go","sham":0,"trial_type":"pit-trial","trial_index":140,"time_elapsed":831700,"internal_node_id":"0.0-129.0","task_version":"battery-v0.1"},{"rune":"Y","hex":"#3366ff99","correct":-1,"choice":32,"rt":593.5300001874566,"accuracy":0,"outcome":"+1","keys":[2093.8050001859665],"total_keys":1,"block":2,"trial":127,"robot":2,"valence":"win","action":"no-go","sham":0,"trial_type":"pit-trial","trial_index":141,"time_elapsed":834996,"internal_node_id":"0.0-130.0","task_version":"battery-v0.1"},{"rune":"H","hex":"#f73b6a7A","correct":-1,"choice":32,"rt":736.8050003424287,"accuracy":0,"outcome":"-10","keys":[2237.7149993553758],"total_keys":1,"block":2,"trial":128,"robot":4,"valence":"lose","action":"no-go","sham":0,"trial_type":"pit-trial","trial_index":142,"time_elapsed":838436,"internal_node_id":"0.0-131.0","task_version":"battery-v0.1"},{"rune":"L","hex":"#f73b6a7A","correct":-1,"choice":32,"rt":769.1949997097254,"accuracy":0,"outcome":"-10","keys":[1469.2350002005696,2269.589999690652],"total_keys":2,"block":2,"trial":129,"robot":4,"valence":"lose","action":"no-go","sham":0,"trial_type":"pit-trial","trial_index":143,"time_elapsed":841909,"internal_node_id":"0.0-132.0","task_version":"battery-v0.1"},{"rune":"Y","hex":"#3366ff99","correct":-1,"choice":32,"rt":608.3849994465709,"accuracy":0,"outcome":"+1","keys":[2108.839999884367],"total_keys":1,"block":2,"trial":130,"robot":2,"valence":"win","action":"no-go","sham":0,"trial_type":"pit-trial","trial_index":144,"time_elapsed":845220,"internal_node_id":"0.0-133.0","task_version":"battery-v0.1"},{"rune":"H","hex":"#f73b6a7A","correct":-1,"choice":-1,"rt":-1,"accuracy":1,"outcome":"-1","keys":[],"total_keys":0,"block":2,"trial":131,"robot":4,"valence":"lose","action":"no-go","sham":0,"trial_type":"pit-trial","trial_index":145,"time_elapsed":849222,"internal_node_id":"0.0-134.0","task_version":"battery-v0.1"},{"rune":"S","hex":"#3366ff99","correct":32,"choice":32,"rt":550.6349997594953,"accuracy":1,"outcome":"+1","keys":[2051.2450002133846],"total_keys":1,"block":2,"trial":132,"robot":1,"valence":"win","action":"go","sham":1,"trial_type":"pit-trial","trial_index":146,"time_elapsed":852476,"internal_node_id":"0.0-135.0","task_version":"battery-v0.1"},{"rune":"L","hex":"#f73b6a7A","correct":-1,"choice":32,"rt":808.3250001072884,"accuracy":0,"outcome":"-10","keys":[2308.830000460148],"total_keys":1,"block":2,"trial":133,"robot":4,"valence":"lose","action":"no-go","sham":0,"trial_type":"pit-trial","trial_index":147,"time_elapsed":855987,"internal_node_id":"0.0-136.0","task_version":"battery-v0.1"},{"rune":"Y","hex":"#3366ff99","correct":-1,"choice":32,"rt":361.65499966591597,"accuracy":0,"outcome":"+1","keys":[1861.7500001564622],"total_keys":1,"block":2,"trial":134,"robot":2,"valence":"win","action":"no-go","sham":0,"trial_type":"pit-trial","trial_index":148,"time_elapsed":859052,"internal_node_id":"0.0-137.0","task_version":"battery-v0.1"},{"rune":"S","hex":"#3366ff99","correct":32,"choice":32,"rt":425.224999897182,"accuracy":1,"outcome":"+1","keys":[1925.8000003173947],"total_keys":1,"block":2,"trial":135,"robot":1,"valence":"win","action":"go","sham":1,"trial_type":"pit-trial","trial_index":149,"time_elapsed":862181,"internal_node_id":"0.0-138.0","task_version":"battery-v0.1"},{"rune":"H","hex":"#f73b6a7A","correct":-1,"choice":-1,"rt":-1,"accuracy":1,"outcome":"-1","keys":[],"total_keys":0,"block":2,"trial":136,"robot":4,"valence":"lose","action":"no-go","sham":0,"trial_type":"pit-trial","trial_index":150,"time_elapsed":866184,"internal_node_id":"0.0-139.0","task_version":"battery-v0.1"},{"rune":"S","hex":"#3366ff99","correct":32,"choice":32,"rt":516.3199994713068,"accuracy":1,"outcome":"+10","keys":[2016.4549993351102],"total_keys":1,"block":2,"trial":137,"robot":1,"valence":"win","action":"go","sham":0,"trial_type":"pit-trial","trial_index":151,"time_elapsed":869405,"internal_node_id":"0.0-140.0","task_version":"battery-v0.1"},{"rune":"L","hex":"#f73b6a7A","correct":-1,"choice":-1,"rt":-1,"accuracy":1,"outcome":"-1","keys":[],"total_keys":0,"block":2,"trial":138,"robot":4,"valence":"lose","action":"no-go","sham":0,"trial_type":"pit-trial","trial_index":152,"time_elapsed":873408,"internal_node_id":"0.0-141.0","task_version":"battery-v0.1"},{"rune":"H","hex":"#f73b6a7A","correct":-1,"choice":32,"rt":789.8300001397729,"accuracy":0,"outcome":"-10","keys":[2290.0499999523163],"total_keys":1,"block":2,"trial":139,"robot":4,"valence":"lose","action":"no-go","sham":0,"trial_type":"pit-trial","trial_index":153,"time_elapsed":876901,"internal_node_id":"0.0-142.0","task_version":"battery-v0.1"},{"rune":"Y","hex":"#3366ff99","correct":-1,"choice":32,"rt":457.1249997243285,"accuracy":0,"outcome":"+1","keys":[1957.604999653995],"total_keys":1,"block":2,"trial":140,"robot":2,"valence":"win","action":"no-go","sham":0,"trial_type":"pit-trial","trial_index":154,"time_elapsed":880061,"internal_node_id":"0.0-143.0","task_version":"battery-v0.1"},{"rune":"L","hex":"#f73b6a7A","correct":-1,"choice":-1,"rt":-1,"accuracy":1,"outcome":"-1","keys":[],"total_keys":0,"block":2,"trial":141,"robot":4,"valence":"lose","action":"no-go","sham":0,"trial_type":"pit-trial","trial_index":155,"time_elapsed":884064,"internal_node_id":"0.0-144.0","task_version":"battery-v0.1"},{"rune":"H","hex":"#f73b6a7A","correct":-1,"choice":-1,"rt":-1,"accuracy":1,"outcome":"-1","keys":[],"total_keys":0,"block":2,"trial":142,"robot":4,"valence":"lose","action":"no-go","sham":0,"trial_type":"pit-trial","trial_index":156,"time_elapsed":888068,"internal_node_id":"0.0-145.0","task_version":"battery-v0.1"},{"rune":"S","hex":"#3366ff99","correct":32,"choice":32,"rt":426.74999963492155,"accuracy":1,"outcome":"+10","keys":[1927.1400002762675],"total_keys":1,"block":2,"trial":143,"robot":1,"valence":"win","action":"go","sham":0,"trial_type":"pit-trial","trial_index":157,"time_elapsed":891197,"internal_node_id":"0.0-146.0","task_version":"battery-v0.1"},{"rune":"Y","hex":"#3366ff99","correct":-1,"choice":32,"rt":511.56000047922134,"accuracy":0,"outcome":"+1","keys":[2013.0499992519617],"total_keys":1,"block":2,"trial":144,"robot":2,"valence":"win","action":"no-go","sham":0,"trial_type":"pit-trial","trial_index":158,"time_elapsed":894412,"internal_node_id":"0.0-147.0","task_version":"battery-v0.1"},{"rune":"Y","hex":"#3366ff99","correct":-1,"choice":32,"rt":464.87999986857176,"accuracy":0,"outcome":"+1","keys":[1965.909999795258],"total_keys":1,"block":2,"trial":145,"robot":2,"valence":"win","action":"no-go","sham":0,"trial_type":"pit-trial","trial_index":159,"time_elapsed":897581,"internal_node_id":"0.0-148.0","task_version":"battery-v0.1"},{"rune":"L","hex":"#f73b6a7A","correct":-1,"choice":-1,"rt":-1,"accuracy":1,"outcome":"-1","keys":[],"total_keys":0,"block":2,"trial":146,"robot":4,"valence":"lose","action":"no-go","sham":0,"trial_type":"pit-trial","trial_index":160,"time_elapsed":901583,"internal_node_id":"0.0-149.0","task_version":"battery-v0.1"},{"rune":"H","hex":"#f73b6a7A","correct":-1,"choice":32,"rt":774.1650007665157,"accuracy":0,"outcome":"-10","keys":[2274.725000374019],"total_keys":1,"block":2,"trial":147,"robot":4,"valence":"lose","action":"no-go","sham":0,"trial_type":"pit-trial","trial_index":161,"time_elapsed":905060,"internal_node_id":"0.0-150.0","task_version":"battery-v0.1"},{"rune":"S","hex":"#3366ff99","correct":32,"choice":32,"rt":657.5450003147125,"accuracy":1,"outcome":"+10","keys":[1453.6049999296665,2157.6249999925494],"total_keys":2,"block":2,"trial":148,"robot":1,"valence":"win","action":"go","sham":0,"trial_type":"pit-trial","trial_index":162,"time_elapsed":908421,"internal_node_id":"0.0-151.0","task_version":"battery-v0.1"},{"rune":"H","hex":"#f73b6a7A","correct":-1,"choice":-1,"rt":-1,"accuracy":1,"outcome":"-1","keys":[],"total_keys":0,"block":2,"trial":149,"robot":4,"valence":"lose","action":"no-go","sham":0,"trial_type":"pit-trial","trial_index":163,"time_elapsed":912424,"internal_node_id":"0.0-152.0","task_version":"battery-v0.1"},{"rune":"L","hex":"#f73b6a7A","correct":-1,"choice":32,"rt":837.8550000488758,"accuracy":0,"outcome":"-1","keys":[2338.050000369549],"total_keys":1,"block":2,"trial":150,"robot":4,"valence":"lose","action":"no-go","sham":1,"trial_type":"pit-trial","trial_index":164,"time_elapsed":915965,"internal_node_id":"0.0-153.0","task_version":"battery-v0.1"},{"rune":"Y","hex":"#3366ff99","correct":-1,"choice":32,"rt":575.7650006562471,"accuracy":0,"outcome":"+1","keys":[2076.845000497997],"total_keys":1,"block":2,"trial":151,"robot":2,"valence":"win","action":"no-go","sham":0,"trial_type":"pit-trial","trial_index":165,"time_elapsed":919244,"internal_node_id":"0.0-154.0","task_version":"battery-v0.1"},{"rune":"S","hex":"#3366ff99","correct":32,"choice":32,"rt":489.21999987214804,"accuracy":1,"outcome":"+10","keys":[1989.5249996334314],"total_keys":1,"block":2,"trial":152,"robot":1,"valence":"win","action":"go","sham":0,"trial_type":"pit-trial","trial_index":166,"time_elapsed":922437,"internal_node_id":"0.0-155.0","task_version":"battery-v0.1"},{"rune":"H","hex":"#f73b6a7A","correct":-1,"choice":32,"rt":1080.469999462366,"accuracy":0,"outcome":"-10","keys":[2581.355000846088],"total_keys":1,"block":2,"trial":153,"robot":4,"valence":"lose","action":"no-go","sham":0,"trial_type":"pit-trial","trial_index":167,"time_elapsed":926221,"internal_node_id":"0.0-156.0","task_version":"battery-v0.1"},{"rune":"S","hex":"#3366ff99","correct":32,"choice":32,"rt":625.6100004538894,"accuracy":1,"outcome":"+10","keys":[1493.9000001177192,2126.0799998417497],"total_keys":2,"block":2,"trial":154,"robot":1,"valence":"win","action":"go","sham":0,"trial_type":"pit-trial","trial_index":168,"time_elapsed":929549,"internal_node_id":"0.0-157.0","task_version":"battery-v0.1"},{"rune":"R","hex":"#f73b6a7A","correct":32,"choice":-1,"rt":-1,"accuracy":0,"outcome":"-10","keys":[],"total_keys":0,"block":2,"trial":155,"robot":3,"valence":"lose","action":"go","sham":0,"trial_type":"pit-trial","trial_index":169,"time_elapsed":933551,"internal_node_id":"0.0-158.0","task_version":"battery-v0.1"},{"rune":"Y","hex":"#3366ff99","correct":-1,"choice":32,"rt":279.38499953597784,"accuracy":0,"outcome":"+1","keys":[1779.4449999928474],"total_keys":1,"block":2,"trial":156,"robot":2,"valence":"win","action":"no-go","sham":0,"trial_type":"pit-trial","trial_index":170,"time_elapsed":936533,"internal_node_id":"0.0-159.0","task_version":"battery-v0.1"},{"rune":"R","hex":"#f73b6a7A","correct":32,"choice":32,"rt":737.0499996468425,"accuracy":1,"outcome":"-1","keys":[2237.5450003892183],"total_keys":1,"block":2,"trial":157,"robot":3,"valence":"lose","action":"go","sham":0,"trial_type":"pit-trial","trial_index":171,"time_elapsed":939974,"internal_node_id":"0.0-160.0","task_version":"battery-v0.1"},{"rune":"S","hex":"#3366ff99","correct":32,"choice":32,"rt":568.7600001692772,"accuracy":1,"outcome":"+1","keys":[2068.8249999657273],"total_keys":1,"block":2,"trial":158,"robot":1,"valence":"win","action":"go","sham":1,"trial_type":"pit-trial","trial_index":172,"time_elapsed":943246,"internal_node_id":"0.0-161.0","task_version":"battery-v0.1"},{"rune":"Y","hex":"#3366ff99","correct":-1,"choice":32,"rt":639.8950004950166,"accuracy":0,"outcome":"+1","keys":[2140.8050004392862],"total_keys":1,"block":2,"trial":159,"robot":2,"valence":"win","action":"no-go","sham":0,"trial_type":"pit-trial","trial_index":173,"time_elapsed":946589,"internal_node_id":"0.0-162.0","task_version":"battery-v0.1"},{"rune":"H","hex":"#f73b6a7A","correct":-1,"choice":-1,"rt":-1,"accuracy":1,"outcome":"-1","keys":[],"total_keys":0,"block":2,"trial":160,"robot":4,"valence":"lose","action":"no-go","sham":0,"trial_type":"pit-trial","trial_index":174,"time_elapsed":950592,"internal_node_id":"0.0-163.0","task_version":"battery-v0.1"},{"rune":"H","hex":"#f73b6a7A","correct":-1,"choice":-1,"rt":-1,"accuracy":1,"outcome":"-1","keys":[],"total_keys":0,"block":2,"trial":161,"robot":4,"valence":"lose","action":"no-go","sham":0,"trial_type":"pit-trial","trial_index":175,"time_elapsed":954595,"internal_node_id":"0.0-164.0","task_version":"battery-v0.1"},{"rune":"K","hex":"#3366ff99","correct":-1,"choice":-1,"rt":-1,"accuracy":1,"outcome":"+1","keys":[],"total_keys":0,"block":2,"trial":162,"robot":2,"valence":"win","action":"no-go","sham":1,"trial_type":"pit-trial","trial_index":176,"time_elapsed":958598,"internal_node_id":"0.0-165.0","task_version":"battery-v0.1"},{"rune":"D","hex":"#3366ff99","correct":32,"choice":32,"rt":464.6299993619323,"accuracy":1,"outcome":"+10","keys":[1964.8600006476045],"total_keys":1,"block":2,"trial":163,"robot":1,"valence":"win","action":"go","sham":0,"trial_type":"pit-trial","trial_index":177,"time_elapsed":961765,"internal_node_id":"0.0-166.0","task_version":"battery-v0.1"},{"rune":"R","hex":"#f73b6a7A","correct":32,"choice":-1,"rt":-1,"accuracy":0,"outcome":"-10","keys":[],"total_keys":0,"block":2,"trial":164,"robot":3,"valence":"lose","action":"go","sham":0,"trial_type":"pit-trial","trial_index":178,"time_elapsed":965769,"internal_node_id":"0.0-167.0","task_version":"battery-v0.1"},{"rune":"D","hex":"#3366ff99","correct":32,"choice":32,"rt":365.1850000023842,"accuracy":1,"outcome":"+10","keys":[1865.5300000682473],"total_keys":1,"block":2,"trial":165,"robot":1,"valence":"win","action":"go","sham":0,"trial_type":"pit-trial","trial_index":179,"time_elapsed":968837,"internal_node_id":"0.0-168.0","task_version":"battery-v0.1"},{"rune":"H","hex":"#f73b6a7A","correct":-1,"choice":-1,"rt":-1,"accuracy":1,"outcome":"-1","keys":[],"total_keys":0,"block":2,"trial":166,"robot":4,"valence":"lose","action":"no-go","sham":0,"trial_type":"pit-trial","trial_index":180,"time_elapsed":972841,"internal_node_id":"0.0-169.0","task_version":"battery-v0.1"},{"rune":"K","hex":"#3366ff99","correct":-1,"choice":-1,"rt":-1,"accuracy":1,"outcome":"+1","keys":[2897.049999795854],"total_keys":1,"block":2,"trial":167,"robot":2,"valence":"win","action":"no-go","sham":1,"trial_type":"pit-trial","trial_index":181,"time_elapsed":976845,"internal_node_id":"0.0-170.0","task_version":"battery-v0.1"},{"rune":"R","hex":"#f73b6a7A","correct":32,"choice":-1,"rt":-1,"accuracy":0,"outcome":"-10","keys":[],"total_keys":0,"block":2,"trial":168,"robot":3,"valence":"lose","action":"go","sham":0,"trial_type":"pit-trial","trial_index":182,"time_elapsed":980848,"internal_node_id":"0.0-171.0","task_version":"battery-v0.1"},{"rune":"R","hex":"#f73b6a7A","correct":32,"choice":-1,"rt":-1,"accuracy":0,"outcome":"-10","keys":[],"total_keys":0,"block":2,"trial":169,"robot":3,"valence":"lose","action":"go","sham":0,"trial_type":"pit-trial","trial_index":183,"time_elapsed":984851,"internal_node_id":"0.0-172.0","task_version":"battery-v0.1"},{"rune":"D","hex":"#3366ff99","correct":32,"choice":32,"rt":659.1149996966124,"accuracy":1,"outcome":"+10","keys":[2159.7199998795986],"total_keys":1,"block":2,"trial":170,"robot":1,"valence":"win","action":"go","sham":0,"trial_type":"pit-trial","trial_index":184,"time_elapsed":988213,"internal_node_id":"0.0-173.0","task_version":"battery-v0.1"},{"rune":"J","hex":"#f73b6a7A","correct":-1,"choice":32,"rt":760.8899995684624,"accuracy":0,"outcome":"-1","keys":[2261.739999987185],"total_keys":1,"block":2,"trial":171,"robot":4,"valence":"lose","action":"no-go","sham":1,"trial_type":"pit-trial","trial_index":185,"time_elapsed":991678,"internal_node_id":"0.0-174.0","task_version":"battery-v0.1"},{"rune":"K","hex":"#3366ff99","correct":-1,"choice":32,"rt":520.0449991971254,"accuracy":0,"outcome":"+1","keys":[2020.659999921918],"total_keys":1,"block":2,"trial":172,"robot":2,"valence":"win","action":"no-go","sham":0,"trial_type":"pit-trial","trial_index":186,"time_elapsed":994901,"internal_node_id":"0.0-175.0","task_version":"battery-v0.1"},{"rune":"D","hex":"#3366ff99","correct":32,"choice":32,"rt":489.2899999395013,"accuracy":1,"outcome":"+10","keys":[1989.9850003421307],"total_keys":1,"block":2,"trial":173,"robot":1,"valence":"win","action":"go","sham":0,"trial_type":"pit-trial","trial_index":187,"time_elapsed":998093,"internal_node_id":"0.0-176.0","task_version":"battery-v0.1"},{"rune":"R","hex":"#f73b6a7A","correct":32,"choice":-1,"rt":-1,"accuracy":0,"outcome":"-10","keys":[],"total_keys":0,"block":2,"trial":174,"robot":3,"valence":"lose","action":"go","sham":0,"trial_type":"pit-trial","trial_index":188,"time_elapsed":1002097,"internal_node_id":"0.0-177.0","task_version":"battery-v0.1"},{"rune":"J","hex":"#f73b6a7A","correct":-1,"choice":32,"rt":21.47000003606081,"accuracy":0,"outcome":"-10","keys":[1521.8750005587935],"total_keys":1,"block":2,"trial":175,"robot":4,"valence":"lose","action":"no-go","sham":0,"trial_type":"pit-trial","trial_index":189,"time_elapsed":1004821,"internal_node_id":"0.0-178.0","task_version":"battery-v0.1"},{"rune":"K","hex":"#3366ff99","correct":-1,"choice":32,"rt":641.6650004684925,"accuracy":0,"outcome":"+10","keys":[2142.1050000935793],"total_keys":1,"block":2,"trial":176,"robot":2,"valence":"win","action":"no-go","sham":1,"trial_type":"pit-trial","trial_index":190,"time_elapsed":1008165,"internal_node_id":"0.0-179.0","task_version":"battery-v0.1"},{"rune":"J","hex":"#f73b6a7A","correct":-1,"choice":-1,"rt":-1,"accuracy":1,"outcome":"-1","keys":[],"total_keys":0,"block":2,"trial":177,"robot":4,"valence":"lose","action":"no-go","sham":0,"trial_type":"pit-trial","trial_index":191,"time_elapsed":1012169,"internal_node_id":"0.0-180.0","task_version":"battery-v0.1"},{"rune":"R","hex":"#f73b6a7A","correct":32,"choice":32,"rt":973.5249998047948,"accuracy":1,"outcome":"-1","keys":[1305.6399999186397,2473.594999872148],"total_keys":2,"block":2,"trial":178,"robot":3,"valence":"lose","action":"go","sham":0,"trial_type":"pit-trial","trial_index":192,"time_elapsed":1015845,"internal_node_id":"0.0-181.0","task_version":"battery-v0.1"},{"rune":"D","hex":"#3366ff99","correct":32,"choice":32,"rt":640.2549995109439,"accuracy":1,"outcome":"+10","keys":[2141.695000231266],"total_keys":1,"block":2,"trial":179,"robot":1,"valence":"win","action":"go","sham":0,"trial_type":"pit-trial","trial_index":193,"time_elapsed":1019190,"internal_node_id":"0.0-182.0","task_version":"battery-v0.1"},{"rune":"K","hex":"#3366ff99","correct":-1,"choice":32,"rt":503.73500026762486,"accuracy":0,"outcome":"+1","keys":[2004.8699993640184],"total_keys":1,"block":2,"trial":180,"robot":2,"valence":"win","action":"no-go","sham":0,"trial_type":"pit-trial","trial_index":194,"time_elapsed":1022397,"internal_node_id":"0.0-183.0","task_version":"battery-v0.1"},{"rune":"K","hex":"#3366ff99","correct":-1,"choice":32,"rt":496.6449998319149,"accuracy":0,"outcome":"+1","keys":[1997.2749995067716],"total_keys":1,"block":2,"trial":181,"robot":2,"valence":"win","action":"no-go","sham":0,"trial_type":"pit-trial","trial_index":195,"time_elapsed":1025597,"internal_node_id":"0.0-184.0","task_version":"battery-v0.1"},{"rune":"J","hex":"#f73b6a7A","correct":-1,"choice":32,"rt":777.4149999022484,"accuracy":0,"outcome":"-10","keys":[2277.755000628531],"total_keys":1,"block":2,"trial":182,"robot":4,"valence":"lose","action":"no-go","sham":0,"trial_type":"pit-trial","trial_index":196,"time_elapsed":1029077,"internal_node_id":"0.0-185.0","task_version":"battery-v0.1"},{"rune":"R","hex":"#f73b6a7A","correct":32,"choice":-1,"rt":-1,"accuracy":0,"outcome":"-10","keys":[],"total_keys":0,"block":2,"trial":183,"robot":3,"valence":"lose","action":"go","sham":0,"trial_type":"pit-trial","trial_index":197,"time_elapsed":1033080,"internal_node_id":"0.0-186.0","task_version":"battery-v0.1"},{"rune":"D","hex":"#3366ff99","correct":32,"choice":32,"rt":429.75000012665987,"accuracy":1,"outcome":"+1","keys":[1930.2799999713898],"total_keys":1,"block":2,"trial":184,"robot":1,"valence":"win","action":"go","sham":1,"trial_type":"pit-trial","trial_index":198,"time_elapsed":1036213,"internal_node_id":"0.0-187.0","task_version":"battery-v0.1"},{"rune":"K","hex":"#3366ff99","correct":-1,"choice":32,"rt":608.6749993264675,"accuracy":0,"outcome":"+1","keys":[2109.745000489056],"total_keys":1,"block":2,"trial":185,"robot":2,"valence":"win","action":"no-go","sham":0,"trial_type":"pit-trial","trial_index":199,"time_elapsed":1039525,"internal_node_id":"0.0-188.0","task_version":"battery-v0.1"},{"rune":"R","hex":"#f73b6a7A","correct":32,"choice":-1,"rt":-1,"accuracy":0,"outcome":"-10","keys":[],"total_keys":0,"block":2,"trial":186,"robot":3,"valence":"lose","action":"go","sham":0,"trial_type":"pit-trial","trial_index":200,"time_elapsed":1043528,"internal_node_id":"0.0-189.0","task_version":"battery-v0.1"},{"rune":"J","hex":"#f73b6a7A","correct":-1,"choice":32,"rt":213.13499938696623,"accuracy":0,"outcome":"-10","keys":[1714.2099998891354],"total_keys":1,"block":2,"trial":187,"robot":4,"valence":"lose","action":"no-go","sham":0,"trial_type":"pit-trial","trial_index":201,"time_elapsed":1046445,"internal_node_id":"0.0-190.0","task_version":"battery-v0.1"},{"rune":"D","hex":"#3366ff99","correct":32,"choice":32,"rt":200.45500062406063,"accuracy":1,"outcome":"+1","keys":[1701.3199999928474],"total_keys":1,"block":2,"trial":188,"robot":1,"valence":"win","action":"go","sham":1,"trial_type":"pit-trial","trial_index":202,"time_elapsed":1049349,"internal_node_id":"0.0-191.0","task_version":"battery-v0.1"},{"rune":"K","hex":"#3366ff99","correct":-1,"choice":32,"rt":649.8100003227592,"accuracy":0,"outcome":"+1","keys":[2150.1749996095896],"total_keys":1,"block":2,"trial":189,"robot":2,"valence":"win","action":"no-go","sham":0,"trial_type":"pit-trial","trial_index":203,"time_elapsed":1052701,"internal_node_id":"0.0-192.0","task_version":"battery-v0.1"},{"rune":"D","hex":"#3366ff99","correct":32,"choice":32,"rt":681.4599996432662,"accuracy":1,"outcome":"+10","keys":[2181.630000472069],"total_keys":1,"block":2,"trial":190,"robot":1,"valence":"win","action":"go","sham":0,"trial_type":"pit-trial","trial_index":204,"time_elapsed":1056085,"internal_node_id":"0.0-193.0","task_version":"battery-v0.1"},{"rune":"J","hex":"#f73b6a7A","correct":-1,"choice":-1,"rt":-1,"accuracy":1,"outcome":"-1","keys":[],"total_keys":0,"block":2,"trial":191,"robot":4,"valence":"lose","action":"no-go","sham":0,"trial_type":"pit-trial","trial_index":205,"time_elapsed":1060089,"internal_node_id":"0.0-194.0","task_version":"battery-v0.1"},{"rune":"R","hex":"#f73b6a7A","correct":32,"choice":32,"rt":1028.7199998274446,"accuracy":1,"outcome":"-1","keys":[1433.1799997016788,2529.325000010431],"total_keys":2,"block":2,"trial":192,"robot":3,"valence":"lose","action":"go","sham":0,"trial_type":"pit-trial","trial_index":206,"time_elapsed":1063821,"internal_node_id":"0.0-195.0","task_version":"battery-v0.1"},{"rune":"K","hex":"#3366ff99","correct":-1,"choice":32,"rt":409.14000011980534,"accuracy":0,"outcome":"+1","keys":[1909.8199997097254],"total_keys":1,"block":2,"trial":193,"robot":2,"valence":"win","action":"no-go","sham":0,"trial_type":"pit-trial","trial_index":207,"time_elapsed":1066933,"internal_node_id":"0.0-196.0","task_version":"battery-v0.1"},{"rune":"J","hex":"#f73b6a7A","correct":-1,"choice":-1,"rt":-1,"accuracy":1,"outcome":"-1","keys":[],"total_keys":0,"block":2,"trial":194,"robot":4,"valence":"lose","action":"no-go","sham":0,"trial_type":"pit-trial","trial_index":208,"time_elapsed":1070937,"internal_node_id":"0.0-197.0","task_version":"battery-v0.1"},{"rune":"F","hex":"#f73b6a7A","correct":32,"choice":-1,"rt":-1,"accuracy":0,"outcome":"-10","keys":[],"total_keys":0,"block":2,"trial":195,"robot":3,"valence":"lose","action":"go","sham":0,"trial_type":"pit-trial","trial_index":209,"time_elapsed":1074940,"internal_node_id":"0.0-198.0","task_version":"battery-v0.1"},{"rune":"G","hex":"#3366ff99","correct":32,"choice":32,"rt":290.1699999347329,"accuracy":1,"outcome":"+10","keys":[1790.769999846816],"total_keys":1,"block":2,"trial":196,"robot":1,"valence":"win","action":"go","sham":0,"trial_type":"pit-trial","trial_index":210,"time_elapsed":1077933,"internal_node_id":"0.0-199.0","task_version":"battery-v0.1"},{"rune":"J","hex":"#f73b6a7A","correct":-1,"choice":-1,"rt":-1,"accuracy":1,"outcome":"-1","keys":[],"total_keys":0,"block":2,"trial":197,"robot":4,"valence":"lose","action":"no-go","sham":0,"trial_type":"pit-trial","trial_index":211,"time_elapsed":1081937,"internal_node_id":"0.0-200.0","task_version":"battery-v0.1"},{"rune":"K","hex":"#3366ff99","correct":-1,"choice":32,"rt":491.89000017941,"accuracy":0,"outcome":"+10","keys":[1992.934999987483],"total_keys":1,"block":2,"trial":198,"robot":2,"valence":"win","action":"no-go","sham":1,"trial_type":"pit-trial","trial_index":212,"time_elapsed":1085133,"internal_node_id":"0.0-201.0","task_version":"battery-v0.1"},{"rune":"F","hex":"#f73b6a7A","correct":32,"choice":-1,"rt":-1,"accuracy":0,"outcome":"-10","keys":[],"total_keys":0,"block":2,"trial":199,"robot":3,"valence":"lose","action":"go","sham":0,"trial_type":"pit-trial","trial_index":213,"time_elapsed":1089136,"internal_node_id":"0.0-202.0","task_version":"battery-v0.1"},{"rune":"G","hex":"#3366ff99","correct":32,"choice":32,"rt":221.99499979615211,"accuracy":1,"outcome":"+10","keys":[1722.2300004214048],"total_keys":1,"block":2,"trial":200,"robot":1,"valence":"win","action":"go","sham":0,"trial_type":"pit-trial","trial_index":214,"time_elapsed":1092061,"internal_node_id":"0.0-203.0","task_version":"battery-v0.1"},{"rune":"F","hex":"#f73b6a7A","correct":32,"choice":-1,"rt":-1,"accuracy":0,"outcome":"-10","keys":[],"total_keys":0,"block":2,"trial":201,"robot":3,"valence":"lose","action":"go","sham":0,"trial_type":"pit-trial","trial_index":215,"time_elapsed":1096064,"internal_node_id":"0.0-204.0","task_version":"battery-v0.1"},{"rune":"G","hex":"#3366ff99","correct":32,"choice":32,"rt":29.494999907910824,"accuracy":1,"outcome":"+10","keys":[1530.009999871254],"total_keys":1,"block":2,"trial":202,"robot":1,"valence":"win","action":"go","sham":0,"trial_type":"pit-trial","trial_index":216,"time_elapsed":1098796,"internal_node_id":"0.0-205.0","task_version":"battery-v0.1"},{"rune":"K","hex":"#3366ff99","correct":-1,"choice":32,"rt":552.3700006306171,"accuracy":0,"outcome":"+1","keys":[2053.6600006744266],"total_keys":1,"block":2,"trial":203,"robot":2,"valence":"win","action":"no-go","sham":0,"trial_type":"pit-trial","trial_index":217,"time_elapsed":1102053,"internal_node_id":"0.0-206.0","task_version":"battery-v0.1"},{"rune":"J","hex":"#f73b6a7A","correct":-1,"choice":-1,"rt":-1,"accuracy":1,"outcome":"-1","keys":[],"total_keys":0,"block":2,"trial":204,"robot":4,"valence":"lose","action":"no-go","sham":0,"trial_type":"pit-trial","trial_index":218,"time_elapsed":1106058,"internal_node_id":"0.0-207.0","task_version":"battery-v0.1"},{"rune":"J","hex":"#f73b6a7A","correct":-1,"choice":32,"rt":244.29999943822622,"accuracy":0,"outcome":"-10","keys":[1744.9950007721782],"total_keys":1,"block":2,"trial":205,"robot":4,"valence":"lose","action":"no-go","sham":0,"trial_type":"pit-trial","trial_index":219,"time_elapsed":1109006,"internal_node_id":"0.0-208.0","task_version":"battery-v0.1"},{"rune":"G","hex":"#3366ff99","correct":32,"choice":32,"rt":368.75000037252903,"accuracy":1,"outcome":"+10","keys":[1868.835000321269],"total_keys":1,"block":2,"trial":206,"robot":1,"valence":"win","action":"go","sham":0,"trial_type":"pit-trial","trial_index":220,"time_elapsed":1112078,"internal_node_id":"0.0-209.0","task_version":"battery-v0.1"},{"rune":"K","hex":"#3366ff99","correct":-1,"choice":32,"rt":560.7749996706843,"accuracy":0,"outcome":"+1","keys":[2061.069999821484],"total_keys":1,"block":2,"trial":207,"robot":2,"valence":"win","action":"no-go","sham":0,"trial_type":"pit-trial","trial_index":221,"time_elapsed":1115341,"internal_node_id":"0.0-210.0","task_version":"battery-v0.1"},{"rune":"F","hex":"#f73b6a7A","correct":32,"choice":32,"rt":816.9400002807379,"accuracy":1,"outcome":"-1","keys":[2317.514999769628],"total_keys":1,"block":2,"trial":208,"robot":3,"valence":"lose","action":"go","sham":0,"trial_type":"pit-trial","trial_index":222,"time_elapsed":1118861,"internal_node_id":"0.0-211.0","task_version":"battery-v0.1"},{"rune":"F","hex":"#f73b6a7A","correct":32,"choice":-1,"rt":-1,"accuracy":0,"outcome":"-10","keys":[],"total_keys":0,"block":2,"trial":209,"robot":3,"valence":"lose","action":"go","sham":0,"trial_type":"pit-trial","trial_index":223,"time_elapsed":1122865,"internal_node_id":"0.0-212.0","task_version":"battery-v0.1"},{"rune":"B","hex":"#f73b6a7A","correct":32,"choice":-1,"rt":-1,"accuracy":0,"outcome":"-10","keys":[],"total_keys":0,"block":2,"trial":210,"robot":3,"valence":"lose","action":"go","sham":0,"trial_type":"pit-trial","trial_index":224,"time_elapsed":1126868,"internal_node_id":"0.0-213.0","task_version":"battery-v0.1"},{"rune":"I","hex":"#3366ff99","correct":-1,"choice":32,"rt":402.08000037819147,"accuracy":0,"outcome":"+10","keys":[1902.6549998670816],"total_keys":1,"block":2,"trial":211,"robot":2,"valence":"win","action":"no-go","sham":1,"trial_type":"pit-trial","trial_index":225,"time_elapsed":1129973,"internal_node_id":"0.0-214.0","task_version":"battery-v0.1"},{"rune":"G","hex":"#3366ff99","correct":32,"choice":32,"rt":568.3899996802211,"accuracy":1,"outcome":"+10","keys":[2069.4949999451637],"total_keys":1,"block":2,"trial":212,"robot":1,"valence":"win","action":"go","sham":0,"trial_type":"pit-trial","trial_index":226,"time_elapsed":1133245,"internal_node_id":"0.0-215.0","task_version":"battery-v0.1"},{"rune":"I","hex":"#3366ff99","correct":-1,"choice":32,"rt":504.700000397861,"accuracy":0,"outcome":"+1","keys":[2005.5250003933907],"total_keys":1,"block":2,"trial":213,"robot":2,"valence":"win","action":"no-go","sham":0,"trial_type":"pit-trial","trial_index":227,"time_elapsed":1136453,"internal_node_id":"0.0-216.0","task_version":"battery-v0.1"},{"rune":"G","hex":"#3366ff99","correct":32,"choice":32,"rt":448.08000046759844,"accuracy":1,"outcome":"+1","keys":[1949.3499994277954],"total_keys":1,"block":2,"trial":214,"robot":1,"valence":"win","action":"go","sham":1,"trial_type":"pit-trial","trial_index":228,"time_elapsed":1139605,"internal_node_id":"0.0-217.0","task_version":"battery-v0.1"},{"rune":"B","hex":"#f73b6a7A","correct":32,"choice":-1,"rt":-1,"accuracy":0,"outcome":"-10","keys":[],"total_keys":0,"block":2,"trial":215,"robot":3,"valence":"lose","action":"go","sham":0,"trial_type":"pit-trial","trial_index":229,"time_elapsed":1143608,"internal_node_id":"0.0-218.0","task_version":"battery-v0.1"},{"rune":"F","hex":"#f73b6a7A","correct":32,"choice":-1,"rt":-1,"accuracy":0,"outcome":"-10","keys":[],"total_keys":0,"block":2,"trial":216,"robot":3,"valence":"lose","action":"go","sham":0,"trial_type":"pit-trial","trial_index":230,"time_elapsed":1147610,"internal_node_id":"0.0-219.0","task_version":"battery-v0.1"},{"rune":"F","hex":"#f73b6a7A","correct":32,"choice":32,"rt":771.8599997460842,"accuracy":1,"outcome":"-1","keys":[2272.605000063777],"total_keys":1,"block":2,"trial":217,"robot":3,"valence":"lose","action":"go","sham":0,"trial_type":"pit-trial","trial_index":231,"time_elapsed":1151085,"internal_node_id":"0.0-220.0","task_version":"battery-v0.1"},{"rune":"B","hex":"#f73b6a7A","correct":32,"choice":-1,"rt":-1,"accuracy":0,"outcome":"-1","keys":[],"total_keys":0,"block":2,"trial":218,"robot":3,"valence":"lose","action":"go","sham":1,"trial_type":"pit-trial","trial_index":232,"time_elapsed":1155088,"internal_node_id":"0.0-221.0","task_version":"battery-v0.1"},{"rune":"G","hex":"#3366ff99","correct":32,"choice":32,"rt":501.50000024586916,"accuracy":1,"outcome":"+10","keys":[2002.5100000202656],"total_keys":1,"block":2,"trial":219,"robot":1,"valence":"win","action":"go","sham":0,"trial_type":"pit-trial","trial_index":233,"time_elapsed":1158293,"internal_node_id":"0.0-222.0","task_version":"battery-v0.1"},{"rune":"I","hex":"#3366ff99","correct":-1,"choice":32,"rt":608.6649997159839,"accuracy":0,"outcome":"+1","keys":[2109.244999475777],"total_keys":1,"block":2,"trial":220,"robot":2,"valence":"win","action":"no-go","sham":0,"trial_type":"pit-trial","trial_index":234,"time_elapsed":1161605,"internal_node_id":"0.0-223.0","task_version":"battery-v0.1"},{"rune":"I","hex":"#3366ff99","correct":-1,"choice":32,"rt":689.0099998563528,"accuracy":0,"outcome":"+1","keys":[2189.249999821186],"total_keys":1,"block":2,"trial":221,"robot":2,"valence":"win","action":"no-go","sham":0,"trial_type":"pit-trial","trial_index":235,"time_elapsed":1164998,"internal_node_id":"0.0-224.0","task_version":"battery-v0.1"},{"rune":"F","hex":"#f73b6a7A","correct":32,"choice":-1,"rt":-1,"accuracy":0,"outcome":"-10","keys":[3149.6649999171495],"total_keys":1,"block":2,"trial":222,"robot":3,"valence":"lose","action":"go","sham":0,"trial_type":"pit-trial","trial_index":236,"time_elapsed":1169005,"internal_node_id":"0.0-225.0","task_version":"battery-v0.1"},{"rune":"B","hex":"#f73b6a7A","correct":32,"choice":32,"rt":1130.9700002893806,"accuracy":1,"outcome":"-1","keys":[2631.3950000330806],"total_keys":1,"block":2,"trial":223,"robot":3,"valence":"lose","action":"go","sham":0,"trial_type":"pit-trial","trial_index":237,"time_elapsed":1172839,"internal_node_id":"0.0-226.0","task_version":"battery-v0.1"},{"rune":"G","hex":"#3366ff99","correct":32,"choice":-1,"rt":-1,"accuracy":0,"outcome":"+1","keys":[],"total_keys":0,"block":2,"trial":224,"robot":1,"valence":"win","action":"go","sham":0,"trial_type":"pit-trial","trial_index":238,"time_elapsed":1176842,"internal_node_id":"0.0-227.0","task_version":"battery-v0.1"},{"rune":"B","hex":"#f73b6a7A","correct":32,"choice":32,"rt":980.8849999681115,"accuracy":1,"outcome":"-1","keys":[41.61499999463558,2482.0999996736646],"total_keys":2,"block":2,"trial":225,"robot":3,"valence":"lose","action":"go","sham":0,"trial_type":"pit-trial","trial_index":239,"time_elapsed":1180526,"internal_node_id":"0.0-228.0","task_version":"battery-v0.1"},{"rune":"F","hex":"#f73b6a7A","correct":32,"choice":32,"rt":472.014999948442,"accuracy":1,"outcome":"-1","keys":[1972.6499998942018],"total_keys":1,"block":2,"trial":226,"robot":3,"valence":"lose","action":"go","sham":0,"trial_type":"pit-trial","trial_index":240,"time_elapsed":1183702,"internal_node_id":"0.0-229.0","task_version":"battery-v0.1"},{"rune":"I","hex":"#3366ff99","correct":-1,"choice":-1,"rt":-1,"accuracy":1,"outcome":"+10","keys":[],"total_keys":0,"block":2,"trial":227,"robot":2,"valence":"win","action":"no-go","sham":0,"trial_type":"pit-trial","trial_index":241,"time_elapsed":1187705,"internal_node_id":"0.0-230.0","task_version":"battery-v0.1"},{"rune":"G","hex":"#3366ff99","correct":32,"choice":-1,"rt":-1,"accuracy":0,"outcome":"+10","keys":[],"total_keys":0,"block":2,"trial":228,"robot":1,"valence":"win","action":"go","sham":1,"trial_type":"pit-trial","trial_index":242,"time_elapsed":1193603,"internal_node_id":"0.0-231.0","task_version":"battery-v0.1"},{"rune":"B","hex":"#f73b6a7A","correct":32,"choice":-1,"rt":-1,"accuracy":0,"outcome":"-10","keys":[],"total_keys":0,"block":2,"trial":229,"robot":3,"valence":"lose","action":"go","sham":0,"trial_type":"pit-trial","trial_index":243,"time_elapsed":1197606,"internal_node_id":"0.0-232.0","task_version":"battery-v0.1"},{"rune":"F","hex":"#f73b6a7A","correct":32,"choice":32,"rt":257.64499977231026,"accuracy":1,"outcome":"-1","keys":[1757.9100001603365],"total_keys":1,"block":2,"trial":230,"robot":3,"valence":"lose","action":"go","sham":0,"trial_type":"pit-trial","trial_index":244,"time_elapsed":1200566,"internal_node_id":"0.0-233.0","task_version":"battery-v0.1"},{"rune":"I","hex":"#3366ff99","correct":-1,"choice":32,"rt":377.02499981969595,"accuracy":0,"outcome":"+10","keys":[1877.3400001227856],"total_keys":1,"block":2,"trial":231,"robot":2,"valence":"win","action":"no-go","sham":1,"trial_type":"pit-trial","trial_index":245,"time_elapsed":1203645,"internal_node_id":"0.0-234.0","task_version":"battery-v0.1"},{"rune":"G","hex":"#3366ff99","correct":32,"choice":32,"rt":650.2949995920062,"accuracy":1,"outcome":"+10","keys":[2150.3599993884563],"total_keys":1,"block":2,"trial":232,"robot":1,"valence":"win","action":"go","sham":0,"trial_type":"pit-trial","trial_index":246,"time_elapsed":1206998,"internal_node_id":"0.0-235.0","task_version":"battery-v0.1"},{"rune":"B","hex":"#f73b6a7A","correct":32,"choice":-1,"rt":-1,"accuracy":0,"outcome":"-10","keys":[],"total_keys":0,"block":2,"trial":233,"robot":3,"valence":"lose","action":"go","sham":0,"trial_type":"pit-trial","trial_index":247,"time_elapsed":1211001,"internal_node_id":"0.0-236.0","task_version":"battery-v0.1"},{"rune":"F","hex":"#f73b6a7A","correct":32,"choice":-1,"rt":-1,"accuracy":0,"outcome":"-10","keys":[],"total_keys":0,"block":2,"trial":234,"robot":3,"valence":"lose","action":"go","sham":0,"trial_type":"pit-trial","trial_index":248,"time_elapsed":1215004,"internal_node_id":"0.0-237.0","task_version":"battery-v0.1"},{"rune":"G","hex":"#3366ff99","correct":32,"choice":32,"rt":105.92999961227179,"accuracy":1,"outcome":"+10","keys":[1606.4600003883243],"total_keys":1,"block":2,"trial":235,"robot":1,"valence":"win","action":"go","sham":0,"trial_type":"pit-trial","trial_index":249,"time_elapsed":1217813,"internal_node_id":"0.0-238.0","task_version":"battery-v0.1"},{"rune":"I","hex":"#3366ff99","correct":-1,"choice":32,"rt":954.0149997919798,"accuracy":0,"outcome":"+1","keys":[2454.210000112653],"total_keys":1,"block":2,"trial":236,"robot":2,"valence":"win","action":"no-go","sham":0,"trial_type":"pit-trial","trial_index":250,"time_elapsed":1221470,"internal_node_id":"0.0-239.0","task_version":"battery-v0.1"},{"rune":"F","hex":"#f73b6a7A","correct":32,"choice":-1,"rt":-1,"accuracy":0,"outcome":"-10","keys":[],"total_keys":0,"block":2,"trial":237,"robot":3,"valence":"lose","action":"go","sham":0,"trial_type":"pit-trial","trial_index":251,"time_elapsed":1225475,"internal_node_id":"0.0-240.0","task_version":"battery-v0.1"},{"rune":"G","hex":"#3366ff99","correct":32,"choice":32,"rt":357.4799997732043,"accuracy":1,"outcome":"+10","keys":[1857.5699999928474],"total_keys":1,"block":2,"trial":238,"robot":1,"valence":"win","action":"go","sham":0,"trial_type":"pit-trial","trial_index":252,"time_elapsed":1228536,"internal_node_id":"0.0-241.0","task_version":"battery-v0.1"},{"rune":"B","hex":"#f73b6a7A","correct":32,"choice":-1,"rt":-1,"accuracy":0,"outcome":"-1","keys":[],"total_keys":0,"block":2,"trial":239,"robot":3,"valence":"lose","action":"go","sham":1,"trial_type":"pit-trial","trial_index":253,"time_elapsed":1232539,"internal_node_id":"0.0-242.0","task_version":"battery-v0.1"},{"rune":"I","hex":"#3366ff99","correct":-1,"choice":-1,"rt":-1,"accuracy":1,"outcome":"+1","keys":[],"total_keys":0,"block":2,"trial":240,"robot":2,"valence":"win","action":"no-go","sham":1,"trial_type":"pit-trial","trial_index":254,"time_elapsed":1236542,"internal_node_id":"0.0-243.0","task_version":"battery-v0.1"},{"view_history":"[{\"page_index\":0,\"viewing_time\":2024.6799997985363}]","rt":2025.249999947846,"trial_type":"pit-instructions","trial_index":255,"time_elapsed":1238568,"internal_node_id":"0.0-244.0","task_version":"battery-v0.1"},{"rt":23000.249999575317,"responses":{"age":"44","gender-categorical":"Male","gender-free-response":"","ethnicity":"Not Hispanic or Latino","race":["White"],"language":"Yes","fluency":"Very well"},"survey":"demographics","trial_type":"survey-demo","trial_index":256,"time_elapsed":1261572,"internal_node_id":"0.0-245.0","task_version":"battery-v0.1"},{"rt":33668.475000187755,"responses":{"difficulty":"2","fun":"5","clarity":"5","strategy":"I was generally trying to avoid the \"dangerous\" bots","feedback":"Thanks"},"survey":"debrief","trial_type":"survey-debrief","trial_index":257,"time_elapsed":1295244,"internal_node_id":"0.0-246.0","task_version":"battery-v0.1","interactions":"[{\"event\":\"blur\",\"trial\":104,\"time\":461127},{\"event\":\"focus\",\"trial\":105,\"time\":466109},{\"event\":\"blur\",\"trial\":105,\"time\":468564},{\"event\":\"focus\",\"trial\":107,\"time\":475575},{\"event\":\"blur\",\"trial\":129,\"time\":555334},{\"event\":\"focus\",\"trial\":132,\"time\":568837},{\"event\":\"blur\",\"trial\":134,\"time\":574913},{\"event\":\"focus\",\"trial\":134,\"time\":801536},{\"event\":\"blur\",\"trial\":134,\"time\":801546},{\"event\":\"focus\",\"trial\":134,\"time\":803560},{\"event\":\"blur\",\"trial\":138,\"time\":823243},{\"event\":\"focus\",\"trial\":139,\"time\":825479},{\"event\":\"blur\",\"trial\":155,\"time\":883519},{\"event\":\"focus\",\"trial\":156,\"time\":885589},{\"event\":\"blur\",\"trial\":236,\"time\":1165241},{\"event\":\"focus\",\"trial\":236,\"time\":1167802},{\"event\":\"blur\",\"trial\":240,\"time\":1180752},{\"event\":\"focus\",\"trial\":240,\"time\":1182167},{\"event\":\"blur\",\"trial\":241,\"time\":1184163},{\"event\":\"focus\",\"trial\":242,\"time\":1190470},{\"event\":\"blur\",\"trial\":248,\"time\":1211488},{\"event\":\"focus\",\"trial\":249,\"time\":1216164},{\"event\":\"blur\",\"trial\":253,\"time\":1231957},{\"event\":\"focus\",\"trial\":254,\"time\":1236492},{\"event\":\"blur\",\"trial\":256,\"time\":1239890},{\"event\":\"focus\",\"trial\":256,\"time\":1248171}]"}]