[{"view_history":"[{\"page_index\":0,\"viewing_time\":2905.07500001695},{\"page_index\":1,\"viewing_time\":4431.749999988824},{\"page_index\":2,\"viewing_time\":2463.850000000093},{\"page_index\":3,\"viewing_time\":6008.005000010598},{\"page_index\":4,\"viewing_time\":6487.8399999579415},{\"page_index\":5,\"viewing_time\":5719.965000054799}]","rt":28017.59000000311,"trial_type":"pit-instructions","trial_index":0,"time_elapsed":28028,"internal_node_id":"0.0-0.0-0.0","task_version":"battery-v0.1"},{"rune":"","hex":"#FFFFF080","correct":32,"choice":32,"rt":12.480000033974648,"accuracy":1,"outcome":"+10","keys":[1512.9200000083074],"total_keys":1,"block":0,"trial_type":"pit-trial","trial_index":1,"time_elapsed":30746,"internal_node_id":"0.0-0.0-1.0-0.0","task_version":"battery-v0.1"},{"rune":"","hex":"#FFFFF080","correct":32,"choice":-1,"rt":-1,"accuracy":0,"outcome":"+0","keys":[1371.5599999995902,2835.9199999831617],"total_keys":2,"block":0,"trial_type":"pit-trial","trial_index":2,"time_elapsed":34751,"internal_node_id":"0.0-0.0-1.0-0.1","task_version":"battery-v0.1"},{"rune":"","hex":"#FFFFF080","correct":32,"choice":32,"rt":903.3499999786727,"accuracy":1,"outcome":"+10","keys":[2404.655000020284],"total_keys":1,"block":0,"trial_type":"pit-trial","trial_index":3,"time_elapsed":38361,"internal_node_id":"0.0-0.0-1.0-0.2","task_version":"battery-v0.1"},{"rune":"","hex":"#FFFFF080","correct":32,"choice":32,"rt":853.7500000093132,"accuracy":1,"outcome":"+10","keys":[2355.3850000025705],"total_keys":1,"block":0,"trial_type":"pit-trial","trial_index":4,"time_elapsed":41921,"internal_node_id":"0.0-0.0-1.0-0.3","task_version":"battery-v0.1"},{"view_history":"[{\"page_index\":0,\"viewing_time\":5247.174999967683}]","rt":5247.644999995828,"trial_type":"pit-instructions","trial_index":5,"time_elapsed":47171,"internal_node_id":"0.0-0.0-2.0","task_version":"battery-v0.1"},{"rune":"","hex":"#FFFFF080","correct":-1,"choice":-1,"rt":-1,"accuracy":1,"outcome":"+10","keys":[],"total_keys":0,"block":0,"trial_type":"pit-trial","trial_index":6,"time_elapsed":51178,"internal_node_id":"0.0-0.0-3.0-0.0","task_version":"battery-v0.1"},{"rune":"","hex":"#FFFFF080","correct":-1,"choice":-1,"rt":-1,"accuracy":1,"outcome":"+10","keys":[],"total_keys":0,"block":0,"trial_type":"pit-trial","trial_index":7,"time_elapsed":55183,"internal_node_id":"0.0-0.0-3.0-0.1","task_version":"battery-v0.1"},{"rune":"","hex":"#FFFFF080","correct":-1,"choice":-1,"rt":-1,"accuracy":1,"outcome":"+10","keys":[],"total_keys":0,"block":0,"trial_type":"pit-trial","trial_index":8,"time_elapsed":59190,"internal_node_id":"0.0-0.0-3.0-0.2","task_version":"battery-v0.1"},{"rune":"","hex":"#FFFFF080","correct":-1,"choice":-1,"rt":-1,"accuracy":1,"outcome":"+10","keys":[],"total_keys":0,"block":0,"trial_type":"pit-trial","trial_index":9,"time_elapsed":63195,"internal_node_id":"0.0-0.0-3.0-0.3","task_version":"battery-v0.1"},{"responses":["Press SPACE","Do nothing"],"num_errors":0,"rt":8211.175000004005,"trial_type":"pit-comprehension","trial_index":10,"time_elapsed":71412,"internal_node_id":"0.0-0.0-4.0","task_version":"battery-v0.1"},{"view_history":"[{\"page_index\":0,\"viewing_time\":5120.299999951385},{\"page_index\":1,\"viewing_time\":6479.879999998957},{\"page_index\":2,\"viewing_time\":3656.0349999926984},{\"page_index\":3,\"viewing_time\":4807.925000030082},{\"page_index\":4,\"viewing_time\":5319.944999995641},{\"page_index\":5,\"viewing_time\":8775.900000007823},{\"page_index\":6,\"viewing_time\":16055.974999966566},{\"page_index\":7,\"viewing_time\":5055.915000033565},{\"page_index\":8,\"viewing_time\":4135.9449999872595},{\"page_index\":9,\"viewing_time\":4815.850000013597},{\"page_index\":10,\"viewing_time\":2855.9649999951944}]","rt":67080.14999999432,"trial_type":"pit-instructions","trial_index":11,"time_elapsed":138498,"internal_node_id":"0.0-1.0-0.0","task_version":"battery-v0.1"},{"responses":["+10","-1","True","True"],"num_errors":0,"rt":17533.975000027567,"trial_type":"pit-comprehension","trial_index":12,"time_elapsed":156034,"internal_node_id":"0.0-1.0-1.0","task_version":"battery-v0.1"},{"view_history":"[{\"page_index\":0,\"viewing_time\":2162.7750000334345},{\"page_index\":1,\"viewing_time\":4967.895000008866}]","rt":7131.135000032373,"trial_type":"pit-instructions","trial_index":13,"time_elapsed":163169,"internal_node_id":"0.0-2.0","task_version":"battery-v0.1"},{"rune":"B","hex":"#3366ff99","correct":-1,"choice":32,"rt":667.7749999798834,"accuracy":0,"outcome":"+10","keys":[2169.110000017099],"total_keys":1,"block":1,"trial":1,"robot":2,"valence":"win","action":"no-go","sham":1,"trial_type":"pit-trial","trial_index":14,"time_elapsed":166543,"internal_node_id":"0.0-3.0","task_version":"battery-v0.1"},{"rune":"C","hex":"#f73b6a7A","correct":-1,"choice":-1,"rt":-1,"accuracy":1,"outcome":"-1","keys":[],"total_keys":0,"block":1,"trial":2,"robot":4,"valence":"lose","action":"no-go","sham":0,"trial_type":"pit-trial","trial_index":15,"time_elapsed":170548,"internal_node_id":"0.0-4.0","task_version":"battery-v0.1"},{"rune":"K","hex":"#3366ff99","correct":32,"choice":32,"rt":904.5899999910034,"accuracy":1,"outcome":"+10","keys":[2406.345000024885],"total_keys":1,"block":1,"trial":3,"robot":1,"valence":"win","action":"go","sham":0,"trial_type":"pit-trial","trial_index":16,"time_elapsed":174159,"internal_node_id":"0.0-5.0","task_version":"battery-v0.1"},{"rune":"R","hex":"#f73b6a7A","correct":-1,"choice":-1,"rt":-1,"accuracy":1,"outcome":"-1","keys":[],"total_keys":0,"block":1,"trial":4,"robot":4,"valence":"lose","action":"no-go","sham":0,"trial_type":"pit-trial","trial_index":17,"time_elapsed":178165,"internal_node_id":"0.0-6.0","task_version":"battery-v0.1"},{"rune":"R","hex":"#f73b6a7A","correct":-1,"choice":-1,"rt":-1,"accuracy":1,"outcome":"-1","keys":[],"total_keys":0,"block":1,"trial":5,"robot":4,"valence":"lose","action":"no-go","sham":0,"trial_type":"pit-trial","trial_index":18,"time_elapsed":182171,"internal_node_id":"0.0-7.0","task_version":"battery-v0.1"},{"rune":"B","hex":"#3366ff99","correct":-1,"choice":32,"rt":635.4749999591149,"accuracy":0,"outcome":"+1","keys":[2135.995000018738],"total_keys":1,"block":1,"trial":6,"robot":2,"valence":"win","action":"no-go","sham":0,"trial_type":"pit-trial","trial_index":19,"time_elapsed":185512,"internal_node_id":"0.0-8.0","task_version":"battery-v0.1"},{"rune":"K","hex":"#3366ff99","correct":32,"choice":32,"rt":805.3749999962747,"accuracy":1,"outcome":"+10","keys":[2306.060000031721],"total_keys":1,"block":1,"trial":7,"robot":1,"valence":"win","action":"go","sham":0,"trial_type":"pit-trial","trial_index":20,"time_elapsed":189023,"internal_node_id":"0.0-9.0","task_version":"battery-v0.1"},{"rune":"C","hex":"#f73b6a7A","correct":-1,"choice":-1,"rt":-1,"accuracy":1,"outcome":"-1","keys":[],"total_keys":0,"block":1,"trial":8,"robot":4,"valence":"lose","action":"no-go","sham":0,"trial_type":"pit-trial","trial_index":21,"time_elapsed":193029,"internal_node_id":"0.0-10.0","task_version":"battery-v0.1"},{"rune":"K","hex":"#3366ff99","correct":32,"choice":-1,"rt":-1,"accuracy":0,"outcome":"+10","keys":[],"total_keys":0,"block":1,"trial":9,"robot":1,"valence":"win","action":"go","sham":1,"trial_type":"pit-trial","trial_index":22,"time_elapsed":197035,"internal_node_id":"0.0-11.0","task_version":"battery-v0.1"},{"rune":"R","hex":"#f73b6a7A","correct":-1,"choice":-1,"rt":-1,"accuracy":1,"outcome":"-1","keys":[],"total_keys":0,"block":1,"trial":10,"robot":4,"valence":"lose","action":"no-go","sham":0,"trial_type":"pit-trial","trial_index":23,"time_elapsed":201041,"internal_node_id":"0.0-12.0","task_version":"battery-v0.1"},{"rune":"C","hex":"#f73b6a7A","correct":-1,"choice":-1,"rt":-1,"accuracy":1,"outcome":"-1","keys":[],"total_keys":0,"block":1,"trial":11,"robot":4,"valence":"lose","action":"no-go","sham":0,"trial_type":"pit-trial","trial_index":24,"time_elapsed":205046,"internal_node_id":"0.0-13.0","task_version":"battery-v0.1"},{"rune":"B","hex":"#3366ff99","correct":-1,"choice":32,"rt":567.83000001451,"accuracy":0,"outcome":"+1","keys":[2068.260000029113],"total_keys":1,"block":1,"trial":12,"robot":2,"valence":"win","action":"no-go","sham":0,"trial_type":"pit-trial","trial_index":25,"time_elapsed":208319,"internal_node_id":"0.0-14.0","task_version":"battery-v0.1"},{"rune":"B","hex":"#3366ff99","correct":-1,"choice":-1,"rt":-1,"accuracy":1,"outcome":"+1","keys":[],"total_keys":0,"block":1,"trial":13,"robot":2,"valence":"win","action":"no-go","sham":1,"trial_type":"pit-trial","trial_index":26,"time_elapsed":212327,"internal_node_id":"0.0-15.0","task_version":"battery-v0.1"},{"rune":"K","hex":"#3366ff99","correct":32,"choice":-1,"rt":-1,"accuracy":0,"outcome":"+1","keys":[],"total_keys":0,"block":1,"trial":14,"robot":1,"valence":"win","action":"go","sham":0,"trial_type":"pit-trial","trial_index":27,"time_elapsed":216332,"internal_node_id":"0.0-16.0","task_version":"battery-v0.1"},{"rune":"C","hex":"#f73b6a7A","correct":-1,"choice":-1,"rt":-1,"accuracy":1,"outcome":"-1","keys":[],"total_keys":0,"block":1,"trial":15,"robot":4,"valence":"lose","action":"no-go","sham":0,"trial_type":"pit-trial","trial_index":28,"time_elapsed":220338,"internal_node_id":"0.0-17.0","task_version":"battery-v0.1"},{"rune":"R","hex":"#f73b6a7A","correct":-1,"choice":-1,"rt":-1,"accuracy":1,"outcome":"-1","keys":[],"total_keys":0,"block":1,"trial":16,"robot":4,"valence":"lose","action":"no-go","sham":0,"trial_type":"pit-trial","trial_index":29,"time_elapsed":224343,"internal_node_id":"0.0-18.0","task_version":"battery-v0.1"},{"rune":"R","hex":"#f73b6a7A","correct":-1,"choice":-1,"rt":-1,"accuracy":1,"outcome":"-1","keys":[],"total_keys":0,"block":1,"trial":17,"robot":4,"valence":"lose","action":"no-go","sham":0,"trial_type":"pit-trial","trial_index":30,"time_elapsed":228349,"internal_node_id":"0.0-19.0","task_version":"battery-v0.1"},{"rune":"B","hex":"#3366ff99","correct":-1,"choice":32,"rt":578.0249999952503,"accuracy":0,"outcome":"+1","keys":[2078.8900000043213],"total_keys":1,"block":1,"trial":18,"robot":2,"valence":"win","action":"no-go","sham":0,"trial_type":"pit-trial","trial_index":31,"time_elapsed":231631,"internal_node_id":"0.0-20.0","task_version":"battery-v0.1"},{"rune":"K","hex":"#3366ff99","correct":32,"choice":32,"rt":590.4600000358187,"accuracy":1,"outcome":"+1","keys":[2091.519999958109],"total_keys":1,"block":1,"trial":19,"robot":1,"valence":"win","action":"go","sham":1,"trial_type":"pit-trial","trial_index":32,"time_elapsed":234927,"internal_node_id":"0.0-21.0","task_version":"battery-v0.1"},{"rune":"C","hex":"#f73b6a7A","correct":-1,"choice":-1,"rt":-1,"accuracy":1,"outcome":"-1","keys":[],"total_keys":0,"block":1,"trial":20,"robot":4,"valence":"lose","action":"no-go","sham":0,"trial_type":"pit-trial","trial_index":33,"time_elapsed":238933,"internal_node_id":"0.0-22.0","task_version":"battery-v0.1"},{"rune":"B","hex":"#3366ff99","correct":-1,"choice":-1,"rt":-1,"accuracy":1,"outcome":"+10","keys":[],"total_keys":0,"block":1,"trial":21,"robot":2,"valence":"win","action":"no-go","sham":0,"trial_type":"pit-trial","trial_index":34,"time_elapsed":242939,"internal_node_id":"0.0-23.0","task_version":"battery-v0.1"},{"rune":"C","hex":"#f73b6a7A","correct":-1,"choice":-1,"rt":-1,"accuracy":1,"outcome":"-1","keys":[],"total_keys":0,"block":1,"trial":22,"robot":4,"valence":"lose","action":"no-go","sham":0,"trial_type":"pit-trial","trial_index":35,"time_elapsed":246944,"internal_node_id":"0.0-24.0","task_version":"battery-v0.1"},{"rune":"K","hex":"#3366ff99","correct":32,"choice":-1,"rt":-1,"accuracy":0,"outcome":"+1","keys":[],"total_keys":0,"block":1,"trial":23,"robot":1,"valence":"win","action":"go","sham":0,"trial_type":"pit-trial","trial_index":36,"time_elapsed":250948,"internal_node_id":"0.0-25.0","task_version":"battery-v0.1"},{"rune":"R","hex":"#f73b6a7A","correct":-1,"choice":-1,"rt":-1,"accuracy":1,"outcome":"-1","keys":[],"total_keys":0,"block":1,"trial":24,"robot":4,"valence":"lose","action":"no-go","sham":0,"trial_type":"pit-trial","trial_index":37,"time_elapsed":254953,"internal_node_id":"0.0-26.0","task_version":"battery-v0.1"},{"rune":"B","hex":"#3366ff99","correct":-1,"choice":-1,"rt":-1,"accuracy":1,"outcome":"+10","keys":[],"total_keys":0,"block":1,"trial":25,"robot":2,"valence":"win","action":"no-go","sham":0,"trial_type":"pit-trial","trial_index":38,"time_elapsed":258958,"internal_node_id":"0.0-27.0","task_version":"battery-v0.1"},{"rune":"C","hex":"#f73b6a7A","correct":-1,"choice":-1,"rt":-1,"accuracy":1,"outcome":"-1","keys":[],"total_keys":0,"block":1,"trial":26,"robot":4,"valence":"lose","action":"no-go","sham":0,"trial_type":"pit-trial","trial_index":39,"time_elapsed":262963,"internal_node_id":"0.0-28.0","task_version":"battery-v0.1"},{"rune":"K","hex":"#3366ff99","correct":32,"choice":32,"rt":610.2300000493415,"accuracy":1,"outcome":"+1","keys":[2111.7249999661],"total_keys":1,"block":1,"trial":27,"robot":1,"valence":"win","action":"go","sham":1,"trial_type":"pit-trial","trial_index":40,"time_elapsed":266278,"internal_node_id":"0.0-29.0","task_version":"battery-v0.1"},{"rune":"R","hex":"#f73b6a7A","correct":-1,"choice":-1,"rt":-1,"accuracy":1,"outcome":"-1","keys":[],"total_keys":0,"block":1,"trial":28,"robot":4,"valence":"lose","action":"no-go","sham":0,"trial_type":"pit-trial","trial_index":41,"time_elapsed":270283,"internal_node_id":"0.0-30.0","task_version":"battery-v0.1"},{"rune":"R","hex":"#f73b6a7A","correct":-1,"choice":-1,"rt":-1,"accuracy":1,"outcome":"-1","keys":[],"total_keys":0,"block":1,"trial":29,"robot":4,"valence":"lose","action":"no-go","sham":0,"trial_type":"pit-trial","trial_index":42,"time_elapsed":274289,"internal_node_id":"0.0-31.0","task_version":"battery-v0.1"},{"rune":"C","hex":"#f73b6a7A","correct":-1,"choice":-1,"rt":-1,"accuracy":1,"outcome":"-1","keys":[],"total_keys":0,"block":1,"trial":30,"robot":4,"valence":"lose","action":"no-go","sham":0,"trial_type":"pit-trial","trial_index":43,"time_elapsed":278294,"internal_node_id":"0.0-32.0","task_version":"battery-v0.1"},{"rune":"K","hex":"#3366ff99","correct":32,"choice":32,"rt":638.0500000086613,"accuracy":1,"outcome":"+10","keys":[2139.7950000246055],"total_keys":1,"block":1,"trial":31,"robot":1,"valence":"win","action":"go","sham":0,"trial_type":"pit-trial","trial_index":44,"time_elapsed":281639,"internal_node_id":"0.0-33.0","task_version":"battery-v0.1"},{"rune":"B","hex":"#3366ff99","correct":-1,"choice":-1,"rt":-1,"accuracy":1,"outcome":"+10","keys":[],"total_keys":0,"block":1,"trial":32,"robot":2,"valence":"win","action":"no-go","sham":0,"trial_type":"pit-trial","trial_index":45,"time_elapsed":285645,"internal_node_id":"0.0-34.0","task_version":"battery-v0.1"},{"rune":"C","hex":"#f73b6a7A","correct":-1,"choice":-1,"rt":-1,"accuracy":1,"outcome":"-1","keys":[],"total_keys":0,"block":1,"trial":33,"robot":4,"valence":"lose","action":"no-go","sham":0,"trial_type":"pit-trial","trial_index":46,"time_elapsed":289649,"internal_node_id":"0.0-35.0","task_version":"battery-v0.1"},{"rune":"B","hex":"#3366ff99","correct":-1,"choice":-1,"rt":-1,"accuracy":1,"outcome":"+10","keys":[],"total_keys":0,"block":1,"trial":34,"robot":2,"valence":"win","action":"no-go","sham":0,"trial_type":"pit-trial","trial_index":47,"time_elapsed":293655,"internal_node_id":"0.0-36.0","task_version":"battery-v0.1"},{"rune":"K","hex":"#3366ff99","correct":32,"choice":32,"rt":479.4899999978952,"accuracy":1,"outcome":"+10","keys":[1980.5799999739975],"total_keys":1,"block":1,"trial":35,"robot":1,"valence":"win","action":"go","sham":0,"trial_type":"pit-trial","trial_index":48,"time_elapsed":296838,"internal_node_id":"0.0-37.0","task_version":"battery-v0.1"},{"rune":"Z","hex":"#f73b6a7A","correct":32,"choice":32,"rt":1047.179999994114,"accuracy":1,"outcome":"-1","keys":[2547.839999955613],"total_keys":1,"block":1,"trial":36,"robot":3,"valence":"lose","action":"go","sham":0,"trial_type":"pit-trial","trial_index":49,"time_elapsed":300591,"internal_node_id":"0.0-38.0","task_version":"battery-v0.1"},{"rune":"C","hex":"#f73b6a7A","correct":-1,"choice":-1,"rt":-1,"accuracy":1,"outcome":"-10","keys":[],"total_keys":0,"block":1,"trial":37,"robot":4,"valence":"lose","action":"no-go","sham":1,"trial_type":"pit-trial","trial_index":50,"time_elapsed":304596,"internal_node_id":"0.0-39.0","task_version":"battery-v0.1"},{"rune":"B","hex":"#3366ff99","correct":-1,"choice":-1,"rt":-1,"accuracy":1,"outcome":"+10","keys":[],"total_keys":0,"block":1,"trial":38,"robot":2,"valence":"win","action":"no-go","sham":0,"trial_type":"pit-trial","trial_index":51,"time_elapsed":308601,"internal_node_id":"0.0-40.0","task_version":"battery-v0.1"},{"rune":"Z","hex":"#f73b6a7A","correct":32,"choice":-1,"rt":-1,"accuracy":0,"outcome":"-10","keys":[],"total_keys":0,"block":1,"trial":39,"robot":3,"valence":"lose","action":"go","sham":0,"trial_type":"pit-trial","trial_index":52,"time_elapsed":312607,"internal_node_id":"0.0-41.0","task_version":"battery-v0.1"},{"rune":"K","hex":"#3366ff99","correct":32,"choice":32,"rt":558.1750000128523,"accuracy":1,"outcome":"+1","keys":[2059.05999999959],"total_keys":1,"block":1,"trial":40,"robot":1,"valence":"win","action":"go","sham":1,"trial_type":"pit-trial","trial_index":53,"time_elapsed":315870,"internal_node_id":"0.0-42.0","task_version":"battery-v0.1"},{"rune":"Z","hex":"#f73b6a7A","correct":32,"choice":32,"rt":646.8999999924563,"accuracy":1,"outcome":"-1","keys":[2147.499999962747],"total_keys":1,"block":1,"trial":41,"robot":3,"valence":"lose","action":"go","sham":0,"trial_type":"pit-trial","trial_index":54,"time_elapsed":319222,"internal_node_id":"0.0-43.0","task_version":"battery-v0.1"},{"rune":"C","hex":"#f73b6a7A","correct":-1,"choice":-1,"rt":-1,"accuracy":1,"outcome":"-1","keys":[],"total_keys":0,"block":1,"trial":42,"robot":4,"valence":"lose","action":"no-go","sham":0,"trial_type":"pit-trial","trial_index":55,"time_elapsed":323228,"internal_node_id":"0.0-44.0","task_version":"battery-v0.1"},{"rune":"J","hex":"#3366ff99","correct":32,"choice":32,"rt":985.9849999775179,"accuracy":1,"outcome":"+1","keys":[2486.529999994673],"total_keys":1,"block":1,"trial":43,"robot":1,"valence":"win","action":"go","sham":1,"trial_type":"pit-trial","trial_index":56,"time_elapsed":326918,"internal_node_id":"0.0-45.0","task_version":"battery-v0.1"},{"rune":"W","hex":"#3366ff99","correct":-1,"choice":32,"rt":735.0500000175089,"accuracy":0,"outcome":"+1","keys":[2235.415000002831],"total_keys":1,"block":1,"trial":44,"robot":2,"valence":"win","action":"no-go","sham":0,"trial_type":"pit-trial","trial_index":57,"time_elapsed":330358,"internal_node_id":"0.0-46.0","task_version":"battery-v0.1"},{"rune":"C","hex":"#f73b6a7A","correct":-1,"choice":-1,"rt":-1,"accuracy":1,"outcome":"-1","keys":[],"total_keys":0,"block":1,"trial":45,"robot":4,"valence":"lose","action":"no-go","sham":0,"trial_type":"pit-trial","trial_index":58,"time_elapsed":334362,"internal_node_id":"0.0-47.0","task_version":"battery-v0.1"},{"rune":"J","hex":"#3366ff99","correct":32,"choice":32,"rt":584.9450000096112,"accuracy":1,"outcome":"+10","keys":[2086.639999994077],"total_keys":1,"block":1,"trial":46,"robot":1,"valence":"win","action":"go","sham":0,"trial_type":"pit-trial","trial_index":59,"time_elapsed":337653,"internal_node_id":"0.0-48.0","task_version":"battery-v0.1"},{"rune":"Z","hex":"#f73b6a7A","correct":32,"choice":-1,"rt":-1,"accuracy":0,"outcome":"-10","keys":[],"total_keys":0,"block":1,"trial":47,"robot":3,"valence":"lose","action":"go","sham":0,"trial_type":"pit-trial","trial_index":60,"time_elapsed":341658,"internal_node_id":"0.0-49.0","task_version":"battery-v0.1"},{"rune":"W","hex":"#3366ff99","correct":-1,"choice":32,"rt":658.0799999646842,"accuracy":0,"outcome":"+10","keys":[2158.960000029765],"total_keys":1,"block":1,"trial":48,"robot":2,"valence":"win","action":"no-go","sham":1,"trial_type":"pit-trial","trial_index":61,"time_elapsed":345020,"internal_node_id":"0.0-50.0","task_version":"battery-v0.1"},{"rune":"E","hex":"#f73b6a7A","correct":-1,"choice":-1,"rt":-1,"accuracy":1,"outcome":"-1","keys":[],"total_keys":0,"block":1,"trial":49,"robot":4,"valence":"lose","action":"no-go","sham":0,"trial_type":"pit-trial","trial_index":62,"time_elapsed":349024,"internal_node_id":"0.0-51.0","task_version":"battery-v0.1"},{"rune":"W","hex":"#3366ff99","correct":-1,"choice":32,"rt":627.4700000067241,"accuracy":0,"outcome":"+1","keys":[2128.885000012815],"total_keys":1,"block":1,"trial":50,"robot":2,"valence":"win","action":"no-go","sham":0,"trial_type":"pit-trial","trial_index":63,"time_elapsed":352358,"internal_node_id":"0.0-52.0","task_version":"battery-v0.1"},{"rune":"J","hex":"#3366ff99","correct":32,"choice":32,"rt":516.509999986738,"accuracy":1,"outcome":"+10","keys":[2018.274999980349],"total_keys":1,"block":1,"trial":51,"robot":1,"valence":"win","action":"go","sham":0,"trial_type":"pit-trial","trial_index":64,"time_elapsed":355581,"internal_node_id":"0.0-53.0","task_version":"battery-v0.1"},{"rune":"Z","hex":"#f73b6a7A","correct":32,"choice":-1,"rt":-1,"accuracy":0,"outcome":"-10","keys":[],"total_keys":0,"block":1,"trial":52,"robot":3,"valence":"lose","action":"go","sham":0,"trial_type":"pit-trial","trial_index":65,"time_elapsed":359586,"internal_node_id":"0.0-54.0","task_version":"battery-v0.1"},{"rune":"J","hex":"#3366ff99","correct":32,"choice":32,"rt":489.6900000167079,"accuracy":1,"outcome":"+10","keys":[1990.715000021737],"total_keys":1,"block":1,"trial":53,"robot":1,"valence":"win","action":"go","sham":0,"trial_type":"pit-trial","trial_index":66,"time_elapsed":362781,"internal_node_id":"0.0-55.0","task_version":"battery-v0.1"},{"rune":"W","hex":"#3366ff99","correct":-1,"choice":32,"rt":631.5300000132993,"accuracy":0,"outcome":"+1","keys":[2131.5600000089034],"total_keys":1,"block":1,"trial":54,"robot":2,"valence":"win","action":"no-go","sham":0,"trial_type":"pit-trial","trial_index":67,"time_elapsed":366116,"internal_node_id":"0.0-56.0","task_version":"battery-v0.1"},{"rune":"E","hex":"#f73b6a7A","correct":-1,"choice":-1,"rt":-1,"accuracy":1,"outcome":"-1","keys":[],"total_keys":0,"block":1,"trial":55,"robot":4,"valence":"lose","action":"no-go","sham":0,"trial_type":"pit-trial","trial_index":68,"time_elapsed":370123,"internal_node_id":"0.0-57.0","task_version":"battery-v0.1"},{"rune":"Z","hex":"#f73b6a7A","correct":32,"choice":-1,"rt":-1,"accuracy":0,"outcome":"-10","keys":[2830.069999967236],"total_keys":1,"block":1,"trial":56,"robot":3,"valence":"lose","action":"go","sham":0,"trial_type":"pit-trial","trial_index":69,"time_elapsed":374128,"internal_node_id":"0.0-58.0","task_version":"battery-v0.1"},{"rune":"W","hex":"#3366ff99","correct":-1,"choice":32,"rt":660.6150000006892,"accuracy":0,"outcome":"+1","keys":[2161.309999995865],"total_keys":1,"block":1,"trial":57,"robot":2,"valence":"win","action":"no-go","sham":0,"trial_type":"pit-trial","trial_index":70,"time_elapsed":377493,"internal_node_id":"0.0-59.0","task_version":"battery-v0.1"},{"rune":"E","hex":"#f73b6a7A","correct":-1,"choice":-1,"rt":-1,"accuracy":1,"outcome":"-1","keys":[],"total_keys":0,"block":1,"trial":58,"robot":4,"valence":"lose","action":"no-go","sham":0,"trial_type":"pit-trial","trial_index":71,"time_elapsed":381498,"internal_node_id":"0.0-60.0","task_version":"battery-v0.1"},{"rune":"J","hex":"#3366ff99","correct":32,"choice":32,"rt":537.0700000203215,"accuracy":1,"outcome":"+1","keys":[2038.6650000000373],"total_keys":1,"block":1,"trial":59,"robot":1,"valence":"win","action":"go","sham":1,"trial_type":"pit-trial","trial_index":72,"time_elapsed":384740,"internal_node_id":"0.0-61.0","task_version":"battery-v0.1"},{"rune":"Z","hex":"#f73b6a7A","correct":32,"choice":32,"rt":823.9150000154041,"accuracy":1,"outcome":"-1","keys":[2324.750000028871],"total_keys":1,"block":1,"trial":60,"robot":3,"valence":"lose","action":"go","sham":0,"trial_type":"pit-trial","trial_index":73,"time_elapsed":388267,"internal_node_id":"0.0-62.0","task_version":"battery-v0.1"},{"rune":"Z","hex":"#f73b6a7A","correct":32,"choice":32,"rt":591.870000003837,"accuracy":1,"outcome":"-1","keys":[2092.735000012908],"total_keys":1,"block":1,"trial":61,"robot":3,"valence":"lose","action":"go","sham":0,"trial_type":"pit-trial","trial_index":74,"time_elapsed":391564,"internal_node_id":"0.0-63.0","task_version":"battery-v0.1"},{"rune":"W","hex":"#3366ff99","correct":-1,"choice":-1,"rt":-1,"accuracy":1,"outcome":"+10","keys":[],"total_keys":0,"block":1,"trial":62,"robot":2,"valence":"win","action":"no-go","sham":0,"trial_type":"pit-trial","trial_index":75,"time_elapsed":395570,"internal_node_id":"0.0-64.0","task_version":"battery-v0.1"},{"rune":"E","hex":"#f73b6a7A","correct":-1,"choice":32,"rt":1009.3199999537319,"accuracy":0,"outcome":"-10","keys":[2510.680000006687],"total_keys":1,"block":1,"trial":63,"robot":4,"valence":"lose","action":"no-go","sham":0,"trial_type":"pit-trial","trial_index":76,"time_elapsed":399284,"internal_node_id":"0.0-65.0","task_version":"battery-v0.1"},{"rune":"J","hex":"#3366ff99","correct":32,"choice":32,"rt":574.945000000298,"accuracy":1,"outcome":"+10","keys":[2076.6699999803677],"total_keys":1,"block":1,"trial":64,"robot":1,"valence":"win","action":"go","sham":0,"trial_type":"pit-trial","trial_index":77,"time_elapsed":402564,"internal_node_id":"0.0-66.0","task_version":"battery-v0.1"},{"rune":"J","hex":"#3366ff99","correct":32,"choice":32,"rt":516.7400000500493,"accuracy":1,"outcome":"+10","keys":[2019.834999984596],"total_keys":1,"block":1,"trial":65,"robot":1,"valence":"win","action":"go","sham":0,"trial_type":"pit-trial","trial_index":78,"time_elapsed":405788,"internal_node_id":"0.0-67.0","task_version":"battery-v0.1"},{"rune":"Z","hex":"#f73b6a7A","correct":32,"choice":32,"rt":850.9900000062771,"accuracy":1,"outcome":"-1","keys":[2355.840000032913],"total_keys":1,"block":1,"trial":66,"robot":3,"valence":"lose","action":"go","sham":0,"trial_type":"pit-trial","trial_index":79,"time_elapsed":409348,"internal_node_id":"0.0-68.0","task_version":"battery-v0.1"},{"rune":"E","hex":"#f73b6a7A","correct":-1,"choice":-1,"rt":-1,"accuracy":1,"outcome":"-10","keys":[],"total_keys":0,"block":1,"trial":67,"robot":4,"valence":"lose","action":"no-go","sham":1,"trial_type":"pit-trial","trial_index":80,"time_elapsed":413355,"internal_node_id":"0.0-69.0","task_version":"battery-v0.1"},{"rune":"W","hex":"#3366ff99","correct":-1,"choice":32,"rt":471.7050000326708,"accuracy":0,"outcome":"+10","keys":[1972.1649999846704],"total_keys":1,"block":1,"trial":68,"robot":2,"valence":"win","action":"no-go","sham":1,"trial_type":"pit-trial","trial_index":81,"time_elapsed":416531,"internal_node_id":"0.0-70.0","task_version":"battery-v0.1"},{"rune":"J","hex":"#3366ff99","correct":32,"choice":32,"rt":511.7999999783933,"accuracy":1,"outcome":"+10","keys":[2012.9050000105053],"total_keys":1,"block":1,"trial":69,"robot":1,"valence":"win","action":"go","sham":0,"trial_type":"pit-trial","trial_index":82,"time_elapsed":419748,"internal_node_id":"0.0-71.0","task_version":"battery-v0.1"},{"rune":"Z","hex":"#f73b6a7A","correct":32,"choice":-1,"rt":-1,"accuracy":0,"outcome":"-10","keys":[],"total_keys":0,"block":1,"trial":70,"robot":3,"valence":"lose","action":"go","sham":0,"trial_type":"pit-trial","trial_index":83,"time_elapsed":423754,"internal_node_id":"0.0-72.0","task_version":"battery-v0.1"},{"rune":"E","hex":"#f73b6a7A","correct":-1,"choice":-1,"rt":-1,"accuracy":1,"outcome":"-10","keys":[],"total_keys":0,"block":1,"trial":71,"robot":4,"valence":"lose","action":"no-go","sham":1,"trial_type":"pit-trial","trial_index":84,"time_elapsed":427757,"internal_node_id":"0.0-73.0","task_version":"battery-v0.1"},{"rune":"W","hex":"#3366ff99","correct":-1,"choice":32,"rt":397.96500001102686,"accuracy":0,"outcome":"+10","keys":[1898.5799999791197],"total_keys":1,"block":1,"trial":72,"robot":2,"valence":"win","action":"no-go","sham":1,"trial_type":"pit-trial","trial_index":85,"time_elapsed":430859,"internal_node_id":"0.0-74.0","task_version":"battery-v0.1"},{"rune":"T","hex":"#3366ff99","correct":32,"choice":32,"rt":943.4800000162795,"accuracy":1,"outcome":"+1","keys":[2444.085000024643],"total_keys":1,"block":1,"trial":73,"robot":1,"valence":"win","action":"go","sham":1,"trial_type":"pit-trial","trial_index":86,"time_elapsed":434507,"internal_node_id":"0.0-75.0","task_version":"battery-v0.1"},{"rune":"W","hex":"#3366ff99","correct":-1,"choice":-1,"rt":-1,"accuracy":1,"outcome":"+10","keys":[],"total_keys":0,"block":1,"trial":74,"robot":2,"valence":"win","action":"no-go","sham":0,"trial_type":"pit-trial","trial_index":87,"time_elapsed":438512,"internal_node_id":"0.0-76.0","task_version":"battery-v0.1"},{"rune":"E","hex":"#f73b6a7A","correct":-1,"choice":-1,"rt":-1,"accuracy":1,"outcome":"-1","keys":[],"total_keys":0,"block":1,"trial":75,"robot":4,"valence":"lose","action":"no-go","sham":0,"trial_type":"pit-trial","trial_index":88,"time_elapsed":442516,"internal_node_id":"0.0-77.0","task_version":"battery-v0.1"},{"rune":"H","hex":"#f73b6a7A","correct":32,"choice":-1,"rt":-1,"accuracy":0,"outcome":"-10","keys":[],"total_keys":0,"block":1,"trial":76,"robot":3,"valence":"lose","action":"go","sham":0,"trial_type":"pit-trial","trial_index":89,"time_elapsed":446520,"internal_node_id":"0.0-78.0","task_version":"battery-v0.1"},{"rune":"W","hex":"#3366ff99","correct":-1,"choice":-1,"rt":-1,"accuracy":1,"outcome":"+1","keys":[3327.9099999926984],"total_keys":1,"block":1,"trial":77,"robot":2,"valence":"win","action":"no-go","sham":1,"trial_type":"pit-trial","trial_index":90,"time_elapsed":450524,"internal_node_id":"0.0-79.0","task_version":"battery-v0.1"},{"rune":"T","hex":"#3366ff99","correct":32,"choice":32,"rt":519.0299999667332,"accuracy":1,"outcome":"+10","keys":[2020.574999973178],"total_keys":1,"block":1,"trial":78,"robot":1,"valence":"win","action":"go","sham":0,"trial_type":"pit-trial","trial_index":91,"time_elapsed":453747,"internal_node_id":"0.0-80.0","task_version":"battery-v0.1"},{"rune":"H","hex":"#f73b6a7A","correct":32,"choice":-1,"rt":-1,"accuracy":0,"outcome":"-1","keys":[],"total_keys":0,"block":1,"trial":79,"robot":3,"valence":"lose","action":"go","sham":1,"trial_type":"pit-trial","trial_index":92,"time_elapsed":457752,"internal_node_id":"0.0-81.0","task_version":"battery-v0.1"},{"rune":"E","hex":"#f73b6a7A","correct":-1,"choice":-1,"rt":-1,"accuracy":1,"outcome":"-1","keys":[2824.224999989383],"total_keys":1,"block":1,"trial":80,"robot":4,"valence":"lose","action":"no-go","sham":0,"trial_type":"pit-trial","trial_index":93,"time_elapsed":461757,"internal_node_id":"0.0-82.0","task_version":"battery-v0.1"},{"rune":"E","hex":"#f73b6a7A","correct":-1,"choice":32,"rt":654.694999975618,"accuracy":0,"outcome":"-10","keys":[2155.7050000410527],"total_keys":1,"block":1,"trial":81,"robot":4,"valence":"lose","action":"no-go","sham":0,"trial_type":"pit-trial","trial_index":94,"time_elapsed":465116,"internal_node_id":"0.0-83.0","task_version":"battery-v0.1"},{"rune":"W","hex":"#3366ff99","correct":-1,"choice":32,"rt":448.4550000051968,"accuracy":0,"outcome":"+10","keys":[1948.485000000801],"total_keys":1,"block":1,"trial":82,"robot":2,"valence":"win","action":"no-go","sham":1,"trial_type":"pit-trial","trial_index":95,"time_elapsed":468268,"internal_node_id":"0.0-84.0","task_version":"battery-v0.1"},{"rune":"H","hex":"#f73b6a7A","correct":32,"choice":-1,"rt":-1,"accuracy":0,"outcome":"-1","keys":[],"total_keys":0,"block":1,"trial":83,"robot":3,"valence":"lose","action":"go","sham":1,"trial_type":"pit-trial","trial_index":96,"time_elapsed":472272,"internal_node_id":"0.0-85.0","task_version":"battery-v0.1"},{"rune":"T","hex":"#3366ff99","correct":32,"choice":-1,"rt":-1,"accuracy":0,"outcome":"+1","keys":[],"total_keys":0,"block":1,"trial":84,"robot":1,"valence":"win","action":"go","sham":0,"trial_type":"pit-trial","trial_index":97,"time_elapsed":476276,"internal_node_id":"0.0-86.0","task_version":"battery-v0.1"},{"rune":"T","hex":"#3366ff99","correct":32,"choice":-1,"rt":-1,"accuracy":0,"outcome":"+1","keys":[],"total_keys":0,"block":1,"trial":85,"robot":1,"valence":"win","action":"go","sham":0,"trial_type":"pit-trial","trial_index":98,"time_elapsed":480280,"internal_node_id":"0.0-87.0","task_version":"battery-v0.1"},{"rune":"E","hex":"#f73b6a7A","correct":-1,"choice":32,"rt":652.4050000007264,"accuracy":0,"outcome":"-1","keys":[2152.9349999618717],"total_keys":1,"block":1,"trial":86,"robot":4,"valence":"lose","action":"no-go","sham":1,"trial_type":"pit-trial","trial_index":99,"time_elapsed":483637,"internal_node_id":"0.0-88.0","task_version":"battery-v0.1"},{"rune":"H","hex":"#f73b6a7A","correct":32,"choice":32,"rt":670.5700000165962,"accuracy":1,"outcome":"-10","keys":[2171.090000018012],"total_keys":1,"block":1,"trial":87,"robot":3,"valence":"lose","action":"go","sham":1,"trial_type":"pit-trial","trial_index":100,"time_elapsed":487011,"internal_node_id":"0.0-89.0","task_version":"battery-v0.1"},{"rune":"W","hex":"#3366ff99","correct":-1,"choice":-1,"rt":-1,"accuracy":1,"outcome":"+1","keys":[],"total_keys":0,"block":1,"trial":88,"robot":2,"valence":"win","action":"no-go","sham":1,"trial_type":"pit-trial","trial_index":101,"time_elapsed":491017,"internal_node_id":"0.0-90.0","task_version":"battery-v0.1"},{"rune":"H","hex":"#f73b6a7A","correct":32,"choice":-1,"rt":-1,"accuracy":0,"outcome":"-1","keys":[],"total_keys":0,"block":1,"trial":89,"robot":3,"valence":"lose","action":"go","sham":1,"trial_type":"pit-trial","trial_index":102,"time_elapsed":495021,"internal_node_id":"0.0-91.0","task_version":"battery-v0.1"},{"rune":"I","hex":"#f73b6a7A","correct":32,"choice":32,"rt":901.8700000015087,"accuracy":1,"outcome":"-1","keys":[2402.5150000234134],"total_keys":1,"block":1,"trial":90,"robot":3,"valence":"lose","action":"go","sham":0,"trial_type":"pit-trial","trial_index":103,"time_elapsed":498628,"internal_node_id":"0.0-92.0","task_version":"battery-v0.1"},{"rune":"T","hex":"#3366ff99","correct":32,"choice":-1,"rt":-1,"accuracy":0,"outcome":"+1","keys":[],"total_keys":0,"block":1,"trial":91,"robot":1,"valence":"win","action":"go","sham":0,"trial_type":"pit-trial","trial_index":104,"time_elapsed":502633,"internal_node_id":"0.0-93.0","task_version":"battery-v0.1"},{"rune":"S","hex":"#3366ff99","correct":-1,"choice":32,"rt":434.0749999973923,"accuracy":0,"outcome":"+1","keys":[1934.9550000042655],"total_keys":1,"block":1,"trial":92,"robot":2,"valence":"win","action":"no-go","sham":0,"trial_type":"pit-trial","trial_index":105,"time_elapsed":505771,"internal_node_id":"0.0-94.0","task_version":"battery-v0.1"},{"rune":"I","hex":"#f73b6a7A","correct":32,"choice":32,"rt":711.4049999509007,"accuracy":1,"outcome":"-1","keys":[2212.719999952242],"total_keys":1,"block":1,"trial":93,"robot":3,"valence":"lose","action":"go","sham":0,"trial_type":"pit-trial","trial_index":106,"time_elapsed":509189,"internal_node_id":"0.0-95.0","task_version":"battery-v0.1"},{"rune":"S","hex":"#3366ff99","correct":-1,"choice":32,"rt":429.36999996891245,"accuracy":0,"outcome":"+10","keys":[1930.9050000156276],"total_keys":1,"block":1,"trial":94,"robot":2,"valence":"win","action":"no-go","sham":1,"trial_type":"pit-trial","trial_index":107,"time_elapsed":512323,"internal_node_id":"0.0-96.0","task_version":"battery-v0.1"},{"rune":"T","hex":"#3366ff99","correct":32,"choice":32,"rt":519.0700000384822,"accuracy":1,"outcome":"+10","keys":[2019.9999999604188],"total_keys":1,"block":1,"trial":95,"robot":1,"valence":"win","action":"go","sham":0,"trial_type":"pit-trial","trial_index":108,"time_elapsed":515547,"internal_node_id":"0.0-97.0","task_version":"battery-v0.1"},{"rune":"H","hex":"#f73b6a7A","correct":32,"choice":-1,"rt":-1,"accuracy":0,"outcome":"-10","keys":[],"total_keys":0,"block":1,"trial":96,"robot":3,"valence":"lose","action":"go","sham":0,"trial_type":"pit-trial","trial_index":109,"time_elapsed":519552,"internal_node_id":"0.0-98.0","task_version":"battery-v0.1"},{"rune":"H","hex":"#f73b6a7A","correct":32,"choice":32,"rt":330.85500000743195,"accuracy":1,"outcome":"-1","keys":[1831.6200000117533],"total_keys":1,"block":1,"trial":97,"robot":3,"valence":"lose","action":"go","sham":0,"trial_type":"pit-trial","trial_index":110,"time_elapsed":522587,"internal_node_id":"0.0-99.0","task_version":"battery-v0.1"},{"rune":"T","hex":"#3366ff99","correct":32,"choice":32,"rt":414.6300000138581,"accuracy":1,"outcome":"+10","keys":[1915.5700000119396],"total_keys":1,"block":1,"trial":98,"robot":1,"valence":"win","action":"go","sham":0,"trial_type":"pit-trial","trial_index":111,"time_elapsed":525707,"internal_node_id":"0.0-100.0","task_version":"battery-v0.1"},{"rune":"I","hex":"#f73b6a7A","correct":32,"choice":32,"rt":526.6950000077486,"accuracy":1,"outcome":"-10","keys":[2027.5100000435486],"total_keys":1,"block":1,"trial":99,"robot":3,"valence":"lose","action":"go","sham":1,"trial_type":"pit-trial","trial_index":112,"time_elapsed":528939,"internal_node_id":"0.0-101.0","task_version":"battery-v0.1"},{"rune":"S","hex":"#3366ff99","correct":-1,"choice":32,"rt":445.78000000910833,"accuracy":0,"outcome":"+1","keys":[1947.4049999844283],"total_keys":1,"block":1,"trial":100,"robot":2,"valence":"win","action":"no-go","sham":0,"trial_type":"pit-trial","trial_index":113,"time_elapsed":532091,"internal_node_id":"0.0-102.0","task_version":"battery-v0.1"},{"rune":"I","hex":"#f73b6a7A","correct":32,"choice":-1,"rt":-1,"accuracy":0,"outcome":"-10","keys":[],"total_keys":0,"block":1,"trial":101,"robot":3,"valence":"lose","action":"go","sham":0,"trial_type":"pit-trial","trial_index":114,"time_elapsed":536096,"internal_node_id":"0.0-103.0","task_version":"battery-v0.1"},{"rune":"T","hex":"#3366ff99","correct":32,"choice":32,"rt":433.8550000102259,"accuracy":1,"outcome":"+10","keys":[1935.5149999610148],"total_keys":1,"block":1,"trial":102,"robot":1,"valence":"win","action":"go","sham":0,"trial_type":"pit-trial","trial_index":115,"time_elapsed":539235,"internal_node_id":"0.0-104.0","task_version":"battery-v0.1"},{"rune":"H","hex":"#f73b6a7A","correct":32,"choice":32,"rt":896.2399999727495,"accuracy":1,"outcome":"-1","keys":[2396.884999994654],"total_keys":1,"block":1,"trial":103,"robot":3,"valence":"lose","action":"go","sham":0,"trial_type":"pit-trial","trial_index":116,"time_elapsed":542835,"internal_node_id":"0.0-105.0","task_version":"battery-v0.1"},{"rune":"S","hex":"#3366ff99","correct":-1,"choice":32,"rt":574.4500000146218,"accuracy":0,"outcome":"+10","keys":[2075.3200000035577],"total_keys":1,"block":1,"trial":104,"robot":2,"valence":"win","action":"no-go","sham":1,"trial_type":"pit-trial","trial_index":117,"time_elapsed":546115,"internal_node_id":"0.0-106.0","task_version":"battery-v0.1"},{"rune":"S","hex":"#3366ff99","correct":-1,"choice":32,"rt":494.42499998258427,"accuracy":0,"outcome":"+1","keys":[1996.1200000252575],"total_keys":1,"block":1,"trial":105,"robot":2,"valence":"win","action":"no-go","sham":0,"trial_type":"pit-trial","trial_index":118,"time_elapsed":549315,"internal_node_id":"0.0-107.0","task_version":"battery-v0.1"},{"rune":"H","hex":"#f73b6a7A","correct":32,"choice":-1,"rt":-1,"accuracy":0,"outcome":"-10","keys":[],"total_keys":0,"block":1,"trial":106,"robot":3,"valence":"lose","action":"go","sham":0,"trial_type":"pit-trial","trial_index":119,"time_elapsed":553321,"internal_node_id":"0.0-108.0","task_version":"battery-v0.1"},{"rune":"I","hex":"#f73b6a7A","correct":32,"choice":-1,"rt":-1,"accuracy":0,"outcome":"-10","keys":[],"total_keys":0,"block":1,"trial":107,"robot":3,"valence":"lose","action":"go","sham":0,"trial_type":"pit-trial","trial_index":120,"time_elapsed":557326,"internal_node_id":"0.0-109.0","task_version":"battery-v0.1"},{"rune":"T","hex":"#3366ff99","correct":32,"choice":32,"rt":547.1550000365824,"accuracy":1,"outcome":"+10","keys":[2048.6750000272878],"total_keys":1,"block":1,"trial":108,"robot":1,"valence":"win","action":"go","sham":0,"trial_type":"pit-trial","trial_index":121,"time_elapsed":560579,"internal_node_id":"0.0-110.0","task_version":"battery-v0.1"},{"rune":"S","hex":"#3366ff99","correct":-1,"choice":32,"rt":374.4099999894388,"accuracy":0,"outcome":"+10","keys":[1875.6850000354461],"total_keys":1,"block":1,"trial":109,"robot":2,"valence":"win","action":"no-go","sham":1,"trial_type":"pit-trial","trial_index":122,"time_elapsed":563659,"internal_node_id":"0.0-111.0","task_version":"battery-v0.1"},{"rune":"H","hex":"#f73b6a7A","correct":32,"choice":32,"rt":862.8499999758787,"accuracy":1,"outcome":"-10","keys":[2363.240000035148],"total_keys":1,"block":1,"trial":110,"robot":3,"valence":"lose","action":"go","sham":1,"trial_type":"pit-trial","trial_index":123,"time_elapsed":567226,"internal_node_id":"0.0-112.0","task_version":"battery-v0.1"},{"rune":"T","hex":"#3366ff99","correct":32,"choice":32,"rt":614.8350000148639,"accuracy":1,"outcome":"+1","keys":[2116.4199999766424],"total_keys":1,"block":1,"trial":111,"robot":1,"valence":"win","action":"go","sham":1,"trial_type":"pit-trial","trial_index":124,"time_elapsed":570546,"internal_node_id":"0.0-113.0","task_version":"battery-v0.1"},{"rune":"I","hex":"#f73b6a7A","correct":32,"choice":32,"rt":616.2400000030175,"accuracy":1,"outcome":"-10","keys":[2117.5899999798276],"total_keys":1,"block":1,"trial":112,"robot":3,"valence":"lose","action":"go","sham":1,"trial_type":"pit-trial","trial_index":125,"time_elapsed":573867,"internal_node_id":"0.0-114.0","task_version":"battery-v0.1"},{"rune":"T","hex":"#3366ff99","correct":32,"choice":-1,"rt":-1,"accuracy":0,"outcome":"+1","keys":[],"total_keys":0,"block":1,"trial":113,"robot":1,"valence":"win","action":"go","sham":0,"trial_type":"pit-trial","trial_index":126,"time_elapsed":577873,"internal_node_id":"0.0-115.0","task_version":"battery-v0.1"},{"rune":"H","hex":"#f73b6a7A","correct":32,"choice":-1,"rt":-1,"accuracy":0,"outcome":"-10","keys":[],"total_keys":0,"block":1,"trial":114,"robot":3,"valence":"lose","action":"go","sham":0,"trial_type":"pit-trial","trial_index":127,"time_elapsed":581880,"internal_node_id":"0.0-116.0","task_version":"battery-v0.1"},{"rune":"S","hex":"#3366ff99","correct":-1,"choice":32,"rt":361.49500001920387,"accuracy":0,"outcome":"+1","keys":[1863.2449999568053],"total_keys":1,"block":1,"trial":115,"robot":2,"valence":"win","action":"no-go","sham":0,"trial_type":"pit-trial","trial_index":128,"time_elapsed":584948,"internal_node_id":"0.0-117.0","task_version":"battery-v0.1"},{"rune":"I","hex":"#f73b6a7A","correct":32,"choice":32,"rt":662.4350000056438,"accuracy":1,"outcome":"-1","keys":[2163.1800000322983],"total_keys":1,"block":1,"trial":116,"robot":3,"valence":"lose","action":"go","sham":0,"trial_type":"pit-trial","trial_index":129,"time_elapsed":588315,"internal_node_id":"0.0-118.0","task_version":"battery-v0.1"},{"rune":"S","hex":"#3366ff99","correct":-1,"choice":32,"rt":374.515000032261,"accuracy":0,"outcome":"+1","keys":[1876.3299999991432],"total_keys":1,"block":1,"trial":117,"robot":2,"valence":"win","action":"no-go","sham":0,"trial_type":"pit-trial","trial_index":130,"time_elapsed":591394,"internal_node_id":"0.0-119.0","task_version":"battery-v0.1"},{"rune":"H","hex":"#f73b6a7A","correct":32,"choice":-1,"rt":-1,"accuracy":0,"outcome":"-10","keys":[],"total_keys":0,"block":1,"trial":118,"robot":3,"valence":"lose","action":"go","sham":0,"trial_type":"pit-trial","trial_index":131,"time_elapsed":595398,"internal_node_id":"0.0-120.0","task_version":"battery-v0.1"},{"rune":"T","hex":"#3366ff99","correct":32,"choice":32,"rt":476.10500000882894,"accuracy":1,"outcome":"+10","keys":[1976.8700000131503],"total_keys":1,"block":1,"trial":119,"robot":1,"valence":"win","action":"go","sham":0,"trial_type":"pit-trial","trial_index":132,"time_elapsed":598580,"internal_node_id":"0.0-121.0","task_version":"battery-v0.1"},{"rune":"I","hex":"#f73b6a7A","correct":32,"choice":32,"rt":709.5749999862164,"accuracy":1,"outcome":"-1","keys":[2211.1450000084005],"total_keys":1,"block":1,"trial":120,"robot":3,"valence":"lose","action":"go","sham":0,"trial_type":"pit-trial","trial_index":133,"time_elapsed":601996,"internal_node_id":"0.0-122.0","task_version":"battery-v0.1"},{"view_history":"[{\"page_index\":0,\"viewing_time\":12894.950000045355},{\"page_index\":1,\"viewing_time\":3407.9599999822676}]","rt":16303.394999995362,"trial_type":"pit-instructions","trial_index":134,"time_elapsed":618301,"internal_node_id":"0.0-123.0","task_version":"battery-v0.1"},{"rune":"V","hex":"#3366ff99","correct":-1,"choice":32,"rt":291.7299999971874,"accuracy":0,"outcome":"+1","keys":[1792.955000011716],"total_keys":1,"block":2,"trial":121,"robot":2,"valence":"win","action":"no-go","sham":0,"trial_type":"pit-trial","trial_index":135,"time_elapsed":621302,"internal_node_id":"0.0-124.0","task_version":"battery-v0.1"},{"rune":"L","hex":"#3366ff99","correct":32,"choice":32,"rt":603.4349999972619,"accuracy":1,"outcome":"+10","keys":[2104.155000008177],"total_keys":1,"block":2,"trial":122,"robot":1,"valence":"win","action":"go","sham":0,"trial_type":"pit-trial","trial_index":136,"time_elapsed":624611,"internal_node_id":"0.0-125.0","task_version":"battery-v0.1"},{"rune":"F","hex":"#3366ff99","correct":32,"choice":-1,"rt":-1,"accuracy":0,"outcome":"+1","keys":[],"total_keys":0,"block":2,"trial":123,"robot":1,"valence":"win","action":"go","sham":0,"trial_type":"pit-trial","trial_index":137,"time_elapsed":628616,"internal_node_id":"0.0-126.0","task_version":"battery-v0.1"},{"rune":"N","hex":"#f73b6a7A","correct":-1,"choice":32,"rt":730.5899999919347,"accuracy":0,"outcome":"-10","keys":[2231.1350000090897],"total_keys":1,"block":2,"trial":124,"robot":4,"valence":"lose","action":"no-go","sham":0,"trial_type":"pit-trial","trial_index":138,"time_elapsed":632051,"internal_node_id":"0.0-127.0","task_version":"battery-v0.1"},{"rune":"V","hex":"#3366ff99","correct":-1,"choice":32,"rt":863.3999999728985,"accuracy":0,"outcome":"+1","keys":[2364.274999999907],"total_keys":1,"block":2,"trial":125,"robot":2,"valence":"win","action":"no-go","sham":0,"trial_type":"pit-trial","trial_index":139,"time_elapsed":635619,"internal_node_id":"0.0-128.0","task_version":"battery-v0.1"},{"rune":"N","hex":"#f73b6a7A","correct":-1,"choice":-1,"rt":-1,"accuracy":1,"outcome":"-10","keys":[],"total_keys":0,"block":2,"trial":126,"robot":4,"valence":"lose","action":"no-go","sham":1,"trial_type":"pit-trial","trial_index":140,"time_elapsed":639625,"internal_node_id":"0.0-129.0","task_version":"battery-v0.1"},{"rune":"L","hex":"#3366ff99","correct":32,"choice":32,"rt":465.1849999791011,"accuracy":1,"outcome":"+10","keys":[1966.0100000328384],"total_keys":1,"block":2,"trial":127,"robot":1,"valence":"win","action":"go","sham":0,"trial_type":"pit-trial","trial_index":141,"time_elapsed":642795,"internal_node_id":"0.0-130.0","task_version":"battery-v0.1"},{"rune":"F","hex":"#3366ff99","correct":32,"choice":32,"rt":398.1449999846518,"accuracy":1,"outcome":"+10","keys":[1899.604999984149],"total_keys":1,"block":2,"trial":128,"robot":1,"valence":"win","action":"go","sham":0,"trial_type":"pit-trial","trial_index":142,"time_elapsed":645899,"internal_node_id":"0.0-131.0","task_version":"battery-v0.1"},{"rune":"N","hex":"#f73b6a7A","correct":-1,"choice":32,"rt":702.1800000220537,"accuracy":0,"outcome":"-1","keys":[2203.5000000032596],"total_keys":1,"block":2,"trial":129,"robot":4,"valence":"lose","action":"no-go","sham":1,"trial_type":"pit-trial","trial_index":143,"time_elapsed":649306,"internal_node_id":"0.0-132.0","task_version":"battery-v0.1"},{"rune":"F","hex":"#3366ff99","correct":32,"choice":32,"rt":502.19999998807907,"accuracy":1,"outcome":"+10","keys":[2003.9100000285544],"total_keys":1,"block":2,"trial":130,"robot":1,"valence":"win","action":"go","sham":0,"trial_type":"pit-trial","trial_index":144,"time_elapsed":652513,"internal_node_id":"0.0-133.0","task_version":"battery-v0.1"},{"rune":"V","hex":"#3366ff99","correct":-1,"choice":-1,"rt":-1,"accuracy":1,"outcome":"+1","keys":[],"total_keys":0,"block":2,"trial":131,"robot":2,"valence":"win","action":"no-go","sham":1,"trial_type":"pit-trial","trial_index":145,"time_elapsed":656518,"internal_node_id":"0.0-134.0","task_version":"battery-v0.1"},{"rune":"L","hex":"#3366ff99","correct":32,"choice":32,"rt":387.334999977611,"accuracy":1,"outcome":"+10","keys":[1888.1950000068173],"total_keys":1,"block":2,"trial":132,"robot":1,"valence":"win","action":"go","sham":0,"trial_type":"pit-trial","trial_index":146,"time_elapsed":659610,"internal_node_id":"0.0-135.0","task_version":"battery-v0.1"},{"rune":"L","hex":"#3366ff99","correct":32,"choice":32,"rt":488.2400000351481,"accuracy":1,"outcome":"+10","keys":[1989.2300000065006],"total_keys":1,"block":2,"trial":133,"robot":1,"valence":"win","action":"go","sham":0,"trial_type":"pit-trial","trial_index":147,"time_elapsed":662802,"internal_node_id":"0.0-136.0","task_version":"battery-v0.1"},{"rune":"F","hex":"#3366ff99","correct":32,"choice":32,"rt":431.4499999745749,"accuracy":1,"outcome":"+10","keys":[1932.5100000132807],"total_keys":1,"block":2,"trial":134,"robot":1,"valence":"win","action":"go","sham":0,"trial_type":"pit-trial","trial_index":148,"time_elapsed":665938,"internal_node_id":"0.0-137.0","task_version":"battery-v0.1"},{"rune":"N","hex":"#f73b6a7A","correct":-1,"choice":-1,"rt":-1,"accuracy":1,"outcome":"-1","keys":[],"total_keys":0,"block":2,"trial":135,"robot":4,"valence":"lose","action":"no-go","sham":0,"trial_type":"pit-trial","trial_index":149,"time_elapsed":669943,"internal_node_id":"0.0-138.0","task_version":"battery-v0.1"},{"rune":"V","hex":"#3366ff99","correct":-1,"choice":32,"rt":490.33000000054017,"accuracy":0,"outcome":"+1","keys":[1990.6600000103936],"total_keys":1,"block":2,"trial":136,"robot":2,"valence":"win","action":"no-go","sham":0,"trial_type":"pit-trial","trial_index":150,"time_elapsed":673138,"internal_node_id":"0.0-139.0","task_version":"battery-v0.1"},{"rune":"N","hex":"#f73b6a7A","correct":-1,"choice":32,"rt":678.8749999832362,"accuracy":0,"outcome":"-10","keys":[2179.665000003297],"total_keys":1,"block":2,"trial":137,"robot":4,"valence":"lose","action":"no-go","sham":0,"trial_type":"pit-trial","trial_index":151,"time_elapsed":676522,"internal_node_id":"0.0-140.0","task_version":"battery-v0.1"},{"rune":"F","hex":"#3366ff99","correct":32,"choice":32,"rt":558.1799999927171,"accuracy":1,"outcome":"+10","keys":[2059.499999973923],"total_keys":1,"block":2,"trial":138,"robot":1,"valence":"win","action":"go","sham":0,"trial_type":"pit-trial","trial_index":152,"time_elapsed":679786,"internal_node_id":"0.0-141.0","task_version":"battery-v0.1"},{"rune":"L","hex":"#3366ff99","correct":32,"choice":32,"rt":398.0199999641627,"accuracy":1,"outcome":"+10","keys":[1899.5749999885447],"total_keys":1,"block":2,"trial":139,"robot":1,"valence":"win","action":"go","sham":0,"trial_type":"pit-trial","trial_index":153,"time_elapsed":682890,"internal_node_id":"0.0-142.0","task_version":"battery-v0.1"},{"rune":"V","hex":"#3366ff99","correct":-1,"choice":-1,"rt":-1,"accuracy":1,"outcome":"+10","keys":[],"total_keys":0,"block":2,"trial":140,"robot":2,"valence":"win","action":"no-go","sham":0,"trial_type":"pit-trial","trial_index":154,"time_elapsed":686895,"internal_node_id":"0.0-143.0","task_version":"battery-v0.1"},{"rune":"V","hex":"#3366ff99","correct":-1,"choice":-1,"rt":-1,"accuracy":1,"outcome":"+10","keys":[],"total_keys":0,"block":2,"trial":141,"robot":2,"valence":"win","action":"no-go","sham":0,"trial_type":"pit-trial","trial_index":155,"time_elapsed":690901,"internal_node_id":"0.0-144.0","task_version":"battery-v0.1"},{"rune":"F","hex":"#3366ff99","correct":32,"choice":32,"rt":444.65499999932945,"accuracy":1,"outcome":"+10","keys":[1944.6999999927357],"total_keys":1,"block":2,"trial":142,"robot":1,"valence":"win","action":"go","sham":0,"trial_type":"pit-trial","trial_index":156,"time_elapsed":694050,"internal_node_id":"0.0-145.0","task_version":"battery-v0.1"},{"rune":"N","hex":"#f73b6a7A","correct":-1,"choice":32,"rt":831.3900000066496,"accuracy":0,"outcome":"-1","keys":[2331.804999965243],"total_keys":1,"block":2,"trial":143,"robot":4,"valence":"lose","action":"no-go","sham":1,"trial_type":"pit-trial","trial_index":157,"time_elapsed":697586,"internal_node_id":"0.0-146.0","task_version":"battery-v0.1"},{"rune":"L","hex":"#3366ff99","correct":32,"choice":32,"rt":527.0850000088103,"accuracy":1,"outcome":"+1","keys":[2027.3500000475906],"total_keys":1,"block":2,"trial":144,"robot":1,"valence":"win","action":"go","sham":1,"trial_type":"pit-trial","trial_index":158,"time_elapsed":700817,"internal_node_id":"0.0-147.0","task_version":"battery-v0.1"},{"rune":"F","hex":"#3366ff99","correct":32,"choice":32,"rt":430.08999997982755,"accuracy":1,"outcome":"+10","keys":[1931.449999974575],"total_keys":1,"block":2,"trial":145,"robot":1,"valence":"win","action":"go","sham":0,"trial_type":"pit-trial","trial_index":159,"time_elapsed":703952,"internal_node_id":"0.0-148.0","task_version":"battery-v0.1"},{"rune":"N","hex":"#f73b6a7A","correct":-1,"choice":-1,"rt":-1,"accuracy":1,"outcome":"-1","keys":[],"total_keys":0,"block":2,"trial":146,"robot":4,"valence":"lose","action":"no-go","sham":0,"trial_type":"pit-trial","trial_index":160,"time_elapsed":707958,"internal_node_id":"0.0-149.0","task_version":"battery-v0.1"},{"rune":"L","hex":"#3366ff99","correct":32,"choice":32,"rt":338.9850000385195,"accuracy":1,"outcome":"+10","keys":[1839.6599999978207],"total_keys":1,"block":2,"trial":147,"robot":1,"valence":"win","action":"go","sham":0,"trial_type":"pit-trial","trial_index":161,"time_elapsed":711001,"internal_node_id":"0.0-150.0","task_version":"battery-v0.1"},{"rune":"V","hex":"#3366ff99","correct":-1,"choice":-1,"rt":-1,"accuracy":1,"outcome":"+10","keys":[],"total_keys":0,"block":2,"trial":148,"robot":2,"valence":"win","action":"no-go","sham":0,"trial_type":"pit-trial","trial_index":162,"time_elapsed":715006,"internal_node_id":"0.0-151.0","task_version":"battery-v0.1"},{"rune":"V","hex":"#3366ff99","correct":-1,"choice":-1,"rt":-1,"accuracy":1,"outcome":"+1","keys":[],"total_keys":0,"block":2,"trial":149,"robot":2,"valence":"win","action":"no-go","sham":1,"trial_type":"pit-trial","trial_index":163,"time_elapsed":719012,"internal_node_id":"0.0-152.0","task_version":"battery-v0.1"},{"rune":"F","hex":"#3366ff99","correct":32,"choice":32,"rt":355.52499996265396,"accuracy":1,"outcome":"+10","keys":[1856.8450000020675],"total_keys":1,"block":2,"trial":150,"robot":1,"valence":"win","action":"go","sham":0,"trial_type":"pit-trial","trial_index":164,"time_elapsed":722074,"internal_node_id":"0.0-153.0","task_version":"battery-v0.1"},{"rune":"L","hex":"#3366ff99","correct":32,"choice":32,"rt":374.149999988731,"accuracy":1,"outcome":"+1","keys":[1874.9299999908544],"total_keys":1,"block":2,"trial":151,"robot":1,"valence":"win","action":"go","sham":1,"trial_type":"pit-trial","trial_index":165,"time_elapsed":725153,"internal_node_id":"0.0-154.0","task_version":"battery-v0.1"},{"rune":"N","hex":"#f73b6a7A","correct":-1,"choice":-1,"rt":-1,"accuracy":1,"outcome":"-1","keys":[],"total_keys":0,"block":2,"trial":152,"robot":4,"valence":"lose","action":"no-go","sham":0,"trial_type":"pit-trial","trial_index":166,"time_elapsed":729158,"internal_node_id":"0.0-155.0","task_version":"battery-v0.1"},{"rune":"F","hex":"#3366ff99","correct":32,"choice":32,"rt":433.019999996759,"accuracy":1,"outcome":"+10","keys":[1934.5450000255369],"total_keys":1,"block":2,"trial":153,"robot":1,"valence":"win","action":"go","sham":0,"trial_type":"pit-trial","trial_index":167,"time_elapsed":732297,"internal_node_id":"0.0-156.0","task_version":"battery-v0.1"},{"rune":"Y","hex":"#3366ff99","correct":32,"choice":-1,"rt":-1,"accuracy":0,"outcome":"+1","keys":[],"total_keys":0,"block":2,"trial":154,"robot":1,"valence":"win","action":"go","sham":0,"trial_type":"pit-trial","trial_index":168,"time_elapsed":736303,"internal_node_id":"0.0-157.0","task_version":"battery-v0.1"},{"rune":"V","hex":"#3366ff99","correct":-1,"choice":32,"rt":553.1300000147894,"accuracy":0,"outcome":"+1","keys":[2053.7250000052154],"total_keys":1,"block":2,"trial":155,"robot":2,"valence":"win","action":"no-go","sham":0,"trial_type":"pit-trial","trial_index":169,"time_elapsed":739561,"internal_node_id":"0.0-158.0","task_version":"battery-v0.1"},{"rune":"N","hex":"#f73b6a7A","correct":-1,"choice":32,"rt":558.2350000040606,"accuracy":0,"outcome":"-10","keys":[2060.0650000269525],"total_keys":1,"block":2,"trial":156,"robot":4,"valence":"lose","action":"no-go","sham":0,"trial_type":"pit-trial","trial_index":170,"time_elapsed":742825,"internal_node_id":"0.0-159.0","task_version":"battery-v0.1"},{"rune":"Y","hex":"#3366ff99","correct":32,"choice":32,"rt":543.9400000032037,"accuracy":1,"outcome":"+10","keys":[2044.1899999859743],"total_keys":1,"block":2,"trial":157,"robot":1,"valence":"win","action":"go","sham":0,"trial_type":"pit-trial","trial_index":171,"time_elapsed":746073,"internal_node_id":"0.0-160.0","task_version":"battery-v0.1"},{"rune":"V","hex":"#3366ff99","correct":-1,"choice":32,"rt":614.3499999889173,"accuracy":0,"outcome":"+1","keys":[2115.909999993164],"total_keys":1,"block":2,"trial":158,"robot":2,"valence":"win","action":"no-go","sham":0,"trial_type":"pit-trial","trial_index":172,"time_elapsed":749392,"internal_node_id":"0.0-161.0","task_version":"battery-v0.1"},{"rune":"F","hex":"#3366ff99","correct":32,"choice":32,"rt":503.9600000018254,"accuracy":1,"outcome":"+10","keys":[2004.1349999955855],"total_keys":1,"block":2,"trial":159,"robot":1,"valence":"win","action":"go","sham":0,"trial_type":"pit-trial","trial_index":173,"time_elapsed":752601,"internal_node_id":"0.0-162.0","task_version":"battery-v0.1"},{"rune":"N","hex":"#f73b6a7A","correct":-1,"choice":32,"rt":671.4550000033341,"accuracy":0,"outcome":"-10","keys":[2171.7700000153854],"total_keys":1,"block":2,"trial":160,"robot":4,"valence":"lose","action":"no-go","sham":0,"trial_type":"pit-trial","trial_index":174,"time_elapsed":755976,"internal_node_id":"0.0-163.0","task_version":"battery-v0.1"},{"rune":"Q","hex":"#f73b6a7A","correct":-1,"choice":-1,"rt":-1,"accuracy":1,"outcome":"-1","keys":[],"total_keys":0,"block":2,"trial":161,"robot":4,"valence":"lose","action":"no-go","sham":0,"trial_type":"pit-trial","trial_index":175,"time_elapsed":759982,"internal_node_id":"0.0-164.0","task_version":"battery-v0.1"},{"rune":"Y","hex":"#3366ff99","correct":32,"choice":32,"rt":577.7949999901466,"accuracy":1,"outcome":"+10","keys":[2079.3749999720603],"total_keys":1,"block":2,"trial":162,"robot":1,"valence":"win","action":"go","sham":0,"trial_type":"pit-trial","trial_index":176,"time_elapsed":763266,"internal_node_id":"0.0-165.0","task_version":"battery-v0.1"},{"rune":"V","hex":"#3366ff99","correct":-1,"choice":-1,"rt":-1,"accuracy":1,"outcome":"+10","keys":[],"total_keys":0,"block":2,"trial":163,"robot":2,"valence":"win","action":"no-go","sham":0,"trial_type":"pit-trial","trial_index":177,"time_elapsed":767271,"internal_node_id":"0.0-166.0","task_version":"battery-v0.1"},{"rune":"X","hex":"#f73b6a7A","correct":32,"choice":-1,"rt":-1,"accuracy":0,"outcome":"-10","keys":[],"total_keys":0,"block":2,"trial":164,"robot":3,"valence":"lose","action":"go","sham":0,"trial_type":"pit-trial","trial_index":178,"time_elapsed":771276,"internal_node_id":"0.0-167.0","task_version":"battery-v0.1"},{"rune":"Y","hex":"#3366ff99","correct":32,"choice":32,"rt":739.3949999823235,"accuracy":1,"outcome":"+1","keys":[2240.914999973029],"total_keys":1,"block":2,"trial":165,"robot":1,"valence":"win","action":"go","sham":1,"trial_type":"pit-trial","trial_index":179,"time_elapsed":774722,"internal_node_id":"0.0-168.0","task_version":"battery-v0.1"},{"rune":"V","hex":"#3366ff99","correct":-1,"choice":-1,"rt":-1,"accuracy":1,"outcome":"+1","keys":[],"total_keys":0,"block":2,"trial":166,"robot":2,"valence":"win","action":"no-go","sham":1,"trial_type":"pit-trial","trial_index":180,"time_elapsed":778728,"internal_node_id":"0.0-169.0","task_version":"battery-v0.1"},{"rune":"Q","hex":"#f73b6a7A","correct":-1,"choice":-1,"rt":-1,"accuracy":1,"outcome":"-10","keys":[],"total_keys":0,"block":2,"trial":167,"robot":4,"valence":"lose","action":"no-go","sham":1,"trial_type":"pit-trial","trial_index":181,"time_elapsed":782734,"internal_node_id":"0.0-170.0","task_version":"battery-v0.1"},{"rune":"X","hex":"#f73b6a7A","correct":32,"choice":32,"rt":554.0299999993294,"accuracy":1,"outcome":"-1","keys":[2055.599999963306],"total_keys":1,"block":2,"trial":168,"robot":3,"valence":"lose","action":"go","sham":0,"trial_type":"pit-trial","trial_index":182,"time_elapsed":785993,"internal_node_id":"0.0-171.0","task_version":"battery-v0.1"},{"rune":"X","hex":"#f73b6a7A","correct":32,"choice":-1,"rt":-1,"accuracy":0,"outcome":"-10","keys":[2915.5400000163354],"total_keys":1,"block":2,"trial":169,"robot":3,"valence":"lose","action":"go","sham":0,"trial_type":"pit-trial","trial_index":183,"time_elapsed":789999,"internal_node_id":"0.0-172.0","task_version":"battery-v0.1"},{"rune":"P","hex":"#3366ff99","correct":-1,"choice":-1,"rt":-1,"accuracy":1,"outcome":"+10","keys":[],"total_keys":0,"block":2,"trial":170,"robot":2,"valence":"win","action":"no-go","sham":0,"trial_type":"pit-trial","trial_index":184,"time_elapsed":794004,"internal_node_id":"0.0-173.0","task_version":"battery-v0.1"},{"rune":"Y","hex":"#3366ff99","correct":32,"choice":32,"rt":547.7550000068732,"accuracy":1,"outcome":"+10","keys":[2049.3850000202656],"total_keys":1,"block":2,"trial":171,"robot":1,"valence":"win","action":"go","sham":0,"trial_type":"pit-trial","trial_index":185,"time_elapsed":797257,"internal_node_id":"0.0-174.0","task_version":"battery-v0.1"},{"rune":"Q","hex":"#f73b6a7A","correct":-1,"choice":32,"rt":670.7400000304915,"accuracy":0,"outcome":"-1","keys":[2172.2249999875203],"total_keys":1,"block":2,"trial":172,"robot":4,"valence":"lose","action":"no-go","sham":1,"trial_type":"pit-trial","trial_index":186,"time_elapsed":800633,"internal_node_id":"0.0-175.0","task_version":"battery-v0.1"},{"rune":"P","hex":"#3366ff99","correct":-1,"choice":32,"rt":477.81999997096136,"accuracy":0,"outcome":"+1","keys":[1979.4149999506772],"total_keys":1,"block":2,"trial":173,"robot":2,"valence":"win","action":"no-go","sham":0,"trial_type":"pit-trial","trial_index":187,"time_elapsed":803817,"internal_node_id":"0.0-176.0","task_version":"battery-v0.1"},{"rune":"X","hex":"#f73b6a7A","correct":32,"choice":-1,"rt":-1,"accuracy":0,"outcome":"-10","keys":[],"total_keys":0,"block":2,"trial":174,"robot":3,"valence":"lose","action":"go","sham":0,"trial_type":"pit-trial","trial_index":188,"time_elapsed":807823,"internal_node_id":"0.0-177.0","task_version":"battery-v0.1"},{"rune":"Q","hex":"#f73b6a7A","correct":-1,"choice":32,"rt":528.6900000064634,"accuracy":0,"outcome":"-10","keys":[2029.3499999679625],"total_keys":1,"block":2,"trial":175,"robot":4,"valence":"lose","action":"no-go","sham":0,"trial_type":"pit-trial","trial_index":189,"time_elapsed":811057,"internal_node_id":"0.0-178.0","task_version":"battery-v0.1"},{"rune":"Y","hex":"#3366ff99","correct":32,"choice":32,"rt":509.78999998187646,"accuracy":1,"outcome":"+10","keys":[2011.5649999934249],"total_keys":1,"block":2,"trial":176,"robot":1,"valence":"win","action":"go","sham":0,"trial_type":"pit-trial","trial_index":190,"time_elapsed":814272,"internal_node_id":"0.0-179.0","task_version":"battery-v0.1"},{"rune":"P","hex":"#3366ff99","correct":-1,"choice":32,"rt":597.6900000241585,"accuracy":0,"outcome":"+1","keys":[2098.9600000320934],"total_keys":1,"block":2,"trial":177,"robot":2,"valence":"win","action":"no-go","sham":0,"trial_type":"pit-trial","trial_index":191,"time_elapsed":817577,"internal_node_id":"0.0-180.0","task_version":"battery-v0.1"},{"rune":"X","hex":"#f73b6a7A","correct":32,"choice":-1,"rt":-1,"accuracy":0,"outcome":"-10","keys":[],"total_keys":0,"block":2,"trial":178,"robot":3,"valence":"lose","action":"go","sham":0,"trial_type":"pit-trial","trial_index":192,"time_elapsed":821581,"internal_node_id":"0.0-181.0","task_version":"battery-v0.1"},{"rune":"Y","hex":"#3366ff99","correct":32,"choice":32,"rt":410.62999999849126,"accuracy":1,"outcome":"+10","keys":[1912.2849999694154],"total_keys":1,"block":2,"trial":179,"robot":1,"valence":"win","action":"go","sham":0,"trial_type":"pit-trial","trial_index":193,"time_elapsed":824697,"internal_node_id":"0.0-182.0","task_version":"battery-v0.1"},{"rune":"Q","hex":"#f73b6a7A","correct":-1,"choice":32,"rt":597.4500000011176,"accuracy":0,"outcome":"-10","keys":[2098.7500000046566],"total_keys":1,"block":2,"trial":180,"robot":4,"valence":"lose","action":"no-go","sham":0,"trial_type":"pit-trial","trial_index":194,"time_elapsed":828001,"internal_node_id":"0.0-183.0","task_version":"battery-v0.1"},{"rune":"Q","hex":"#f73b6a7A","correct":-1,"choice":-1,"rt":-1,"accuracy":1,"outcome":"-10","keys":[],"total_keys":0,"block":2,"trial":181,"robot":4,"valence":"lose","action":"no-go","sham":1,"trial_type":"pit-trial","trial_index":195,"time_elapsed":832007,"internal_node_id":"0.0-184.0","task_version":"battery-v0.1"},{"rune":"P","hex":"#3366ff99","correct":-1,"choice":32,"rt":408.64999999757856,"accuracy":0,"outcome":"+1","keys":[1909.4499999773689],"total_keys":1,"block":2,"trial":182,"robot":2,"valence":"win","action":"no-go","sham":0,"trial_type":"pit-trial","trial_index":196,"time_elapsed":835120,"internal_node_id":"0.0-185.0","task_version":"battery-v0.1"},{"rune":"X","hex":"#f73b6a7A","correct":32,"choice":-1,"rt":-1,"accuracy":0,"outcome":"-10","keys":[],"total_keys":0,"block":2,"trial":183,"robot":3,"valence":"lose","action":"go","sham":0,"trial_type":"pit-trial","trial_index":197,"time_elapsed":839126,"internal_node_id":"0.0-186.0","task_version":"battery-v0.1"},{"rune":"Y","hex":"#3366ff99","correct":32,"choice":32,"rt":465.570000000298,"accuracy":1,"outcome":"+10","keys":[1965.6299999915063],"total_keys":1,"block":2,"trial":184,"robot":1,"valence":"win","action":"go","sham":0,"trial_type":"pit-trial","trial_index":198,"time_elapsed":842296,"internal_node_id":"0.0-187.0","task_version":"battery-v0.1"},{"rune":"X","hex":"#f73b6a7A","correct":32,"choice":32,"rt":543.0199999827892,"accuracy":1,"outcome":"-1","keys":[2043.915000045672],"total_keys":1,"block":2,"trial":185,"robot":3,"valence":"lose","action":"go","sham":0,"trial_type":"pit-trial","trial_index":199,"time_elapsed":845543,"internal_node_id":"0.0-188.0","task_version":"battery-v0.1"},{"rune":"Q","hex":"#f73b6a7A","correct":-1,"choice":-1,"rt":-1,"accuracy":1,"outcome":"-1","keys":[],"total_keys":0,"block":2,"trial":186,"robot":4,"valence":"lose","action":"no-go","sham":0,"trial_type":"pit-trial","trial_index":200,"time_elapsed":849548,"internal_node_id":"0.0-189.0","task_version":"battery-v0.1"},{"rune":"Y","hex":"#3366ff99","correct":32,"choice":32,"rt":506.43000000854954,"accuracy":1,"outcome":"+1","keys":[2007.2849999996834],"total_keys":1,"block":2,"trial":187,"robot":1,"valence":"win","action":"go","sham":1,"trial_type":"pit-trial","trial_index":201,"time_elapsed":852759,"internal_node_id":"0.0-190.0","task_version":"battery-v0.1"},{"rune":"P","hex":"#3366ff99","correct":-1,"choice":32,"rt":568.024999985937,"accuracy":0,"outcome":"+1","keys":[2068.5250000096858],"total_keys":1,"block":2,"trial":188,"robot":2,"valence":"win","action":"no-go","sham":0,"trial_type":"pit-trial","trial_index":202,"time_elapsed":856032,"internal_node_id":"0.0-191.0","task_version":"battery-v0.1"},{"rune":"Q","hex":"#f73b6a7A","correct":-1,"choice":32,"rt":582.094999961555,"accuracy":0,"outcome":"-10","keys":[2082.9849999863654],"total_keys":1,"block":2,"trial":189,"robot":4,"valence":"lose","action":"no-go","sham":0,"trial_type":"pit-trial","trial_index":203,"time_elapsed":859319,"internal_node_id":"0.0-192.0","task_version":"battery-v0.1"},{"rune":"Y","hex":"#3366ff99","correct":32,"choice":32,"rt":455.66500001586974,"accuracy":1,"outcome":"+10","keys":[1956.4949999912642],"total_keys":1,"block":2,"trial":190,"robot":1,"valence":"win","action":"go","sham":0,"trial_type":"pit-trial","trial_index":204,"time_elapsed":862479,"internal_node_id":"0.0-193.0","task_version":"battery-v0.1"},{"rune":"X","hex":"#f73b6a7A","correct":32,"choice":32,"rt":1119.9299999861978,"accuracy":1,"outcome":"-1","keys":[2621.2700000032783],"total_keys":1,"block":2,"trial":191,"robot":3,"valence":"lose","action":"go","sham":0,"trial_type":"pit-trial","trial_index":205,"time_elapsed":866304,"internal_node_id":"0.0-194.0","task_version":"battery-v0.1"},{"rune":"P","hex":"#3366ff99","correct":-1,"choice":-1,"rt":-1,"accuracy":1,"outcome":"+10","keys":[],"total_keys":0,"block":2,"trial":192,"robot":2,"valence":"win","action":"no-go","sham":0,"trial_type":"pit-trial","trial_index":206,"time_elapsed":870310,"internal_node_id":"0.0-195.0","task_version":"battery-v0.1"},{"rune":"P","hex":"#3366ff99","correct":-1,"choice":-1,"rt":-1,"accuracy":1,"outcome":"+10","keys":[],"total_keys":0,"block":2,"trial":193,"robot":2,"valence":"win","action":"no-go","sham":0,"trial_type":"pit-trial","trial_index":207,"time_elapsed":874315,"internal_node_id":"0.0-196.0","task_version":"battery-v0.1"},{"rune":"Y","hex":"#3366ff99","correct":32,"choice":-1,"rt":-1,"accuracy":0,"outcome":"+1","keys":[],"total_keys":0,"block":2,"trial":194,"robot":1,"valence":"win","action":"go","sham":0,"trial_type":"pit-trial","trial_index":208,"time_elapsed":878321,"internal_node_id":"0.0-197.0","task_version":"battery-v0.1"},{"rune":"Q","hex":"#f73b6a7A","correct":-1,"choice":-1,"rt":-1,"accuracy":1,"outcome":"-10","keys":[],"total_keys":0,"block":2,"trial":195,"robot":4,"valence":"lose","action":"no-go","sham":1,"trial_type":"pit-trial","trial_index":209,"time_elapsed":882326,"internal_node_id":"0.0-198.0","task_version":"battery-v0.1"},{"rune":"M","hex":"#f73b6a7A","correct":32,"choice":32,"rt":872.3800000152551,"accuracy":1,"outcome":"-1","keys":[2373.1949999928474],"total_keys":1,"block":2,"trial":196,"robot":3,"valence":"lose","action":"go","sham":0,"trial_type":"pit-trial","trial_index":210,"time_elapsed":885903,"internal_node_id":"0.0-199.0","task_version":"battery-v0.1"},{"rune":"Q","hex":"#f73b6a7A","correct":-1,"choice":32,"rt":390.4249999905005,"accuracy":0,"outcome":"-10","keys":[1891.8999999877997],"total_keys":1,"block":2,"trial":197,"robot":4,"valence":"lose","action":"no-go","sham":0,"trial_type":"pit-trial","trial_index":211,"time_elapsed":888999,"internal_node_id":"0.0-200.0","task_version":"battery-v0.1"},{"rune":"M","hex":"#f73b6a7A","correct":32,"choice":32,"rt":710.5350000201724,"accuracy":1,"outcome":"-1","keys":[2212.0299999951385],"total_keys":1,"block":2,"trial":198,"robot":3,"valence":"lose","action":"go","sham":0,"trial_type":"pit-trial","trial_index":212,"time_elapsed":892416,"internal_node_id":"0.0-201.0","task_version":"battery-v0.1"},{"rune":"Y","hex":"#3366ff99","correct":32,"choice":32,"rt":573.0050000129268,"accuracy":1,"outcome":"+10","keys":[2074.6950000175275],"total_keys":1,"block":2,"trial":199,"robot":1,"valence":"win","action":"go","sham":0,"trial_type":"pit-trial","trial_index":213,"time_elapsed":895694,"internal_node_id":"0.0-202.0","task_version":"battery-v0.1"},{"rune":"P","hex":"#3366ff99","correct":-1,"choice":-1,"rt":-1,"accuracy":1,"outcome":"+10","keys":[],"total_keys":0,"block":2,"trial":200,"robot":2,"valence":"win","action":"no-go","sham":0,"trial_type":"pit-trial","trial_index":214,"time_elapsed":899699,"internal_node_id":"0.0-203.0","task_version":"battery-v0.1"},{"rune":"P","hex":"#3366ff99","correct":-1,"choice":-1,"rt":-1,"accuracy":1,"outcome":"+10","keys":[],"total_keys":0,"block":2,"trial":201,"robot":2,"valence":"win","action":"no-go","sham":0,"trial_type":"pit-trial","trial_index":215,"time_elapsed":903706,"internal_node_id":"0.0-204.0","task_version":"battery-v0.1"},{"rune":"M","hex":"#f73b6a7A","correct":32,"choice":32,"rt":629.3099999893457,"accuracy":1,"outcome":"-1","keys":[2130.089999991469],"total_keys":1,"block":2,"trial":202,"robot":3,"valence":"lose","action":"go","sham":0,"trial_type":"pit-trial","trial_index":216,"time_elapsed":907039,"internal_node_id":"0.0-205.0","task_version":"battery-v0.1"},{"rune":"U","hex":"#f73b6a7A","correct":32,"choice":-1,"rt":-1,"accuracy":0,"outcome":"-10","keys":[],"total_keys":0,"block":2,"trial":203,"robot":3,"valence":"lose","action":"go","sham":0,"trial_type":"pit-trial","trial_index":217,"time_elapsed":911045,"internal_node_id":"0.0-206.0","task_version":"battery-v0.1"},{"rune":"Q","hex":"#f73b6a7A","correct":-1,"choice":32,"rt":560.6750000151806,"accuracy":0,"outcome":"-10","keys":[2062.1749999700114],"total_keys":1,"block":2,"trial":204,"robot":4,"valence":"lose","action":"no-go","sham":0,"trial_type":"pit-trial","trial_index":218,"time_elapsed":914311,"internal_node_id":"0.0-207.0","task_version":"battery-v0.1"},{"rune":"U","hex":"#f73b6a7A","correct":32,"choice":32,"rt":870.374999998603,"accuracy":1,"outcome":"-1","keys":[2371.0900000296533],"total_keys":1,"block":2,"trial":205,"robot":3,"valence":"lose","action":"go","sham":0,"trial_type":"pit-trial","trial_index":219,"time_elapsed":917887,"internal_node_id":"0.0-208.0","task_version":"battery-v0.1"},{"rune":"Q","hex":"#f73b6a7A","correct":-1,"choice":32,"rt":573.8949999795295,"accuracy":0,"outcome":"-10","keys":[2075.3000000258908],"total_keys":1,"block":2,"trial":206,"robot":4,"valence":"lose","action":"no-go","sham":0,"trial_type":"pit-trial","trial_index":220,"time_elapsed":921167,"internal_node_id":"0.0-209.0","task_version":"battery-v0.1"},{"rune":"M","hex":"#f73b6a7A","correct":32,"choice":-1,"rt":-1,"accuracy":0,"outcome":"-10","keys":[2931.375000043772],"total_keys":1,"block":2,"trial":207,"robot":3,"valence":"lose","action":"go","sham":0,"trial_type":"pit-trial","trial_index":221,"time_elapsed":925173,"internal_node_id":"0.0-210.0","task_version":"battery-v0.1"},{"rune":"P","hex":"#3366ff99","correct":-1,"choice":32,"rt":368.69999999180436,"accuracy":0,"outcome":"+1","keys":[1870.0900000403635],"total_keys":1,"block":2,"trial":208,"robot":2,"valence":"win","action":"no-go","sham":0,"trial_type":"pit-trial","trial_index":222,"time_elapsed":928247,"internal_node_id":"0.0-211.0","task_version":"battery-v0.1"},{"rune":"M","hex":"#f73b6a7A","correct":32,"choice":32,"rt":958.2299999892712,"accuracy":1,"outcome":"-1","keys":[2459.5850000041537],"total_keys":1,"block":2,"trial":209,"robot":3,"valence":"lose","action":"go","sham":0,"trial_type":"pit-trial","trial_index":223,"time_elapsed":931910,"internal_node_id":"0.0-212.0","task_version":"battery-v0.1"},{"rune":"D","hex":"#3366ff99","correct":-1,"choice":32,"rt":430.3100000252016,"accuracy":0,"outcome":"+10","keys":[1931.6749999998137],"total_keys":1,"block":2,"trial":210,"robot":2,"valence":"win","action":"no-go","sham":1,"trial_type":"pit-trial","trial_index":224,"time_elapsed":935047,"internal_node_id":"0.0-213.0","task_version":"battery-v0.1"},{"rune":"U","hex":"#f73b6a7A","correct":32,"choice":32,"rt":550.9199999505654,"accuracy":1,"outcome":"-1","keys":[2052.2900000214577],"total_keys":1,"block":2,"trial":211,"robot":3,"valence":"lose","action":"go","sham":0,"trial_type":"pit-trial","trial_index":225,"time_elapsed":938303,"internal_node_id":"0.0-214.0","task_version":"battery-v0.1"},{"rune":"G","hex":"#f73b6a7A","correct":-1,"choice":32,"rt":376.2350000324659,"accuracy":0,"outcome":"-10","keys":[1876.2700000079349],"total_keys":1,"block":2,"trial":212,"robot":4,"valence":"lose","action":"no-go","sham":0,"trial_type":"pit-trial","trial_index":226,"time_elapsed":941384,"internal_node_id":"0.0-215.0","task_version":"battery-v0.1"},{"rune":"G","hex":"#f73b6a7A","correct":-1,"choice":-1,"rt":-1,"accuracy":1,"outcome":"-1","keys":[],"total_keys":0,"block":2,"trial":213,"robot":4,"valence":"lose","action":"no-go","sham":0,"trial_type":"pit-trial","trial_index":227,"time_elapsed":945389,"internal_node_id":"0.0-216.0","task_version":"battery-v0.1"},{"rune":"D","hex":"#3366ff99","correct":-1,"choice":32,"rt":641.1799999768846,"accuracy":0,"outcome":"+1","keys":[2142.130000051111],"total_keys":1,"block":2,"trial":214,"robot":2,"valence":"win","action":"no-go","sham":0,"trial_type":"pit-trial","trial_index":228,"time_elapsed":948736,"internal_node_id":"0.0-217.0","task_version":"battery-v0.1"},{"rune":"U","hex":"#f73b6a7A","correct":32,"choice":32,"rt":686.1849999986589,"accuracy":1,"outcome":"-1","keys":[2187.1850000461563],"total_keys":1,"block":2,"trial":215,"robot":3,"valence":"lose","action":"go","sham":0,"trial_type":"pit-trial","trial_index":229,"time_elapsed":952127,"internal_node_id":"0.0-218.0","task_version":"battery-v0.1"},{"rune":"M","hex":"#f73b6a7A","correct":32,"choice":-1,"rt":-1,"accuracy":0,"outcome":"-10","keys":[],"total_keys":0,"block":2,"trial":216,"robot":3,"valence":"lose","action":"go","sham":0,"trial_type":"pit-trial","trial_index":230,"time_elapsed":956133,"internal_node_id":"0.0-219.0","task_version":"battery-v0.1"},{"rune":"U","hex":"#f73b6a7A","correct":32,"choice":32,"rt":424.99500000849366,"accuracy":1,"outcome":"-1","keys":[1926.4350000303239],"total_keys":1,"block":2,"trial":217,"robot":3,"valence":"lose","action":"go","sham":0,"trial_type":"pit-trial","trial_index":231,"time_elapsed":959264,"internal_node_id":"0.0-220.0","task_version":"battery-v0.1"},{"rune":"M","hex":"#f73b6a7A","correct":32,"choice":-1,"rt":-1,"accuracy":0,"outcome":"-10","keys":[],"total_keys":0,"block":2,"trial":218,"robot":3,"valence":"lose","action":"go","sham":0,"trial_type":"pit-trial","trial_index":232,"time_elapsed":963269,"internal_node_id":"0.0-221.0","task_version":"battery-v0.1"},{"rune":"G","hex":"#f73b6a7A","correct":-1,"choice":32,"rt":257.02499999897555,"accuracy":0,"outcome":"-10","keys":[1757.6300000073388],"total_keys":1,"block":2,"trial":219,"robot":4,"valence":"lose","action":"no-go","sham":0,"trial_type":"pit-trial","trial_index":233,"time_elapsed":966232,"internal_node_id":"0.0-222.0","task_version":"battery-v0.1"},{"rune":"D","hex":"#3366ff99","correct":-1,"choice":32,"rt":1109.8300000303425,"accuracy":0,"outcome":"+10","keys":[2611.3250000053085],"total_keys":1,"block":2,"trial":220,"robot":2,"valence":"win","action":"no-go","sham":1,"trial_type":"pit-trial","trial_index":234,"time_elapsed":970047,"internal_node_id":"0.0-223.0","task_version":"battery-v0.1"},{"rune":"D","hex":"#3366ff99","correct":-1,"choice":32,"rt":397.85000000847504,"accuracy":0,"outcome":"+1","keys":[1899.085000040941],"total_keys":1,"block":2,"trial":221,"robot":2,"valence":"win","action":"no-go","sham":0,"trial_type":"pit-trial","trial_index":235,"time_elapsed":973150,"internal_node_id":"0.0-224.0","task_version":"battery-v0.1"},{"rune":"M","hex":"#f73b6a7A","correct":32,"choice":32,"rt":695.5500000040047,"accuracy":1,"outcome":"-10","keys":[2196.4500000467524],"total_keys":1,"block":2,"trial":222,"robot":3,"valence":"lose","action":"go","sham":1,"trial_type":"pit-trial","trial_index":236,"time_elapsed":976550,"internal_node_id":"0.0-225.0","task_version":"battery-v0.1"},{"rune":"U","hex":"#f73b6a7A","correct":32,"choice":32,"rt":1071.0899999830872,"accuracy":1,"outcome":"-1","keys":[2572.8200000012293],"total_keys":1,"block":2,"trial":223,"robot":3,"valence":"lose","action":"go","sham":0,"trial_type":"pit-trial","trial_index":237,"time_elapsed":980328,"internal_node_id":"0.0-226.0","task_version":"battery-v0.1"},{"rune":"G","hex":"#f73b6a7A","correct":-1,"choice":32,"rt":486.32999998517334,"accuracy":0,"outcome":"-10","keys":[1986.925000033807],"total_keys":1,"block":2,"trial":224,"robot":4,"valence":"lose","action":"no-go","sham":0,"trial_type":"pit-trial","trial_index":238,"time_elapsed":983519,"internal_node_id":"0.0-227.0","task_version":"battery-v0.1"},{"rune":"G","hex":"#f73b6a7A","correct":-1,"choice":-1,"rt":-1,"accuracy":1,"outcome":"-1","keys":[],"total_keys":0,"block":2,"trial":225,"robot":4,"valence":"lose","action":"no-go","sham":0,"trial_type":"pit-trial","trial_index":239,"time_elapsed":987524,"internal_node_id":"0.0-228.0","task_version":"battery-v0.1"},{"rune":"U","hex":"#f73b6a7A","correct":32,"choice":32,"rt":522.739999985788,"accuracy":1,"outcome":"-10","keys":[2023.8400000380352],"total_keys":1,"block":2,"trial":226,"robot":3,"valence":"lose","action":"go","sham":1,"trial_type":"pit-trial","trial_index":240,"time_elapsed":990751,"internal_node_id":"0.0-229.0","task_version":"battery-v0.1"},{"rune":"M","hex":"#f73b6a7A","correct":32,"choice":-1,"rt":-1,"accuracy":0,"outcome":"-10","keys":[],"total_keys":0,"block":2,"trial":227,"robot":3,"valence":"lose","action":"go","sham":0,"trial_type":"pit-trial","trial_index":241,"time_elapsed":994757,"internal_node_id":"0.0-230.0","task_version":"battery-v0.1"},{"rune":"D","hex":"#3366ff99","correct":-1,"choice":32,"rt":512.6049999962561,"accuracy":0,"outcome":"+1","keys":[2013.2849999936298],"total_keys":1,"block":2,"trial":228,"robot":2,"valence":"win","action":"no-go","sham":0,"trial_type":"pit-trial","trial_index":242,"time_elapsed":997975,"internal_node_id":"0.0-231.0","task_version":"battery-v0.1"},{"rune":"G","hex":"#f73b6a7A","correct":-1,"choice":-1,"rt":-1,"accuracy":1,"outcome":"-1","keys":[],"total_keys":0,"block":2,"trial":229,"robot":4,"valence":"lose","action":"no-go","sham":0,"trial_type":"pit-trial","trial_index":243,"time_elapsed":1001979,"internal_node_id":"0.0-232.0","task_version":"battery-v0.1"},{"rune":"U","hex":"#f73b6a7A","correct":32,"choice":32,"rt":634.7350000287406,"accuracy":1,"outcome":"-1","keys":[2135.629999975208],"total_keys":1,"block":2,"trial":230,"robot":3,"valence":"lose","action":"go","sham":0,"trial_type":"pit-trial","trial_index":244,"time_elapsed":1005319,"internal_node_id":"0.0-233.0","task_version":"battery-v0.1"},{"rune":"M","hex":"#f73b6a7A","correct":32,"choice":32,"rt":741.3100000121631,"accuracy":1,"outcome":"-1","keys":[2242.1449999674223],"total_keys":1,"block":2,"trial":231,"robot":3,"valence":"lose","action":"go","sham":0,"trial_type":"pit-trial","trial_index":245,"time_elapsed":1008766,"internal_node_id":"0.0-234.0","task_version":"battery-v0.1"},{"rune":"D","hex":"#3366ff99","correct":-1,"choice":32,"rt":519.0850000362843,"accuracy":0,"outcome":"+1","keys":[2019.815000006929],"total_keys":1,"block":2,"trial":232,"robot":2,"valence":"win","action":"no-go","sham":0,"trial_type":"pit-trial","trial_index":246,"time_elapsed":1011990,"internal_node_id":"0.0-235.0","task_version":"battery-v0.1"},{"rune":"U","hex":"#f73b6a7A","correct":32,"choice":32,"rt":374.24999999348074,"accuracy":1,"outcome":"-1","keys":[1875.7900000200607],"total_keys":1,"block":2,"trial":233,"robot":3,"valence":"lose","action":"go","sham":0,"trial_type":"pit-trial","trial_index":247,"time_elapsed":1015070,"internal_node_id":"0.0-236.0","task_version":"battery-v0.1"},{"rune":"M","hex":"#f73b6a7A","correct":32,"choice":32,"rt":567.0049999607727,"accuracy":1,"outcome":"-1","keys":[2068.1149999727495],"total_keys":1,"block":2,"trial":234,"robot":3,"valence":"lose","action":"go","sham":0,"trial_type":"pit-trial","trial_index":248,"time_elapsed":1018341,"internal_node_id":"0.0-237.0","task_version":"battery-v0.1"},{"rune":"D","hex":"#3366ff99","correct":-1,"choice":-1,"rt":-1,"accuracy":1,"outcome":"+10","keys":[],"total_keys":0,"block":2,"trial":235,"robot":2,"valence":"win","action":"no-go","sham":0,"trial_type":"pit-trial","trial_index":249,"time_elapsed":1022346,"internal_node_id":"0.0-238.0","task_version":"battery-v0.1"},{"rune":"G","hex":"#f73b6a7A","correct":-1,"choice":32,"rt":459.1449999716133,"accuracy":0,"outcome":"-10","keys":[1959.7599999979138],"total_keys":1,"block":2,"trial":236,"robot":4,"valence":"lose","action":"no-go","sham":0,"trial_type":"pit-trial","trial_index":250,"time_elapsed":1025511,"internal_node_id":"0.0-239.0","task_version":"battery-v0.1"},{"rune":"U","hex":"#f73b6a7A","correct":32,"choice":32,"rt":710.1350000011735,"accuracy":1,"outcome":"-10","keys":[2211.4450000226498],"total_keys":1,"block":2,"trial":237,"robot":3,"valence":"lose","action":"go","sham":1,"trial_type":"pit-trial","trial_index":251,"time_elapsed":1028926,"internal_node_id":"0.0-240.0","task_version":"battery-v0.1"},{"rune":"M","hex":"#f73b6a7A","correct":32,"choice":32,"rt":846.8149999971502,"accuracy":1,"outcome":"-10","keys":[2347.6450000307523],"total_keys":1,"block":2,"trial":238,"robot":3,"valence":"lose","action":"go","sham":1,"trial_type":"pit-trial","trial_index":252,"time_elapsed":1032478,"internal_node_id":"0.0-241.0","task_version":"battery-v0.1"},{"rune":"D","hex":"#3366ff99","correct":-1,"choice":-1,"rt":-1,"accuracy":1,"outcome":"+10","keys":[],"total_keys":0,"block":2,"trial":239,"robot":2,"valence":"win","action":"no-go","sham":0,"trial_type":"pit-trial","trial_index":253,"time_elapsed":1036483,"internal_node_id":"0.0-242.0","task_version":"battery-v0.1"},{"rune":"G","hex":"#f73b6a7A","correct":-1,"choice":-1,"rt":-1,"accuracy":1,"outcome":"-1","keys":[],"total_keys":0,"block":2,"trial":240,"robot":4,"valence":"lose","action":"no-go","sham":0,"trial_type":"pit-trial","trial_index":254,"time_elapsed":1040488,"internal_node_id":"0.0-243.0","task_version":"battery-v0.1"},{"view_history":"[{\"page_index\":0,\"viewing_time\":3894.0099999890663}]","rt":3894.495000015013,"trial_type":"pit-instructions","trial_index":255,"time_elapsed":1044384,"internal_node_id":"0.0-244.0","task_version":"battery-v0.1"},{"rt":16093.909999995958,"responses":{"age":"65","gender-categorical":"Female","gender-free-response":"","ethnicity":"Not Hispanic or Latino","race":["White"],"language":"Yes","fluency":"Very well"},"survey":"demographics","trial_type":"survey-demo","trial_index":256,"time_elapsed":1060481,"internal_node_id":"0.0-245.0","task_version":"battery-v0.1"},{"rt":55443.350000015926,"responses":{"difficulty":"4","fun":"5","clarity":"5","strategy":"I tried to mentally note which robots were more likely to need repairs and which were more likely not to, although I still got several wrong","feedback":"Thank you for the opportunity to participate"},"survey":"debrief","trial_type":"survey-debrief","trial_index":257,"time_elapsed":1115928,"internal_node_id":"0.0-246.0","task_version":"battery-v0.1","interactions":"[{\"event\":\"blur\",\"trial\":84,\"time\":425591},{\"event\":\"focus\",\"trial\":85,\"time\":428402},{\"event\":\"blur\",\"trial\":86,\"time\":431670},{\"event\":\"focus\",\"trial\":86,\"time\":432922},{\"event\":\"blur\",\"trial\":88,\"time\":440353},{\"event\":\"focus\",\"trial\":90,\"time\":449413},{\"event\":\"blur\",\"trial\":97,\"time\":475662},{\"event\":\"focus\",\"trial\":98,\"time\":479041}]"}]