[{"view_history":"[{\"page_index\":0,\"viewing_time\":237460.40000000357},{\"page_index\":1,\"viewing_time\":3492.8949999957695},{\"page_index\":2,\"viewing_time\":1178.8400000004913},{\"page_index\":3,\"viewing_time\":7894.119999997201},{\"page_index\":4,\"viewing_time\":3054.0099999998347},{\"page_index\":5,\"viewing_time\":3397.7000000013504}]","rt":256479.09999999683,"trial_type":"pit-instructions","trial_index":0,"time_elapsed":256492,"internal_node_id":"0.0-0.0-0.0","task_version":"battery-v0.1"},{"rune":"","hex":"#FFFFF080","correct":32,"choice":-1,"rt":-1,"accuracy":0,"outcome":"+0","keys":[1347.0499999966705],"total_keys":1,"block":0,"trial_type":"pit-trial","trial_index":1,"time_elapsed":260497,"internal_node_id":"0.0-0.0-1.0-0.0","task_version":"battery-v0.1"},{"rune":"","hex":"#FFFFF080","correct":32,"choice":-1,"rt":-1,"accuracy":0,"outcome":"+0","keys":[1293.5399999987567],"total_keys":1,"block":0,"trial_type":"pit-trial","trial_index":2,"time_elapsed":264501,"internal_node_id":"0.0-0.0-1.0-0.1","task_version":"battery-v0.1"},{"rune":"","hex":"#FFFFF080","correct":32,"choice":32,"rt":46.28000000229804,"accuracy":1,"outcome":"+10","keys":[1547.5850000002538],"total_keys":1,"block":0,"trial_type":"pit-trial","trial_index":3,"time_elapsed":267251,"internal_node_id":"0.0-0.0-1.0-0.2","task_version":"battery-v0.1"},{"rune":"","hex":"#FFFFF080","correct":32,"choice":32,"rt":270.5999999961932,"accuracy":1,"outcome":"+10","keys":[1771.1999999955879],"total_keys":1,"block":0,"trial_type":"pit-trial","trial_index":4,"time_elapsed":270226,"internal_node_id":"0.0-0.0-1.0-0.3","task_version":"battery-v0.1"},{"view_history":"[{\"page_index\":0,\"viewing_time\":5149.214999997639}]","rt":5149.67500000057,"trial_type":"pit-instructions","trial_index":5,"time_elapsed":275377,"internal_node_id":"0.0-0.0-2.0","task_version":"battery-v0.1"},{"rune":"","hex":"#FFFFF080","correct":-1,"choice":-1,"rt":-1,"accuracy":1,"outcome":"+10","keys":[],"total_keys":0,"block":0,"trial_type":"pit-trial","trial_index":6,"time_elapsed":279380,"internal_node_id":"0.0-0.0-3.0-0.0","task_version":"battery-v0.1"},{"rune":"","hex":"#FFFFF080","correct":-1,"choice":-1,"rt":-1,"accuracy":1,"outcome":"+10","keys":[],"total_keys":0,"block":0,"trial_type":"pit-trial","trial_index":7,"time_elapsed":283384,"internal_node_id":"0.0-0.0-3.0-0.1","task_version":"battery-v0.1"},{"rune":"","hex":"#FFFFF080","correct":-1,"choice":-1,"rt":-1,"accuracy":1,"outcome":"+10","keys":[],"total_keys":0,"block":0,"trial_type":"pit-trial","trial_index":8,"time_elapsed":287388,"internal_node_id":"0.0-0.0-3.0-0.2","task_version":"battery-v0.1"},{"rune":"","hex":"#FFFFF080","correct":-1,"choice":-1,"rt":-1,"accuracy":1,"outcome":"+10","keys":[],"total_keys":0,"block":0,"trial_type":"pit-trial","trial_index":9,"time_elapsed":291391,"internal_node_id":"0.0-0.0-3.0-0.3","task_version":"battery-v0.1"},{"responses":["Press SPACE","Do nothing"],"num_errors":0,"rt":6696.085000003222,"trial_type":"pit-comprehension","trial_index":10,"time_elapsed":298089,"internal_node_id":"0.0-0.0-4.0","task_version":"battery-v0.1"},{"view_history":"[{\"page_index\":0,\"viewing_time\":3543.5750000033295},{\"page_index\":1,\"viewing_time\":4563.2949999999255},{\"page_index\":2,\"viewing_time\":3689.3549999949755},{\"page_index\":3,\"viewing_time\":5862.4500000005355},{\"page_index\":4,\"viewing_time\":4563.405000000785},{\"page_index\":5,\"viewing_time\":13869.429999998829},{\"page_index\":6,\"viewing_time\":7910.165000001143},{\"page_index\":7,\"viewing_time\":4660.0000000034925},{\"page_index\":8,\"viewing_time\":4726.249999999709},{\"page_index\":9,\"viewing_time\":1960.0649999993038},{\"page_index\":10,\"viewing_time\":1170.0549999950454}]","rt":56518.55500000238,"trial_type":"pit-instructions","trial_index":11,"time_elapsed":354613,"internal_node_id":"0.0-1.0-0.0","task_version":"battery-v0.1"},{"responses":["+10","-10","True","True"],"num_errors":1,"rt":17502.44499999826,"trial_type":"pit-comprehension","trial_index":12,"time_elapsed":372118,"internal_node_id":"0.0-1.0-1.0","task_version":"battery-v0.1"},{"view_history":"[{\"page_index\":0,\"viewing_time\":2192.749999994703},{\"page_index\":1,\"viewing_time\":1483.3050000015646},{\"page_index\":2,\"viewing_time\":1558.5900000005495},{\"page_index\":3,\"viewing_time\":1452.0049999991897},{\"page_index\":4,\"viewing_time\":981.8100000047707},{\"page_index\":5,\"viewing_time\":1477.679999996326},{\"page_index\":6,\"viewing_time\":3360.1399999970454},{\"page_index\":7,\"viewing_time\":894.2000000024564},{\"page_index\":8,\"viewing_time\":960.1049999982934},{\"page_index\":9,\"viewing_time\":1023.7049999996088},{\"page_index\":10,\"viewing_time\":534.3900000007125}]","rt":15919.129999994766,"trial_type":"pit-instructions","trial_index":13,"time_elapsed":388041,"internal_node_id":"0.0-1.1-0.1","task_version":"battery-v0.1"},{"responses":["+10","-1","True","True"],"num_errors":0,"rt":13621.675000002142,"trial_type":"pit-comprehension","trial_index":14,"time_elapsed":401666,"internal_node_id":"0.0-1.1-1.1","task_version":"battery-v0.1"},{"view_history":"[{\"page_index\":0,\"viewing_time\":1284.7299999993993},{\"page_index\":1,\"viewing_time\":3270.279999997001}]","rt":4555.454999994254,"trial_type":"pit-instructions","trial_index":15,"time_elapsed":406225,"internal_node_id":"0.0-2.0","task_version":"battery-v0.1"},{"rune":"P","hex":"#3366ff99","correct":32,"choice":32,"rt":783.5550000017975,"accuracy":1,"outcome":"+10","keys":[2283.9200000016717],"total_keys":1,"block":1,"trial":1,"robot":1,"valence":"win","action":"go","sham":0,"trial_type":"pit-trial","trial_index":16,"time_elapsed":409714,"internal_node_id":"0.0-3.0","task_version":"battery-v0.1"},{"rune":"L","hex":"#3366ff99","correct":32,"choice":-1,"rt":-1,"accuracy":0,"outcome":"+1","keys":[2970.5449999964912],"total_keys":1,"block":1,"trial":2,"robot":1,"valence":"win","action":"go","sham":0,"trial_type":"pit-trial","trial_index":17,"time_elapsed":413718,"internal_node_id":"0.0-4.0","task_version":"battery-v0.1"},{"rune":"W","hex":"#3366ff99","correct":-1,"choice":32,"rt":285.49000000202795,"accuracy":0,"outcome":"+1","keys":[1786.1750000010943],"total_keys":1,"block":1,"trial":3,"robot":2,"valence":"win","action":"no-go","sham":0,"trial_type":"pit-trial","trial_index":18,"time_elapsed":416707,"internal_node_id":"0.0-5.0","task_version":"battery-v0.1"},{"rune":"F","hex":"#f73b6a7A","correct":-1,"choice":32,"rt":653.0899999997928,"accuracy":0,"outcome":"-10","keys":[2153.4299999984796],"total_keys":1,"block":1,"trial":4,"robot":4,"valence":"lose","action":"no-go","sham":0,"trial_type":"pit-trial","trial_index":19,"time_elapsed":420064,"internal_node_id":"0.0-6.0","task_version":"battery-v0.1"},{"rune":"W","hex":"#3366ff99","correct":-1,"choice":-1,"rt":-1,"accuracy":1,"outcome":"+10","keys":[],"total_keys":0,"block":1,"trial":5,"robot":2,"valence":"win","action":"no-go","sham":0,"trial_type":"pit-trial","trial_index":20,"time_elapsed":424067,"internal_node_id":"0.0-7.0","task_version":"battery-v0.1"},{"rune":"L","hex":"#3366ff99","correct":32,"choice":-1,"rt":-1,"accuracy":0,"outcome":"+1","keys":[],"total_keys":0,"block":1,"trial":6,"robot":1,"valence":"win","action":"go","sham":0,"trial_type":"pit-trial","trial_index":21,"time_elapsed":428071,"internal_node_id":"0.0-8.0","task_version":"battery-v0.1"},{"rune":"F","hex":"#f73b6a7A","correct":-1,"choice":32,"rt":664.3250000051921,"accuracy":0,"outcome":"-10","keys":[2164.7050000028685],"total_keys":1,"block":1,"trial":7,"robot":4,"valence":"lose","action":"no-go","sham":0,"trial_type":"pit-trial","trial_index":22,"time_elapsed":431439,"internal_node_id":"0.0-9.0","task_version":"battery-v0.1"},{"rune":"P","hex":"#3366ff99","correct":32,"choice":-1,"rt":-1,"accuracy":0,"outcome":"+1","keys":[],"total_keys":0,"block":1,"trial":8,"robot":1,"valence":"win","action":"go","sham":0,"trial_type":"pit-trial","trial_index":23,"time_elapsed":435443,"internal_node_id":"0.0-10.0","task_version":"battery-v0.1"},{"rune":"W","hex":"#3366ff99","correct":-1,"choice":-1,"rt":-1,"accuracy":1,"outcome":"+10","keys":[],"total_keys":0,"block":1,"trial":9,"robot":2,"valence":"win","action":"no-go","sham":0,"trial_type":"pit-trial","trial_index":24,"time_elapsed":439446,"internal_node_id":"0.0-11.0","task_version":"battery-v0.1"},{"rune":"P","hex":"#3366ff99","correct":32,"choice":32,"rt":479.6950000018114,"accuracy":1,"outcome":"+10","keys":[1980.8150000026217],"total_keys":1,"block":1,"trial":10,"robot":1,"valence":"win","action":"go","sham":0,"trial_type":"pit-trial","trial_index":25,"time_elapsed":442630,"internal_node_id":"0.0-12.0","task_version":"battery-v0.1"},{"rune":"L","hex":"#3366ff99","correct":32,"choice":32,"rt":260.99499999691034,"accuracy":1,"outcome":"+10","keys":[1761.964999997872],"total_keys":1,"block":1,"trial":11,"robot":1,"valence":"win","action":"go","sham":0,"trial_type":"pit-trial","trial_index":26,"time_elapsed":445594,"internal_node_id":"0.0-13.0","task_version":"battery-v0.1"},{"rune":"F","hex":"#f73b6a7A","correct":-1,"choice":32,"rt":221.19999999995343,"accuracy":0,"outcome":"-10","keys":[1722.0850000012433],"total_keys":1,"block":1,"trial":12,"robot":4,"valence":"lose","action":"no-go","sham":0,"trial_type":"pit-trial","trial_index":27,"time_elapsed":448521,"internal_node_id":"0.0-14.0","task_version":"battery-v0.1"},{"rune":"F","hex":"#f73b6a7A","correct":-1,"choice":32,"rt":584.4249999936437,"accuracy":0,"outcome":"-10","keys":[2085.3900000001886],"total_keys":1,"block":1,"trial":13,"robot":4,"valence":"lose","action":"no-go","sham":0,"trial_type":"pit-trial","trial_index":28,"time_elapsed":451809,"internal_node_id":"0.0-15.0","task_version":"battery-v0.1"},{"rune":"P","hex":"#3366ff99","correct":32,"choice":32,"rt":430.79500000021653,"accuracy":1,"outcome":"+10","keys":[1931.1950000046636],"total_keys":1,"block":1,"trial":14,"robot":1,"valence":"win","action":"go","sham":0,"trial_type":"pit-trial","trial_index":29,"time_elapsed":454944,"internal_node_id":"0.0-16.0","task_version":"battery-v0.1"},{"rune":"W","hex":"#3366ff99","correct":-1,"choice":-1,"rt":-1,"accuracy":1,"outcome":"+10","keys":[],"total_keys":0,"block":1,"trial":15,"robot":2,"valence":"win","action":"no-go","sham":0,"trial_type":"pit-trial","trial_index":30,"time_elapsed":458949,"internal_node_id":"0.0-17.0","task_version":"battery-v0.1"},{"rune":"L","hex":"#3366ff99","correct":32,"choice":32,"rt":474.09999999945285,"accuracy":1,"outcome":"+10","keys":[1974.0699999965727],"total_keys":1,"block":1,"trial":16,"robot":1,"valence":"win","action":"go","sham":0,"trial_type":"pit-trial","trial_index":31,"time_elapsed":462126,"internal_node_id":"0.0-18.0","task_version":"battery-v0.1"},{"rune":"W","hex":"#3366ff99","correct":-1,"choice":-1,"rt":-1,"accuracy":1,"outcome":"+10","keys":[],"total_keys":0,"block":1,"trial":17,"robot":2,"valence":"win","action":"no-go","sham":0,"trial_type":"pit-trial","trial_index":32,"time_elapsed":466129,"internal_node_id":"0.0-19.0","task_version":"battery-v0.1"},{"rune":"P","hex":"#3366ff99","correct":32,"choice":32,"rt":244.52999999630265,"accuracy":1,"outcome":"+10","keys":[1744.620000004943],"total_keys":1,"block":1,"trial":18,"robot":1,"valence":"win","action":"go","sham":0,"trial_type":"pit-trial","trial_index":33,"time_elapsed":469076,"internal_node_id":"0.0-20.0","task_version":"battery-v0.1"},{"rune":"F","hex":"#f73b6a7A","correct":-1,"choice":32,"rt":440.7900000005611,"accuracy":0,"outcome":"-1","keys":[1942.1199999997043],"total_keys":1,"block":1,"trial":19,"robot":4,"valence":"lose","action":"no-go","sham":1,"trial_type":"pit-trial","trial_index":34,"time_elapsed":472222,"internal_node_id":"0.0-21.0","task_version":"battery-v0.1"},{"rune":"L","hex":"#3366ff99","correct":32,"choice":32,"rt":334.96999999624677,"accuracy":1,"outcome":"+10","keys":[1835.465000003751],"total_keys":1,"block":1,"trial":20,"robot":1,"valence":"win","action":"go","sham":0,"trial_type":"pit-trial","trial_index":35,"time_elapsed":475259,"internal_node_id":"0.0-22.0","task_version":"battery-v0.1"},{"rune":"P","hex":"#3366ff99","correct":32,"choice":32,"rt":467.36999999848194,"accuracy":1,"outcome":"+10","keys":[1967.640000002575],"total_keys":1,"block":1,"trial":21,"robot":1,"valence":"win","action":"go","sham":0,"trial_type":"pit-trial","trial_index":36,"time_elapsed":478430,"internal_node_id":"0.0-23.0","task_version":"battery-v0.1"},{"rune":"W","hex":"#3366ff99","correct":-1,"choice":-1,"rt":-1,"accuracy":1,"outcome":"+10","keys":[],"total_keys":0,"block":1,"trial":22,"robot":2,"valence":"win","action":"no-go","sham":0,"trial_type":"pit-trial","trial_index":37,"time_elapsed":482434,"internal_node_id":"0.0-24.0","task_version":"battery-v0.1"},{"rune":"L","hex":"#3366ff99","correct":32,"choice":32,"rt":269.30500000162283,"accuracy":1,"outcome":"+10","keys":[1769.6599999981117],"total_keys":1,"block":1,"trial":23,"robot":1,"valence":"win","action":"go","sham":0,"trial_type":"pit-trial","trial_index":38,"time_elapsed":485407,"internal_node_id":"0.0-25.0","task_version":"battery-v0.1"},{"rune":"F","hex":"#f73b6a7A","correct":-1,"choice":32,"rt":477.44999999849824,"accuracy":0,"outcome":"-10","keys":[1978.0400000017835],"total_keys":1,"block":1,"trial":24,"robot":4,"valence":"lose","action":"no-go","sham":0,"trial_type":"pit-trial","trial_index":39,"time_elapsed":488587,"internal_node_id":"0.0-26.0","task_version":"battery-v0.1"},{"rune":"P","hex":"#3366ff99","correct":32,"choice":32,"rt":321.7399999994086,"accuracy":1,"outcome":"+10","keys":[1822.1899999989546],"total_keys":1,"block":1,"trial":25,"robot":1,"valence":"win","action":"go","sham":0,"trial_type":"pit-trial","trial_index":40,"time_elapsed":491612,"internal_node_id":"0.0-27.0","task_version":"battery-v0.1"},{"rune":"L","hex":"#3366ff99","correct":32,"choice":32,"rt":217.3300000067684,"accuracy":1,"outcome":"+10","keys":[1718.220000002475],"total_keys":1,"block":1,"trial":26,"robot":1,"valence":"win","action":"go","sham":0,"trial_type":"pit-trial","trial_index":41,"time_elapsed":494534,"internal_node_id":"0.0-28.0","task_version":"battery-v0.1"},{"rune":"W","hex":"#3366ff99","correct":-1,"choice":-1,"rt":-1,"accuracy":1,"outcome":"+10","keys":[],"total_keys":0,"block":1,"trial":27,"robot":2,"valence":"win","action":"no-go","sham":0,"trial_type":"pit-trial","trial_index":42,"time_elapsed":498538,"internal_node_id":"0.0-29.0","task_version":"battery-v0.1"},{"rune":"F","hex":"#f73b6a7A","correct":-1,"choice":32,"rt":366.52999999932945,"accuracy":0,"outcome":"-10","keys":[1866.6950000042561],"total_keys":1,"block":1,"trial":28,"robot":4,"valence":"lose","action":"no-go","sham":0,"trial_type":"pit-trial","trial_index":43,"time_elapsed":501606,"internal_node_id":"0.0-30.0","task_version":"battery-v0.1"},{"rune":"L","hex":"#3366ff99","correct":32,"choice":32,"rt":232.34499999671243,"accuracy":1,"outcome":"+10","keys":[1732.8300000008312],"total_keys":1,"block":1,"trial":29,"robot":1,"valence":"win","action":"go","sham":0,"trial_type":"pit-trial","trial_index":44,"time_elapsed":504542,"internal_node_id":"0.0-31.0","task_version":"battery-v0.1"},{"rune":"F","hex":"#f73b6a7A","correct":-1,"choice":32,"rt":190.4599999979837,"accuracy":0,"outcome":"-10","keys":[1690.6900000030873],"total_keys":1,"block":1,"trial":30,"robot":4,"valence":"lose","action":"no-go","sham":0,"trial_type":"pit-trial","trial_index":45,"time_elapsed":507435,"internal_node_id":"0.0-32.0","task_version":"battery-v0.1"},{"rune":"P","hex":"#3366ff99","correct":32,"choice":32,"rt":289.3149999945308,"accuracy":1,"outcome":"+10","keys":[1789.8600000044098],"total_keys":1,"block":1,"trial":31,"robot":1,"valence":"win","action":"go","sham":0,"trial_type":"pit-trial","trial_index":46,"time_elapsed":510428,"internal_node_id":"0.0-33.0","task_version":"battery-v0.1"},{"rune":"W","hex":"#3366ff99","correct":-1,"choice":-1,"rt":-1,"accuracy":1,"outcome":"+10","keys":[],"total_keys":0,"block":1,"trial":32,"robot":2,"valence":"win","action":"no-go","sham":0,"trial_type":"pit-trial","trial_index":47,"time_elapsed":514433,"internal_node_id":"0.0-34.0","task_version":"battery-v0.1"},{"rune":"T","hex":"#3366ff99","correct":32,"choice":32,"rt":340.3949999992619,"accuracy":1,"outcome":"+1","keys":[1841.6599999982282],"total_keys":1,"block":1,"trial":33,"robot":1,"valence":"win","action":"go","sham":1,"trial_type":"pit-trial","trial_index":48,"time_elapsed":517478,"internal_node_id":"0.0-35.0","task_version":"battery-v0.1"},{"rune":"F","hex":"#f73b6a7A","correct":-1,"choice":-1,"rt":-1,"accuracy":1,"outcome":"-1","keys":[],"total_keys":0,"block":1,"trial":34,"robot":4,"valence":"lose","action":"no-go","sham":0,"trial_type":"pit-trial","trial_index":49,"time_elapsed":521481,"internal_node_id":"0.0-36.0","task_version":"battery-v0.1"},{"rune":"L","hex":"#3366ff99","correct":32,"choice":32,"rt":359.53999999770895,"accuracy":1,"outcome":"+10","keys":[1860.1399999969872],"total_keys":1,"block":1,"trial":35,"robot":1,"valence":"win","action":"go","sham":0,"trial_type":"pit-trial","trial_index":50,"time_elapsed":524544,"internal_node_id":"0.0-37.0","task_version":"battery-v0.1"},{"rune":"W","hex":"#3366ff99","correct":-1,"choice":-1,"rt":-1,"accuracy":1,"outcome":"+1","keys":[],"total_keys":0,"block":1,"trial":36,"robot":2,"valence":"win","action":"no-go","sham":1,"trial_type":"pit-trial","trial_index":51,"time_elapsed":528548,"internal_node_id":"0.0-38.0","task_version":"battery-v0.1"},{"rune":"F","hex":"#f73b6a7A","correct":-1,"choice":32,"rt":453.63499999803025,"accuracy":0,"outcome":"-1","keys":[1953.894999998738],"total_keys":1,"block":1,"trial":37,"robot":4,"valence":"lose","action":"no-go","sham":1,"trial_type":"pit-trial","trial_index":52,"time_elapsed":531705,"internal_node_id":"0.0-39.0","task_version":"battery-v0.1"},{"rune":"T","hex":"#3366ff99","correct":32,"choice":-1,"rt":-1,"accuracy":0,"outcome":"+1","keys":[],"total_keys":0,"block":1,"trial":38,"robot":1,"valence":"win","action":"go","sham":0,"trial_type":"pit-trial","trial_index":53,"time_elapsed":535710,"internal_node_id":"0.0-40.0","task_version":"battery-v0.1"},{"rune":"W","hex":"#3366ff99","correct":-1,"choice":-1,"rt":-1,"accuracy":1,"outcome":"+10","keys":[],"total_keys":0,"block":1,"trial":39,"robot":2,"valence":"win","action":"no-go","sham":0,"trial_type":"pit-trial","trial_index":54,"time_elapsed":539714,"internal_node_id":"0.0-41.0","task_version":"battery-v0.1"},{"rune":"L","hex":"#3366ff99","correct":32,"choice":32,"rt":311.6250000020955,"accuracy":1,"outcome":"+10","keys":[1812.4250000037719],"total_keys":1,"block":1,"trial":40,"robot":1,"valence":"win","action":"go","sham":0,"trial_type":"pit-trial","trial_index":55,"time_elapsed":542729,"internal_node_id":"0.0-42.0","task_version":"battery-v0.1"},{"rune":"K","hex":"#f73b6a7A","correct":32,"choice":32,"rt":475.15500000002794,"accuracy":1,"outcome":"-1","keys":[1976.0900000036927],"total_keys":1,"block":1,"trial":41,"robot":3,"valence":"lose","action":"go","sham":0,"trial_type":"pit-trial","trial_index":56,"time_elapsed":545908,"internal_node_id":"0.0-43.0","task_version":"battery-v0.1"},{"rune":"W","hex":"#3366ff99","correct":-1,"choice":-1,"rt":-1,"accuracy":1,"outcome":"+10","keys":[],"total_keys":0,"block":1,"trial":42,"robot":2,"valence":"win","action":"no-go","sham":0,"trial_type":"pit-trial","trial_index":57,"time_elapsed":549911,"internal_node_id":"0.0-44.0","task_version":"battery-v0.1"},{"rune":"C","hex":"#f73b6a7A","correct":-1,"choice":32,"rt":550.9099999980535,"accuracy":0,"outcome":"-1","keys":[2051.0450000001583],"total_keys":1,"block":1,"trial":43,"robot":4,"valence":"lose","action":"no-go","sham":1,"trial_type":"pit-trial","trial_index":58,"time_elapsed":553164,"internal_node_id":"0.0-45.0","task_version":"battery-v0.1"},{"rune":"T","hex":"#3366ff99","correct":32,"choice":-1,"rt":-1,"accuracy":0,"outcome":"+1","keys":[],"total_keys":0,"block":1,"trial":44,"robot":1,"valence":"win","action":"go","sham":0,"trial_type":"pit-trial","trial_index":59,"time_elapsed":557167,"internal_node_id":"0.0-46.0","task_version":"battery-v0.1"},{"rune":"W","hex":"#3366ff99","correct":-1,"choice":-1,"rt":-1,"accuracy":1,"outcome":"+1","keys":[],"total_keys":0,"block":1,"trial":45,"robot":2,"valence":"win","action":"no-go","sham":1,"trial_type":"pit-trial","trial_index":60,"time_elapsed":561171,"internal_node_id":"0.0-47.0","task_version":"battery-v0.1"},{"rune":"T","hex":"#3366ff99","correct":32,"choice":32,"rt":362.8050000043586,"accuracy":1,"outcome":"+1","keys":[1863.790000003064],"total_keys":1,"block":1,"trial":46,"robot":1,"valence":"win","action":"go","sham":1,"trial_type":"pit-trial","trial_index":61,"time_elapsed":564238,"internal_node_id":"0.0-48.0","task_version":"battery-v0.1"},{"rune":"C","hex":"#f73b6a7A","correct":-1,"choice":-1,"rt":-1,"accuracy":1,"outcome":"-1","keys":[],"total_keys":0,"block":1,"trial":47,"robot":4,"valence":"lose","action":"no-go","sham":0,"trial_type":"pit-trial","trial_index":62,"time_elapsed":568243,"internal_node_id":"0.0-49.0","task_version":"battery-v0.1"},{"rune":"K","hex":"#f73b6a7A","correct":32,"choice":-1,"rt":-1,"accuracy":0,"outcome":"-10","keys":[],"total_keys":0,"block":1,"trial":48,"robot":3,"valence":"lose","action":"go","sham":0,"trial_type":"pit-trial","trial_index":63,"time_elapsed":572247,"internal_node_id":"0.0-50.0","task_version":"battery-v0.1"},{"rune":"C","hex":"#f73b6a7A","correct":-1,"choice":-1,"rt":-1,"accuracy":1,"outcome":"-1","keys":[],"total_keys":0,"block":1,"trial":49,"robot":4,"valence":"lose","action":"no-go","sham":0,"trial_type":"pit-trial","trial_index":64,"time_elapsed":576249,"internal_node_id":"0.0-51.0","task_version":"battery-v0.1"},{"rune":"U","hex":"#3366ff99","correct":-1,"choice":-1,"rt":-1,"accuracy":1,"outcome":"+1","keys":[],"total_keys":0,"block":1,"trial":50,"robot":2,"valence":"win","action":"no-go","sham":1,"trial_type":"pit-trial","trial_index":65,"time_elapsed":580253,"internal_node_id":"0.0-52.0","task_version":"battery-v0.1"},{"rune":"K","hex":"#f73b6a7A","correct":32,"choice":32,"rt":456.40000000270084,"accuracy":1,"outcome":"-1","keys":[1957.0149999998976],"total_keys":1,"block":1,"trial":51,"robot":3,"valence":"lose","action":"go","sham":0,"trial_type":"pit-trial","trial_index":66,"time_elapsed":583412,"internal_node_id":"0.0-53.0","task_version":"battery-v0.1"},{"rune":"T","hex":"#3366ff99","correct":32,"choice":32,"rt":428.4499999994878,"accuracy":1,"outcome":"+10","keys":[1928.6449999999022],"total_keys":1,"block":1,"trial":52,"robot":1,"valence":"win","action":"go","sham":0,"trial_type":"pit-trial","trial_index":67,"time_elapsed":586543,"internal_node_id":"0.0-54.0","task_version":"battery-v0.1"},{"rune":"T","hex":"#3366ff99","correct":32,"choice":32,"rt":377.5099999983795,"accuracy":1,"outcome":"+1","keys":[1878.1549999985145],"total_keys":1,"block":1,"trial":53,"robot":1,"valence":"win","action":"go","sham":1,"trial_type":"pit-trial","trial_index":68,"time_elapsed":589623,"internal_node_id":"0.0-55.0","task_version":"battery-v0.1"},{"rune":"C","hex":"#f73b6a7A","correct":-1,"choice":-1,"rt":-1,"accuracy":1,"outcome":"-1","keys":[],"total_keys":0,"block":1,"trial":54,"robot":4,"valence":"lose","action":"no-go","sham":0,"trial_type":"pit-trial","trial_index":69,"time_elapsed":593627,"internal_node_id":"0.0-56.0","task_version":"battery-v0.1"},{"rune":"U","hex":"#3366ff99","correct":-1,"choice":-1,"rt":-1,"accuracy":1,"outcome":"+10","keys":[],"total_keys":0,"block":1,"trial":55,"robot":2,"valence":"win","action":"no-go","sham":0,"trial_type":"pit-trial","trial_index":70,"time_elapsed":597630,"internal_node_id":"0.0-57.0","task_version":"battery-v0.1"},{"rune":"K","hex":"#f73b6a7A","correct":32,"choice":-1,"rt":-1,"accuracy":0,"outcome":"-10","keys":[],"total_keys":0,"block":1,"trial":56,"robot":3,"valence":"lose","action":"go","sham":0,"trial_type":"pit-trial","trial_index":71,"time_elapsed":601634,"internal_node_id":"0.0-58.0","task_version":"battery-v0.1"},{"rune":"K","hex":"#f73b6a7A","correct":32,"choice":32,"rt":285.8399999968242,"accuracy":1,"outcome":"-1","keys":[1786.1049999992829],"total_keys":1,"block":1,"trial":57,"robot":3,"valence":"lose","action":"go","sham":0,"trial_type":"pit-trial","trial_index":72,"time_elapsed":604624,"internal_node_id":"0.0-59.0","task_version":"battery-v0.1"},{"rune":"U","hex":"#3366ff99","correct":-1,"choice":-1,"rt":-1,"accuracy":1,"outcome":"+1","keys":[],"total_keys":0,"block":1,"trial":58,"robot":2,"valence":"win","action":"no-go","sham":1,"trial_type":"pit-trial","trial_index":73,"time_elapsed":608627,"internal_node_id":"0.0-60.0","task_version":"battery-v0.1"},{"rune":"C","hex":"#f73b6a7A","correct":-1,"choice":-1,"rt":-1,"accuracy":1,"outcome":"-10","keys":[],"total_keys":0,"block":1,"trial":59,"robot":4,"valence":"lose","action":"no-go","sham":1,"trial_type":"pit-trial","trial_index":74,"time_elapsed":612631,"internal_node_id":"0.0-61.0","task_version":"battery-v0.1"},{"rune":"T","hex":"#3366ff99","correct":32,"choice":32,"rt":286,"accuracy":1,"outcome":"+10","keys":[1786.0900000013644],"total_keys":1,"block":1,"trial":60,"robot":1,"valence":"win","action":"go","sham":0,"trial_type":"pit-trial","trial_index":75,"time_elapsed":615620,"internal_node_id":"0.0-62.0","task_version":"battery-v0.1"},{"rune":"U","hex":"#3366ff99","correct":-1,"choice":32,"rt":439.14000000222586,"accuracy":0,"outcome":"+1","keys":[1939.9699999995064],"total_keys":1,"block":1,"trial":61,"robot":2,"valence":"win","action":"no-go","sham":0,"trial_type":"pit-trial","trial_index":76,"time_elapsed":618762,"internal_node_id":"0.0-63.0","task_version":"battery-v0.1"},{"rune":"T","hex":"#3366ff99","correct":32,"choice":32,"rt":437.3600000034785,"accuracy":1,"outcome":"+10","keys":[1938.9799999989336],"total_keys":1,"block":1,"trial":62,"robot":1,"valence":"win","action":"go","sham":0,"trial_type":"pit-trial","trial_index":77,"time_elapsed":621903,"internal_node_id":"0.0-64.0","task_version":"battery-v0.1"},{"rune":"C","hex":"#f73b6a7A","correct":-1,"choice":32,"rt":246.9199999977136,"accuracy":0,"outcome":"-1","keys":[1748.1800000022631],"total_keys":1,"block":1,"trial":63,"robot":4,"valence":"lose","action":"no-go","sham":1,"trial_type":"pit-trial","trial_index":78,"time_elapsed":624855,"internal_node_id":"0.0-65.0","task_version":"battery-v0.1"},{"rune":"K","hex":"#f73b6a7A","correct":32,"choice":32,"rt":240.18499999516644,"accuracy":1,"outcome":"-1","keys":[1740.5599999983096],"total_keys":1,"block":1,"trial":64,"robot":3,"valence":"lose","action":"go","sham":0,"trial_type":"pit-trial","trial_index":79,"time_elapsed":627799,"internal_node_id":"0.0-66.0","task_version":"battery-v0.1"},{"rune":"T","hex":"#3366ff99","correct":32,"choice":32,"rt":238.46000000054482,"accuracy":1,"outcome":"+1","keys":[1739.4050000002608],"total_keys":1,"block":1,"trial":65,"robot":1,"valence":"win","action":"go","sham":1,"trial_type":"pit-trial","trial_index":80,"time_elapsed":630742,"internal_node_id":"0.0-67.0","task_version":"battery-v0.1"},{"rune":"U","hex":"#3366ff99","correct":-1,"choice":32,"rt":491.3400000005495,"accuracy":0,"outcome":"+10","keys":[1992.5099999964004],"total_keys":1,"block":1,"trial":66,"robot":2,"valence":"win","action":"no-go","sham":1,"trial_type":"pit-trial","trial_index":81,"time_elapsed":633937,"internal_node_id":"0.0-68.0","task_version":"battery-v0.1"},{"rune":"C","hex":"#f73b6a7A","correct":-1,"choice":32,"rt":256.67499999701977,"accuracy":0,"outcome":"-10","keys":[1757.4099999984028],"total_keys":1,"block":1,"trial":67,"robot":4,"valence":"lose","action":"no-go","sham":0,"trial_type":"pit-trial","trial_index":82,"time_elapsed":636897,"internal_node_id":"0.0-69.0","task_version":"battery-v0.1"},{"rune":"K","hex":"#f73b6a7A","correct":32,"choice":32,"rt":308.1199999941746,"accuracy":1,"outcome":"-10","keys":[1809.5400000019],"total_keys":1,"block":1,"trial":68,"robot":3,"valence":"lose","action":"go","sham":1,"trial_type":"pit-trial","trial_index":83,"time_elapsed":639909,"internal_node_id":"0.0-70.0","task_version":"battery-v0.1"},{"rune":"C","hex":"#f73b6a7A","correct":-1,"choice":32,"rt":265.20499999599997,"accuracy":0,"outcome":"-10","keys":[1766.23500000278],"total_keys":1,"block":1,"trial":69,"robot":4,"valence":"lose","action":"no-go","sham":0,"trial_type":"pit-trial","trial_index":84,"time_elapsed":642878,"internal_node_id":"0.0-71.0","task_version":"battery-v0.1"},{"rune":"K","hex":"#f73b6a7A","correct":32,"choice":32,"rt":562.7400000011548,"accuracy":1,"outcome":"-1","keys":[1462.5150000066496,2063.3750000052387,2266.784999999916],"total_keys":3,"block":1,"trial":70,"robot":3,"valence":"lose","action":"go","sham":0,"trial_type":"pit-trial","trial_index":85,"time_elapsed":646144,"internal_node_id":"0.0-72.0","task_version":"battery-v0.1"},{"rune":"U","hex":"#3366ff99","correct":-1,"choice":32,"rt":92.75000000337604,"accuracy":0,"outcome":"+1","keys":[1594.6750000002794],"total_keys":1,"block":1,"trial":71,"robot":2,"valence":"win","action":"no-go","sham":0,"trial_type":"pit-trial","trial_index":86,"time_elapsed":648941,"internal_node_id":"0.0-73.0","task_version":"battery-v0.1"},{"rune":"T","hex":"#3366ff99","correct":32,"choice":32,"rt":70.74999999895226,"accuracy":1,"outcome":"+1","keys":[1572.2400000012713],"total_keys":1,"block":1,"trial":72,"robot":1,"valence":"win","action":"go","sham":1,"trial_type":"pit-trial","trial_index":87,"time_elapsed":651717,"internal_node_id":"0.0-74.0","task_version":"battery-v0.1"},{"rune":"C","hex":"#f73b6a7A","correct":-1,"choice":32,"rt":79.09500000090338,"accuracy":0,"outcome":"-10","keys":[1580.024999995716],"total_keys":1,"block":1,"trial":73,"robot":4,"valence":"lose","action":"no-go","sham":0,"trial_type":"pit-trial","trial_index":88,"time_elapsed":654500,"internal_node_id":"0.0-75.0","task_version":"battery-v0.1"},{"rune":"T","hex":"#3366ff99","correct":32,"choice":32,"rt":124.66499999572989,"accuracy":1,"outcome":"+10","keys":[1625.5500000042375],"total_keys":1,"block":1,"trial":74,"robot":1,"valence":"win","action":"go","sham":0,"trial_type":"pit-trial","trial_index":89,"time_elapsed":657327,"internal_node_id":"0.0-76.0","task_version":"battery-v0.1"},{"rune":"U","hex":"#3366ff99","correct":-1,"choice":32,"rt":134.6899999990128,"accuracy":0,"outcome":"+1","keys":[1634.750000004773],"total_keys":1,"block":1,"trial":75,"robot":2,"valence":"win","action":"no-go","sham":0,"trial_type":"pit-trial","trial_index":90,"time_elapsed":660165,"internal_node_id":"0.0-77.0","task_version":"battery-v0.1"},{"rune":"S","hex":"#f73b6a7A","correct":32,"choice":32,"rt":90.73499999800697,"accuracy":1,"outcome":"-1","keys":[1591.7699999990873],"total_keys":1,"block":1,"trial":76,"robot":3,"valence":"lose","action":"go","sham":0,"trial_type":"pit-trial","trial_index":91,"time_elapsed":662959,"internal_node_id":"0.0-78.0","task_version":"battery-v0.1"},{"rune":"S","hex":"#f73b6a7A","correct":32,"choice":32,"rt":50.10999999649357,"accuracy":1,"outcome":"-1","keys":[1550.3250000037951],"total_keys":1,"block":1,"trial":77,"robot":3,"valence":"lose","action":"go","sham":0,"trial_type":"pit-trial","trial_index":92,"time_elapsed":665712,"internal_node_id":"0.0-79.0","task_version":"battery-v0.1"},{"rune":"C","hex":"#f73b6a7A","correct":-1,"choice":32,"rt":108.74499999778345,"accuracy":0,"outcome":"-10","keys":[1608.8200000012293],"total_keys":1,"block":1,"trial":78,"robot":4,"valence":"lose","action":"no-go","sham":0,"trial_type":"pit-trial","trial_index":93,"time_elapsed":668524,"internal_node_id":"0.0-80.0","task_version":"battery-v0.1"},{"rune":"U","hex":"#3366ff99","correct":-1,"choice":32,"rt":130.89499999466352,"accuracy":0,"outcome":"+1","keys":[1631.22999999905],"total_keys":1,"block":1,"trial":79,"robot":2,"valence":"win","action":"no-go","sham":0,"trial_type":"pit-trial","trial_index":94,"time_elapsed":671358,"internal_node_id":"0.0-81.0","task_version":"battery-v0.1"},{"rune":"T","hex":"#3366ff99","correct":32,"choice":32,"rt":67.34500000311527,"accuracy":1,"outcome":"+10","keys":[1568.1600000024773],"total_keys":1,"block":1,"trial":80,"robot":1,"valence":"win","action":"go","sham":0,"trial_type":"pit-trial","trial_index":95,"time_elapsed":674130,"internal_node_id":"0.0-82.0","task_version":"battery-v0.1"},{"rune":"C","hex":"#f73b6a7A","correct":-1,"choice":-1,"rt":-1,"accuracy":1,"outcome":"-1","keys":[1473.4449999958742],"total_keys":1,"block":1,"trial":81,"robot":4,"valence":"lose","action":"no-go","sham":0,"trial_type":"pit-trial","trial_index":96,"time_elapsed":678133,"internal_node_id":"0.0-83.0","task_version":"battery-v0.1"},{"rune":"U","hex":"#3366ff99","correct":-1,"choice":-1,"rt":-1,"accuracy":1,"outcome":"+10","keys":[1462.2349999990547],"total_keys":1,"block":1,"trial":82,"robot":2,"valence":"win","action":"no-go","sham":0,"trial_type":"pit-trial","trial_index":97,"time_elapsed":682137,"internal_node_id":"0.0-84.0","task_version":"battery-v0.1"},{"rune":"S","hex":"#f73b6a7A","correct":32,"choice":-1,"rt":-1,"accuracy":0,"outcome":"-10","keys":[1379.079999998794],"total_keys":1,"block":1,"trial":83,"robot":3,"valence":"lose","action":"go","sham":0,"trial_type":"pit-trial","trial_index":98,"time_elapsed":686141,"internal_node_id":"0.0-85.0","task_version":"battery-v0.1"},{"rune":"G","hex":"#f73b6a7A","correct":32,"choice":32,"rt":302.51500000292435,"accuracy":1,"outcome":"-1","keys":[1802.93000000529],"total_keys":1,"block":1,"trial":84,"robot":3,"valence":"lose","action":"go","sham":0,"trial_type":"pit-trial","trial_index":99,"time_elapsed":689147,"internal_node_id":"0.0-86.0","task_version":"battery-v0.1"},{"rune":"G","hex":"#f73b6a7A","correct":32,"choice":32,"rt":398.509999999078,"accuracy":1,"outcome":"-1","keys":[1898.8850000023376],"total_keys":1,"block":1,"trial":85,"robot":3,"valence":"lose","action":"go","sham":0,"trial_type":"pit-trial","trial_index":100,"time_elapsed":692249,"internal_node_id":"0.0-87.0","task_version":"battery-v0.1"},{"rune":"C","hex":"#f73b6a7A","correct":-1,"choice":32,"rt":196.43499999807682,"accuracy":0,"outcome":"-10","keys":[1697.0650000002934],"total_keys":1,"block":1,"trial":86,"robot":4,"valence":"lose","action":"no-go","sham":0,"trial_type":"pit-trial","trial_index":101,"time_elapsed":695148,"internal_node_id":"0.0-88.0","task_version":"battery-v0.1"},{"rune":"S","hex":"#f73b6a7A","correct":32,"choice":32,"rt":191.63999999722,"accuracy":1,"outcome":"-1","keys":[1692.1750000037719],"total_keys":1,"block":1,"trial":87,"robot":3,"valence":"lose","action":"go","sham":0,"trial_type":"pit-trial","trial_index":102,"time_elapsed":698043,"internal_node_id":"0.0-89.0","task_version":"battery-v0.1"},{"rune":"U","hex":"#3366ff99","correct":-1,"choice":32,"rt":513.5999999984633,"accuracy":0,"outcome":"+1","keys":[1451.9450000007637,2014.165000000503],"total_keys":2,"block":1,"trial":88,"robot":2,"valence":"win","action":"no-go","sham":0,"trial_type":"pit-trial","trial_index":103,"time_elapsed":701260,"internal_node_id":"0.0-90.0","task_version":"battery-v0.1"},{"rune":"G","hex":"#f73b6a7A","correct":32,"choice":32,"rt":232.7750000039814,"accuracy":1,"outcome":"-10","keys":[1733.4649999975227],"total_keys":1,"block":1,"trial":89,"robot":3,"valence":"lose","action":"go","sham":1,"trial_type":"pit-trial","trial_index":104,"time_elapsed":704195,"internal_node_id":"0.0-91.0","task_version":"battery-v0.1"},{"rune":"S","hex":"#f73b6a7A","correct":32,"choice":32,"rt":114.66499999363441,"accuracy":1,"outcome":"-1","keys":[1615.1850000023842],"total_keys":1,"block":1,"trial":90,"robot":3,"valence":"lose","action":"go","sham":0,"trial_type":"pit-trial","trial_index":105,"time_elapsed":707013,"internal_node_id":"0.0-92.0","task_version":"battery-v0.1"},{"rune":"V","hex":"#f73b6a7A","correct":-1,"choice":32,"rt":51.46499999682419,"accuracy":0,"outcome":"-10","keys":[1551.670000000624],"total_keys":1,"block":1,"trial":91,"robot":4,"valence":"lose","action":"no-go","sham":0,"trial_type":"pit-trial","trial_index":106,"time_elapsed":709768,"internal_node_id":"0.0-93.0","task_version":"battery-v0.1"},{"rune":"B","hex":"#3366ff99","correct":-1,"choice":-1,"rt":-1,"accuracy":1,"outcome":"+10","keys":[1484.970000004978],"total_keys":1,"block":1,"trial":92,"robot":2,"valence":"win","action":"no-go","sham":0,"trial_type":"pit-trial","trial_index":107,"time_elapsed":713772,"internal_node_id":"0.0-94.0","task_version":"battery-v0.1"},{"rune":"S","hex":"#f73b6a7A","correct":32,"choice":32,"rt":54.66499999607913,"accuracy":1,"outcome":"-1","keys":[1556.0799999948358],"total_keys":1,"block":1,"trial":93,"robot":3,"valence":"lose","action":"go","sham":0,"trial_type":"pit-trial","trial_index":108,"time_elapsed":716531,"internal_node_id":"0.0-95.0","task_version":"battery-v0.1"},{"rune":"B","hex":"#3366ff99","correct":-1,"choice":32,"rt":72.72000000381377,"accuracy":0,"outcome":"+1","keys":[1574.220000002184],"total_keys":1,"block":1,"trial":94,"robot":2,"valence":"win","action":"no-go","sham":0,"trial_type":"pit-trial","trial_index":109,"time_elapsed":719307,"internal_node_id":"0.0-96.0","task_version":"battery-v0.1"},{"rune":"V","hex":"#f73b6a7A","correct":-1,"choice":32,"rt":114.51999999547843,"accuracy":0,"outcome":"-1","keys":[1615.0500000003958],"total_keys":1,"block":1,"trial":95,"robot":4,"valence":"lose","action":"no-go","sham":1,"trial_type":"pit-trial","trial_index":110,"time_elapsed":722125,"internal_node_id":"0.0-97.0","task_version":"battery-v0.1"},{"rune":"G","hex":"#f73b6a7A","correct":32,"choice":32,"rt":84.2549999943003,"accuracy":1,"outcome":"-10","keys":[1585.0250000002561],"total_keys":1,"block":1,"trial":96,"robot":3,"valence":"lose","action":"go","sham":1,"trial_type":"pit-trial","trial_index":111,"time_elapsed":724913,"internal_node_id":"0.0-98.0","task_version":"battery-v0.1"},{"rune":"V","hex":"#f73b6a7A","correct":-1,"choice":32,"rt":64.65000000025611,"accuracy":0,"outcome":"-10","keys":[1564.8650000002235],"total_keys":1,"block":1,"trial":97,"robot":4,"valence":"lose","action":"no-go","sham":0,"trial_type":"pit-trial","trial_index":112,"time_elapsed":727680,"internal_node_id":"0.0-99.0","task_version":"battery-v0.1"},{"rune":"B","hex":"#3366ff99","correct":-1,"choice":-1,"rt":-1,"accuracy":1,"outcome":"+10","keys":[1484.8500000007916],"total_keys":1,"block":1,"trial":98,"robot":2,"valence":"win","action":"no-go","sham":0,"trial_type":"pit-trial","trial_index":113,"time_elapsed":731684,"internal_node_id":"0.0-100.0","task_version":"battery-v0.1"},{"rune":"S","hex":"#f73b6a7A","correct":32,"choice":-1,"rt":-1,"accuracy":0,"outcome":"-10","keys":[1451.2150000010151],"total_keys":1,"block":1,"trial":99,"robot":3,"valence":"lose","action":"go","sham":0,"trial_type":"pit-trial","trial_index":114,"time_elapsed":735688,"internal_node_id":"0.0-101.0","task_version":"battery-v0.1"},{"rune":"G","hex":"#f73b6a7A","correct":32,"choice":32,"rt":170.44500000332482,"accuracy":1,"outcome":"-1","keys":[1670.509999996284],"total_keys":1,"block":1,"trial":100,"robot":3,"valence":"lose","action":"go","sham":0,"trial_type":"pit-trial","trial_index":115,"time_elapsed":738562,"internal_node_id":"0.0-102.0","task_version":"battery-v0.1"},{"rune":"B","hex":"#3366ff99","correct":-1,"choice":32,"rt":125.09000000124797,"accuracy":0,"outcome":"+1","keys":[1625.3750000032596],"total_keys":1,"block":1,"trial":101,"robot":2,"valence":"win","action":"no-go","sham":0,"trial_type":"pit-trial","trial_index":116,"time_elapsed":741390,"internal_node_id":"0.0-103.0","task_version":"battery-v0.1"},{"rune":"G","hex":"#f73b6a7A","correct":32,"choice":32,"rt":509.97999999520835,"accuracy":1,"outcome":"-10","keys":[1471.6350000016391,2010.8849999960512],"total_keys":2,"block":1,"trial":102,"robot":3,"valence":"lose","action":"go","sham":1,"trial_type":"pit-trial","trial_index":117,"time_elapsed":744605,"internal_node_id":"0.0-104.0","task_version":"battery-v0.1"},{"rune":"V","hex":"#f73b6a7A","correct":-1,"choice":32,"rt":217.6850000033155,"accuracy":0,"outcome":"-1","keys":[1718.9950000029057],"total_keys":1,"block":1,"trial":103,"robot":4,"valence":"lose","action":"no-go","sham":1,"trial_type":"pit-trial","trial_index":118,"time_elapsed":747528,"internal_node_id":"0.0-105.0","task_version":"battery-v0.1"},{"rune":"S","hex":"#f73b6a7A","correct":32,"choice":32,"rt":175.35499999928288,"accuracy":1,"outcome":"-1","keys":[1675.9400000009919],"total_keys":1,"block":1,"trial":104,"robot":3,"valence":"lose","action":"go","sham":0,"trial_type":"pit-trial","trial_index":119,"time_elapsed":750406,"internal_node_id":"0.0-106.0","task_version":"battery-v0.1"},{"rune":"V","hex":"#f73b6a7A","correct":-1,"choice":32,"rt":191.35999999707565,"accuracy":0,"outcome":"-10","keys":[1692.494999995688],"total_keys":1,"block":1,"trial":105,"robot":4,"valence":"lose","action":"no-go","sham":0,"trial_type":"pit-trial","trial_index":120,"time_elapsed":753301,"internal_node_id":"0.0-107.0","task_version":"battery-v0.1"},{"rune":"S","hex":"#f73b6a7A","correct":32,"choice":32,"rt":190.08999999635853,"accuracy":1,"outcome":"-1","keys":[1690.8400000028778],"total_keys":1,"block":1,"trial":106,"robot":3,"valence":"lose","action":"go","sham":0,"trial_type":"pit-trial","trial_index":121,"time_elapsed":756194,"internal_node_id":"0.0-108.0","task_version":"battery-v0.1"},{"rune":"G","hex":"#f73b6a7A","correct":32,"choice":32,"rt":194.16500000073574,"accuracy":1,"outcome":"-1","keys":[1694.9299999978393],"total_keys":1,"block":1,"trial":107,"robot":3,"valence":"lose","action":"go","sham":0,"trial_type":"pit-trial","trial_index":122,"time_elapsed":759091,"internal_node_id":"0.0-109.0","task_version":"battery-v0.1"},{"rune":"B","hex":"#3366ff99","correct":-1,"choice":32,"rt":70.35500000347383,"accuracy":0,"outcome":"+1","keys":[1570.58999999566],"total_keys":1,"block":1,"trial":108,"robot":2,"valence":"win","action":"no-go","sham":0,"trial_type":"pit-trial","trial_index":123,"time_elapsed":761864,"internal_node_id":"0.0-110.0","task_version":"battery-v0.1"},{"rune":"B","hex":"#3366ff99","correct":-1,"choice":32,"rt":65.535000001546,"accuracy":0,"outcome":"+1","keys":[1566.4249999972526],"total_keys":1,"block":1,"trial":109,"robot":2,"valence":"win","action":"no-go","sham":0,"trial_type":"pit-trial","trial_index":124,"time_elapsed":764634,"internal_node_id":"0.0-111.0","task_version":"battery-v0.1"},{"rune":"S","hex":"#f73b6a7A","correct":32,"choice":32,"rt":446.06499999645166,"accuracy":1,"outcome":"-1","keys":[1946.3399999949615],"total_keys":1,"block":1,"trial":110,"robot":3,"valence":"lose","action":"go","sham":0,"trial_type":"pit-trial","trial_index":125,"time_elapsed":767784,"internal_node_id":"0.0-112.0","task_version":"battery-v0.1"},{"rune":"G","hex":"#f73b6a7A","correct":32,"choice":32,"rt":335.6449999992037,"accuracy":1,"outcome":"-1","keys":[1835.8050000023795],"total_keys":1,"block":1,"trial":111,"robot":3,"valence":"lose","action":"go","sham":0,"trial_type":"pit-trial","trial_index":126,"time_elapsed":770822,"internal_node_id":"0.0-113.0","task_version":"battery-v0.1"},{"rune":"V","hex":"#f73b6a7A","correct":-1,"choice":32,"rt":333.7600000012899,"accuracy":0,"outcome":"-10","keys":[1835.0499999942258],"total_keys":1,"block":1,"trial":112,"robot":4,"valence":"lose","action":"no-go","sham":0,"trial_type":"pit-trial","trial_index":127,"time_elapsed":773860,"internal_node_id":"0.0-114.0","task_version":"battery-v0.1"},{"rune":"S","hex":"#f73b6a7A","correct":32,"choice":32,"rt":332.3999999992084,"accuracy":1,"outcome":"-1","keys":[1833.6549999949057],"total_keys":1,"block":1,"trial":113,"robot":3,"valence":"lose","action":"go","sham":0,"trial_type":"pit-trial","trial_index":128,"time_elapsed":776897,"internal_node_id":"0.0-115.0","task_version":"battery-v0.1"},{"rune":"V","hex":"#f73b6a7A","correct":-1,"choice":32,"rt":274.2849999994505,"accuracy":0,"outcome":"-1","keys":[1774.7799999996787],"total_keys":1,"block":1,"trial":114,"robot":4,"valence":"lose","action":"no-go","sham":1,"trial_type":"pit-trial","trial_index":129,"time_elapsed":779874,"internal_node_id":"0.0-116.0","task_version":"battery-v0.1"},{"rune":"G","hex":"#f73b6a7A","correct":32,"choice":32,"rt":121.8349999981001,"accuracy":1,"outcome":"-1","keys":[1621.939999997383],"total_keys":1,"block":1,"trial":115,"robot":3,"valence":"lose","action":"go","sham":0,"trial_type":"pit-trial","trial_index":130,"time_elapsed":782699,"internal_node_id":"0.0-117.0","task_version":"battery-v0.1"},{"rune":"B","hex":"#3366ff99","correct":-1,"choice":32,"rt":34.780000001890585,"accuracy":0,"outcome":"+1","keys":[1535.9650000027614],"total_keys":1,"block":1,"trial":116,"robot":2,"valence":"win","action":"no-go","sham":0,"trial_type":"pit-trial","trial_index":131,"time_elapsed":785438,"internal_node_id":"0.0-118.0","task_version":"battery-v0.1"},{"rune":"V","hex":"#f73b6a7A","correct":-1,"choice":32,"rt":39.48500000115018,"accuracy":0,"outcome":"-10","keys":[1540.7450000056997],"total_keys":1,"block":1,"trial":117,"robot":4,"valence":"lose","action":"no-go","sham":0,"trial_type":"pit-trial","trial_index":132,"time_elapsed":788182,"internal_node_id":"0.0-119.0","task_version":"battery-v0.1"},{"rune":"S","hex":"#f73b6a7A","correct":32,"choice":32,"rt":94.82500000018626,"accuracy":1,"outcome":"-10","keys":[1595.7600000037346],"total_keys":1,"block":1,"trial":118,"robot":3,"valence":"lose","action":"go","sham":1,"trial_type":"pit-trial","trial_index":133,"time_elapsed":790981,"internal_node_id":"0.0-120.0","task_version":"battery-v0.1"},{"rune":"B","hex":"#3366ff99","correct":-1,"choice":32,"rt":139.1349999975646,"accuracy":0,"outcome":"+1","keys":[1639.4399999990128],"total_keys":1,"block":1,"trial":119,"robot":2,"valence":"win","action":"no-go","sham":0,"trial_type":"pit-trial","trial_index":134,"time_elapsed":793823,"internal_node_id":"0.0-121.0","task_version":"battery-v0.1"},{"rune":"G","hex":"#f73b6a7A","correct":32,"choice":32,"rt":435.77499999816064,"accuracy":1,"outcome":"-1","keys":[1309.3599999992875,1936.4150000037625],"total_keys":2,"block":1,"trial":120,"robot":3,"valence":"lose","action":"go","sham":0,"trial_type":"pit-trial","trial_index":135,"time_elapsed":796963,"internal_node_id":"0.0-122.0","task_version":"battery-v0.1"},{"view_history":"[{\"page_index\":0,\"viewing_time\":38183.734999998705},{\"page_index\":1,\"viewing_time\":59245.539999996196}]","rt":97429.72999999614,"trial_type":"pit-instructions","trial_index":136,"time_elapsed":894395,"internal_node_id":"0.0-123.0","task_version":"battery-v0.1"},{"rune":"E","hex":"#f73b6a7A","correct":-1,"choice":32,"rt":120.30500000400934,"accuracy":0,"outcome":"-10","keys":[1620.3299999978626],"total_keys":1,"block":2,"trial":121,"robot":4,"valence":"lose","action":"no-go","sham":0,"trial_type":"pit-trial","trial_index":137,"time_elapsed":897220,"internal_node_id":"0.0-124.0","task_version":"battery-v0.1"},{"rune":"D","hex":"#3366ff99","correct":-1,"choice":32,"rt":106.62500000034925,"accuracy":0,"outcome":"+1","keys":[1606.8949999971082],"total_keys":1,"block":2,"trial":122,"robot":2,"valence":"win","action":"no-go","sham":0,"trial_type":"pit-trial","trial_index":138,"time_elapsed":900028,"internal_node_id":"0.0-125.0","task_version":"battery-v0.1"},{"rune":"X","hex":"#3366ff99","correct":32,"choice":32,"rt":527.6250000023283,"accuracy":1,"outcome":"+10","keys":[1382.4299999978393,2028.0400000046939],"total_keys":2,"block":2,"trial":123,"robot":1,"valence":"win","action":"go","sham":0,"trial_type":"pit-trial","trial_index":139,"time_elapsed":903259,"internal_node_id":"0.0-126.0","task_version":"battery-v0.1"},{"rune":"H","hex":"#f73b6a7A","correct":-1,"choice":32,"rt":36.96499999926891,"accuracy":0,"outcome":"-1","keys":[1537.965000003227],"total_keys":1,"block":2,"trial":124,"robot":4,"valence":"lose","action":"no-go","sham":1,"trial_type":"pit-trial","trial_index":140,"time_elapsed":906000,"internal_node_id":"0.0-127.0","task_version":"battery-v0.1"},{"rune":"H","hex":"#f73b6a7A","correct":-1,"choice":32,"rt":495.2449999982491,"accuracy":0,"outcome":"-10","keys":[1997.0250000042142],"total_keys":1,"block":2,"trial":125,"robot":4,"valence":"lose","action":"no-go","sham":0,"trial_type":"pit-trial","trial_index":141,"time_elapsed":909199,"internal_node_id":"0.0-128.0","task_version":"battery-v0.1"},{"rune":"D","hex":"#3366ff99","correct":-1,"choice":32,"rt":213.28999999980442,"accuracy":0,"outcome":"+1","keys":[1714.0199999993201],"total_keys":1,"block":2,"trial":126,"robot":2,"valence":"win","action":"no-go","sham":0,"trial_type":"pit-trial","trial_index":142,"time_elapsed":912116,"internal_node_id":"0.0-129.0","task_version":"battery-v0.1"},{"rune":"X","hex":"#3366ff99","correct":32,"choice":32,"rt":39.9249999972526,"accuracy":1,"outcome":"+10","keys":[1541.0249999987427],"total_keys":1,"block":2,"trial":127,"robot":1,"valence":"win","action":"go","sham":0,"trial_type":"pit-trial","trial_index":143,"time_elapsed":914860,"internal_node_id":"0.0-130.0","task_version":"battery-v0.1"},{"rune":"E","hex":"#f73b6a7A","correct":-1,"choice":32,"rt":103.18499999982305,"accuracy":0,"outcome":"-10","keys":[1604.349999994156],"total_keys":1,"block":2,"trial":128,"robot":4,"valence":"lose","action":"no-go","sham":0,"trial_type":"pit-trial","trial_index":144,"time_elapsed":917668,"internal_node_id":"0.0-131.0","task_version":"battery-v0.1"},{"rune":"D","hex":"#3366ff99","correct":-1,"choice":32,"rt":52.620000002207235,"accuracy":0,"outcome":"+1","keys":[1553.0050000016345],"total_keys":1,"block":2,"trial":129,"robot":2,"valence":"win","action":"no-go","sham":0,"trial_type":"pit-trial","trial_index":145,"time_elapsed":920424,"internal_node_id":"0.0-132.0","task_version":"battery-v0.1"},{"rune":"E","hex":"#f73b6a7A","correct":-1,"choice":-1,"rt":-1,"accuracy":1,"outcome":"-1","keys":[1475.3199999977369],"total_keys":1,"block":2,"trial":130,"robot":4,"valence":"lose","action":"no-go","sham":0,"trial_type":"pit-trial","trial_index":146,"time_elapsed":924428,"internal_node_id":"0.0-133.0","task_version":"battery-v0.1"},{"rune":"H","hex":"#f73b6a7A","correct":-1,"choice":32,"rt":82.35000000428408,"accuracy":0,"outcome":"-10","keys":[44.08500000135973,1582.5199999962933],"total_keys":2,"block":2,"trial":131,"robot":4,"valence":"lose","action":"no-go","sham":0,"trial_type":"pit-trial","trial_index":147,"time_elapsed":927213,"internal_node_id":"0.0-134.0","task_version":"battery-v0.1"},{"rune":"X","hex":"#3366ff99","correct":32,"choice":-1,"rt":-1,"accuracy":0,"outcome":"+1","keys":[1467.6899999977322],"total_keys":1,"block":2,"trial":132,"robot":1,"valence":"win","action":"go","sham":0,"trial_type":"pit-trial","trial_index":148,"time_elapsed":931217,"internal_node_id":"0.0-135.0","task_version":"battery-v0.1"},{"rune":"D","hex":"#3366ff99","correct":-1,"choice":-1,"rt":-1,"accuracy":1,"outcome":"+1","keys":[1115.0049999996554,2850.139999995008],"total_keys":2,"block":2,"trial":133,"robot":2,"valence":"win","action":"no-go","sham":1,"trial_type":"pit-trial","trial_index":149,"time_elapsed":935220,"internal_node_id":"0.0-136.0","task_version":"battery-v0.1"},{"rune":"X","hex":"#3366ff99","correct":32,"choice":32,"rt":289.5700000007637,"accuracy":1,"outcome":"+10","keys":[1790.789999999106],"total_keys":1,"block":2,"trial":134,"robot":1,"valence":"win","action":"go","sham":0,"trial_type":"pit-trial","trial_index":150,"time_elapsed":938215,"internal_node_id":"0.0-137.0","task_version":"battery-v0.1"},{"rune":"H","hex":"#f73b6a7A","correct":-1,"choice":32,"rt":299.5599999995902,"accuracy":0,"outcome":"-10","keys":[2176.870000003022,2778.809999996214],"total_keys":2,"block":2,"trial":135,"robot":4,"valence":"lose","action":"no-go","sham":0,"trial_type":"pit-trial","trial_index":151,"time_elapsed":941595,"internal_node_id":"0.0-138.0","task_version":"battery-v0.1"},{"rune":"E","hex":"#f73b6a7A","correct":-1,"choice":32,"rt":126.93499999307096,"accuracy":0,"outcome":"-10","keys":[61.39500000432599,1148.1449999993201,1627.1350000025705,2146.66500000027],"total_keys":4,"block":2,"trial":136,"robot":4,"valence":"lose","action":"no-go","sham":0,"trial_type":"pit-trial","trial_index":152,"time_elapsed":944426,"internal_node_id":"0.0-139.0","task_version":"battery-v0.1"},{"rune":"H","hex":"#f73b6a7A","correct":-1,"choice":32,"rt":65.19500000285916,"accuracy":0,"outcome":"-1","keys":[1001.7049999951851,1566.3500000010245],"total_keys":2,"block":2,"trial":137,"robot":4,"valence":"lose","action":"no-go","sham":1,"trial_type":"pit-trial","trial_index":153,"time_elapsed":947212,"internal_node_id":"0.0-140.0","task_version":"battery-v0.1"},{"rune":"X","hex":"#3366ff99","correct":32,"choice":-1,"rt":-1,"accuracy":0,"outcome":"+1","keys":[],"total_keys":0,"block":2,"trial":138,"robot":1,"valence":"win","action":"go","sham":0,"trial_type":"pit-trial","trial_index":154,"time_elapsed":952028,"internal_node_id":"0.0-141.0","task_version":"battery-v0.1"},{"rune":"D","hex":"#3366ff99","correct":-1,"choice":-1,"rt":-1,"accuracy":1,"outcome":"+10","keys":[875.6749999956228],"total_keys":1,"block":2,"trial":139,"robot":2,"valence":"win","action":"no-go","sham":0,"trial_type":"pit-trial","trial_index":155,"time_elapsed":956032,"internal_node_id":"0.0-142.0","task_version":"battery-v0.1"},{"rune":"E","hex":"#f73b6a7A","correct":-1,"choice":32,"rt":832.5150000018766,"accuracy":0,"outcome":"-1","keys":[2333.034999995958],"total_keys":1,"block":2,"trial":140,"robot":4,"valence":"lose","action":"no-go","sham":1,"trial_type":"pit-trial","trial_index":156,"time_elapsed":959567,"internal_node_id":"0.0-143.0","task_version":"battery-v0.1"},{"rune":"D","hex":"#3366ff99","correct":-1,"choice":32,"rt":32.01499999710359,"accuracy":0,"outcome":"+10","keys":[1532.2450000022072],"total_keys":1,"block":2,"trial":141,"robot":2,"valence":"win","action":"no-go","sham":1,"trial_type":"pit-trial","trial_index":157,"time_elapsed":962303,"internal_node_id":"0.0-144.0","task_version":"battery-v0.1"},{"rune":"E","hex":"#f73b6a7A","correct":-1,"choice":32,"rt":166.27999999758322,"accuracy":0,"outcome":"-10","keys":[1666.3450000050943],"total_keys":1,"block":2,"trial":142,"robot":4,"valence":"lose","action":"no-go","sham":0,"trial_type":"pit-trial","trial_index":158,"time_elapsed":965172,"internal_node_id":"0.0-145.0","task_version":"battery-v0.1"},{"rune":"H","hex":"#f73b6a7A","correct":-1,"choice":-1,"rt":-1,"accuracy":1,"outcome":"-1","keys":[1347.5550000001676],"total_keys":1,"block":2,"trial":143,"robot":4,"valence":"lose","action":"no-go","sham":0,"trial_type":"pit-trial","trial_index":159,"time_elapsed":969176,"internal_node_id":"0.0-146.0","task_version":"battery-v0.1"},{"rune":"X","hex":"#3366ff99","correct":32,"choice":32,"rt":102.39000000013039,"accuracy":1,"outcome":"+10","keys":[1603.190000001574],"total_keys":1,"block":2,"trial":144,"robot":1,"valence":"win","action":"go","sham":0,"trial_type":"pit-trial","trial_index":160,"time_elapsed":971982,"internal_node_id":"0.0-147.0","task_version":"battery-v0.1"},{"rune":"X","hex":"#3366ff99","correct":32,"choice":32,"rt":459.4599999982165,"accuracy":1,"outcome":"+10","keys":[1312.9600000029895,1959.7800000046846],"total_keys":2,"block":2,"trial":145,"robot":1,"valence":"win","action":"go","sham":0,"trial_type":"pit-trial","trial_index":161,"time_elapsed":975145,"internal_node_id":"0.0-148.0","task_version":"battery-v0.1"},{"rune":"D","hex":"#3366ff99","correct":-1,"choice":-1,"rt":-1,"accuracy":1,"outcome":"+10","keys":[3127.02999999607],"total_keys":1,"block":2,"trial":146,"robot":2,"valence":"win","action":"no-go","sham":0,"trial_type":"pit-trial","trial_index":162,"time_elapsed":979148,"internal_node_id":"0.0-149.0","task_version":"battery-v0.1"},{"rune":"H","hex":"#f73b6a7A","correct":-1,"choice":32,"rt":345.01499999896623,"accuracy":0,"outcome":"-10","keys":[1846.4749999984633],"total_keys":1,"block":2,"trial":147,"robot":4,"valence":"lose","action":"no-go","sham":0,"trial_type":"pit-trial","trial_index":163,"time_elapsed":982198,"internal_node_id":"0.0-150.0","task_version":"battery-v0.1"},{"rune":"E","hex":"#f73b6a7A","correct":-1,"choice":-1,"rt":-1,"accuracy":1,"outcome":"-1","keys":[],"total_keys":0,"block":2,"trial":148,"robot":4,"valence":"lose","action":"no-go","sham":0,"trial_type":"pit-trial","trial_index":164,"time_elapsed":987214,"internal_node_id":"0.0-151.0","task_version":"battery-v0.1"},{"rune":"X","hex":"#3366ff99","correct":32,"choice":32,"rt":1231.5949999975273,"accuracy":1,"outcome":"+10","keys":[1458.5950000036974,2736.4999999990687],"total_keys":2,"block":2,"trial":149,"robot":1,"valence":"win","action":"go","sham":0,"trial_type":"pit-trial","trial_index":165,"time_elapsed":991214,"internal_node_id":"0.0-152.0","task_version":"battery-v0.1"},{"rune":"H","hex":"#f73b6a7A","correct":-1,"choice":-1,"rt":-1,"accuracy":1,"outcome":"-1","keys":[],"total_keys":0,"block":2,"trial":150,"robot":4,"valence":"lose","action":"no-go","sham":0,"trial_type":"pit-trial","trial_index":166,"time_elapsed":995664,"internal_node_id":"0.0-153.0","task_version":"battery-v0.1"},{"rune":"D","hex":"#3366ff99","correct":-1,"choice":32,"rt":256.9900000017369,"accuracy":0,"outcome":"+1","keys":[1757.4099999982864],"total_keys":1,"block":2,"trial":151,"robot":2,"valence":"win","action":"no-go","sham":0,"trial_type":"pit-trial","trial_index":167,"time_elapsed":998624,"internal_node_id":"0.0-154.0","task_version":"battery-v0.1"},{"rune":"E","hex":"#f73b6a7A","correct":-1,"choice":-1,"rt":-1,"accuracy":1,"outcome":"-1","keys":[1466.4199999971315],"total_keys":1,"block":2,"trial":152,"robot":4,"valence":"lose","action":"no-go","sham":0,"trial_type":"pit-trial","trial_index":168,"time_elapsed":1002627,"internal_node_id":"0.0-155.0","task_version":"battery-v0.1"},{"rune":"E","hex":"#f73b6a7A","correct":-1,"choice":-1,"rt":-1,"accuracy":1,"outcome":"-10","keys":[1321.605000004638],"total_keys":1,"block":2,"trial":153,"robot":4,"valence":"lose","action":"no-go","sham":1,"trial_type":"pit-trial","trial_index":169,"time_elapsed":1007214,"internal_node_id":"0.0-156.0","task_version":"battery-v0.1"},{"rune":"I","hex":"#f73b6a7A","correct":32,"choice":32,"rt":374.5649999983143,"accuracy":1,"outcome":"-10","keys":[2371.084999998915],"total_keys":1,"block":2,"trial":154,"robot":3,"valence":"lose","action":"go","sham":1,"trial_type":"pit-trial","trial_index":170,"time_elapsed":1010789,"internal_node_id":"0.0-157.0","task_version":"battery-v0.1"},{"rune":"X","hex":"#3366ff99","correct":32,"choice":32,"rt":49.569999995524995,"accuracy":1,"outcome":"+10","keys":[170.27500000409782,1098.6499999999069,1550.7400000060443],"total_keys":3,"block":2,"trial":155,"robot":1,"valence":"win","action":"go","sham":0,"trial_type":"pit-trial","trial_index":171,"time_elapsed":1013542,"internal_node_id":"0.0-158.0","task_version":"battery-v0.1"},{"rune":"D","hex":"#3366ff99","correct":-1,"choice":32,"rt":183.39500000001863,"accuracy":0,"outcome":"+1","keys":[1005.2199999991572,1684.215000001248],"total_keys":2,"block":2,"trial":156,"robot":2,"valence":"win","action":"no-go","sham":0,"trial_type":"pit-trial","trial_index":172,"time_elapsed":1016429,"internal_node_id":"0.0-159.0","task_version":"battery-v0.1"},{"rune":"E","hex":"#f73b6a7A","correct":-1,"choice":32,"rt":545.2049999948358,"accuracy":0,"outcome":"-10","keys":[2046.105000001262],"total_keys":1,"block":2,"trial":157,"robot":4,"valence":"lose","action":"no-go","sham":0,"trial_type":"pit-trial","trial_index":173,"time_elapsed":1019678,"internal_node_id":"0.0-160.0","task_version":"battery-v0.1"},{"rune":"X","hex":"#3366ff99","correct":32,"choice":32,"rt":281.3349999996135,"accuracy":1,"outcome":"+10","keys":[1782.760000001872],"total_keys":1,"block":2,"trial":158,"robot":1,"valence":"win","action":"go","sham":0,"trial_type":"pit-trial","trial_index":174,"time_elapsed":1022663,"internal_node_id":"0.0-161.0","task_version":"battery-v0.1"},{"rune":"I","hex":"#f73b6a7A","correct":32,"choice":32,"rt":743.8150000016904,"accuracy":1,"outcome":"-1","keys":[2244.829999996],"total_keys":1,"block":2,"trial":159,"robot":3,"valence":"lose","action":"go","sham":0,"trial_type":"pit-trial","trial_index":175,"time_elapsed":1026111,"internal_node_id":"0.0-162.0","task_version":"battery-v0.1"},{"rune":"D","hex":"#3366ff99","correct":-1,"choice":-1,"rt":-1,"accuracy":1,"outcome":"+10","keys":[3407.5700000029756],"total_keys":1,"block":2,"trial":160,"robot":2,"valence":"win","action":"no-go","sham":0,"trial_type":"pit-trial","trial_index":176,"time_elapsed":1030114,"internal_node_id":"0.0-163.0","task_version":"battery-v0.1"},{"rune":"M","hex":"#3366ff99","correct":32,"choice":32,"rt":164.33500000124332,"accuracy":1,"outcome":"+10","keys":[1664.344999997411],"total_keys":1,"block":2,"trial":161,"robot":1,"valence":"win","action":"go","sham":0,"trial_type":"pit-trial","trial_index":177,"time_elapsed":1033214,"internal_node_id":"0.0-164.0","task_version":"battery-v0.1"},{"rune":"I","hex":"#f73b6a7A","correct":32,"choice":-1,"rt":-1,"accuracy":0,"outcome":"-10","keys":[2925.470000001951],"total_keys":1,"block":2,"trial":162,"robot":3,"valence":"lose","action":"go","sham":0,"trial_type":"pit-trial","trial_index":178,"time_elapsed":1037218,"internal_node_id":"0.0-165.0","task_version":"battery-v0.1"},{"rune":"Z","hex":"#3366ff99","correct":-1,"choice":32,"rt":769.0349999975879,"accuracy":0,"outcome":"+1","keys":[2269.6700000015553],"total_keys":1,"block":2,"trial":163,"robot":2,"valence":"win","action":"no-go","sham":0,"trial_type":"pit-trial","trial_index":179,"time_elapsed":1040690,"internal_node_id":"0.0-166.0","task_version":"battery-v0.1"},{"rune":"E","hex":"#f73b6a7A","correct":-1,"choice":32,"rt":208.4949999989476,"accuracy":0,"outcome":"-10","keys":[1708.6750000016764],"total_keys":1,"block":2,"trial":164,"robot":4,"valence":"lose","action":"no-go","sham":0,"trial_type":"pit-trial","trial_index":180,"time_elapsed":1043602,"internal_node_id":"0.0-167.0","task_version":"battery-v0.1"},{"rune":"I","hex":"#f73b6a7A","correct":32,"choice":32,"rt":2.8950000051409006,"accuracy":1,"outcome":"-1","keys":[1503.9350000005215],"total_keys":1,"block":2,"trial":165,"robot":3,"valence":"lose","action":"go","sham":0,"trial_type":"pit-trial","trial_index":181,"time_elapsed":1047215,"internal_node_id":"0.0-168.0","task_version":"battery-v0.1"},{"rune":"Z","hex":"#3366ff99","correct":-1,"choice":32,"rt":291.1149999999907,"accuracy":0,"outcome":"+1","keys":[930.2099999985658,1791.3849999967497,2716.8099999981932],"total_keys":3,"block":2,"trial":166,"robot":2,"valence":"win","action":"no-go","sham":0,"trial_type":"pit-trial","trial_index":182,"time_elapsed":1050212,"internal_node_id":"0.0-169.0","task_version":"battery-v0.1"},{"rune":"M","hex":"#3366ff99","correct":32,"choice":32,"rt":26.78000000026077,"accuracy":1,"outcome":"+10","keys":[1528.6049999995157],"total_keys":1,"block":2,"trial":167,"robot":1,"valence":"win","action":"go","sham":0,"trial_type":"pit-trial","trial_index":183,"time_elapsed":1052943,"internal_node_id":"0.0-170.0","task_version":"battery-v0.1"},{"rune":"E","hex":"#f73b6a7A","correct":-1,"choice":-1,"rt":-1,"accuracy":1,"outcome":"-1","keys":[1411.2900000035297],"total_keys":1,"block":2,"trial":168,"robot":4,"valence":"lose","action":"no-go","sham":0,"trial_type":"pit-trial","trial_index":184,"time_elapsed":1056946,"internal_node_id":"0.0-171.0","task_version":"battery-v0.1"},{"rune":"I","hex":"#f73b6a7A","correct":32,"choice":-1,"rt":-1,"accuracy":0,"outcome":"-1","keys":[1283.6449999958277],"total_keys":1,"block":2,"trial":169,"robot":3,"valence":"lose","action":"go","sham":1,"trial_type":"pit-trial","trial_index":185,"time_elapsed":1060951,"internal_node_id":"0.0-172.0","task_version":"battery-v0.1"},{"rune":"M","hex":"#3366ff99","correct":32,"choice":-1,"rt":-1,"accuracy":0,"outcome":"+1","keys":[1450.314999994589],"total_keys":1,"block":2,"trial":170,"robot":1,"valence":"win","action":"go","sham":0,"trial_type":"pit-trial","trial_index":186,"time_elapsed":1064955,"internal_node_id":"0.0-173.0","task_version":"battery-v0.1"},{"rune":"Q","hex":"#f73b6a7A","correct":-1,"choice":32,"rt":60.93999999575317,"accuracy":0,"outcome":"-10","keys":[1562.1099999989383],"total_keys":1,"block":2,"trial":171,"robot":4,"valence":"lose","action":"no-go","sham":0,"trial_type":"pit-trial","trial_index":187,"time_elapsed":1067720,"internal_node_id":"0.0-174.0","task_version":"battery-v0.1"},{"rune":"Z","hex":"#3366ff99","correct":-1,"choice":32,"rt":185.59499999531545,"accuracy":0,"outcome":"+1","keys":[1686.2450000043027],"total_keys":1,"block":2,"trial":172,"robot":2,"valence":"win","action":"no-go","sham":0,"trial_type":"pit-trial","trial_index":188,"time_elapsed":1070609,"internal_node_id":"0.0-175.0","task_version":"battery-v0.1"},{"rune":"Q","hex":"#f73b6a7A","correct":-1,"choice":32,"rt":214.73999999603257,"accuracy":0,"outcome":"-10","keys":[1715.3499999986961],"total_keys":1,"block":2,"trial":173,"robot":4,"valence":"lose","action":"no-go","sham":0,"trial_type":"pit-trial","trial_index":189,"time_elapsed":1073526,"internal_node_id":"0.0-176.0","task_version":"battery-v0.1"},{"rune":"Z","hex":"#3366ff99","correct":-1,"choice":32,"rt":27.37999999965541,"accuracy":0,"outcome":"+1","keys":[1528.6150000030175],"total_keys":1,"block":2,"trial":174,"robot":2,"valence":"win","action":"no-go","sham":0,"trial_type":"pit-trial","trial_index":190,"time_elapsed":1076258,"internal_node_id":"0.0-177.0","task_version":"battery-v0.1"},{"rune":"I","hex":"#f73b6a7A","correct":32,"choice":-1,"rt":-1,"accuracy":0,"outcome":"-10","keys":[1342.060000002617],"total_keys":1,"block":2,"trial":175,"robot":3,"valence":"lose","action":"go","sham":0,"trial_type":"pit-trial","trial_index":191,"time_elapsed":1080261,"internal_node_id":"0.0-178.0","task_version":"battery-v0.1"},{"rune":"M","hex":"#3366ff99","correct":32,"choice":32,"rt":183.66000000247732,"accuracy":1,"outcome":"+1","keys":[1683.7000000015832],"total_keys":1,"block":2,"trial":176,"robot":1,"valence":"win","action":"go","sham":1,"trial_type":"pit-trial","trial_index":192,"time_elapsed":1083217,"internal_node_id":"0.0-179.0","task_version":"battery-v0.1"},{"rune":"Q","hex":"#f73b6a7A","correct":-1,"choice":32,"rt":458.9899999992922,"accuracy":0,"outcome":"-10","keys":[1960.8800000059418],"total_keys":1,"block":2,"trial":177,"robot":4,"valence":"lose","action":"no-go","sham":0,"trial_type":"pit-trial","trial_index":193,"time_elapsed":1087213,"internal_node_id":"0.0-180.0","task_version":"battery-v0.1"},{"rune":"I","hex":"#f73b6a7A","correct":32,"choice":32,"rt":170.80500000156462,"accuracy":1,"outcome":"-10","keys":[859.1499999966472,1670.8649999999907],"total_keys":2,"block":2,"trial":178,"robot":3,"valence":"lose","action":"go","sham":1,"trial_type":"pit-trial","trial_index":194,"time_elapsed":1090087,"internal_node_id":"0.0-181.0","task_version":"battery-v0.1"},{"rune":"M","hex":"#3366ff99","correct":32,"choice":32,"rt":218.92999999551103,"accuracy":1,"outcome":"+1","keys":[1719.6600000024773],"total_keys":1,"block":2,"trial":179,"robot":1,"valence":"win","action":"go","sham":1,"trial_type":"pit-trial","trial_index":195,"time_elapsed":1093213,"internal_node_id":"0.0-182.0","task_version":"battery-v0.1"},{"rune":"Z","hex":"#3366ff99","correct":-1,"choice":-1,"rt":-1,"accuracy":1,"outcome":"+10","keys":[3984.0649999969173],"total_keys":1,"block":2,"trial":180,"robot":2,"valence":"win","action":"no-go","sham":0,"trial_type":"pit-trial","trial_index":196,"time_elapsed":1097219,"internal_node_id":"0.0-183.0","task_version":"battery-v0.1"},{"rune":"M","hex":"#3366ff99","correct":32,"choice":32,"rt":17.514999999431893,"accuracy":1,"outcome":"+10","keys":[1518.720000000205],"total_keys":1,"block":2,"trial":181,"robot":1,"valence":"win","action":"go","sham":0,"trial_type":"pit-trial","trial_index":197,"time_elapsed":1099941,"internal_node_id":"0.0-184.0","task_version":"battery-v0.1"},{"rune":"Q","hex":"#f73b6a7A","correct":-1,"choice":-1,"rt":-1,"accuracy":1,"outcome":"-10","keys":[1311.284999996191],"total_keys":1,"block":2,"trial":182,"robot":4,"valence":"lose","action":"no-go","sham":1,"trial_type":"pit-trial","trial_index":198,"time_elapsed":1103944,"internal_node_id":"0.0-185.0","task_version":"battery-v0.1"},{"rune":"I","hex":"#f73b6a7A","correct":32,"choice":32,"rt":188.41499999701045,"accuracy":1,"outcome":"-1","keys":[1688.8899999975692],"total_keys":1,"block":2,"trial":183,"robot":3,"valence":"lose","action":"go","sham":0,"trial_type":"pit-trial","trial_index":199,"time_elapsed":1107213,"internal_node_id":"0.0-186.0","task_version":"battery-v0.1"},{"rune":"Z","hex":"#3366ff99","correct":-1,"choice":32,"rt":449.67000000178814,"accuracy":0,"outcome":"+1","keys":[838.5049999998882,1407.4599999948405,1949.8049999966752],"total_keys":3,"block":2,"trial":184,"robot":2,"valence":"win","action":"no-go","sham":0,"trial_type":"pit-trial","trial_index":200,"time_elapsed":1110410,"internal_node_id":"0.0-187.0","task_version":"battery-v0.1"},{"rune":"M","hex":"#3366ff99","correct":32,"choice":32,"rt":444.21999999764375,"accuracy":1,"outcome":"+10","keys":[1170.6499999999069,1944.3800000008196],"total_keys":2,"block":2,"trial":185,"robot":1,"valence":"win","action":"go","sham":0,"trial_type":"pit-trial","trial_index":201,"time_elapsed":1113558,"internal_node_id":"0.0-188.0","task_version":"battery-v0.1"},{"rune":"Q","hex":"#f73b6a7A","correct":-1,"choice":-1,"rt":-1,"accuracy":1,"outcome":"-10","keys":[1259.290000001667],"total_keys":1,"block":2,"trial":186,"robot":4,"valence":"lose","action":"no-go","sham":1,"trial_type":"pit-trial","trial_index":202,"time_elapsed":1117561,"internal_node_id":"0.0-189.0","task_version":"battery-v0.1"},{"rune":"I","hex":"#f73b6a7A","correct":32,"choice":-1,"rt":-1,"accuracy":0,"outcome":"-10","keys":[1426.569999996107],"total_keys":1,"block":2,"trial":187,"robot":3,"valence":"lose","action":"go","sham":0,"trial_type":"pit-trial","trial_index":203,"time_elapsed":1121566,"internal_node_id":"0.0-190.0","task_version":"battery-v0.1"},{"rune":"Z","hex":"#3366ff99","correct":-1,"choice":32,"rt":115.20000000018626,"accuracy":0,"outcome":"+1","keys":[1615.6900000059977],"total_keys":1,"block":2,"trial":188,"robot":2,"valence":"win","action":"no-go","sham":0,"trial_type":"pit-trial","trial_index":204,"time_elapsed":1125212,"internal_node_id":"0.0-191.0","task_version":"battery-v0.1"},{"rune":"M","hex":"#3366ff99","correct":32,"choice":32,"rt":77.36499999742955,"accuracy":1,"outcome":"+10","keys":[923.9400000006426,1578.144999999553,1946.4749999970663],"total_keys":3,"block":2,"trial":189,"robot":1,"valence":"win","action":"go","sham":0,"trial_type":"pit-trial","trial_index":205,"time_elapsed":1128214,"internal_node_id":"0.0-192.0","task_version":"battery-v0.1"},{"rune":"Z","hex":"#3366ff99","correct":-1,"choice":32,"rt":362.3050000022631,"accuracy":0,"outcome":"+1","keys":[1421.8000000037719,1863.4600000006612,2168.33000000054],"total_keys":3,"block":2,"trial":190,"robot":2,"valence":"win","action":"no-go","sham":0,"trial_type":"pit-trial","trial_index":206,"time_elapsed":1131281,"internal_node_id":"0.0-193.0","task_version":"battery-v0.1"},{"rune":"Q","hex":"#f73b6a7A","correct":-1,"choice":32,"rt":949.3650000004563,"accuracy":0,"outcome":"-10","keys":[1255.1200000017416,2450.6150000016205],"total_keys":2,"block":2,"trial":191,"robot":4,"valence":"lose","action":"no-go","sham":0,"trial_type":"pit-trial","trial_index":207,"time_elapsed":1134935,"internal_node_id":"0.0-194.0","task_version":"battery-v0.1"},{"rune":"I","hex":"#f73b6a7A","correct":32,"choice":-1,"rt":-1,"accuracy":0,"outcome":"-10","keys":[1490.1099999987055,2953.110000002198],"total_keys":2,"block":2,"trial":192,"robot":3,"valence":"lose","action":"go","sham":0,"trial_type":"pit-trial","trial_index":208,"time_elapsed":1139213,"internal_node_id":"0.0-195.0","task_version":"battery-v0.1"},{"rune":"N","hex":"#f73b6a7A","correct":32,"choice":32,"rt":303.4049999988638,"accuracy":1,"outcome":"-1","keys":[2002.7750000008382,3077.0300000002608],"total_keys":2,"block":2,"trial":193,"robot":3,"valence":"lose","action":"go","sham":0,"trial_type":"pit-trial","trial_index":209,"time_elapsed":1142419,"internal_node_id":"0.0-196.0","task_version":"battery-v0.1"},{"rune":"R","hex":"#3366ff99","correct":32,"choice":32,"rt":205.4100000022445,"accuracy":1,"outcome":"+10","keys":[1707.2000000043772],"total_keys":1,"block":2,"trial":194,"robot":1,"valence":"win","action":"go","sham":0,"trial_type":"pit-trial","trial_index":210,"time_elapsed":1146214,"internal_node_id":"0.0-197.0","task_version":"battery-v0.1"},{"rune":"Q","hex":"#f73b6a7A","correct":-1,"choice":32,"rt":618.8949999997858,"accuracy":0,"outcome":"-10","keys":[1500.5750000055414,2119.5600000063423,2778.8550000041723],"total_keys":3,"block":2,"trial":195,"robot":4,"valence":"lose","action":"no-go","sham":0,"trial_type":"pit-trial","trial_index":211,"time_elapsed":1150213,"internal_node_id":"0.0-198.0","task_version":"battery-v0.1"},{"rune":"Z","hex":"#3366ff99","correct":-1,"choice":-1,"rt":-1,"accuracy":1,"outcome":"+10","keys":[],"total_keys":0,"block":2,"trial":196,"robot":2,"valence":"win","action":"no-go","sham":0,"trial_type":"pit-trial","trial_index":212,"time_elapsed":1154835,"internal_node_id":"0.0-199.0","task_version":"battery-v0.1"},{"rune":"Z","hex":"#3366ff99","correct":-1,"choice":32,"rt":399.6800000022631,"accuracy":0,"outcome":"+1","keys":[208.45499999984168,806.5350000034086,1185.890000000596,1421.0949999978766,1900.5099999995437],"total_keys":5,"block":2,"trial":197,"robot":2,"valence":"win","action":"no-go","sham":0,"trial_type":"pit-trial","trial_index":213,"time_elapsed":1158213,"internal_node_id":"0.0-200.0","task_version":"battery-v0.1"},{"rune":"N","hex":"#f73b6a7A","correct":32,"choice":32,"rt":313.3049999959767,"accuracy":1,"outcome":"-10","keys":[2314.9899999988265],"total_keys":1,"block":2,"trial":198,"robot":3,"valence":"lose","action":"go","sham":1,"trial_type":"pit-trial","trial_index":214,"time_elapsed":1161731,"internal_node_id":"0.0-201.0","task_version":"battery-v0.1"},{"rune":"R","hex":"#3366ff99","correct":32,"choice":-1,"rt":-1,"accuracy":0,"outcome":"+1","keys":[16.459999998798594,1399.4349999993574,3893.3499999984633],"total_keys":3,"block":2,"trial":199,"robot":1,"valence":"win","action":"go","sham":0,"trial_type":"pit-trial","trial_index":215,"time_elapsed":1166414,"internal_node_id":"0.0-202.0","task_version":"battery-v0.1"},{"rune":"Q","hex":"#f73b6a7A","correct":-1,"choice":-1,"rt":-1,"accuracy":1,"outcome":"-10","keys":[1493.0999999996275],"total_keys":1,"block":2,"trial":200,"robot":4,"valence":"lose","action":"no-go","sham":1,"trial_type":"pit-trial","trial_index":216,"time_elapsed":1170418,"internal_node_id":"0.0-203.0","task_version":"battery-v0.1"},{"rune":"Q","hex":"#f73b6a7A","correct":-1,"choice":32,"rt":267.01999999932013,"accuracy":0,"outcome":"-1","keys":[1767.124999998603],"total_keys":1,"block":2,"trial":201,"robot":4,"valence":"lose","action":"no-go","sham":1,"trial_type":"pit-trial","trial_index":217,"time_elapsed":1173388,"internal_node_id":"0.0-204.0","task_version":"battery-v0.1"},{"rune":"Z","hex":"#3366ff99","correct":-1,"choice":32,"rt":236.53000000212342,"accuracy":0,"outcome":"+1","keys":[1737.200000003213],"total_keys":1,"block":2,"trial":202,"robot":2,"valence":"win","action":"no-go","sham":0,"trial_type":"pit-trial","trial_index":218,"time_elapsed":1176329,"internal_node_id":"0.0-205.0","task_version":"battery-v0.1"},{"rune":"R","hex":"#3366ff99","correct":32,"choice":32,"rt":1179.485000000568,"accuracy":1,"outcome":"+10","keys":[1447.5200000016484,2680.06500000041],"total_keys":2,"block":2,"trial":203,"robot":1,"valence":"win","action":"go","sham":0,"trial_type":"pit-trial","trial_index":219,"time_elapsed":1180212,"internal_node_id":"0.0-206.0","task_version":"battery-v0.1"},{"rune":"N","hex":"#f73b6a7A","correct":32,"choice":32,"rt":79.12000000220723,"accuracy":1,"outcome":"-1","keys":[1580.0600000002887],"total_keys":1,"block":2,"trial":204,"robot":3,"valence":"lose","action":"go","sham":0,"trial_type":"pit-trial","trial_index":220,"time_elapsed":1182995,"internal_node_id":"0.0-207.0","task_version":"battery-v0.1"},{"rune":"R","hex":"#3366ff99","correct":32,"choice":32,"rt":149.96999999857508,"accuracy":1,"outcome":"+10","keys":[1650.7599999967497],"total_keys":1,"block":2,"trial":205,"robot":1,"valence":"win","action":"go","sham":0,"trial_type":"pit-trial","trial_index":221,"time_elapsed":1185849,"internal_node_id":"0.0-208.0","task_version":"battery-v0.1"},{"rune":"N","hex":"#f73b6a7A","correct":32,"choice":32,"rt":88.91500000027008,"accuracy":1,"outcome":"-1","keys":[1589.10499999905],"total_keys":1,"block":2,"trial":206,"robot":3,"valence":"lose","action":"go","sham":0,"trial_type":"pit-trial","trial_index":222,"time_elapsed":1188641,"internal_node_id":"0.0-209.0","task_version":"battery-v0.1"},{"rune":"Q","hex":"#f73b6a7A","correct":-1,"choice":32,"rt":136.71500000054948,"accuracy":0,"outcome":"-1","keys":[1637.0600000007544],"total_keys":1,"block":2,"trial":207,"robot":4,"valence":"lose","action":"no-go","sham":1,"trial_type":"pit-trial","trial_index":223,"time_elapsed":1191481,"internal_node_id":"0.0-210.0","task_version":"battery-v0.1"},{"rune":"Z","hex":"#3366ff99","correct":-1,"choice":32,"rt":209.36000000080094,"accuracy":0,"outcome":"+1","keys":[1709.519999996759],"total_keys":1,"block":2,"trial":208,"robot":2,"valence":"win","action":"no-go","sham":0,"trial_type":"pit-trial","trial_index":224,"time_elapsed":1194394,"internal_node_id":"0.0-211.0","task_version":"battery-v0.1"},{"rune":"R","hex":"#3366ff99","correct":32,"choice":-1,"rt":-1,"accuracy":0,"outcome":"+1","keys":[1365.6149999951012],"total_keys":1,"block":2,"trial":209,"robot":1,"valence":"win","action":"go","sham":0,"trial_type":"pit-trial","trial_index":225,"time_elapsed":1198397,"internal_node_id":"0.0-212.0","task_version":"battery-v0.1"},{"rune":"J","hex":"#3366ff99","correct":-1,"choice":32,"rt":278.89000000129454,"accuracy":0,"outcome":"+10","keys":[1778.9899999988265],"total_keys":1,"block":2,"trial":210,"robot":2,"valence":"win","action":"no-go","sham":1,"trial_type":"pit-trial","trial_index":226,"time_elapsed":1201378,"internal_node_id":"0.0-213.0","task_version":"battery-v0.1"},{"rune":"Y","hex":"#f73b6a7A","correct":32,"choice":32,"rt":305.8200000014622,"accuracy":1,"outcome":"-1","keys":[1805.9099999954924],"total_keys":1,"block":2,"trial":211,"robot":3,"valence":"lose","action":"go","sham":0,"trial_type":"pit-trial","trial_index":227,"time_elapsed":1204387,"internal_node_id":"0.0-214.0","task_version":"battery-v0.1"},{"rune":"N","hex":"#f73b6a7A","correct":32,"choice":32,"rt":92.40000000153668,"accuracy":1,"outcome":"-1","keys":[1593.1849999979604],"total_keys":1,"block":2,"trial":212,"robot":3,"valence":"lose","action":"go","sham":0,"trial_type":"pit-trial","trial_index":228,"time_elapsed":1207183,"internal_node_id":"0.0-215.0","task_version":"battery-v0.1"},{"rune":"J","hex":"#3366ff99","correct":-1,"choice":32,"rt":1.2849999982863665,"accuracy":0,"outcome":"+1","keys":[1501.9749999991618],"total_keys":1,"block":2,"trial":213,"robot":2,"valence":"win","action":"no-go","sham":0,"trial_type":"pit-trial","trial_index":229,"time_elapsed":1209887,"internal_node_id":"0.0-216.0","task_version":"battery-v0.1"},{"rune":"Y","hex":"#f73b6a7A","correct":32,"choice":32,"rt":38.249999997904524,"accuracy":1,"outcome":"-1","keys":[1539.004999998957],"total_keys":1,"block":2,"trial":214,"robot":3,"valence":"lose","action":"go","sham":0,"trial_type":"pit-trial","trial_index":230,"time_elapsed":1212629,"internal_node_id":"0.0-217.0","task_version":"battery-v0.1"},{"rune":"N","hex":"#f73b6a7A","correct":32,"choice":32,"rt":410.08500000298955,"accuracy":1,"outcome":"-10","keys":[691.5449999943376,1370.9499999969266,1911.4199999968987],"total_keys":3,"block":2,"trial":215,"robot":3,"valence":"lose","action":"go","sham":1,"trial_type":"pit-trial","trial_index":231,"time_elapsed":1216213,"internal_node_id":"0.0-218.0","task_version":"battery-v0.1"},{"rune":"R","hex":"#3366ff99","correct":32,"choice":32,"rt":40.505000004544854,"accuracy":1,"outcome":"+10","keys":[687.6750000009779,1541.4749999979977],"total_keys":2,"block":2,"trial":216,"robot":1,"valence":"win","action":"go","sham":0,"trial_type":"pit-trial","trial_index":232,"time_elapsed":1218958,"internal_node_id":"0.0-219.0","task_version":"battery-v0.1"},{"rune":"J","hex":"#3366ff99","correct":-1,"choice":32,"rt":345.5249999971129,"accuracy":0,"outcome":"+1","keys":[1846.3550000016112],"total_keys":1,"block":2,"trial":217,"robot":2,"valence":"win","action":"no-go","sham":0,"trial_type":"pit-trial","trial_index":233,"time_elapsed":1222007,"internal_node_id":"0.0-220.0","task_version":"battery-v0.1"},{"rune":"Y","hex":"#f73b6a7A","correct":32,"choice":32,"rt":2.359999998472631,"accuracy":1,"outcome":"-10","keys":[1503.7749999973457],"total_keys":1,"block":2,"trial":218,"robot":3,"valence":"lose","action":"go","sham":1,"trial_type":"pit-trial","trial_index":234,"time_elapsed":1224714,"internal_node_id":"0.0-221.0","task_version":"battery-v0.1"},{"rune":"R","hex":"#3366ff99","correct":32,"choice":32,"rt":846.8650000067428,"accuracy":1,"outcome":"+10","keys":[1204.3249999987893,2348.8300000026356],"total_keys":2,"block":2,"trial":219,"robot":1,"valence":"win","action":"go","sham":0,"trial_type":"pit-trial","trial_index":235,"time_elapsed":1228266,"internal_node_id":"0.0-222.0","task_version":"battery-v0.1"},{"rune":"N","hex":"#f73b6a7A","correct":32,"choice":32,"rt":198.49999999860302,"accuracy":1,"outcome":"-1","keys":[1699.1649999981746],"total_keys":1,"block":2,"trial":220,"robot":3,"valence":"lose","action":"go","sham":0,"trial_type":"pit-trial","trial_index":236,"time_elapsed":1231168,"internal_node_id":"0.0-223.0","task_version":"battery-v0.1"},{"rune":"Y","hex":"#f73b6a7A","correct":32,"choice":32,"rt":146.80500000389293,"accuracy":1,"outcome":"-1","keys":[1647.3200000035577],"total_keys":1,"block":2,"trial":221,"robot":3,"valence":"lose","action":"go","sham":0,"trial_type":"pit-trial","trial_index":237,"time_elapsed":1234018,"internal_node_id":"0.0-224.0","task_version":"battery-v0.1"},{"rune":"J","hex":"#3366ff99","correct":-1,"choice":-1,"rt":-1,"accuracy":1,"outcome":"+10","keys":[],"total_keys":0,"block":2,"trial":222,"robot":2,"valence":"win","action":"no-go","sham":0,"trial_type":"pit-trial","trial_index":238,"time_elapsed":1238021,"internal_node_id":"0.0-225.0","task_version":"battery-v0.1"},{"rune":"R","hex":"#3366ff99","correct":32,"choice":32,"rt":115.88499999931082,"accuracy":1,"outcome":"+10","keys":[1616.1500000017695],"total_keys":1,"block":2,"trial":223,"robot":1,"valence":"win","action":"go","sham":0,"trial_type":"pit-trial","trial_index":239,"time_elapsed":1240839,"internal_node_id":"0.0-226.0","task_version":"battery-v0.1"},{"rune":"N","hex":"#f73b6a7A","correct":32,"choice":-1,"rt":-1,"accuracy":0,"outcome":"-1","keys":[],"total_keys":0,"block":2,"trial":224,"robot":3,"valence":"lose","action":"go","sham":1,"trial_type":"pit-trial","trial_index":240,"time_elapsed":1244842,"internal_node_id":"0.0-227.0","task_version":"battery-v0.1"},{"rune":"R","hex":"#3366ff99","correct":32,"choice":32,"rt":267.0050000012852,"accuracy":1,"outcome":"+10","keys":[1768.0149999943096],"total_keys":1,"block":2,"trial":225,"robot":1,"valence":"win","action":"go","sham":0,"trial_type":"pit-trial","trial_index":241,"time_elapsed":1247813,"internal_node_id":"0.0-228.0","task_version":"battery-v0.1"},{"rune":"N","hex":"#f73b6a7A","correct":32,"choice":-1,"rt":-1,"accuracy":0,"outcome":"-10","keys":[],"total_keys":0,"block":2,"trial":226,"robot":3,"valence":"lose","action":"go","sham":0,"trial_type":"pit-trial","trial_index":242,"time_elapsed":1251816,"internal_node_id":"0.0-229.0","task_version":"battery-v0.1"},{"rune":"J","hex":"#3366ff99","correct":-1,"choice":-1,"rt":-1,"accuracy":1,"outcome":"+10","keys":[1364.8949999988545],"total_keys":1,"block":2,"trial":227,"robot":2,"valence":"win","action":"no-go","sham":0,"trial_type":"pit-trial","trial_index":243,"time_elapsed":1255820,"internal_node_id":"0.0-230.0","task_version":"battery-v0.1"},{"rune":"Y","hex":"#f73b6a7A","correct":32,"choice":32,"rt":61.43000000156462,"accuracy":1,"outcome":"-1","keys":[1561.4400000050664],"total_keys":1,"block":2,"trial":228,"robot":3,"valence":"lose","action":"go","sham":0,"trial_type":"pit-trial","trial_index":244,"time_elapsed":1258585,"internal_node_id":"0.0-231.0","task_version":"battery-v0.1"},{"rune":"J","hex":"#3366ff99","correct":-1,"choice":32,"rt":224.21000000019558,"accuracy":0,"outcome":"+1","keys":[1724.77000000095],"total_keys":1,"block":2,"trial":229,"robot":2,"valence":"win","action":"no-go","sham":0,"trial_type":"pit-trial","trial_index":245,"time_elapsed":1261512,"internal_node_id":"0.0-232.0","task_version":"battery-v0.1"},{"rune":"Y","hex":"#f73b6a7A","correct":32,"choice":32,"rt":176.8500000035856,"accuracy":1,"outcome":"-1","keys":[1677.5599999965634],"total_keys":1,"block":2,"trial":230,"robot":3,"valence":"lose","action":"go","sham":0,"trial_type":"pit-trial","trial_index":246,"time_elapsed":1265213,"internal_node_id":"0.0-233.0","task_version":"battery-v0.1"},{"rune":"N","hex":"#f73b6a7A","correct":32,"choice":32,"rt":591.3849999995437,"accuracy":1,"outcome":"-1","keys":[2181.669999998063,2678.7750000001397],"total_keys":2,"block":2,"trial":231,"robot":3,"valence":"lose","action":"go","sham":0,"trial_type":"pit-trial","trial_index":247,"time_elapsed":1268598,"internal_node_id":"0.0-234.0","task_version":"battery-v0.1"},{"rune":"R","hex":"#3366ff99","correct":32,"choice":32,"rt":231.23499999917112,"accuracy":1,"outcome":"+10","keys":[504.91000000340864,1732.1500000036322],"total_keys":2,"block":2,"trial":232,"robot":1,"valence":"win","action":"go","sham":0,"trial_type":"pit-trial","trial_index":248,"time_elapsed":1272214,"internal_node_id":"0.0-235.0","task_version":"battery-v0.1"},{"rune":"Y","hex":"#f73b6a7A","correct":32,"choice":32,"rt":213.36000000149943,"accuracy":1,"outcome":"-10","keys":[2160.6549999995623],"total_keys":1,"block":2,"trial":233,"robot":3,"valence":"lose","action":"go","sham":1,"trial_type":"pit-trial","trial_index":249,"time_elapsed":1275578,"internal_node_id":"0.0-236.0","task_version":"battery-v0.1"},{"rune":"J","hex":"#3366ff99","correct":-1,"choice":32,"rt":207.10499999392778,"accuracy":0,"outcome":"+1","keys":[326.24000000208616,1707.1950000026263],"total_keys":2,"block":2,"trial":234,"robot":2,"valence":"win","action":"no-go","sham":0,"trial_type":"pit-trial","trial_index":250,"time_elapsed":1279214,"internal_node_id":"0.0-237.0","task_version":"battery-v0.1"},{"rune":"R","hex":"#3366ff99","correct":32,"choice":-1,"rt":-1,"accuracy":0,"outcome":"+1","keys":[],"total_keys":0,"block":2,"trial":235,"robot":1,"valence":"win","action":"go","sham":0,"trial_type":"pit-trial","trial_index":251,"time_elapsed":1284213,"internal_node_id":"0.0-238.0","task_version":"battery-v0.1"},{"rune":"N","hex":"#f73b6a7A","correct":32,"choice":-1,"rt":-1,"accuracy":0,"outcome":"-10","keys":[],"total_keys":0,"block":2,"trial":236,"robot":3,"valence":"lose","action":"go","sham":0,"trial_type":"pit-trial","trial_index":252,"time_elapsed":1288414,"internal_node_id":"0.0-239.0","task_version":"battery-v0.1"},{"rune":"R","hex":"#3366ff99","correct":32,"choice":32,"rt":348.25999999884516,"accuracy":1,"outcome":"+10","keys":[497.7499999948777,1146.6499999950174,1849.7499999939464],"total_keys":3,"block":2,"trial":237,"robot":1,"valence":"win","action":"go","sham":0,"trial_type":"pit-trial","trial_index":253,"time_elapsed":1291467,"internal_node_id":"0.0-240.0","task_version":"battery-v0.1"},{"rune":"J","hex":"#3366ff99","correct":-1,"choice":-1,"rt":-1,"accuracy":1,"outcome":"+1","keys":[1423.1000000000931,4631.789999999572],"total_keys":2,"block":2,"trial":238,"robot":2,"valence":"win","action":"no-go","sham":1,"trial_type":"pit-trial","trial_index":254,"time_elapsed":1296414,"internal_node_id":"0.0-241.0","task_version":"battery-v0.1"},{"rune":"N","hex":"#f73b6a7A","correct":32,"choice":-1,"rt":-1,"accuracy":0,"outcome":"-10","keys":[1325.4050000030547],"total_keys":1,"block":2,"trial":239,"robot":3,"valence":"lose","action":"go","sham":0,"trial_type":"pit-trial","trial_index":255,"time_elapsed":1300417,"internal_node_id":"0.0-242.0","task_version":"battery-v0.1"},{"rune":"Y","hex":"#f73b6a7A","correct":32,"choice":32,"rt":331.0700000000652,"accuracy":1,"outcome":"-1","keys":[1831.8350000043865],"total_keys":1,"block":2,"trial":240,"robot":3,"valence":"lose","action":"go","sham":0,"trial_type":"pit-trial","trial_index":256,"time_elapsed":1303452,"internal_node_id":"0.0-243.0","task_version":"battery-v0.1"},{"view_history":"[{\"page_index\":0,\"viewing_time\":1800.0600000014529}]","rt":1800.5699999995995,"trial_type":"pit-instructions","trial_index":257,"time_elapsed":1305254,"internal_node_id":"0.0-244.0","task_version":"battery-v0.1"},{"rt":13238.324999998556,"responses":{"age":"29","gender-categorical":"Female","gender-free-response":"","ethnicity":"Not Hispanic or Latino","race":["White"],"language":"Yes","fluency":"Very well"},"survey":"demographics","trial_type":"survey-demo","trial_index":258,"time_elapsed":1318496,"internal_node_id":"0.0-245.0","task_version":"battery-v0.1"},{"rt":28857.570000000298,"responses":{"difficulty":"2","fun":"4","clarity":"2","strategy":"No, just tried to use my memory","feedback":"Fun and interesting study!"},"survey":"debrief","trial_type":"survey-debrief","trial_index":259,"time_elapsed":1347357,"internal_node_id":"0.0-246.0","task_version":"battery-v0.1","interactions":"[{\"event\":\"blur\",\"trial\":0,\"time\":7392},{\"event\":\"focus\",\"trial\":0,\"time\":45315},{\"event\":\"blur\",\"trial\":0,\"time\":242872},{\"event\":\"focus\",\"trial\":0,\"time\":244612},{\"event\":\"blur\",\"trial\":136,\"time\":806602},{\"event\":\"focus\",\"trial\":136,\"time\":808335},{\"event\":\"blur\",\"trial\":136,\"time\":837004},{\"event\":\"focus\",\"trial\":136,\"time\":839024},{\"event\":\"blur\",\"trial\":150,\"time\":937786},{\"event\":\"focus\",\"trial\":151,\"time\":940096},{\"event\":\"blur\",\"trial\":153,\"time\":947096},{\"event\":\"focus\",\"trial\":155,\"time\":952033},{\"event\":\"blur\",\"trial\":162,\"time\":975265},{\"event\":\"focus\",\"trial\":162,\"time\":977897},{\"event\":\"blur\",\"trial\":164,\"time\":982245},{\"event\":\"focus\",\"trial\":165,\"time\":988275},{\"event\":\"blur\",\"trial\":165,\"time\":990481},{\"event\":\"focus\",\"trial\":167,\"time\":995668},{\"event\":\"blur\",\"trial\":169,\"time\":1006437},{\"event\":\"focus\",\"trial\":170,\"time\":1009270},{\"event\":\"blur\",\"trial\":175,\"time\":1023004},{\"event\":\"focus\",\"trial\":175,\"time\":1024670},{\"event\":\"blur\",\"trial\":176,\"time\":1026207},{\"event\":\"focus\",\"trial\":176,\"time\":1028021},{\"event\":\"blur\",\"trial\":177,\"time\":1032243},{\"event\":\"focus\",\"trial\":178,\"time\":1034681},{\"event\":\"blur\",\"trial\":181,\"time\":1045946},{\"event\":\"focus\",\"trial\":182,\"time\":1047879},{\"event\":\"blur\",\"trial\":192,\"time\":1082718},{\"event\":\"focus\",\"trial\":193,\"time\":1083831},{\"event\":\"blur\",\"trial\":193,\"time\":1085839},{\"event\":\"focus\",\"trial\":194,\"time\":1087737},{\"event\":\"blur\",\"trial\":195,\"time\":1092380},{\"event\":\"focus\",\"trial\":196,\"time\":1095743},{\"event\":\"blur\",\"trial\":199,\"time\":1106180},{\"event\":\"focus\",\"trial\":200,\"time\":1107572},{\"event\":\"blur\",\"trial\":200,\"time\":1109640},{\"event\":\"focus\",\"trial\":201,\"time\":1110417},{\"event\":\"blur\",\"trial\":204,\"time\":1123982},{\"event\":\"focus\",\"trial\":205,\"time\":1125639},{\"event\":\"blur\",\"trial\":205,\"time\":1127634},{\"event\":\"focus\",\"trial\":206,\"time\":1129022},{\"event\":\"blur\",\"trial\":208,\"time\":1138620},{\"event\":\"focus\",\"trial\":209,\"time\":1140918},{\"event\":\"blur\",\"trial\":210,\"time\":1145098},{\"event\":\"focus\",\"trial\":211,\"time\":1147261},{\"event\":\"blur\",\"trial\":211,\"time\":1148997},{\"event\":\"focus\",\"trial\":213,\"time\":1154841},{\"event\":\"blur\",\"trial\":213,\"time\":1157279},{\"event\":\"focus\",\"trial\":214,\"time\":1160267},{\"event\":\"blur\",\"trial\":215,\"time\":1164301},{\"event\":\"focus\",\"trial\":215,\"time\":1165340},{\"event\":\"blur\",\"trial\":231,\"time\":1215202},{\"event\":\"focus\",\"trial\":232,\"time\":1216456},{\"event\":\"blur\",\"trial\":238,\"time\":1234074},{\"event\":\"focus\",\"trial\":238,\"time\":1235198},{\"event\":\"blur\",\"trial\":246,\"time\":1263691},{\"event\":\"focus\",\"trial\":247,\"time\":1266809},{\"event\":\"blur\",\"trial\":248,\"time\":1270719},{\"event\":\"focus\",\"trial\":249,\"time\":1274166},{\"event\":\"blur\",\"trial\":250,\"time\":1278009},{\"event\":\"focus\",\"trial\":252,\"time\":1287487},{\"event\":\"blur\",\"trial\":254,\"time\":1294085},{\"event\":\"focus\",\"trial\":254,\"time\":1295484}]"}]