[{"view_history":"[{\"page_index\":0,\"viewing_time\":53456.63500000046},{\"page_index\":1,\"viewing_time\":7263.104999999996},{\"page_index\":2,\"viewing_time\":2226.314999999886},{\"page_index\":3,\"viewing_time\":51978.69999999966},{\"page_index\":4,\"viewing_time\":7478.640000001178},{\"page_index\":5,\"viewing_time\":4619.6449999988545}]","rt":127029.66500000002,"trial_type":"pit-instructions","trial_index":0,"time_elapsed":127071,"internal_node_id":"0.0-0.0-0.0","task_version":"battery-v0.1"},{"rune":"","hex":"#FFFFF080","correct":32,"choice":-1,"rt":-1,"accuracy":0,"outcome":"+0","keys":[1331.6549999999552],"total_keys":1,"block":0,"trial_type":"pit-trial","trial_index":1,"time_elapsed":131082,"internal_node_id":"0.0-0.0-1.0-0.0","task_version":"battery-v0.1"},{"rune":"","hex":"#FFFFF080","correct":32,"choice":-1,"rt":-1,"accuracy":0,"outcome":"+0","keys":[1456.4200000004494],"total_keys":1,"block":0,"trial_type":"pit-trial","trial_index":2,"time_elapsed":135094,"internal_node_id":"0.0-0.0-1.0-0.1","task_version":"battery-v0.1"},{"rune":"","hex":"#FFFFF080","correct":32,"choice":-1,"rt":-1,"accuracy":0,"outcome":"+0","keys":[1499.7249999996857],"total_keys":1,"block":0,"trial_type":"pit-trial","trial_index":3,"time_elapsed":139104,"internal_node_id":"0.0-0.0-1.0-0.2","task_version":"battery-v0.1"},{"rune":"","hex":"#FFFFF080","correct":32,"choice":32,"rt":603.3299999998999,"accuracy":1,"outcome":"+10","keys":[2104.2199999992736],"total_keys":1,"block":0,"trial_type":"pit-trial","trial_index":4,"time_elapsed":142424,"internal_node_id":"0.0-0.0-1.0-0.3","task_version":"battery-v0.1"},{"view_history":"[{\"page_index\":0,\"viewing_time\":2780.170000000013}]","rt":2783.890000000625,"trial_type":"pit-instructions","trial_index":5,"time_elapsed":145217,"internal_node_id":"0.0-0.0-2.0","task_version":"battery-v0.1"},{"rune":"","hex":"#FFFFF080","correct":-1,"choice":-1,"rt":-1,"accuracy":1,"outcome":"+10","keys":[],"total_keys":0,"block":0,"trial_type":"pit-trial","trial_index":6,"time_elapsed":149234,"internal_node_id":"0.0-0.0-3.0-0.0","task_version":"battery-v0.1"},{"rune":"","hex":"#FFFFF080","correct":-1,"choice":-1,"rt":-1,"accuracy":1,"outcome":"+10","keys":[],"total_keys":0,"block":0,"trial_type":"pit-trial","trial_index":7,"time_elapsed":153250,"internal_node_id":"0.0-0.0-3.0-0.1","task_version":"battery-v0.1"},{"rune":"","hex":"#FFFFF080","correct":-1,"choice":-1,"rt":-1,"accuracy":1,"outcome":"+10","keys":[],"total_keys":0,"block":0,"trial_type":"pit-trial","trial_index":8,"time_elapsed":157265,"internal_node_id":"0.0-0.0-3.0-0.2","task_version":"battery-v0.1"},{"rune":"","hex":"#FFFFF080","correct":-1,"choice":-1,"rt":-1,"accuracy":1,"outcome":"+10","keys":[],"total_keys":0,"block":0,"trial_type":"pit-trial","trial_index":9,"time_elapsed":161273,"internal_node_id":"0.0-0.0-3.0-0.3","task_version":"battery-v0.1"},{"responses":["Press SPACE","Do nothing"],"num_errors":0,"rt":4042.7299999992247,"trial_type":"pit-comprehension","trial_index":10,"time_elapsed":165325,"internal_node_id":"0.0-0.0-4.0","task_version":"battery-v0.1"},{"view_history":"[{\"page_index\":0,\"viewing_time\":2875.5400000009104},{\"page_index\":1,\"viewing_time\":4197.634999998641},{\"page_index\":2,\"viewing_time\":3440.8400000011025},{\"page_index\":3,\"viewing_time\":7996.514999998908},{\"page_index\":4,\"viewing_time\":3886.405000001105},{\"page_index\":5,\"viewing_time\":9601.114999999467},{\"page_index\":6,\"viewing_time\":12148.979999999952},{\"page_index\":7,\"viewing_time\":5698.319999999512},{\"page_index\":8,\"viewing_time\":3131.269999999844},{\"page_index\":9,\"viewing_time\":1472.3100000010454},{\"page_index\":10,\"viewing_time\":1580.5549999986251}]","rt":56034.560000000056,"trial_type":"pit-instructions","trial_index":11,"time_elapsed":221380,"internal_node_id":"0.0-1.0-0.0","task_version":"battery-v0.1"},{"responses":["+10","-1","True","True"],"num_errors":0,"rt":11119.544999999547,"trial_type":"pit-comprehension","trial_index":12,"time_elapsed":232510,"internal_node_id":"0.0-1.0-1.0","task_version":"battery-v0.1"},{"view_history":"[{\"page_index\":0,\"viewing_time\":2557.8299999997253},{\"page_index\":1,\"viewing_time\":3176.8900000006543}]","rt":5738.409999999916,"trial_type":"pit-instructions","trial_index":13,"time_elapsed":238260,"internal_node_id":"0.0-2.0","task_version":"battery-v0.1"},{"rune":"D","hex":"#3366ff99","correct":32,"choice":-1,"rt":-1,"accuracy":0,"outcome":"+10","keys":[],"total_keys":0,"block":1,"trial":1,"robot":1,"valence":"win","action":"go","sham":1,"trial_type":"pit-trial","trial_index":14,"time_elapsed":242280,"internal_node_id":"0.0-3.0","task_version":"battery-v0.1"},{"rune":"N","hex":"#f73b6a7A","correct":-1,"choice":-1,"rt":-1,"accuracy":1,"outcome":"-1","keys":[],"total_keys":0,"block":1,"trial":2,"robot":4,"valence":"lose","action":"no-go","sham":0,"trial_type":"pit-trial","trial_index":15,"time_elapsed":246293,"internal_node_id":"0.0-4.0","task_version":"battery-v0.1"},{"rune":"Y","hex":"#3366ff99","correct":-1,"choice":-1,"rt":-1,"accuracy":1,"outcome":"+10","keys":[],"total_keys":0,"block":1,"trial":3,"robot":2,"valence":"win","action":"no-go","sham":0,"trial_type":"pit-trial","trial_index":16,"time_elapsed":250306,"internal_node_id":"0.0-5.0","task_version":"battery-v0.1"},{"rune":"B","hex":"#f73b6a7A","correct":-1,"choice":-1,"rt":-1,"accuracy":1,"outcome":"-1","keys":[],"total_keys":0,"block":1,"trial":4,"robot":4,"valence":"lose","action":"no-go","sham":0,"trial_type":"pit-trial","trial_index":17,"time_elapsed":254318,"internal_node_id":"0.0-6.0","task_version":"battery-v0.1"},{"rune":"D","hex":"#3366ff99","correct":32,"choice":-1,"rt":-1,"accuracy":0,"outcome":"+1","keys":[],"total_keys":0,"block":1,"trial":5,"robot":1,"valence":"win","action":"go","sham":0,"trial_type":"pit-trial","trial_index":18,"time_elapsed":258331,"internal_node_id":"0.0-7.0","task_version":"battery-v0.1"},{"rune":"Y","hex":"#3366ff99","correct":-1,"choice":-1,"rt":-1,"accuracy":1,"outcome":"+10","keys":[],"total_keys":0,"block":1,"trial":6,"robot":2,"valence":"win","action":"no-go","sham":0,"trial_type":"pit-trial","trial_index":19,"time_elapsed":262341,"internal_node_id":"0.0-8.0","task_version":"battery-v0.1"},{"rune":"N","hex":"#f73b6a7A","correct":-1,"choice":-1,"rt":-1,"accuracy":1,"outcome":"-1","keys":[],"total_keys":0,"block":1,"trial":7,"robot":4,"valence":"lose","action":"no-go","sham":0,"trial_type":"pit-trial","trial_index":20,"time_elapsed":266354,"internal_node_id":"0.0-9.0","task_version":"battery-v0.1"},{"rune":"B","hex":"#f73b6a7A","correct":-1,"choice":-1,"rt":-1,"accuracy":1,"outcome":"-1","keys":[],"total_keys":0,"block":1,"trial":8,"robot":4,"valence":"lose","action":"no-go","sham":0,"trial_type":"pit-trial","trial_index":21,"time_elapsed":270366,"internal_node_id":"0.0-10.0","task_version":"battery-v0.1"},{"rune":"B","hex":"#f73b6a7A","correct":-1,"choice":-1,"rt":-1,"accuracy":1,"outcome":"-1","keys":[],"total_keys":0,"block":1,"trial":9,"robot":4,"valence":"lose","action":"no-go","sham":0,"trial_type":"pit-trial","trial_index":22,"time_elapsed":274376,"internal_node_id":"0.0-11.0","task_version":"battery-v0.1"},{"rune":"Y","hex":"#3366ff99","correct":-1,"choice":-1,"rt":-1,"accuracy":1,"outcome":"+1","keys":[],"total_keys":0,"block":1,"trial":10,"robot":2,"valence":"win","action":"no-go","sham":1,"trial_type":"pit-trial","trial_index":23,"time_elapsed":278390,"internal_node_id":"0.0-12.0","task_version":"battery-v0.1"},{"rune":"D","hex":"#3366ff99","correct":32,"choice":-1,"rt":-1,"accuracy":0,"outcome":"+1","keys":[],"total_keys":0,"block":1,"trial":11,"robot":1,"valence":"win","action":"go","sham":0,"trial_type":"pit-trial","trial_index":24,"time_elapsed":282405,"internal_node_id":"0.0-13.0","task_version":"battery-v0.1"},{"rune":"N","hex":"#f73b6a7A","correct":-1,"choice":-1,"rt":-1,"accuracy":1,"outcome":"-10","keys":[],"total_keys":0,"block":1,"trial":12,"robot":4,"valence":"lose","action":"no-go","sham":1,"trial_type":"pit-trial","trial_index":25,"time_elapsed":286417,"internal_node_id":"0.0-14.0","task_version":"battery-v0.1"},{"rune":"B","hex":"#f73b6a7A","correct":-1,"choice":-1,"rt":-1,"accuracy":1,"outcome":"-1","keys":[],"total_keys":0,"block":1,"trial":13,"robot":4,"valence":"lose","action":"no-go","sham":0,"trial_type":"pit-trial","trial_index":26,"time_elapsed":290439,"internal_node_id":"0.0-15.0","task_version":"battery-v0.1"},{"rune":"D","hex":"#3366ff99","correct":32,"choice":32,"rt":720.8649999993504,"accuracy":1,"outcome":"+1","keys":[2221.02500000078],"total_keys":1,"block":1,"trial":14,"robot":1,"valence":"win","action":"go","sham":1,"trial_type":"pit-trial","trial_index":27,"time_elapsed":293867,"internal_node_id":"0.0-16.0","task_version":"battery-v0.1"},{"rune":"Y","hex":"#3366ff99","correct":-1,"choice":32,"rt":555.515000000014,"accuracy":0,"outcome":"+1","keys":[2055.615000001155],"total_keys":1,"block":1,"trial":15,"robot":2,"valence":"win","action":"no-go","sham":0,"trial_type":"pit-trial","trial_index":28,"time_elapsed":297131,"internal_node_id":"0.0-17.0","task_version":"battery-v0.1"},{"rune":"N","hex":"#f73b6a7A","correct":-1,"choice":32,"rt":755.0900000006077,"accuracy":0,"outcome":"-10","keys":[2256.134999999602],"total_keys":1,"block":1,"trial":16,"robot":4,"valence":"lose","action":"no-go","sham":0,"trial_type":"pit-trial","trial_index":29,"time_elapsed":300603,"internal_node_id":"0.0-18.0","task_version":"battery-v0.1"},{"rune":"B","hex":"#f73b6a7A","correct":-1,"choice":-1,"rt":-1,"accuracy":1,"outcome":"-1","keys":[],"total_keys":0,"block":1,"trial":17,"robot":4,"valence":"lose","action":"no-go","sham":0,"trial_type":"pit-trial","trial_index":30,"time_elapsed":304615,"internal_node_id":"0.0-19.0","task_version":"battery-v0.1"},{"rune":"Y","hex":"#3366ff99","correct":-1,"choice":32,"rt":509.4100000006147,"accuracy":0,"outcome":"+10","keys":[2009.5600000004051],"total_keys":1,"block":1,"trial":18,"robot":2,"valence":"win","action":"no-go","sham":1,"trial_type":"pit-trial","trial_index":31,"time_elapsed":307834,"internal_node_id":"0.0-20.0","task_version":"battery-v0.1"},{"rune":"N","hex":"#f73b6a7A","correct":-1,"choice":32,"rt":957.9950000006938,"accuracy":0,"outcome":"-1","keys":[2458.2299999984098],"total_keys":1,"block":1,"trial":19,"robot":4,"valence":"lose","action":"no-go","sham":1,"trial_type":"pit-trial","trial_index":32,"time_elapsed":311503,"internal_node_id":"0.0-21.0","task_version":"battery-v0.1"},{"rune":"D","hex":"#3366ff99","correct":32,"choice":32,"rt":888.7249999988708,"accuracy":1,"outcome":"+10","keys":[2388.834999999788],"total_keys":1,"block":1,"trial":20,"robot":1,"valence":"win","action":"go","sham":0,"trial_type":"pit-trial","trial_index":33,"time_elapsed":315099,"internal_node_id":"0.0-22.0","task_version":"battery-v0.1"},{"rune":"D","hex":"#3366ff99","correct":32,"choice":32,"rt":519.2900000001537,"accuracy":1,"outcome":"+10","keys":[2019.6400000004796],"total_keys":1,"block":1,"trial":21,"robot":1,"valence":"win","action":"go","sham":0,"trial_type":"pit-trial","trial_index":34,"time_elapsed":318329,"internal_node_id":"0.0-23.0","task_version":"battery-v0.1"},{"rune":"N","hex":"#f73b6a7A","correct":-1,"choice":32,"rt":892.6200000005192,"accuracy":0,"outcome":"-10","keys":[2392.640000000014],"total_keys":1,"block":1,"trial":22,"robot":4,"valence":"lose","action":"no-go","sham":0,"trial_type":"pit-trial","trial_index":35,"time_elapsed":321935,"internal_node_id":"0.0-24.0","task_version":"battery-v0.1"},{"rune":"Y","hex":"#3366ff99","correct":-1,"choice":32,"rt":843.2549999997718,"accuracy":0,"outcome":"+10","keys":[2343.324999999779],"total_keys":1,"block":1,"trial":23,"robot":2,"valence":"win","action":"no-go","sham":1,"trial_type":"pit-trial","trial_index":36,"time_elapsed":325491,"internal_node_id":"0.0-25.0","task_version":"battery-v0.1"},{"rune":"B","hex":"#f73b6a7A","correct":-1,"choice":-1,"rt":-1,"accuracy":1,"outcome":"-1","keys":[],"total_keys":0,"block":1,"trial":24,"robot":4,"valence":"lose","action":"no-go","sham":0,"trial_type":"pit-trial","trial_index":37,"time_elapsed":329504,"internal_node_id":"0.0-26.0","task_version":"battery-v0.1"},{"rune":"D","hex":"#3366ff99","correct":32,"choice":32,"rt":780.559999999241,"accuracy":1,"outcome":"+10","keys":[2280.604999999923],"total_keys":1,"block":1,"trial":25,"robot":1,"valence":"win","action":"go","sham":0,"trial_type":"pit-trial","trial_index":38,"time_elapsed":332998,"internal_node_id":"0.0-27.0","task_version":"battery-v0.1"},{"rune":"N","hex":"#f73b6a7A","correct":-1,"choice":-1,"rt":-1,"accuracy":1,"outcome":"-1","keys":[],"total_keys":0,"block":1,"trial":26,"robot":4,"valence":"lose","action":"no-go","sham":0,"trial_type":"pit-trial","trial_index":39,"time_elapsed":337010,"internal_node_id":"0.0-28.0","task_version":"battery-v0.1"},{"rune":"Y","hex":"#3366ff99","correct":-1,"choice":32,"rt":629.8500000011409,"accuracy":0,"outcome":"+1","keys":[2129.8299999998417],"total_keys":1,"block":1,"trial":27,"robot":2,"valence":"win","action":"no-go","sham":0,"trial_type":"pit-trial","trial_index":40,"time_elapsed":340354,"internal_node_id":"0.0-29.0","task_version":"battery-v0.1"},{"rune":"B","hex":"#f73b6a7A","correct":-1,"choice":-1,"rt":-1,"accuracy":1,"outcome":"-1","keys":[],"total_keys":0,"block":1,"trial":28,"robot":4,"valence":"lose","action":"no-go","sham":0,"trial_type":"pit-trial","trial_index":41,"time_elapsed":344368,"internal_node_id":"0.0-30.0","task_version":"battery-v0.1"},{"rune":"Y","hex":"#3366ff99","correct":-1,"choice":32,"rt":468.3550000008545,"accuracy":0,"outcome":"+1","keys":[1968.4400000005844],"total_keys":1,"block":1,"trial":29,"robot":2,"valence":"win","action":"no-go","sham":0,"trial_type":"pit-trial","trial_index":42,"time_elapsed":347548,"internal_node_id":"0.0-31.0","task_version":"battery-v0.1"},{"rune":"N","hex":"#f73b6a7A","correct":-1,"choice":-1,"rt":-1,"accuracy":1,"outcome":"-10","keys":[],"total_keys":0,"block":1,"trial":30,"robot":4,"valence":"lose","action":"no-go","sham":1,"trial_type":"pit-trial","trial_index":43,"time_elapsed":351555,"internal_node_id":"0.0-32.0","task_version":"battery-v0.1"},{"rune":"B","hex":"#f73b6a7A","correct":-1,"choice":-1,"rt":-1,"accuracy":1,"outcome":"-1","keys":[],"total_keys":0,"block":1,"trial":31,"robot":4,"valence":"lose","action":"no-go","sham":0,"trial_type":"pit-trial","trial_index":44,"time_elapsed":355567,"internal_node_id":"0.0-33.0","task_version":"battery-v0.1"},{"rune":"D","hex":"#3366ff99","correct":32,"choice":32,"rt":578.5300000007264,"accuracy":1,"outcome":"+1","keys":[2078.5699999996577],"total_keys":1,"block":1,"trial":32,"robot":1,"valence":"win","action":"go","sham":1,"trial_type":"pit-trial","trial_index":45,"time_elapsed":358862,"internal_node_id":"0.0-34.0","task_version":"battery-v0.1"},{"rune":"D","hex":"#3366ff99","correct":32,"choice":32,"rt":690.9400000004098,"accuracy":1,"outcome":"+1","keys":[2190.9950000008103],"total_keys":1,"block":1,"trial":33,"robot":1,"valence":"win","action":"go","sham":1,"trial_type":"pit-trial","trial_index":46,"time_elapsed":362264,"internal_node_id":"0.0-35.0","task_version":"battery-v0.1"},{"rune":"N","hex":"#f73b6a7A","correct":-1,"choice":-1,"rt":-1,"accuracy":1,"outcome":"-1","keys":[],"total_keys":0,"block":1,"trial":34,"robot":4,"valence":"lose","action":"no-go","sham":0,"trial_type":"pit-trial","trial_index":47,"time_elapsed":366276,"internal_node_id":"0.0-36.0","task_version":"battery-v0.1"},{"rune":"R","hex":"#f73b6a7A","correct":32,"choice":-1,"rt":-1,"accuracy":0,"outcome":"-10","keys":[],"total_keys":0,"block":1,"trial":35,"robot":3,"valence":"lose","action":"go","sham":0,"trial_type":"pit-trial","trial_index":48,"time_elapsed":370291,"internal_node_id":"0.0-37.0","task_version":"battery-v0.1"},{"rune":"Y","hex":"#3366ff99","correct":-1,"choice":32,"rt":519.0849999999045,"accuracy":0,"outcome":"+1","keys":[2024.0350000003818],"total_keys":1,"block":1,"trial":36,"robot":2,"valence":"win","action":"no-go","sham":0,"trial_type":"pit-trial","trial_index":49,"time_elapsed":373523,"internal_node_id":"0.0-38.0","task_version":"battery-v0.1"},{"rune":"R","hex":"#f73b6a7A","correct":32,"choice":32,"rt":746.2299999988172,"accuracy":1,"outcome":"-1","keys":[2247.44500000088],"total_keys":1,"block":1,"trial":37,"robot":3,"valence":"lose","action":"go","sham":0,"trial_type":"pit-trial","trial_index":50,"time_elapsed":376981,"internal_node_id":"0.0-39.0","task_version":"battery-v0.1"},{"rune":"Y","hex":"#3366ff99","correct":-1,"choice":32,"rt":807.0299999999115,"accuracy":0,"outcome":"+10","keys":[2307.1249999993597],"total_keys":1,"block":1,"trial":38,"robot":2,"valence":"win","action":"no-go","sham":1,"trial_type":"pit-trial","trial_index":51,"time_elapsed":380504,"internal_node_id":"0.0-40.0","task_version":"battery-v0.1"},{"rune":"N","hex":"#f73b6a7A","correct":-1,"choice":32,"rt":736.9650000000256,"accuracy":0,"outcome":"-1","keys":[2238.6200000000536],"total_keys":1,"block":1,"trial":39,"robot":4,"valence":"lose","action":"no-go","sham":1,"trial_type":"pit-trial","trial_index":52,"time_elapsed":383957,"internal_node_id":"0.0-41.0","task_version":"battery-v0.1"},{"rune":"D","hex":"#3366ff99","correct":32,"choice":-1,"rt":-1,"accuracy":0,"outcome":"+10","keys":[],"total_keys":0,"block":1,"trial":40,"robot":1,"valence":"win","action":"go","sham":1,"trial_type":"pit-trial","trial_index":53,"time_elapsed":387971,"internal_node_id":"0.0-42.0","task_version":"battery-v0.1"},{"rune":"U","hex":"#3366ff99","correct":-1,"choice":-1,"rt":-1,"accuracy":1,"outcome":"+10","keys":[],"total_keys":0,"block":1,"trial":41,"robot":2,"valence":"win","action":"no-go","sham":0,"trial_type":"pit-trial","trial_index":54,"time_elapsed":391987,"internal_node_id":"0.0-43.0","task_version":"battery-v0.1"},{"rune":"N","hex":"#f73b6a7A","correct":-1,"choice":32,"rt":855.0750000012922,"accuracy":0,"outcome":"-10","keys":[2359.0949999997974],"total_keys":1,"block":1,"trial":42,"robot":4,"valence":"lose","action":"no-go","sham":0,"trial_type":"pit-trial","trial_index":55,"time_elapsed":395559,"internal_node_id":"0.0-44.0","task_version":"battery-v0.1"},{"rune":"I","hex":"#3366ff99","correct":32,"choice":-1,"rt":-1,"accuracy":0,"outcome":"+1","keys":[],"total_keys":0,"block":1,"trial":43,"robot":1,"valence":"win","action":"go","sham":0,"trial_type":"pit-trial","trial_index":56,"time_elapsed":399570,"internal_node_id":"0.0-45.0","task_version":"battery-v0.1"},{"rune":"R","hex":"#f73b6a7A","correct":32,"choice":32,"rt":648.3550000012037,"accuracy":1,"outcome":"-1","keys":[2151.345000000205],"total_keys":1,"block":1,"trial":44,"robot":3,"valence":"lose","action":"go","sham":0,"trial_type":"pit-trial","trial_index":57,"time_elapsed":402933,"internal_node_id":"0.0-46.0","task_version":"battery-v0.1"},{"rune":"R","hex":"#f73b6a7A","correct":32,"choice":32,"rt":546.5299999996205,"accuracy":1,"outcome":"-1","keys":[2046.6149999992922],"total_keys":1,"block":1,"trial":45,"robot":3,"valence":"lose","action":"go","sham":0,"trial_type":"pit-trial","trial_index":58,"time_elapsed":406193,"internal_node_id":"0.0-47.0","task_version":"battery-v0.1"},{"rune":"I","hex":"#3366ff99","correct":32,"choice":32,"rt":817.2900000008522,"accuracy":1,"outcome":"+10","keys":[2317.359999999113],"total_keys":1,"block":1,"trial":46,"robot":1,"valence":"win","action":"go","sham":0,"trial_type":"pit-trial","trial_index":59,"time_elapsed":409723,"internal_node_id":"0.0-48.0","task_version":"battery-v0.1"},{"rune":"N","hex":"#f73b6a7A","correct":-1,"choice":-1,"rt":-1,"accuracy":1,"outcome":"-10","keys":[],"total_keys":0,"block":1,"trial":47,"robot":4,"valence":"lose","action":"no-go","sham":1,"trial_type":"pit-trial","trial_index":60,"time_elapsed":413739,"internal_node_id":"0.0-49.0","task_version":"battery-v0.1"},{"rune":"U","hex":"#3366ff99","correct":-1,"choice":-1,"rt":-1,"accuracy":1,"outcome":"+10","keys":[],"total_keys":0,"block":1,"trial":48,"robot":2,"valence":"win","action":"no-go","sham":0,"trial_type":"pit-trial","trial_index":61,"time_elapsed":417755,"internal_node_id":"0.0-50.0","task_version":"battery-v0.1"},{"rune":"R","hex":"#f73b6a7A","correct":32,"choice":32,"rt":622.2600000000675,"accuracy":1,"outcome":"-1","keys":[2122.5900000008405],"total_keys":1,"block":1,"trial":49,"robot":3,"valence":"lose","action":"go","sham":0,"trial_type":"pit-trial","trial_index":62,"time_elapsed":421086,"internal_node_id":"0.0-51.0","task_version":"battery-v0.1"},{"rune":"I","hex":"#3366ff99","correct":32,"choice":-1,"rt":-1,"accuracy":0,"outcome":"+10","keys":[],"total_keys":0,"block":1,"trial":50,"robot":1,"valence":"win","action":"go","sham":1,"trial_type":"pit-trial","trial_index":63,"time_elapsed":425093,"internal_node_id":"0.0-52.0","task_version":"battery-v0.1"},{"rune":"U","hex":"#3366ff99","correct":-1,"choice":-1,"rt":-1,"accuracy":1,"outcome":"+1","keys":[],"total_keys":0,"block":1,"trial":51,"robot":2,"valence":"win","action":"no-go","sham":1,"trial_type":"pit-trial","trial_index":64,"time_elapsed":429101,"internal_node_id":"0.0-53.0","task_version":"battery-v0.1"},{"rune":"Q","hex":"#f73b6a7A","correct":-1,"choice":-1,"rt":-1,"accuracy":1,"outcome":"-1","keys":[],"total_keys":0,"block":1,"trial":52,"robot":4,"valence":"lose","action":"no-go","sham":0,"trial_type":"pit-trial","trial_index":65,"time_elapsed":433111,"internal_node_id":"0.0-54.0","task_version":"battery-v0.1"},{"rune":"I","hex":"#3366ff99","correct":32,"choice":-1,"rt":-1,"accuracy":0,"outcome":"+1","keys":[],"total_keys":0,"block":1,"trial":53,"robot":1,"valence":"win","action":"go","sham":0,"trial_type":"pit-trial","trial_index":66,"time_elapsed":437123,"internal_node_id":"0.0-55.0","task_version":"battery-v0.1"},{"rune":"U","hex":"#3366ff99","correct":-1,"choice":-1,"rt":-1,"accuracy":1,"outcome":"+10","keys":[],"total_keys":0,"block":1,"trial":54,"robot":2,"valence":"win","action":"no-go","sham":0,"trial_type":"pit-trial","trial_index":67,"time_elapsed":441135,"internal_node_id":"0.0-56.0","task_version":"battery-v0.1"},{"rune":"Q","hex":"#f73b6a7A","correct":-1,"choice":-1,"rt":-1,"accuracy":1,"outcome":"-1","keys":[],"total_keys":0,"block":1,"trial":55,"robot":4,"valence":"lose","action":"no-go","sham":0,"trial_type":"pit-trial","trial_index":68,"time_elapsed":445145,"internal_node_id":"0.0-57.0","task_version":"battery-v0.1"},{"rune":"R","hex":"#f73b6a7A","correct":32,"choice":32,"rt":593.2649999995483,"accuracy":1,"outcome":"-1","keys":[2093.6050000000396],"total_keys":1,"block":1,"trial":56,"robot":3,"valence":"lose","action":"go","sham":0,"trial_type":"pit-trial","trial_index":69,"time_elapsed":448470,"internal_node_id":"0.0-58.0","task_version":"battery-v0.1"},{"rune":"U","hex":"#3366ff99","correct":-1,"choice":-1,"rt":-1,"accuracy":1,"outcome":"+10","keys":[],"total_keys":0,"block":1,"trial":57,"robot":2,"valence":"win","action":"no-go","sham":0,"trial_type":"pit-trial","trial_index":70,"time_elapsed":452485,"internal_node_id":"0.0-59.0","task_version":"battery-v0.1"},{"rune":"I","hex":"#3366ff99","correct":32,"choice":-1,"rt":-1,"accuracy":0,"outcome":"+1","keys":[],"total_keys":0,"block":1,"trial":58,"robot":1,"valence":"win","action":"go","sham":0,"trial_type":"pit-trial","trial_index":71,"time_elapsed":456500,"internal_node_id":"0.0-60.0","task_version":"battery-v0.1"},{"rune":"Q","hex":"#f73b6a7A","correct":-1,"choice":-1,"rt":-1,"accuracy":1,"outcome":"-1","keys":[],"total_keys":0,"block":1,"trial":59,"robot":4,"valence":"lose","action":"no-go","sham":0,"trial_type":"pit-trial","trial_index":72,"time_elapsed":460515,"internal_node_id":"0.0-61.0","task_version":"battery-v0.1"},{"rune":"R","hex":"#f73b6a7A","correct":32,"choice":32,"rt":711.7699999999022,"accuracy":1,"outcome":"-1","keys":[2211.965000000433],"total_keys":1,"block":1,"trial":60,"robot":3,"valence":"lose","action":"go","sham":0,"trial_type":"pit-trial","trial_index":73,"time_elapsed":463940,"internal_node_id":"0.0-62.0","task_version":"battery-v0.1"},{"rune":"I","hex":"#3366ff99","correct":32,"choice":32,"rt":562.9950000002282,"accuracy":1,"outcome":"+1","keys":[2064.6950000009383],"total_keys":1,"block":1,"trial":61,"robot":1,"valence":"win","action":"go","sham":1,"trial_type":"pit-trial","trial_index":74,"time_elapsed":467213,"internal_node_id":"0.0-63.0","task_version":"battery-v0.1"},{"rune":"U","hex":"#3366ff99","correct":-1,"choice":-1,"rt":-1,"accuracy":1,"outcome":"+10","keys":[],"total_keys":0,"block":1,"trial":62,"robot":2,"valence":"win","action":"no-go","sham":0,"trial_type":"pit-trial","trial_index":75,"time_elapsed":471228,"internal_node_id":"0.0-64.0","task_version":"battery-v0.1"},{"rune":"R","hex":"#f73b6a7A","correct":32,"choice":32,"rt":568.6249999998836,"accuracy":1,"outcome":"-1","keys":[2068.6650000006775],"total_keys":1,"block":1,"trial":63,"robot":3,"valence":"lose","action":"go","sham":0,"trial_type":"pit-trial","trial_index":76,"time_elapsed":474506,"internal_node_id":"0.0-65.0","task_version":"battery-v0.1"},{"rune":"Q","hex":"#f73b6a7A","correct":-1,"choice":-1,"rt":-1,"accuracy":1,"outcome":"-1","keys":[],"total_keys":0,"block":1,"trial":64,"robot":4,"valence":"lose","action":"no-go","sham":0,"trial_type":"pit-trial","trial_index":77,"time_elapsed":478515,"internal_node_id":"0.0-66.0","task_version":"battery-v0.1"},{"rune":"U","hex":"#3366ff99","correct":-1,"choice":-1,"rt":-1,"accuracy":1,"outcome":"+10","keys":[],"total_keys":0,"block":1,"trial":65,"robot":2,"valence":"win","action":"no-go","sham":0,"trial_type":"pit-trial","trial_index":78,"time_elapsed":482525,"internal_node_id":"0.0-67.0","task_version":"battery-v0.1"},{"rune":"I","hex":"#3366ff99","correct":32,"choice":32,"rt":630.4049999998533,"accuracy":1,"outcome":"+10","keys":[2130.449999998731],"total_keys":1,"block":1,"trial":66,"robot":1,"valence":"win","action":"go","sham":0,"trial_type":"pit-trial","trial_index":79,"time_elapsed":485865,"internal_node_id":"0.0-68.0","task_version":"battery-v0.1"},{"rune":"Q","hex":"#f73b6a7A","correct":-1,"choice":-1,"rt":-1,"accuracy":1,"outcome":"-10","keys":[],"total_keys":0,"block":1,"trial":67,"robot":4,"valence":"lose","action":"no-go","sham":1,"trial_type":"pit-trial","trial_index":80,"time_elapsed":489873,"internal_node_id":"0.0-69.0","task_version":"battery-v0.1"},{"rune":"R","hex":"#f73b6a7A","correct":32,"choice":32,"rt":590.0000000001746,"accuracy":1,"outcome":"-1","keys":[2090.6949999989592],"total_keys":1,"block":1,"trial":68,"robot":3,"valence":"lose","action":"go","sham":0,"trial_type":"pit-trial","trial_index":81,"time_elapsed":493172,"internal_node_id":"0.0-70.0","task_version":"battery-v0.1"},{"rune":"Q","hex":"#f73b6a7A","correct":-1,"choice":32,"rt":534.2650000002468,"accuracy":0,"outcome":"-10","keys":[2034.4249999998137],"total_keys":1,"block":1,"trial":69,"robot":4,"valence":"lose","action":"no-go","sham":0,"trial_type":"pit-trial","trial_index":82,"time_elapsed":496420,"internal_node_id":"0.0-71.0","task_version":"battery-v0.1"},{"rune":"R","hex":"#f73b6a7A","correct":32,"choice":32,"rt":562.524999999383,"accuracy":1,"outcome":"-1","keys":[2064.6800000012736],"total_keys":1,"block":1,"trial":70,"robot":3,"valence":"lose","action":"go","sham":0,"trial_type":"pit-trial","trial_index":83,"time_elapsed":499696,"internal_node_id":"0.0-72.0","task_version":"battery-v0.1"},{"rune":"I","hex":"#3366ff99","correct":32,"choice":32,"rt":616.7849999983446,"accuracy":1,"outcome":"+10","keys":[2116.874999999709],"total_keys":1,"block":1,"trial":71,"robot":1,"valence":"win","action":"go","sham":0,"trial_type":"pit-trial","trial_index":84,"time_elapsed":503023,"internal_node_id":"0.0-73.0","task_version":"battery-v0.1"},{"rune":"U","hex":"#3366ff99","correct":-1,"choice":-1,"rt":-1,"accuracy":1,"outcome":"+10","keys":[],"total_keys":0,"block":1,"trial":72,"robot":2,"valence":"win","action":"no-go","sham":0,"trial_type":"pit-trial","trial_index":85,"time_elapsed":507037,"internal_node_id":"0.0-74.0","task_version":"battery-v0.1"},{"rune":"U","hex":"#3366ff99","correct":-1,"choice":32,"rt":604.695000000007,"accuracy":0,"outcome":"+1","keys":[2104.8850000006496],"total_keys":1,"block":1,"trial":73,"robot":2,"valence":"win","action":"no-go","sham":0,"trial_type":"pit-trial","trial_index":86,"time_elapsed":510355,"internal_node_id":"0.0-75.0","task_version":"battery-v0.1"},{"rune":"Q","hex":"#f73b6a7A","correct":-1,"choice":32,"rt":684.0849999989732,"accuracy":0,"outcome":"-10","keys":[2187.3300000006566],"total_keys":1,"block":1,"trial":74,"robot":4,"valence":"lose","action":"no-go","sham":0,"trial_type":"pit-trial","trial_index":87,"time_elapsed":513755,"internal_node_id":"0.0-76.0","task_version":"battery-v0.1"},{"rune":"G","hex":"#3366ff99","correct":32,"choice":-1,"rt":-1,"accuracy":0,"outcome":"+1","keys":[],"total_keys":0,"block":1,"trial":75,"robot":1,"valence":"win","action":"go","sham":0,"trial_type":"pit-trial","trial_index":88,"time_elapsed":517767,"internal_node_id":"0.0-77.0","task_version":"battery-v0.1"},{"rune":"S","hex":"#f73b6a7A","correct":32,"choice":-1,"rt":-1,"accuracy":0,"outcome":"-1","keys":[],"total_keys":0,"block":1,"trial":76,"robot":3,"valence":"lose","action":"go","sham":1,"trial_type":"pit-trial","trial_index":89,"time_elapsed":521778,"internal_node_id":"0.0-78.0","task_version":"battery-v0.1"},{"rune":"Q","hex":"#f73b6a7A","correct":-1,"choice":-1,"rt":-1,"accuracy":1,"outcome":"-1","keys":[],"total_keys":0,"block":1,"trial":77,"robot":4,"valence":"lose","action":"no-go","sham":0,"trial_type":"pit-trial","trial_index":90,"time_elapsed":525793,"internal_node_id":"0.0-79.0","task_version":"battery-v0.1"},{"rune":"S","hex":"#f73b6a7A","correct":32,"choice":32,"rt":1089.6849999990081,"accuracy":1,"outcome":"-1","keys":[2589.735000001383],"total_keys":1,"block":1,"trial":78,"robot":3,"valence":"lose","action":"go","sham":0,"trial_type":"pit-trial","trial_index":91,"time_elapsed":529596,"internal_node_id":"0.0-80.0","task_version":"battery-v0.1"},{"rune":"G","hex":"#3366ff99","correct":32,"choice":32,"rt":638.43999999878,"accuracy":1,"outcome":"+10","keys":[2142.5650000000605],"total_keys":1,"block":1,"trial":79,"robot":1,"valence":"win","action":"go","sham":0,"trial_type":"pit-trial","trial_index":92,"time_elapsed":532954,"internal_node_id":"0.0-81.0","task_version":"battery-v0.1"},{"rune":"U","hex":"#3366ff99","correct":-1,"choice":-1,"rt":-1,"accuracy":1,"outcome":"+1","keys":[],"total_keys":0,"block":1,"trial":80,"robot":2,"valence":"win","action":"no-go","sham":1,"trial_type":"pit-trial","trial_index":93,"time_elapsed":536968,"internal_node_id":"0.0-82.0","task_version":"battery-v0.1"},{"rune":"Q","hex":"#f73b6a7A","correct":-1,"choice":32,"rt":602.4550000001909,"accuracy":0,"outcome":"-10","keys":[2104.835000000079],"total_keys":1,"block":1,"trial":81,"robot":4,"valence":"lose","action":"no-go","sham":0,"trial_type":"pit-trial","trial_index":94,"time_elapsed":540284,"internal_node_id":"0.0-83.0","task_version":"battery-v0.1"},{"rune":"G","hex":"#3366ff99","correct":32,"choice":32,"rt":848.7800000002608,"accuracy":1,"outcome":"+10","keys":[2349.0849999998463],"total_keys":1,"block":1,"trial":82,"robot":1,"valence":"win","action":"go","sham":0,"trial_type":"pit-trial","trial_index":95,"time_elapsed":543842,"internal_node_id":"0.0-84.0","task_version":"battery-v0.1"},{"rune":"U","hex":"#3366ff99","correct":-1,"choice":-1,"rt":-1,"accuracy":1,"outcome":"+10","keys":[],"total_keys":0,"block":1,"trial":83,"robot":2,"valence":"win","action":"no-go","sham":0,"trial_type":"pit-trial","trial_index":96,"time_elapsed":547855,"internal_node_id":"0.0-85.0","task_version":"battery-v0.1"},{"rune":"S","hex":"#f73b6a7A","correct":32,"choice":-1,"rt":-1,"accuracy":0,"outcome":"-10","keys":[],"total_keys":0,"block":1,"trial":84,"robot":3,"valence":"lose","action":"go","sham":0,"trial_type":"pit-trial","trial_index":97,"time_elapsed":551869,"internal_node_id":"0.0-86.0","task_version":"battery-v0.1"},{"rune":"S","hex":"#f73b6a7A","correct":32,"choice":32,"rt":489.9199999999255,"accuracy":1,"outcome":"-1","keys":[1991.3849999994272],"total_keys":1,"block":1,"trial":85,"robot":3,"valence":"lose","action":"go","sham":0,"trial_type":"pit-trial","trial_index":98,"time_elapsed":555071,"internal_node_id":"0.0-87.0","task_version":"battery-v0.1"},{"rune":"Q","hex":"#f73b6a7A","correct":-1,"choice":32,"rt":686.7799999999115,"accuracy":0,"outcome":"-10","keys":[2186.8549999999814],"total_keys":1,"block":1,"trial":86,"robot":4,"valence":"lose","action":"no-go","sham":0,"trial_type":"pit-trial","trial_index":99,"time_elapsed":558469,"internal_node_id":"0.0-88.0","task_version":"battery-v0.1"},{"rune":"G","hex":"#3366ff99","correct":32,"choice":-1,"rt":-1,"accuracy":0,"outcome":"+1","keys":[],"total_keys":0,"block":1,"trial":87,"robot":1,"valence":"win","action":"go","sham":0,"trial_type":"pit-trial","trial_index":100,"time_elapsed":562480,"internal_node_id":"0.0-89.0","task_version":"battery-v0.1"},{"rune":"U","hex":"#3366ff99","correct":-1,"choice":-1,"rt":-1,"accuracy":1,"outcome":"+10","keys":[],"total_keys":0,"block":1,"trial":88,"robot":2,"valence":"win","action":"no-go","sham":0,"trial_type":"pit-trial","trial_index":101,"time_elapsed":566495,"internal_node_id":"0.0-90.0","task_version":"battery-v0.1"},{"rune":"L","hex":"#f73b6a7A","correct":32,"choice":-1,"rt":-1,"accuracy":0,"outcome":"-10","keys":[],"total_keys":0,"block":1,"trial":89,"robot":3,"valence":"lose","action":"go","sham":0,"trial_type":"pit-trial","trial_index":102,"time_elapsed":570509,"internal_node_id":"0.0-91.0","task_version":"battery-v0.1"},{"rune":"G","hex":"#3366ff99","correct":32,"choice":32,"rt":678.9949999983655,"accuracy":1,"outcome":"+10","keys":[2178.9399999998277],"total_keys":1,"block":1,"trial":90,"robot":1,"valence":"win","action":"go","sham":0,"trial_type":"pit-trial","trial_index":103,"time_elapsed":573898,"internal_node_id":"0.0-92.0","task_version":"battery-v0.1"},{"rune":"S","hex":"#f73b6a7A","correct":32,"choice":32,"rt":472.6300000001211,"accuracy":1,"outcome":"-1","keys":[1976.8549999989336],"total_keys":1,"block":1,"trial":91,"robot":3,"valence":"lose","action":"go","sham":0,"trial_type":"pit-trial","trial_index":104,"time_elapsed":577082,"internal_node_id":"0.0-93.0","task_version":"battery-v0.1"},{"rune":"J","hex":"#3366ff99","correct":-1,"choice":-1,"rt":-1,"accuracy":1,"outcome":"+10","keys":[],"total_keys":0,"block":1,"trial":92,"robot":2,"valence":"win","action":"no-go","sham":0,"trial_type":"pit-trial","trial_index":105,"time_elapsed":581089,"internal_node_id":"0.0-94.0","task_version":"battery-v0.1"},{"rune":"G","hex":"#3366ff99","correct":32,"choice":32,"rt":528.2600000009406,"accuracy":1,"outcome":"+10","keys":[2029.0600000007544],"total_keys":1,"block":1,"trial":93,"robot":1,"valence":"win","action":"go","sham":0,"trial_type":"pit-trial","trial_index":106,"time_elapsed":584326,"internal_node_id":"0.0-95.0","task_version":"battery-v0.1"},{"rune":"S","hex":"#f73b6a7A","correct":32,"choice":32,"rt":649.6100000004517,"accuracy":1,"outcome":"-1","keys":[2149.110000000219],"total_keys":1,"block":1,"trial":94,"robot":3,"valence":"lose","action":"go","sham":0,"trial_type":"pit-trial","trial_index":107,"time_elapsed":587688,"internal_node_id":"0.0-96.0","task_version":"battery-v0.1"},{"rune":"J","hex":"#3366ff99","correct":-1,"choice":32,"rt":566.2499999997672,"accuracy":0,"outcome":"+1","keys":[2066.3050000004005],"total_keys":1,"block":1,"trial":95,"robot":2,"valence":"win","action":"no-go","sham":0,"trial_type":"pit-trial","trial_index":108,"time_elapsed":590963,"internal_node_id":"0.0-97.0","task_version":"battery-v0.1"},{"rune":"L","hex":"#f73b6a7A","correct":32,"choice":32,"rt":784.384999999078,"accuracy":1,"outcome":"-1","keys":[2284.3950000006007],"total_keys":1,"block":1,"trial":96,"robot":3,"valence":"lose","action":"go","sham":0,"trial_type":"pit-trial","trial_index":109,"time_elapsed":594461,"internal_node_id":"0.0-98.0","task_version":"battery-v0.1"},{"rune":"G","hex":"#3366ff99","correct":32,"choice":32,"rt":564.809999999823,"accuracy":1,"outcome":"+10","keys":[2064.8600000004517],"total_keys":1,"block":1,"trial":97,"robot":1,"valence":"win","action":"go","sham":0,"trial_type":"pit-trial","trial_index":110,"time_elapsed":597737,"internal_node_id":"0.0-99.0","task_version":"battery-v0.1"},{"rune":"L","hex":"#f73b6a7A","correct":32,"choice":32,"rt":660.5650000000605,"accuracy":1,"outcome":"-10","keys":[2160.1099999989383],"total_keys":1,"block":1,"trial":98,"robot":3,"valence":"lose","action":"go","sham":1,"trial_type":"pit-trial","trial_index":111,"time_elapsed":601109,"internal_node_id":"0.0-100.0","task_version":"battery-v0.1"},{"rune":"J","hex":"#3366ff99","correct":-1,"choice":-1,"rt":-1,"accuracy":1,"outcome":"+10","keys":[],"total_keys":0,"block":1,"trial":99,"robot":2,"valence":"win","action":"no-go","sham":0,"trial_type":"pit-trial","trial_index":112,"time_elapsed":605118,"internal_node_id":"0.0-101.0","task_version":"battery-v0.1"},{"rune":"S","hex":"#f73b6a7A","correct":32,"choice":32,"rt":449.7399999999907,"accuracy":1,"outcome":"-10","keys":[1949.8550000007963],"total_keys":1,"block":1,"trial":100,"robot":3,"valence":"lose","action":"go","sham":1,"trial_type":"pit-trial","trial_index":113,"time_elapsed":608284,"internal_node_id":"0.0-102.0","task_version":"battery-v0.1"},{"rune":"L","hex":"#f73b6a7A","correct":32,"choice":-1,"rt":-1,"accuracy":0,"outcome":"-1","keys":[],"total_keys":0,"block":1,"trial":101,"robot":3,"valence":"lose","action":"go","sham":1,"trial_type":"pit-trial","trial_index":114,"time_elapsed":612293,"internal_node_id":"0.0-103.0","task_version":"battery-v0.1"},{"rune":"S","hex":"#f73b6a7A","correct":32,"choice":32,"rt":625.804999999702,"accuracy":1,"outcome":"-1","keys":[2125.9750000007916],"total_keys":1,"block":1,"trial":102,"robot":3,"valence":"lose","action":"go","sham":0,"trial_type":"pit-trial","trial_index":115,"time_elapsed":615630,"internal_node_id":"0.0-104.0","task_version":"battery-v0.1"},{"rune":"G","hex":"#3366ff99","correct":32,"choice":-1,"rt":-1,"accuracy":0,"outcome":"+1","keys":[],"total_keys":0,"block":1,"trial":103,"robot":1,"valence":"win","action":"go","sham":0,"trial_type":"pit-trial","trial_index":116,"time_elapsed":619645,"internal_node_id":"0.0-105.0","task_version":"battery-v0.1"},{"rune":"J","hex":"#3366ff99","correct":-1,"choice":-1,"rt":-1,"accuracy":1,"outcome":"+1","keys":[],"total_keys":0,"block":1,"trial":104,"robot":2,"valence":"win","action":"no-go","sham":1,"trial_type":"pit-trial","trial_index":117,"time_elapsed":623655,"internal_node_id":"0.0-106.0","task_version":"battery-v0.1"},{"rune":"J","hex":"#3366ff99","correct":-1,"choice":32,"rt":398.65999999898486,"accuracy":0,"outcome":"+1","keys":[1898.070000001113],"total_keys":1,"block":1,"trial":105,"robot":2,"valence":"win","action":"no-go","sham":0,"trial_type":"pit-trial","trial_index":118,"time_elapsed":626767,"internal_node_id":"0.0-107.0","task_version":"battery-v0.1"},{"rune":"L","hex":"#f73b6a7A","correct":32,"choice":32,"rt":924.4299999991199,"accuracy":1,"outcome":"-1","keys":[2424.5050000008196],"total_keys":1,"block":1,"trial":106,"robot":3,"valence":"lose","action":"go","sham":0,"trial_type":"pit-trial","trial_index":119,"time_elapsed":630402,"internal_node_id":"0.0-108.0","task_version":"battery-v0.1"},{"rune":"S","hex":"#f73b6a7A","correct":32,"choice":-1,"rt":-1,"accuracy":0,"outcome":"-10","keys":[],"total_keys":0,"block":1,"trial":107,"robot":3,"valence":"lose","action":"go","sham":0,"trial_type":"pit-trial","trial_index":120,"time_elapsed":634415,"internal_node_id":"0.0-109.0","task_version":"battery-v0.1"},{"rune":"G","hex":"#3366ff99","correct":32,"choice":32,"rt":807.6549999987474,"accuracy":1,"outcome":"+10","keys":[2308.2150000008987],"total_keys":1,"block":1,"trial":108,"robot":1,"valence":"win","action":"go","sham":0,"trial_type":"pit-trial","trial_index":121,"time_elapsed":637936,"internal_node_id":"0.0-110.0","task_version":"battery-v0.1"},{"rune":"S","hex":"#f73b6a7A","correct":32,"choice":32,"rt":539.2350000001024,"accuracy":1,"outcome":"-10","keys":[2039.3000000002794],"total_keys":1,"block":1,"trial":109,"robot":3,"valence":"lose","action":"go","sham":1,"trial_type":"pit-trial","trial_index":122,"time_elapsed":641185,"internal_node_id":"0.0-111.0","task_version":"battery-v0.1"},{"rune":"G","hex":"#3366ff99","correct":32,"choice":32,"rt":553.9699999990407,"accuracy":1,"outcome":"+10","keys":[2054.070000000065],"total_keys":1,"block":1,"trial":110,"robot":1,"valence":"win","action":"go","sham":0,"trial_type":"pit-trial","trial_index":123,"time_elapsed":644453,"internal_node_id":"0.0-112.0","task_version":"battery-v0.1"},{"rune":"J","hex":"#3366ff99","correct":-1,"choice":-1,"rt":-1,"accuracy":1,"outcome":"+10","keys":[],"total_keys":0,"block":1,"trial":111,"robot":2,"valence":"win","action":"no-go","sham":0,"trial_type":"pit-trial","trial_index":124,"time_elapsed":648464,"internal_node_id":"0.0-113.0","task_version":"battery-v0.1"},{"rune":"L","hex":"#f73b6a7A","correct":32,"choice":32,"rt":631.4100000000326,"accuracy":1,"outcome":"-1","keys":[2130.820000000298],"total_keys":1,"block":1,"trial":112,"robot":3,"valence":"lose","action":"go","sham":0,"trial_type":"pit-trial","trial_index":125,"time_elapsed":651806,"internal_node_id":"0.0-114.0","task_version":"battery-v0.1"},{"rune":"L","hex":"#f73b6a7A","correct":32,"choice":32,"rt":842.6499999986263,"accuracy":1,"outcome":"-1","keys":[2342.7050000008894],"total_keys":1,"block":1,"trial":113,"robot":3,"valence":"lose","action":"go","sham":0,"trial_type":"pit-trial","trial_index":126,"time_elapsed":655358,"internal_node_id":"0.0-115.0","task_version":"battery-v0.1"},{"rune":"J","hex":"#3366ff99","correct":-1,"choice":-1,"rt":-1,"accuracy":1,"outcome":"+10","keys":[],"total_keys":0,"block":1,"trial":114,"robot":2,"valence":"win","action":"no-go","sham":0,"trial_type":"pit-trial","trial_index":127,"time_elapsed":659369,"internal_node_id":"0.0-116.0","task_version":"battery-v0.1"},{"rune":"S","hex":"#f73b6a7A","correct":32,"choice":-1,"rt":-1,"accuracy":0,"outcome":"-10","keys":[],"total_keys":0,"block":1,"trial":115,"robot":3,"valence":"lose","action":"go","sham":0,"trial_type":"pit-trial","trial_index":128,"time_elapsed":663380,"internal_node_id":"0.0-117.0","task_version":"battery-v0.1"},{"rune":"G","hex":"#3366ff99","correct":32,"choice":32,"rt":482.69999999867287,"accuracy":1,"outcome":"+1","keys":[1981.555000000284],"total_keys":1,"block":1,"trial":116,"robot":1,"valence":"win","action":"go","sham":1,"trial_type":"pit-trial","trial_index":129,"time_elapsed":666572,"internal_node_id":"0.0-118.0","task_version":"battery-v0.1"},{"rune":"L","hex":"#f73b6a7A","correct":32,"choice":32,"rt":698.9250000005122,"accuracy":1,"outcome":"-1","keys":[2198.989999998943],"total_keys":1,"block":1,"trial":117,"robot":3,"valence":"lose","action":"go","sham":0,"trial_type":"pit-trial","trial_index":130,"time_elapsed":669984,"internal_node_id":"0.0-119.0","task_version":"battery-v0.1"},{"rune":"G","hex":"#3366ff99","correct":32,"choice":32,"rt":622.9199999998091,"accuracy":1,"outcome":"+10","keys":[2122.8950000004843],"total_keys":1,"block":1,"trial":118,"robot":1,"valence":"win","action":"go","sham":0,"trial_type":"pit-trial","trial_index":131,"time_elapsed":673320,"internal_node_id":"0.0-120.0","task_version":"battery-v0.1"},{"rune":"J","hex":"#3366ff99","correct":-1,"choice":-1,"rt":-1,"accuracy":1,"outcome":"+10","keys":[],"total_keys":0,"block":1,"trial":119,"robot":2,"valence":"win","action":"no-go","sham":0,"trial_type":"pit-trial","trial_index":132,"time_elapsed":677330,"internal_node_id":"0.0-121.0","task_version":"battery-v0.1"},{"rune":"S","hex":"#f73b6a7A","correct":32,"choice":32,"rt":447.55000000074506,"accuracy":1,"outcome":"-1","keys":[1947.615000000922],"total_keys":1,"block":1,"trial":120,"robot":3,"valence":"lose","action":"go","sham":0,"trial_type":"pit-trial","trial_index":133,"time_elapsed":680489,"internal_node_id":"0.0-122.0","task_version":"battery-v0.1"},{"view_history":"[{\"page_index\":0,\"viewing_time\":22338.529999999097},{\"page_index\":1,\"viewing_time\":2030.7000000011176}]","rt":24370.939999998896,"trial_type":"pit-instructions","trial_index":134,"time_elapsed":704869,"internal_node_id":"0.0-123.0","task_version":"battery-v0.1"},{"rune":"W","hex":"#3366ff99","correct":-1,"choice":-1,"rt":-1,"accuracy":1,"outcome":"+10","keys":[],"total_keys":0,"block":2,"trial":121,"robot":2,"valence":"win","action":"no-go","sham":0,"trial_type":"pit-trial","trial_index":135,"time_elapsed":708885,"internal_node_id":"0.0-124.0","task_version":"battery-v0.1"},{"rune":"M","hex":"#3366ff99","correct":32,"choice":-1,"rt":-1,"accuracy":0,"outcome":"+1","keys":[],"total_keys":0,"block":2,"trial":122,"robot":1,"valence":"win","action":"go","sham":0,"trial_type":"pit-trial","trial_index":136,"time_elapsed":712900,"internal_node_id":"0.0-125.0","task_version":"battery-v0.1"},{"rune":"X","hex":"#3366ff99","correct":32,"choice":-1,"rt":-1,"accuracy":0,"outcome":"+1","keys":[],"total_keys":0,"block":2,"trial":123,"robot":1,"valence":"win","action":"go","sham":0,"trial_type":"pit-trial","trial_index":137,"time_elapsed":716915,"internal_node_id":"0.0-126.0","task_version":"battery-v0.1"},{"rune":"H","hex":"#f73b6a7A","correct":-1,"choice":-1,"rt":-1,"accuracy":1,"outcome":"-1","keys":[],"total_keys":0,"block":2,"trial":124,"robot":4,"valence":"lose","action":"no-go","sham":0,"trial_type":"pit-trial","trial_index":138,"time_elapsed":720929,"internal_node_id":"0.0-127.0","task_version":"battery-v0.1"},{"rune":"M","hex":"#3366ff99","correct":32,"choice":32,"rt":637.1600000002654,"accuracy":1,"outcome":"+10","keys":[2136.9949999989476],"total_keys":1,"block":2,"trial":125,"robot":1,"valence":"win","action":"go","sham":0,"trial_type":"pit-trial","trial_index":139,"time_elapsed":724278,"internal_node_id":"0.0-128.0","task_version":"battery-v0.1"},{"rune":"H","hex":"#f73b6a7A","correct":-1,"choice":-1,"rt":-1,"accuracy":1,"outcome":"-1","keys":[],"total_keys":0,"block":2,"trial":126,"robot":4,"valence":"lose","action":"no-go","sham":0,"trial_type":"pit-trial","trial_index":140,"time_elapsed":728292,"internal_node_id":"0.0-129.0","task_version":"battery-v0.1"},{"rune":"W","hex":"#3366ff99","correct":-1,"choice":-1,"rt":-1,"accuracy":1,"outcome":"+10","keys":[],"total_keys":0,"block":2,"trial":127,"robot":2,"valence":"win","action":"no-go","sham":0,"trial_type":"pit-trial","trial_index":141,"time_elapsed":732305,"internal_node_id":"0.0-130.0","task_version":"battery-v0.1"},{"rune":"X","hex":"#3366ff99","correct":32,"choice":32,"rt":379.01500000047963,"accuracy":1,"outcome":"+10","keys":[1879.079999998794],"total_keys":1,"block":2,"trial":128,"robot":1,"valence":"win","action":"go","sham":0,"trial_type":"pit-trial","trial_index":142,"time_elapsed":735392,"internal_node_id":"0.0-131.0","task_version":"battery-v0.1"},{"rune":"H","hex":"#f73b6a7A","correct":-1,"choice":-1,"rt":-1,"accuracy":1,"outcome":"-1","keys":[],"total_keys":0,"block":2,"trial":129,"robot":4,"valence":"lose","action":"no-go","sham":0,"trial_type":"pit-trial","trial_index":143,"time_elapsed":739405,"internal_node_id":"0.0-132.0","task_version":"battery-v0.1"},{"rune":"M","hex":"#3366ff99","correct":32,"choice":32,"rt":554.9700000010198,"accuracy":1,"outcome":"+10","keys":[2054.969999999157],"total_keys":1,"block":2,"trial":130,"robot":1,"valence":"win","action":"go","sham":0,"trial_type":"pit-trial","trial_index":144,"time_elapsed":742678,"internal_node_id":"0.0-133.0","task_version":"battery-v0.1"},{"rune":"X","hex":"#3366ff99","correct":32,"choice":32,"rt":322.5400000009686,"accuracy":1,"outcome":"+10","keys":[1822.664999999688],"total_keys":1,"block":2,"trial":131,"robot":1,"valence":"win","action":"go","sham":0,"trial_type":"pit-trial","trial_index":145,"time_elapsed":745713,"internal_node_id":"0.0-134.0","task_version":"battery-v0.1"},{"rune":"W","hex":"#3366ff99","correct":-1,"choice":-1,"rt":-1,"accuracy":1,"outcome":"+10","keys":[],"total_keys":0,"block":2,"trial":132,"robot":2,"valence":"win","action":"no-go","sham":0,"trial_type":"pit-trial","trial_index":146,"time_elapsed":749728,"internal_node_id":"0.0-135.0","task_version":"battery-v0.1"},{"rune":"H","hex":"#f73b6a7A","correct":-1,"choice":-1,"rt":-1,"accuracy":1,"outcome":"-10","keys":[],"total_keys":0,"block":2,"trial":133,"robot":4,"valence":"lose","action":"no-go","sham":1,"trial_type":"pit-trial","trial_index":147,"time_elapsed":753742,"internal_node_id":"0.0-136.0","task_version":"battery-v0.1"},{"rune":"X","hex":"#3366ff99","correct":32,"choice":32,"rt":338.6800000007497,"accuracy":1,"outcome":"+10","keys":[1838.0649999999441],"total_keys":1,"block":2,"trial":134,"robot":1,"valence":"win","action":"go","sham":0,"trial_type":"pit-trial","trial_index":148,"time_elapsed":756796,"internal_node_id":"0.0-137.0","task_version":"battery-v0.1"},{"rune":"W","hex":"#3366ff99","correct":-1,"choice":-1,"rt":-1,"accuracy":1,"outcome":"+10","keys":[],"total_keys":0,"block":2,"trial":135,"robot":2,"valence":"win","action":"no-go","sham":0,"trial_type":"pit-trial","trial_index":149,"time_elapsed":760805,"internal_node_id":"0.0-138.0","task_version":"battery-v0.1"},{"rune":"M","hex":"#3366ff99","correct":32,"choice":32,"rt":420.72999999974854,"accuracy":1,"outcome":"+10","keys":[1921.2599999991944],"total_keys":1,"block":2,"trial":136,"robot":1,"valence":"win","action":"go","sham":0,"trial_type":"pit-trial","trial_index":150,"time_elapsed":763940,"internal_node_id":"0.0-139.0","task_version":"battery-v0.1"},{"rune":"H","hex":"#f73b6a7A","correct":-1,"choice":32,"rt":960.9700000000885,"accuracy":0,"outcome":"-10","keys":[2461.009999999078],"total_keys":1,"block":2,"trial":137,"robot":4,"valence":"lose","action":"no-go","sham":0,"trial_type":"pit-trial","trial_index":151,"time_elapsed":767617,"internal_node_id":"0.0-140.0","task_version":"battery-v0.1"},{"rune":"M","hex":"#3366ff99","correct":32,"choice":32,"rt":594.4799999997485,"accuracy":1,"outcome":"+10","keys":[2094.5499999998137],"total_keys":1,"block":2,"trial":138,"robot":1,"valence":"win","action":"go","sham":0,"trial_type":"pit-trial","trial_index":152,"time_elapsed":770925,"internal_node_id":"0.0-141.0","task_version":"battery-v0.1"},{"rune":"X","hex":"#3366ff99","correct":32,"choice":32,"rt":397.8349999997299,"accuracy":1,"outcome":"+10","keys":[1897.9500000005355],"total_keys":1,"block":2,"trial":139,"robot":1,"valence":"win","action":"go","sham":0,"trial_type":"pit-trial","trial_index":153,"time_elapsed":774034,"internal_node_id":"0.0-142.0","task_version":"battery-v0.1"},{"rune":"W","hex":"#3366ff99","correct":-1,"choice":-1,"rt":-1,"accuracy":1,"outcome":"+1","keys":[],"total_keys":0,"block":2,"trial":140,"robot":2,"valence":"win","action":"no-go","sham":1,"trial_type":"pit-trial","trial_index":154,"time_elapsed":778045,"internal_node_id":"0.0-143.0","task_version":"battery-v0.1"},{"rune":"M","hex":"#3366ff99","correct":32,"choice":32,"rt":340.9249999986496,"accuracy":1,"outcome":"+10","keys":[1840.9900000005728],"total_keys":1,"block":2,"trial":141,"robot":1,"valence":"win","action":"go","sham":0,"trial_type":"pit-trial","trial_index":155,"time_elapsed":781095,"internal_node_id":"0.0-144.0","task_version":"battery-v0.1"},{"rune":"X","hex":"#3366ff99","correct":32,"choice":32,"rt":366.0600000002887,"accuracy":1,"outcome":"+1","keys":[1866.159999999567],"total_keys":1,"block":2,"trial":142,"robot":1,"valence":"win","action":"go","sham":1,"trial_type":"pit-trial","trial_index":156,"time_elapsed":784171,"internal_node_id":"0.0-145.0","task_version":"battery-v0.1"},{"rune":"H","hex":"#f73b6a7A","correct":-1,"choice":-1,"rt":-1,"accuracy":1,"outcome":"-1","keys":[],"total_keys":0,"block":2,"trial":143,"robot":4,"valence":"lose","action":"no-go","sham":0,"trial_type":"pit-trial","trial_index":157,"time_elapsed":788185,"internal_node_id":"0.0-146.0","task_version":"battery-v0.1"},{"rune":"W","hex":"#3366ff99","correct":-1,"choice":-1,"rt":-1,"accuracy":1,"outcome":"+10","keys":[],"total_keys":0,"block":2,"trial":144,"robot":2,"valence":"win","action":"no-go","sham":0,"trial_type":"pit-trial","trial_index":158,"time_elapsed":792197,"internal_node_id":"0.0-147.0","task_version":"battery-v0.1"},{"rune":"H","hex":"#f73b6a7A","correct":-1,"choice":-1,"rt":-1,"accuracy":1,"outcome":"-1","keys":[],"total_keys":0,"block":2,"trial":145,"robot":4,"valence":"lose","action":"no-go","sham":0,"trial_type":"pit-trial","trial_index":159,"time_elapsed":796212,"internal_node_id":"0.0-148.0","task_version":"battery-v0.1"},{"rune":"M","hex":"#3366ff99","correct":32,"choice":32,"rt":396.1949999993667,"accuracy":1,"outcome":"+10","keys":[1896.3249999997206],"total_keys":1,"block":2,"trial":146,"robot":1,"valence":"win","action":"go","sham":0,"trial_type":"pit-trial","trial_index":160,"time_elapsed":799319,"internal_node_id":"0.0-149.0","task_version":"battery-v0.1"},{"rune":"W","hex":"#3366ff99","correct":-1,"choice":-1,"rt":-1,"accuracy":1,"outcome":"+10","keys":[],"total_keys":0,"block":2,"trial":147,"robot":2,"valence":"win","action":"no-go","sham":0,"trial_type":"pit-trial","trial_index":161,"time_elapsed":803328,"internal_node_id":"0.0-150.0","task_version":"battery-v0.1"},{"rune":"X","hex":"#3366ff99","correct":32,"choice":32,"rt":492.9050000010757,"accuracy":1,"outcome":"+1","keys":[1992.9749999992782],"total_keys":1,"block":2,"trial":148,"robot":1,"valence":"win","action":"go","sham":1,"trial_type":"pit-trial","trial_index":162,"time_elapsed":806534,"internal_node_id":"0.0-151.0","task_version":"battery-v0.1"},{"rune":"H","hex":"#f73b6a7A","correct":-1,"choice":-1,"rt":-1,"accuracy":1,"outcome":"-1","keys":[],"total_keys":0,"block":2,"trial":149,"robot":4,"valence":"lose","action":"no-go","sham":0,"trial_type":"pit-trial","trial_index":163,"time_elapsed":810544,"internal_node_id":"0.0-152.0","task_version":"battery-v0.1"},{"rune":"X","hex":"#3366ff99","correct":32,"choice":32,"rt":357.4649999991525,"accuracy":1,"outcome":"+1","keys":[1857.9399999998277],"total_keys":1,"block":2,"trial":150,"robot":1,"valence":"win","action":"go","sham":1,"trial_type":"pit-trial","trial_index":164,"time_elapsed":813613,"internal_node_id":"0.0-153.0","task_version":"battery-v0.1"},{"rune":"W","hex":"#3366ff99","correct":-1,"choice":-1,"rt":-1,"accuracy":1,"outcome":"+10","keys":[],"total_keys":0,"block":2,"trial":151,"robot":2,"valence":"win","action":"no-go","sham":0,"trial_type":"pit-trial","trial_index":165,"time_elapsed":817626,"internal_node_id":"0.0-154.0","task_version":"battery-v0.1"},{"rune":"M","hex":"#3366ff99","correct":32,"choice":32,"rt":305.41500000073574,"accuracy":1,"outcome":"+10","keys":[1805.6149999992922],"total_keys":1,"block":2,"trial":152,"robot":1,"valence":"win","action":"go","sham":0,"trial_type":"pit-trial","trial_index":166,"time_elapsed":820642,"internal_node_id":"0.0-155.0","task_version":"battery-v0.1"},{"rune":"M","hex":"#3366ff99","correct":32,"choice":32,"rt":326.1800000000512,"accuracy":1,"outcome":"+10","keys":[1826.2749999994412],"total_keys":1,"block":2,"trial":153,"robot":1,"valence":"win","action":"go","sham":0,"trial_type":"pit-trial","trial_index":167,"time_elapsed":823680,"internal_node_id":"0.0-156.0","task_version":"battery-v0.1"},{"rune":"Z","hex":"#3366ff99","correct":32,"choice":-1,"rt":-1,"accuracy":0,"outcome":"+1","keys":[],"total_keys":0,"block":2,"trial":154,"robot":1,"valence":"win","action":"go","sham":0,"trial_type":"pit-trial","trial_index":168,"time_elapsed":827690,"internal_node_id":"0.0-157.0","task_version":"battery-v0.1"},{"rune":"W","hex":"#3366ff99","correct":-1,"choice":-1,"rt":-1,"accuracy":1,"outcome":"+1","keys":[],"total_keys":0,"block":2,"trial":155,"robot":2,"valence":"win","action":"no-go","sham":1,"trial_type":"pit-trial","trial_index":169,"time_elapsed":831703,"internal_node_id":"0.0-158.0","task_version":"battery-v0.1"},{"rune":"H","hex":"#f73b6a7A","correct":-1,"choice":-1,"rt":-1,"accuracy":1,"outcome":"-10","keys":[],"total_keys":0,"block":2,"trial":156,"robot":4,"valence":"lose","action":"no-go","sham":1,"trial_type":"pit-trial","trial_index":170,"time_elapsed":835718,"internal_node_id":"0.0-159.0","task_version":"battery-v0.1"},{"rune":"H","hex":"#f73b6a7A","correct":-1,"choice":32,"rt":494.1699999999255,"accuracy":0,"outcome":"-10","keys":[1996.3699999988312],"total_keys":1,"block":2,"trial":157,"robot":4,"valence":"lose","action":"no-go","sham":0,"trial_type":"pit-trial","trial_index":171,"time_elapsed":838927,"internal_node_id":"0.0-160.0","task_version":"battery-v0.1"},{"rune":"M","hex":"#3366ff99","correct":32,"choice":32,"rt":396.32999999960884,"accuracy":1,"outcome":"+10","keys":[1896.445000000298],"total_keys":1,"block":2,"trial":158,"robot":1,"valence":"win","action":"go","sham":0,"trial_type":"pit-trial","trial_index":172,"time_elapsed":842033,"internal_node_id":"0.0-161.0","task_version":"battery-v0.1"},{"rune":"W","hex":"#3366ff99","correct":-1,"choice":32,"rt":423.5000000008149,"accuracy":0,"outcome":"+1","keys":[1926.71999999939],"total_keys":1,"block":2,"trial":159,"robot":2,"valence":"win","action":"no-go","sham":0,"trial_type":"pit-trial","trial_index":173,"time_elapsed":845174,"internal_node_id":"0.0-162.0","task_version":"battery-v0.1"},{"rune":"Z","hex":"#3366ff99","correct":32,"choice":32,"rt":377.0299999995623,"accuracy":1,"outcome":"+10","keys":[1877.1649999999208],"total_keys":1,"block":2,"trial":160,"robot":1,"valence":"win","action":"go","sham":0,"trial_type":"pit-trial","trial_index":174,"time_elapsed":848264,"internal_node_id":"0.0-163.0","task_version":"battery-v0.1"},{"rune":"K","hex":"#f73b6a7A","correct":-1,"choice":-1,"rt":-1,"accuracy":1,"outcome":"-1","keys":[],"total_keys":0,"block":2,"trial":161,"robot":4,"valence":"lose","action":"no-go","sham":0,"trial_type":"pit-trial","trial_index":175,"time_elapsed":852279,"internal_node_id":"0.0-164.0","task_version":"battery-v0.1"},{"rune":"Z","hex":"#3366ff99","correct":32,"choice":32,"rt":431.56999999890104,"accuracy":1,"outcome":"+10","keys":[1931.630000000936],"total_keys":1,"block":2,"trial":162,"robot":1,"valence":"win","action":"go","sham":0,"trial_type":"pit-trial","trial_index":176,"time_elapsed":855425,"internal_node_id":"0.0-165.0","task_version":"battery-v0.1"},{"rune":"E","hex":"#f73b6a7A","correct":32,"choice":-1,"rt":-1,"accuracy":0,"outcome":"-10","keys":[],"total_keys":0,"block":2,"trial":163,"robot":3,"valence":"lose","action":"go","sham":0,"trial_type":"pit-trial","trial_index":177,"time_elapsed":859439,"internal_node_id":"0.0-166.0","task_version":"battery-v0.1"},{"rune":"W","hex":"#3366ff99","correct":-1,"choice":-1,"rt":-1,"accuracy":1,"outcome":"+10","keys":[],"total_keys":0,"block":2,"trial":164,"robot":2,"valence":"win","action":"no-go","sham":0,"trial_type":"pit-trial","trial_index":178,"time_elapsed":863450,"internal_node_id":"0.0-167.0","task_version":"battery-v0.1"},{"rune":"W","hex":"#3366ff99","correct":-1,"choice":-1,"rt":-1,"accuracy":1,"outcome":"+10","keys":[],"total_keys":0,"block":2,"trial":165,"robot":2,"valence":"win","action":"no-go","sham":0,"trial_type":"pit-trial","trial_index":179,"time_elapsed":867468,"internal_node_id":"0.0-168.0","task_version":"battery-v0.1"},{"rune":"E","hex":"#f73b6a7A","correct":32,"choice":32,"rt":459.9500000004191,"accuracy":1,"outcome":"-1","keys":[1962.2299999991665],"total_keys":1,"block":2,"trial":166,"robot":3,"valence":"lose","action":"go","sham":0,"trial_type":"pit-trial","trial_index":180,"time_elapsed":870642,"internal_node_id":"0.0-169.0","task_version":"battery-v0.1"},{"rune":"K","hex":"#f73b6a7A","correct":-1,"choice":-1,"rt":-1,"accuracy":1,"outcome":"-1","keys":[],"total_keys":0,"block":2,"trial":167,"robot":4,"valence":"lose","action":"no-go","sham":0,"trial_type":"pit-trial","trial_index":181,"time_elapsed":874653,"internal_node_id":"0.0-170.0","task_version":"battery-v0.1"},{"rune":"Z","hex":"#3366ff99","correct":32,"choice":32,"rt":401.2250000014901,"accuracy":1,"outcome":"+1","keys":[1902.7349999996368],"total_keys":1,"block":2,"trial":168,"robot":1,"valence":"win","action":"go","sham":1,"trial_type":"pit-trial","trial_index":182,"time_elapsed":877763,"internal_node_id":"0.0-171.0","task_version":"battery-v0.1"},{"rune":"T","hex":"#3366ff99","correct":-1,"choice":-1,"rt":-1,"accuracy":1,"outcome":"+1","keys":[],"total_keys":0,"block":2,"trial":169,"robot":2,"valence":"win","action":"no-go","sham":1,"trial_type":"pit-trial","trial_index":183,"time_elapsed":881775,"internal_node_id":"0.0-172.0","task_version":"battery-v0.1"},{"rune":"Z","hex":"#3366ff99","correct":32,"choice":32,"rt":754.0600000011036,"accuracy":1,"outcome":"+1","keys":[2254.049999999581],"total_keys":1,"block":2,"trial":170,"robot":1,"valence":"win","action":"go","sham":1,"trial_type":"pit-trial","trial_index":184,"time_elapsed":885242,"internal_node_id":"0.0-173.0","task_version":"battery-v0.1"},{"rune":"E","hex":"#f73b6a7A","correct":32,"choice":32,"rt":890.4349999993574,"accuracy":1,"outcome":"-1","keys":[2390.5950000006706],"total_keys":1,"block":2,"trial":171,"robot":3,"valence":"lose","action":"go","sham":0,"trial_type":"pit-trial","trial_index":185,"time_elapsed":888843,"internal_node_id":"0.0-174.0","task_version":"battery-v0.1"},{"rune":"K","hex":"#f73b6a7A","correct":-1,"choice":-1,"rt":-1,"accuracy":1,"outcome":"-1","keys":[],"total_keys":0,"block":2,"trial":172,"robot":4,"valence":"lose","action":"no-go","sham":0,"trial_type":"pit-trial","trial_index":186,"time_elapsed":892855,"internal_node_id":"0.0-175.0","task_version":"battery-v0.1"},{"rune":"T","hex":"#3366ff99","correct":-1,"choice":32,"rt":474.5199999996694,"accuracy":0,"outcome":"+10","keys":[1974.6699999995762],"total_keys":1,"block":2,"trial":173,"robot":2,"valence":"win","action":"no-go","sham":1,"trial_type":"pit-trial","trial_index":187,"time_elapsed":896042,"internal_node_id":"0.0-176.0","task_version":"battery-v0.1"},{"rune":"K","hex":"#f73b6a7A","correct":-1,"choice":-1,"rt":-1,"accuracy":1,"outcome":"-10","keys":[],"total_keys":0,"block":2,"trial":174,"robot":4,"valence":"lose","action":"no-go","sham":1,"trial_type":"pit-trial","trial_index":188,"time_elapsed":900055,"internal_node_id":"0.0-177.0","task_version":"battery-v0.1"},{"rune":"Z","hex":"#3366ff99","correct":32,"choice":32,"rt":397.92000000120606,"accuracy":1,"outcome":"+10","keys":[1899.660000000964],"total_keys":1,"block":2,"trial":175,"robot":1,"valence":"win","action":"go","sham":0,"trial_type":"pit-trial","trial_index":189,"time_elapsed":903180,"internal_node_id":"0.0-178.0","task_version":"battery-v0.1"},{"rune":"E","hex":"#f73b6a7A","correct":32,"choice":32,"rt":437.4899999983609,"accuracy":1,"outcome":"-1","keys":[1940.005000000354],"total_keys":1,"block":2,"trial":176,"robot":3,"valence":"lose","action":"go","sham":0,"trial_type":"pit-trial","trial_index":190,"time_elapsed":906332,"internal_node_id":"0.0-179.0","task_version":"battery-v0.1"},{"rune":"Z","hex":"#3366ff99","correct":32,"choice":32,"rt":341.2950000001583,"accuracy":1,"outcome":"+1","keys":[1842.1849999994738],"total_keys":1,"block":2,"trial":177,"robot":1,"valence":"win","action":"go","sham":1,"trial_type":"pit-trial","trial_index":191,"time_elapsed":909388,"internal_node_id":"0.0-180.0","task_version":"battery-v0.1"},{"rune":"T","hex":"#3366ff99","correct":-1,"choice":32,"rt":644.9800000009127,"accuracy":0,"outcome":"+1","keys":[2145.1600000000326],"total_keys":1,"block":2,"trial":178,"robot":2,"valence":"win","action":"no-go","sham":0,"trial_type":"pit-trial","trial_index":192,"time_elapsed":912745,"internal_node_id":"0.0-181.0","task_version":"battery-v0.1"},{"rune":"E","hex":"#f73b6a7A","correct":32,"choice":32,"rt":594.3749999988358,"accuracy":1,"outcome":"-1","keys":[2094.4600000001956],"total_keys":1,"block":2,"trial":179,"robot":3,"valence":"lose","action":"go","sham":0,"trial_type":"pit-trial","trial_index":193,"time_elapsed":916053,"internal_node_id":"0.0-182.0","task_version":"battery-v0.1"},{"rune":"K","hex":"#f73b6a7A","correct":-1,"choice":-1,"rt":-1,"accuracy":1,"outcome":"-1","keys":[],"total_keys":0,"block":2,"trial":180,"robot":4,"valence":"lose","action":"no-go","sham":0,"trial_type":"pit-trial","trial_index":194,"time_elapsed":920067,"internal_node_id":"0.0-183.0","task_version":"battery-v0.1"},{"rune":"K","hex":"#f73b6a7A","correct":-1,"choice":-1,"rt":-1,"accuracy":1,"outcome":"-1","keys":[],"total_keys":0,"block":2,"trial":181,"robot":4,"valence":"lose","action":"no-go","sham":0,"trial_type":"pit-trial","trial_index":195,"time_elapsed":924078,"internal_node_id":"0.0-184.0","task_version":"battery-v0.1"},{"rune":"Z","hex":"#3366ff99","correct":32,"choice":32,"rt":460.33999999961816,"accuracy":1,"outcome":"+10","keys":[1960.3350000015926],"total_keys":1,"block":2,"trial":182,"robot":1,"valence":"win","action":"go","sham":0,"trial_type":"pit-trial","trial_index":196,"time_elapsed":927251,"internal_node_id":"0.0-185.0","task_version":"battery-v0.1"},{"rune":"T","hex":"#3366ff99","correct":-1,"choice":32,"rt":515.8449999998556,"accuracy":0,"outcome":"+1","keys":[2015.9349999994738],"total_keys":1,"block":2,"trial":183,"robot":2,"valence":"win","action":"no-go","sham":0,"trial_type":"pit-trial","trial_index":197,"time_elapsed":930480,"internal_node_id":"0.0-186.0","task_version":"battery-v0.1"},{"rune":"E","hex":"#f73b6a7A","correct":32,"choice":-1,"rt":-1,"accuracy":0,"outcome":"-10","keys":[],"total_keys":0,"block":2,"trial":184,"robot":3,"valence":"lose","action":"go","sham":0,"trial_type":"pit-trial","trial_index":198,"time_elapsed":934489,"internal_node_id":"0.0-187.0","task_version":"battery-v0.1"},{"rune":"T","hex":"#3366ff99","correct":-1,"choice":32,"rt":456.8300000008894,"accuracy":0,"outcome":"+10","keys":[1956.2949999999255],"total_keys":1,"block":2,"trial":185,"robot":2,"valence":"win","action":"no-go","sham":1,"trial_type":"pit-trial","trial_index":199,"time_elapsed":937654,"internal_node_id":"0.0-188.0","task_version":"battery-v0.1"},{"rune":"E","hex":"#f73b6a7A","correct":32,"choice":32,"rt":372.40500000002794,"accuracy":1,"outcome":"-1","keys":[1872.5500000000466],"total_keys":1,"block":2,"trial":186,"robot":3,"valence":"lose","action":"go","sham":0,"trial_type":"pit-trial","trial_index":200,"time_elapsed":940739,"internal_node_id":"0.0-189.0","task_version":"battery-v0.1"},{"rune":"K","hex":"#f73b6a7A","correct":-1,"choice":-1,"rt":-1,"accuracy":1,"outcome":"-1","keys":[],"total_keys":0,"block":2,"trial":187,"robot":4,"valence":"lose","action":"no-go","sham":0,"trial_type":"pit-trial","trial_index":201,"time_elapsed":944751,"internal_node_id":"0.0-190.0","task_version":"battery-v0.1"},{"rune":"Z","hex":"#3366ff99","correct":32,"choice":32,"rt":437.9850000004517,"accuracy":1,"outcome":"+1","keys":[1938.0999999993946],"total_keys":1,"block":2,"trial":188,"robot":1,"valence":"win","action":"go","sham":1,"trial_type":"pit-trial","trial_index":202,"time_elapsed":947906,"internal_node_id":"0.0-191.0","task_version":"battery-v0.1"},{"rune":"E","hex":"#f73b6a7A","correct":32,"choice":32,"rt":540.7349999987055,"accuracy":1,"outcome":"-1","keys":[2040.8100000004051],"total_keys":1,"block":2,"trial":189,"robot":3,"valence":"lose","action":"go","sham":0,"trial_type":"pit-trial","trial_index":203,"time_elapsed":951158,"internal_node_id":"0.0-192.0","task_version":"battery-v0.1"},{"rune":"K","hex":"#f73b6a7A","correct":-1,"choice":-1,"rt":-1,"accuracy":1,"outcome":"-1","keys":[],"total_keys":0,"block":2,"trial":190,"robot":4,"valence":"lose","action":"no-go","sham":0,"trial_type":"pit-trial","trial_index":204,"time_elapsed":955172,"internal_node_id":"0.0-193.0","task_version":"battery-v0.1"},{"rune":"T","hex":"#3366ff99","correct":-1,"choice":32,"rt":500.7749999986263,"accuracy":0,"outcome":"+1","keys":[2000.814999999362],"total_keys":1,"block":2,"trial":191,"robot":2,"valence":"win","action":"no-go","sham":0,"trial_type":"pit-trial","trial_index":205,"time_elapsed":958386,"internal_node_id":"0.0-194.0","task_version":"battery-v0.1"},{"rune":"Z","hex":"#3366ff99","correct":32,"choice":32,"rt":431.44000000029337,"accuracy":1,"outcome":"+1","keys":[1931.5750000005355],"total_keys":1,"block":2,"trial":192,"robot":1,"valence":"win","action":"go","sham":1,"trial_type":"pit-trial","trial_index":206,"time_elapsed":961531,"internal_node_id":"0.0-195.0","task_version":"battery-v0.1"},{"rune":"K","hex":"#f73b6a7A","correct":-1,"choice":-1,"rt":-1,"accuracy":1,"outcome":"-1","keys":[],"total_keys":0,"block":2,"trial":193,"robot":4,"valence":"lose","action":"no-go","sham":0,"trial_type":"pit-trial","trial_index":207,"time_elapsed":965541,"internal_node_id":"0.0-196.0","task_version":"battery-v0.1"},{"rune":"T","hex":"#3366ff99","correct":-1,"choice":32,"rt":474.9449999999488,"accuracy":0,"outcome":"+1","keys":[1974.9750000010245],"total_keys":1,"block":2,"trial":194,"robot":2,"valence":"win","action":"no-go","sham":0,"trial_type":"pit-trial","trial_index":208,"time_elapsed":968728,"internal_node_id":"0.0-197.0","task_version":"battery-v0.1"},{"rune":"Z","hex":"#3366ff99","correct":32,"choice":32,"rt":473.2149999999674,"accuracy":1,"outcome":"+10","keys":[1974.3300000008894],"total_keys":1,"block":2,"trial":195,"robot":1,"valence":"win","action":"go","sham":0,"trial_type":"pit-trial","trial_index":209,"time_elapsed":971919,"internal_node_id":"0.0-198.0","task_version":"battery-v0.1"},{"rune":"P","hex":"#f73b6a7A","correct":32,"choice":-1,"rt":-1,"accuracy":0,"outcome":"-10","keys":[],"total_keys":0,"block":2,"trial":196,"robot":3,"valence":"lose","action":"go","sham":0,"trial_type":"pit-trial","trial_index":210,"time_elapsed":975930,"internal_node_id":"0.0-199.0","task_version":"battery-v0.1"},{"rune":"K","hex":"#f73b6a7A","correct":-1,"choice":-1,"rt":-1,"accuracy":1,"outcome":"-1","keys":[],"total_keys":0,"block":2,"trial":197,"robot":4,"valence":"lose","action":"no-go","sham":0,"trial_type":"pit-trial","trial_index":211,"time_elapsed":979944,"internal_node_id":"0.0-200.0","task_version":"battery-v0.1"},{"rune":"T","hex":"#3366ff99","correct":-1,"choice":32,"rt":465.40999999886844,"accuracy":0,"outcome":"+1","keys":[1965.7900000001537],"total_keys":1,"block":2,"trial":198,"robot":2,"valence":"win","action":"no-go","sham":0,"trial_type":"pit-trial","trial_index":212,"time_elapsed":983122,"internal_node_id":"0.0-201.0","task_version":"battery-v0.1"},{"rune":"P","hex":"#f73b6a7A","correct":32,"choice":32,"rt":541.3600000010338,"accuracy":1,"outcome":"-1","keys":[2041.4000000000233],"total_keys":1,"block":2,"trial":199,"robot":3,"valence":"lose","action":"go","sham":0,"trial_type":"pit-trial","trial_index":213,"time_elapsed":986376,"internal_node_id":"0.0-202.0","task_version":"battery-v0.1"},{"rune":"Z","hex":"#3366ff99","correct":32,"choice":32,"rt":486.3450000011362,"accuracy":1,"outcome":"+10","keys":[1986.3499999992782],"total_keys":1,"block":2,"trial":200,"robot":1,"valence":"win","action":"go","sham":0,"trial_type":"pit-trial","trial_index":214,"time_elapsed":989574,"internal_node_id":"0.0-203.0","task_version":"battery-v0.1"},{"rune":"K","hex":"#f73b6a7A","correct":-1,"choice":32,"rt":516.2650000001304,"accuracy":0,"outcome":"-10","keys":[2016.394999998738],"total_keys":1,"block":2,"trial":201,"robot":4,"valence":"lose","action":"no-go","sham":0,"trial_type":"pit-trial","trial_index":215,"time_elapsed":992798,"internal_node_id":"0.0-204.0","task_version":"battery-v0.1"},{"rune":"P","hex":"#f73b6a7A","correct":32,"choice":32,"rt":536.1300000004703,"accuracy":1,"outcome":"-1","keys":[2037.8049999999348],"total_keys":1,"block":2,"trial":202,"robot":3,"valence":"lose","action":"go","sham":0,"trial_type":"pit-trial","trial_index":216,"time_elapsed":996047,"internal_node_id":"0.0-205.0","task_version":"battery-v0.1"},{"rune":"T","hex":"#3366ff99","correct":-1,"choice":32,"rt":556.7799999989802,"accuracy":0,"outcome":"+10","keys":[2057.0050000005867],"total_keys":1,"block":2,"trial":203,"robot":2,"valence":"win","action":"no-go","sham":1,"trial_type":"pit-trial","trial_index":217,"time_elapsed":999318,"internal_node_id":"0.0-206.0","task_version":"battery-v0.1"},{"rune":"V","hex":"#f73b6a7A","correct":32,"choice":32,"rt":1079.2499999988358,"accuracy":1,"outcome":"-1","keys":[2579.444999999483],"total_keys":1,"block":2,"trial":204,"robot":3,"valence":"lose","action":"go","sham":0,"trial_type":"pit-trial","trial_index":218,"time_elapsed":1003108,"internal_node_id":"0.0-207.0","task_version":"battery-v0.1"},{"rune":"P","hex":"#f73b6a7A","correct":32,"choice":32,"rt":607.2799999983981,"accuracy":1,"outcome":"-1","keys":[2107.3450000003213],"total_keys":1,"block":2,"trial":205,"robot":3,"valence":"lose","action":"go","sham":0,"trial_type":"pit-trial","trial_index":219,"time_elapsed":1006428,"internal_node_id":"0.0-208.0","task_version":"battery-v0.1"},{"rune":"T","hex":"#3366ff99","correct":-1,"choice":32,"rt":512.7149999989197,"accuracy":0,"outcome":"+1","keys":[2013.0049999988405],"total_keys":1,"block":2,"trial":206,"robot":2,"valence":"win","action":"no-go","sham":0,"trial_type":"pit-trial","trial_index":220,"time_elapsed":1009655,"internal_node_id":"0.0-209.0","task_version":"battery-v0.1"},{"rune":"V","hex":"#f73b6a7A","correct":32,"choice":32,"rt":466.4100000009639,"accuracy":1,"outcome":"-1","keys":[1966.5700000004144],"total_keys":1,"block":2,"trial":207,"robot":3,"valence":"lose","action":"go","sham":0,"trial_type":"pit-trial","trial_index":221,"time_elapsed":1012836,"internal_node_id":"0.0-210.0","task_version":"battery-v0.1"},{"rune":"K","hex":"#f73b6a7A","correct":-1,"choice":-1,"rt":-1,"accuracy":1,"outcome":"-1","keys":[],"total_keys":0,"block":2,"trial":208,"robot":4,"valence":"lose","action":"no-go","sham":0,"trial_type":"pit-trial","trial_index":222,"time_elapsed":1016849,"internal_node_id":"0.0-211.0","task_version":"battery-v0.1"},{"rune":"F","hex":"#3366ff99","correct":-1,"choice":-1,"rt":-1,"accuracy":1,"outcome":"+10","keys":[],"total_keys":0,"block":2,"trial":209,"robot":2,"valence":"win","action":"no-go","sham":0,"trial_type":"pit-trial","trial_index":223,"time_elapsed":1020865,"internal_node_id":"0.0-212.0","task_version":"battery-v0.1"},{"rune":"P","hex":"#f73b6a7A","correct":32,"choice":32,"rt":677.3899999989662,"accuracy":1,"outcome":"-1","keys":[2177.440000001341],"total_keys":1,"block":2,"trial":210,"robot":3,"valence":"lose","action":"go","sham":0,"trial_type":"pit-trial","trial_index":224,"time_elapsed":1024252,"internal_node_id":"0.0-213.0","task_version":"battery-v0.1"},{"rune":"V","hex":"#f73b6a7A","correct":32,"choice":32,"rt":465.0099999998929,"accuracy":1,"outcome":"-1","keys":[1965.079999999958],"total_keys":1,"block":2,"trial":211,"robot":3,"valence":"lose","action":"go","sham":0,"trial_type":"pit-trial","trial_index":225,"time_elapsed":1027428,"internal_node_id":"0.0-214.0","task_version":"battery-v0.1"},{"rune":"C","hex":"#f73b6a7A","correct":-1,"choice":-1,"rt":-1,"accuracy":1,"outcome":"-1","keys":[],"total_keys":0,"block":2,"trial":212,"robot":4,"valence":"lose","action":"no-go","sham":0,"trial_type":"pit-trial","trial_index":226,"time_elapsed":1031440,"internal_node_id":"0.0-215.0","task_version":"battery-v0.1"},{"rune":"F","hex":"#3366ff99","correct":-1,"choice":-1,"rt":-1,"accuracy":1,"outcome":"+10","keys":[],"total_keys":0,"block":2,"trial":213,"robot":2,"valence":"win","action":"no-go","sham":0,"trial_type":"pit-trial","trial_index":227,"time_elapsed":1035453,"internal_node_id":"0.0-216.0","task_version":"battery-v0.1"},{"rune":"C","hex":"#f73b6a7A","correct":-1,"choice":-1,"rt":-1,"accuracy":1,"outcome":"-1","keys":[2982.210000000079],"total_keys":1,"block":2,"trial":214,"robot":4,"valence":"lose","action":"no-go","sham":0,"trial_type":"pit-trial","trial_index":228,"time_elapsed":1039463,"internal_node_id":"0.0-217.0","task_version":"battery-v0.1"},{"rune":"P","hex":"#f73b6a7A","correct":32,"choice":32,"rt":723.3150000011083,"accuracy":1,"outcome":"-1","keys":[2222.850000000093],"total_keys":1,"block":2,"trial":215,"robot":3,"valence":"lose","action":"go","sham":0,"trial_type":"pit-trial","trial_index":229,"time_elapsed":1042898,"internal_node_id":"0.0-218.0","task_version":"battery-v0.1"},{"rune":"V","hex":"#f73b6a7A","correct":32,"choice":-1,"rt":-1,"accuracy":0,"outcome":"-10","keys":[],"total_keys":0,"block":2,"trial":216,"robot":3,"valence":"lose","action":"go","sham":0,"trial_type":"pit-trial","trial_index":230,"time_elapsed":1046907,"internal_node_id":"0.0-219.0","task_version":"battery-v0.1"},{"rune":"V","hex":"#f73b6a7A","correct":32,"choice":32,"rt":647.1750000000466,"accuracy":1,"outcome":"-10","keys":[2146.7350000003353],"total_keys":1,"block":2,"trial":217,"robot":3,"valence":"lose","action":"go","sham":1,"trial_type":"pit-trial","trial_index":231,"time_elapsed":1050266,"internal_node_id":"0.0-220.0","task_version":"battery-v0.1"},{"rune":"F","hex":"#3366ff99","correct":-1,"choice":-1,"rt":-1,"accuracy":1,"outcome":"+10","keys":[],"total_keys":0,"block":2,"trial":218,"robot":2,"valence":"win","action":"no-go","sham":0,"trial_type":"pit-trial","trial_index":232,"time_elapsed":1054278,"internal_node_id":"0.0-221.0","task_version":"battery-v0.1"},{"rune":"C","hex":"#f73b6a7A","correct":-1,"choice":-1,"rt":-1,"accuracy":1,"outcome":"-1","keys":[],"total_keys":0,"block":2,"trial":219,"robot":4,"valence":"lose","action":"no-go","sham":0,"trial_type":"pit-trial","trial_index":233,"time_elapsed":1058288,"internal_node_id":"0.0-222.0","task_version":"battery-v0.1"},{"rune":"P","hex":"#f73b6a7A","correct":32,"choice":-1,"rt":-1,"accuracy":0,"outcome":"-10","keys":[],"total_keys":0,"block":2,"trial":220,"robot":3,"valence":"lose","action":"go","sham":0,"trial_type":"pit-trial","trial_index":234,"time_elapsed":1062299,"internal_node_id":"0.0-223.0","task_version":"battery-v0.1"},{"rune":"F","hex":"#3366ff99","correct":-1,"choice":-1,"rt":-1,"accuracy":1,"outcome":"+1","keys":[],"total_keys":0,"block":2,"trial":221,"robot":2,"valence":"win","action":"no-go","sham":1,"trial_type":"pit-trial","trial_index":235,"time_elapsed":1066312,"internal_node_id":"0.0-224.0","task_version":"battery-v0.1"},{"rune":"C","hex":"#f73b6a7A","correct":-1,"choice":-1,"rt":-1,"accuracy":1,"outcome":"-10","keys":[],"total_keys":0,"block":2,"trial":222,"robot":4,"valence":"lose","action":"no-go","sham":1,"trial_type":"pit-trial","trial_index":236,"time_elapsed":1070323,"internal_node_id":"0.0-225.0","task_version":"battery-v0.1"},{"rune":"P","hex":"#f73b6a7A","correct":32,"choice":32,"rt":637.5599999991246,"accuracy":1,"outcome":"-1","keys":[2137.1949999993667],"total_keys":1,"block":2,"trial":223,"robot":3,"valence":"lose","action":"go","sham":0,"trial_type":"pit-trial","trial_index":237,"time_elapsed":1073671,"internal_node_id":"0.0-226.0","task_version":"battery-v0.1"},{"rune":"V","hex":"#f73b6a7A","correct":32,"choice":-1,"rt":-1,"accuracy":0,"outcome":"-10","keys":[],"total_keys":0,"block":2,"trial":224,"robot":3,"valence":"lose","action":"go","sham":0,"trial_type":"pit-trial","trial_index":238,"time_elapsed":1077684,"internal_node_id":"0.0-227.0","task_version":"battery-v0.1"},{"rune":"V","hex":"#f73b6a7A","correct":32,"choice":32,"rt":436.4949999998789,"accuracy":1,"outcome":"-1","keys":[1936.6050000009127],"total_keys":1,"block":2,"trial":225,"robot":3,"valence":"lose","action":"go","sham":0,"trial_type":"pit-trial","trial_index":239,"time_elapsed":1080833,"internal_node_id":"0.0-228.0","task_version":"battery-v0.1"},{"rune":"F","hex":"#3366ff99","correct":-1,"choice":32,"rt":768.1100000008009,"accuracy":0,"outcome":"+1","keys":[2268.2550000008196],"total_keys":1,"block":2,"trial":226,"robot":2,"valence":"win","action":"no-go","sham":0,"trial_type":"pit-trial","trial_index":240,"time_elapsed":1084315,"internal_node_id":"0.0-229.0","task_version":"battery-v0.1"},{"rune":"P","hex":"#f73b6a7A","correct":32,"choice":-1,"rt":-1,"accuracy":0,"outcome":"-10","keys":[],"total_keys":0,"block":2,"trial":227,"robot":3,"valence":"lose","action":"go","sham":0,"trial_type":"pit-trial","trial_index":241,"time_elapsed":1088328,"internal_node_id":"0.0-230.0","task_version":"battery-v0.1"},{"rune":"C","hex":"#f73b6a7A","correct":-1,"choice":32,"rt":497.55999999982305,"accuracy":0,"outcome":"-10","keys":[1998.3100000007544],"total_keys":1,"block":2,"trial":228,"robot":4,"valence":"lose","action":"no-go","sham":0,"trial_type":"pit-trial","trial_index":242,"time_elapsed":1091538,"internal_node_id":"0.0-231.0","task_version":"battery-v0.1"},{"rune":"V","hex":"#f73b6a7A","correct":32,"choice":32,"rt":339.57499999995343,"accuracy":1,"outcome":"-1","keys":[1842.8949999997858],"total_keys":1,"block":2,"trial":229,"robot":3,"valence":"lose","action":"go","sham":0,"trial_type":"pit-trial","trial_index":243,"time_elapsed":1094593,"internal_node_id":"0.0-232.0","task_version":"battery-v0.1"},{"rune":"P","hex":"#f73b6a7A","correct":32,"choice":32,"rt":511.5999999998603,"accuracy":1,"outcome":"-1","keys":[2011.699999999255],"total_keys":1,"block":2,"trial":230,"robot":3,"valence":"lose","action":"go","sham":0,"trial_type":"pit-trial","trial_index":244,"time_elapsed":1097817,"internal_node_id":"0.0-233.0","task_version":"battery-v0.1"},{"rune":"C","hex":"#f73b6a7A","correct":-1,"choice":32,"rt":435.65499999932945,"accuracy":0,"outcome":"-10","keys":[1935.735000000801],"total_keys":1,"block":2,"trial":231,"robot":4,"valence":"lose","action":"no-go","sham":0,"trial_type":"pit-trial","trial_index":245,"time_elapsed":1100967,"internal_node_id":"0.0-234.0","task_version":"battery-v0.1"},{"rune":"F","hex":"#3366ff99","correct":-1,"choice":-1,"rt":-1,"accuracy":1,"outcome":"+10","keys":[],"total_keys":0,"block":2,"trial":232,"robot":2,"valence":"win","action":"no-go","sham":0,"trial_type":"pit-trial","trial_index":246,"time_elapsed":1104979,"internal_node_id":"0.0-235.0","task_version":"battery-v0.1"},{"rune":"C","hex":"#f73b6a7A","correct":-1,"choice":32,"rt":482.90500000072643,"accuracy":0,"outcome":"-10","keys":[1983.1100000010338],"total_keys":1,"block":2,"trial":233,"robot":4,"valence":"lose","action":"no-go","sham":0,"trial_type":"pit-trial","trial_index":247,"time_elapsed":1108174,"internal_node_id":"0.0-236.0","task_version":"battery-v0.1"},{"rune":"V","hex":"#f73b6a7A","correct":32,"choice":32,"rt":444.01499999919906,"accuracy":1,"outcome":"-1","keys":[1944.170000000624],"total_keys":1,"block":2,"trial":234,"robot":3,"valence":"lose","action":"go","sham":0,"trial_type":"pit-trial","trial_index":248,"time_elapsed":1111332,"internal_node_id":"0.0-237.0","task_version":"battery-v0.1"},{"rune":"F","hex":"#3366ff99","correct":-1,"choice":-1,"rt":-1,"accuracy":1,"outcome":"+10","keys":[],"total_keys":0,"block":2,"trial":235,"robot":2,"valence":"win","action":"no-go","sham":0,"trial_type":"pit-trial","trial_index":249,"time_elapsed":1115344,"internal_node_id":"0.0-238.0","task_version":"battery-v0.1"},{"rune":"P","hex":"#f73b6a7A","correct":32,"choice":32,"rt":879.3249999997206,"accuracy":1,"outcome":"-10","keys":[2379.9550000003073],"total_keys":1,"block":2,"trial":236,"robot":3,"valence":"lose","action":"go","sham":1,"trial_type":"pit-trial","trial_index":250,"time_elapsed":1118934,"internal_node_id":"0.0-239.0","task_version":"battery-v0.1"},{"rune":"F","hex":"#3366ff99","correct":-1,"choice":-1,"rt":-1,"accuracy":1,"outcome":"+10","keys":[],"total_keys":0,"block":2,"trial":237,"robot":2,"valence":"win","action":"no-go","sham":0,"trial_type":"pit-trial","trial_index":251,"time_elapsed":1122949,"internal_node_id":"0.0-240.0","task_version":"battery-v0.1"},{"rune":"P","hex":"#f73b6a7A","correct":32,"choice":-1,"rt":-1,"accuracy":0,"outcome":"-10","keys":[],"total_keys":0,"block":2,"trial":238,"robot":3,"valence":"lose","action":"go","sham":0,"trial_type":"pit-trial","trial_index":252,"time_elapsed":1126960,"internal_node_id":"0.0-241.0","task_version":"battery-v0.1"},{"rune":"V","hex":"#f73b6a7A","correct":32,"choice":32,"rt":610.7250000005588,"accuracy":1,"outcome":"-1","keys":[2110.869999998715],"total_keys":1,"block":2,"trial":239,"robot":3,"valence":"lose","action":"go","sham":0,"trial_type":"pit-trial","trial_index":253,"time_elapsed":1130284,"internal_node_id":"0.0-242.0","task_version":"battery-v0.1"},{"rune":"C","hex":"#f73b6a7A","correct":-1,"choice":32,"rt":454.3149999990128,"accuracy":0,"outcome":"-10","keys":[1956.79000000027],"total_keys":1,"block":2,"trial":240,"robot":4,"valence":"lose","action":"no-go","sham":0,"trial_type":"pit-trial","trial_index":254,"time_elapsed":1133456,"internal_node_id":"0.0-243.0","task_version":"battery-v0.1"},{"view_history":"[{\"page_index\":0,\"viewing_time\":1868.9849999991711}]","rt":1871.0899999989197,"trial_type":"pit-instructions","trial_index":255,"time_elapsed":1135333,"internal_node_id":"0.0-244.0","task_version":"battery-v0.1"},{"rt":7647.56000000122,"responses":{"age":"30","gender-categorical":"Female","gender-free-response":"","ethnicity":"Not Hispanic or Latino","race":["White"],"language":"Yes","fluency":"Very well"},"survey":"demographics","trial_type":"survey-demo","trial_index":256,"time_elapsed":1142997,"internal_node_id":"0.0-245.0","task_version":"battery-v0.1"},{"rt":8995.56000000122,"responses":{"difficulty":"2","fun":"4","clarity":"5","strategy":"no","feedback":""},"survey":"debrief","trial_type":"survey-debrief","trial_index":257,"time_elapsed":1152001,"internal_node_id":"0.0-246.0","task_version":"battery-v0.1","interactions":"[{\"event\":\"blur\",\"trial\":134,\"time\":682565},{\"event\":\"focus\",\"trial\":134,\"time\":698127}]"}]