[{"view_history":"[{\"page_index\":0,\"viewing_time\":1996},{\"page_index\":1,\"viewing_time\":3715},{\"page_index\":2,\"viewing_time\":2068},{\"page_index\":3,\"viewing_time\":3633},{\"page_index\":4,\"viewing_time\":2784},{\"page_index\":5,\"viewing_time\":3299}]","rt":17496,"trial_type":"pit-instructions","trial_index":0,"time_elapsed":17503,"internal_node_id":"0.0-0.0-0.0","task_version":"battery-v0.1"},{"rune":"","hex":"#FFFFF080","correct":32,"choice":32,"rt":958,"accuracy":1,"outcome":"+10","keys":[2474],"total_keys":1,"block":0,"trial_type":"pit-trial","trial_index":1,"time_elapsed":21183,"internal_node_id":"0.0-0.0-1.0-0.0","task_version":"battery-v0.1"},{"rune":"","hex":"#FFFFF080","correct":32,"choice":32,"rt":193,"accuracy":1,"outcome":"+10","keys":[1709],"total_keys":1,"block":0,"trial_type":"pit-trial","trial_index":2,"time_elapsed":24109,"internal_node_id":"0.0-0.0-1.0-0.1","task_version":"battery-v0.1"},{"rune":"","hex":"#FFFFF080","correct":32,"choice":32,"rt":414,"accuracy":1,"outcome":"+10","keys":[1356,1923],"total_keys":2,"block":0,"trial_type":"pit-trial","trial_index":3,"time_elapsed":27242,"internal_node_id":"0.0-0.0-1.0-0.2","task_version":"battery-v0.1"},{"rune":"","hex":"#FFFFF080","correct":32,"choice":32,"rt":122,"accuracy":1,"outcome":"+10","keys":[1627],"total_keys":1,"block":0,"trial_type":"pit-trial","trial_index":4,"time_elapsed":30081,"internal_node_id":"0.0-0.0-1.0-0.3","task_version":"battery-v0.1"},{"view_history":"[{\"page_index\":0,\"viewing_time\":7729}]","rt":7730,"trial_type":"pit-instructions","trial_index":5,"time_elapsed":37811,"internal_node_id":"0.0-0.0-2.0","task_version":"battery-v0.1"},{"rune":"","hex":"#FFFFF080","correct":-1,"choice":-1,"rt":-1,"accuracy":1,"outcome":"+10","keys":[],"total_keys":0,"block":0,"trial_type":"pit-trial","trial_index":6,"time_elapsed":41828,"internal_node_id":"0.0-0.0-3.0-0.0","task_version":"battery-v0.1"},{"rune":"","hex":"#FFFFF080","correct":-1,"choice":-1,"rt":-1,"accuracy":1,"outcome":"+10","keys":[],"total_keys":0,"block":0,"trial_type":"pit-trial","trial_index":7,"time_elapsed":45841,"internal_node_id":"0.0-0.0-3.0-0.1","task_version":"battery-v0.1"},{"rune":"","hex":"#FFFFF080","correct":-1,"choice":-1,"rt":-1,"accuracy":1,"outcome":"+10","keys":[],"total_keys":0,"block":0,"trial_type":"pit-trial","trial_index":8,"time_elapsed":49862,"internal_node_id":"0.0-0.0-3.0-0.2","task_version":"battery-v0.1"},{"rune":"","hex":"#FFFFF080","correct":-1,"choice":-1,"rt":-1,"accuracy":1,"outcome":"+10","keys":[],"total_keys":0,"block":0,"trial_type":"pit-trial","trial_index":9,"time_elapsed":53880,"internal_node_id":"0.0-0.0-3.0-0.3","task_version":"battery-v0.1"},{"responses":["Press SPACE","Do nothing"],"num_errors":0,"rt":10075,"trial_type":"pit-comprehension","trial_index":10,"time_elapsed":63963,"internal_node_id":"0.0-0.0-4.0","task_version":"battery-v0.1"},{"view_history":"[{\"page_index\":0,\"viewing_time\":3675},{\"page_index\":1,\"viewing_time\":3276},{\"page_index\":2,\"viewing_time\":4536},{\"page_index\":3,\"viewing_time\":4529},{\"page_index\":4,\"viewing_time\":10536},{\"page_index\":5,\"viewing_time\":9466},{\"page_index\":6,\"viewing_time\":7868},{\"page_index\":7,\"viewing_time\":2848},{\"page_index\":8,\"viewing_time\":2334},{\"page_index\":9,\"viewing_time\":1834},{\"page_index\":10,\"viewing_time\":2423}]","rt":53325,"trial_type":"pit-instructions","trial_index":11,"time_elapsed":117297,"internal_node_id":"0.0-1.0-0.0","task_version":"battery-v0.1"},{"responses":["+10","-1","True","True"],"num_errors":0,"rt":29444,"trial_type":"pit-comprehension","trial_index":12,"time_elapsed":146745,"internal_node_id":"0.0-1.0-1.0","task_version":"battery-v0.1"},{"view_history":"[{\"page_index\":0,\"viewing_time\":1356},{\"page_index\":1,\"viewing_time\":3554}]","rt":4910,"trial_type":"pit-instructions","trial_index":13,"time_elapsed":151660,"internal_node_id":"0.0-2.0","task_version":"battery-v0.1"},{"rune":"E","hex":"#3366ff99","correct":-1,"choice":32,"rt":613,"accuracy":0,"outcome":"+10","keys":[2126],"total_keys":1,"block":1,"trial":1,"robot":2,"valence":"win","action":"no-go","sham":1,"trial_type":"pit-trial","trial_index":14,"time_elapsed":154996,"internal_node_id":"0.0-3.0","task_version":"battery-v0.1"},{"rune":"S","hex":"#3366ff99","correct":32,"choice":32,"rt":1165,"accuracy":1,"outcome":"+10","keys":[2676],"total_keys":1,"block":1,"trial":2,"robot":1,"valence":"win","action":"go","sham":0,"trial_type":"pit-trial","trial_index":15,"time_elapsed":158877,"internal_node_id":"0.0-4.0","task_version":"battery-v0.1"},{"rune":"H","hex":"#f73b6a7A","correct":-1,"choice":-1,"rt":-1,"accuracy":1,"outcome":"-1","keys":[2842],"total_keys":1,"block":1,"trial":3,"robot":4,"valence":"lose","action":"no-go","sham":0,"trial_type":"pit-trial","trial_index":16,"time_elapsed":162899,"internal_node_id":"0.0-5.0","task_version":"battery-v0.1"},{"rune":"L","hex":"#3366ff99","correct":32,"choice":-1,"rt":-1,"accuracy":0,"outcome":"+1","keys":[],"total_keys":0,"block":1,"trial":4,"robot":1,"valence":"win","action":"go","sham":0,"trial_type":"pit-trial","trial_index":17,"time_elapsed":166921,"internal_node_id":"0.0-6.0","task_version":"battery-v0.1"},{"rune":"H","hex":"#f73b6a7A","correct":-1,"choice":-1,"rt":-1,"accuracy":1,"outcome":"-1","keys":[],"total_keys":0,"block":1,"trial":5,"robot":4,"valence":"lose","action":"no-go","sham":0,"trial_type":"pit-trial","trial_index":18,"time_elapsed":170937,"internal_node_id":"0.0-7.0","task_version":"battery-v0.1"},{"rune":"S","hex":"#3366ff99","correct":32,"choice":32,"rt":507,"accuracy":1,"outcome":"+1","keys":[2016],"total_keys":1,"block":1,"trial":6,"robot":1,"valence":"win","action":"go","sham":1,"trial_type":"pit-trial","trial_index":19,"time_elapsed":174156,"internal_node_id":"0.0-8.0","task_version":"battery-v0.1"},{"rune":"L","hex":"#3366ff99","correct":32,"choice":32,"rt":817,"accuracy":1,"outcome":"+10","keys":[2331],"total_keys":1,"block":1,"trial":7,"robot":1,"valence":"win","action":"go","sham":0,"trial_type":"pit-trial","trial_index":20,"time_elapsed":177692,"internal_node_id":"0.0-9.0","task_version":"battery-v0.1"},{"rune":"E","hex":"#3366ff99","correct":-1,"choice":32,"rt":705,"accuracy":0,"outcome":"+10","keys":[2217],"total_keys":1,"block":1,"trial":8,"robot":2,"valence":"win","action":"no-go","sham":1,"trial_type":"pit-trial","trial_index":21,"time_elapsed":181123,"internal_node_id":"0.0-10.0","task_version":"battery-v0.1"},{"rune":"E","hex":"#3366ff99","correct":-1,"choice":32,"rt":400,"accuracy":0,"outcome":"+1","keys":[1908],"total_keys":1,"block":1,"trial":9,"robot":2,"valence":"win","action":"no-go","sham":0,"trial_type":"pit-trial","trial_index":22,"time_elapsed":184247,"internal_node_id":"0.0-11.0","task_version":"battery-v0.1"},{"rune":"L","hex":"#3366ff99","correct":32,"choice":32,"rt":607,"accuracy":1,"outcome":"+10","keys":[2119],"total_keys":1,"block":1,"trial":10,"robot":1,"valence":"win","action":"go","sham":0,"trial_type":"pit-trial","trial_index":23,"time_elapsed":187573,"internal_node_id":"0.0-12.0","task_version":"battery-v0.1"},{"rune":"S","hex":"#3366ff99","correct":32,"choice":32,"rt":941,"accuracy":1,"outcome":"+10","keys":[2448],"total_keys":1,"block":1,"trial":11,"robot":1,"valence":"win","action":"go","sham":0,"trial_type":"pit-trial","trial_index":24,"time_elapsed":191225,"internal_node_id":"0.0-13.0","task_version":"battery-v0.1"},{"rune":"H","hex":"#f73b6a7A","correct":-1,"choice":32,"rt":871,"accuracy":0,"outcome":"-10","keys":[2375],"total_keys":1,"block":1,"trial":12,"robot":4,"valence":"lose","action":"no-go","sham":0,"trial_type":"pit-trial","trial_index":25,"time_elapsed":194816,"internal_node_id":"0.0-14.0","task_version":"battery-v0.1"},{"rune":"S","hex":"#3366ff99","correct":32,"choice":32,"rt":455,"accuracy":1,"outcome":"+1","keys":[1954],"total_keys":1,"block":1,"trial":13,"robot":1,"valence":"win","action":"go","sham":1,"trial_type":"pit-trial","trial_index":26,"time_elapsed":197978,"internal_node_id":"0.0-15.0","task_version":"battery-v0.1"},{"rune":"H","hex":"#f73b6a7A","correct":-1,"choice":-1,"rt":-1,"accuracy":1,"outcome":"-1","keys":[],"total_keys":0,"block":1,"trial":14,"robot":4,"valence":"lose","action":"no-go","sham":0,"trial_type":"pit-trial","trial_index":27,"time_elapsed":201998,"internal_node_id":"0.0-16.0","task_version":"battery-v0.1"},{"rune":"E","hex":"#3366ff99","correct":-1,"choice":32,"rt":669,"accuracy":0,"outcome":"+1","keys":[2181],"total_keys":1,"block":1,"trial":15,"robot":2,"valence":"win","action":"no-go","sham":0,"trial_type":"pit-trial","trial_index":28,"time_elapsed":205394,"internal_node_id":"0.0-17.0","task_version":"battery-v0.1"},{"rune":"L","hex":"#3366ff99","correct":32,"choice":32,"rt":978,"accuracy":1,"outcome":"+10","keys":[2483],"total_keys":1,"block":1,"trial":16,"robot":1,"valence":"win","action":"go","sham":0,"trial_type":"pit-trial","trial_index":29,"time_elapsed":209084,"internal_node_id":"0.0-18.0","task_version":"battery-v0.1"},{"rune":"L","hex":"#3366ff99","correct":32,"choice":32,"rt":704,"accuracy":1,"outcome":"+10","keys":[2215],"total_keys":1,"block":1,"trial":17,"robot":1,"valence":"win","action":"go","sham":0,"trial_type":"pit-trial","trial_index":30,"time_elapsed":212515,"internal_node_id":"0.0-19.0","task_version":"battery-v0.1"},{"rune":"H","hex":"#f73b6a7A","correct":-1,"choice":-1,"rt":-1,"accuracy":1,"outcome":"-10","keys":[],"total_keys":0,"block":1,"trial":18,"robot":4,"valence":"lose","action":"no-go","sham":1,"trial_type":"pit-trial","trial_index":31,"time_elapsed":216533,"internal_node_id":"0.0-20.0","task_version":"battery-v0.1"},{"rune":"S","hex":"#3366ff99","correct":32,"choice":32,"rt":898,"accuracy":1,"outcome":"+10","keys":[2406],"total_keys":1,"block":1,"trial":19,"robot":1,"valence":"win","action":"go","sham":0,"trial_type":"pit-trial","trial_index":32,"time_elapsed":220154,"internal_node_id":"0.0-21.0","task_version":"battery-v0.1"},{"rune":"E","hex":"#3366ff99","correct":-1,"choice":32,"rt":861,"accuracy":0,"outcome":"+1","keys":[2364],"total_keys":1,"block":1,"trial":20,"robot":2,"valence":"win","action":"no-go","sham":0,"trial_type":"pit-trial","trial_index":33,"time_elapsed":223732,"internal_node_id":"0.0-22.0","task_version":"battery-v0.1"},{"rune":"S","hex":"#3366ff99","correct":32,"choice":32,"rt":754,"accuracy":1,"outcome":"+10","keys":[2257],"total_keys":1,"block":1,"trial":21,"robot":1,"valence":"win","action":"go","sham":0,"trial_type":"pit-trial","trial_index":34,"time_elapsed":227204,"internal_node_id":"0.0-23.0","task_version":"battery-v0.1"},{"rune":"H","hex":"#f73b6a7A","correct":-1,"choice":-1,"rt":-1,"accuracy":1,"outcome":"-1","keys":[],"total_keys":0,"block":1,"trial":22,"robot":4,"valence":"lose","action":"no-go","sham":0,"trial_type":"pit-trial","trial_index":35,"time_elapsed":231215,"internal_node_id":"0.0-24.0","task_version":"battery-v0.1"},{"rune":"E","hex":"#3366ff99","correct":-1,"choice":32,"rt":687,"accuracy":0,"outcome":"+10","keys":[2200],"total_keys":1,"block":1,"trial":23,"robot":2,"valence":"win","action":"no-go","sham":1,"trial_type":"pit-trial","trial_index":36,"time_elapsed":234625,"internal_node_id":"0.0-25.0","task_version":"battery-v0.1"},{"rune":"L","hex":"#3366ff99","correct":32,"choice":-1,"rt":-1,"accuracy":0,"outcome":"+1","keys":[],"total_keys":0,"block":1,"trial":24,"robot":1,"valence":"win","action":"go","sham":0,"trial_type":"pit-trial","trial_index":37,"time_elapsed":238650,"internal_node_id":"0.0-26.0","task_version":"battery-v0.1"},{"rune":"H","hex":"#f73b6a7A","correct":-1,"choice":-1,"rt":-1,"accuracy":1,"outcome":"-1","keys":[],"total_keys":0,"block":1,"trial":25,"robot":4,"valence":"lose","action":"no-go","sham":0,"trial_type":"pit-trial","trial_index":38,"time_elapsed":242674,"internal_node_id":"0.0-27.0","task_version":"battery-v0.1"},{"rune":"E","hex":"#3366ff99","correct":-1,"choice":32,"rt":773,"accuracy":0,"outcome":"+1","keys":[2278],"total_keys":1,"block":1,"trial":26,"robot":2,"valence":"win","action":"no-go","sham":0,"trial_type":"pit-trial","trial_index":39,"time_elapsed":246160,"internal_node_id":"0.0-28.0","task_version":"battery-v0.1"},{"rune":"S","hex":"#3366ff99","correct":32,"choice":32,"rt":851,"accuracy":1,"outcome":"+10","keys":[2363],"total_keys":1,"block":1,"trial":27,"robot":1,"valence":"win","action":"go","sham":0,"trial_type":"pit-trial","trial_index":40,"time_elapsed":249735,"internal_node_id":"0.0-29.0","task_version":"battery-v0.1"},{"rune":"L","hex":"#3366ff99","correct":32,"choice":-1,"rt":-1,"accuracy":0,"outcome":"+1","keys":[],"total_keys":0,"block":1,"trial":28,"robot":1,"valence":"win","action":"go","sham":0,"trial_type":"pit-trial","trial_index":41,"time_elapsed":253766,"internal_node_id":"0.0-30.0","task_version":"battery-v0.1"},{"rune":"L","hex":"#3366ff99","correct":32,"choice":32,"rt":660,"accuracy":1,"outcome":"+10","keys":[2174],"total_keys":1,"block":1,"trial":29,"robot":1,"valence":"win","action":"go","sham":0,"trial_type":"pit-trial","trial_index":42,"time_elapsed":257141,"internal_node_id":"0.0-31.0","task_version":"battery-v0.1"},{"rune":"E","hex":"#3366ff99","correct":-1,"choice":32,"rt":821,"accuracy":0,"outcome":"+1","keys":[2326],"total_keys":1,"block":1,"trial":30,"robot":2,"valence":"win","action":"no-go","sham":0,"trial_type":"pit-trial","trial_index":43,"time_elapsed":260684,"internal_node_id":"0.0-32.0","task_version":"battery-v0.1"},{"rune":"H","hex":"#f73b6a7A","correct":-1,"choice":-1,"rt":-1,"accuracy":1,"outcome":"-1","keys":[],"total_keys":0,"block":1,"trial":31,"robot":4,"valence":"lose","action":"no-go","sham":0,"trial_type":"pit-trial","trial_index":44,"time_elapsed":264704,"internal_node_id":"0.0-33.0","task_version":"battery-v0.1"},{"rune":"S","hex":"#3366ff99","correct":32,"choice":32,"rt":757,"accuracy":1,"outcome":"+10","keys":[2260],"total_keys":1,"block":1,"trial":32,"robot":1,"valence":"win","action":"go","sham":0,"trial_type":"pit-trial","trial_index":45,"time_elapsed":268182,"internal_node_id":"0.0-34.0","task_version":"battery-v0.1"},{"rune":"L","hex":"#3366ff99","correct":32,"choice":32,"rt":449,"accuracy":1,"outcome":"+1","keys":[1955],"total_keys":1,"block":1,"trial":33,"robot":1,"valence":"win","action":"go","sham":1,"trial_type":"pit-trial","trial_index":46,"time_elapsed":271354,"internal_node_id":"0.0-35.0","task_version":"battery-v0.1"},{"rune":"W","hex":"#3366ff99","correct":32,"choice":32,"rt":768,"accuracy":1,"outcome":"+10","keys":[2268],"total_keys":1,"block":1,"trial":34,"robot":1,"valence":"win","action":"go","sham":0,"trial_type":"pit-trial","trial_index":47,"time_elapsed":274838,"internal_node_id":"0.0-36.0","task_version":"battery-v0.1"},{"rune":"H","hex":"#f73b6a7A","correct":-1,"choice":-1,"rt":-1,"accuracy":1,"outcome":"-1","keys":[],"total_keys":0,"block":1,"trial":35,"robot":4,"valence":"lose","action":"no-go","sham":0,"trial_type":"pit-trial","trial_index":48,"time_elapsed":278854,"internal_node_id":"0.0-37.0","task_version":"battery-v0.1"},{"rune":"E","hex":"#3366ff99","correct":-1,"choice":32,"rt":780,"accuracy":0,"outcome":"+1","keys":[2295],"total_keys":1,"block":1,"trial":36,"robot":2,"valence":"win","action":"no-go","sham":0,"trial_type":"pit-trial","trial_index":49,"time_elapsed":282357,"internal_node_id":"0.0-38.0","task_version":"battery-v0.1"},{"rune":"W","hex":"#3366ff99","correct":32,"choice":32,"rt":686,"accuracy":1,"outcome":"+10","keys":[2192],"total_keys":1,"block":1,"trial":37,"robot":1,"valence":"win","action":"go","sham":0,"trial_type":"pit-trial","trial_index":50,"time_elapsed":285761,"internal_node_id":"0.0-39.0","task_version":"battery-v0.1"},{"rune":"E","hex":"#3366ff99","correct":-1,"choice":-1,"rt":-1,"accuracy":1,"outcome":"+10","keys":[],"total_keys":0,"block":1,"trial":38,"robot":2,"valence":"win","action":"no-go","sham":0,"trial_type":"pit-trial","trial_index":51,"time_elapsed":289771,"internal_node_id":"0.0-40.0","task_version":"battery-v0.1"},{"rune":"L","hex":"#3366ff99","correct":32,"choice":32,"rt":971,"accuracy":1,"outcome":"+1","keys":[2474],"total_keys":1,"block":1,"trial":39,"robot":1,"valence":"win","action":"go","sham":1,"trial_type":"pit-trial","trial_index":52,"time_elapsed":293455,"internal_node_id":"0.0-41.0","task_version":"battery-v0.1"},{"rune":"H","hex":"#f73b6a7A","correct":-1,"choice":-1,"rt":-1,"accuracy":1,"outcome":"-10","keys":[],"total_keys":0,"block":1,"trial":40,"robot":4,"valence":"lose","action":"no-go","sham":1,"trial_type":"pit-trial","trial_index":53,"time_elapsed":297471,"internal_node_id":"0.0-42.0","task_version":"battery-v0.1"},{"rune":"W","hex":"#3366ff99","correct":32,"choice":32,"rt":547,"accuracy":1,"outcome":"+1","keys":[2055],"total_keys":1,"block":1,"trial":41,"robot":1,"valence":"win","action":"go","sham":1,"trial_type":"pit-trial","trial_index":54,"time_elapsed":300738,"internal_node_id":"0.0-43.0","task_version":"battery-v0.1"},{"rune":"T","hex":"#f73b6a7A","correct":-1,"choice":-1,"rt":-1,"accuracy":1,"outcome":"-1","keys":[],"total_keys":0,"block":1,"trial":42,"robot":4,"valence":"lose","action":"no-go","sham":0,"trial_type":"pit-trial","trial_index":55,"time_elapsed":304759,"internal_node_id":"0.0-44.0","task_version":"battery-v0.1"},{"rune":"K","hex":"#f73b6a7A","correct":32,"choice":-1,"rt":-1,"accuracy":0,"outcome":"-10","keys":[],"total_keys":0,"block":1,"trial":43,"robot":3,"valence":"lose","action":"go","sham":0,"trial_type":"pit-trial","trial_index":56,"time_elapsed":308781,"internal_node_id":"0.0-45.0","task_version":"battery-v0.1"},{"rune":"E","hex":"#3366ff99","correct":-1,"choice":32,"rt":653,"accuracy":0,"outcome":"+1","keys":[2159],"total_keys":1,"block":1,"trial":44,"robot":2,"valence":"win","action":"no-go","sham":0,"trial_type":"pit-trial","trial_index":57,"time_elapsed":312143,"internal_node_id":"0.0-46.0","task_version":"battery-v0.1"},{"rune":"T","hex":"#f73b6a7A","correct":-1,"choice":32,"rt":517,"accuracy":0,"outcome":"-10","keys":[2025],"total_keys":1,"block":1,"trial":45,"robot":4,"valence":"lose","action":"no-go","sham":0,"trial_type":"pit-trial","trial_index":58,"time_elapsed":315384,"internal_node_id":"0.0-47.0","task_version":"battery-v0.1"},{"rune":"E","hex":"#3366ff99","correct":-1,"choice":32,"rt":422,"accuracy":0,"outcome":"+1","keys":[1932],"total_keys":1,"block":1,"trial":46,"robot":2,"valence":"win","action":"no-go","sham":0,"trial_type":"pit-trial","trial_index":59,"time_elapsed":318525,"internal_node_id":"0.0-48.0","task_version":"battery-v0.1"},{"rune":"W","hex":"#3366ff99","correct":32,"choice":32,"rt":845,"accuracy":1,"outcome":"+10","keys":[2359],"total_keys":1,"block":1,"trial":47,"robot":1,"valence":"win","action":"go","sham":0,"trial_type":"pit-trial","trial_index":60,"time_elapsed":322087,"internal_node_id":"0.0-49.0","task_version":"battery-v0.1"},{"rune":"K","hex":"#f73b6a7A","correct":32,"choice":-1,"rt":-1,"accuracy":0,"outcome":"-1","keys":[],"total_keys":0,"block":1,"trial":48,"robot":3,"valence":"lose","action":"go","sham":1,"trial_type":"pit-trial","trial_index":61,"time_elapsed":326096,"internal_node_id":"0.0-50.0","task_version":"battery-v0.1"},{"rune":"K","hex":"#f73b6a7A","correct":32,"choice":-1,"rt":-1,"accuracy":0,"outcome":"-10","keys":[],"total_keys":0,"block":1,"trial":49,"robot":3,"valence":"lose","action":"go","sham":0,"trial_type":"pit-trial","trial_index":62,"time_elapsed":330104,"internal_node_id":"0.0-51.0","task_version":"battery-v0.1"},{"rune":"V","hex":"#3366ff99","correct":-1,"choice":32,"rt":816,"accuracy":0,"outcome":"+1","keys":[2321],"total_keys":1,"block":1,"trial":50,"robot":2,"valence":"win","action":"no-go","sham":0,"trial_type":"pit-trial","trial_index":63,"time_elapsed":333638,"internal_node_id":"0.0-52.0","task_version":"battery-v0.1"},{"rune":"W","hex":"#3366ff99","correct":32,"choice":-1,"rt":-1,"accuracy":0,"outcome":"+1","keys":[],"total_keys":0,"block":1,"trial":51,"robot":1,"valence":"win","action":"go","sham":0,"trial_type":"pit-trial","trial_index":64,"time_elapsed":337664,"internal_node_id":"0.0-53.0","task_version":"battery-v0.1"},{"rune":"T","hex":"#f73b6a7A","correct":-1,"choice":-1,"rt":-1,"accuracy":1,"outcome":"-10","keys":[],"total_keys":0,"block":1,"trial":52,"robot":4,"valence":"lose","action":"no-go","sham":1,"trial_type":"pit-trial","trial_index":65,"time_elapsed":341692,"internal_node_id":"0.0-54.0","task_version":"battery-v0.1"},{"rune":"T","hex":"#f73b6a7A","correct":-1,"choice":32,"rt":655,"accuracy":0,"outcome":"-10","keys":[2165],"total_keys":1,"block":1,"trial":53,"robot":4,"valence":"lose","action":"no-go","sham":0,"trial_type":"pit-trial","trial_index":66,"time_elapsed":345065,"internal_node_id":"0.0-55.0","task_version":"battery-v0.1"},{"rune":"K","hex":"#f73b6a7A","correct":32,"choice":32,"rt":1027,"accuracy":1,"outcome":"-10","keys":[2535],"total_keys":1,"block":1,"trial":54,"robot":3,"valence":"lose","action":"go","sham":1,"trial_type":"pit-trial","trial_index":67,"time_elapsed":348806,"internal_node_id":"0.0-56.0","task_version":"battery-v0.1"},{"rune":"V","hex":"#3366ff99","correct":-1,"choice":32,"rt":810,"accuracy":0,"outcome":"+1","keys":[2311],"total_keys":1,"block":1,"trial":55,"robot":2,"valence":"win","action":"no-go","sham":0,"trial_type":"pit-trial","trial_index":68,"time_elapsed":352322,"internal_node_id":"0.0-57.0","task_version":"battery-v0.1"},{"rune":"W","hex":"#3366ff99","correct":32,"choice":-1,"rt":-1,"accuracy":0,"outcome":"+1","keys":[],"total_keys":0,"block":1,"trial":56,"robot":1,"valence":"win","action":"go","sham":0,"trial_type":"pit-trial","trial_index":69,"time_elapsed":356336,"internal_node_id":"0.0-58.0","task_version":"battery-v0.1"},{"rune":"V","hex":"#3366ff99","correct":-1,"choice":32,"rt":850,"accuracy":0,"outcome":"+1","keys":[2360],"total_keys":1,"block":1,"trial":57,"robot":2,"valence":"win","action":"no-go","sham":0,"trial_type":"pit-trial","trial_index":70,"time_elapsed":359909,"internal_node_id":"0.0-59.0","task_version":"battery-v0.1"},{"rune":"T","hex":"#f73b6a7A","correct":-1,"choice":-1,"rt":-1,"accuracy":1,"outcome":"-1","keys":[],"total_keys":0,"block":1,"trial":58,"robot":4,"valence":"lose","action":"no-go","sham":0,"trial_type":"pit-trial","trial_index":71,"time_elapsed":363926,"internal_node_id":"0.0-60.0","task_version":"battery-v0.1"},{"rune":"W","hex":"#3366ff99","correct":32,"choice":32,"rt":658,"accuracy":1,"outcome":"+10","keys":[2165],"total_keys":1,"block":1,"trial":59,"robot":1,"valence":"win","action":"go","sham":0,"trial_type":"pit-trial","trial_index":72,"time_elapsed":367303,"internal_node_id":"0.0-61.0","task_version":"battery-v0.1"},{"rune":"K","hex":"#f73b6a7A","correct":32,"choice":-1,"rt":-1,"accuracy":0,"outcome":"-10","keys":[],"total_keys":0,"block":1,"trial":60,"robot":3,"valence":"lose","action":"go","sham":0,"trial_type":"pit-trial","trial_index":73,"time_elapsed":371323,"internal_node_id":"0.0-62.0","task_version":"battery-v0.1"},{"rune":"V","hex":"#3366ff99","correct":-1,"choice":32,"rt":1023,"accuracy":0,"outcome":"+1","keys":[2533],"total_keys":1,"block":1,"trial":61,"robot":2,"valence":"win","action":"no-go","sham":0,"trial_type":"pit-trial","trial_index":74,"time_elapsed":375068,"internal_node_id":"0.0-63.0","task_version":"battery-v0.1"},{"rune":"W","hex":"#3366ff99","correct":32,"choice":-1,"rt":-1,"accuracy":0,"outcome":"+10","keys":[],"total_keys":0,"block":1,"trial":62,"robot":1,"valence":"win","action":"go","sham":1,"trial_type":"pit-trial","trial_index":75,"time_elapsed":379090,"internal_node_id":"0.0-64.0","task_version":"battery-v0.1"},{"rune":"T","hex":"#f73b6a7A","correct":-1,"choice":32,"rt":1053,"accuracy":0,"outcome":"-10","keys":[2557],"total_keys":1,"block":1,"trial":63,"robot":4,"valence":"lose","action":"no-go","sham":0,"trial_type":"pit-trial","trial_index":76,"time_elapsed":382858,"internal_node_id":"0.0-65.0","task_version":"battery-v0.1"},{"rune":"K","hex":"#f73b6a7A","correct":32,"choice":-1,"rt":-1,"accuracy":0,"outcome":"-1","keys":[],"total_keys":0,"block":1,"trial":64,"robot":3,"valence":"lose","action":"go","sham":1,"trial_type":"pit-trial","trial_index":77,"time_elapsed":386879,"internal_node_id":"0.0-66.0","task_version":"battery-v0.1"},{"rune":"W","hex":"#3366ff99","correct":32,"choice":32,"rt":707,"accuracy":1,"outcome":"+1","keys":[2214],"total_keys":1,"block":1,"trial":65,"robot":1,"valence":"win","action":"go","sham":1,"trial_type":"pit-trial","trial_index":78,"time_elapsed":390304,"internal_node_id":"0.0-67.0","task_version":"battery-v0.1"},{"rune":"T","hex":"#f73b6a7A","correct":-1,"choice":32,"rt":958,"accuracy":0,"outcome":"-1","keys":[2471],"total_keys":1,"block":1,"trial":66,"robot":4,"valence":"lose","action":"no-go","sham":1,"trial_type":"pit-trial","trial_index":79,"time_elapsed":393992,"internal_node_id":"0.0-68.0","task_version":"battery-v0.1"},{"rune":"K","hex":"#f73b6a7A","correct":32,"choice":-1,"rt":-1,"accuracy":0,"outcome":"-10","keys":[],"total_keys":0,"block":1,"trial":67,"robot":3,"valence":"lose","action":"go","sham":0,"trial_type":"pit-trial","trial_index":80,"time_elapsed":398013,"internal_node_id":"0.0-69.0","task_version":"battery-v0.1"},{"rune":"V","hex":"#3366ff99","correct":-1,"choice":32,"rt":889,"accuracy":0,"outcome":"+10","keys":[2389],"total_keys":1,"block":1,"trial":68,"robot":2,"valence":"win","action":"no-go","sham":1,"trial_type":"pit-trial","trial_index":81,"time_elapsed":401611,"internal_node_id":"0.0-70.0","task_version":"battery-v0.1"},{"rune":"V","hex":"#3366ff99","correct":-1,"choice":32,"rt":880,"accuracy":0,"outcome":"+1","keys":[2382],"total_keys":1,"block":1,"trial":69,"robot":2,"valence":"win","action":"no-go","sham":0,"trial_type":"pit-trial","trial_index":82,"time_elapsed":405198,"internal_node_id":"0.0-71.0","task_version":"battery-v0.1"},{"rune":"T","hex":"#f73b6a7A","correct":-1,"choice":-1,"rt":-1,"accuracy":1,"outcome":"-1","keys":[],"total_keys":0,"block":1,"trial":70,"robot":4,"valence":"lose","action":"no-go","sham":0,"trial_type":"pit-trial","trial_index":83,"time_elapsed":409212,"internal_node_id":"0.0-72.0","task_version":"battery-v0.1"},{"rune":"K","hex":"#f73b6a7A","correct":32,"choice":32,"rt":1232,"accuracy":1,"outcome":"-1","keys":[2735],"total_keys":1,"block":1,"trial":71,"robot":3,"valence":"lose","action":"go","sham":0,"trial_type":"pit-trial","trial_index":84,"time_elapsed":413162,"internal_node_id":"0.0-73.0","task_version":"battery-v0.1"},{"rune":"W","hex":"#3366ff99","correct":32,"choice":32,"rt":766,"accuracy":1,"outcome":"+10","keys":[2273],"total_keys":1,"block":1,"trial":72,"robot":1,"valence":"win","action":"go","sham":0,"trial_type":"pit-trial","trial_index":85,"time_elapsed":416652,"internal_node_id":"0.0-74.0","task_version":"battery-v0.1"},{"rune":"W","hex":"#3366ff99","correct":32,"choice":32,"rt":533,"accuracy":1,"outcome":"+1","keys":[2042],"total_keys":1,"block":1,"trial":73,"robot":1,"valence":"win","action":"go","sham":1,"trial_type":"pit-trial","trial_index":86,"time_elapsed":419901,"internal_node_id":"0.0-75.0","task_version":"battery-v0.1"},{"rune":"N","hex":"#f73b6a7A","correct":32,"choice":32,"rt":1146,"accuracy":1,"outcome":"-10","keys":[2659],"total_keys":1,"block":1,"trial":74,"robot":3,"valence":"lose","action":"go","sham":1,"trial_type":"pit-trial","trial_index":87,"time_elapsed":423775,"internal_node_id":"0.0-76.0","task_version":"battery-v0.1"},{"rune":"V","hex":"#3366ff99","correct":-1,"choice":32,"rt":1051,"accuracy":0,"outcome":"+10","keys":[2556],"total_keys":1,"block":1,"trial":75,"robot":2,"valence":"win","action":"no-go","sham":1,"trial_type":"pit-trial","trial_index":88,"time_elapsed":427551,"internal_node_id":"0.0-77.0","task_version":"battery-v0.1"},{"rune":"T","hex":"#f73b6a7A","correct":-1,"choice":32,"rt":941,"accuracy":0,"outcome":"-10","keys":[2455],"total_keys":1,"block":1,"trial":76,"robot":4,"valence":"lose","action":"no-go","sham":0,"trial_type":"pit-trial","trial_index":89,"time_elapsed":431210,"internal_node_id":"0.0-78.0","task_version":"battery-v0.1"},{"rune":"W","hex":"#3366ff99","correct":32,"choice":32,"rt":727,"accuracy":1,"outcome":"+10","keys":[2230],"total_keys":1,"block":1,"trial":77,"robot":1,"valence":"win","action":"go","sham":0,"trial_type":"pit-trial","trial_index":90,"time_elapsed":434654,"internal_node_id":"0.0-79.0","task_version":"battery-v0.1"},{"rune":"T","hex":"#f73b6a7A","correct":-1,"choice":-1,"rt":-1,"accuracy":1,"outcome":"-1","keys":[],"total_keys":0,"block":1,"trial":78,"robot":4,"valence":"lose","action":"no-go","sham":0,"trial_type":"pit-trial","trial_index":91,"time_elapsed":438673,"internal_node_id":"0.0-80.0","task_version":"battery-v0.1"},{"rune":"N","hex":"#f73b6a7A","correct":32,"choice":-1,"rt":-1,"accuracy":0,"outcome":"-10","keys":[],"total_keys":0,"block":1,"trial":79,"robot":3,"valence":"lose","action":"go","sham":0,"trial_type":"pit-trial","trial_index":92,"time_elapsed":442681,"internal_node_id":"0.0-81.0","task_version":"battery-v0.1"},{"rune":"V","hex":"#3366ff99","correct":-1,"choice":32,"rt":585,"accuracy":0,"outcome":"+10","keys":[2093],"total_keys":1,"block":1,"trial":80,"robot":2,"valence":"win","action":"no-go","sham":1,"trial_type":"pit-trial","trial_index":93,"time_elapsed":445991,"internal_node_id":"0.0-82.0","task_version":"battery-v0.1"},{"rune":"V","hex":"#3366ff99","correct":-1,"choice":-1,"rt":-1,"accuracy":1,"outcome":"+10","keys":[],"total_keys":0,"block":1,"trial":81,"robot":2,"valence":"win","action":"no-go","sham":0,"trial_type":"pit-trial","trial_index":94,"time_elapsed":450006,"internal_node_id":"0.0-83.0","task_version":"battery-v0.1"},{"rune":"Q","hex":"#f73b6a7A","correct":32,"choice":32,"rt":926,"accuracy":1,"outcome":"-1","keys":[2427],"total_keys":1,"block":1,"trial":82,"robot":3,"valence":"lose","action":"go","sham":0,"trial_type":"pit-trial","trial_index":95,"time_elapsed":453653,"internal_node_id":"0.0-84.0","task_version":"battery-v0.1"},{"rune":"T","hex":"#f73b6a7A","correct":-1,"choice":-1,"rt":-1,"accuracy":1,"outcome":"-1","keys":[],"total_keys":0,"block":1,"trial":83,"robot":4,"valence":"lose","action":"no-go","sham":0,"trial_type":"pit-trial","trial_index":96,"time_elapsed":457674,"internal_node_id":"0.0-85.0","task_version":"battery-v0.1"},{"rune":"N","hex":"#f73b6a7A","correct":32,"choice":32,"rt":969,"accuracy":1,"outcome":"-1","keys":[2483],"total_keys":1,"block":1,"trial":84,"robot":3,"valence":"lose","action":"go","sham":0,"trial_type":"pit-trial","trial_index":97,"time_elapsed":461368,"internal_node_id":"0.0-86.0","task_version":"battery-v0.1"},{"rune":"V","hex":"#3366ff99","correct":-1,"choice":32,"rt":1106,"accuracy":0,"outcome":"+1","keys":[2608],"total_keys":1,"block":1,"trial":85,"robot":2,"valence":"win","action":"no-go","sham":0,"trial_type":"pit-trial","trial_index":98,"time_elapsed":465181,"internal_node_id":"0.0-87.0","task_version":"battery-v0.1"},{"rune":"Q","hex":"#f73b6a7A","correct":32,"choice":-1,"rt":-1,"accuracy":0,"outcome":"-10","keys":[],"total_keys":0,"block":1,"trial":86,"robot":3,"valence":"lose","action":"go","sham":0,"trial_type":"pit-trial","trial_index":99,"time_elapsed":469199,"internal_node_id":"0.0-88.0","task_version":"battery-v0.1"},{"rune":"T","hex":"#f73b6a7A","correct":-1,"choice":32,"rt":802,"accuracy":0,"outcome":"-10","keys":[2305],"total_keys":1,"block":1,"trial":87,"robot":4,"valence":"lose","action":"no-go","sham":0,"trial_type":"pit-trial","trial_index":100,"time_elapsed":472710,"internal_node_id":"0.0-89.0","task_version":"battery-v0.1"},{"rune":"N","hex":"#f73b6a7A","correct":32,"choice":32,"rt":991,"accuracy":1,"outcome":"-1","keys":[2500],"total_keys":1,"block":1,"trial":88,"robot":3,"valence":"lose","action":"go","sham":0,"trial_type":"pit-trial","trial_index":101,"time_elapsed":476415,"internal_node_id":"0.0-90.0","task_version":"battery-v0.1"},{"rune":"N","hex":"#f73b6a7A","correct":32,"choice":-1,"rt":-1,"accuracy":0,"outcome":"-10","keys":[],"total_keys":0,"block":1,"trial":89,"robot":3,"valence":"lose","action":"go","sham":0,"trial_type":"pit-trial","trial_index":102,"time_elapsed":480439,"internal_node_id":"0.0-91.0","task_version":"battery-v0.1"},{"rune":"R","hex":"#f73b6a7A","correct":-1,"choice":32,"rt":1110,"accuracy":0,"outcome":"-10","keys":[2616],"total_keys":1,"block":1,"trial":90,"robot":4,"valence":"lose","action":"no-go","sham":0,"trial_type":"pit-trial","trial_index":103,"time_elapsed":484270,"internal_node_id":"0.0-92.0","task_version":"battery-v0.1"},{"rune":"Q","hex":"#f73b6a7A","correct":32,"choice":-1,"rt":-1,"accuracy":0,"outcome":"-10","keys":[],"total_keys":0,"block":1,"trial":91,"robot":3,"valence":"lose","action":"go","sham":0,"trial_type":"pit-trial","trial_index":104,"time_elapsed":488295,"internal_node_id":"0.0-93.0","task_version":"battery-v0.1"},{"rune":"U","hex":"#3366ff99","correct":-1,"choice":32,"rt":710,"accuracy":0,"outcome":"+1","keys":[2216],"total_keys":1,"block":1,"trial":92,"robot":2,"valence":"win","action":"no-go","sham":0,"trial_type":"pit-trial","trial_index":105,"time_elapsed":491722,"internal_node_id":"0.0-94.0","task_version":"battery-v0.1"},{"rune":"Q","hex":"#f73b6a7A","correct":32,"choice":32,"rt":853,"accuracy":1,"outcome":"-10","keys":[2352],"total_keys":1,"block":1,"trial":93,"robot":3,"valence":"lose","action":"go","sham":1,"trial_type":"pit-trial","trial_index":106,"time_elapsed":495293,"internal_node_id":"0.0-95.0","task_version":"battery-v0.1"},{"rune":"N","hex":"#f73b6a7A","correct":32,"choice":32,"rt":801,"accuracy":1,"outcome":"-1","keys":[2311],"total_keys":1,"block":1,"trial":94,"robot":3,"valence":"lose","action":"go","sham":0,"trial_type":"pit-trial","trial_index":107,"time_elapsed":498820,"internal_node_id":"0.0-96.0","task_version":"battery-v0.1"},{"rune":"R","hex":"#f73b6a7A","correct":-1,"choice":32,"rt":804,"accuracy":0,"outcome":"-10","keys":[2307],"total_keys":1,"block":1,"trial":95,"robot":4,"valence":"lose","action":"no-go","sham":0,"trial_type":"pit-trial","trial_index":108,"time_elapsed":502328,"internal_node_id":"0.0-97.0","task_version":"battery-v0.1"},{"rune":"U","hex":"#3366ff99","correct":-1,"choice":32,"rt":660,"accuracy":0,"outcome":"+1","keys":[2169],"total_keys":1,"block":1,"trial":96,"robot":2,"valence":"win","action":"no-go","sham":0,"trial_type":"pit-trial","trial_index":109,"time_elapsed":505710,"internal_node_id":"0.0-98.0","task_version":"battery-v0.1"},{"rune":"N","hex":"#f73b6a7A","correct":32,"choice":-1,"rt":-1,"accuracy":0,"outcome":"-10","keys":[],"total_keys":0,"block":1,"trial":97,"robot":3,"valence":"lose","action":"go","sham":0,"trial_type":"pit-trial","trial_index":110,"time_elapsed":509731,"internal_node_id":"0.0-99.0","task_version":"battery-v0.1"},{"rune":"U","hex":"#3366ff99","correct":-1,"choice":32,"rt":619,"accuracy":0,"outcome":"+10","keys":[2129],"total_keys":1,"block":1,"trial":98,"robot":2,"valence":"win","action":"no-go","sham":1,"trial_type":"pit-trial","trial_index":111,"time_elapsed":513069,"internal_node_id":"0.0-100.0","task_version":"battery-v0.1"},{"rune":"Q","hex":"#f73b6a7A","correct":32,"choice":32,"rt":943,"accuracy":1,"outcome":"-1","keys":[2444],"total_keys":1,"block":1,"trial":99,"robot":3,"valence":"lose","action":"go","sham":0,"trial_type":"pit-trial","trial_index":112,"time_elapsed":516719,"internal_node_id":"0.0-101.0","task_version":"battery-v0.1"},{"rune":"R","hex":"#f73b6a7A","correct":-1,"choice":32,"rt":342,"accuracy":0,"outcome":"-10","keys":[1850],"total_keys":1,"block":1,"trial":100,"robot":4,"valence":"lose","action":"no-go","sham":0,"trial_type":"pit-trial","trial_index":113,"time_elapsed":519785,"internal_node_id":"0.0-102.0","task_version":"battery-v0.1"},{"rune":"N","hex":"#f73b6a7A","correct":32,"choice":-1,"rt":-1,"accuracy":0,"outcome":"-10","keys":[],"total_keys":0,"block":1,"trial":101,"robot":3,"valence":"lose","action":"go","sham":0,"trial_type":"pit-trial","trial_index":114,"time_elapsed":523795,"internal_node_id":"0.0-103.0","task_version":"battery-v0.1"},{"rune":"U","hex":"#3366ff99","correct":-1,"choice":32,"rt":475,"accuracy":0,"outcome":"+1","keys":[1988],"total_keys":1,"block":1,"trial":102,"robot":2,"valence":"win","action":"no-go","sham":0,"trial_type":"pit-trial","trial_index":115,"time_elapsed":526990,"internal_node_id":"0.0-104.0","task_version":"battery-v0.1"},{"rune":"R","hex":"#f73b6a7A","correct":-1,"choice":32,"rt":1069,"accuracy":0,"outcome":"-10","keys":[2570],"total_keys":1,"block":1,"trial":103,"robot":4,"valence":"lose","action":"no-go","sham":0,"trial_type":"pit-trial","trial_index":116,"time_elapsed":530777,"internal_node_id":"0.0-105.0","task_version":"battery-v0.1"},{"rune":"Q","hex":"#f73b6a7A","correct":32,"choice":32,"rt":662,"accuracy":1,"outcome":"-1","keys":[2165],"total_keys":1,"block":1,"trial":104,"robot":3,"valence":"lose","action":"go","sham":0,"trial_type":"pit-trial","trial_index":117,"time_elapsed":534146,"internal_node_id":"0.0-106.0","task_version":"battery-v0.1"},{"rune":"R","hex":"#f73b6a7A","correct":-1,"choice":-1,"rt":-1,"accuracy":1,"outcome":"-1","keys":[],"total_keys":0,"block":1,"trial":105,"robot":4,"valence":"lose","action":"no-go","sham":0,"trial_type":"pit-trial","trial_index":118,"time_elapsed":538167,"internal_node_id":"0.0-107.0","task_version":"battery-v0.1"},{"rune":"Q","hex":"#f73b6a7A","correct":32,"choice":-1,"rt":-1,"accuracy":0,"outcome":"-10","keys":[],"total_keys":0,"block":1,"trial":106,"robot":3,"valence":"lose","action":"go","sham":0,"trial_type":"pit-trial","trial_index":119,"time_elapsed":542193,"internal_node_id":"0.0-108.0","task_version":"battery-v0.1"},{"rune":"U","hex":"#3366ff99","correct":-1,"choice":-1,"rt":-1,"accuracy":1,"outcome":"+10","keys":[],"total_keys":0,"block":1,"trial":107,"robot":2,"valence":"win","action":"no-go","sham":0,"trial_type":"pit-trial","trial_index":120,"time_elapsed":546206,"internal_node_id":"0.0-109.0","task_version":"battery-v0.1"},{"rune":"N","hex":"#f73b6a7A","correct":32,"choice":32,"rt":1136,"accuracy":1,"outcome":"-1","keys":[2647],"total_keys":1,"block":1,"trial":108,"robot":3,"valence":"lose","action":"go","sham":0,"trial_type":"pit-trial","trial_index":121,"time_elapsed":550055,"internal_node_id":"0.0-110.0","task_version":"battery-v0.1"},{"rune":"N","hex":"#f73b6a7A","correct":32,"choice":32,"rt":1133,"accuracy":1,"outcome":"-10","keys":[2640],"total_keys":1,"block":1,"trial":109,"robot":3,"valence":"lose","action":"go","sham":1,"trial_type":"pit-trial","trial_index":122,"time_elapsed":553910,"internal_node_id":"0.0-111.0","task_version":"battery-v0.1"},{"rune":"R","hex":"#f73b6a7A","correct":-1,"choice":32,"rt":988,"accuracy":0,"outcome":"-10","keys":[2492],"total_keys":1,"block":1,"trial":110,"robot":4,"valence":"lose","action":"no-go","sham":0,"trial_type":"pit-trial","trial_index":123,"time_elapsed":557618,"internal_node_id":"0.0-112.0","task_version":"battery-v0.1"},{"rune":"Q","hex":"#f73b6a7A","correct":32,"choice":-1,"rt":-1,"accuracy":0,"outcome":"-1","keys":[],"total_keys":0,"block":1,"trial":111,"robot":3,"valence":"lose","action":"go","sham":1,"trial_type":"pit-trial","trial_index":124,"time_elapsed":561634,"internal_node_id":"0.0-113.0","task_version":"battery-v0.1"},{"rune":"U","hex":"#3366ff99","correct":-1,"choice":-1,"rt":-1,"accuracy":1,"outcome":"+10","keys":[],"total_keys":0,"block":1,"trial":112,"robot":2,"valence":"win","action":"no-go","sham":0,"trial_type":"pit-trial","trial_index":125,"time_elapsed":565662,"internal_node_id":"0.0-114.0","task_version":"battery-v0.1"},{"rune":"U","hex":"#3366ff99","correct":-1,"choice":-1,"rt":-1,"accuracy":1,"outcome":"+10","keys":[],"total_keys":0,"block":1,"trial":113,"robot":2,"valence":"win","action":"no-go","sham":0,"trial_type":"pit-trial","trial_index":126,"time_elapsed":569675,"internal_node_id":"0.0-115.0","task_version":"battery-v0.1"},{"rune":"R","hex":"#f73b6a7A","correct":-1,"choice":32,"rt":1083,"accuracy":0,"outcome":"-10","keys":[2585],"total_keys":1,"block":1,"trial":114,"robot":4,"valence":"lose","action":"no-go","sham":0,"trial_type":"pit-trial","trial_index":127,"time_elapsed":573468,"internal_node_id":"0.0-116.0","task_version":"battery-v0.1"},{"rune":"N","hex":"#f73b6a7A","correct":32,"choice":-1,"rt":-1,"accuracy":0,"outcome":"-10","keys":[],"total_keys":0,"block":1,"trial":115,"robot":3,"valence":"lose","action":"go","sham":0,"trial_type":"pit-trial","trial_index":128,"time_elapsed":577501,"internal_node_id":"0.0-117.0","task_version":"battery-v0.1"},{"rune":"Q","hex":"#f73b6a7A","correct":32,"choice":-1,"rt":-1,"accuracy":0,"outcome":"-10","keys":[],"total_keys":0,"block":1,"trial":116,"robot":3,"valence":"lose","action":"go","sham":0,"trial_type":"pit-trial","trial_index":129,"time_elapsed":581516,"internal_node_id":"0.0-118.0","task_version":"battery-v0.1"},{"rune":"Q","hex":"#f73b6a7A","correct":32,"choice":32,"rt":832,"accuracy":1,"outcome":"-10","keys":[2334],"total_keys":1,"block":1,"trial":117,"robot":3,"valence":"lose","action":"go","sham":1,"trial_type":"pit-trial","trial_index":130,"time_elapsed":585066,"internal_node_id":"0.0-119.0","task_version":"battery-v0.1"},{"rune":"U","hex":"#3366ff99","correct":-1,"choice":-1,"rt":-1,"accuracy":1,"outcome":"+10","keys":[],"total_keys":0,"block":1,"trial":118,"robot":2,"valence":"win","action":"no-go","sham":0,"trial_type":"pit-trial","trial_index":131,"time_elapsed":589076,"internal_node_id":"0.0-120.0","task_version":"battery-v0.1"},{"rune":"N","hex":"#f73b6a7A","correct":32,"choice":32,"rt":939,"accuracy":1,"outcome":"-10","keys":[2443],"total_keys":1,"block":1,"trial":119,"robot":3,"valence":"lose","action":"go","sham":1,"trial_type":"pit-trial","trial_index":132,"time_elapsed":592724,"internal_node_id":"0.0-121.0","task_version":"battery-v0.1"},{"rune":"R","hex":"#f73b6a7A","correct":-1,"choice":-1,"rt":-1,"accuracy":1,"outcome":"-1","keys":[],"total_keys":0,"block":1,"trial":120,"robot":4,"valence":"lose","action":"no-go","sham":0,"trial_type":"pit-trial","trial_index":133,"time_elapsed":596752,"internal_node_id":"0.0-122.0","task_version":"battery-v0.1"},{"view_history":"[{\"page_index\":0,\"viewing_time\":132001},{\"page_index\":1,\"viewing_time\":5033}]","rt":137034,"trial_type":"pit-instructions","trial_index":134,"time_elapsed":733787,"internal_node_id":"0.0-123.0","task_version":"battery-v0.1"},{"rune":"B","hex":"#f73b6a7A","correct":-1,"choice":32,"rt":499,"accuracy":0,"outcome":"-10","keys":[2008],"total_keys":1,"block":2,"trial":121,"robot":4,"valence":"lose","action":"no-go","sham":0,"trial_type":"pit-trial","trial_index":135,"time_elapsed":737013,"internal_node_id":"0.0-124.0","task_version":"battery-v0.1"},{"rune":"M","hex":"#3366ff99","correct":-1,"choice":32,"rt":393,"accuracy":0,"outcome":"+1","keys":[1906],"total_keys":1,"block":2,"trial":122,"robot":2,"valence":"win","action":"no-go","sham":0,"trial_type":"pit-trial","trial_index":136,"time_elapsed":740131,"internal_node_id":"0.0-125.0","task_version":"battery-v0.1"},{"rune":"C","hex":"#3366ff99","correct":32,"choice":32,"rt":578,"accuracy":1,"outcome":"+10","keys":[2088],"total_keys":1,"block":2,"trial":123,"robot":1,"valence":"win","action":"go","sham":0,"trial_type":"pit-trial","trial_index":137,"time_elapsed":743433,"internal_node_id":"0.0-126.0","task_version":"battery-v0.1"},{"rune":"F","hex":"#f73b6a7A","correct":-1,"choice":32,"rt":777,"accuracy":0,"outcome":"-10","keys":[2279],"total_keys":1,"block":2,"trial":124,"robot":4,"valence":"lose","action":"no-go","sham":0,"trial_type":"pit-trial","trial_index":138,"time_elapsed":746925,"internal_node_id":"0.0-127.0","task_version":"battery-v0.1"},{"rune":"M","hex":"#3366ff99","correct":-1,"choice":32,"rt":797,"accuracy":0,"outcome":"+1","keys":[2298],"total_keys":1,"block":2,"trial":125,"robot":2,"valence":"win","action":"no-go","sham":0,"trial_type":"pit-trial","trial_index":139,"time_elapsed":750433,"internal_node_id":"0.0-128.0","task_version":"battery-v0.1"},{"rune":"B","hex":"#f73b6a7A","correct":-1,"choice":-1,"rt":-1,"accuracy":1,"outcome":"-1","keys":[],"total_keys":0,"block":2,"trial":126,"robot":4,"valence":"lose","action":"no-go","sham":0,"trial_type":"pit-trial","trial_index":140,"time_elapsed":754439,"internal_node_id":"0.0-129.0","task_version":"battery-v0.1"},{"rune":"F","hex":"#f73b6a7A","correct":-1,"choice":32,"rt":840,"accuracy":0,"outcome":"-10","keys":[2341],"total_keys":1,"block":2,"trial":127,"robot":4,"valence":"lose","action":"no-go","sham":0,"trial_type":"pit-trial","trial_index":141,"time_elapsed":757992,"internal_node_id":"0.0-130.0","task_version":"battery-v0.1"},{"rune":"C","hex":"#3366ff99","correct":32,"choice":-1,"rt":-1,"accuracy":0,"outcome":"+1","keys":[],"total_keys":0,"block":2,"trial":128,"robot":1,"valence":"win","action":"go","sham":0,"trial_type":"pit-trial","trial_index":142,"time_elapsed":762008,"internal_node_id":"0.0-131.0","task_version":"battery-v0.1"},{"rune":"F","hex":"#f73b6a7A","correct":-1,"choice":-1,"rt":-1,"accuracy":1,"outcome":"-10","keys":[],"total_keys":0,"block":2,"trial":129,"robot":4,"valence":"lose","action":"no-go","sham":1,"trial_type":"pit-trial","trial_index":143,"time_elapsed":766026,"internal_node_id":"0.0-132.0","task_version":"battery-v0.1"},{"rune":"M","hex":"#3366ff99","correct":-1,"choice":-1,"rt":-1,"accuracy":1,"outcome":"+1","keys":[],"total_keys":0,"block":2,"trial":130,"robot":2,"valence":"win","action":"no-go","sham":1,"trial_type":"pit-trial","trial_index":144,"time_elapsed":770047,"internal_node_id":"0.0-133.0","task_version":"battery-v0.1"},{"rune":"C","hex":"#3366ff99","correct":32,"choice":32,"rt":523,"accuracy":1,"outcome":"+10","keys":[2030],"total_keys":1,"block":2,"trial":131,"robot":1,"valence":"win","action":"go","sham":0,"trial_type":"pit-trial","trial_index":145,"time_elapsed":773286,"internal_node_id":"0.0-134.0","task_version":"battery-v0.1"},{"rune":"B","hex":"#f73b6a7A","correct":-1,"choice":32,"rt":313,"accuracy":0,"outcome":"-10","keys":[1813],"total_keys":1,"block":2,"trial":132,"robot":4,"valence":"lose","action":"no-go","sham":0,"trial_type":"pit-trial","trial_index":146,"time_elapsed":776317,"internal_node_id":"0.0-135.0","task_version":"battery-v0.1"},{"rune":"C","hex":"#3366ff99","correct":32,"choice":32,"rt":385,"accuracy":1,"outcome":"+1","keys":[1891],"total_keys":1,"block":2,"trial":133,"robot":1,"valence":"win","action":"go","sham":1,"trial_type":"pit-trial","trial_index":147,"time_elapsed":779421,"internal_node_id":"0.0-136.0","task_version":"battery-v0.1"},{"rune":"M","hex":"#3366ff99","correct":-1,"choice":32,"rt":650,"accuracy":0,"outcome":"+1","keys":[2162],"total_keys":1,"block":2,"trial":134,"robot":2,"valence":"win","action":"no-go","sham":0,"trial_type":"pit-trial","trial_index":148,"time_elapsed":782788,"internal_node_id":"0.0-137.0","task_version":"battery-v0.1"},{"rune":"B","hex":"#f73b6a7A","correct":-1,"choice":-1,"rt":-1,"accuracy":1,"outcome":"-1","keys":[],"total_keys":0,"block":2,"trial":135,"robot":4,"valence":"lose","action":"no-go","sham":0,"trial_type":"pit-trial","trial_index":149,"time_elapsed":786805,"internal_node_id":"0.0-138.0","task_version":"battery-v0.1"},{"rune":"F","hex":"#f73b6a7A","correct":-1,"choice":32,"rt":1124,"accuracy":0,"outcome":"-10","keys":[2633],"total_keys":1,"block":2,"trial":136,"robot":4,"valence":"lose","action":"no-go","sham":0,"trial_type":"pit-trial","trial_index":150,"time_elapsed":790648,"internal_node_id":"0.0-139.0","task_version":"battery-v0.1"},{"rune":"M","hex":"#3366ff99","correct":-1,"choice":-1,"rt":-1,"accuracy":1,"outcome":"+10","keys":[],"total_keys":0,"block":2,"trial":137,"robot":2,"valence":"win","action":"no-go","sham":0,"trial_type":"pit-trial","trial_index":151,"time_elapsed":794661,"internal_node_id":"0.0-140.0","task_version":"battery-v0.1"},{"rune":"C","hex":"#3366ff99","correct":32,"choice":-1,"rt":-1,"accuracy":0,"outcome":"+10","keys":[],"total_keys":0,"block":2,"trial":138,"robot":1,"valence":"win","action":"go","sham":1,"trial_type":"pit-trial","trial_index":152,"time_elapsed":798692,"internal_node_id":"0.0-141.0","task_version":"battery-v0.1"},{"rune":"B","hex":"#f73b6a7A","correct":-1,"choice":32,"rt":342,"accuracy":0,"outcome":"-10","keys":[1851],"total_keys":1,"block":2,"trial":139,"robot":4,"valence":"lose","action":"no-go","sham":0,"trial_type":"pit-trial","trial_index":153,"time_elapsed":801758,"internal_node_id":"0.0-142.0","task_version":"battery-v0.1"},{"rune":"F","hex":"#f73b6a7A","correct":-1,"choice":-1,"rt":-1,"accuracy":1,"outcome":"-1","keys":[],"total_keys":0,"block":2,"trial":140,"robot":4,"valence":"lose","action":"no-go","sham":0,"trial_type":"pit-trial","trial_index":154,"time_elapsed":805771,"internal_node_id":"0.0-143.0","task_version":"battery-v0.1"},{"rune":"C","hex":"#3366ff99","correct":32,"choice":32,"rt":681,"accuracy":1,"outcome":"+1","keys":[2191],"total_keys":1,"block":2,"trial":141,"robot":1,"valence":"win","action":"go","sham":1,"trial_type":"pit-trial","trial_index":155,"time_elapsed":809173,"internal_node_id":"0.0-144.0","task_version":"battery-v0.1"},{"rune":"F","hex":"#f73b6a7A","correct":-1,"choice":-1,"rt":-1,"accuracy":1,"outcome":"-1","keys":[2816],"total_keys":1,"block":2,"trial":142,"robot":4,"valence":"lose","action":"no-go","sham":0,"trial_type":"pit-trial","trial_index":156,"time_elapsed":813181,"internal_node_id":"0.0-145.0","task_version":"battery-v0.1"},{"rune":"M","hex":"#3366ff99","correct":-1,"choice":32,"rt":864,"accuracy":0,"outcome":"+10","keys":[2371],"total_keys":1,"block":2,"trial":143,"robot":2,"valence":"win","action":"no-go","sham":1,"trial_type":"pit-trial","trial_index":157,"time_elapsed":816755,"internal_node_id":"0.0-146.0","task_version":"battery-v0.1"},{"rune":"B","hex":"#f73b6a7A","correct":-1,"choice":-1,"rt":-1,"accuracy":1,"outcome":"-1","keys":[],"total_keys":0,"block":2,"trial":144,"robot":4,"valence":"lose","action":"no-go","sham":0,"trial_type":"pit-trial","trial_index":158,"time_elapsed":820764,"internal_node_id":"0.0-147.0","task_version":"battery-v0.1"},{"rune":"M","hex":"#3366ff99","correct":-1,"choice":32,"rt":997,"accuracy":0,"outcome":"+1","keys":[2512],"total_keys":1,"block":2,"trial":145,"robot":2,"valence":"win","action":"no-go","sham":0,"trial_type":"pit-trial","trial_index":159,"time_elapsed":824495,"internal_node_id":"0.0-148.0","task_version":"battery-v0.1"},{"rune":"F","hex":"#f73b6a7A","correct":-1,"choice":32,"rt":1123,"accuracy":0,"outcome":"-10","keys":[2624],"total_keys":1,"block":2,"trial":146,"robot":4,"valence":"lose","action":"no-go","sham":0,"trial_type":"pit-trial","trial_index":160,"time_elapsed":828323,"internal_node_id":"0.0-149.0","task_version":"battery-v0.1"},{"rune":"B","hex":"#f73b6a7A","correct":-1,"choice":-1,"rt":-1,"accuracy":1,"outcome":"-1","keys":[],"total_keys":0,"block":2,"trial":147,"robot":4,"valence":"lose","action":"no-go","sham":0,"trial_type":"pit-trial","trial_index":161,"time_elapsed":832336,"internal_node_id":"0.0-150.0","task_version":"battery-v0.1"},{"rune":"C","hex":"#3366ff99","correct":32,"choice":-1,"rt":-1,"accuracy":0,"outcome":"+1","keys":[],"total_keys":0,"block":2,"trial":148,"robot":1,"valence":"win","action":"go","sham":0,"trial_type":"pit-trial","trial_index":162,"time_elapsed":836360,"internal_node_id":"0.0-151.0","task_version":"battery-v0.1"},{"rune":"F","hex":"#f73b6a7A","correct":-1,"choice":32,"rt":1216,"accuracy":0,"outcome":"-1","keys":[2725],"total_keys":1,"block":2,"trial":149,"robot":4,"valence":"lose","action":"no-go","sham":1,"trial_type":"pit-trial","trial_index":163,"time_elapsed":840298,"internal_node_id":"0.0-152.0","task_version":"battery-v0.1"},{"rune":"B","hex":"#f73b6a7A","correct":-1,"choice":32,"rt":1063,"accuracy":0,"outcome":"-1","keys":[2573],"total_keys":1,"block":2,"trial":150,"robot":4,"valence":"lose","action":"no-go","sham":1,"trial_type":"pit-trial","trial_index":164,"time_elapsed":844087,"internal_node_id":"0.0-153.0","task_version":"battery-v0.1"},{"rune":"M","hex":"#3366ff99","correct":-1,"choice":32,"rt":724,"accuracy":0,"outcome":"+1","keys":[2226],"total_keys":1,"block":2,"trial":151,"robot":2,"valence":"win","action":"no-go","sham":0,"trial_type":"pit-trial","trial_index":165,"time_elapsed":847523,"internal_node_id":"0.0-154.0","task_version":"battery-v0.1"},{"rune":"C","hex":"#3366ff99","correct":32,"choice":-1,"rt":-1,"accuracy":0,"outcome":"+10","keys":[],"total_keys":0,"block":2,"trial":152,"robot":1,"valence":"win","action":"go","sham":1,"trial_type":"pit-trial","trial_index":166,"time_elapsed":851541,"internal_node_id":"0.0-155.0","task_version":"battery-v0.1"},{"rune":"D","hex":"#f73b6a7A","correct":32,"choice":-1,"rt":-1,"accuracy":0,"outcome":"-10","keys":[],"total_keys":0,"block":2,"trial":153,"robot":3,"valence":"lose","action":"go","sham":0,"trial_type":"pit-trial","trial_index":167,"time_elapsed":855545,"internal_node_id":"0.0-156.0","task_version":"battery-v0.1"},{"rune":"C","hex":"#3366ff99","correct":32,"choice":32,"rt":1014,"accuracy":1,"outcome":"+10","keys":[2523],"total_keys":1,"block":2,"trial":154,"robot":1,"valence":"win","action":"go","sham":0,"trial_type":"pit-trial","trial_index":168,"time_elapsed":859284,"internal_node_id":"0.0-157.0","task_version":"battery-v0.1"},{"rune":"M","hex":"#3366ff99","correct":-1,"choice":32,"rt":778,"accuracy":0,"outcome":"+1","keys":[2285],"total_keys":1,"block":2,"trial":155,"robot":2,"valence":"win","action":"no-go","sham":0,"trial_type":"pit-trial","trial_index":169,"time_elapsed":862784,"internal_node_id":"0.0-158.0","task_version":"battery-v0.1"},{"rune":"F","hex":"#f73b6a7A","correct":-1,"choice":-1,"rt":-1,"accuracy":1,"outcome":"-10","keys":[],"total_keys":0,"block":2,"trial":156,"robot":4,"valence":"lose","action":"no-go","sham":1,"trial_type":"pit-trial","trial_index":170,"time_elapsed":866813,"internal_node_id":"0.0-159.0","task_version":"battery-v0.1"},{"rune":"M","hex":"#3366ff99","correct":-1,"choice":32,"rt":677,"accuracy":0,"outcome":"+1","keys":[2188],"total_keys":1,"block":2,"trial":157,"robot":2,"valence":"win","action":"no-go","sham":0,"trial_type":"pit-trial","trial_index":171,"time_elapsed":870214,"internal_node_id":"0.0-160.0","task_version":"battery-v0.1"},{"rune":"C","hex":"#3366ff99","correct":32,"choice":-1,"rt":-1,"accuracy":0,"outcome":"+1","keys":[],"total_keys":0,"block":2,"trial":158,"robot":1,"valence":"win","action":"go","sham":0,"trial_type":"pit-trial","trial_index":172,"time_elapsed":874230,"internal_node_id":"0.0-161.0","task_version":"battery-v0.1"},{"rune":"F","hex":"#f73b6a7A","correct":-1,"choice":-1,"rt":-1,"accuracy":1,"outcome":"-1","keys":[],"total_keys":0,"block":2,"trial":159,"robot":4,"valence":"lose","action":"no-go","sham":0,"trial_type":"pit-trial","trial_index":173,"time_elapsed":878256,"internal_node_id":"0.0-162.0","task_version":"battery-v0.1"},{"rune":"D","hex":"#f73b6a7A","correct":32,"choice":-1,"rt":-1,"accuracy":0,"outcome":"-10","keys":[],"total_keys":0,"block":2,"trial":160,"robot":3,"valence":"lose","action":"go","sham":0,"trial_type":"pit-trial","trial_index":174,"time_elapsed":882280,"internal_node_id":"0.0-163.0","task_version":"battery-v0.1"},{"rune":"P","hex":"#3366ff99","correct":-1,"choice":32,"rt":781,"accuracy":0,"outcome":"+10","keys":[2296],"total_keys":1,"block":2,"trial":161,"robot":2,"valence":"win","action":"no-go","sham":1,"trial_type":"pit-trial","trial_index":175,"time_elapsed":885788,"internal_node_id":"0.0-164.0","task_version":"battery-v0.1"},{"rune":"D","hex":"#f73b6a7A","correct":32,"choice":32,"rt":1166,"accuracy":1,"outcome":"-1","keys":[2672],"total_keys":1,"block":2,"trial":162,"robot":3,"valence":"lose","action":"go","sham":0,"trial_type":"pit-trial","trial_index":176,"time_elapsed":889672,"internal_node_id":"0.0-165.0","task_version":"battery-v0.1"},{"rune":"Z","hex":"#3366ff99","correct":32,"choice":32,"rt":685,"accuracy":1,"outcome":"+10","keys":[2199],"total_keys":1,"block":2,"trial":163,"robot":1,"valence":"win","action":"go","sham":0,"trial_type":"pit-trial","trial_index":177,"time_elapsed":893084,"internal_node_id":"0.0-166.0","task_version":"battery-v0.1"},{"rune":"F","hex":"#f73b6a7A","correct":-1,"choice":-1,"rt":-1,"accuracy":1,"outcome":"-1","keys":[],"total_keys":0,"block":2,"trial":164,"robot":4,"valence":"lose","action":"no-go","sham":0,"trial_type":"pit-trial","trial_index":178,"time_elapsed":897109,"internal_node_id":"0.0-167.0","task_version":"battery-v0.1"},{"rune":"Z","hex":"#3366ff99","correct":32,"choice":32,"rt":633,"accuracy":1,"outcome":"+1","keys":[2136],"total_keys":1,"block":2,"trial":165,"robot":1,"valence":"win","action":"go","sham":1,"trial_type":"pit-trial","trial_index":179,"time_elapsed":900458,"internal_node_id":"0.0-168.0","task_version":"battery-v0.1"},{"rune":"F","hex":"#f73b6a7A","correct":-1,"choice":32,"rt":1060,"accuracy":0,"outcome":"-10","keys":[2562],"total_keys":1,"block":2,"trial":166,"robot":4,"valence":"lose","action":"no-go","sham":0,"trial_type":"pit-trial","trial_index":180,"time_elapsed":904228,"internal_node_id":"0.0-169.0","task_version":"battery-v0.1"},{"rune":"D","hex":"#f73b6a7A","correct":32,"choice":-1,"rt":-1,"accuracy":0,"outcome":"-10","keys":[],"total_keys":0,"block":2,"trial":167,"robot":3,"valence":"lose","action":"go","sham":0,"trial_type":"pit-trial","trial_index":181,"time_elapsed":908245,"internal_node_id":"0.0-170.0","task_version":"battery-v0.1"},{"rune":"P","hex":"#3366ff99","correct":-1,"choice":32,"rt":591,"accuracy":0,"outcome":"+1","keys":[2094],"total_keys":1,"block":2,"trial":168,"robot":2,"valence":"win","action":"no-go","sham":0,"trial_type":"pit-trial","trial_index":182,"time_elapsed":911547,"internal_node_id":"0.0-171.0","task_version":"battery-v0.1"},{"rune":"Y","hex":"#f73b6a7A","correct":-1,"choice":32,"rt":893,"accuracy":0,"outcome":"-10","keys":[2396],"total_keys":1,"block":2,"trial":169,"robot":4,"valence":"lose","action":"no-go","sham":0,"trial_type":"pit-trial","trial_index":183,"time_elapsed":915155,"internal_node_id":"0.0-172.0","task_version":"battery-v0.1"},{"rune":"P","hex":"#3366ff99","correct":-1,"choice":-1,"rt":-1,"accuracy":1,"outcome":"+10","keys":[],"total_keys":0,"block":2,"trial":170,"robot":2,"valence":"win","action":"no-go","sham":0,"trial_type":"pit-trial","trial_index":184,"time_elapsed":919169,"internal_node_id":"0.0-173.0","task_version":"battery-v0.1"},{"rune":"D","hex":"#f73b6a7A","correct":32,"choice":32,"rt":706,"accuracy":1,"outcome":"-1","keys":[2214],"total_keys":1,"block":2,"trial":171,"robot":3,"valence":"lose","action":"go","sham":0,"trial_type":"pit-trial","trial_index":185,"time_elapsed":922600,"internal_node_id":"0.0-174.0","task_version":"battery-v0.1"},{"rune":"Z","hex":"#3366ff99","correct":32,"choice":-1,"rt":-1,"accuracy":0,"outcome":"+1","keys":[],"total_keys":0,"block":2,"trial":172,"robot":1,"valence":"win","action":"go","sham":0,"trial_type":"pit-trial","trial_index":186,"time_elapsed":926623,"internal_node_id":"0.0-175.0","task_version":"battery-v0.1"},{"rune":"Z","hex":"#3366ff99","correct":32,"choice":-1,"rt":-1,"accuracy":0,"outcome":"+1","keys":[],"total_keys":0,"block":2,"trial":173,"robot":1,"valence":"win","action":"go","sham":0,"trial_type":"pit-trial","trial_index":187,"time_elapsed":930655,"internal_node_id":"0.0-176.0","task_version":"battery-v0.1"},{"rune":"D","hex":"#f73b6a7A","correct":32,"choice":32,"rt":670,"accuracy":1,"outcome":"-1","keys":[2180],"total_keys":1,"block":2,"trial":174,"robot":3,"valence":"lose","action":"go","sham":0,"trial_type":"pit-trial","trial_index":188,"time_elapsed":934051,"internal_node_id":"0.0-177.0","task_version":"battery-v0.1"},{"rune":"P","hex":"#3366ff99","correct":-1,"choice":-1,"rt":-1,"accuracy":1,"outcome":"+10","keys":[],"total_keys":0,"block":2,"trial":175,"robot":2,"valence":"win","action":"no-go","sham":0,"trial_type":"pit-trial","trial_index":189,"time_elapsed":938078,"internal_node_id":"0.0-178.0","task_version":"battery-v0.1"},{"rune":"Y","hex":"#f73b6a7A","correct":-1,"choice":-1,"rt":-1,"accuracy":1,"outcome":"-1","keys":[],"total_keys":0,"block":2,"trial":176,"robot":4,"valence":"lose","action":"no-go","sham":0,"trial_type":"pit-trial","trial_index":190,"time_elapsed":942092,"internal_node_id":"0.0-179.0","task_version":"battery-v0.1"},{"rune":"D","hex":"#f73b6a7A","correct":32,"choice":32,"rt":927,"accuracy":1,"outcome":"-1","keys":[2441],"total_keys":1,"block":2,"trial":177,"robot":3,"valence":"lose","action":"go","sham":0,"trial_type":"pit-trial","trial_index":191,"time_elapsed":945738,"internal_node_id":"0.0-180.0","task_version":"battery-v0.1"},{"rune":"Z","hex":"#3366ff99","correct":32,"choice":-1,"rt":-1,"accuracy":0,"outcome":"+10","keys":[],"total_keys":0,"block":2,"trial":178,"robot":1,"valence":"win","action":"go","sham":1,"trial_type":"pit-trial","trial_index":192,"time_elapsed":949766,"internal_node_id":"0.0-181.0","task_version":"battery-v0.1"},{"rune":"Y","hex":"#f73b6a7A","correct":-1,"choice":-1,"rt":-1,"accuracy":1,"outcome":"-1","keys":[],"total_keys":0,"block":2,"trial":179,"robot":4,"valence":"lose","action":"no-go","sham":0,"trial_type":"pit-trial","trial_index":193,"time_elapsed":953778,"internal_node_id":"0.0-182.0","task_version":"battery-v0.1"},{"rune":"P","hex":"#3366ff99","correct":-1,"choice":-1,"rt":-1,"accuracy":1,"outcome":"+10","keys":[],"total_keys":0,"block":2,"trial":180,"robot":2,"valence":"win","action":"no-go","sham":0,"trial_type":"pit-trial","trial_index":194,"time_elapsed":957800,"internal_node_id":"0.0-183.0","task_version":"battery-v0.1"},{"rune":"D","hex":"#f73b6a7A","correct":32,"choice":32,"rt":828,"accuracy":1,"outcome":"-1","keys":[2338],"total_keys":1,"block":2,"trial":181,"robot":3,"valence":"lose","action":"go","sham":0,"trial_type":"pit-trial","trial_index":195,"time_elapsed":961343,"internal_node_id":"0.0-184.0","task_version":"battery-v0.1"},{"rune":"Z","hex":"#3366ff99","correct":32,"choice":-1,"rt":-1,"accuracy":0,"outcome":"+1","keys":[],"total_keys":0,"block":2,"trial":182,"robot":1,"valence":"win","action":"go","sham":0,"trial_type":"pit-trial","trial_index":196,"time_elapsed":965357,"internal_node_id":"0.0-185.0","task_version":"battery-v0.1"},{"rune":"P","hex":"#3366ff99","correct":-1,"choice":-1,"rt":-1,"accuracy":1,"outcome":"+10","keys":[],"total_keys":0,"block":2,"trial":183,"robot":2,"valence":"win","action":"no-go","sham":0,"trial_type":"pit-trial","trial_index":197,"time_elapsed":969389,"internal_node_id":"0.0-186.0","task_version":"battery-v0.1"},{"rune":"Y","hex":"#f73b6a7A","correct":-1,"choice":-1,"rt":-1,"accuracy":1,"outcome":"-1","keys":[],"total_keys":0,"block":2,"trial":184,"robot":4,"valence":"lose","action":"no-go","sham":0,"trial_type":"pit-trial","trial_index":198,"time_elapsed":973411,"internal_node_id":"0.0-187.0","task_version":"battery-v0.1"},{"rune":"Y","hex":"#f73b6a7A","correct":-1,"choice":32,"rt":406,"accuracy":0,"outcome":"-1","keys":[1908],"total_keys":1,"block":2,"trial":185,"robot":4,"valence":"lose","action":"no-go","sham":1,"trial_type":"pit-trial","trial_index":199,"time_elapsed":976536,"internal_node_id":"0.0-188.0","task_version":"battery-v0.1"},{"rune":"D","hex":"#f73b6a7A","correct":32,"choice":-1,"rt":-1,"accuracy":0,"outcome":"-10","keys":[],"total_keys":0,"block":2,"trial":186,"robot":3,"valence":"lose","action":"go","sham":0,"trial_type":"pit-trial","trial_index":200,"time_elapsed":980561,"internal_node_id":"0.0-189.0","task_version":"battery-v0.1"},{"rune":"Z","hex":"#3366ff99","correct":32,"choice":-1,"rt":-1,"accuracy":0,"outcome":"+1","keys":[],"total_keys":0,"block":2,"trial":187,"robot":1,"valence":"win","action":"go","sham":0,"trial_type":"pit-trial","trial_index":201,"time_elapsed":984585,"internal_node_id":"0.0-190.0","task_version":"battery-v0.1"},{"rune":"P","hex":"#3366ff99","correct":-1,"choice":-1,"rt":-1,"accuracy":1,"outcome":"+10","keys":[],"total_keys":0,"block":2,"trial":188,"robot":2,"valence":"win","action":"no-go","sham":0,"trial_type":"pit-trial","trial_index":202,"time_elapsed":988607,"internal_node_id":"0.0-191.0","task_version":"battery-v0.1"},{"rune":"P","hex":"#3366ff99","correct":-1,"choice":32,"rt":1057,"accuracy":0,"outcome":"+10","keys":[2570],"total_keys":1,"block":2,"trial":189,"robot":2,"valence":"win","action":"no-go","sham":1,"trial_type":"pit-trial","trial_index":203,"time_elapsed":992387,"internal_node_id":"0.0-192.0","task_version":"battery-v0.1"},{"rune":"D","hex":"#f73b6a7A","correct":32,"choice":-1,"rt":-1,"accuracy":0,"outcome":"-10","keys":[],"total_keys":0,"block":2,"trial":190,"robot":3,"valence":"lose","action":"go","sham":0,"trial_type":"pit-trial","trial_index":204,"time_elapsed":996414,"internal_node_id":"0.0-193.0","task_version":"battery-v0.1"},{"rune":"Y","hex":"#f73b6a7A","correct":-1,"choice":-1,"rt":-1,"accuracy":1,"outcome":"-1","keys":[],"total_keys":0,"block":2,"trial":191,"robot":4,"valence":"lose","action":"no-go","sham":0,"trial_type":"pit-trial","trial_index":205,"time_elapsed":1000426,"internal_node_id":"0.0-194.0","task_version":"battery-v0.1"},{"rune":"Z","hex":"#3366ff99","correct":32,"choice":-1,"rt":-1,"accuracy":0,"outcome":"+1","keys":[],"total_keys":0,"block":2,"trial":192,"robot":1,"valence":"win","action":"go","sham":0,"trial_type":"pit-trial","trial_index":206,"time_elapsed":1004445,"internal_node_id":"0.0-195.0","task_version":"battery-v0.1"},{"rune":"P","hex":"#3366ff99","correct":-1,"choice":-1,"rt":-1,"accuracy":1,"outcome":"+10","keys":[],"total_keys":0,"block":2,"trial":193,"robot":2,"valence":"win","action":"no-go","sham":0,"trial_type":"pit-trial","trial_index":207,"time_elapsed":1008473,"internal_node_id":"0.0-196.0","task_version":"battery-v0.1"},{"rune":"X","hex":"#f73b6a7A","correct":32,"choice":32,"rt":1013,"accuracy":1,"outcome":"-1","keys":[2528],"total_keys":1,"block":2,"trial":194,"robot":3,"valence":"lose","action":"go","sham":0,"trial_type":"pit-trial","trial_index":208,"time_elapsed":1012211,"internal_node_id":"0.0-197.0","task_version":"battery-v0.1"},{"rune":"J","hex":"#3366ff99","correct":32,"choice":-1,"rt":-1,"accuracy":0,"outcome":"+1","keys":[],"total_keys":0,"block":2,"trial":195,"robot":1,"valence":"win","action":"go","sham":0,"trial_type":"pit-trial","trial_index":209,"time_elapsed":1016227,"internal_node_id":"0.0-198.0","task_version":"battery-v0.1"},{"rune":"Y","hex":"#f73b6a7A","correct":-1,"choice":-1,"rt":-1,"accuracy":1,"outcome":"-1","keys":[],"total_keys":0,"block":2,"trial":196,"robot":4,"valence":"lose","action":"no-go","sham":0,"trial_type":"pit-trial","trial_index":210,"time_elapsed":1020248,"internal_node_id":"0.0-199.0","task_version":"battery-v0.1"},{"rune":"P","hex":"#3366ff99","correct":-1,"choice":-1,"rt":-1,"accuracy":1,"outcome":"+10","keys":[],"total_keys":0,"block":2,"trial":197,"robot":2,"valence":"win","action":"no-go","sham":0,"trial_type":"pit-trial","trial_index":211,"time_elapsed":1024256,"internal_node_id":"0.0-200.0","task_version":"battery-v0.1"},{"rune":"J","hex":"#3366ff99","correct":32,"choice":-1,"rt":-1,"accuracy":0,"outcome":"+1","keys":[],"total_keys":0,"block":2,"trial":198,"robot":1,"valence":"win","action":"go","sham":0,"trial_type":"pit-trial","trial_index":212,"time_elapsed":1028267,"internal_node_id":"0.0-201.0","task_version":"battery-v0.1"},{"rune":"X","hex":"#f73b6a7A","correct":32,"choice":-1,"rt":-1,"accuracy":0,"outcome":"-10","keys":[],"total_keys":0,"block":2,"trial":199,"robot":3,"valence":"lose","action":"go","sham":0,"trial_type":"pit-trial","trial_index":213,"time_elapsed":1032289,"internal_node_id":"0.0-202.0","task_version":"battery-v0.1"},{"rune":"Y","hex":"#f73b6a7A","correct":-1,"choice":32,"rt":1139,"accuracy":0,"outcome":"-10","keys":[2653],"total_keys":1,"block":2,"trial":200,"robot":4,"valence":"lose","action":"no-go","sham":0,"trial_type":"pit-trial","trial_index":214,"time_elapsed":1036160,"internal_node_id":"0.0-203.0","task_version":"battery-v0.1"},{"rune":"J","hex":"#3366ff99","correct":32,"choice":32,"rt":334,"accuracy":1,"outcome":"+10","keys":[1835],"total_keys":1,"block":2,"trial":201,"robot":1,"valence":"win","action":"go","sham":0,"trial_type":"pit-trial","trial_index":215,"time_elapsed":1039204,"internal_node_id":"0.0-204.0","task_version":"battery-v0.1"},{"rune":"X","hex":"#f73b6a7A","correct":32,"choice":-1,"rt":-1,"accuracy":0,"outcome":"-10","keys":[],"total_keys":0,"block":2,"trial":202,"robot":3,"valence":"lose","action":"go","sham":0,"trial_type":"pit-trial","trial_index":216,"time_elapsed":1043215,"internal_node_id":"0.0-205.0","task_version":"battery-v0.1"},{"rune":"P","hex":"#3366ff99","correct":-1,"choice":-1,"rt":-1,"accuracy":1,"outcome":"+1","keys":[],"total_keys":0,"block":2,"trial":203,"robot":2,"valence":"win","action":"no-go","sham":1,"trial_type":"pit-trial","trial_index":217,"time_elapsed":1047233,"internal_node_id":"0.0-206.0","task_version":"battery-v0.1"},{"rune":"Y","hex":"#f73b6a7A","correct":-1,"choice":32,"rt":461,"accuracy":0,"outcome":"-1","keys":[1973],"total_keys":1,"block":2,"trial":204,"robot":4,"valence":"lose","action":"no-go","sham":1,"trial_type":"pit-trial","trial_index":218,"time_elapsed":1050423,"internal_node_id":"0.0-207.0","task_version":"battery-v0.1"},{"rune":"P","hex":"#3366ff99","correct":-1,"choice":-1,"rt":-1,"accuracy":1,"outcome":"+1","keys":[2890],"total_keys":1,"block":2,"trial":205,"robot":2,"valence":"win","action":"no-go","sham":1,"trial_type":"pit-trial","trial_index":219,"time_elapsed":1054443,"internal_node_id":"0.0-208.0","task_version":"battery-v0.1"},{"rune":"Y","hex":"#f73b6a7A","correct":-1,"choice":-1,"rt":-1,"accuracy":1,"outcome":"-10","keys":[],"total_keys":0,"block":2,"trial":206,"robot":4,"valence":"lose","action":"no-go","sham":1,"trial_type":"pit-trial","trial_index":220,"time_elapsed":1058460,"internal_node_id":"0.0-209.0","task_version":"battery-v0.1"},{"rune":"J","hex":"#3366ff99","correct":32,"choice":32,"rt":559,"accuracy":1,"outcome":"+10","keys":[2060],"total_keys":1,"block":2,"trial":207,"robot":1,"valence":"win","action":"go","sham":0,"trial_type":"pit-trial","trial_index":221,"time_elapsed":1061733,"internal_node_id":"0.0-210.0","task_version":"battery-v0.1"},{"rune":"X","hex":"#f73b6a7A","correct":32,"choice":-1,"rt":-1,"accuracy":0,"outcome":"-10","keys":[],"total_keys":0,"block":2,"trial":208,"robot":3,"valence":"lose","action":"go","sham":0,"trial_type":"pit-trial","trial_index":222,"time_elapsed":1065743,"internal_node_id":"0.0-211.0","task_version":"battery-v0.1"},{"rune":"J","hex":"#3366ff99","correct":32,"choice":32,"rt":561,"accuracy":1,"outcome":"+10","keys":[2067],"total_keys":1,"block":2,"trial":209,"robot":1,"valence":"win","action":"go","sham":0,"trial_type":"pit-trial","trial_index":223,"time_elapsed":1069028,"internal_node_id":"0.0-212.0","task_version":"battery-v0.1"},{"rune":"I","hex":"#f73b6a7A","correct":32,"choice":32,"rt":122,"accuracy":1,"outcome":"-1","keys":[1397,1624],"total_keys":2,"block":2,"trial":210,"robot":3,"valence":"lose","action":"go","sham":0,"trial_type":"pit-trial","trial_index":224,"time_elapsed":1071855,"internal_node_id":"0.0-213.0","task_version":"battery-v0.1"},{"rune":"G","hex":"#3366ff99","correct":-1,"choice":32,"rt":763,"accuracy":0,"outcome":"+1","keys":[2268],"total_keys":1,"block":2,"trial":211,"robot":2,"valence":"win","action":"no-go","sham":0,"trial_type":"pit-trial","trial_index":225,"time_elapsed":1075335,"internal_node_id":"0.0-214.0","task_version":"battery-v0.1"},{"rune":"X","hex":"#f73b6a7A","correct":32,"choice":-1,"rt":-1,"accuracy":0,"outcome":"-10","keys":[],"total_keys":0,"block":2,"trial":212,"robot":3,"valence":"lose","action":"go","sham":0,"trial_type":"pit-trial","trial_index":226,"time_elapsed":1079362,"internal_node_id":"0.0-215.0","task_version":"battery-v0.1"},{"rune":"G","hex":"#3366ff99","correct":-1,"choice":32,"rt":385,"accuracy":0,"outcome":"+10","keys":[1899],"total_keys":1,"block":2,"trial":213,"robot":2,"valence":"win","action":"no-go","sham":1,"trial_type":"pit-trial","trial_index":227,"time_elapsed":1082470,"internal_node_id":"0.0-216.0","task_version":"battery-v0.1"},{"rune":"J","hex":"#3366ff99","correct":32,"choice":32,"rt":709,"accuracy":1,"outcome":"+10","keys":[2211],"total_keys":1,"block":2,"trial":214,"robot":1,"valence":"win","action":"go","sham":0,"trial_type":"pit-trial","trial_index":228,"time_elapsed":1085887,"internal_node_id":"0.0-217.0","task_version":"battery-v0.1"},{"rune":"I","hex":"#f73b6a7A","correct":32,"choice":32,"rt":735,"accuracy":1,"outcome":"-1","keys":[2243],"total_keys":1,"block":2,"trial":215,"robot":3,"valence":"lose","action":"go","sham":0,"trial_type":"pit-trial","trial_index":229,"time_elapsed":1089348,"internal_node_id":"0.0-218.0","task_version":"battery-v0.1"},{"rune":"X","hex":"#f73b6a7A","correct":32,"choice":32,"rt":1081,"accuracy":1,"outcome":"-10","keys":[2589],"total_keys":1,"block":2,"trial":216,"robot":3,"valence":"lose","action":"go","sham":1,"trial_type":"pit-trial","trial_index":230,"time_elapsed":1093155,"internal_node_id":"0.0-219.0","task_version":"battery-v0.1"},{"rune":"X","hex":"#f73b6a7A","correct":32,"choice":-1,"rt":-1,"accuracy":0,"outcome":"-10","keys":[],"total_keys":0,"block":2,"trial":217,"robot":3,"valence":"lose","action":"go","sham":0,"trial_type":"pit-trial","trial_index":231,"time_elapsed":1097186,"internal_node_id":"0.0-220.0","task_version":"battery-v0.1"},{"rune":"I","hex":"#f73b6a7A","correct":32,"choice":-1,"rt":-1,"accuracy":0,"outcome":"-10","keys":[],"total_keys":0,"block":2,"trial":218,"robot":3,"valence":"lose","action":"go","sham":0,"trial_type":"pit-trial","trial_index":232,"time_elapsed":1101215,"internal_node_id":"0.0-221.0","task_version":"battery-v0.1"},{"rune":"G","hex":"#3366ff99","correct":-1,"choice":32,"rt":545,"accuracy":0,"outcome":"+1","keys":[2048],"total_keys":1,"block":2,"trial":219,"robot":2,"valence":"win","action":"no-go","sham":0,"trial_type":"pit-trial","trial_index":233,"time_elapsed":1104470,"internal_node_id":"0.0-222.0","task_version":"battery-v0.1"},{"rune":"J","hex":"#3366ff99","correct":32,"choice":-1,"rt":-1,"accuracy":0,"outcome":"+10","keys":[],"total_keys":0,"block":2,"trial":220,"robot":1,"valence":"win","action":"go","sham":1,"trial_type":"pit-trial","trial_index":234,"time_elapsed":1108489,"internal_node_id":"0.0-223.0","task_version":"battery-v0.1"},{"rune":"J","hex":"#3366ff99","correct":32,"choice":-1,"rt":-1,"accuracy":0,"outcome":"+1","keys":[],"total_keys":0,"block":2,"trial":221,"robot":1,"valence":"win","action":"go","sham":0,"trial_type":"pit-trial","trial_index":235,"time_elapsed":1112508,"internal_node_id":"0.0-224.0","task_version":"battery-v0.1"},{"rune":"X","hex":"#f73b6a7A","correct":32,"choice":-1,"rt":-1,"accuracy":0,"outcome":"-1","keys":[],"total_keys":0,"block":2,"trial":222,"robot":3,"valence":"lose","action":"go","sham":1,"trial_type":"pit-trial","trial_index":236,"time_elapsed":1116519,"internal_node_id":"0.0-225.0","task_version":"battery-v0.1"},{"rune":"I","hex":"#f73b6a7A","correct":32,"choice":32,"rt":605,"accuracy":1,"outcome":"-1","keys":[2117],"total_keys":1,"block":2,"trial":223,"robot":3,"valence":"lose","action":"go","sham":0,"trial_type":"pit-trial","trial_index":237,"time_elapsed":1119846,"internal_node_id":"0.0-226.0","task_version":"battery-v0.1"},{"rune":"G","hex":"#3366ff99","correct":-1,"choice":32,"rt":531,"accuracy":0,"outcome":"+1","keys":[2039],"total_keys":1,"block":2,"trial":224,"robot":2,"valence":"win","action":"no-go","sham":0,"trial_type":"pit-trial","trial_index":238,"time_elapsed":1123087,"internal_node_id":"0.0-227.0","task_version":"battery-v0.1"},{"rune":"X","hex":"#f73b6a7A","correct":32,"choice":-1,"rt":-1,"accuracy":0,"outcome":"-10","keys":[],"total_keys":0,"block":2,"trial":225,"robot":3,"valence":"lose","action":"go","sham":0,"trial_type":"pit-trial","trial_index":239,"time_elapsed":1127102,"internal_node_id":"0.0-228.0","task_version":"battery-v0.1"},{"rune":"J","hex":"#3366ff99","correct":32,"choice":32,"rt":263,"accuracy":1,"outcome":"+10","keys":[1771],"total_keys":1,"block":2,"trial":226,"robot":1,"valence":"win","action":"go","sham":0,"trial_type":"pit-trial","trial_index":240,"time_elapsed":1130084,"internal_node_id":"0.0-229.0","task_version":"battery-v0.1"},{"rune":"G","hex":"#3366ff99","correct":-1,"choice":32,"rt":35,"accuracy":0,"outcome":"+1","keys":[883,1084,1249,1403,1548],"total_keys":5,"block":2,"trial":227,"robot":2,"valence":"win","action":"no-go","sham":0,"trial_type":"pit-trial","trial_index":241,"time_elapsed":1132843,"internal_node_id":"0.0-230.0","task_version":"battery-v0.1"},{"rune":"I","hex":"#f73b6a7A","correct":32,"choice":32,"rt":421,"accuracy":1,"outcome":"-1","keys":[1935],"total_keys":1,"block":2,"trial":228,"robot":3,"valence":"lose","action":"go","sham":0,"trial_type":"pit-trial","trial_index":242,"time_elapsed":1135995,"internal_node_id":"0.0-231.0","task_version":"battery-v0.1"},{"rune":"X","hex":"#f73b6a7A","correct":32,"choice":32,"rt":577,"accuracy":1,"outcome":"-1","keys":[2079],"total_keys":1,"block":2,"trial":229,"robot":3,"valence":"lose","action":"go","sham":0,"trial_type":"pit-trial","trial_index":243,"time_elapsed":1139288,"internal_node_id":"0.0-232.0","task_version":"battery-v0.1"},{"rune":"I","hex":"#f73b6a7A","correct":32,"choice":-1,"rt":-1,"accuracy":0,"outcome":"-1","keys":[],"total_keys":0,"block":2,"trial":230,"robot":3,"valence":"lose","action":"go","sham":1,"trial_type":"pit-trial","trial_index":244,"time_elapsed":1143310,"internal_node_id":"0.0-233.0","task_version":"battery-v0.1"},{"rune":"J","hex":"#3366ff99","correct":32,"choice":-1,"rt":-1,"accuracy":0,"outcome":"+1","keys":[3359],"total_keys":1,"block":2,"trial":231,"robot":1,"valence":"win","action":"go","sham":0,"trial_type":"pit-trial","trial_index":245,"time_elapsed":1147334,"internal_node_id":"0.0-234.0","task_version":"battery-v0.1"},{"rune":"G","hex":"#3366ff99","correct":-1,"choice":32,"rt":876,"accuracy":0,"outcome":"+1","keys":[2388,2593],"total_keys":2,"block":2,"trial":232,"robot":2,"valence":"win","action":"no-go","sham":0,"trial_type":"pit-trial","trial_index":246,"time_elapsed":1150935,"internal_node_id":"0.0-235.0","task_version":"battery-v0.1"},{"rune":"X","hex":"#f73b6a7A","correct":32,"choice":32,"rt":489,"accuracy":1,"outcome":"-1","keys":[2003],"total_keys":1,"block":2,"trial":233,"robot":3,"valence":"lose","action":"go","sham":0,"trial_type":"pit-trial","trial_index":247,"time_elapsed":1154149,"internal_node_id":"0.0-236.0","task_version":"battery-v0.1"},{"rune":"J","hex":"#3366ff99","correct":32,"choice":-1,"rt":-1,"accuracy":0,"outcome":"+1","keys":[],"total_keys":0,"block":2,"trial":234,"robot":1,"valence":"win","action":"go","sham":0,"trial_type":"pit-trial","trial_index":248,"time_elapsed":1158175,"internal_node_id":"0.0-237.0","task_version":"battery-v0.1"},{"rune":"I","hex":"#f73b6a7A","correct":32,"choice":-1,"rt":-1,"accuracy":0,"outcome":"-10","keys":[],"total_keys":0,"block":2,"trial":235,"robot":3,"valence":"lose","action":"go","sham":0,"trial_type":"pit-trial","trial_index":249,"time_elapsed":1162193,"internal_node_id":"0.0-238.0","task_version":"battery-v0.1"},{"rune":"G","hex":"#3366ff99","correct":-1,"choice":32,"rt":320,"accuracy":0,"outcome":"+1","keys":[1832],"total_keys":1,"block":2,"trial":236,"robot":2,"valence":"win","action":"no-go","sham":0,"trial_type":"pit-trial","trial_index":250,"time_elapsed":1165237,"internal_node_id":"0.0-239.0","task_version":"battery-v0.1"},{"rune":"I","hex":"#f73b6a7A","correct":32,"choice":32,"rt":410,"accuracy":1,"outcome":"-1","keys":[1916],"total_keys":1,"block":2,"trial":237,"robot":3,"valence":"lose","action":"go","sham":0,"trial_type":"pit-trial","trial_index":251,"time_elapsed":1168370,"internal_node_id":"0.0-240.0","task_version":"battery-v0.1"},{"rune":"G","hex":"#3366ff99","correct":-1,"choice":-1,"rt":-1,"accuracy":1,"outcome":"+10","keys":[],"total_keys":0,"block":2,"trial":238,"robot":2,"valence":"win","action":"no-go","sham":0,"trial_type":"pit-trial","trial_index":252,"time_elapsed":1172388,"internal_node_id":"0.0-241.0","task_version":"battery-v0.1"},{"rune":"X","hex":"#f73b6a7A","correct":32,"choice":32,"rt":640,"accuracy":1,"outcome":"-1","keys":[2148],"total_keys":1,"block":2,"trial":239,"robot":3,"valence":"lose","action":"go","sham":0,"trial_type":"pit-trial","trial_index":253,"time_elapsed":1175746,"internal_node_id":"0.0-242.0","task_version":"battery-v0.1"},{"rune":"J","hex":"#3366ff99","correct":32,"choice":32,"rt":394,"accuracy":1,"outcome":"+10","keys":[1900],"total_keys":1,"block":2,"trial":240,"robot":1,"valence":"win","action":"go","sham":0,"trial_type":"pit-trial","trial_index":254,"time_elapsed":1178858,"internal_node_id":"0.0-243.0","task_version":"battery-v0.1"},{"view_history":"[{\"page_index\":0,\"viewing_time\":3273}]","rt":3273,"trial_type":"pit-instructions","trial_index":255,"time_elapsed":1182135,"internal_node_id":"0.0-244.0","task_version":"battery-v0.1"},{"rt":8764,"responses":{"age":"23","gender-categorical":"Male","gender-free-response":"","ethnicity":"Not Hispanic or Latino","race":["White"],"language":"Yes","fluency":"Very well"},"survey":"demographics","trial_type":"survey-demo","trial_index":256,"time_elapsed":1190909,"internal_node_id":"0.0-245.0","task_version":"battery-v0.1"},{"rt":24299,"responses":{"difficulty":"2","fun":"2","clarity":"5","strategy":"","feedback":"Frustrating RNG to play with"},"survey":"debrief","trial_type":"survey-debrief","trial_index":257,"time_elapsed":1215212,"internal_node_id":"0.0-246.0","task_version":"battery-v0.1","interactions":"[{\"event\":\"focus\",\"trial\":0,\"time\":5}]"}]