[{"view_history":"[{\"page_index\":0,\"viewing_time\":47100.750000001426},{\"page_index\":1,\"viewing_time\":4159.554999998363},{\"page_index\":2,\"viewing_time\":3037.130000000616},{\"page_index\":3,\"viewing_time\":8092.805000000226},{\"page_index\":4,\"viewing_time\":4421.920000000682},{\"page_index\":5,\"viewing_time\":5059.825000000274}]","rt":71872.94000000111,"trial_type":"pit-instructions","trial_index":0,"time_elapsed":71889,"internal_node_id":"0.0-0.0-0.0","task_version":"battery-v0.1"},{"rune":"","hex":"#FFFFF080","correct":32,"choice":-1,"rt":-1,"accuracy":0,"outcome":"+0","keys":[],"total_keys":0,"block":0,"trial_type":"pit-trial","trial_index":1,"time_elapsed":75894,"internal_node_id":"0.0-0.0-1.0-0.0","task_version":"battery-v0.1"},{"rune":"","hex":"#FFFFF080","correct":32,"choice":-1,"rt":-1,"accuracy":0,"outcome":"+0","keys":[],"total_keys":0,"block":0,"trial_type":"pit-trial","trial_index":2,"time_elapsed":79901,"internal_node_id":"0.0-0.0-1.0-0.1","task_version":"battery-v0.1"},{"rune":"","hex":"#FFFFF080","correct":32,"choice":-1,"rt":-1,"accuracy":0,"outcome":"+0","keys":[],"total_keys":0,"block":0,"trial_type":"pit-trial","trial_index":3,"time_elapsed":83906,"internal_node_id":"0.0-0.0-1.0-0.2","task_version":"battery-v0.1"},{"rune":"","hex":"#FFFFF080","correct":32,"choice":-1,"rt":-1,"accuracy":0,"outcome":"+0","keys":[3380.43000000107],"total_keys":1,"block":0,"trial_type":"pit-trial","trial_index":4,"time_elapsed":87910,"internal_node_id":"0.0-0.0-1.0-0.3","task_version":"battery-v0.1"},{"view_history":"[{\"page_index\":0,\"viewing_time\":6041.675000000396}]","rt":6042.0500000000175,"trial_type":"pit-instructions","trial_index":5,"time_elapsed":93955,"internal_node_id":"0.0-0.0-2.0","task_version":"battery-v0.1"},{"rune":"","hex":"#FFFFF080","correct":-1,"choice":-1,"rt":-1,"accuracy":1,"outcome":"+10","keys":[],"total_keys":0,"block":0,"trial_type":"pit-trial","trial_index":6,"time_elapsed":97961,"internal_node_id":"0.0-0.0-3.0-0.0","task_version":"battery-v0.1"},{"rune":"","hex":"#FFFFF080","correct":-1,"choice":-1,"rt":-1,"accuracy":1,"outcome":"+10","keys":[],"total_keys":0,"block":0,"trial_type":"pit-trial","trial_index":7,"time_elapsed":101967,"internal_node_id":"0.0-0.0-3.0-0.1","task_version":"battery-v0.1"},{"rune":"","hex":"#FFFFF080","correct":-1,"choice":-1,"rt":-1,"accuracy":1,"outcome":"+10","keys":[],"total_keys":0,"block":0,"trial_type":"pit-trial","trial_index":8,"time_elapsed":105972,"internal_node_id":"0.0-0.0-3.0-0.2","task_version":"battery-v0.1"},{"rune":"","hex":"#FFFFF080","correct":-1,"choice":-1,"rt":-1,"accuracy":1,"outcome":"+10","keys":[],"total_keys":0,"block":0,"trial_type":"pit-trial","trial_index":9,"time_elapsed":109978,"internal_node_id":"0.0-0.0-3.0-0.3","task_version":"battery-v0.1"},{"responses":["Press SPACE","Do nothing"],"num_errors":0,"rt":23198.27499999883,"trial_type":"pit-comprehension","trial_index":10,"time_elapsed":133183,"internal_node_id":"0.0-0.0-4.0","task_version":"battery-v0.1"},{"view_history":"[{\"page_index\":0,\"viewing_time\":5141.064999999799},{\"page_index\":1,\"viewing_time\":5808.730000000651},{\"page_index\":2,\"viewing_time\":5038.810000001831},{\"page_index\":3,\"viewing_time\":5045.109999999113},{\"page_index\":4,\"viewing_time\":6747.865000001184},{\"page_index\":5,\"viewing_time\":37517.42000000013},{\"page_index\":6,\"viewing_time\":13934.944999997242},{\"page_index\":7,\"viewing_time\":11480.970000000525},{\"page_index\":8,\"viewing_time\":9827.79500000106},{\"page_index\":9,\"viewing_time\":3317.944999998872},{\"page_index\":10,\"viewing_time\":2519.1300000005867}]","rt":106380.18000000011,"trial_type":"pit-instructions","trial_index":11,"time_elapsed":239570,"internal_node_id":"0.0-1.0-0.0","task_version":"battery-v0.1"},{"responses":["+10","-1","True","True"],"num_errors":0,"rt":41220.62500000172,"trial_type":"pit-comprehension","trial_index":12,"time_elapsed":280794,"internal_node_id":"0.0-1.0-1.0","task_version":"battery-v0.1"},{"view_history":"[{\"page_index\":0,\"viewing_time\":8600.405000001017},{\"page_index\":1,\"viewing_time\":8990.774999998393}]","rt":17591.56500000239,"trial_type":"pit-instructions","trial_index":13,"time_elapsed":298389,"internal_node_id":"0.0-2.0","task_version":"battery-v0.1"},{"rune":"U","hex":"#f73b6a7A","correct":-1,"choice":-1,"rt":-1,"accuracy":1,"outcome":"-1","keys":[],"total_keys":0,"block":1,"trial":1,"robot":4,"valence":"lose","action":"no-go","sham":0,"trial_type":"pit-trial","trial_index":14,"time_elapsed":302395,"internal_node_id":"0.0-3.0","task_version":"battery-v0.1"},{"rune":"S","hex":"#3366ff99","correct":-1,"choice":-1,"rt":-1,"accuracy":1,"outcome":"+1","keys":[41.30499999888707],"total_keys":1,"block":1,"trial":2,"robot":2,"valence":"win","action":"no-go","sham":1,"trial_type":"pit-trial","trial_index":15,"time_elapsed":306403,"internal_node_id":"0.0-4.0","task_version":"battery-v0.1"},{"rune":"G","hex":"#3366ff99","correct":32,"choice":-1,"rt":-1,"accuracy":0,"outcome":"+10","keys":[3659.8250000024564],"total_keys":1,"block":1,"trial":3,"robot":1,"valence":"win","action":"go","sham":1,"trial_type":"pit-trial","trial_index":16,"time_elapsed":310408,"internal_node_id":"0.0-5.0","task_version":"battery-v0.1"},{"rune":"H","hex":"#f73b6a7A","correct":-1,"choice":-1,"rt":-1,"accuracy":1,"outcome":"-10","keys":[],"total_keys":0,"block":1,"trial":4,"robot":4,"valence":"lose","action":"no-go","sham":1,"trial_type":"pit-trial","trial_index":17,"time_elapsed":314413,"internal_node_id":"0.0-6.0","task_version":"battery-v0.1"},{"rune":"G","hex":"#3366ff99","correct":32,"choice":-1,"rt":-1,"accuracy":0,"outcome":"+1","keys":[],"total_keys":0,"block":1,"trial":5,"robot":1,"valence":"win","action":"go","sham":0,"trial_type":"pit-trial","trial_index":18,"time_elapsed":318418,"internal_node_id":"0.0-7.0","task_version":"battery-v0.1"},{"rune":"S","hex":"#3366ff99","correct":-1,"choice":-1,"rt":-1,"accuracy":1,"outcome":"+10","keys":[],"total_keys":0,"block":1,"trial":6,"robot":2,"valence":"win","action":"no-go","sham":0,"trial_type":"pit-trial","trial_index":19,"time_elapsed":322422,"internal_node_id":"0.0-8.0","task_version":"battery-v0.1"},{"rune":"H","hex":"#f73b6a7A","correct":-1,"choice":-1,"rt":-1,"accuracy":1,"outcome":"-1","keys":[],"total_keys":0,"block":1,"trial":7,"robot":4,"valence":"lose","action":"no-go","sham":0,"trial_type":"pit-trial","trial_index":20,"time_elapsed":326426,"internal_node_id":"0.0-9.0","task_version":"battery-v0.1"},{"rune":"U","hex":"#f73b6a7A","correct":-1,"choice":-1,"rt":-1,"accuracy":1,"outcome":"-1","keys":[],"total_keys":0,"block":1,"trial":8,"robot":4,"valence":"lose","action":"no-go","sham":0,"trial_type":"pit-trial","trial_index":21,"time_elapsed":330429,"internal_node_id":"0.0-10.0","task_version":"battery-v0.1"},{"rune":"H","hex":"#f73b6a7A","correct":-1,"choice":-1,"rt":-1,"accuracy":1,"outcome":"-1","keys":[3629.239999998361],"total_keys":1,"block":1,"trial":9,"robot":4,"valence":"lose","action":"no-go","sham":0,"trial_type":"pit-trial","trial_index":22,"time_elapsed":334435,"internal_node_id":"0.0-11.0","task_version":"battery-v0.1"},{"rune":"U","hex":"#f73b6a7A","correct":-1,"choice":-1,"rt":-1,"accuracy":1,"outcome":"-1","keys":[3517.4350000015693],"total_keys":1,"block":1,"trial":10,"robot":4,"valence":"lose","action":"no-go","sham":0,"trial_type":"pit-trial","trial_index":23,"time_elapsed":338440,"internal_node_id":"0.0-12.0","task_version":"battery-v0.1"},{"rune":"G","hex":"#3366ff99","correct":32,"choice":-1,"rt":-1,"accuracy":0,"outcome":"+1","keys":[3791.6799999984796],"total_keys":1,"block":1,"trial":11,"robot":1,"valence":"win","action":"go","sham":0,"trial_type":"pit-trial","trial_index":24,"time_elapsed":342446,"internal_node_id":"0.0-13.0","task_version":"battery-v0.1"},{"rune":"S","hex":"#3366ff99","correct":-1,"choice":-1,"rt":-1,"accuracy":1,"outcome":"+10","keys":[3545.3699999998207],"total_keys":1,"block":1,"trial":12,"robot":2,"valence":"win","action":"no-go","sham":0,"trial_type":"pit-trial","trial_index":25,"time_elapsed":346450,"internal_node_id":"0.0-14.0","task_version":"battery-v0.1"},{"rune":"U","hex":"#f73b6a7A","correct":-1,"choice":-1,"rt":-1,"accuracy":1,"outcome":"-1","keys":[],"total_keys":0,"block":1,"trial":13,"robot":4,"valence":"lose","action":"no-go","sham":0,"trial_type":"pit-trial","trial_index":26,"time_elapsed":350455,"internal_node_id":"0.0-15.0","task_version":"battery-v0.1"},{"rune":"H","hex":"#f73b6a7A","correct":-1,"choice":-1,"rt":-1,"accuracy":1,"outcome":"-1","keys":[151.47000000067055,3714.7399999994086],"total_keys":2,"block":1,"trial":14,"robot":4,"valence":"lose","action":"no-go","sham":0,"trial_type":"pit-trial","trial_index":27,"time_elapsed":354460,"internal_node_id":"0.0-16.0","task_version":"battery-v0.1"},{"rune":"G","hex":"#3366ff99","correct":32,"choice":-1,"rt":-1,"accuracy":0,"outcome":"+1","keys":[3191.370000000461],"total_keys":1,"block":1,"trial":15,"robot":1,"valence":"win","action":"go","sham":0,"trial_type":"pit-trial","trial_index":28,"time_elapsed":358466,"internal_node_id":"0.0-17.0","task_version":"battery-v0.1"},{"rune":"S","hex":"#3366ff99","correct":-1,"choice":-1,"rt":-1,"accuracy":1,"outcome":"+10","keys":[3690.385000001639],"total_keys":1,"block":1,"trial":16,"robot":2,"valence":"win","action":"no-go","sham":0,"trial_type":"pit-trial","trial_index":29,"time_elapsed":362469,"internal_node_id":"0.0-18.0","task_version":"battery-v0.1"},{"rune":"S","hex":"#3366ff99","correct":-1,"choice":-1,"rt":-1,"accuracy":1,"outcome":"+10","keys":[3405.6850000015693],"total_keys":1,"block":1,"trial":17,"robot":2,"valence":"win","action":"no-go","sham":0,"trial_type":"pit-trial","trial_index":30,"time_elapsed":366474,"internal_node_id":"0.0-19.0","task_version":"battery-v0.1"},{"rune":"G","hex":"#3366ff99","correct":32,"choice":-1,"rt":-1,"accuracy":0,"outcome":"+1","keys":[3435.8849999989616],"total_keys":1,"block":1,"trial":18,"robot":1,"valence":"win","action":"go","sham":0,"trial_type":"pit-trial","trial_index":31,"time_elapsed":370476,"internal_node_id":"0.0-20.0","task_version":"battery-v0.1"},{"rune":"H","hex":"#f73b6a7A","correct":-1,"choice":-1,"rt":-1,"accuracy":1,"outcome":"-1","keys":[3518.6549999998533],"total_keys":1,"block":1,"trial":19,"robot":4,"valence":"lose","action":"no-go","sham":0,"trial_type":"pit-trial","trial_index":32,"time_elapsed":374482,"internal_node_id":"0.0-21.0","task_version":"battery-v0.1"},{"rune":"U","hex":"#f73b6a7A","correct":-1,"choice":-1,"rt":-1,"accuracy":1,"outcome":"-1","keys":[3952.965000000433],"total_keys":1,"block":1,"trial":20,"robot":4,"valence":"lose","action":"no-go","sham":0,"trial_type":"pit-trial","trial_index":33,"time_elapsed":378488,"internal_node_id":"0.0-22.0","task_version":"battery-v0.1"},{"rune":"G","hex":"#3366ff99","correct":32,"choice":-1,"rt":-1,"accuracy":0,"outcome":"+1","keys":[3556.814999999944],"total_keys":1,"block":1,"trial":21,"robot":1,"valence":"win","action":"go","sham":0,"trial_type":"pit-trial","trial_index":34,"time_elapsed":382494,"internal_node_id":"0.0-23.0","task_version":"battery-v0.1"},{"rune":"S","hex":"#3366ff99","correct":-1,"choice":-1,"rt":-1,"accuracy":1,"outcome":"+10","keys":[3538.4000000012456],"total_keys":1,"block":1,"trial":22,"robot":2,"valence":"win","action":"no-go","sham":0,"trial_type":"pit-trial","trial_index":35,"time_elapsed":386498,"internal_node_id":"0.0-24.0","task_version":"battery-v0.1"},{"rune":"H","hex":"#f73b6a7A","correct":-1,"choice":-1,"rt":-1,"accuracy":1,"outcome":"-1","keys":[3396.6399999990826],"total_keys":1,"block":1,"trial":23,"robot":4,"valence":"lose","action":"no-go","sham":0,"trial_type":"pit-trial","trial_index":36,"time_elapsed":390504,"internal_node_id":"0.0-25.0","task_version":"battery-v0.1"},{"rune":"U","hex":"#f73b6a7A","correct":-1,"choice":-1,"rt":-1,"accuracy":1,"outcome":"-10","keys":[],"total_keys":0,"block":1,"trial":24,"robot":4,"valence":"lose","action":"no-go","sham":1,"trial_type":"pit-trial","trial_index":37,"time_elapsed":394508,"internal_node_id":"0.0-26.0","task_version":"battery-v0.1"},{"rune":"S","hex":"#3366ff99","correct":-1,"choice":-1,"rt":-1,"accuracy":1,"outcome":"+10","keys":[3478.3600000010338],"total_keys":1,"block":1,"trial":25,"robot":2,"valence":"win","action":"no-go","sham":0,"trial_type":"pit-trial","trial_index":38,"time_elapsed":398513,"internal_node_id":"0.0-27.0","task_version":"battery-v0.1"},{"rune":"G","hex":"#3366ff99","correct":32,"choice":-1,"rt":-1,"accuracy":0,"outcome":"+10","keys":[3450.6450000007753],"total_keys":1,"block":1,"trial":26,"robot":1,"valence":"win","action":"go","sham":1,"trial_type":"pit-trial","trial_index":39,"time_elapsed":402518,"internal_node_id":"0.0-28.0","task_version":"battery-v0.1"},{"rune":"U","hex":"#f73b6a7A","correct":-1,"choice":-1,"rt":-1,"accuracy":1,"outcome":"-10","keys":[],"total_keys":0,"block":1,"trial":27,"robot":4,"valence":"lose","action":"no-go","sham":1,"trial_type":"pit-trial","trial_index":40,"time_elapsed":406523,"internal_node_id":"0.0-29.0","task_version":"battery-v0.1"},{"rune":"H","hex":"#f73b6a7A","correct":-1,"choice":-1,"rt":-1,"accuracy":1,"outcome":"-1","keys":[3424.685000001802],"total_keys":1,"block":1,"trial":28,"robot":4,"valence":"lose","action":"no-go","sham":0,"trial_type":"pit-trial","trial_index":41,"time_elapsed":410529,"internal_node_id":"0.0-30.0","task_version":"battery-v0.1"},{"rune":"G","hex":"#3366ff99","correct":32,"choice":-1,"rt":-1,"accuracy":0,"outcome":"+1","keys":[3593.345000001136],"total_keys":1,"block":1,"trial":29,"robot":1,"valence":"win","action":"go","sham":0,"trial_type":"pit-trial","trial_index":42,"time_elapsed":414535,"internal_node_id":"0.0-31.0","task_version":"battery-v0.1"},{"rune":"H","hex":"#f73b6a7A","correct":-1,"choice":-1,"rt":-1,"accuracy":1,"outcome":"-10","keys":[],"total_keys":0,"block":1,"trial":30,"robot":4,"valence":"lose","action":"no-go","sham":1,"trial_type":"pit-trial","trial_index":43,"time_elapsed":418540,"internal_node_id":"0.0-32.0","task_version":"battery-v0.1"},{"rune":"S","hex":"#3366ff99","correct":-1,"choice":-1,"rt":-1,"accuracy":1,"outcome":"+10","keys":[3517.1300000002375],"total_keys":1,"block":1,"trial":31,"robot":2,"valence":"win","action":"no-go","sham":0,"trial_type":"pit-trial","trial_index":44,"time_elapsed":422545,"internal_node_id":"0.0-33.0","task_version":"battery-v0.1"},{"rune":"U","hex":"#f73b6a7A","correct":-1,"choice":-1,"rt":-1,"accuracy":1,"outcome":"-1","keys":[3606.6250000003492],"total_keys":1,"block":1,"trial":32,"robot":4,"valence":"lose","action":"no-go","sham":0,"trial_type":"pit-trial","trial_index":45,"time_elapsed":426550,"internal_node_id":"0.0-34.0","task_version":"battery-v0.1"},{"rune":"G","hex":"#3366ff99","correct":32,"choice":-1,"rt":-1,"accuracy":0,"outcome":"+1","keys":[3370.904999999795],"total_keys":1,"block":1,"trial":33,"robot":1,"valence":"win","action":"go","sham":0,"trial_type":"pit-trial","trial_index":46,"time_elapsed":430556,"internal_node_id":"0.0-35.0","task_version":"battery-v0.1"},{"rune":"Q","hex":"#f73b6a7A","correct":32,"choice":-1,"rt":-1,"accuracy":0,"outcome":"-10","keys":[],"total_keys":0,"block":1,"trial":34,"robot":3,"valence":"lose","action":"go","sham":0,"trial_type":"pit-trial","trial_index":47,"time_elapsed":434562,"internal_node_id":"0.0-36.0","task_version":"battery-v0.1"},{"rune":"S","hex":"#3366ff99","correct":-1,"choice":-1,"rt":-1,"accuracy":1,"outcome":"+10","keys":[3292.4649999985704],"total_keys":1,"block":1,"trial":35,"robot":2,"valence":"win","action":"no-go","sham":0,"trial_type":"pit-trial","trial_index":48,"time_elapsed":438568,"internal_node_id":"0.0-37.0","task_version":"battery-v0.1"},{"rune":"H","hex":"#f73b6a7A","correct":-1,"choice":-1,"rt":-1,"accuracy":1,"outcome":"-1","keys":[3477.2999999986496],"total_keys":1,"block":1,"trial":36,"robot":4,"valence":"lose","action":"no-go","sham":0,"trial_type":"pit-trial","trial_index":49,"time_elapsed":442574,"internal_node_id":"0.0-38.0","task_version":"battery-v0.1"},{"rune":"H","hex":"#f73b6a7A","correct":-1,"choice":-1,"rt":-1,"accuracy":1,"outcome":"-1","keys":[3382.6000000007916],"total_keys":1,"block":1,"trial":37,"robot":4,"valence":"lose","action":"no-go","sham":0,"trial_type":"pit-trial","trial_index":50,"time_elapsed":446579,"internal_node_id":"0.0-39.0","task_version":"battery-v0.1"},{"rune":"Q","hex":"#f73b6a7A","correct":32,"choice":-1,"rt":-1,"accuracy":0,"outcome":"-10","keys":[],"total_keys":0,"block":1,"trial":38,"robot":3,"valence":"lose","action":"go","sham":0,"trial_type":"pit-trial","trial_index":51,"time_elapsed":450584,"internal_node_id":"0.0-40.0","task_version":"battery-v0.1"},{"rune":"G","hex":"#3366ff99","correct":32,"choice":-1,"rt":-1,"accuracy":0,"outcome":"+10","keys":[3460.1350000011735],"total_keys":1,"block":1,"trial":39,"robot":1,"valence":"win","action":"go","sham":1,"trial_type":"pit-trial","trial_index":52,"time_elapsed":454590,"internal_node_id":"0.0-41.0","task_version":"battery-v0.1"},{"rune":"S","hex":"#3366ff99","correct":-1,"choice":-1,"rt":-1,"accuracy":1,"outcome":"+10","keys":[3369.3700000003446],"total_keys":1,"block":1,"trial":40,"robot":2,"valence":"win","action":"no-go","sham":0,"trial_type":"pit-trial","trial_index":53,"time_elapsed":458594,"internal_node_id":"0.0-42.0","task_version":"battery-v0.1"},{"rune":"W","hex":"#3366ff99","correct":-1,"choice":-1,"rt":-1,"accuracy":1,"outcome":"+10","keys":[],"total_keys":0,"block":1,"trial":41,"robot":2,"valence":"win","action":"no-go","sham":0,"trial_type":"pit-trial","trial_index":54,"time_elapsed":462599,"internal_node_id":"0.0-43.0","task_version":"battery-v0.1"},{"rune":"Q","hex":"#f73b6a7A","correct":32,"choice":-1,"rt":-1,"accuracy":0,"outcome":"-10","keys":[],"total_keys":0,"block":1,"trial":42,"robot":3,"valence":"lose","action":"go","sham":0,"trial_type":"pit-trial","trial_index":55,"time_elapsed":466604,"internal_node_id":"0.0-44.0","task_version":"battery-v0.1"},{"rune":"K","hex":"#3366ff99","correct":32,"choice":-1,"rt":-1,"accuracy":0,"outcome":"+10","keys":[185.84000000188826,3398.2450000002864],"total_keys":2,"block":1,"trial":43,"robot":1,"valence":"win","action":"go","sham":1,"trial_type":"pit-trial","trial_index":56,"time_elapsed":470609,"internal_node_id":"0.0-45.0","task_version":"battery-v0.1"},{"rune":"H","hex":"#f73b6a7A","correct":-1,"choice":-1,"rt":-1,"accuracy":1,"outcome":"-1","keys":[3784.51000000129],"total_keys":1,"block":1,"trial":44,"robot":4,"valence":"lose","action":"no-go","sham":0,"trial_type":"pit-trial","trial_index":57,"time_elapsed":474612,"internal_node_id":"0.0-46.0","task_version":"battery-v0.1"},{"rune":"H","hex":"#f73b6a7A","correct":-1,"choice":-1,"rt":-1,"accuracy":1,"outcome":"-1","keys":[],"total_keys":0,"block":1,"trial":45,"robot":4,"valence":"lose","action":"no-go","sham":0,"trial_type":"pit-trial","trial_index":58,"time_elapsed":478617,"internal_node_id":"0.0-47.0","task_version":"battery-v0.1"},{"rune":"Q","hex":"#f73b6a7A","correct":32,"choice":-1,"rt":-1,"accuracy":0,"outcome":"-10","keys":[3413.5700000006473],"total_keys":1,"block":1,"trial":46,"robot":3,"valence":"lose","action":"go","sham":0,"trial_type":"pit-trial","trial_index":59,"time_elapsed":482622,"internal_node_id":"0.0-48.0","task_version":"battery-v0.1"},{"rune":"K","hex":"#3366ff99","correct":32,"choice":-1,"rt":-1,"accuracy":0,"outcome":"+1","keys":[3475.0500000009197],"total_keys":1,"block":1,"trial":47,"robot":1,"valence":"win","action":"go","sham":0,"trial_type":"pit-trial","trial_index":60,"time_elapsed":486627,"internal_node_id":"0.0-49.0","task_version":"battery-v0.1"},{"rune":"W","hex":"#3366ff99","correct":-1,"choice":-1,"rt":-1,"accuracy":1,"outcome":"+10","keys":[3538.830000001297],"total_keys":1,"block":1,"trial":48,"robot":2,"valence":"win","action":"no-go","sham":0,"trial_type":"pit-trial","trial_index":61,"time_elapsed":490632,"internal_node_id":"0.0-50.0","task_version":"battery-v0.1"},{"rune":"K","hex":"#3366ff99","correct":32,"choice":-1,"rt":-1,"accuracy":0,"outcome":"+1","keys":[],"total_keys":0,"block":1,"trial":49,"robot":1,"valence":"win","action":"go","sham":0,"trial_type":"pit-trial","trial_index":62,"time_elapsed":494637,"internal_node_id":"0.0-51.0","task_version":"battery-v0.1"},{"rune":"W","hex":"#3366ff99","correct":-1,"choice":-1,"rt":-1,"accuracy":1,"outcome":"+10","keys":[3793.084999997518],"total_keys":1,"block":1,"trial":50,"robot":2,"valence":"win","action":"no-go","sham":0,"trial_type":"pit-trial","trial_index":63,"time_elapsed":498641,"internal_node_id":"0.0-52.0","task_version":"battery-v0.1"},{"rune":"Q","hex":"#f73b6a7A","correct":32,"choice":-1,"rt":-1,"accuracy":0,"outcome":"-10","keys":[],"total_keys":0,"block":1,"trial":51,"robot":3,"valence":"lose","action":"go","sham":0,"trial_type":"pit-trial","trial_index":64,"time_elapsed":502646,"internal_node_id":"0.0-53.0","task_version":"battery-v0.1"},{"rune":"X","hex":"#f73b6a7A","correct":-1,"choice":-1,"rt":-1,"accuracy":1,"outcome":"-1","keys":[3439.445000000007],"total_keys":1,"block":1,"trial":52,"robot":4,"valence":"lose","action":"no-go","sham":0,"trial_type":"pit-trial","trial_index":65,"time_elapsed":506651,"internal_node_id":"0.0-54.0","task_version":"battery-v0.1"},{"rune":"X","hex":"#f73b6a7A","correct":-1,"choice":-1,"rt":-1,"accuracy":1,"outcome":"-1","keys":[],"total_keys":0,"block":1,"trial":53,"robot":4,"valence":"lose","action":"no-go","sham":0,"trial_type":"pit-trial","trial_index":66,"time_elapsed":510655,"internal_node_id":"0.0-55.0","task_version":"battery-v0.1"},{"rune":"K","hex":"#3366ff99","correct":32,"choice":-1,"rt":-1,"accuracy":0,"outcome":"+10","keys":[],"total_keys":0,"block":1,"trial":54,"robot":1,"valence":"win","action":"go","sham":1,"trial_type":"pit-trial","trial_index":67,"time_elapsed":514660,"internal_node_id":"0.0-56.0","task_version":"battery-v0.1"},{"rune":"W","hex":"#3366ff99","correct":-1,"choice":-1,"rt":-1,"accuracy":1,"outcome":"+10","keys":[],"total_keys":0,"block":1,"trial":55,"robot":2,"valence":"win","action":"no-go","sham":0,"trial_type":"pit-trial","trial_index":68,"time_elapsed":518665,"internal_node_id":"0.0-57.0","task_version":"battery-v0.1"},{"rune":"Q","hex":"#f73b6a7A","correct":32,"choice":-1,"rt":-1,"accuracy":0,"outcome":"-10","keys":[3655.9850000012084],"total_keys":1,"block":1,"trial":56,"robot":3,"valence":"lose","action":"go","sham":0,"trial_type":"pit-trial","trial_index":69,"time_elapsed":522672,"internal_node_id":"0.0-58.0","task_version":"battery-v0.1"},{"rune":"W","hex":"#3366ff99","correct":-1,"choice":-1,"rt":-1,"accuracy":1,"outcome":"+10","keys":[],"total_keys":0,"block":1,"trial":57,"robot":2,"valence":"win","action":"no-go","sham":0,"trial_type":"pit-trial","trial_index":70,"time_elapsed":526678,"internal_node_id":"0.0-59.0","task_version":"battery-v0.1"},{"rune":"K","hex":"#3366ff99","correct":32,"choice":-1,"rt":-1,"accuracy":0,"outcome":"+1","keys":[3244.32999999763],"total_keys":1,"block":1,"trial":58,"robot":1,"valence":"win","action":"go","sham":0,"trial_type":"pit-trial","trial_index":71,"time_elapsed":530684,"internal_node_id":"0.0-60.0","task_version":"battery-v0.1"},{"rune":"X","hex":"#f73b6a7A","correct":-1,"choice":-1,"rt":-1,"accuracy":1,"outcome":"-1","keys":[3868.634999998845],"total_keys":1,"block":1,"trial":59,"robot":4,"valence":"lose","action":"no-go","sham":0,"trial_type":"pit-trial","trial_index":72,"time_elapsed":534689,"internal_node_id":"0.0-61.0","task_version":"battery-v0.1"},{"rune":"Q","hex":"#f73b6a7A","correct":32,"choice":-1,"rt":-1,"accuracy":0,"outcome":"-10","keys":[],"total_keys":0,"block":1,"trial":60,"robot":3,"valence":"lose","action":"go","sham":0,"trial_type":"pit-trial","trial_index":73,"time_elapsed":538693,"internal_node_id":"0.0-62.0","task_version":"battery-v0.1"},{"rune":"X","hex":"#f73b6a7A","correct":-1,"choice":-1,"rt":-1,"accuracy":1,"outcome":"-1","keys":[3176.885000000708],"total_keys":1,"block":1,"trial":61,"robot":4,"valence":"lose","action":"no-go","sham":0,"trial_type":"pit-trial","trial_index":74,"time_elapsed":542698,"internal_node_id":"0.0-63.0","task_version":"battery-v0.1"},{"rune":"Q","hex":"#f73b6a7A","correct":32,"choice":-1,"rt":-1,"accuracy":0,"outcome":"-10","keys":[3253.085000000312],"total_keys":1,"block":1,"trial":62,"robot":3,"valence":"lose","action":"go","sham":0,"trial_type":"pit-trial","trial_index":75,"time_elapsed":546703,"internal_node_id":"0.0-64.0","task_version":"battery-v0.1"},{"rune":"W","hex":"#3366ff99","correct":-1,"choice":-1,"rt":-1,"accuracy":1,"outcome":"+10","keys":[3585.4749999998603],"total_keys":1,"block":1,"trial":63,"robot":2,"valence":"win","action":"no-go","sham":0,"trial_type":"pit-trial","trial_index":76,"time_elapsed":550708,"internal_node_id":"0.0-65.0","task_version":"battery-v0.1"},{"rune":"K","hex":"#3366ff99","correct":32,"choice":-1,"rt":-1,"accuracy":0,"outcome":"+1","keys":[3260.6750000014435],"total_keys":1,"block":1,"trial":64,"robot":1,"valence":"win","action":"go","sham":0,"trial_type":"pit-trial","trial_index":77,"time_elapsed":554712,"internal_node_id":"0.0-66.0","task_version":"battery-v0.1"},{"rune":"X","hex":"#f73b6a7A","correct":-1,"choice":-1,"rt":-1,"accuracy":1,"outcome":"-1","keys":[],"total_keys":0,"block":1,"trial":65,"robot":4,"valence":"lose","action":"no-go","sham":0,"trial_type":"pit-trial","trial_index":78,"time_elapsed":558717,"internal_node_id":"0.0-67.0","task_version":"battery-v0.1"},{"rune":"K","hex":"#3366ff99","correct":32,"choice":-1,"rt":-1,"accuracy":0,"outcome":"+10","keys":[3313.3400000005495],"total_keys":1,"block":1,"trial":66,"robot":1,"valence":"win","action":"go","sham":1,"trial_type":"pit-trial","trial_index":79,"time_elapsed":562720,"internal_node_id":"0.0-68.0","task_version":"battery-v0.1"},{"rune":"W","hex":"#3366ff99","correct":-1,"choice":-1,"rt":-1,"accuracy":1,"outcome":"+10","keys":[3501.480000002659],"total_keys":1,"block":1,"trial":67,"robot":2,"valence":"win","action":"no-go","sham":0,"trial_type":"pit-trial","trial_index":80,"time_elapsed":566726,"internal_node_id":"0.0-69.0","task_version":"battery-v0.1"},{"rune":"Q","hex":"#f73b6a7A","correct":32,"choice":-1,"rt":-1,"accuracy":0,"outcome":"-10","keys":[],"total_keys":0,"block":1,"trial":68,"robot":3,"valence":"lose","action":"go","sham":0,"trial_type":"pit-trial","trial_index":81,"time_elapsed":570732,"internal_node_id":"0.0-70.0","task_version":"battery-v0.1"},{"rune":"W","hex":"#3366ff99","correct":-1,"choice":-1,"rt":-1,"accuracy":1,"outcome":"+10","keys":[],"total_keys":0,"block":1,"trial":69,"robot":2,"valence":"win","action":"no-go","sham":0,"trial_type":"pit-trial","trial_index":82,"time_elapsed":574736,"internal_node_id":"0.0-71.0","task_version":"battery-v0.1"},{"rune":"K","hex":"#3366ff99","correct":32,"choice":-1,"rt":-1,"accuracy":0,"outcome":"+10","keys":[3170.2299999997485],"total_keys":1,"block":1,"trial":70,"robot":1,"valence":"win","action":"go","sham":1,"trial_type":"pit-trial","trial_index":83,"time_elapsed":578742,"internal_node_id":"0.0-72.0","task_version":"battery-v0.1"},{"rune":"Q","hex":"#f73b6a7A","correct":32,"choice":-1,"rt":-1,"accuracy":0,"outcome":"-1","keys":[3555.974999999278],"total_keys":1,"block":1,"trial":71,"robot":3,"valence":"lose","action":"go","sham":1,"trial_type":"pit-trial","trial_index":84,"time_elapsed":582746,"internal_node_id":"0.0-73.0","task_version":"battery-v0.1"},{"rune":"X","hex":"#f73b6a7A","correct":-1,"choice":-1,"rt":-1,"accuracy":1,"outcome":"-1","keys":[3712.98499999824],"total_keys":1,"block":1,"trial":72,"robot":4,"valence":"lose","action":"no-go","sham":0,"trial_type":"pit-trial","trial_index":85,"time_elapsed":586749,"internal_node_id":"0.0-74.0","task_version":"battery-v0.1"},{"rune":"X","hex":"#f73b6a7A","correct":-1,"choice":-1,"rt":-1,"accuracy":1,"outcome":"-1","keys":[3893.400000000838],"total_keys":1,"block":1,"trial":73,"robot":4,"valence":"lose","action":"no-go","sham":0,"trial_type":"pit-trial","trial_index":86,"time_elapsed":590754,"internal_node_id":"0.0-75.0","task_version":"battery-v0.1"},{"rune":"L","hex":"#f73b6a7A","correct":32,"choice":-1,"rt":-1,"accuracy":0,"outcome":"-10","keys":[],"total_keys":0,"block":1,"trial":74,"robot":3,"valence":"lose","action":"go","sham":0,"trial_type":"pit-trial","trial_index":87,"time_elapsed":594760,"internal_node_id":"0.0-76.0","task_version":"battery-v0.1"},{"rune":"W","hex":"#3366ff99","correct":-1,"choice":-1,"rt":-1,"accuracy":1,"outcome":"+10","keys":[92.00000000058208],"total_keys":1,"block":1,"trial":75,"robot":2,"valence":"win","action":"no-go","sham":0,"trial_type":"pit-trial","trial_index":88,"time_elapsed":598766,"internal_node_id":"0.0-77.0","task_version":"battery-v0.1"},{"rune":"R","hex":"#3366ff99","correct":32,"choice":-1,"rt":-1,"accuracy":0,"outcome":"+1","keys":[3177.0599999981932],"total_keys":1,"block":1,"trial":76,"robot":1,"valence":"win","action":"go","sham":0,"trial_type":"pit-trial","trial_index":89,"time_elapsed":602771,"internal_node_id":"0.0-78.0","task_version":"battery-v0.1"},{"rune":"W","hex":"#3366ff99","correct":-1,"choice":-1,"rt":-1,"accuracy":1,"outcome":"+10","keys":[1245.7399999984773],"total_keys":1,"block":1,"trial":77,"robot":2,"valence":"win","action":"no-go","sham":0,"trial_type":"pit-trial","trial_index":90,"time_elapsed":606776,"internal_node_id":"0.0-79.0","task_version":"battery-v0.1"},{"rune":"R","hex":"#3366ff99","correct":32,"choice":32,"rt":424.960000000312,"accuracy":1,"outcome":"+10","keys":[1925.9850000017323],"total_keys":1,"block":1,"trial":78,"robot":1,"valence":"win","action":"go","sham":0,"trial_type":"pit-trial","trial_index":91,"time_elapsed":609907,"internal_node_id":"0.0-80.0","task_version":"battery-v0.1"},{"rune":"L","hex":"#f73b6a7A","correct":32,"choice":-1,"rt":-1,"accuracy":0,"outcome":"-10","keys":[1099.2200000000885],"total_keys":1,"block":1,"trial":79,"robot":3,"valence":"lose","action":"go","sham":0,"trial_type":"pit-trial","trial_index":92,"time_elapsed":613913,"internal_node_id":"0.0-81.0","task_version":"battery-v0.1"},{"rune":"X","hex":"#f73b6a7A","correct":-1,"choice":-1,"rt":-1,"accuracy":1,"outcome":"-1","keys":[1143.9949999985984],"total_keys":1,"block":1,"trial":80,"robot":4,"valence":"lose","action":"no-go","sham":0,"trial_type":"pit-trial","trial_index":93,"time_elapsed":617919,"internal_node_id":"0.0-82.0","task_version":"battery-v0.1"},{"rune":"W","hex":"#3366ff99","correct":-1,"choice":32,"rt":87.23499999905471,"accuracy":0,"outcome":"+1","keys":[1588.5799999996088,2041.3699999989476],"total_keys":2,"block":1,"trial":81,"robot":2,"valence":"win","action":"no-go","sham":0,"trial_type":"pit-trial","trial_index":94,"time_elapsed":620711,"internal_node_id":"0.0-83.0","task_version":"battery-v0.1"},{"rune":"L","hex":"#f73b6a7A","correct":32,"choice":32,"rt":405.0649999990128,"accuracy":1,"outcome":"-1","keys":[1906.42999999912,2067.364999998943],"total_keys":2,"block":1,"trial":82,"robot":3,"valence":"lose","action":"go","sham":0,"trial_type":"pit-trial","trial_index":95,"time_elapsed":623822,"internal_node_id":"0.0-84.0","task_version":"battery-v0.1"},{"rune":"R","hex":"#3366ff99","correct":32,"choice":-1,"rt":-1,"accuracy":0,"outcome":"+1","keys":[949.915000001085,1095.470000000205,3162.1249999989523],"total_keys":3,"block":1,"trial":83,"robot":1,"valence":"win","action":"go","sham":0,"trial_type":"pit-trial","trial_index":96,"time_elapsed":627827,"internal_node_id":"0.0-85.0","task_version":"battery-v0.1"},{"rune":"X","hex":"#f73b6a7A","correct":-1,"choice":32,"rt":1200.2300000021933,"accuracy":0,"outcome":"-1","keys":[1310.4050000001444,2701.400000001653],"total_keys":2,"block":1,"trial":84,"robot":4,"valence":"lose","action":"no-go","sham":1,"trial_type":"pit-trial","trial_index":97,"time_elapsed":631732,"internal_node_id":"0.0-86.0","task_version":"battery-v0.1"},{"rune":"X","hex":"#f73b6a7A","correct":-1,"choice":32,"rt":1233.4249999984168,"accuracy":0,"outcome":"-10","keys":[2734.905000001192,2942.0949999984587],"total_keys":2,"block":1,"trial":85,"robot":4,"valence":"lose","action":"no-go","sham":0,"trial_type":"pit-trial","trial_index":98,"time_elapsed":635671,"internal_node_id":"0.0-87.0","task_version":"battery-v0.1"},{"rune":"L","hex":"#f73b6a7A","correct":32,"choice":32,"rt":1238.7850000013132,"accuracy":1,"outcome":"-1","keys":[2739.669999998994],"total_keys":1,"block":1,"trial":86,"robot":3,"valence":"lose","action":"go","sham":0,"trial_type":"pit-trial","trial_index":99,"time_elapsed":639616,"internal_node_id":"0.0-88.0","task_version":"battery-v0.1"},{"rune":"W","hex":"#3366ff99","correct":-1,"choice":32,"rt":1075.5399999980582,"accuracy":0,"outcome":"+1","keys":[2576.9250000012107,3048.4800000013784],"total_keys":2,"block":1,"trial":87,"robot":2,"valence":"win","action":"no-go","sham":0,"trial_type":"pit-trial","trial_index":100,"time_elapsed":643398,"internal_node_id":"0.0-89.0","task_version":"battery-v0.1"},{"rune":"R","hex":"#3366ff99","correct":32,"choice":-1,"rt":-1,"accuracy":0,"outcome":"+1","keys":[3105.5500000002794],"total_keys":1,"block":1,"trial":88,"robot":1,"valence":"win","action":"go","sham":0,"trial_type":"pit-trial","trial_index":101,"time_elapsed":647402,"internal_node_id":"0.0-90.0","task_version":"battery-v0.1"},{"rune":"R","hex":"#3366ff99","correct":32,"choice":-1,"rt":-1,"accuracy":0,"outcome":"+1","keys":[2938.484999998822],"total_keys":1,"block":1,"trial":89,"robot":1,"valence":"win","action":"go","sham":0,"trial_type":"pit-trial","trial_index":102,"time_elapsed":651406,"internal_node_id":"0.0-91.0","task_version":"battery-v0.1"},{"rune":"L","hex":"#f73b6a7A","correct":32,"choice":32,"rt":376.3600000020815,"accuracy":1,"outcome":"-10","keys":[1877.4300000005169],"total_keys":1,"block":1,"trial":90,"robot":3,"valence":"lose","action":"go","sham":1,"trial_type":"pit-trial","trial_index":103,"time_elapsed":654488,"internal_node_id":"0.0-92.0","task_version":"battery-v0.1"},{"rune":"J","hex":"#f73b6a7A","correct":32,"choice":32,"rt":151.0149999994319,"accuracy":1,"outcome":"-1","keys":[1652.1949999987846],"total_keys":1,"block":1,"trial":91,"robot":3,"valence":"lose","action":"go","sham":0,"trial_type":"pit-trial","trial_index":104,"time_elapsed":657345,"internal_node_id":"0.0-93.0","task_version":"battery-v0.1"},{"rune":"F","hex":"#3366ff99","correct":-1,"choice":-1,"rt":-1,"accuracy":1,"outcome":"+10","keys":[1177.0049999977928],"total_keys":1,"block":1,"trial":92,"robot":2,"valence":"win","action":"no-go","sham":0,"trial_type":"pit-trial","trial_index":105,"time_elapsed":661349,"internal_node_id":"0.0-94.0","task_version":"battery-v0.1"},{"rune":"F","hex":"#3366ff99","correct":-1,"choice":-1,"rt":-1,"accuracy":1,"outcome":"+10","keys":[943.745000000461],"total_keys":1,"block":1,"trial":93,"robot":2,"valence":"win","action":"no-go","sham":0,"trial_type":"pit-trial","trial_index":106,"time_elapsed":665353,"internal_node_id":"0.0-95.0","task_version":"battery-v0.1"},{"rune":"R","hex":"#3366ff99","correct":32,"choice":-1,"rt":-1,"accuracy":0,"outcome":"+10","keys":[969.6150000018533],"total_keys":1,"block":1,"trial":94,"robot":1,"valence":"win","action":"go","sham":1,"trial_type":"pit-trial","trial_index":107,"time_elapsed":669357,"internal_node_id":"0.0-96.0","task_version":"battery-v0.1"},{"rune":"J","hex":"#f73b6a7A","correct":32,"choice":-1,"rt":-1,"accuracy":0,"outcome":"-10","keys":[925.4750000000931],"total_keys":1,"block":1,"trial":95,"robot":3,"valence":"lose","action":"go","sham":0,"trial_type":"pit-trial","trial_index":108,"time_elapsed":673361,"internal_node_id":"0.0-97.0","task_version":"battery-v0.1"},{"rune":"L","hex":"#f73b6a7A","correct":32,"choice":32,"rt":941.0800000005402,"accuracy":1,"outcome":"-1","keys":[2442.4250000010943],"total_keys":1,"block":1,"trial":96,"robot":3,"valence":"lose","action":"go","sham":0,"trial_type":"pit-trial","trial_index":109,"time_elapsed":677007,"internal_node_id":"0.0-98.0","task_version":"battery-v0.1"},{"rune":"J","hex":"#f73b6a7A","correct":32,"choice":32,"rt":55.589999999967404,"accuracy":1,"outcome":"-1","keys":[1556.205000000773],"total_keys":1,"block":1,"trial":97,"robot":3,"valence":"lose","action":"go","sham":0,"trial_type":"pit-trial","trial_index":110,"time_elapsed":679767,"internal_node_id":"0.0-99.0","task_version":"battery-v0.1"},{"rune":"R","hex":"#3366ff99","correct":32,"choice":-1,"rt":-1,"accuracy":0,"outcome":"+1","keys":[1468.8999999999069],"total_keys":1,"block":1,"trial":98,"robot":1,"valence":"win","action":"go","sham":0,"trial_type":"pit-trial","trial_index":111,"time_elapsed":683772,"internal_node_id":"0.0-100.0","task_version":"battery-v0.1"},{"rune":"L","hex":"#f73b6a7A","correct":32,"choice":-1,"rt":-1,"accuracy":0,"outcome":"-10","keys":[],"total_keys":0,"block":1,"trial":99,"robot":3,"valence":"lose","action":"go","sham":0,"trial_type":"pit-trial","trial_index":112,"time_elapsed":687777,"internal_node_id":"0.0-101.0","task_version":"battery-v0.1"},{"rune":"F","hex":"#3366ff99","correct":-1,"choice":32,"rt":308.4950000010431,"accuracy":0,"outcome":"+10","keys":[1809.6550000009593],"total_keys":1,"block":1,"trial":100,"robot":2,"valence":"win","action":"no-go","sham":1,"trial_type":"pit-trial","trial_index":113,"time_elapsed":690795,"internal_node_id":"0.0-102.0","task_version":"battery-v0.1"},{"rune":"R","hex":"#3366ff99","correct":32,"choice":32,"rt":194.55000000016298,"accuracy":1,"outcome":"+10","keys":[1695.8400000003166],"total_keys":1,"block":1,"trial":101,"robot":1,"valence":"win","action":"go","sham":0,"trial_type":"pit-trial","trial_index":114,"time_elapsed":693695,"internal_node_id":"0.0-103.0","task_version":"battery-v0.1"},{"rune":"J","hex":"#f73b6a7A","correct":32,"choice":32,"rt":1270.8800000000047,"accuracy":1,"outcome":"-10","keys":[2771.550000001327],"total_keys":1,"block":1,"trial":102,"robot":3,"valence":"lose","action":"go","sham":1,"trial_type":"pit-trial","trial_index":115,"time_elapsed":697671,"internal_node_id":"0.0-104.0","task_version":"battery-v0.1"},{"rune":"L","hex":"#f73b6a7A","correct":32,"choice":-1,"rt":-1,"accuracy":0,"outcome":"-10","keys":[],"total_keys":0,"block":1,"trial":103,"robot":3,"valence":"lose","action":"go","sham":0,"trial_type":"pit-trial","trial_index":116,"time_elapsed":701677,"internal_node_id":"0.0-105.0","task_version":"battery-v0.1"},{"rune":"F","hex":"#3366ff99","correct":-1,"choice":32,"rt":427.92499999993015,"accuracy":0,"outcome":"+1","keys":[1929.380000001518],"total_keys":1,"block":1,"trial":104,"robot":2,"valence":"win","action":"no-go","sham":0,"trial_type":"pit-trial","trial_index":117,"time_elapsed":704809,"internal_node_id":"0.0-106.0","task_version":"battery-v0.1"},{"rune":"J","hex":"#f73b6a7A","correct":32,"choice":32,"rt":1268.1750000010943,"accuracy":1,"outcome":"-1","keys":[2769.3849999995437],"total_keys":1,"block":1,"trial":105,"robot":3,"valence":"lose","action":"go","sham":0,"trial_type":"pit-trial","trial_index":118,"time_elapsed":708782,"internal_node_id":"0.0-107.0","task_version":"battery-v0.1"},{"rune":"R","hex":"#3366ff99","correct":32,"choice":-1,"rt":-1,"accuracy":0,"outcome":"+10","keys":[3201.6599999988684],"total_keys":1,"block":1,"trial":106,"robot":1,"valence":"win","action":"go","sham":1,"trial_type":"pit-trial","trial_index":119,"time_elapsed":712786,"internal_node_id":"0.0-108.0","task_version":"battery-v0.1"},{"rune":"L","hex":"#f73b6a7A","correct":32,"choice":32,"rt":932.3799999983748,"accuracy":1,"outcome":"-1","keys":[2432.710000000894],"total_keys":1,"block":1,"trial":107,"robot":3,"valence":"lose","action":"go","sham":0,"trial_type":"pit-trial","trial_index":120,"time_elapsed":716422,"internal_node_id":"0.0-109.0","task_version":"battery-v0.1"},{"rune":"F","hex":"#3366ff99","correct":-1,"choice":32,"rt":1021.4950000008103,"accuracy":0,"outcome":"+1","keys":[2522.719999997178],"total_keys":1,"block":1,"trial":108,"robot":2,"valence":"win","action":"no-go","sham":0,"trial_type":"pit-trial","trial_index":121,"time_elapsed":720147,"internal_node_id":"0.0-110.0","task_version":"battery-v0.1"},{"rune":"L","hex":"#f73b6a7A","correct":32,"choice":32,"rt":819.629999998142,"accuracy":1,"outcome":"-1","keys":[2319.774999999907],"total_keys":1,"block":1,"trial":109,"robot":3,"valence":"lose","action":"go","sham":0,"trial_type":"pit-trial","trial_index":122,"time_elapsed":723670,"internal_node_id":"0.0-111.0","task_version":"battery-v0.1"},{"rune":"J","hex":"#f73b6a7A","correct":32,"choice":-1,"rt":-1,"accuracy":0,"outcome":"-10","keys":[],"total_keys":0,"block":1,"trial":110,"robot":3,"valence":"lose","action":"go","sham":0,"trial_type":"pit-trial","trial_index":123,"time_elapsed":727675,"internal_node_id":"0.0-112.0","task_version":"battery-v0.1"},{"rune":"R","hex":"#3366ff99","correct":32,"choice":32,"rt":281.17000000202097,"accuracy":1,"outcome":"+10","keys":[1781.7150000010151],"total_keys":1,"block":1,"trial":111,"robot":1,"valence":"win","action":"go","sham":0,"trial_type":"pit-trial","trial_index":124,"time_elapsed":730660,"internal_node_id":"0.0-113.0","task_version":"battery-v0.1"},{"rune":"F","hex":"#3366ff99","correct":-1,"choice":32,"rt":899.7049999998417,"accuracy":0,"outcome":"+1","keys":[1413.9400000022724,2400.3300000004238],"total_keys":2,"block":1,"trial":112,"robot":2,"valence":"win","action":"no-go","sham":0,"trial_type":"pit-trial","trial_index":125,"time_elapsed":734265,"internal_node_id":"0.0-114.0","task_version":"battery-v0.1"},{"rune":"L","hex":"#f73b6a7A","correct":32,"choice":-1,"rt":-1,"accuracy":0,"outcome":"-10","keys":[],"total_keys":0,"block":1,"trial":113,"robot":3,"valence":"lose","action":"go","sham":0,"trial_type":"pit-trial","trial_index":126,"time_elapsed":738269,"internal_node_id":"0.0-115.0","task_version":"battery-v0.1"},{"rune":"J","hex":"#f73b6a7A","correct":32,"choice":32,"rt":766.2750000017695,"accuracy":1,"outcome":"-10","keys":[2267.714999998221],"total_keys":1,"block":1,"trial":114,"robot":3,"valence":"lose","action":"go","sham":1,"trial_type":"pit-trial","trial_index":127,"time_elapsed":741740,"internal_node_id":"0.0-116.0","task_version":"battery-v0.1"},{"rune":"F","hex":"#3366ff99","correct":-1,"choice":32,"rt":469.2350000005681,"accuracy":0,"outcome":"+10","keys":[1970.255000000121],"total_keys":1,"block":1,"trial":115,"robot":2,"valence":"win","action":"no-go","sham":1,"trial_type":"pit-trial","trial_index":128,"time_elapsed":744914,"internal_node_id":"0.0-117.0","task_version":"battery-v0.1"},{"rune":"R","hex":"#3366ff99","correct":32,"choice":32,"rt":716.4350000021514,"accuracy":1,"outcome":"+10","keys":[2217.4449999984354],"total_keys":1,"block":1,"trial":116,"robot":1,"valence":"win","action":"go","sham":0,"trial_type":"pit-trial","trial_index":129,"time_elapsed":748336,"internal_node_id":"0.0-118.0","task_version":"battery-v0.1"},{"rune":"L","hex":"#f73b6a7A","correct":32,"choice":32,"rt":960.5699999992503,"accuracy":1,"outcome":"-1","keys":[2461.865000001155],"total_keys":1,"block":1,"trial":117,"robot":3,"valence":"lose","action":"go","sham":0,"trial_type":"pit-trial","trial_index":130,"time_elapsed":752002,"internal_node_id":"0.0-119.0","task_version":"battery-v0.1"},{"rune":"R","hex":"#3366ff99","correct":32,"choice":-1,"rt":-1,"accuracy":0,"outcome":"+1","keys":[],"total_keys":0,"block":1,"trial":118,"robot":1,"valence":"win","action":"go","sham":0,"trial_type":"pit-trial","trial_index":131,"time_elapsed":756006,"internal_node_id":"0.0-120.0","task_version":"battery-v0.1"},{"rune":"F","hex":"#3366ff99","correct":-1,"choice":32,"rt":622.7500000022119,"accuracy":0,"outcome":"+10","keys":[2123.4149999981746],"total_keys":1,"block":1,"trial":119,"robot":2,"valence":"win","action":"no-go","sham":1,"trial_type":"pit-trial","trial_index":132,"time_elapsed":759333,"internal_node_id":"0.0-121.0","task_version":"battery-v0.1"},{"rune":"J","hex":"#f73b6a7A","correct":32,"choice":-1,"rt":-1,"accuracy":0,"outcome":"-1","keys":[],"total_keys":0,"block":1,"trial":120,"robot":3,"valence":"lose","action":"go","sham":1,"trial_type":"pit-trial","trial_index":133,"time_elapsed":763338,"internal_node_id":"0.0-122.0","task_version":"battery-v0.1"},{"view_history":"[{\"page_index\":0,\"viewing_time\":16929.259999997215},{\"page_index\":1,\"viewing_time\":3545.315000002971}]","rt":20474.969999999274,"trial_type":"pit-instructions","trial_index":134,"time_elapsed":783815,"internal_node_id":"0.0-123.0","task_version":"battery-v0.1"},{"rune":"P","hex":"#3366ff99","correct":32,"choice":32,"rt":411.2749999985099,"accuracy":1,"outcome":"+1","keys":[1912.1000000012573],"total_keys":1,"block":2,"trial":121,"robot":1,"valence":"win","action":"go","sham":1,"trial_type":"pit-trial","trial_index":135,"time_elapsed":786933,"internal_node_id":"0.0-124.0","task_version":"battery-v0.1"},{"rune":"T","hex":"#f73b6a7A","correct":-1,"choice":32,"rt":558.6849999999395,"accuracy":0,"outcome":"-1","keys":[2060.1800000004005],"total_keys":1,"block":2,"trial":122,"robot":4,"valence":"lose","action":"no-go","sham":1,"trial_type":"pit-trial","trial_index":136,"time_elapsed":790197,"internal_node_id":"0.0-125.0","task_version":"battery-v0.1"},{"rune":"D","hex":"#3366ff99","correct":-1,"choice":32,"rt":531.3549999991665,"accuracy":0,"outcome":"+10","keys":[2035.1750000008615],"total_keys":1,"block":2,"trial":123,"robot":2,"valence":"win","action":"no-go","sham":1,"trial_type":"pit-trial","trial_index":137,"time_elapsed":793436,"internal_node_id":"0.0-126.0","task_version":"battery-v0.1"},{"rune":"Z","hex":"#3366ff99","correct":32,"choice":32,"rt":503.63999999896623,"accuracy":1,"outcome":"+10","keys":[2004.3299999997253],"total_keys":1,"block":2,"trial":124,"robot":1,"valence":"win","action":"go","sham":0,"trial_type":"pit-trial","trial_index":138,"time_elapsed":796643,"internal_node_id":"0.0-127.0","task_version":"battery-v0.1"},{"rune":"P","hex":"#3366ff99","correct":32,"choice":32,"rt":475.8899999979185,"accuracy":1,"outcome":"+10","keys":[1976.824999997858],"total_keys":1,"block":2,"trial":125,"robot":1,"valence":"win","action":"go","sham":0,"trial_type":"pit-trial","trial_index":139,"time_elapsed":799825,"internal_node_id":"0.0-128.0","task_version":"battery-v0.1"},{"rune":"D","hex":"#3366ff99","correct":-1,"choice":32,"rt":402.3150000029709,"accuracy":0,"outcome":"+1","keys":[1903.1500000020023],"total_keys":1,"block":2,"trial":126,"robot":2,"valence":"win","action":"no-go","sham":0,"trial_type":"pit-trial","trial_index":140,"time_elapsed":802932,"internal_node_id":"0.0-129.0","task_version":"battery-v0.1"},{"rune":"Z","hex":"#3366ff99","correct":32,"choice":32,"rt":681.915000001085,"accuracy":1,"outcome":"+10","keys":[2184.0899999988033],"total_keys":1,"block":2,"trial":127,"robot":1,"valence":"win","action":"go","sham":0,"trial_type":"pit-trial","trial_index":141,"time_elapsed":806321,"internal_node_id":"0.0-130.0","task_version":"battery-v0.1"},{"rune":"T","hex":"#f73b6a7A","correct":-1,"choice":32,"rt":671.6999999989057,"accuracy":0,"outcome":"-10","keys":[2173.464999999851],"total_keys":1,"block":2,"trial":128,"robot":4,"valence":"lose","action":"no-go","sham":0,"trial_type":"pit-trial","trial_index":142,"time_elapsed":809698,"internal_node_id":"0.0-131.0","task_version":"battery-v0.1"},{"rune":"Z","hex":"#3366ff99","correct":32,"choice":-1,"rt":-1,"accuracy":0,"outcome":"+1","keys":[3052.974999998696],"total_keys":1,"block":2,"trial":129,"robot":1,"valence":"win","action":"go","sham":0,"trial_type":"pit-trial","trial_index":143,"time_elapsed":813703,"internal_node_id":"0.0-132.0","task_version":"battery-v0.1"},{"rune":"P","hex":"#3366ff99","correct":32,"choice":32,"rt":403.339999997057,"accuracy":1,"outcome":"+10","keys":[1904.1700000016717],"total_keys":1,"block":2,"trial":130,"robot":1,"valence":"win","action":"go","sham":0,"trial_type":"pit-trial","trial_index":144,"time_elapsed":816811,"internal_node_id":"0.0-133.0","task_version":"battery-v0.1"},{"rune":"T","hex":"#f73b6a7A","correct":-1,"choice":-1,"rt":-1,"accuracy":1,"outcome":"-10","keys":[],"total_keys":0,"block":2,"trial":131,"robot":4,"valence":"lose","action":"no-go","sham":1,"trial_type":"pit-trial","trial_index":145,"time_elapsed":820815,"internal_node_id":"0.0-134.0","task_version":"battery-v0.1"},{"rune":"D","hex":"#3366ff99","correct":-1,"choice":-1,"rt":-1,"accuracy":1,"outcome":"+10","keys":[],"total_keys":0,"block":2,"trial":132,"robot":2,"valence":"win","action":"no-go","sham":0,"trial_type":"pit-trial","trial_index":146,"time_elapsed":824819,"internal_node_id":"0.0-135.0","task_version":"battery-v0.1"},{"rune":"T","hex":"#f73b6a7A","correct":-1,"choice":32,"rt":621.3900000002468,"accuracy":0,"outcome":"-1","keys":[2122.1850000001723],"total_keys":1,"block":2,"trial":133,"robot":4,"valence":"lose","action":"no-go","sham":1,"trial_type":"pit-trial","trial_index":147,"time_elapsed":828145,"internal_node_id":"0.0-136.0","task_version":"battery-v0.1"},{"rune":"P","hex":"#3366ff99","correct":32,"choice":-1,"rt":-1,"accuracy":0,"outcome":"+1","keys":[],"total_keys":0,"block":2,"trial":134,"robot":1,"valence":"win","action":"go","sham":0,"trial_type":"pit-trial","trial_index":148,"time_elapsed":832149,"internal_node_id":"0.0-137.0","task_version":"battery-v0.1"},{"rune":"Z","hex":"#3366ff99","correct":32,"choice":32,"rt":470.464999998454,"accuracy":1,"outcome":"+10","keys":[1970.6649999971269],"total_keys":1,"block":2,"trial":135,"robot":1,"valence":"win","action":"go","sham":0,"trial_type":"pit-trial","trial_index":149,"time_elapsed":835323,"internal_node_id":"0.0-138.0","task_version":"battery-v0.1"},{"rune":"D","hex":"#3366ff99","correct":-1,"choice":32,"rt":317.4749999998603,"accuracy":0,"outcome":"+10","keys":[1818.640000001411],"total_keys":1,"block":2,"trial":136,"robot":2,"valence":"win","action":"no-go","sham":1,"trial_type":"pit-trial","trial_index":150,"time_elapsed":838346,"internal_node_id":"0.0-139.0","task_version":"battery-v0.1"},{"rune":"D","hex":"#3366ff99","correct":-1,"choice":32,"rt":588.2799999999115,"accuracy":0,"outcome":"+1","keys":[2089.380000001169],"total_keys":1,"block":2,"trial":137,"robot":2,"valence":"win","action":"no-go","sham":0,"trial_type":"pit-trial","trial_index":151,"time_elapsed":841638,"internal_node_id":"0.0-140.0","task_version":"battery-v0.1"},{"rune":"T","hex":"#f73b6a7A","correct":-1,"choice":-1,"rt":-1,"accuracy":1,"outcome":"-1","keys":[],"total_keys":0,"block":2,"trial":138,"robot":4,"valence":"lose","action":"no-go","sham":0,"trial_type":"pit-trial","trial_index":152,"time_elapsed":845643,"internal_node_id":"0.0-141.0","task_version":"battery-v0.1"},{"rune":"P","hex":"#3366ff99","correct":32,"choice":32,"rt":550.4599999985658,"accuracy":1,"outcome":"+10","keys":[2051.7350000009174],"total_keys":1,"block":2,"trial":139,"robot":1,"valence":"win","action":"go","sham":0,"trial_type":"pit-trial","trial_index":153,"time_elapsed":848899,"internal_node_id":"0.0-142.0","task_version":"battery-v0.1"},{"rune":"Z","hex":"#3366ff99","correct":32,"choice":32,"rt":657.5050000027986,"accuracy":1,"outcome":"+10","keys":[2159.380000000936],"total_keys":1,"block":2,"trial":140,"robot":1,"valence":"win","action":"go","sham":0,"trial_type":"pit-trial","trial_index":154,"time_elapsed":852263,"internal_node_id":"0.0-143.0","task_version":"battery-v0.1"},{"rune":"P","hex":"#3366ff99","correct":32,"choice":32,"rt":1075.7699999994365,"accuracy":1,"outcome":"+1","keys":[2576.4299999973737],"total_keys":1,"block":2,"trial":141,"robot":1,"valence":"win","action":"go","sham":1,"trial_type":"pit-trial","trial_index":155,"time_elapsed":856045,"internal_node_id":"0.0-144.0","task_version":"battery-v0.1"},{"rune":"Z","hex":"#3366ff99","correct":32,"choice":32,"rt":694.599999998929,"accuracy":1,"outcome":"+10","keys":[2196.01999999932],"total_keys":1,"block":2,"trial":142,"robot":1,"valence":"win","action":"go","sham":0,"trial_type":"pit-trial","trial_index":156,"time_elapsed":859444,"internal_node_id":"0.0-145.0","task_version":"battery-v0.1"},{"rune":"D","hex":"#3366ff99","correct":-1,"choice":32,"rt":469.25499999988824,"accuracy":0,"outcome":"+1","keys":[1970.8150000005262],"total_keys":1,"block":2,"trial":143,"robot":2,"valence":"win","action":"no-go","sham":0,"trial_type":"pit-trial","trial_index":157,"time_elapsed":862619,"internal_node_id":"0.0-146.0","task_version":"battery-v0.1"},{"rune":"T","hex":"#f73b6a7A","correct":-1,"choice":-1,"rt":-1,"accuracy":1,"outcome":"-1","keys":[],"total_keys":0,"block":2,"trial":144,"robot":4,"valence":"lose","action":"no-go","sham":0,"trial_type":"pit-trial","trial_index":158,"time_elapsed":866625,"internal_node_id":"0.0-147.0","task_version":"battery-v0.1"},{"rune":"T","hex":"#f73b6a7A","correct":-1,"choice":-1,"rt":-1,"accuracy":1,"outcome":"-1","keys":[],"total_keys":0,"block":2,"trial":145,"robot":4,"valence":"lose","action":"no-go","sham":0,"trial_type":"pit-trial","trial_index":159,"time_elapsed":870630,"internal_node_id":"0.0-148.0","task_version":"battery-v0.1"},{"rune":"Z","hex":"#3366ff99","correct":32,"choice":32,"rt":644.7499999994179,"accuracy":1,"outcome":"+10","keys":[2148.474999998114],"total_keys":1,"block":2,"trial":146,"robot":1,"valence":"win","action":"go","sham":0,"trial_type":"pit-trial","trial_index":160,"time_elapsed":873983,"internal_node_id":"0.0-149.0","task_version":"battery-v0.1"},{"rune":"P","hex":"#3366ff99","correct":32,"choice":-1,"rt":-1,"accuracy":0,"outcome":"+1","keys":[2879.525000000256],"total_keys":1,"block":2,"trial":147,"robot":1,"valence":"win","action":"go","sham":0,"trial_type":"pit-trial","trial_index":161,"time_elapsed":877989,"internal_node_id":"0.0-150.0","task_version":"battery-v0.1"},{"rune":"D","hex":"#3366ff99","correct":-1,"choice":32,"rt":818.9550000024028,"accuracy":0,"outcome":"+10","keys":[2320.3600000014994],"total_keys":1,"block":2,"trial":148,"robot":2,"valence":"win","action":"no-go","sham":1,"trial_type":"pit-trial","trial_index":162,"time_elapsed":881513,"internal_node_id":"0.0-151.0","task_version":"battery-v0.1"},{"rune":"Z","hex":"#3366ff99","correct":32,"choice":32,"rt":622.1150000019697,"accuracy":1,"outcome":"+10","keys":[2125.5999999993946],"total_keys":1,"block":2,"trial":149,"robot":1,"valence":"win","action":"go","sham":0,"trial_type":"pit-trial","trial_index":163,"time_elapsed":884843,"internal_node_id":"0.0-152.0","task_version":"battery-v0.1"},{"rune":"D","hex":"#3366ff99","correct":-1,"choice":-1,"rt":-1,"accuracy":1,"outcome":"+10","keys":[],"total_keys":0,"block":2,"trial":150,"robot":2,"valence":"win","action":"no-go","sham":0,"trial_type":"pit-trial","trial_index":164,"time_elapsed":888849,"internal_node_id":"0.0-153.0","task_version":"battery-v0.1"},{"rune":"T","hex":"#f73b6a7A","correct":-1,"choice":-1,"rt":-1,"accuracy":1,"outcome":"-10","keys":[],"total_keys":0,"block":2,"trial":151,"robot":4,"valence":"lose","action":"no-go","sham":1,"trial_type":"pit-trial","trial_index":165,"time_elapsed":892854,"internal_node_id":"0.0-154.0","task_version":"battery-v0.1"},{"rune":"P","hex":"#3366ff99","correct":32,"choice":-1,"rt":-1,"accuracy":0,"outcome":"+10","keys":[],"total_keys":0,"block":2,"trial":152,"robot":1,"valence":"win","action":"go","sham":1,"trial_type":"pit-trial","trial_index":166,"time_elapsed":896859,"internal_node_id":"0.0-155.0","task_version":"battery-v0.1"},{"rune":"C","hex":"#3366ff99","correct":32,"choice":32,"rt":816.5900000021793,"accuracy":1,"outcome":"+10","keys":[2317.285000000964],"total_keys":1,"block":2,"trial":153,"robot":1,"valence":"win","action":"go","sham":0,"trial_type":"pit-trial","trial_index":167,"time_elapsed":900378,"internal_node_id":"0.0-156.0","task_version":"battery-v0.1"},{"rune":"T","hex":"#f73b6a7A","correct":-1,"choice":-1,"rt":-1,"accuracy":1,"outcome":"-1","keys":[],"total_keys":0,"block":2,"trial":154,"robot":4,"valence":"lose","action":"no-go","sham":0,"trial_type":"pit-trial","trial_index":168,"time_elapsed":904382,"internal_node_id":"0.0-157.0","task_version":"battery-v0.1"},{"rune":"Z","hex":"#3366ff99","correct":32,"choice":32,"rt":868.4849999990547,"accuracy":1,"outcome":"+10","keys":[2371.295000000857],"total_keys":1,"block":2,"trial":155,"robot":1,"valence":"win","action":"go","sham":0,"trial_type":"pit-trial","trial_index":169,"time_elapsed":907957,"internal_node_id":"0.0-158.0","task_version":"battery-v0.1"},{"rune":"D","hex":"#3366ff99","correct":-1,"choice":-1,"rt":-1,"accuracy":1,"outcome":"+10","keys":[3311.535000000731],"total_keys":1,"block":2,"trial":156,"robot":2,"valence":"win","action":"no-go","sham":0,"trial_type":"pit-trial","trial_index":170,"time_elapsed":911961,"internal_node_id":"0.0-159.0","task_version":"battery-v0.1"},{"rune":"T","hex":"#f73b6a7A","correct":-1,"choice":-1,"rt":-1,"accuracy":1,"outcome":"-10","keys":[],"total_keys":0,"block":2,"trial":157,"robot":4,"valence":"lose","action":"no-go","sham":1,"trial_type":"pit-trial","trial_index":171,"time_elapsed":915966,"internal_node_id":"0.0-160.0","task_version":"battery-v0.1"},{"rune":"Z","hex":"#3366ff99","correct":32,"choice":32,"rt":1089.5449999988778,"accuracy":1,"outcome":"+1","keys":[2591.10000000149],"total_keys":1,"block":2,"trial":158,"robot":1,"valence":"win","action":"go","sham":1,"trial_type":"pit-trial","trial_index":172,"time_elapsed":919760,"internal_node_id":"0.0-161.0","task_version":"battery-v0.1"},{"rune":"C","hex":"#3366ff99","correct":32,"choice":32,"rt":594.8949999983888,"accuracy":1,"outcome":"+10","keys":[2096.034999998752],"total_keys":1,"block":2,"trial":159,"robot":1,"valence":"win","action":"go","sham":0,"trial_type":"pit-trial","trial_index":173,"time_elapsed":923060,"internal_node_id":"0.0-162.0","task_version":"battery-v0.1"},{"rune":"D","hex":"#3366ff99","correct":-1,"choice":-1,"rt":-1,"accuracy":1,"outcome":"+10","keys":[],"total_keys":0,"block":2,"trial":160,"robot":2,"valence":"win","action":"no-go","sham":0,"trial_type":"pit-trial","trial_index":174,"time_elapsed":927066,"internal_node_id":"0.0-163.0","task_version":"battery-v0.1"},{"rune":"M","hex":"#f73b6a7A","correct":32,"choice":32,"rt":1202.3800000024494,"accuracy":1,"outcome":"-1","keys":[2703.1849999985425],"total_keys":1,"block":2,"trial":161,"robot":3,"valence":"lose","action":"go","sham":0,"trial_type":"pit-trial","trial_index":175,"time_elapsed":930972,"internal_node_id":"0.0-164.0","task_version":"battery-v0.1"},{"rune":"C","hex":"#3366ff99","correct":32,"choice":-1,"rt":-1,"accuracy":0,"outcome":"+1","keys":[],"total_keys":0,"block":2,"trial":162,"robot":1,"valence":"win","action":"go","sham":0,"trial_type":"pit-trial","trial_index":176,"time_elapsed":934978,"internal_node_id":"0.0-165.0","task_version":"battery-v0.1"},{"rune":"D","hex":"#3366ff99","correct":-1,"choice":32,"rt":578.7149999996182,"accuracy":0,"outcome":"+1","keys":[2079.2599999986123],"total_keys":1,"block":2,"trial":163,"robot":2,"valence":"win","action":"no-go","sham":0,"trial_type":"pit-trial","trial_index":177,"time_elapsed":938261,"internal_node_id":"0.0-166.0","task_version":"battery-v0.1"},{"rune":"E","hex":"#f73b6a7A","correct":-1,"choice":32,"rt":1073.9049999974668,"accuracy":0,"outcome":"-10","keys":[2574.124999999185],"total_keys":1,"block":2,"trial":164,"robot":4,"valence":"lose","action":"no-go","sham":0,"trial_type":"pit-trial","trial_index":178,"time_elapsed":942039,"internal_node_id":"0.0-167.0","task_version":"battery-v0.1"},{"rune":"E","hex":"#f73b6a7A","correct":-1,"choice":-1,"rt":-1,"accuracy":1,"outcome":"-1","keys":[],"total_keys":0,"block":2,"trial":165,"robot":4,"valence":"lose","action":"no-go","sham":0,"trial_type":"pit-trial","trial_index":179,"time_elapsed":946043,"internal_node_id":"0.0-168.0","task_version":"battery-v0.1"},{"rune":"M","hex":"#f73b6a7A","correct":32,"choice":32,"rt":799.944999998901,"accuracy":1,"outcome":"-1","keys":[2301.8899999987334],"total_keys":1,"block":2,"trial":166,"robot":3,"valence":"lose","action":"go","sham":0,"trial_type":"pit-trial","trial_index":180,"time_elapsed":949548,"internal_node_id":"0.0-169.0","task_version":"battery-v0.1"},{"rune":"C","hex":"#3366ff99","correct":32,"choice":32,"rt":476.9250000027241,"accuracy":1,"outcome":"+10","keys":[1977.7199999989243],"total_keys":1,"block":2,"trial":167,"robot":1,"valence":"win","action":"go","sham":0,"trial_type":"pit-trial","trial_index":181,"time_elapsed":952730,"internal_node_id":"0.0-170.0","task_version":"battery-v0.1"},{"rune":"D","hex":"#3366ff99","correct":-1,"choice":32,"rt":1013.0150000004796,"accuracy":0,"outcome":"+10","keys":[2515.315000000526],"total_keys":1,"block":2,"trial":168,"robot":2,"valence":"win","action":"no-go","sham":1,"trial_type":"pit-trial","trial_index":182,"time_elapsed":956449,"internal_node_id":"0.0-171.0","task_version":"battery-v0.1"},{"rune":"E","hex":"#f73b6a7A","correct":-1,"choice":-1,"rt":-1,"accuracy":1,"outcome":"-1","keys":[],"total_keys":0,"block":2,"trial":169,"robot":4,"valence":"lose","action":"no-go","sham":0,"trial_type":"pit-trial","trial_index":183,"time_elapsed":960454,"internal_node_id":"0.0-172.0","task_version":"battery-v0.1"},{"rune":"M","hex":"#f73b6a7A","correct":32,"choice":32,"rt":789.1700000000419,"accuracy":1,"outcome":"-1","keys":[2290.7999999988824],"total_keys":1,"block":2,"trial":170,"robot":3,"valence":"lose","action":"go","sham":0,"trial_type":"pit-trial","trial_index":184,"time_elapsed":963948,"internal_node_id":"0.0-173.0","task_version":"battery-v0.1"},{"rune":"B","hex":"#3366ff99","correct":-1,"choice":32,"rt":549.2999999986496,"accuracy":0,"outcome":"+10","keys":[2049.7749999995576],"total_keys":1,"block":2,"trial":171,"robot":2,"valence":"win","action":"no-go","sham":1,"trial_type":"pit-trial","trial_index":185,"time_elapsed":967200,"internal_node_id":"0.0-174.0","task_version":"battery-v0.1"},{"rune":"C","hex":"#3366ff99","correct":32,"choice":32,"rt":448.69500000285916,"accuracy":1,"outcome":"+10","keys":[1948.9300000022631],"total_keys":1,"block":2,"trial":172,"robot":1,"valence":"win","action":"go","sham":0,"trial_type":"pit-trial","trial_index":186,"time_elapsed":970353,"internal_node_id":"0.0-175.0","task_version":"battery-v0.1"},{"rune":"M","hex":"#f73b6a7A","correct":32,"choice":-1,"rt":-1,"accuracy":0,"outcome":"-1","keys":[],"total_keys":0,"block":2,"trial":173,"robot":3,"valence":"lose","action":"go","sham":1,"trial_type":"pit-trial","trial_index":187,"time_elapsed":974356,"internal_node_id":"0.0-176.0","task_version":"battery-v0.1"},{"rune":"E","hex":"#f73b6a7A","correct":-1,"choice":32,"rt":1153.954999997979,"accuracy":0,"outcome":"-1","keys":[2654.480000001029],"total_keys":1,"block":2,"trial":174,"robot":4,"valence":"lose","action":"no-go","sham":1,"trial_type":"pit-trial","trial_index":188,"time_elapsed":978215,"internal_node_id":"0.0-177.0","task_version":"battery-v0.1"},{"rune":"B","hex":"#3366ff99","correct":-1,"choice":32,"rt":799.6949999978533,"accuracy":0,"outcome":"+1","keys":[2300.0350000002654],"total_keys":1,"block":2,"trial":175,"robot":2,"valence":"win","action":"no-go","sham":0,"trial_type":"pit-trial","trial_index":189,"time_elapsed":981718,"internal_node_id":"0.0-178.0","task_version":"battery-v0.1"},{"rune":"C","hex":"#3366ff99","correct":32,"choice":32,"rt":428.89999999897555,"accuracy":1,"outcome":"+10","keys":[1930.6950000027427],"total_keys":1,"block":2,"trial":176,"robot":1,"valence":"win","action":"go","sham":0,"trial_type":"pit-trial","trial_index":190,"time_elapsed":984852,"internal_node_id":"0.0-179.0","task_version":"battery-v0.1"},{"rune":"E","hex":"#f73b6a7A","correct":-1,"choice":32,"rt":1173.415000001085,"accuracy":0,"outcome":"-10","keys":[2674.689999999944],"total_keys":1,"block":2,"trial":177,"robot":4,"valence":"lose","action":"no-go","sham":0,"trial_type":"pit-trial","trial_index":191,"time_elapsed":988731,"internal_node_id":"0.0-180.0","task_version":"battery-v0.1"},{"rune":"B","hex":"#3366ff99","correct":-1,"choice":32,"rt":417.3399999999674,"accuracy":0,"outcome":"+1","keys":[1917.3699999991804],"total_keys":1,"block":2,"trial":178,"robot":2,"valence":"win","action":"no-go","sham":0,"trial_type":"pit-trial","trial_index":192,"time_elapsed":991852,"internal_node_id":"0.0-181.0","task_version":"battery-v0.1"},{"rune":"M","hex":"#f73b6a7A","correct":32,"choice":-1,"rt":-1,"accuracy":0,"outcome":"-10","keys":[],"total_keys":0,"block":2,"trial":179,"robot":3,"valence":"lose","action":"go","sham":0,"trial_type":"pit-trial","trial_index":193,"time_elapsed":995857,"internal_node_id":"0.0-182.0","task_version":"battery-v0.1"},{"rune":"C","hex":"#3366ff99","correct":32,"choice":32,"rt":413.6849999995902,"accuracy":1,"outcome":"+10","keys":[1915.1450000026962],"total_keys":1,"block":2,"trial":180,"robot":1,"valence":"win","action":"go","sham":0,"trial_type":"pit-trial","trial_index":194,"time_elapsed":998975,"internal_node_id":"0.0-183.0","task_version":"battery-v0.1"},{"rune":"B","hex":"#3366ff99","correct":-1,"choice":32,"rt":930.1349999986123,"accuracy":0,"outcome":"+10","keys":[2430.2700000008335],"total_keys":1,"block":2,"trial":181,"robot":2,"valence":"win","action":"no-go","sham":1,"trial_type":"pit-trial","trial_index":195,"time_elapsed":1002611,"internal_node_id":"0.0-184.0","task_version":"battery-v0.1"},{"rune":"C","hex":"#3366ff99","correct":32,"choice":32,"rt":378.5700000007637,"accuracy":1,"outcome":"+10","keys":[1879.574999999022],"total_keys":1,"block":2,"trial":182,"robot":1,"valence":"win","action":"go","sham":0,"trial_type":"pit-trial","trial_index":196,"time_elapsed":1005695,"internal_node_id":"0.0-185.0","task_version":"battery-v0.1"},{"rune":"M","hex":"#f73b6a7A","correct":32,"choice":32,"rt":456.289999998291,"accuracy":1,"outcome":"-1","keys":[1957.4399999983143],"total_keys":1,"block":2,"trial":183,"robot":3,"valence":"lose","action":"go","sham":0,"trial_type":"pit-trial","trial_index":197,"time_elapsed":1008856,"internal_node_id":"0.0-186.0","task_version":"battery-v0.1"},{"rune":"E","hex":"#f73b6a7A","correct":-1,"choice":32,"rt":373.8249999987893,"accuracy":0,"outcome":"-10","keys":[1875.6150000008056],"total_keys":1,"block":2,"trial":184,"robot":4,"valence":"lose","action":"no-go","sham":0,"trial_type":"pit-trial","trial_index":198,"time_elapsed":1011936,"internal_node_id":"0.0-187.0","task_version":"battery-v0.1"},{"rune":"C","hex":"#3366ff99","correct":32,"choice":32,"rt":653.700000002631,"accuracy":1,"outcome":"+1","keys":[2155.4700000014855],"total_keys":1,"block":2,"trial":185,"robot":1,"valence":"win","action":"go","sham":1,"trial_type":"pit-trial","trial_index":199,"time_elapsed":1015296,"internal_node_id":"0.0-188.0","task_version":"battery-v0.1"},{"rune":"B","hex":"#3366ff99","correct":-1,"choice":32,"rt":527.255000000936,"accuracy":0,"outcome":"+1","keys":[2028.0000000020955],"total_keys":1,"block":2,"trial":186,"robot":2,"valence":"win","action":"no-go","sham":0,"trial_type":"pit-trial","trial_index":200,"time_elapsed":1018527,"internal_node_id":"0.0-189.0","task_version":"battery-v0.1"},{"rune":"M","hex":"#f73b6a7A","correct":32,"choice":-1,"rt":-1,"accuracy":0,"outcome":"-10","keys":[],"total_keys":0,"block":2,"trial":187,"robot":3,"valence":"lose","action":"go","sham":0,"trial_type":"pit-trial","trial_index":201,"time_elapsed":1022532,"internal_node_id":"0.0-190.0","task_version":"battery-v0.1"},{"rune":"E","hex":"#f73b6a7A","correct":-1,"choice":-1,"rt":-1,"accuracy":1,"outcome":"-1","keys":[],"total_keys":0,"block":2,"trial":188,"robot":4,"valence":"lose","action":"no-go","sham":0,"trial_type":"pit-trial","trial_index":202,"time_elapsed":1026536,"internal_node_id":"0.0-191.0","task_version":"battery-v0.1"},{"rune":"B","hex":"#3366ff99","correct":-1,"choice":32,"rt":384.0100000016391,"accuracy":0,"outcome":"+1","keys":[1885.304999999702],"total_keys":1,"block":2,"trial":189,"robot":2,"valence":"win","action":"no-go","sham":0,"trial_type":"pit-trial","trial_index":203,"time_elapsed":1029625,"internal_node_id":"0.0-192.0","task_version":"battery-v0.1"},{"rune":"E","hex":"#f73b6a7A","correct":-1,"choice":32,"rt":887.1949999993667,"accuracy":0,"outcome":"-10","keys":[2387.9249999991152],"total_keys":1,"block":2,"trial":190,"robot":4,"valence":"lose","action":"no-go","sham":0,"trial_type":"pit-trial","trial_index":204,"time_elapsed":1033216,"internal_node_id":"0.0-193.0","task_version":"battery-v0.1"},{"rune":"C","hex":"#3366ff99","correct":32,"choice":32,"rt":587.2500000004657,"accuracy":1,"outcome":"+10","keys":[2089.684999999008],"total_keys":1,"block":2,"trial":191,"robot":1,"valence":"win","action":"go","sham":0,"trial_type":"pit-trial","trial_index":205,"time_elapsed":1036511,"internal_node_id":"0.0-194.0","task_version":"battery-v0.1"},{"rune":"M","hex":"#f73b6a7A","correct":32,"choice":32,"rt":604.1750000003958,"accuracy":1,"outcome":"-1","keys":[2105.4600000024075],"total_keys":1,"block":2,"trial":192,"robot":3,"valence":"lose","action":"go","sham":0,"trial_type":"pit-trial","trial_index":206,"time_elapsed":1039819,"internal_node_id":"0.0-195.0","task_version":"battery-v0.1"},{"rune":"C","hex":"#3366ff99","correct":32,"choice":-1,"rt":-1,"accuracy":0,"outcome":"+1","keys":[],"total_keys":0,"block":2,"trial":193,"robot":1,"valence":"win","action":"go","sham":0,"trial_type":"pit-trial","trial_index":207,"time_elapsed":1043824,"internal_node_id":"0.0-196.0","task_version":"battery-v0.1"},{"rune":"Y","hex":"#f73b6a7A","correct":32,"choice":32,"rt":975.7699999972247,"accuracy":1,"outcome":"-1","keys":[2477.35499999905],"total_keys":1,"block":2,"trial":194,"robot":3,"valence":"lose","action":"go","sham":0,"trial_type":"pit-trial","trial_index":208,"time_elapsed":1047504,"internal_node_id":"0.0-197.0","task_version":"battery-v0.1"},{"rune":"E","hex":"#f73b6a7A","correct":-1,"choice":-1,"rt":-1,"accuracy":1,"outcome":"-10","keys":[],"total_keys":0,"block":2,"trial":195,"robot":4,"valence":"lose","action":"no-go","sham":1,"trial_type":"pit-trial","trial_index":209,"time_elapsed":1051510,"internal_node_id":"0.0-198.0","task_version":"battery-v0.1"},{"rune":"B","hex":"#3366ff99","correct":-1,"choice":32,"rt":457.3049999999348,"accuracy":0,"outcome":"+1","keys":[1958.4850000028964],"total_keys":1,"block":2,"trial":196,"robot":2,"valence":"win","action":"no-go","sham":0,"trial_type":"pit-trial","trial_index":210,"time_elapsed":1054671,"internal_node_id":"0.0-199.0","task_version":"battery-v0.1"},{"rune":"E","hex":"#f73b6a7A","correct":-1,"choice":32,"rt":582.8900000015274,"accuracy":0,"outcome":"-10","keys":[2084.2949999968987],"total_keys":1,"block":2,"trial":197,"robot":4,"valence":"lose","action":"no-go","sham":0,"trial_type":"pit-trial","trial_index":211,"time_elapsed":1057959,"internal_node_id":"0.0-200.0","task_version":"battery-v0.1"},{"rune":"C","hex":"#3366ff99","correct":32,"choice":32,"rt":467.36500000045635,"accuracy":1,"outcome":"+10","keys":[1968.3750000004657],"total_keys":1,"block":2,"trial":198,"robot":1,"valence":"win","action":"go","sham":0,"trial_type":"pit-trial","trial_index":212,"time_elapsed":1061131,"internal_node_id":"0.0-201.0","task_version":"battery-v0.1"},{"rune":"B","hex":"#3366ff99","correct":-1,"choice":32,"rt":576.444999998901,"accuracy":0,"outcome":"+1","keys":[2076.679999998305],"total_keys":1,"block":2,"trial":199,"robot":2,"valence":"win","action":"no-go","sham":0,"trial_type":"pit-trial","trial_index":213,"time_elapsed":1064413,"internal_node_id":"0.0-202.0","task_version":"battery-v0.1"},{"rune":"Y","hex":"#f73b6a7A","correct":32,"choice":32,"rt":856.4200000001583,"accuracy":1,"outcome":"-1","keys":[2356.965000002645],"total_keys":1,"block":2,"trial":200,"robot":3,"valence":"lose","action":"go","sham":0,"trial_type":"pit-trial","trial_index":214,"time_elapsed":1067973,"internal_node_id":"0.0-203.0","task_version":"battery-v0.1"},{"rune":"N","hex":"#f73b6a7A","correct":32,"choice":-1,"rt":-1,"accuracy":0,"outcome":"-10","keys":[],"total_keys":0,"block":2,"trial":201,"robot":3,"valence":"lose","action":"go","sham":0,"trial_type":"pit-trial","trial_index":215,"time_elapsed":1071977,"internal_node_id":"0.0-204.0","task_version":"battery-v0.1"},{"rune":"Y","hex":"#f73b6a7A","correct":32,"choice":32,"rt":298.8149999983143,"accuracy":1,"outcome":"-1","keys":[1799.184999999823],"total_keys":1,"block":2,"trial":202,"robot":3,"valence":"lose","action":"go","sham":0,"trial_type":"pit-trial","trial_index":216,"time_elapsed":1074981,"internal_node_id":"0.0-205.0","task_version":"battery-v0.1"},{"rune":"B","hex":"#3366ff99","correct":-1,"choice":32,"rt":756.4449999991339,"accuracy":0,"outcome":"+1","keys":[2257.499999999767],"total_keys":1,"block":2,"trial":203,"robot":2,"valence":"win","action":"no-go","sham":0,"trial_type":"pit-trial","trial_index":217,"time_elapsed":1078442,"internal_node_id":"0.0-206.0","task_version":"battery-v0.1"},{"rune":"E","hex":"#f73b6a7A","correct":-1,"choice":32,"rt":1052.5950000009034,"accuracy":0,"outcome":"-10","keys":[2553.0949999992736],"total_keys":1,"block":2,"trial":204,"robot":4,"valence":"lose","action":"no-go","sham":0,"trial_type":"pit-trial","trial_index":218,"time_elapsed":1082199,"internal_node_id":"0.0-207.0","task_version":"battery-v0.1"},{"rune":"Y","hex":"#f73b6a7A","correct":32,"choice":32,"rt":830.1650000028312,"accuracy":1,"outcome":"-1","keys":[2331.554999996908],"total_keys":1,"block":2,"trial":205,"robot":3,"valence":"lose","action":"go","sham":0,"trial_type":"pit-trial","trial_index":219,"time_elapsed":1085736,"internal_node_id":"0.0-208.0","task_version":"battery-v0.1"},{"rune":"N","hex":"#f73b6a7A","correct":32,"choice":32,"rt":706.0800000000745,"accuracy":1,"outcome":"-10","keys":[2207.575000000419],"total_keys":1,"block":2,"trial":206,"robot":3,"valence":"lose","action":"go","sham":1,"trial_type":"pit-trial","trial_index":220,"time_elapsed":1089147,"internal_node_id":"0.0-209.0","task_version":"battery-v0.1"},{"rune":"B","hex":"#3366ff99","correct":-1,"choice":-1,"rt":-1,"accuracy":1,"outcome":"+10","keys":[],"total_keys":0,"block":2,"trial":207,"robot":2,"valence":"win","action":"no-go","sham":0,"trial_type":"pit-trial","trial_index":221,"time_elapsed":1093151,"internal_node_id":"0.0-210.0","task_version":"battery-v0.1"},{"rune":"E","hex":"#f73b6a7A","correct":-1,"choice":-1,"rt":-1,"accuracy":1,"outcome":"-1","keys":[],"total_keys":0,"block":2,"trial":208,"robot":4,"valence":"lose","action":"no-go","sham":0,"trial_type":"pit-trial","trial_index":222,"time_elapsed":1097156,"internal_node_id":"0.0-211.0","task_version":"battery-v0.1"},{"rune":"V","hex":"#3366ff99","correct":-1,"choice":32,"rt":732.3900000008289,"accuracy":0,"outcome":"+10","keys":[2233.8600000001024],"total_keys":1,"block":2,"trial":209,"robot":2,"valence":"win","action":"no-go","sham":1,"trial_type":"pit-trial","trial_index":223,"time_elapsed":1100594,"internal_node_id":"0.0-212.0","task_version":"battery-v0.1"},{"rune":"I","hex":"#f73b6a7A","correct":-1,"choice":-1,"rt":-1,"accuracy":1,"outcome":"-10","keys":[],"total_keys":0,"block":2,"trial":210,"robot":4,"valence":"lose","action":"no-go","sham":1,"trial_type":"pit-trial","trial_index":224,"time_elapsed":1104599,"internal_node_id":"0.0-213.0","task_version":"battery-v0.1"},{"rune":"Y","hex":"#f73b6a7A","correct":32,"choice":32,"rt":1114.3199999970384,"accuracy":1,"outcome":"-10","keys":[2616.0500000005122],"total_keys":1,"block":2,"trial":211,"robot":3,"valence":"lose","action":"go","sham":1,"trial_type":"pit-trial","trial_index":225,"time_elapsed":1108419,"internal_node_id":"0.0-214.0","task_version":"battery-v0.1"},{"rune":"N","hex":"#f73b6a7A","correct":32,"choice":-1,"rt":-1,"accuracy":0,"outcome":"-10","keys":[],"total_keys":0,"block":2,"trial":212,"robot":3,"valence":"lose","action":"go","sham":0,"trial_type":"pit-trial","trial_index":226,"time_elapsed":1112425,"internal_node_id":"0.0-215.0","task_version":"battery-v0.1"},{"rune":"V","hex":"#3366ff99","correct":-1,"choice":32,"rt":460.18499999982305,"accuracy":0,"outcome":"+1","keys":[1960.709999999497],"total_keys":1,"block":2,"trial":213,"robot":2,"valence":"win","action":"no-go","sham":0,"trial_type":"pit-trial","trial_index":227,"time_elapsed":1115590,"internal_node_id":"0.0-216.0","task_version":"battery-v0.1"},{"rune":"I","hex":"#f73b6a7A","correct":-1,"choice":-1,"rt":-1,"accuracy":1,"outcome":"-10","keys":[],"total_keys":0,"block":2,"trial":214,"robot":4,"valence":"lose","action":"no-go","sham":1,"trial_type":"pit-trial","trial_index":228,"time_elapsed":1119596,"internal_node_id":"0.0-217.0","task_version":"battery-v0.1"},{"rune":"N","hex":"#f73b6a7A","correct":32,"choice":32,"rt":756.1949999979697,"accuracy":1,"outcome":"-1","keys":[2256.4149999998044],"total_keys":1,"block":2,"trial":215,"robot":3,"valence":"lose","action":"go","sham":0,"trial_type":"pit-trial","trial_index":229,"time_elapsed":1123057,"internal_node_id":"0.0-218.0","task_version":"battery-v0.1"},{"rune":"Y","hex":"#f73b6a7A","correct":32,"choice":32,"rt":1059.4550000024028,"accuracy":1,"outcome":"-1","keys":[2559.5199999988545],"total_keys":1,"block":2,"trial":216,"robot":3,"valence":"lose","action":"go","sham":0,"trial_type":"pit-trial","trial_index":230,"time_elapsed":1126820,"internal_node_id":"0.0-219.0","task_version":"battery-v0.1"},{"rune":"V","hex":"#3366ff99","correct":-1,"choice":32,"rt":411.7100000004284,"accuracy":0,"outcome":"+1","keys":[1913.1750000014435],"total_keys":1,"block":2,"trial":217,"robot":2,"valence":"win","action":"no-go","sham":0,"trial_type":"pit-trial","trial_index":231,"time_elapsed":1129936,"internal_node_id":"0.0-220.0","task_version":"battery-v0.1"},{"rune":"N","hex":"#f73b6a7A","correct":32,"choice":32,"rt":864.2449999968521,"accuracy":1,"outcome":"-1","keys":[2364.3850000009406],"total_keys":1,"block":2,"trial":218,"robot":3,"valence":"lose","action":"go","sham":0,"trial_type":"pit-trial","trial_index":232,"time_elapsed":1133505,"internal_node_id":"0.0-221.0","task_version":"battery-v0.1"},{"rune":"I","hex":"#f73b6a7A","correct":-1,"choice":-1,"rt":-1,"accuracy":1,"outcome":"-1","keys":[],"total_keys":0,"block":2,"trial":219,"robot":4,"valence":"lose","action":"no-go","sham":0,"trial_type":"pit-trial","trial_index":233,"time_elapsed":1137511,"internal_node_id":"0.0-222.0","task_version":"battery-v0.1"},{"rune":"Y","hex":"#f73b6a7A","correct":32,"choice":-1,"rt":-1,"accuracy":0,"outcome":"-10","keys":[3305.080000001937],"total_keys":1,"block":2,"trial":220,"robot":3,"valence":"lose","action":"go","sham":0,"trial_type":"pit-trial","trial_index":234,"time_elapsed":1141516,"internal_node_id":"0.0-223.0","task_version":"battery-v0.1"},{"rune":"V","hex":"#3366ff99","correct":-1,"choice":-1,"rt":-1,"accuracy":1,"outcome":"+10","keys":[],"total_keys":0,"block":2,"trial":221,"robot":2,"valence":"win","action":"no-go","sham":0,"trial_type":"pit-trial","trial_index":235,"time_elapsed":1145520,"internal_node_id":"0.0-224.0","task_version":"battery-v0.1"},{"rune":"I","hex":"#f73b6a7A","correct":-1,"choice":32,"rt":1040.3100000002887,"accuracy":0,"outcome":"-10","keys":[2541.3299999998417],"total_keys":1,"block":2,"trial":222,"robot":4,"valence":"lose","action":"no-go","sham":0,"trial_type":"pit-trial","trial_index":236,"time_elapsed":1149266,"internal_node_id":"0.0-225.0","task_version":"battery-v0.1"},{"rune":"N","hex":"#f73b6a7A","correct":32,"choice":32,"rt":293.74999999720603,"accuracy":1,"outcome":"-1","keys":[1795.429999998305],"total_keys":1,"block":2,"trial":223,"robot":3,"valence":"lose","action":"go","sham":0,"trial_type":"pit-trial","trial_index":237,"time_elapsed":1152265,"internal_node_id":"0.0-226.0","task_version":"battery-v0.1"},{"rune":"Y","hex":"#f73b6a7A","correct":32,"choice":32,"rt":425.9599999967031,"accuracy":1,"outcome":"-1","keys":[1929.7349999977741],"total_keys":1,"block":2,"trial":224,"robot":3,"valence":"lose","action":"go","sham":0,"trial_type":"pit-trial","trial_index":238,"time_elapsed":1155398,"internal_node_id":"0.0-227.0","task_version":"battery-v0.1"},{"rune":"V","hex":"#3366ff99","correct":-1,"choice":-1,"rt":-1,"accuracy":1,"outcome":"+10","keys":[],"total_keys":0,"block":2,"trial":225,"robot":2,"valence":"win","action":"no-go","sham":0,"trial_type":"pit-trial","trial_index":239,"time_elapsed":1159403,"internal_node_id":"0.0-228.0","task_version":"battery-v0.1"},{"rune":"I","hex":"#f73b6a7A","correct":-1,"choice":32,"rt":897.1149999997579,"accuracy":0,"outcome":"-10","keys":[2397.935000000987],"total_keys":1,"block":2,"trial":226,"robot":4,"valence":"lose","action":"no-go","sham":0,"trial_type":"pit-trial","trial_index":240,"time_elapsed":1163005,"internal_node_id":"0.0-229.0","task_version":"battery-v0.1"},{"rune":"Y","hex":"#f73b6a7A","correct":32,"choice":32,"rt":1000.4499999994878,"accuracy":1,"outcome":"-1","keys":[2501.2050000003073],"total_keys":1,"block":2,"trial":227,"robot":3,"valence":"lose","action":"go","sham":0,"trial_type":"pit-trial","trial_index":241,"time_elapsed":1166711,"internal_node_id":"0.0-230.0","task_version":"battery-v0.1"},{"rune":"N","hex":"#f73b6a7A","correct":32,"choice":32,"rt":1115.9950000001118,"accuracy":1,"outcome":"-1","keys":[2616.5350000008475],"total_keys":1,"block":2,"trial":228,"robot":3,"valence":"lose","action":"go","sham":0,"trial_type":"pit-trial","trial_index":242,"time_elapsed":1170531,"internal_node_id":"0.0-231.0","task_version":"battery-v0.1"},{"rune":"V","hex":"#3366ff99","correct":-1,"choice":-1,"rt":-1,"accuracy":1,"outcome":"+10","keys":[],"total_keys":0,"block":2,"trial":229,"robot":2,"valence":"win","action":"no-go","sham":0,"trial_type":"pit-trial","trial_index":243,"time_elapsed":1174537,"internal_node_id":"0.0-232.0","task_version":"battery-v0.1"},{"rune":"N","hex":"#f73b6a7A","correct":32,"choice":-1,"rt":-1,"accuracy":0,"outcome":"-10","keys":[],"total_keys":0,"block":2,"trial":230,"robot":3,"valence":"lose","action":"go","sham":0,"trial_type":"pit-trial","trial_index":244,"time_elapsed":1178541,"internal_node_id":"0.0-233.0","task_version":"battery-v0.1"},{"rune":"I","hex":"#f73b6a7A","correct":-1,"choice":-1,"rt":-1,"accuracy":1,"outcome":"-10","keys":[],"total_keys":0,"block":2,"trial":231,"robot":4,"valence":"lose","action":"no-go","sham":1,"trial_type":"pit-trial","trial_index":245,"time_elapsed":1182545,"internal_node_id":"0.0-234.0","task_version":"battery-v0.1"},{"rune":"Y","hex":"#f73b6a7A","correct":32,"choice":32,"rt":294.74499999918044,"accuracy":1,"outcome":"-1","keys":[1795.375000001397],"total_keys":1,"block":2,"trial":232,"robot":3,"valence":"lose","action":"go","sham":0,"trial_type":"pit-trial","trial_index":246,"time_elapsed":1185546,"internal_node_id":"0.0-235.0","task_version":"battery-v0.1"},{"rune":"N","hex":"#f73b6a7A","correct":32,"choice":32,"rt":336.009999999078,"accuracy":1,"outcome":"-10","keys":[1837.00499999756],"total_keys":1,"block":2,"trial":233,"robot":3,"valence":"lose","action":"go","sham":1,"trial_type":"pit-trial","trial_index":247,"time_elapsed":1188587,"internal_node_id":"0.0-236.0","task_version":"battery-v0.1"},{"rune":"Y","hex":"#f73b6a7A","correct":32,"choice":32,"rt":716.6100000031292,"accuracy":1,"outcome":"-1","keys":[2218.3449999976438],"total_keys":1,"block":2,"trial":234,"robot":3,"valence":"lose","action":"go","sham":0,"trial_type":"pit-trial","trial_index":248,"time_elapsed":1192008,"internal_node_id":"0.0-237.0","task_version":"battery-v0.1"},{"rune":"I","hex":"#f73b6a7A","correct":-1,"choice":32,"rt":1173.104999997886,"accuracy":0,"outcome":"-10","keys":[2674.5149999987334],"total_keys":1,"block":2,"trial":235,"robot":4,"valence":"lose","action":"no-go","sham":0,"trial_type":"pit-trial","trial_index":249,"time_elapsed":1195886,"internal_node_id":"0.0-238.0","task_version":"battery-v0.1"},{"rune":"V","hex":"#3366ff99","correct":-1,"choice":32,"rt":511.2399999999907,"accuracy":0,"outcome":"+1","keys":[2012.5200000002515],"total_keys":1,"block":2,"trial":236,"robot":2,"valence":"win","action":"no-go","sham":0,"trial_type":"pit-trial","trial_index":250,"time_elapsed":1199102,"internal_node_id":"0.0-239.0","task_version":"battery-v0.1"},{"rune":"V","hex":"#3366ff99","correct":-1,"choice":-1,"rt":-1,"accuracy":1,"outcome":"+10","keys":[],"total_keys":0,"block":2,"trial":237,"robot":2,"valence":"win","action":"no-go","sham":0,"trial_type":"pit-trial","trial_index":251,"time_elapsed":1203107,"internal_node_id":"0.0-240.0","task_version":"battery-v0.1"},{"rune":"I","hex":"#f73b6a7A","correct":-1,"choice":-1,"rt":-1,"accuracy":1,"outcome":"-1","keys":[],"total_keys":0,"block":2,"trial":238,"robot":4,"valence":"lose","action":"no-go","sham":0,"trial_type":"pit-trial","trial_index":252,"time_elapsed":1207111,"internal_node_id":"0.0-241.0","task_version":"battery-v0.1"},{"rune":"Y","hex":"#f73b6a7A","correct":32,"choice":32,"rt":935.9399999992456,"accuracy":1,"outcome":"-1","keys":[2437.5350000010803],"total_keys":1,"block":2,"trial":239,"robot":3,"valence":"lose","action":"go","sham":0,"trial_type":"pit-trial","trial_index":253,"time_elapsed":1210752,"internal_node_id":"0.0-242.0","task_version":"battery-v0.1"},{"rune":"N","hex":"#f73b6a7A","correct":32,"choice":-1,"rt":-1,"accuracy":0,"outcome":"-10","keys":[],"total_keys":0,"block":2,"trial":240,"robot":3,"valence":"lose","action":"go","sham":0,"trial_type":"pit-trial","trial_index":254,"time_elapsed":1214757,"internal_node_id":"0.0-243.0","task_version":"battery-v0.1"},{"view_history":"[{\"page_index\":0,\"viewing_time\":4637.249999999767}]","rt":4637.650000000605,"trial_type":"pit-instructions","trial_index":255,"time_elapsed":1219396,"internal_node_id":"0.0-244.0","task_version":"battery-v0.1"},{"rt":16924.789999997243,"responses":{"age":"32","gender-categorical":"Female","gender-free-response":"","ethnicity":"Hispanic or Latino","race":["White"],"language":"Yes","fluency":"Very well"},"survey":"demographics","trial_type":"survey-demo","trial_index":256,"time_elapsed":1236325,"internal_node_id":"0.0-245.0","task_version":"battery-v0.1"},{"rt":219738.91999999993,"responses":{"difficulty":"1","fun":"4","clarity":"4","strategy":"I tried to remember to hit the spacebar on letters from one specific color... D = no, T= no, Y = yes, etc.","feedback":"no comment"},"survey":"debrief","trial_type":"survey-debrief","trial_index":257,"time_elapsed":1456067,"internal_node_id":"0.0-246.0","task_version":"battery-v0.1","interactions":"[]"}]