[{"view_history":"[{\"page_index\":0,\"viewing_time\":2907.4849999742582},{\"page_index\":1,\"viewing_time\":3623.0649999924935},{\"page_index\":2,\"viewing_time\":1487.955000018701},{\"page_index\":3,\"viewing_time\":4102.14500001166},{\"page_index\":4,\"viewing_time\":5405.559999984689},{\"page_index\":5,\"viewing_time\":5311.044999980368}]","rt":22838.539999967907,"trial_type":"pit-instructions","trial_index":0,"time_elapsed":22879,"internal_node_id":"0.0-0.0-0.0","task_version":"battery-v0.1"},{"rune":"","hex":"#FFFFF080","correct":32,"choice":-1,"rt":-1,"accuracy":0,"outcome":"+0","keys":[3377.9600000125356],"total_keys":1,"block":0,"trial_type":"pit-trial","trial_index":1,"time_elapsed":26893,"internal_node_id":"0.0-0.0-1.0-0.0","task_version":"battery-v0.1"},{"rune":"","hex":"#FFFFF080","correct":32,"choice":-1,"rt":-1,"accuracy":0,"outcome":"+0","keys":[3596.925000019837],"total_keys":1,"block":0,"trial_type":"pit-trial","trial_index":2,"time_elapsed":30905,"internal_node_id":"0.0-0.0-1.0-0.1","task_version":"battery-v0.1"},{"rune":"","hex":"#FFFFF080","correct":32,"choice":-1,"rt":-1,"accuracy":0,"outcome":"+0","keys":[3271.1299999500625],"total_keys":1,"block":0,"trial_type":"pit-trial","trial_index":3,"time_elapsed":34916,"internal_node_id":"0.0-0.0-1.0-0.2","task_version":"battery-v0.1"},{"rune":"","hex":"#FFFFF080","correct":32,"choice":-1,"rt":-1,"accuracy":0,"outcome":"+0","keys":[],"total_keys":0,"block":0,"trial_type":"pit-trial","trial_index":4,"time_elapsed":38927,"internal_node_id":"0.0-0.0-1.0-0.3","task_version":"battery-v0.1"},{"view_history":"[{\"page_index\":0,\"viewing_time\":3503.8349999813363}]","rt":3504.2949999915436,"trial_type":"pit-instructions","trial_index":5,"time_elapsed":42436,"internal_node_id":"0.0-0.0-2.0","task_version":"battery-v0.1"},{"rune":"","hex":"#FFFFF080","correct":-1,"choice":-1,"rt":-1,"accuracy":1,"outcome":"+10","keys":[],"total_keys":0,"block":0,"trial_type":"pit-trial","trial_index":6,"time_elapsed":46448,"internal_node_id":"0.0-0.0-3.0-0.0","task_version":"battery-v0.1"},{"rune":"","hex":"#FFFFF080","correct":-1,"choice":-1,"rt":-1,"accuracy":1,"outcome":"+10","keys":[],"total_keys":0,"block":0,"trial_type":"pit-trial","trial_index":7,"time_elapsed":50459,"internal_node_id":"0.0-0.0-3.0-0.1","task_version":"battery-v0.1"},{"rune":"","hex":"#FFFFF080","correct":-1,"choice":-1,"rt":-1,"accuracy":1,"outcome":"+10","keys":[],"total_keys":0,"block":0,"trial_type":"pit-trial","trial_index":8,"time_elapsed":54467,"internal_node_id":"0.0-0.0-3.0-0.2","task_version":"battery-v0.1"},{"rune":"","hex":"#FFFFF080","correct":-1,"choice":-1,"rt":-1,"accuracy":1,"outcome":"+10","keys":[],"total_keys":0,"block":0,"trial_type":"pit-trial","trial_index":9,"time_elapsed":58478,"internal_node_id":"0.0-0.0-3.0-0.3","task_version":"battery-v0.1"},{"responses":["Press SPACE","Do nothing"],"num_errors":0,"rt":6282.04999997979,"trial_type":"pit-comprehension","trial_index":10,"time_elapsed":64767,"internal_node_id":"0.0-0.0-4.0","task_version":"battery-v0.1"},{"view_history":"[{\"page_index\":0,\"viewing_time\":3055.114999995567},{\"page_index\":1,\"viewing_time\":4416.789999988396},{\"page_index\":2,\"viewing_time\":5913.0800000275485},{\"page_index\":3,\"viewing_time\":6267.0149999903515},{\"page_index\":4,\"viewing_time\":4804.049999976996},{\"page_index\":5,\"viewing_time\":11688.175000017509},{\"page_index\":6,\"viewing_time\":9207.850000006147},{\"page_index\":7,\"viewing_time\":5829.5649999636225},{\"page_index\":8,\"viewing_time\":4027.345000009518},{\"page_index\":9,\"viewing_time\":2277.750000008382},{\"page_index\":10,\"viewing_time\":2844.165000016801}]","rt":60331.46499999566,"trial_type":"pit-instructions","trial_index":11,"time_elapsed":125107,"internal_node_id":"0.0-1.0-0.0","task_version":"battery-v0.1"},{"responses":["+10","-1","True","True"],"num_errors":0,"rt":12337.194999970961,"trial_type":"pit-comprehension","trial_index":12,"time_elapsed":137450,"internal_node_id":"0.0-1.0-1.0","task_version":"battery-v0.1"},{"view_history":"[{\"page_index\":0,\"viewing_time\":1424.2550000199117},{\"page_index\":1,\"viewing_time\":2489.594999991823}]","rt":3914.3800000310875,"trial_type":"pit-instructions","trial_index":13,"time_elapsed":141372,"internal_node_id":"0.0-2.0","task_version":"battery-v0.1"},{"rune":"Y","hex":"#f73b6a7A","correct":-1,"choice":-1,"rt":-1,"accuracy":1,"outcome":"-1","keys":[],"total_keys":0,"block":1,"trial":1,"robot":4,"valence":"lose","action":"no-go","sham":0,"trial_type":"pit-trial","trial_index":14,"time_elapsed":145385,"internal_node_id":"0.0-3.0","task_version":"battery-v0.1"},{"rune":"P","hex":"#3366ff99","correct":32,"choice":32,"rt":974.5799999800511,"accuracy":1,"outcome":"+10","keys":[2474.7150000184774],"total_keys":1,"block":1,"trial":2,"robot":1,"valence":"win","action":"go","sham":0,"trial_type":"pit-trial","trial_index":15,"time_elapsed":149069,"internal_node_id":"0.0-4.0","task_version":"battery-v0.1"},{"rune":"Z","hex":"#f73b6a7A","correct":-1,"choice":-1,"rt":-1,"accuracy":1,"outcome":"-1","keys":[],"total_keys":0,"block":1,"trial":3,"robot":4,"valence":"lose","action":"no-go","sham":0,"trial_type":"pit-trial","trial_index":16,"time_elapsed":153080,"internal_node_id":"0.0-5.0","task_version":"battery-v0.1"},{"rune":"J","hex":"#3366ff99","correct":-1,"choice":32,"rt":877.7100000297651,"accuracy":0,"outcome":"+1","keys":[2378.3400000538677],"total_keys":1,"block":1,"trial":4,"robot":2,"valence":"win","action":"no-go","sham":0,"trial_type":"pit-trial","trial_index":17,"time_elapsed":156667,"internal_node_id":"0.0-6.0","task_version":"battery-v0.1"},{"rune":"P","hex":"#3366ff99","correct":32,"choice":32,"rt":737.8400000161491,"accuracy":1,"outcome":"+10","keys":[2240.014999988489],"total_keys":1,"block":1,"trial":5,"robot":1,"valence":"win","action":"go","sham":0,"trial_type":"pit-trial","trial_index":18,"time_elapsed":160114,"internal_node_id":"0.0-7.0","task_version":"battery-v0.1"},{"rune":"J","hex":"#3366ff99","correct":-1,"choice":-1,"rt":-1,"accuracy":1,"outcome":"+10","keys":[],"total_keys":0,"block":1,"trial":6,"robot":2,"valence":"win","action":"no-go","sham":0,"trial_type":"pit-trial","trial_index":19,"time_elapsed":164125,"internal_node_id":"0.0-8.0","task_version":"battery-v0.1"},{"rune":"Y","hex":"#f73b6a7A","correct":-1,"choice":-1,"rt":-1,"accuracy":1,"outcome":"-1","keys":[],"total_keys":0,"block":1,"trial":7,"robot":4,"valence":"lose","action":"no-go","sham":0,"trial_type":"pit-trial","trial_index":20,"time_elapsed":168138,"internal_node_id":"0.0-9.0","task_version":"battery-v0.1"},{"rune":"Z","hex":"#f73b6a7A","correct":-1,"choice":-1,"rt":-1,"accuracy":1,"outcome":"-10","keys":[],"total_keys":0,"block":1,"trial":8,"robot":4,"valence":"lose","action":"no-go","sham":1,"trial_type":"pit-trial","trial_index":21,"time_elapsed":172149,"internal_node_id":"0.0-10.0","task_version":"battery-v0.1"},{"rune":"Y","hex":"#f73b6a7A","correct":-1,"choice":-1,"rt":-1,"accuracy":1,"outcome":"-10","keys":[],"total_keys":0,"block":1,"trial":9,"robot":4,"valence":"lose","action":"no-go","sham":1,"trial_type":"pit-trial","trial_index":22,"time_elapsed":176160,"internal_node_id":"0.0-11.0","task_version":"battery-v0.1"},{"rune":"J","hex":"#3366ff99","correct":-1,"choice":32,"rt":876.5600000042468,"accuracy":0,"outcome":"+10","keys":[2377.2400000016205],"total_keys":1,"block":1,"trial":10,"robot":2,"valence":"win","action":"no-go","sham":1,"trial_type":"pit-trial","trial_index":23,"time_elapsed":179748,"internal_node_id":"0.0-12.0","task_version":"battery-v0.1"},{"rune":"P","hex":"#3366ff99","correct":32,"choice":32,"rt":555.1899999845773,"accuracy":1,"outcome":"+10","keys":[2055.434999987483],"total_keys":1,"block":1,"trial":11,"robot":1,"valence":"win","action":"go","sham":0,"trial_type":"pit-trial","trial_index":24,"time_elapsed":183010,"internal_node_id":"0.0-13.0","task_version":"battery-v0.1"},{"rune":"Z","hex":"#f73b6a7A","correct":-1,"choice":-1,"rt":-1,"accuracy":1,"outcome":"-1","keys":[],"total_keys":0,"block":1,"trial":12,"robot":4,"valence":"lose","action":"no-go","sham":0,"trial_type":"pit-trial","trial_index":25,"time_elapsed":187021,"internal_node_id":"0.0-14.0","task_version":"battery-v0.1"},{"rune":"P","hex":"#3366ff99","correct":32,"choice":32,"rt":727.6399999973364,"accuracy":1,"outcome":"+10","keys":[2228.1399999628775],"total_keys":1,"block":1,"trial":13,"robot":1,"valence":"win","action":"go","sham":0,"trial_type":"pit-trial","trial_index":26,"time_elapsed":190455,"internal_node_id":"0.0-15.0","task_version":"battery-v0.1"},{"rune":"J","hex":"#3366ff99","correct":-1,"choice":32,"rt":647.8950000018813,"accuracy":0,"outcome":"+1","keys":[2148.719999997411],"total_keys":1,"block":1,"trial":14,"robot":2,"valence":"win","action":"no-go","sham":0,"trial_type":"pit-trial","trial_index":27,"time_elapsed":193814,"internal_node_id":"0.0-16.0","task_version":"battery-v0.1"},{"rune":"Z","hex":"#f73b6a7A","correct":-1,"choice":-1,"rt":-1,"accuracy":1,"outcome":"-1","keys":[],"total_keys":0,"block":1,"trial":15,"robot":4,"valence":"lose","action":"no-go","sham":0,"trial_type":"pit-trial","trial_index":28,"time_elapsed":197828,"internal_node_id":"0.0-17.0","task_version":"battery-v0.1"},{"rune":"Y","hex":"#f73b6a7A","correct":-1,"choice":-1,"rt":-1,"accuracy":1,"outcome":"-10","keys":[],"total_keys":0,"block":1,"trial":16,"robot":4,"valence":"lose","action":"no-go","sham":1,"trial_type":"pit-trial","trial_index":29,"time_elapsed":201837,"internal_node_id":"0.0-18.0","task_version":"battery-v0.1"},{"rune":"J","hex":"#3366ff99","correct":-1,"choice":32,"rt":635.2150000166148,"accuracy":0,"outcome":"+1","keys":[2135.424999985844],"total_keys":1,"block":1,"trial":17,"robot":2,"valence":"win","action":"no-go","sham":0,"trial_type":"pit-trial","trial_index":30,"time_elapsed":205179,"internal_node_id":"0.0-19.0","task_version":"battery-v0.1"},{"rune":"Z","hex":"#f73b6a7A","correct":-1,"choice":-1,"rt":-1,"accuracy":1,"outcome":"-1","keys":[],"total_keys":0,"block":1,"trial":18,"robot":4,"valence":"lose","action":"no-go","sham":0,"trial_type":"pit-trial","trial_index":31,"time_elapsed":209190,"internal_node_id":"0.0-20.0","task_version":"battery-v0.1"},{"rune":"Y","hex":"#f73b6a7A","correct":-1,"choice":32,"rt":709.015000029467,"accuracy":0,"outcome":"-10","keys":[2209.8300000070594],"total_keys":1,"block":1,"trial":19,"robot":4,"valence":"lose","action":"no-go","sham":0,"trial_type":"pit-trial","trial_index":32,"time_elapsed":212609,"internal_node_id":"0.0-21.0","task_version":"battery-v0.1"},{"rune":"P","hex":"#3366ff99","correct":32,"choice":32,"rt":516.2899999995716,"accuracy":1,"outcome":"+10","keys":[2016.414999961853],"total_keys":1,"block":1,"trial":20,"robot":1,"valence":"win","action":"go","sham":0,"trial_type":"pit-trial","trial_index":33,"time_elapsed":215831,"internal_node_id":"0.0-22.0","task_version":"battery-v0.1"},{"rune":"J","hex":"#3366ff99","correct":-1,"choice":32,"rt":715.1650000014342,"accuracy":0,"outcome":"+1","keys":[2215.5600000405684],"total_keys":1,"block":1,"trial":21,"robot":2,"valence":"win","action":"no-go","sham":0,"trial_type":"pit-trial","trial_index":34,"time_elapsed":219254,"internal_node_id":"0.0-23.0","task_version":"battery-v0.1"},{"rune":"Z","hex":"#f73b6a7A","correct":-1,"choice":-1,"rt":-1,"accuracy":1,"outcome":"-1","keys":[],"total_keys":0,"block":1,"trial":22,"robot":4,"valence":"lose","action":"no-go","sham":0,"trial_type":"pit-trial","trial_index":35,"time_elapsed":223267,"internal_node_id":"0.0-24.0","task_version":"battery-v0.1"},{"rune":"Y","hex":"#f73b6a7A","correct":-1,"choice":32,"rt":721.5049999649636,"accuracy":0,"outcome":"-10","keys":[2221.979999972973],"total_keys":1,"block":1,"trial":23,"robot":4,"valence":"lose","action":"no-go","sham":0,"trial_type":"pit-trial","trial_index":36,"time_elapsed":226697,"internal_node_id":"0.0-25.0","task_version":"battery-v0.1"},{"rune":"P","hex":"#3366ff99","correct":32,"choice":32,"rt":770.5600000335835,"accuracy":1,"outcome":"+1","keys":[2272.30499999132],"total_keys":1,"block":1,"trial":24,"robot":1,"valence":"win","action":"go","sham":1,"trial_type":"pit-trial","trial_index":37,"time_elapsed":230177,"internal_node_id":"0.0-26.0","task_version":"battery-v0.1"},{"rune":"J","hex":"#3366ff99","correct":-1,"choice":32,"rt":699.2249999893829,"accuracy":0,"outcome":"+1","keys":[2199.380000005476],"total_keys":1,"block":1,"trial":25,"robot":2,"valence":"win","action":"no-go","sham":0,"trial_type":"pit-trial","trial_index":38,"time_elapsed":233586,"internal_node_id":"0.0-27.0","task_version":"battery-v0.1"},{"rune":"P","hex":"#3366ff99","correct":32,"choice":32,"rt":747.8199999895878,"accuracy":1,"outcome":"+10","keys":[2248.180000053253],"total_keys":1,"block":1,"trial":26,"robot":1,"valence":"win","action":"go","sham":0,"trial_type":"pit-trial","trial_index":39,"time_elapsed":237042,"internal_node_id":"0.0-28.0","task_version":"battery-v0.1"},{"rune":"Y","hex":"#f73b6a7A","correct":-1,"choice":-1,"rt":-1,"accuracy":1,"outcome":"-1","keys":[],"total_keys":0,"block":1,"trial":27,"robot":4,"valence":"lose","action":"no-go","sham":0,"trial_type":"pit-trial","trial_index":40,"time_elapsed":241050,"internal_node_id":"0.0-29.0","task_version":"battery-v0.1"},{"rune":"Z","hex":"#f73b6a7A","correct":-1,"choice":-1,"rt":-1,"accuracy":1,"outcome":"-1","keys":[],"total_keys":0,"block":1,"trial":28,"robot":4,"valence":"lose","action":"no-go","sham":0,"trial_type":"pit-trial","trial_index":41,"time_elapsed":245058,"internal_node_id":"0.0-30.0","task_version":"battery-v0.1"},{"rune":"Y","hex":"#f73b6a7A","correct":-1,"choice":-1,"rt":-1,"accuracy":1,"outcome":"-10","keys":[],"total_keys":0,"block":1,"trial":29,"robot":4,"valence":"lose","action":"no-go","sham":1,"trial_type":"pit-trial","trial_index":42,"time_elapsed":249069,"internal_node_id":"0.0-31.0","task_version":"battery-v0.1"},{"rune":"P","hex":"#3366ff99","correct":32,"choice":32,"rt":612.8000000026077,"accuracy":1,"outcome":"+1","keys":[2113.450000004377],"total_keys":1,"block":1,"trial":30,"robot":1,"valence":"win","action":"go","sham":1,"trial_type":"pit-trial","trial_index":43,"time_elapsed":252390,"internal_node_id":"0.0-32.0","task_version":"battery-v0.1"},{"rune":"J","hex":"#3366ff99","correct":-1,"choice":32,"rt":764.885000011418,"accuracy":0,"outcome":"+10","keys":[2266.7399999918416],"total_keys":1,"block":1,"trial":31,"robot":2,"valence":"win","action":"no-go","sham":1,"trial_type":"pit-trial","trial_index":44,"time_elapsed":255867,"internal_node_id":"0.0-33.0","task_version":"battery-v0.1"},{"rune":"Z","hex":"#f73b6a7A","correct":-1,"choice":-1,"rt":-1,"accuracy":1,"outcome":"-10","keys":[],"total_keys":0,"block":1,"trial":32,"robot":4,"valence":"lose","action":"no-go","sham":1,"trial_type":"pit-trial","trial_index":45,"time_elapsed":259878,"internal_node_id":"0.0-34.0","task_version":"battery-v0.1"},{"rune":"J","hex":"#3366ff99","correct":-1,"choice":32,"rt":589.0200000139885,"accuracy":0,"outcome":"+1","keys":[2089.1650000121444],"total_keys":1,"block":1,"trial":33,"robot":2,"valence":"win","action":"no-go","sham":0,"trial_type":"pit-trial","trial_index":46,"time_elapsed":263173,"internal_node_id":"0.0-35.0","task_version":"battery-v0.1"},{"rune":"P","hex":"#3366ff99","correct":32,"choice":32,"rt":474.1749999811873,"accuracy":1,"outcome":"+1","keys":[1975.4100000136532],"total_keys":1,"block":1,"trial":34,"robot":1,"valence":"win","action":"go","sham":1,"trial_type":"pit-trial","trial_index":47,"time_elapsed":266358,"internal_node_id":"0.0-36.0","task_version":"battery-v0.1"},{"rune":"Y","hex":"#f73b6a7A","correct":-1,"choice":-1,"rt":-1,"accuracy":1,"outcome":"-1","keys":[],"total_keys":0,"block":1,"trial":35,"robot":4,"valence":"lose","action":"no-go","sham":0,"trial_type":"pit-trial","trial_index":48,"time_elapsed":270373,"internal_node_id":"0.0-37.0","task_version":"battery-v0.1"},{"rune":"U","hex":"#f73b6a7A","correct":32,"choice":-1,"rt":-1,"accuracy":0,"outcome":"-1","keys":[],"total_keys":0,"block":1,"trial":36,"robot":3,"valence":"lose","action":"go","sham":1,"trial_type":"pit-trial","trial_index":49,"time_elapsed":274384,"internal_node_id":"0.0-38.0","task_version":"battery-v0.1"},{"rune":"Y","hex":"#f73b6a7A","correct":-1,"choice":-1,"rt":-1,"accuracy":1,"outcome":"-1","keys":[],"total_keys":0,"block":1,"trial":37,"robot":4,"valence":"lose","action":"no-go","sham":0,"trial_type":"pit-trial","trial_index":50,"time_elapsed":278395,"internal_node_id":"0.0-39.0","task_version":"battery-v0.1"},{"rune":"J","hex":"#3366ff99","correct":-1,"choice":32,"rt":733.5549999843352,"accuracy":0,"outcome":"+10","keys":[2234.805000014603],"total_keys":1,"block":1,"trial":38,"robot":2,"valence":"win","action":"no-go","sham":1,"trial_type":"pit-trial","trial_index":51,"time_elapsed":281838,"internal_node_id":"0.0-40.0","task_version":"battery-v0.1"},{"rune":"P","hex":"#3366ff99","correct":32,"choice":32,"rt":585.7749999850057,"accuracy":1,"outcome":"+1","keys":[2087.539999978617],"total_keys":1,"block":1,"trial":39,"robot":1,"valence":"win","action":"go","sham":1,"trial_type":"pit-trial","trial_index":52,"time_elapsed":285134,"internal_node_id":"0.0-41.0","task_version":"battery-v0.1"},{"rune":"U","hex":"#f73b6a7A","correct":32,"choice":-1,"rt":-1,"accuracy":0,"outcome":"-10","keys":[],"total_keys":0,"block":1,"trial":40,"robot":3,"valence":"lose","action":"go","sham":0,"trial_type":"pit-trial","trial_index":53,"time_elapsed":289145,"internal_node_id":"0.0-42.0","task_version":"battery-v0.1"},{"rune":"U","hex":"#f73b6a7A","correct":32,"choice":32,"rt":688.8799999724142,"accuracy":1,"outcome":"-1","keys":[2189.010000030976],"total_keys":1,"block":1,"trial":41,"robot":3,"valence":"lose","action":"go","sham":0,"trial_type":"pit-trial","trial_index":54,"time_elapsed":292542,"internal_node_id":"0.0-43.0","task_version":"battery-v0.1"},{"rune":"Y","hex":"#f73b6a7A","correct":-1,"choice":32,"rt":914.504999993369,"accuracy":0,"outcome":"-10","keys":[2416.025000042282],"total_keys":1,"block":1,"trial":42,"robot":4,"valence":"lose","action":"no-go","sham":0,"trial_type":"pit-trial","trial_index":55,"time_elapsed":296164,"internal_node_id":"0.0-44.0","task_version":"battery-v0.1"},{"rune":"S","hex":"#3366ff99","correct":32,"choice":-1,"rt":-1,"accuracy":0,"outcome":"+1","keys":[],"total_keys":0,"block":1,"trial":43,"robot":1,"valence":"win","action":"go","sham":0,"trial_type":"pit-trial","trial_index":56,"time_elapsed":300173,"internal_node_id":"0.0-45.0","task_version":"battery-v0.1"},{"rune":"X","hex":"#3366ff99","correct":-1,"choice":32,"rt":954.3600000324659,"accuracy":0,"outcome":"+1","keys":[2456.63999998942],"total_keys":1,"block":1,"trial":44,"robot":2,"valence":"win","action":"no-go","sham":0,"trial_type":"pit-trial","trial_index":57,"time_elapsed":303838,"internal_node_id":"0.0-46.0","task_version":"battery-v0.1"},{"rune":"U","hex":"#f73b6a7A","correct":32,"choice":-1,"rt":-1,"accuracy":0,"outcome":"-1","keys":[],"total_keys":0,"block":1,"trial":45,"robot":3,"valence":"lose","action":"go","sham":1,"trial_type":"pit-trial","trial_index":58,"time_elapsed":307849,"internal_node_id":"0.0-47.0","task_version":"battery-v0.1"},{"rune":"X","hex":"#3366ff99","correct":-1,"choice":32,"rt":647.5249999784864,"accuracy":0,"outcome":"+1","keys":[2147.659999958705],"total_keys":1,"block":1,"trial":46,"robot":2,"valence":"win","action":"no-go","sham":0,"trial_type":"pit-trial","trial_index":59,"time_elapsed":311205,"internal_node_id":"0.0-48.0","task_version":"battery-v0.1"},{"rune":"Y","hex":"#f73b6a7A","correct":-1,"choice":-1,"rt":-1,"accuracy":1,"outcome":"-10","keys":[],"total_keys":0,"block":1,"trial":47,"robot":4,"valence":"lose","action":"no-go","sham":1,"trial_type":"pit-trial","trial_index":60,"time_elapsed":315216,"internal_node_id":"0.0-49.0","task_version":"battery-v0.1"},{"rune":"S","hex":"#3366ff99","correct":32,"choice":32,"rt":622.2800000105053,"accuracy":1,"outcome":"+10","keys":[2122.6499999756925],"total_keys":1,"block":1,"trial":48,"robot":1,"valence":"win","action":"go","sham":0,"trial_type":"pit-trial","trial_index":61,"time_elapsed":318548,"internal_node_id":"0.0-50.0","task_version":"battery-v0.1"},{"rune":"F","hex":"#f73b6a7A","correct":-1,"choice":-1,"rt":-1,"accuracy":1,"outcome":"-1","keys":[],"total_keys":0,"block":1,"trial":49,"robot":4,"valence":"lose","action":"no-go","sham":0,"trial_type":"pit-trial","trial_index":62,"time_elapsed":322559,"internal_node_id":"0.0-51.0","task_version":"battery-v0.1"},{"rune":"U","hex":"#f73b6a7A","correct":32,"choice":-1,"rt":-1,"accuracy":0,"outcome":"-10","keys":[],"total_keys":0,"block":1,"trial":50,"robot":3,"valence":"lose","action":"go","sham":0,"trial_type":"pit-trial","trial_index":63,"time_elapsed":326571,"internal_node_id":"0.0-52.0","task_version":"battery-v0.1"},{"rune":"X","hex":"#3366ff99","correct":-1,"choice":32,"rt":644.254999991972,"accuracy":0,"outcome":"+1","keys":[2144.6399999549612],"total_keys":1,"block":1,"trial":51,"robot":2,"valence":"win","action":"no-go","sham":0,"trial_type":"pit-trial","trial_index":64,"time_elapsed":329925,"internal_node_id":"0.0-53.0","task_version":"battery-v0.1"},{"rune":"S","hex":"#3366ff99","correct":32,"choice":32,"rt":726.3450000318699,"accuracy":1,"outcome":"+10","keys":[2226.5650000190362],"total_keys":1,"block":1,"trial":52,"robot":1,"valence":"win","action":"go","sham":0,"trial_type":"pit-trial","trial_index":65,"time_elapsed":333361,"internal_node_id":"0.0-54.0","task_version":"battery-v0.1"},{"rune":"S","hex":"#3366ff99","correct":32,"choice":32,"rt":789.3899999908172,"accuracy":1,"outcome":"+10","keys":[2289.7749999538064],"total_keys":1,"block":1,"trial":53,"robot":1,"valence":"win","action":"go","sham":0,"trial_type":"pit-trial","trial_index":66,"time_elapsed":336862,"internal_node_id":"0.0-55.0","task_version":"battery-v0.1"},{"rune":"U","hex":"#f73b6a7A","correct":32,"choice":-1,"rt":-1,"accuracy":0,"outcome":"-1","keys":[],"total_keys":0,"block":1,"trial":54,"robot":3,"valence":"lose","action":"go","sham":1,"trial_type":"pit-trial","trial_index":67,"time_elapsed":340873,"internal_node_id":"0.0-56.0","task_version":"battery-v0.1"},{"rune":"F","hex":"#f73b6a7A","correct":-1,"choice":-1,"rt":-1,"accuracy":1,"outcome":"-1","keys":[],"total_keys":0,"block":1,"trial":55,"robot":4,"valence":"lose","action":"no-go","sham":0,"trial_type":"pit-trial","trial_index":68,"time_elapsed":344884,"internal_node_id":"0.0-57.0","task_version":"battery-v0.1"},{"rune":"X","hex":"#3366ff99","correct":-1,"choice":32,"rt":511.2199999857694,"accuracy":0,"outcome":"+1","keys":[2013.9300000155345],"total_keys":1,"block":1,"trial":56,"robot":2,"valence":"win","action":"no-go","sham":0,"trial_type":"pit-trial","trial_index":69,"time_elapsed":348106,"internal_node_id":"0.0-58.0","task_version":"battery-v0.1"},{"rune":"F","hex":"#f73b6a7A","correct":-1,"choice":-1,"rt":-1,"accuracy":1,"outcome":"-1","keys":[],"total_keys":0,"block":1,"trial":57,"robot":4,"valence":"lose","action":"no-go","sham":0,"trial_type":"pit-trial","trial_index":70,"time_elapsed":352116,"internal_node_id":"0.0-59.0","task_version":"battery-v0.1"},{"rune":"U","hex":"#f73b6a7A","correct":32,"choice":32,"rt":799.6649999986403,"accuracy":1,"outcome":"-1","keys":[2300.794999988284],"total_keys":1,"block":1,"trial":58,"robot":3,"valence":"lose","action":"go","sham":0,"trial_type":"pit-trial","trial_index":71,"time_elapsed":355623,"internal_node_id":"0.0-60.0","task_version":"battery-v0.1"},{"rune":"X","hex":"#3366ff99","correct":-1,"choice":32,"rt":405.2650000085123,"accuracy":0,"outcome":"+1","keys":[1905.5500000249594],"total_keys":1,"block":1,"trial":59,"robot":2,"valence":"win","action":"no-go","sham":0,"trial_type":"pit-trial","trial_index":72,"time_elapsed":358738,"internal_node_id":"0.0-61.0","task_version":"battery-v0.1"},{"rune":"S","hex":"#3366ff99","correct":32,"choice":32,"rt":856.0399999842048,"accuracy":1,"outcome":"+10","keys":[2356.4499999629334],"total_keys":1,"block":1,"trial":60,"robot":1,"valence":"win","action":"go","sham":0,"trial_type":"pit-trial","trial_index":73,"time_elapsed":362305,"internal_node_id":"0.0-62.0","task_version":"battery-v0.1"},{"rune":"S","hex":"#3366ff99","correct":32,"choice":32,"rt":737.5899999751709,"accuracy":1,"outcome":"+10","keys":[2237.955000018701],"total_keys":1,"block":1,"trial":61,"robot":1,"valence":"win","action":"go","sham":0,"trial_type":"pit-trial","trial_index":74,"time_elapsed":365753,"internal_node_id":"0.0-63.0","task_version":"battery-v0.1"},{"rune":"U","hex":"#f73b6a7A","correct":32,"choice":32,"rt":783.7900000158697,"accuracy":1,"outcome":"-1","keys":[2285.889999999199],"total_keys":1,"block":1,"trial":62,"robot":3,"valence":"lose","action":"go","sham":0,"trial_type":"pit-trial","trial_index":75,"time_elapsed":369249,"internal_node_id":"0.0-64.0","task_version":"battery-v0.1"},{"rune":"F","hex":"#f73b6a7A","correct":-1,"choice":-1,"rt":-1,"accuracy":1,"outcome":"-1","keys":[],"total_keys":0,"block":1,"trial":63,"robot":4,"valence":"lose","action":"no-go","sham":0,"trial_type":"pit-trial","trial_index":76,"time_elapsed":373261,"internal_node_id":"0.0-65.0","task_version":"battery-v0.1"},{"rune":"X","hex":"#3366ff99","correct":-1,"choice":32,"rt":810.7549999840558,"accuracy":0,"outcome":"+10","keys":[2311.9949999963865],"total_keys":1,"block":1,"trial":64,"robot":2,"valence":"win","action":"no-go","sham":1,"trial_type":"pit-trial","trial_index":77,"time_elapsed":376782,"internal_node_id":"0.0-66.0","task_version":"battery-v0.1"},{"rune":"U","hex":"#f73b6a7A","correct":32,"choice":-1,"rt":-1,"accuracy":0,"outcome":"-10","keys":[],"total_keys":0,"block":1,"trial":65,"robot":3,"valence":"lose","action":"go","sham":0,"trial_type":"pit-trial","trial_index":78,"time_elapsed":380797,"internal_node_id":"0.0-67.0","task_version":"battery-v0.1"},{"rune":"X","hex":"#3366ff99","correct":-1,"choice":32,"rt":741.2350000231527,"accuracy":0,"outcome":"+1","keys":[2241.619999986142],"total_keys":1,"block":1,"trial":66,"robot":2,"valence":"win","action":"no-go","sham":0,"trial_type":"pit-trial","trial_index":79,"time_elapsed":384247,"internal_node_id":"0.0-68.0","task_version":"battery-v0.1"},{"rune":"F","hex":"#f73b6a7A","correct":-1,"choice":-1,"rt":-1,"accuracy":1,"outcome":"-1","keys":[],"total_keys":0,"block":1,"trial":67,"robot":4,"valence":"lose","action":"no-go","sham":0,"trial_type":"pit-trial","trial_index":80,"time_elapsed":388258,"internal_node_id":"0.0-69.0","task_version":"battery-v0.1"},{"rune":"S","hex":"#3366ff99","correct":32,"choice":32,"rt":705.7300000451505,"accuracy":1,"outcome":"+10","keys":[2206.080000032671],"total_keys":1,"block":1,"trial":68,"robot":1,"valence":"win","action":"go","sham":0,"trial_type":"pit-trial","trial_index":81,"time_elapsed":391672,"internal_node_id":"0.0-70.0","task_version":"battery-v0.1"},{"rune":"F","hex":"#f73b6a7A","correct":-1,"choice":-1,"rt":-1,"accuracy":1,"outcome":"-10","keys":[],"total_keys":0,"block":1,"trial":69,"robot":4,"valence":"lose","action":"no-go","sham":1,"trial_type":"pit-trial","trial_index":82,"time_elapsed":395684,"internal_node_id":"0.0-71.0","task_version":"battery-v0.1"},{"rune":"X","hex":"#3366ff99","correct":-1,"choice":32,"rt":254.480000003241,"accuracy":0,"outcome":"+10","keys":[1756.165000027977],"total_keys":1,"block":1,"trial":70,"robot":2,"valence":"win","action":"no-go","sham":1,"trial_type":"pit-trial","trial_index":83,"time_elapsed":398649,"internal_node_id":"0.0-72.0","task_version":"battery-v0.1"},{"rune":"S","hex":"#3366ff99","correct":32,"choice":-1,"rt":-1,"accuracy":0,"outcome":"+1","keys":[],"total_keys":0,"block":1,"trial":71,"robot":1,"valence":"win","action":"go","sham":0,"trial_type":"pit-trial","trial_index":84,"time_elapsed":402660,"internal_node_id":"0.0-73.0","task_version":"battery-v0.1"},{"rune":"U","hex":"#f73b6a7A","correct":32,"choice":32,"rt":837.1550000156276,"accuracy":1,"outcome":"-1","keys":[2339.4250000128523],"total_keys":1,"block":1,"trial":72,"robot":3,"valence":"lose","action":"go","sham":0,"trial_type":"pit-trial","trial_index":85,"time_elapsed":406209,"internal_node_id":"0.0-74.0","task_version":"battery-v0.1"},{"rune":"X","hex":"#3366ff99","correct":-1,"choice":32,"rt":618.4849999845028,"accuracy":0,"outcome":"+1","keys":[2118.6349999625236],"total_keys":1,"block":1,"trial":73,"robot":2,"valence":"win","action":"no-go","sham":0,"trial_type":"pit-trial","trial_index":86,"time_elapsed":409534,"internal_node_id":"0.0-75.0","task_version":"battery-v0.1"},{"rune":"G","hex":"#f73b6a7A","correct":32,"choice":-1,"rt":-1,"accuracy":0,"outcome":"-10","keys":[],"total_keys":0,"block":1,"trial":74,"robot":3,"valence":"lose","action":"go","sham":0,"trial_type":"pit-trial","trial_index":87,"time_elapsed":413549,"internal_node_id":"0.0-76.0","task_version":"battery-v0.1"},{"rune":"F","hex":"#f73b6a7A","correct":-1,"choice":32,"rt":738.0750000011176,"accuracy":0,"outcome":"-10","keys":[2238.2349999970756],"total_keys":1,"block":1,"trial":75,"robot":4,"valence":"lose","action":"no-go","sham":0,"trial_type":"pit-trial","trial_index":88,"time_elapsed":416993,"internal_node_id":"0.0-77.0","task_version":"battery-v0.1"},{"rune":"K","hex":"#3366ff99","correct":32,"choice":32,"rt":883.0150000285357,"accuracy":1,"outcome":"+10","keys":[2383.650000032503],"total_keys":1,"block":1,"trial":76,"robot":1,"valence":"win","action":"go","sham":0,"trial_type":"pit-trial","trial_index":89,"time_elapsed":420581,"internal_node_id":"0.0-78.0","task_version":"battery-v0.1"},{"rune":"K","hex":"#3366ff99","correct":32,"choice":32,"rt":759.665000019595,"accuracy":1,"outcome":"+10","keys":[2260.070000018459],"total_keys":1,"block":1,"trial":77,"robot":1,"valence":"win","action":"go","sham":0,"trial_type":"pit-trial","trial_index":90,"time_elapsed":424050,"internal_node_id":"0.0-79.0","task_version":"battery-v0.1"},{"rune":"F","hex":"#f73b6a7A","correct":-1,"choice":32,"rt":824.3700000457466,"accuracy":0,"outcome":"-10","keys":[2325.8350000251085],"total_keys":1,"block":1,"trial":78,"robot":4,"valence":"lose","action":"no-go","sham":0,"trial_type":"pit-trial","trial_index":91,"time_elapsed":427582,"internal_node_id":"0.0-80.0","task_version":"battery-v0.1"},{"rune":"X","hex":"#3366ff99","correct":-1,"choice":-1,"rt":-1,"accuracy":1,"outcome":"+10","keys":[],"total_keys":0,"block":1,"trial":79,"robot":2,"valence":"win","action":"no-go","sham":0,"trial_type":"pit-trial","trial_index":92,"time_elapsed":431592,"internal_node_id":"0.0-81.0","task_version":"battery-v0.1"},{"rune":"G","hex":"#f73b6a7A","correct":32,"choice":-1,"rt":-1,"accuracy":0,"outcome":"-10","keys":[],"total_keys":0,"block":1,"trial":80,"robot":3,"valence":"lose","action":"go","sham":0,"trial_type":"pit-trial","trial_index":93,"time_elapsed":435606,"internal_node_id":"0.0-82.0","task_version":"battery-v0.1"},{"rune":"G","hex":"#f73b6a7A","correct":32,"choice":-1,"rt":-1,"accuracy":0,"outcome":"-10","keys":[2807.6449999934994],"total_keys":1,"block":1,"trial":81,"robot":3,"valence":"lose","action":"go","sham":0,"trial_type":"pit-trial","trial_index":94,"time_elapsed":439620,"internal_node_id":"0.0-83.0","task_version":"battery-v0.1"},{"rune":"X","hex":"#3366ff99","correct":-1,"choice":32,"rt":687.0199999539182,"accuracy":0,"outcome":"+1","keys":[2187.180000008084],"total_keys":1,"block":1,"trial":82,"robot":2,"valence":"win","action":"no-go","sham":0,"trial_type":"pit-trial","trial_index":95,"time_elapsed":443016,"internal_node_id":"0.0-84.0","task_version":"battery-v0.1"},{"rune":"K","hex":"#3366ff99","correct":32,"choice":32,"rt":677.7899999869987,"accuracy":1,"outcome":"+10","keys":[2180.4600000032224],"total_keys":1,"block":1,"trial":83,"robot":1,"valence":"win","action":"go","sham":0,"trial_type":"pit-trial","trial_index":96,"time_elapsed":446406,"internal_node_id":"0.0-85.0","task_version":"battery-v0.1"},{"rune":"F","hex":"#f73b6a7A","correct":-1,"choice":32,"rt":1253.2699999865144,"accuracy":0,"outcome":"-1","keys":[2753.9799999794923],"total_keys":1,"block":1,"trial":84,"robot":4,"valence":"lose","action":"no-go","sham":1,"trial_type":"pit-trial","trial_index":97,"time_elapsed":450370,"internal_node_id":"0.0-86.0","task_version":"battery-v0.1"},{"rune":"X","hex":"#3366ff99","correct":-1,"choice":32,"rt":865.5349999899045,"accuracy":0,"outcome":"+1","keys":[2366.730000008829],"total_keys":1,"block":1,"trial":85,"robot":2,"valence":"win","action":"no-go","sham":0,"trial_type":"pit-trial","trial_index":98,"time_elapsed":453944,"internal_node_id":"0.0-87.0","task_version":"battery-v0.1"},{"rune":"F","hex":"#f73b6a7A","correct":-1,"choice":32,"rt":647.94500003336,"accuracy":0,"outcome":"-10","keys":[2148.1999999959953],"total_keys":1,"block":1,"trial":86,"robot":4,"valence":"lose","action":"no-go","sham":0,"trial_type":"pit-trial","trial_index":99,"time_elapsed":457304,"internal_node_id":"0.0-88.0","task_version":"battery-v0.1"},{"rune":"K","hex":"#3366ff99","correct":32,"choice":32,"rt":609.9750000284985,"accuracy":1,"outcome":"+10","keys":[2111.2750000320375],"total_keys":1,"block":1,"trial":87,"robot":1,"valence":"win","action":"go","sham":0,"trial_type":"pit-trial","trial_index":100,"time_elapsed":460622,"internal_node_id":"0.0-89.0","task_version":"battery-v0.1"},{"rune":"G","hex":"#f73b6a7A","correct":32,"choice":-1,"rt":-1,"accuracy":0,"outcome":"-1","keys":[],"total_keys":0,"block":1,"trial":88,"robot":3,"valence":"lose","action":"go","sham":1,"trial_type":"pit-trial","trial_index":101,"time_elapsed":464633,"internal_node_id":"0.0-90.0","task_version":"battery-v0.1"},{"rune":"G","hex":"#f73b6a7A","correct":32,"choice":-1,"rt":-1,"accuracy":0,"outcome":"-10","keys":[],"total_keys":0,"block":1,"trial":89,"robot":3,"valence":"lose","action":"go","sham":0,"trial_type":"pit-trial","trial_index":102,"time_elapsed":468646,"internal_node_id":"0.0-91.0","task_version":"battery-v0.1"},{"rune":"K","hex":"#3366ff99","correct":32,"choice":32,"rt":911.2349999486469,"accuracy":1,"outcome":"+10","keys":[2411.8649999727495],"total_keys":1,"block":1,"trial":90,"robot":1,"valence":"win","action":"go","sham":0,"trial_type":"pit-trial","trial_index":103,"time_elapsed":472268,"internal_node_id":"0.0-92.0","task_version":"battery-v0.1"},{"rune":"W","hex":"#3366ff99","correct":-1,"choice":32,"rt":767.9350000107661,"accuracy":0,"outcome":"+1","keys":[2268.8700000289828],"total_keys":1,"block":1,"trial":91,"robot":2,"valence":"win","action":"no-go","sham":0,"trial_type":"pit-trial","trial_index":104,"time_elapsed":475748,"internal_node_id":"0.0-93.0","task_version":"battery-v0.1"},{"rune":"Q","hex":"#f73b6a7A","correct":32,"choice":-1,"rt":-1,"accuracy":0,"outcome":"-10","keys":[],"total_keys":0,"block":1,"trial":92,"robot":3,"valence":"lose","action":"go","sham":0,"trial_type":"pit-trial","trial_index":105,"time_elapsed":479760,"internal_node_id":"0.0-94.0","task_version":"battery-v0.1"},{"rune":"W","hex":"#3366ff99","correct":-1,"choice":32,"rt":624.5699999853969,"accuracy":0,"outcome":"+1","keys":[2124.8600000399165],"total_keys":1,"block":1,"trial":93,"robot":2,"valence":"win","action":"no-go","sham":0,"trial_type":"pit-trial","trial_index":106,"time_elapsed":483092,"internal_node_id":"0.0-95.0","task_version":"battery-v0.1"},{"rune":"G","hex":"#f73b6a7A","correct":32,"choice":-1,"rt":-1,"accuracy":0,"outcome":"-10","keys":[],"total_keys":0,"block":1,"trial":94,"robot":3,"valence":"lose","action":"go","sham":0,"trial_type":"pit-trial","trial_index":107,"time_elapsed":487104,"internal_node_id":"0.0-96.0","task_version":"battery-v0.1"},{"rune":"K","hex":"#3366ff99","correct":32,"choice":32,"rt":688.7149999965914,"accuracy":1,"outcome":"+10","keys":[2189.7899999748915],"total_keys":1,"block":1,"trial":95,"robot":1,"valence":"win","action":"go","sham":0,"trial_type":"pit-trial","trial_index":108,"time_elapsed":490499,"internal_node_id":"0.0-97.0","task_version":"battery-v0.1"},{"rune":"Q","hex":"#f73b6a7A","correct":32,"choice":32,"rt":926.0350000113249,"accuracy":1,"outcome":"-10","keys":[2426.2450000387616],"total_keys":1,"block":1,"trial":96,"robot":3,"valence":"lose","action":"go","sham":1,"trial_type":"pit-trial","trial_index":109,"time_elapsed":494134,"internal_node_id":"0.0-98.0","task_version":"battery-v0.1"},{"rune":"Q","hex":"#f73b6a7A","correct":32,"choice":32,"rt":188.74500005040318,"accuracy":1,"outcome":"-1","keys":[1688.8799999724142],"total_keys":1,"block":1,"trial":97,"robot":3,"valence":"lose","action":"go","sham":0,"trial_type":"pit-trial","trial_index":110,"time_elapsed":497030,"internal_node_id":"0.0-99.0","task_version":"battery-v0.1"},{"rune":"G","hex":"#f73b6a7A","correct":32,"choice":32,"rt":18.01500003784895,"accuracy":1,"outcome":"-10","keys":[1519.045000022743],"total_keys":1,"block":1,"trial":98,"robot":3,"valence":"lose","action":"go","sham":1,"trial_type":"pit-trial","trial_index":111,"time_elapsed":499758,"internal_node_id":"0.0-100.0","task_version":"battery-v0.1"},{"rune":"K","hex":"#3366ff99","correct":32,"choice":32,"rt":266.3499999907799,"accuracy":1,"outcome":"+10","keys":[1359.2899999930523,1766.4700000314042,2342.594999994617],"total_keys":3,"block":1,"trial":99,"robot":1,"valence":"win","action":"go","sham":0,"trial_type":"pit-trial","trial_index":112,"time_elapsed":502730,"internal_node_id":"0.0-101.0","task_version":"battery-v0.1"},{"rune":"W","hex":"#3366ff99","correct":-1,"choice":32,"rt":326.57500001369044,"accuracy":0,"outcome":"+1","keys":[1826.85999997193,2074.354999989737,2402.4249999783933,2610.4649999761023,2810.4549999698065],"total_keys":5,"block":1,"trial":100,"robot":2,"valence":"win","action":"no-go","sham":0,"trial_type":"pit-trial","trial_index":113,"time_elapsed":505763,"internal_node_id":"0.0-102.0","task_version":"battery-v0.1"},{"rune":"W","hex":"#3366ff99","correct":-1,"choice":32,"rt":20.71000001160428,"accuracy":0,"outcome":"+10","keys":[354.0349999675527,577.3649999755435,809.5399999874644,1025.629999989178,1185.6499999994412,1521.759999974165,1665.7949999789707,1945.7599999732338,2425.7399999769405,2697.679999982938],"total_keys":10,"block":1,"trial":101,"robot":2,"valence":"win","action":"no-go","sham":1,"trial_type":"pit-trial","trial_index":114,"time_elapsed":508494,"internal_node_id":"0.0-103.0","task_version":"battery-v0.1"},{"rune":"Q","hex":"#f73b6a7A","correct":32,"choice":32,"rt":152.7749999659136,"accuracy":1,"outcome":"-1","keys":[221.8599999905564,478.7349999533035,734.2849999549799,966.1750000086613,1182.3599999770522,1438.094999990426,1654.2400000034831,1902.3399999714456,2142.5450000097044,2374.4650000007823,2614.289999997709,2830.3949999972247],"total_keys":12,"block":1,"trial":102,"robot":3,"valence":"lose","action":"go","sham":0,"trial_type":"pit-trial","trial_index":115,"time_elapsed":511359,"internal_node_id":"0.0-104.0","task_version":"battery-v0.1"},{"rune":"K","hex":"#3366ff99","correct":32,"choice":32,"rt":169.67999999178573,"accuracy":1,"outcome":"+1","keys":[285.4700000025332,494.5250000455417,717.4700000323355,981.3800000119954,1213.7300000176765,1438.605000032112,1669.8800000012852,1893.8900000066496,2133.975000004284,2357.8200000338256,2605.9300000197254,2845.8250000257976],"total_keys":12,"block":1,"trial":103,"robot":1,"valence":"win","action":"go","sham":1,"trial_type":"pit-trial","trial_index":116,"time_elapsed":514235,"internal_node_id":"0.0-105.0","task_version":"battery-v0.1"},{"rune":"G","hex":"#f73b6a7A","correct":32,"choice":32,"rt":180.9000000357628,"accuracy":1,"outcome":"-1","keys":[478.3150000148453,713.2100000162609,960.9650000347756,1185.4000000166707,1425.0849999953061,1681.3200000324287,1897.2500000381842,2137.3500000336207,2409.4800000311807,2650.320000015199,2865.120000031311],"total_keys":11,"block":1,"trial":104,"robot":3,"valence":"lose","action":"go","sham":0,"trial_type":"pit-trial","trial_index":117,"time_elapsed":517125,"internal_node_id":"0.0-106.0","task_version":"battery-v0.1"},{"rune":"K","hex":"#3366ff99","correct":32,"choice":32,"rt":41.03999998187646,"accuracy":1,"outcome":"+10","keys":[239.04499999480322,501.3799999724142,749.6599999722093,997.6249999599531,1213.9849999803118,1541.274999966845,1774.6150000020862,2038.0849999492057,2326.0299999965355,2605.93499999959],"total_keys":10,"block":1,"trial":105,"robot":1,"valence":"win","action":"go","sham":0,"trial_type":"pit-trial","trial_index":118,"time_elapsed":519878,"internal_node_id":"0.0-107.0","task_version":"battery-v0.1"},{"rune":"W","hex":"#3366ff99","correct":-1,"choice":32,"rt":186.34999997448176,"accuracy":0,"outcome":"+10","keys":[110.32500001601875,326.23000000603497,606.7649999749847,865.6499999924563,1134.6950000151992,1390.590000024531,1686.8649999960326,1902.750000008382,2182.845000002999,2447.005000023637,2702.7949999901466],"total_keys":11,"block":1,"trial":106,"robot":2,"valence":"win","action":"no-go","sham":1,"trial_type":"pit-trial","trial_index":119,"time_elapsed":522775,"internal_node_id":"0.0-108.0","task_version":"battery-v0.1"},{"rune":"Q","hex":"#f73b6a7A","correct":32,"choice":32,"rt":169.90500001702458,"accuracy":1,"outcome":"-1","keys":[71.18500000797212,318.11500003095716,589.5400000154041,853.7900000228547,1110.2650000248104,1389.545000041835,1669.9850000441074,1934.0050000464544,2214.220000023488,2493.959999992512,2749.9250000109896],"total_keys":11,"block":1,"trial":107,"robot":3,"valence":"lose","action":"go","sham":0,"trial_type":"pit-trial","trial_index":120,"time_elapsed":525654,"internal_node_id":"0.0-109.0","task_version":"battery-v0.1"},{"rune":"G","hex":"#f73b6a7A","correct":32,"choice":32,"rt":129.20999998459592,"accuracy":1,"outcome":"-1","keys":[134.4900000258349,399.1050000186078,670.4000000027008,919.5099999778904,1158.6349999997765,1630.7350000133738,1838.709999981802,2046.5349999722093,2278.6750000086613,2526.83500002604,2766.8500000145286],"total_keys":11,"block":1,"trial":108,"robot":3,"valence":"lose","action":"go","sham":0,"trial_type":"pit-trial","trial_index":121,"time_elapsed":528492,"internal_node_id":"0.0-110.0","task_version":"battery-v0.1"},{"rune":"Q","hex":"#f73b6a7A","correct":32,"choice":32,"rt":203.67499999701977,"accuracy":1,"outcome":"-1","keys":[223.35999994538724,632.7549999696203,848.3849999611266,1063.739999954123,1288.0799999693409,1487.6599999843165,1703.879999986384,1919.9649999500252,2135.7999999891035,2343.9349999534898,2565.9749999758787,2775.534999964293],"total_keys":12,"block":1,"trial":109,"robot":3,"valence":"lose","action":"go","sham":0,"trial_type":"pit-trial","trial_index":122,"time_elapsed":531402,"internal_node_id":"0.0-111.0","task_version":"battery-v0.1"},{"rune":"G","hex":"#f73b6a7A","correct":32,"choice":32,"rt":156.07500000623986,"accuracy":1,"outcome":"-1","keys":[99.75500003201887,305.07000000216067,566.835000005085,763.2149999844842,985.2550000068732,1210.1600000169128,1457.590000005439,1657.2649999870919,1920.9249999839813,2097.2750000073574,2369.3900000071153,2617.165000003297],"total_keys":12,"block":1,"trial":110,"robot":3,"valence":"lose","action":"go","sham":0,"trial_type":"pit-trial","trial_index":123,"time_elapsed":534268,"internal_node_id":"0.0-112.0","task_version":"battery-v0.1"},{"rune":"K","hex":"#3366ff99","correct":32,"choice":32,"rt":193.3100000023842,"accuracy":1,"outcome":"+10","keys":[9.124999982304871,263.98500002687797,512.2749999864027,743.9049999811687,983.9650000212714,1223.9149999804795,1440.3049999964423,1696.2250000215136,1912.2499999939464,2152.170000015758,2383.84500000393,2632.080000010319,2864.1000000061467],"total_keys":13,"block":1,"trial":111,"robot":1,"valence":"win","action":"go","sham":0,"trial_type":"pit-trial","trial_index":124,"time_elapsed":537173,"internal_node_id":"0.0-113.0","task_version":"battery-v0.1"},{"rune":"W","hex":"#3366ff99","correct":-1,"choice":32,"rt":145.4399999929592,"accuracy":0,"outcome":"+1","keys":[190.52499998360872,422.30999999446794,670.8150000195019,918.5649999999441,1174.8500000103377,1422.1699999761768,1646.7549999943003,1894.815000006929,2102.565000008326,2350.869999965653,2622.6649999734946,2814.8049999726936],"total_keys":12,"block":1,"trial":112,"robot":2,"valence":"win","action":"no-go","sham":0,"trial_type":"pit-trial","trial_index":125,"time_elapsed":540027,"internal_node_id":"0.0-114.0","task_version":"battery-v0.1"},{"rune":"K","hex":"#3366ff99","correct":32,"choice":32,"rt":76.7850000411272,"accuracy":1,"outcome":"+10","keys":[161.16499999770895,370.61500002164394,588.4749999968335,835.8550000120886,1121.370000008028,1353.3949999837205,1576.9399999990128,1825.4050000105053,2065.485000028275,2321.524999977555,2537.4750000191852],"total_keys":11,"block":1,"trial":113,"robot":1,"valence":"win","action":"go","sham":0,"trial_type":"pit-trial","trial_index":126,"time_elapsed":542813,"internal_node_id":"0.0-115.0","task_version":"battery-v0.1"},{"rune":"W","hex":"#3366ff99","correct":-1,"choice":32,"rt":146.85499999905005,"accuracy":0,"outcome":"+1","keys":[23.31000001868233,254.78000001749024,529.2200000258163,760.4300000239164,977.1800000453368,1231.255000049714,1383.025000046473,1647.365000040736,1911.3600000273436,2151.095000037458,2407.3650000500493],"total_keys":11,"block":1,"trial":114,"robot":2,"valence":"win","action":"no-go","sham":0,"trial_type":"pit-trial","trial_index":127,"time_elapsed":545668,"internal_node_id":"0.0-116.0","task_version":"battery-v0.1"},{"rune":"Q","hex":"#f73b6a7A","correct":32,"choice":32,"rt":211.55000000726432,"accuracy":1,"outcome":"-1","keys":[16.56999997794628,239.40999998012558,497.21999996108934,968.7399999820627,1191.690000006929,1479.8999999766238,1711.7149999830872,1951.424999977462,2167.604999965988,2383.819999988191,2599.864999996498,2847.8749999776483],"total_keys":12,"block":1,"trial":115,"robot":3,"valence":"lose","action":"go","sham":0,"trial_type":"pit-trial","trial_index":128,"time_elapsed":548589,"internal_node_id":"0.0-117.0","task_version":"battery-v0.1"},{"rune":"G","hex":"#f73b6a7A","correct":32,"choice":32,"rt":83.06499995524064,"accuracy":1,"outcome":"-1","keys":[159.79000000515953,398.6099999747239,646.5299999690615,887.5649999827147,1103.0749999918044,1335.1300000213087,1583.329999994021,1799.2499999818392,2023.2449999894015,2263.2749999756925,2519.1800000029616,2743.205000006128],"total_keys":12,"block":1,"trial":116,"robot":3,"valence":"lose","action":"go","sham":0,"trial_type":"pit-trial","trial_index":129,"time_elapsed":551381,"internal_node_id":"0.0-118.0","task_version":"battery-v0.1"},{"rune":"K","hex":"#3366ff99","correct":32,"choice":32,"rt":74.27000004099682,"accuracy":1,"outcome":"+10","keys":[182.98500002129003,366.5199999813922,847.4399999831803,1094.9300000211224,1335.4050000198185,1575.185000023339,1839.139999996405,2103.1199999852106,2359.150000032969,2599.099999992177],"total_keys":10,"block":1,"trial":117,"robot":1,"valence":"win","action":"go","sham":0,"trial_type":"pit-trial","trial_index":130,"time_elapsed":554163,"internal_node_id":"0.0-119.0","task_version":"battery-v0.1"},{"rune":"G","hex":"#f73b6a7A","correct":32,"choice":32,"rt":43.81000000284985,"accuracy":1,"outcome":"-1","keys":[65.95000001834705,311.95000000298023,559.8549999995157,800.8850000333041,1032.3100000387058,1288.4700000286102,1544.4500000448897,1776.305000006687,2056.2600000412203,2296.2900000275113,2560.285000014119],"total_keys":11,"block":1,"trial":118,"robot":3,"valence":"lose","action":"go","sham":0,"trial_type":"pit-trial","trial_index":131,"time_elapsed":556917,"internal_node_id":"0.0-120.0","task_version":"battery-v0.1"},{"rune":"Q","hex":"#f73b6a7A","correct":32,"choice":32,"rt":138.36499996250495,"accuracy":1,"outcome":"-10","keys":[95.27500002877787,359.06000004615635,662.39500005031,927.0200000028126,1158.655000035651,1414.000000047963,1638.4950000210665,1902.5350000010803,2166.5550000034273,2406.620000023395,2678.5450000315905],"total_keys":11,"block":1,"trial":119,"robot":3,"valence":"lose","action":"go","sham":1,"trial_type":"pit-trial","trial_index":132,"time_elapsed":559763,"internal_node_id":"0.0-121.0","task_version":"battery-v0.1"},{"rune":"W","hex":"#3366ff99","correct":-1,"choice":32,"rt":60.47500000568107,"accuracy":0,"outcome":"+10","keys":[74.67000000178814,312.1800000080839,560.6149999657646,801.949999993667,1056.6999999573454,1320.7099999999627,1560.6849999749102,1826.0749999899417,2064.535000012256,2320.884999993723,2760.74499997776],"total_keys":11,"block":1,"trial":120,"robot":2,"valence":"win","action":"no-go","sham":1,"trial_type":"pit-trial","trial_index":133,"time_elapsed":562529,"internal_node_id":"0.0-122.0","task_version":"battery-v0.1"},{"view_history":"[{\"page_index\":0,\"viewing_time\":5601.339999993797},{\"page_index\":1,\"viewing_time\":1350.4950000206009}]","rt":6952.430000004824,"trial_type":"pit-instructions","trial_index":134,"time_elapsed":569486,"internal_node_id":"0.0-123.0","task_version":"battery-v0.1"},{"rune":"N","hex":"#3366ff99","correct":-1,"choice":32,"rt":15.914999996311963,"accuracy":0,"outcome":"+1","keys":[1516.1199999856763,1746.9249999849126,1978.914999985136,2203.0399999930523,2418.9599999808706,2667.0349999913014],"total_keys":6,"block":2,"trial":121,"robot":2,"valence":"win","action":"no-go","sham":0,"trial_type":"pit-trial","trial_index":135,"time_elapsed":572214,"internal_node_id":"0.0-124.0","task_version":"battery-v0.1"},{"rune":"I","hex":"#3366ff99","correct":32,"choice":32,"rt":80.90000000083819,"accuracy":1,"outcome":"+10","keys":[190.8650000113994,445.37000003037974,671.2100000004284,916.8749999953434,1133.1800000043586,1349.660000007134,1581.3349999953061,1821.3400000240654,2061.3950000260957,2285.3849999955855,2509.355000045616,2733.3400000352412],"total_keys":12,"block":2,"trial":122,"robot":1,"valence":"win","action":"go","sham":0,"trial_type":"pit-trial","trial_index":136,"time_elapsed":575003,"internal_node_id":"0.0-125.0","task_version":"battery-v0.1"},{"rune":"T","hex":"#3366ff99","correct":32,"choice":32,"rt":170.34999997122213,"accuracy":1,"outcome":"+10","keys":[136.17499999236315,352.1249999757856,585.1449999609031,794.8099999921396,1000.1549999578856,1232.434999954421,1473.604999948293,1672.5349999614991,1904.53499997966,2128.4799999557436,2304.550000000745,2584.3199999653734,2824.4799999520183],"total_keys":13,"block":2,"trial":123,"robot":1,"valence":"win","action":"go","sham":0,"trial_type":"pit-trial","trial_index":137,"time_elapsed":577886,"internal_node_id":"0.0-126.0","task_version":"battery-v0.1"},{"rune":"M","hex":"#f73b6a7A","correct":-1,"choice":32,"rt":104.1500000283122,"accuracy":0,"outcome":"-10","keys":[196.17000001017004,428.5800000070594,612.6050000311807,887.1849999995902,1108.65000000922,1372.6500000339001,1604.700000025332,1876.6550000291318,2140.6999999890104,2388.695000030566,2696.2400000193156],"total_keys":11,"block":2,"trial":124,"robot":4,"valence":"lose","action":"no-go","sham":0,"trial_type":"pit-trial","trial_index":138,"time_elapsed":580697,"internal_node_id":"0.0-127.0","task_version":"battery-v0.1"},{"rune":"M","hex":"#f73b6a7A","correct":-1,"choice":32,"rt":141.5300000226125,"accuracy":0,"outcome":"-1","keys":[155.55999998468906,388.18499998888,651.6149999806657,868.6799999559298,1130.1699999603443,1386.2799999769777,1642.055000003893,1842.2149999532849,2090.2549999882467,2362.379999947734,2642.284999950789],"total_keys":11,"block":2,"trial":125,"robot":4,"valence":"lose","action":"no-go","sham":1,"trial_type":"pit-trial","trial_index":139,"time_elapsed":583545,"internal_node_id":"0.0-128.0","task_version":"battery-v0.1"},{"rune":"N","hex":"#3366ff99","correct":-1,"choice":32,"rt":118.51000000024214,"accuracy":0,"outcome":"+1","keys":[67.24000000394881,363.9499999699183,610.2799999644049,866.7049999930896,1122.7249999647029,1370.5999999656342,1618.784999998752,1898.769999970682,2130.9999999939464,2418.7950000050478,2690.729999972973],"total_keys":11,"block":2,"trial":126,"robot":2,"valence":"win","action":"no-go","sham":0,"trial_type":"pit-trial","trial_index":140,"time_elapsed":586371,"internal_node_id":"0.0-129.0","task_version":"battery-v0.1"},{"rune":"I","hex":"#3366ff99","correct":32,"choice":32,"rt":171.81500000879169,"accuracy":1,"outcome":"+10","keys":[88.17999996244907,343.4300000080839,591.8899999815039,839.7249999688938,1072.1299999859184,1672.0099999802187,1903.9650000049733,2167.940000013914,2575.879999960307],"total_keys":9,"block":2,"trial":127,"robot":1,"valence":"win","action":"go","sham":0,"trial_type":"pit-trial","trial_index":141,"time_elapsed":589253,"internal_node_id":"0.0-130.0","task_version":"battery-v0.1"},{"rune":"T","hex":"#3366ff99","correct":32,"choice":32,"rt":400.7800000254065,"accuracy":1,"outcome":"+10","keys":[198.92500003334135,440.1300000026822,662.9650000249967,862.8449999960139,1206.6750000230968,1902.3400000296533,2158.4600000060163,2398.3550000120886,2646.535000007134,2894.360000034794],"total_keys":10,"block":2,"trial":128,"robot":1,"valence":"win","action":"go","sham":0,"trial_type":"pit-trial","trial_index":142,"time_elapsed":592363,"internal_node_id":"0.0-131.0","task_version":"battery-v0.1"},{"rune":"M","hex":"#f73b6a7A","correct":-1,"choice":32,"rt":145.42999997502193,"accuracy":0,"outcome":"-1","keys":[63.855000014882535,376.9099999917671,641.1599999992177,895.3200000105426,1151.3949999934994,1399.1800000076182,1647.3699999623932,1903.2250000163913,2143.3599999872968,2383.334999962244,2639.8300000000745],"total_keys":11,"block":2,"trial":129,"robot":4,"valence":"lose","action":"no-go","sham":1,"trial_type":"pit-trial","trial_index":143,"time_elapsed":595219,"internal_node_id":"0.0-132.0","task_version":"battery-v0.1"},{"rune":"T","hex":"#3366ff99","correct":32,"choice":32,"rt":27.549999998882413,"accuracy":1,"outcome":"+10","keys":[24.464999965857714,271.72499999869615,529.9399999785237,792.4900000216439,1048.160000005737,1303.9499999722466,1527.7849999838509,1768.0950000067241,2032.0749999955297,2287.919999973383,2536.015000019688],"total_keys":11,"block":2,"trial":130,"robot":1,"valence":"win","action":"go","sham":0,"trial_type":"pit-trial","trial_index":144,"time_elapsed":597953,"internal_node_id":"0.0-133.0","task_version":"battery-v0.1"},{"rune":"N","hex":"#3366ff99","correct":-1,"choice":32,"rt":117.98999999882653,"accuracy":0,"outcome":"+1","keys":[65.91000000480562,340.02000000327826,610.7299999566749,891.6099999914877,1162.384999974165,1394.5749999838881,1618.2799999951385,1866.394999960903,2130.369999969844,2402.5849999743514,2690.7199999550357],"total_keys":11,"block":2,"trial":131,"robot":2,"valence":"win","action":"no-go","sham":0,"trial_type":"pit-trial","trial_index":145,"time_elapsed":600780,"internal_node_id":"0.0-134.0","task_version":"battery-v0.1"},{"rune":"I","hex":"#3366ff99","correct":32,"choice":32,"rt":105.93499999959022,"accuracy":1,"outcome":"+10","keys":[134.79999999981374,382.6300000073388,614.5499999984168,863.405000010971,1103.3900000038557,1343.3399999630637,1607.1699999738485,1863.6399999959394,2063.269999984186,2270.9349999786355,2519.2650000099093,2767.2399999573827],"total_keys":12,"block":2,"trial":132,"robot":1,"valence":"win","action":"go","sham":0,"trial_type":"pit-trial","trial_index":146,"time_elapsed":603593,"internal_node_id":"0.0-135.0","task_version":"battery-v0.1"},{"rune":"T","hex":"#3366ff99","correct":32,"choice":32,"rt":117.09000001428649,"accuracy":1,"outcome":"+1","keys":[203.46500002779067,441.8500000028871,641.8700000504032,884.0900000068359,1105.7550000259653,1337.775000021793,1617.7950000273995,1881.905000016559,2050.1400000066496,2218.0600000428967,2561.8350000004284,2769.9850000208244],"total_keys":12,"block":2,"trial":133,"robot":1,"valence":"win","action":"go","sham":1,"trial_type":"pit-trial","trial_index":147,"time_elapsed":606417,"internal_node_id":"0.0-136.0","task_version":"battery-v0.1"},{"rune":"M","hex":"#f73b6a7A","correct":-1,"choice":32,"rt":149.61000002222136,"accuracy":0,"outcome":"-10","keys":[129.77500003762543,610.0999999907799,762.0849999948405,961.7500000167638,1194.1250000381842,1465.9000000101514,1649.6449999976903,1962.0449999929406,2113.9900000416674,2378.160000022035,2594.0300000365824,2834.1350000118837],"total_keys":12,"block":2,"trial":134,"robot":4,"valence":"lose","action":"no-go","sham":0,"trial_type":"pit-trial","trial_index":148,"time_elapsed":609273,"internal_node_id":"0.0-137.0","task_version":"battery-v0.1"},{"rune":"I","hex":"#3366ff99","correct":32,"choice":32,"rt":75.97000000532717,"accuracy":1,"outcome":"+10","keys":[234.03499997220933,466.6250000009313,714.3899999791756,946.7599999625236,1171.1749999667518,1386.7650000029244,1578.479999967385,1826.4499999932013,2026.3500000000931,2250.419999996666,2514.439999999013,2746.38500000583],"total_keys":12,"block":2,"trial":135,"robot":1,"valence":"win","action":"go","sham":0,"trial_type":"pit-trial","trial_index":149,"time_elapsed":612059,"internal_node_id":"0.0-138.0","task_version":"battery-v0.1"},{"rune":"N","hex":"#3366ff99","correct":-1,"choice":32,"rt":235.33000005409122,"accuracy":0,"outcome":"+10","keys":[232.31499997200444,487.2299999697134,751.479999977164,983.8749999762513,1223.5149999614805,1480.9499999973923,1735.4849999537691,2015.5549999908544,2263.6099999654107,2527.4849999696016,2775.4199999617413],"total_keys":11,"block":2,"trial":136,"robot":2,"valence":"win","action":"no-go","sham":1,"trial_type":"pit-trial","trial_index":150,"time_elapsed":615002,"internal_node_id":"0.0-139.0","task_version":"battery-v0.1"},{"rune":"I","hex":"#3366ff99","correct":32,"choice":32,"rt":108.02000004332513,"accuracy":1,"outcome":"+10","keys":[104.12500001257285,368.48500004271045,601.0400000377558,889.2350000096485,1120.1550000114366,1368.2950000511482,1608.3199999993667,1944.225000042934,2152.3250000318512,2392.2200000379235,2639.9250000249594],"total_keys":11,"block":2,"trial":137,"robot":1,"valence":"win","action":"go","sham":0,"trial_type":"pit-trial","trial_index":151,"time_elapsed":617817,"internal_node_id":"0.0-140.0","task_version":"battery-v0.1"},{"rune":"T","hex":"#3366ff99","correct":32,"choice":32,"rt":402.8950000065379,"accuracy":1,"outcome":"+10","keys":[88.54500000597909,336.5800000028685,617.0750000164844,890.4550000443123,1169.1600000485778,1425.9850000380538,1905.170000041835,2121.065000013914,2409.155000001192,2681.0800000093877,2937.1200000168756],"total_keys":11,"block":2,"trial":138,"robot":1,"valence":"win","action":"go","sham":0,"trial_type":"pit-trial","trial_index":152,"time_elapsed":620932,"internal_node_id":"0.0-141.0","task_version":"battery-v0.1"},{"rune":"M","hex":"#f73b6a7A","correct":-1,"choice":32,"rt":226.64999996777624,"accuracy":0,"outcome":"-10","keys":[89.28000001469627,382.6400000252761,631.0149999917485,904.5749999932013,1174.9050000216812,1438.9700000174344,1726.844999997411,1999.0700000198558,2270.8800000254996,2567.0249999966472,2807.0300000254065],"total_keys":11,"block":2,"trial":139,"robot":4,"valence":"lose","action":"no-go","sham":0,"trial_type":"pit-trial","trial_index":153,"time_elapsed":623869,"internal_node_id":"0.0-142.0","task_version":"battery-v0.1"},{"rune":"N","hex":"#3366ff99","correct":-1,"choice":32,"rt":288.21500000776723,"accuracy":0,"outcome":"+1","keys":[134.105000004638,711.490000016056,973.195000027772,1229.425000026822,1501.0849999962375,1789.3850000109524,2045.589999994263,2293.4000000241213,2556.975000014063,2765.049999987241],"total_keys":10,"block":2,"trial":140,"robot":2,"valence":"win","action":"no-go","sham":0,"trial_type":"pit-trial","trial_index":154,"time_elapsed":626866,"internal_node_id":"0.0-143.0","task_version":"battery-v0.1"},{"rune":"N","hex":"#3366ff99","correct":-1,"choice":32,"rt":147.83000003080815,"accuracy":0,"outcome":"+1","keys":[25.974999996833503,313.2949999999255,505.84499997785315,712.340000027325,880.1049999892712,1127.9900000081398,1383.94500000868,1648.2050000340678,1856.2500000116415,2096.1499999975786,2336.1649999860674,2616.295000014361,2832.185000006575],"total_keys":13,"block":2,"trial":141,"robot":2,"valence":"win","action":"no-go","sham":0,"trial_type":"pit-trial","trial_index":155,"time_elapsed":629722,"internal_node_id":"0.0-144.0","task_version":"battery-v0.1"},{"rune":"M","hex":"#f73b6a7A","correct":-1,"choice":32,"rt":232.76500002248213,"accuracy":0,"outcome":"-10","keys":[215.5600000405684,447.21500005107373,702.7300000190735,966.9850000063889,1231.4300000434741,1479.4750000000931,1735.3100000182167,2007.2350000264123,2279.6800000360236,2527.445000014268,2807.345000037458],"total_keys":11,"block":2,"trial":142,"robot":4,"valence":"lose","action":"no-go","sham":0,"trial_type":"pit-trial","trial_index":156,"time_elapsed":632664,"internal_node_id":"0.0-145.0","task_version":"battery-v0.1"},{"rune":"I","hex":"#3366ff99","correct":32,"choice":32,"rt":5.454999976791441,"accuracy":1,"outcome":"+1","keys":[148.23499997146428,428.684999991674,658.1949999672361,930.7399999815971,1220.885000017006,1506.2100000213832,1770.5950000090525,2026.7800000146963,2290.7949999789707,2546.5199999744073],"total_keys":10,"block":2,"trial":143,"robot":1,"valence":"win","action":"go","sham":1,"trial_type":"pit-trial","trial_index":157,"time_elapsed":635377,"internal_node_id":"0.0-146.0","task_version":"battery-v0.1"},{"rune":"T","hex":"#3366ff99","correct":32,"choice":32,"rt":22.114999999757856,"accuracy":1,"outcome":"+10","keys":[237.13999998290092,481.03999998420477,721.4249999960884,993.6699999962002,1258.350000018254,1522.6549999788404,1753.0900000128895,2009.154999977909,2249.0949999773875,2409.14000000339,2721.045000012964],"total_keys":11,"block":2,"trial":144,"robot":1,"valence":"win","action":"go","sham":0,"trial_type":"pit-trial","trial_index":158,"time_elapsed":638105,"internal_node_id":"0.0-147.0","task_version":"battery-v0.1"},{"rune":"T","hex":"#3366ff99","correct":32,"choice":32,"rt":235.4349999804981,"accuracy":1,"outcome":"+10","keys":[258.45000002300367,448.89499997952953,968.6900000087917,1184.9050000309944,1464.574999990873,1736.8400000268593,2016.9650000170805,2377.054999989923,2641.1000000080094,2913.040000014007],"total_keys":10,"block":2,"trial":145,"robot":1,"valence":"win","action":"go","sham":0,"trial_type":"pit-trial","trial_index":159,"time_elapsed":641050,"internal_node_id":"0.0-148.0","task_version":"battery-v0.1"},{"rune":"I","hex":"#3366ff99","correct":32,"choice":32,"rt":42.37999999895692,"accuracy":1,"outcome":"+1","keys":[247.2900000284426,544.0100000123493,782.9050000291318,1046.935000049416,1287.3100000433624,1543.4550000354648,1791.5350000257604,1991.4800000260584,2255.265000043437,2503.5100000095554],"total_keys":10,"block":2,"trial":146,"robot":1,"valence":"win","action":"go","sham":1,"trial_type":"pit-trial","trial_index":160,"time_elapsed":643800,"internal_node_id":"0.0-149.0","task_version":"battery-v0.1"},{"rune":"N","hex":"#3366ff99","correct":-1,"choice":32,"rt":155.6699999491684,"accuracy":0,"outcome":"+1","keys":[0.13000000035390258,234.43999997107312,488.69500000728294,761.7549999849871,999.9899999820627,1464.5049999817275,1655.7799999718554,1943.6899999855086,2200.7250000024214,2488.454999984242,2760.100000014063],"total_keys":11,"block":2,"trial":147,"robot":2,"valence":"win","action":"no-go","sham":0,"trial_type":"pit-trial","trial_index":161,"time_elapsed":646668,"internal_node_id":"0.0-150.0","task_version":"battery-v0.1"},{"rune":"M","hex":"#f73b6a7A","correct":-1,"choice":32,"rt":31.614999985322356,"accuracy":0,"outcome":"-10","keys":[301.27499997615814,582.4149999534711,840.4149999842048,1534.1199999675155,1822.0349999610335,2302.7849999489263,2574.1699999780394],"total_keys":7,"block":2,"trial":148,"robot":4,"valence":"lose","action":"no-go","sham":0,"trial_type":"pit-trial","trial_index":162,"time_elapsed":649409,"internal_node_id":"0.0-151.0","task_version":"battery-v0.1"},{"rune":"M","hex":"#f73b6a7A","correct":-1,"choice":32,"rt":72.47499999357387,"accuracy":0,"outcome":"-10","keys":[80.1849999697879,352.9799999669194,599.9050000100397,848.0349999736063,1080.019999993965,1327.8249999857508,1575.4200000083074,1824.0099999820814,2064.0649999841116,2312.0249999919906,2607.6950000133365],"total_keys":11,"block":2,"trial":149,"robot":4,"valence":"lose","action":"no-go","sham":0,"trial_type":"pit-trial","trial_index":163,"time_elapsed":652195,"internal_node_id":"0.0-152.0","task_version":"battery-v0.1"},{"rune":"N","hex":"#3366ff99","correct":-1,"choice":32,"rt":227.14000003179535,"accuracy":0,"outcome":"+1","keys":[87.5450000166893,384.2750000185333,630.33000001451,910.2100000018254,1174.7600000235252,1470.5550000071526,1727.6500000152737,1958.9700000360608,2198.870000021998,2462.7050000126474,2734.794999996666],"total_keys":11,"block":2,"trial":150,"robot":2,"valence":"win","action":"no-go","sham":0,"trial_type":"pit-trial","trial_index":164,"time_elapsed":655131,"internal_node_id":"0.0-153.0","task_version":"battery-v0.1"},{"rune":"I","hex":"#3366ff99","correct":32,"choice":32,"rt":145.19999996991828,"accuracy":1,"outcome":"+10","keys":[61.999999976251274,325.8899999782443,591.9349999749102,862.0249999803491,1118.0750000057742,1398.1199999689125,1646.0999999544583,1926.099999982398,2198.054999986198,2453.899999964051,2694.5149999810383],"total_keys":11,"block":2,"trial":151,"robot":1,"valence":"win","action":"go","sham":0,"trial_type":"pit-trial","trial_index":165,"time_elapsed":657984,"internal_node_id":"0.0-154.0","task_version":"battery-v0.1"},{"rune":"T","hex":"#3366ff99","correct":32,"choice":32,"rt":228.36499998811632,"accuracy":1,"outcome":"+10","keys":[5.529999965801835,314.7049999679439,584.5099999569356,904.6000000089407,1160.8199999900535,1440.1599999982864,1728.579999995418,1977.1199999959208,2280.724999960512,2576.665000000503,2888.760000001639],"total_keys":11,"block":2,"trial":152,"robot":1,"valence":"win","action":"go","sham":0,"trial_type":"pit-trial","trial_index":166,"time_elapsed":660920,"internal_node_id":"0.0-155.0","task_version":"battery-v0.1"},{"rune":"N","hex":"#3366ff99","correct":-1,"choice":32,"rt":100.8000000147149,"accuracy":0,"outcome":"+1","keys":[201.04999997420236,481.23500001383945,777.509999985341,1057.329999981448,1329.4650000170805,1601.6950000193901,1873.4350000158884,2161.5449999808334,2433.1549999769777,2713.125000009313],"total_keys":10,"block":2,"trial":153,"robot":2,"valence":"win","action":"no-go","sham":0,"trial_type":"pit-trial","trial_index":167,"time_elapsed":663729,"internal_node_id":"0.0-156.0","task_version":"battery-v0.1"},{"rune":"M","hex":"#f73b6a7A","correct":-1,"choice":32,"rt":92.03500003786758,"accuracy":0,"outcome":"-1","keys":[208.15999998012558,473.27999997651204,775.6249999511056,1058.5599999758415,1343.4199999901466,1592.029999999795,2127.6450000004843,2391.994999954477,2647.7799999993294],"total_keys":9,"block":2,"trial":154,"robot":4,"valence":"lose","action":"no-go","sham":1,"trial_type":"pit-trial","trial_index":168,"time_elapsed":666527,"internal_node_id":"0.0-157.0","task_version":"battery-v0.1"},{"rune":"D","hex":"#3366ff99","correct":32,"choice":32,"rt":45.80999998142943,"accuracy":1,"outcome":"+10","keys":[130.80500002251938,410.3250000043772,690.3600000077859,977.855000004638,1266.2100000306964,1545.8900000085123,1834.325000003446,2130.2550000254996,2378.2800000044517,2658.385000017006],"total_keys":10,"block":2,"trial":155,"robot":1,"valence":"win","action":"go","sham":0,"trial_type":"pit-trial","trial_index":169,"time_elapsed":669283,"internal_node_id":"0.0-158.0","task_version":"battery-v0.1"},{"rune":"I","hex":"#3366ff99","correct":32,"choice":32,"rt":81.64500002749264,"accuracy":1,"outcome":"+10","keys":[190.62500004656613,442.14500003727153,741.9850000296719,1023.7650000490248,1309.7950000083074,1582.0750000420958,1853.9250000030734,2142.435000045225,2397.6350000011735,2654.0200000163168],"total_keys":10,"block":2,"trial":156,"robot":1,"valence":"win","action":"go","sham":0,"trial_type":"pit-trial","trial_index":170,"time_elapsed":672076,"internal_node_id":"0.0-159.0","task_version":"battery-v0.1"},{"rune":"N","hex":"#3366ff99","correct":-1,"choice":32,"rt":192.29499995708466,"accuracy":0,"outcome":"+1","keys":[132.86999997217208,407.1099999709986,655.0050000078045,917.139999975916,1189.0399999683723,1438.7649999698624,1693.3899999712594,2205.2749999566004,2333.359999989625,2621.3499999721535],"total_keys":10,"block":2,"trial":157,"robot":2,"valence":"win","action":"no-go","sham":0,"trial_type":"pit-trial","trial_index":171,"time_elapsed":674977,"internal_node_id":"0.0-160.0","task_version":"battery-v0.1"},{"rune":"I","hex":"#3366ff99","correct":32,"choice":32,"rt":171.41500004800037,"accuracy":1,"outcome":"+10","keys":[159.56500003812835,439.89000003784895,704.1850000387058,919.7649999987334,1431.9350000005215,1671.695000026375,1848.3700000215322,2176.050000009127,2456.304999999702,2695.990000036545],"total_keys":10,"block":2,"trial":158,"robot":1,"valence":"win","action":"go","sham":0,"trial_type":"pit-trial","trial_index":172,"time_elapsed":677857,"internal_node_id":"0.0-161.0","task_version":"battery-v0.1"},{"rune":"D","hex":"#3366ff99","correct":32,"choice":32,"rt":251.47499999729916,"accuracy":1,"outcome":"+1","keys":[113.89500001678243,336.1700000241399,584.2050000210293,767.9800000041723,1032.4150000233203,1255.7050000177696,1456.8350000190549,1751.8750000162981,2048.0400000233203,2535.7500000391155,2791.770000010729],"total_keys":11,"block":2,"trial":159,"robot":1,"valence":"win","action":"go","sham":1,"trial_type":"pit-trial","trial_index":173,"time_elapsed":680818,"internal_node_id":"0.0-162.0","task_version":"battery-v0.1"},{"rune":"M","hex":"#f73b6a7A","correct":-1,"choice":32,"rt":465.9049999900162,"accuracy":0,"outcome":"-10","keys":[79.43499996326864,377.21499998588115,640.7899999758229,902.9449999798089,1191.4099999703467,1431.194999953732,1967.4949999898672,2151.8449999857694,2439.814999990631,2679.4799999915995,2999.469999980647],"total_keys":11,"block":2,"trial":160,"robot":4,"valence":"lose","action":"no-go","sham":0,"trial_type":"pit-trial","trial_index":174,"time_elapsed":683993,"internal_node_id":"0.0-163.0","task_version":"battery-v0.1"},{"rune":"C","hex":"#f73b6a7A","correct":-1,"choice":32,"rt":73.5650000278838,"accuracy":0,"outcome":"-10","keys":[39.5649999845773,361.27499997382984,551.9249999779277,841.7999999946915,1063.480000011623,1304.119999986142,1576.0550000122748,1800.0400000019,2088.014999986626,2264.020000002347,2511.9449999765493,2744.0150000038557],"total_keys":12,"block":2,"trial":161,"robot":4,"valence":"lose","action":"no-go","sham":0,"trial_type":"pit-trial","trial_index":175,"time_elapsed":686775,"internal_node_id":"0.0-164.0","task_version":"battery-v0.1"},{"rune":"D","hex":"#3366ff99","correct":32,"choice":32,"rt":158.14999997382984,"accuracy":1,"outcome":"+10","keys":[442.54000001819804,674.4150000158697,881.5550000290386,1162.1049999957904,1394.0700000384822,1658.2150000031106,1850.1000000396743,2138.130000035744,2314.0950000379235,2602.1850000252016,2850.1650000107475],"total_keys":11,"block":2,"trial":162,"robot":1,"valence":"win","action":"go","sham":0,"trial_type":"pit-trial","trial_index":176,"time_elapsed":689641,"internal_node_id":"0.0-165.0","task_version":"battery-v0.1"},{"rune":"N","hex":"#3366ff99","correct":-1,"choice":32,"rt":84.1249999939464,"accuracy":0,"outcome":"+1","keys":[265.8299999893643,488.47500002011657,775.6500000250526,1016.5750000160187,1304.2249999707565,1584.229999978561,1864.2850000178441,2120.259999996051,2408.289999992121,2656.0949999839067],"total_keys":10,"block":2,"trial":163,"robot":2,"valence":"win","action":"no-go","sham":0,"trial_type":"pit-trial","trial_index":177,"time_elapsed":692433,"internal_node_id":"0.0-166.0","task_version":"battery-v0.1"},{"rune":"H","hex":"#f73b6a7A","correct":32,"choice":32,"rt":83.17499997792765,"accuracy":1,"outcome":"-1","keys":[119.63999998988584,391.07999997213483,607.2799999965355,878.9499999838881,1135.2999999653548,1399.65499995742,1583.379999967292,1815.3999999631196,2087.3199999914505,2359.424999973271,2591.4449999690987],"total_keys":11,"block":2,"trial":164,"robot":3,"valence":"lose","action":"go","sham":0,"trial_type":"pit-trial","trial_index":178,"time_elapsed":695226,"internal_node_id":"0.0-167.0","task_version":"battery-v0.1"},{"rune":"N","hex":"#3366ff99","correct":-1,"choice":32,"rt":130.82999998005107,"accuracy":0,"outcome":"+1","keys":[72.69499998074025,354.189999983646,632.2950000176206,871.1800000164658,1119.3199999979697,1375.7449999684468,1631.3649999792688,1943.8000000081956,2223.645000020042,2471.3149999734014,2783.32499996759],"total_keys":11,"block":2,"trial":165,"robot":2,"valence":"win","action":"no-go","sham":0,"trial_type":"pit-trial","trial_index":179,"time_elapsed":698064,"internal_node_id":"0.0-168.0","task_version":"battery-v0.1"},{"rune":"H","hex":"#f73b6a7A","correct":32,"choice":32,"rt":188.0700000328943,"accuracy":1,"outcome":"-1","keys":[168.60999999335036,432.32500000158325,658.4450000082143,912.6699999906123,1168.935000023339,1432.2599999723025,1688.7550000101328,1960.8250000164844,2216.840000008233,2464.800000016112,2712.939999997616],"total_keys":11,"block":2,"trial":166,"robot":3,"valence":"lose","action":"go","sham":0,"trial_type":"pit-trial","trial_index":180,"time_elapsed":700961,"internal_node_id":"0.0-169.0","task_version":"battery-v0.1"},{"rune":"D","hex":"#3366ff99","correct":32,"choice":32,"rt":67.45000003138557,"accuracy":1,"outcome":"+10","keys":[47.309999994467944,295.38500000489876,568.8850000151433,792.0199999934994,1039.4150000065565,1287.8550000023097,1568.0500000016764,1816.3550000172108,2055.7600000174716,2343.880000000354,2568.024999985937],"total_keys":11,"block":2,"trial":167,"robot":1,"valence":"win","action":"go","sham":0,"trial_type":"pit-trial","trial_index":181,"time_elapsed":703735,"internal_node_id":"0.0-170.0","task_version":"battery-v0.1"},{"rune":"C","hex":"#f73b6a7A","correct":-1,"choice":32,"rt":149.0450000273995,"accuracy":0,"outcome":"-10","keys":[64.67999995220453,329.4499999610707,593.8549999846146,857.6999999932013,1129.099999961909,1376.9849999807775,1649.0800000028685,1889.069999975618,2145.264999999199,2425.279999966733,2649.359999981243],"total_keys":11,"block":2,"trial":168,"robot":4,"valence":"lose","action":"no-go","sham":0,"trial_type":"pit-trial","trial_index":182,"time_elapsed":706594,"internal_node_id":"0.0-171.0","task_version":"battery-v0.1"},{"rune":"B","hex":"#3366ff99","correct":-1,"choice":32,"rt":56.274999980814755,"accuracy":0,"outcome":"+10","keys":[77.88499997695908,325.7500000181608,558.4399999934249,806.8699999712408,1045.9499999997206,1302.335000014864,1557.3350000195205,1805.884999979753,2070.0049999868497,2294.0599999856204,2541.9199999887496],"total_keys":11,"block":2,"trial":169,"robot":2,"valence":"win","action":"no-go","sham":1,"trial_type":"pit-trial","trial_index":183,"time_elapsed":709360,"internal_node_id":"0.0-172.0","task_version":"battery-v0.1"},{"rune":"C","hex":"#f73b6a7A","correct":-1,"choice":32,"rt":180.61000003945082,"accuracy":0,"outcome":"-10","keys":[24.015000031795353,264.85999999567866,511.1950000282377,735.7049999991432,983.8650000165217,1215.6299999915063,1455.2649999968708,1681.1299999826588,1911.774999985937,2207.845000026282,2479.9000000348315,2752.0300000323914],"total_keys":12,"block":2,"trial":170,"robot":4,"valence":"lose","action":"no-go","sham":0,"trial_type":"pit-trial","trial_index":184,"time_elapsed":712248,"internal_node_id":"0.0-173.0","task_version":"battery-v0.1"},{"rune":"H","hex":"#f73b6a7A","correct":32,"choice":32,"rt":52.084999973885715,"accuracy":1,"outcome":"-1","keys":[152.1599999978207,464.1549999942072,706.7299999762326,986.5799999679439,1247.9549999698065,1552.1149999694899,1816.4450000040233,2080.2749999566004,2368.1549999746494,2639.770000008866],"total_keys":10,"block":2,"trial":171,"robot":3,"valence":"lose","action":"go","sham":0,"trial_type":"pit-trial","trial_index":185,"time_elapsed":715008,"internal_node_id":"0.0-174.0","task_version":"battery-v0.1"},{"rune":"D","hex":"#3366ff99","correct":32,"choice":32,"rt":259.5100000035018,"accuracy":1,"outcome":"+1","keys":[167.1199999982491,440.2049999916926,679.6000000322238,975.9049999993294,1215.6550000072457,1479.4850000180304,1759.6950000151992,1951.8549999920651,2207.890000019688,2527.654999983497,2752.115000039339],"total_keys":11,"block":2,"trial":172,"robot":1,"valence":"win","action":"go","sham":1,"trial_type":"pit-trial","trial_index":186,"time_elapsed":717975,"internal_node_id":"0.0-175.0","task_version":"battery-v0.1"},{"rune":"H","hex":"#f73b6a7A","correct":32,"choice":32,"rt":401.14500001072884,"accuracy":1,"outcome":"-10","keys":[41.51499998988584,314.6899999701418,577.4000000092201,825.3399999812245,1073.8499999861233,1901.4900000183843,2185.929999977816,2425.93999998644,2657.665000006091,2929.8650000127964],"total_keys":10,"block":2,"trial":173,"robot":3,"valence":"lose","action":"go","sham":1,"trial_type":"pit-trial","trial_index":187,"time_elapsed":721085,"internal_node_id":"0.0-176.0","task_version":"battery-v0.1"},{"rune":"D","hex":"#3366ff99","correct":32,"choice":32,"rt":103.54000004008412,"accuracy":1,"outcome":"+10","keys":[27.294999978039414,315.7599999685772,556.1199999647215,828.2749999780208,1107.3650000034831,1370.9950000047684,1603.9400000008754,1851.2899999623187,2163.334999990184,2355.4299999959767,2627.3550000041723],"total_keys":11,"block":2,"trial":174,"robot":1,"valence":"win","action":"go","sham":0,"trial_type":"pit-trial","trial_index":188,"time_elapsed":723895,"internal_node_id":"0.0-177.0","task_version":"battery-v0.1"},{"rune":"B","hex":"#3366ff99","correct":-1,"choice":32,"rt":76.79999998072162,"accuracy":0,"outcome":"+1","keys":[49.989999970421195,305.5249999742955,547.1600000164472,833.5300000035204,1073.4250000095926,1313.4599999757484,1577.545000007376,1809.5599999651313,2073.7499999813735,2305.5399999720976,2529.53499997966],"total_keys":11,"block":2,"trial":175,"robot":2,"valence":"win","action":"no-go","sham":0,"trial_type":"pit-trial","trial_index":189,"time_elapsed":726682,"internal_node_id":"0.0-178.0","task_version":"battery-v0.1"},{"rune":"C","hex":"#f73b6a7A","correct":-1,"choice":32,"rt":105.20499997073784,"accuracy":0,"outcome":"-10","keys":[13.710000028368086,287.01000002911314,535.3549999999814,838.820000004489,1085.834999976214,1357.7749999822117,1605.6749999988824,1869.7849999880418,2133.689999987837,2397.960000031162,2677.750000031665],"total_keys":11,"block":2,"trial":176,"robot":4,"valence":"lose","action":"no-go","sham":0,"trial_type":"pit-trial","trial_index":190,"time_elapsed":729494,"internal_node_id":"0.0-179.0","task_version":"battery-v0.1"},{"rune":"H","hex":"#f73b6a7A","correct":32,"choice":32,"rt":188.05500003509223,"accuracy":1,"outcome":"-1","keys":[127.9050000011921,385.72999997995794,672.835000033956,920.6600000034086,1176.5599999926053,1400.5449999822304,1688.460000033956,1936.5799999795854,2201.355000026524,2440.600000030827,2664.4649999798276],"total_keys":11,"block":2,"trial":177,"robot":3,"valence":"lose","action":"go","sham":0,"trial_type":"pit-trial","trial_index":191,"time_elapsed":732394,"internal_node_id":"0.0-180.0","task_version":"battery-v0.1"},{"rune":"B","hex":"#3366ff99","correct":-1,"choice":32,"rt":198.78999999491498,"accuracy":0,"outcome":"+1","keys":[6.479999981820583,262.17000000178814,517.4799999804236,756.8399999872781,998.5299999825656,1245.1599999913014,1445.1199999894015,1701.2549999635667,1916.9699999620207,2124.924999952782,2509.299999976065,2725.194999948144,2861.334999965038],"total_keys":13,"block":2,"trial":178,"robot":2,"valence":"win","action":"no-go","sham":0,"trial_type":"pit-trial","trial_index":192,"time_elapsed":735304,"internal_node_id":"0.0-181.0","task_version":"battery-v0.1"},{"rune":"C","hex":"#f73b6a7A","correct":-1,"choice":32,"rt":250.2099999692291,"accuracy":0,"outcome":"-10","keys":[279.75500002503395,447.8649999946356,719.5350000401959,944.5600000326522,1207.6100000413135,1424.6850000345148,1752.230000041891,1991.5800000308082,2263.7199999880977,2519.8250000248663,2775.584999995772],"total_keys":11,"block":2,"trial":179,"robot":4,"valence":"lose","action":"no-go","sham":0,"trial_type":"pit-trial","trial_index":193,"time_elapsed":738263,"internal_node_id":"0.0-182.0","task_version":"battery-v0.1"},{"rune":"D","hex":"#3366ff99","correct":32,"choice":32,"rt":196.8650000053458,"accuracy":1,"outcome":"+10","keys":[88.55500002391636,330.46500000637025,664.9949999991804,929.2049999930896,1217.2800000407733,1480.9550000354648,1697.2250000108033,1945.1350000454113,2169.1050000372343,2401.160000008531,2737.215000030119],"total_keys":11,"block":2,"trial":180,"robot":1,"valence":"win","action":"go","sham":0,"trial_type":"pit-trial","trial_index":194,"time_elapsed":741167,"internal_node_id":"0.0-183.0","task_version":"battery-v0.1"},{"rune":"C","hex":"#f73b6a7A","correct":-1,"choice":32,"rt":114.17499999515712,"accuracy":0,"outcome":"-10","keys":[65.82499999785796,361.2250000005588,593.5150000150315,851.8150000018068,1009.2099999892525,1240.8900000154972,1466.9149999972433,1614.6200000075623,1921.744999999646,2169.0599999856204,2433.8800000259653,2659.58999999566],"total_keys":12,"block":2,"trial":181,"robot":4,"valence":"lose","action":"no-go","sham":0,"trial_type":"pit-trial","trial_index":195,"time_elapsed":743988,"internal_node_id":"0.0-184.0","task_version":"battery-v0.1"},{"rune":"D","hex":"#3366ff99","correct":32,"choice":32,"rt":189.8700000019744,"accuracy":1,"outcome":"+10","keys":[35.05000000586733,259.65500000165775,508.5249999538064,811.3149999990128,1420.3649999690242,1691.594999982044,1971.4149999781512,2219.4499999750406,2531.6949999541976,2795.209999952931],"total_keys":10,"block":2,"trial":182,"robot":1,"valence":"win","action":"go","sham":0,"trial_type":"pit-trial","trial_index":196,"time_elapsed":746889,"internal_node_id":"0.0-185.0","task_version":"battery-v0.1"},{"rune":"H","hex":"#f73b6a7A","correct":32,"choice":32,"rt":34.180000016931444,"accuracy":1,"outcome":"-1","keys":[201.85000001220033,470.90000001480803,750.995000009425,1033.24000001885,1342.8200000198558,1534.5450000022538,1838.8850000337698,2119.600000034552,2390.910000016447,2670.8650000509806],"total_keys":10,"block":2,"trial":183,"robot":3,"valence":"lose","action":"go","sham":0,"trial_type":"pit-trial","trial_index":197,"time_elapsed":749633,"internal_node_id":"0.0-186.0","task_version":"battery-v0.1"},{"rune":"B","hex":"#3366ff99","correct":-1,"choice":32,"rt":41.985000018030405,"accuracy":0,"outcome":"+10","keys":[190.4050000011921,486.49000003933907,806.2600000412203,1062.5299999956042,1542.18500002753,1846.6200000257231,2102.4600000237115,2398.849999997765],"total_keys":8,"block":2,"trial":184,"robot":2,"valence":"win","action":"no-go","sham":1,"trial_type":"pit-trial","trial_index":198,"time_elapsed":752383,"internal_node_id":"0.0-187.0","task_version":"battery-v0.1"},{"rune":"C","hex":"#f73b6a7A","correct":-1,"choice":32,"rt":42.705000028945506,"accuracy":0,"outcome":"-10","keys":[144.54499998828396,416.4599999785423,712.6299999654293,992.6199999754317,1289.8149999673478,1543.999999994412,2016.669999982696,2288.3900000015274,2538.1849999539554],"total_keys":9,"block":2,"trial":185,"robot":4,"valence":"lose","action":"no-go","sham":0,"trial_type":"pit-trial","trial_index":199,"time_elapsed":755137,"internal_node_id":"0.0-188.0","task_version":"battery-v0.1"},{"rune":"D","hex":"#3366ff99","correct":32,"choice":32,"rt":122.2449999768287,"accuracy":1,"outcome":"+10","keys":[54.420000000391155,334.6599999931641,582.6949999900535,831.1749999993481,1086.4450000226498,1358.6099999956787,1622.5550000090152,1902.6300000259653,2150.6550000049174,2438.610000011977,2694.6150000439957],"total_keys":11,"block":2,"trial":186,"robot":1,"valence":"win","action":"go","sham":0,"trial_type":"pit-trial","trial_index":200,"time_elapsed":757970,"internal_node_id":"0.0-189.0","task_version":"battery-v0.1"},{"rune":"B","hex":"#3366ff99","correct":-1,"choice":32,"rt":208.17499997792765,"accuracy":0,"outcome":"+1","keys":[101.58999997656792,365.93999998876825,630.074999993667,901.1849999660626,1149.7899999958463,1423.784999991767,1709.7499999799766,1981.6599999903701,2245.7249999861233,2501.6900000046007,2789.7999999695458],"total_keys":11,"block":2,"trial":187,"robot":2,"valence":"win","action":"no-go","sham":0,"trial_type":"pit-trial","trial_index":201,"time_elapsed":760889,"internal_node_id":"0.0-190.0","task_version":"battery-v0.1"},{"rune":"H","hex":"#f73b6a7A","correct":32,"choice":32,"rt":18.189999973401427,"accuracy":1,"outcome":"-1","keys":[134.85500001115724,415.7600000035018,694.3550000432879,966.6250000009313,1254.5099999988452,1518.5550000169314,1806.700000015553,2062.6350000384264,2374.5900000212714,2591.0750000039116],"total_keys":10,"block":2,"trial":188,"robot":3,"valence":"lose","action":"go","sham":0,"trial_type":"pit-trial","trial_index":202,"time_elapsed":763616,"internal_node_id":"0.0-191.0","task_version":"battery-v0.1"},{"rune":"B","hex":"#3366ff99","correct":-1,"choice":32,"rt":89.94000003440306,"accuracy":0,"outcome":"+1","keys":[110.34999997355044,335.0649999920279,606.3599999761209,830.7349999668077,1094.615000009071,1334.6000000019558,1591.019999992568,1830.6100000045262,2103.469999972731,2294.835000007879,2590.6550000072457],"total_keys":11,"block":2,"trial":189,"robot":2,"valence":"win","action":"no-go","sham":0,"trial_type":"pit-trial","trial_index":203,"time_elapsed":766416,"internal_node_id":"0.0-192.0","task_version":"battery-v0.1"},{"rune":"H","hex":"#f73b6a7A","correct":32,"choice":32,"rt":49.19500002870336,"accuracy":1,"outcome":"-10","keys":[63.36999998893589,328.57999997213483,608.9650000212714,942.685000016354,1246.6000000131316,1550.4850000143051,1847.1750000026077,2078.8549999706447,2374.9649999663234,2670.7300000125542],"total_keys":10,"block":2,"trial":190,"robot":3,"valence":"lose","action":"go","sham":1,"trial_type":"pit-trial","trial_index":204,"time_elapsed":769174,"internal_node_id":"0.0-193.0","task_version":"battery-v0.1"},{"rune":"D","hex":"#3366ff99","correct":32,"choice":32,"rt":26.960000046528876,"accuracy":1,"outcome":"+1","keys":[169.9699999880977,418.1949999765493,753.5349999670871,1018.3049999759533,1282.024999964051,1529.4149999972433,1753.8949999725446,2001.9800000009127,2537.8550000023097],"total_keys":9,"block":2,"trial":191,"robot":1,"valence":"win","action":"go","sham":1,"trial_type":"pit-trial","trial_index":205,"time_elapsed":771913,"internal_node_id":"0.0-194.0","task_version":"battery-v0.1"},{"rune":"C","hex":"#f73b6a7A","correct":-1,"choice":32,"rt":513.5550000122748,"accuracy":0,"outcome":"-1","keys":[55.1100000157021,334.195000003092,654.1450000368059,1262.0400000014342,2013.840000028722,2278.2550000119954,2534.2900000396185,2798.1150000123307,3070.250000047963],"total_keys":9,"block":2,"trial":192,"robot":4,"valence":"lose","action":"no-go","sham":1,"trial_type":"pit-trial","trial_index":206,"time_elapsed":775137,"internal_node_id":"0.0-195.0","task_version":"battery-v0.1"},{"rune":"C","hex":"#f73b6a7A","correct":-1,"choice":32,"rt":209.5650000264868,"accuracy":0,"outcome":"-10","keys":[125.5900000105612,406.1999999685213,615.5249999719672,893.5249999631196,1197.974999959115,1448.9149999571964,1710.1099999854341,1925.714999961201,2222.0049999887124,2478.1349999830127,2734.055000008084],"total_keys":11,"block":2,"trial":193,"robot":4,"valence":"lose","action":"no-go","sham":0,"trial_type":"pit-trial","trial_index":207,"time_elapsed":778055,"internal_node_id":"0.0-196.0","task_version":"battery-v0.1"},{"rune":"L","hex":"#f73b6a7A","correct":32,"choice":32,"rt":138.26000003609806,"accuracy":1,"outcome":"-1","keys":[263.9949999866076,527.509999985341,751.2550000101328,1047.3600000259466,1344.1299999831244,1639.6800000220537,1912.2199999983422,2239.929999981541,2544.3250000244007,2791.7149999993853],"total_keys":10,"block":2,"trial":194,"robot":3,"valence":"lose","action":"go","sham":0,"trial_type":"pit-trial","trial_index":208,"time_elapsed":780905,"internal_node_id":"0.0-197.0","task_version":"battery-v0.1"},{"rune":"D","hex":"#3366ff99","correct":32,"choice":32,"rt":201.44999999320135,"accuracy":1,"outcome":"+1","keys":[238.0000000121072,542.2200000029989,822.9600000195205,1173.850000021048,1701.7650000052527,2613.7500000186265,2869.910000008531],"total_keys":7,"block":2,"trial":195,"robot":1,"valence":"win","action":"go","sham":1,"trial_type":"pit-trial","trial_index":209,"time_elapsed":783813,"internal_node_id":"0.0-198.0","task_version":"battery-v0.1"},{"rune":"B","hex":"#3366ff99","correct":-1,"choice":32,"rt":125.11999998241663,"accuracy":0,"outcome":"+1","keys":[218.92499999376014,561.6549999685958,803.2649999950081,1073.0699999839999,1361.1899999668822,1625.3699999651872,1905.399999988731,2097.3900000099093,2417.0699999667704,2681.2599999830127],"total_keys":10,"block":2,"trial":196,"robot":2,"valence":"win","action":"no-go","sham":0,"trial_type":"pit-trial","trial_index":210,"time_elapsed":786646,"internal_node_id":"0.0-199.0","task_version":"battery-v0.1"},{"rune":"L","hex":"#f73b6a7A","correct":32,"choice":32,"rt":228.12000004341826,"accuracy":1,"outcome":"-1","keys":[135.69999998435378,416.11999995075166,697.5649999803863,960.674999980256,1225.5249999579974,1497.7999999537133,1728.2549999654293,1993.0849999655038,2503.819999983534,2728.069999953732],"total_keys":10,"block":2,"trial":197,"robot":3,"valence":"lose","action":"go","sham":0,"trial_type":"pit-trial","trial_index":211,"time_elapsed":789583,"internal_node_id":"0.0-200.0","task_version":"battery-v0.1"},{"rune":"B","hex":"#3366ff99","correct":-1,"choice":32,"rt":162.82999998657033,"accuracy":0,"outcome":"+1","keys":[159.4150000018999,447.16999999945983,639.5050000282936,846.9650000333786,1175.48999999417,1449.8550000134856,1663.29500003485,1943.6149999964982,2191.365000035148,2431.5349999815226,2687.4400000087917],"total_keys":11,"block":2,"trial":198,"robot":2,"valence":"win","action":"no-go","sham":0,"trial_type":"pit-trial","trial_index":212,"time_elapsed":792457,"internal_node_id":"0.0-201.0","task_version":"battery-v0.1"},{"rune":"D","hex":"#3366ff99","correct":32,"choice":32,"rt":113.18999994546175,"accuracy":1,"outcome":"+10","keys":[24.61999998195097,309.75499999476597,573.4499999671243,812.9549999721348,1093.4299999498762,1357.1349999983795,1613.2499999948777,1909.2749999836087,2125.3799999831244,2341.604999965057,2645.304999954533],"total_keys":11,"block":2,"trial":199,"robot":1,"valence":"win","action":"go","sham":0,"trial_type":"pit-trial","trial_index":213,"time_elapsed":795278,"internal_node_id":"0.0-202.0","task_version":"battery-v0.1"},{"rune":"C","hex":"#f73b6a7A","correct":-1,"choice":32,"rt":497.9649999877438,"accuracy":0,"outcome":"-10","keys":[96.40000003855675,336.44500002264977,639.8900000494905,904.0350000141189,1192.1200000215322,1441.7900000116788,2000.7100000511855,2208.0550000537187,2472.2100000362843,2704.3200000189245,2968.270000012126],"total_keys":11,"block":2,"trial":200,"robot":4,"valence":"lose","action":"no-go","sham":0,"trial_type":"pit-trial","trial_index":214,"time_elapsed":798488,"internal_node_id":"0.0-203.0","task_version":"battery-v0.1"},{"rune":"C","hex":"#f73b6a7A","correct":-1,"choice":32,"rt":135.70000004256144,"accuracy":0,"outcome":"-10","keys":[0.1449999981559813,277.8650000109337,559.1199999907985,829.7950000269338,1093.639999977313,1397.560000012163,1637.864999996964,1925.8300000219606,2165.725000028033,2413.780000002589,2717.8750000311993],"total_keys":11,"block":2,"trial":201,"robot":4,"valence":"lose","action":"no-go","sham":0,"trial_type":"pit-trial","trial_index":215,"time_elapsed":801336,"internal_node_id":"0.0-204.0","task_version":"battery-v0.1"},{"rune":"V","hex":"#f73b6a7A","correct":32,"choice":32,"rt":98.37999998126179,"accuracy":1,"outcome":"-1","keys":[159.03999999864027,462.63000002363697,719.6600000024773,1030.7250000187196,1303.2050000037998,1598.580000048969,1918.7200000160374,2183.8449999922886,2455.110000038985,2694.7200000286102],"total_keys":10,"block":2,"trial":202,"robot":3,"valence":"lose","action":"go","sham":0,"trial_type":"pit-trial","trial_index":216,"time_elapsed":804142,"internal_node_id":"0.0-205.0","task_version":"battery-v0.1"},{"rune":"B","hex":"#3366ff99","correct":-1,"choice":32,"rt":323.5199999762699,"accuracy":0,"outcome":"+1","keys":[135.6299999752082,415.90999998152256,703.1399999978021,992.3449999769218,1239.4549999735318,1495.3700000187382,1823.7049999879673,2071.784999978263,2367.9750000010245,2615.43000000529,2887.449999980163],"total_keys":11,"block":2,"trial":203,"robot":2,"valence":"win","action":"no-go","sham":0,"trial_type":"pit-trial","trial_index":217,"time_elapsed":807172,"internal_node_id":"0.0-206.0","task_version":"battery-v0.1"},{"rune":"L","hex":"#f73b6a7A","correct":32,"choice":32,"rt":182.280000008177,"accuracy":1,"outcome":"-1","keys":[146.33499999763444,403.7499999976717,665.8000000170432,907.0749999955297,1683.580000011716,1938.4900000295602,2202.5900000007823,2466.4099999936298,2722.509999992326],"total_keys":9,"block":2,"trial":204,"robot":3,"valence":"lose","action":"go","sham":0,"trial_type":"pit-trial","trial_index":218,"time_elapsed":810065,"internal_node_id":"0.0-207.0","task_version":"battery-v0.1"},{"rune":"C","hex":"#f73b6a7A","correct":-1,"choice":32,"rt":264.069999975618,"accuracy":0,"outcome":"-10","keys":[93.63999997731298,390.46500000404194,686.1899999785237,948.7450000015087,1253.6899999831803,1492.8000000072643,1765.0699999649078,2037.045000004582,2309.469999978319,2565.0949999690056,2868.8700000056997],"total_keys":11,"block":2,"trial":205,"robot":4,"valence":"lose","action":"no-go","sham":0,"trial_type":"pit-trial","trial_index":219,"time_elapsed":813041,"internal_node_id":"0.0-208.0","task_version":"battery-v0.1"},{"rune":"L","hex":"#f73b6a7A","correct":32,"choice":32,"rt":263.8649999862537,"accuracy":1,"outcome":"-10","keys":[142.09000003756955,412.6900000264868,677.3249999969266,932.5750000425614,1220.5550000071526,1485.8900000108406,1764.6950000198558,2028.6950000445358,2308.7450000457466,2540.8150000148453,2748.760000045877],"total_keys":11,"block":2,"trial":206,"robot":3,"valence":"lose","action":"go","sham":1,"trial_type":"pit-trial","trial_index":220,"time_elapsed":816013,"internal_node_id":"0.0-209.0","task_version":"battery-v0.1"},{"rune":"B","hex":"#3366ff99","correct":-1,"choice":32,"rt":196.2099999655038,"accuracy":0,"outcome":"+1","keys":[131.4649999840185,417.4749999656342,650.6349999690428,848.9100000006147,1113.2349999970756,1416.8149999459274,1697.5099999690428,1961.159999947995,2209.2699999921024,2433.0949999857694,2665.1949999504723],"total_keys":11,"block":2,"trial":207,"robot":2,"valence":"win","action":"no-go","sham":0,"trial_type":"pit-trial","trial_index":221,"time_elapsed":818917,"internal_node_id":"0.0-210.0","task_version":"battery-v0.1"},{"rune":"V","hex":"#f73b6a7A","correct":32,"choice":32,"rt":139.15999996243045,"accuracy":1,"outcome":"-1","keys":[8.589999983087182,296.8550000223331,487.80500004068017,743.4200000134297,1023.7600000109524,1375.6000000284985,1639.9400000227615,1975.830000010319,2223.8750000251457,2511.8950000032783,2783.86500000488],"total_keys":11,"block":2,"trial":208,"robot":3,"valence":"lose","action":"go","sham":0,"trial_type":"pit-trial","trial_index":222,"time_elapsed":821764,"internal_node_id":"0.0-211.0","task_version":"battery-v0.1"},{"rune":"V","hex":"#f73b6a7A","correct":32,"choice":32,"rt":114.49999996693805,"accuracy":1,"outcome":"-10","keys":[179.42499998025596,473.33000000799075,762.1100000105798,1027.8999999864027,1305.3150000050664,1617.1650000032969,1873.1649999972433,2161.135000002105,2377.3999999975786,2697.374999988824],"total_keys":10,"block":2,"trial":209,"robot":3,"valence":"lose","action":"go","sham":1,"trial_type":"pit-trial","trial_index":223,"time_elapsed":824589,"internal_node_id":"0.0-212.0","task_version":"battery-v0.1"},{"rune":"E","hex":"#f73b6a7A","correct":-1,"choice":32,"rt":122.64499999582767,"accuracy":0,"outcome":"-10","keys":[166.9899999978952,430.8400000445545,728.705000015907,1022.5400000344962,1328.3000000519678,1622.940000030212,1894.7750000515953,2166.890000051353,2414.935000007972,2646.9750000396743],"total_keys":10,"block":2,"trial":210,"robot":4,"valence":"lose","action":"no-go","sham":0,"trial_type":"pit-trial","trial_index":224,"time_elapsed":827422,"internal_node_id":"0.0-213.0","task_version":"battery-v0.1"},{"rune":"L","hex":"#f73b6a7A","correct":32,"choice":32,"rt":90.54499998455867,"accuracy":1,"outcome":"-1","keys":[56.22999998740852,342.0449999975972,549.8950000037439,807.4200000264682,1070.1799999806099,1350.4100000136532,1590.5900000361726,1854.4000000110827,2110.2350000292063,2406.060000008438,2654.385000001639],"total_keys":11,"block":2,"trial":211,"robot":3,"valence":"lose","action":"go","sham":0,"trial_type":"pit-trial","trial_index":225,"time_elapsed":830221,"internal_node_id":"0.0-214.0","task_version":"battery-v0.1"},{"rune":"R","hex":"#3366ff99","correct":-1,"choice":32,"rt":155.67000000737607,"accuracy":0,"outcome":"+1","keys":[141.83000003686175,350.54500005207956,632.4050000403076,934.0800000354648,1150.1950000529177,1414.130000048317,1656.2550000380725,1894.040000042878,2166.2800000049174,2430.320000043139,2695.3300000168383],"total_keys":11,"block":2,"trial":212,"robot":2,"valence":"win","action":"no-go","sham":0,"trial_type":"pit-trial","trial_index":226,"time_elapsed":833085,"internal_node_id":"0.0-215.0","task_version":"battery-v0.1"},{"rune":"L","hex":"#f73b6a7A","correct":32,"choice":32,"rt":64.59500000346452,"accuracy":1,"outcome":"-10","keys":[65.11999998474494,357.85499995108694,831.194999977015,1126.2899999856018,1349.904999951832,1566.4499999838881,1878.4499999601394,2134.4699999899603,2366.3699999451637,2638.3899999782443],"total_keys":10,"block":2,"trial":213,"robot":3,"valence":"lose","action":"go","sham":1,"trial_type":"pit-trial","trial_index":227,"time_elapsed":835858,"internal_node_id":"0.0-216.0","task_version":"battery-v0.1"},{"rune":"R","hex":"#3366ff99","correct":-1,"choice":32,"rt":269.170000043232,"accuracy":0,"outcome":"+1","keys":[99.4150000042282,421.3499999605119,684.0300000039861,921.2699999916367,1201.3949999818578,1498.024999978952,1769.4599999813363,2018.7750000040978,2289.569999964442,2553.559999971185,2857.529999979306],"total_keys":11,"block":2,"trial":214,"robot":2,"valence":"win","action":"no-go","sham":0,"trial_type":"pit-trial","trial_index":228,"time_elapsed":838835,"internal_node_id":"0.0-217.0","task_version":"battery-v0.1"},{"rune":"E","hex":"#f73b6a7A","correct":-1,"choice":32,"rt":243.419999955222,"accuracy":0,"outcome":"-10","keys":[152.24500000476837,399.8099999735132,655.4049999685958,919.4750000024214,1167.8700000047684,1479.4899999978952,1743.5549999936484,2023.6549999681301,2343.6600000131875,2623.684999998659,2847.6950000040233],"total_keys":11,"block":2,"trial":215,"robot":4,"valence":"lose","action":"no-go","sham":0,"trial_type":"pit-trial","trial_index":229,"time_elapsed":841787,"internal_node_id":"0.0-218.0","task_version":"battery-v0.1"},{"rune":"V","hex":"#f73b6a7A","correct":32,"choice":32,"rt":276.00000001257285,"accuracy":1,"outcome":"-10","keys":[200.6050000200048,441.2700000102632,939.1649999888614,1184.9899999797344,1488.6050000204705,1776.8749999813735,2072.9150000261143,2320.8449999801815,2592.9200000246055],"total_keys":9,"block":2,"trial":216,"robot":3,"valence":"lose","action":"go","sham":1,"trial_type":"pit-trial","trial_index":230,"time_elapsed":844773,"internal_node_id":"0.0-219.0","task_version":"battery-v0.1"},{"rune":"E","hex":"#f73b6a7A","correct":-1,"choice":32,"rt":0.8849999867379665,"accuracy":0,"outcome":"-10","keys":[109.1149999992922,365.5649999855086,653.2799999695271,934.0450000017881,1229.4649999821559,1501.0999999940395,1741.455000010319,1997.3100000061095,2285.600000002887,2557.4950000154786],"total_keys":10,"block":2,"trial":217,"robot":4,"valence":"lose","action":"no-go","sham":0,"trial_type":"pit-trial","trial_index":231,"time_elapsed":847484,"internal_node_id":"0.0-220.0","task_version":"battery-v0.1"},{"rune":"R"