[{"view_history":"[{\"page_index\":0,\"viewing_time\":1837.199999994482},{\"page_index\":1,\"viewing_time\":1761.7299999983516},{\"page_index\":2,\"viewing_time\":9502.28000000061},{\"page_index\":3,\"viewing_time\":4591.150000007474},{\"page_index\":4,\"viewing_time\":1950.0549999938812},{\"page_index\":5,\"viewing_time\":1955.0100000051316}]","rt":21598.0899999995,"trial_type":"pit-instructions","trial_index":0,"time_elapsed":21604,"internal_node_id":"0.0-0.0-0.0","task_version":"battery-v0.1"},{"rune":"","hex":"#FFFFF080","correct":32,"choice":32,"rt":347.170000008191,"accuracy":1,"outcome":"+10","keys":[1855.5099999939557],"total_keys":1,"block":0,"trial_type":"pit-trial","trial_index":1,"time_elapsed":24667,"internal_node_id":"0.0-0.0-1.0-0.0","task_version":"battery-v0.1"},{"rune":"","hex":"#FFFFF080","correct":32,"choice":32,"rt":201.44499999878462,"accuracy":1,"outcome":"+10","keys":[1702.2800000122515],"total_keys":1,"block":0,"trial_type":"pit-trial","trial_index":2,"time_elapsed":27581,"internal_node_id":"0.0-0.0-1.0-0.1","task_version":"battery-v0.1"},{"rune":"","hex":"#FFFFF080","correct":32,"choice":32,"rt":197.39000000117812,"accuracy":1,"outcome":"+10","keys":[1697.5649999949383],"total_keys":1,"block":0,"trial_type":"pit-trial","trial_index":3,"time_elapsed":30480,"internal_node_id":"0.0-0.0-1.0-0.2","task_version":"battery-v0.1"},{"rune":"","hex":"#FFFFF080","correct":32,"choice":32,"rt":263.9950000011595,"accuracy":1,"outcome":"+10","keys":[1764.114999998128],"total_keys":1,"block":0,"trial_type":"pit-trial","trial_index":4,"time_elapsed":33446,"internal_node_id":"0.0-0.0-1.0-0.3","task_version":"battery-v0.1"},{"view_history":"[{\"page_index\":0,\"viewing_time\":2494.040000005043}]","rt":2494.3550000025425,"trial_type":"pit-instructions","trial_index":5,"time_elapsed":35942,"internal_node_id":"0.0-0.0-2.0","task_version":"battery-v0.1"},{"rune":"","hex":"#FFFFF080","correct":-1,"choice":-1,"rt":-1,"accuracy":1,"outcome":"+10","keys":[],"total_keys":0,"block":0,"trial_type":"pit-trial","trial_index":6,"time_elapsed":39945,"internal_node_id":"0.0-0.0-3.0-0.0","task_version":"battery-v0.1"},{"rune":"","hex":"#FFFFF080","correct":-1,"choice":-1,"rt":-1,"accuracy":1,"outcome":"+10","keys":[],"total_keys":0,"block":0,"trial_type":"pit-trial","trial_index":7,"time_elapsed":43948,"internal_node_id":"0.0-0.0-3.0-0.1","task_version":"battery-v0.1"},{"rune":"","hex":"#FFFFF080","correct":-1,"choice":-1,"rt":-1,"accuracy":1,"outcome":"+10","keys":[],"total_keys":0,"block":0,"trial_type":"pit-trial","trial_index":8,"time_elapsed":47951,"internal_node_id":"0.0-0.0-3.0-0.2","task_version":"battery-v0.1"},{"rune":"","hex":"#FFFFF080","correct":-1,"choice":-1,"rt":-1,"accuracy":1,"outcome":"+10","keys":[],"total_keys":0,"block":0,"trial_type":"pit-trial","trial_index":9,"time_elapsed":51954,"internal_node_id":"0.0-0.0-3.0-0.3","task_version":"battery-v0.1"},{"responses":["Press SPACE","Do nothing"],"num_errors":0,"rt":3834.4950000027893,"trial_type":"pit-comprehension","trial_index":10,"time_elapsed":55791,"internal_node_id":"0.0-0.0-4.0","task_version":"battery-v0.1"},{"view_history":"[{\"page_index\":0,\"viewing_time\":2554.485000000568},{\"page_index\":1,\"viewing_time\":2523.090000002412},{\"page_index\":2,\"viewing_time\":3671.0949999978766},{\"page_index\":3,\"viewing_time\":2873.1149999948684},{\"page_index\":4,\"viewing_time\":2319.0400000021327},{\"page_index\":5,\"viewing_time\":8877.294999998412},{\"page_index\":6,\"viewing_time\":3767.485000003944},{\"page_index\":7,\"viewing_time\":3013.730000006035},{\"page_index\":8,\"viewing_time\":2608.074999996461},{\"page_index\":9,\"viewing_time\":2166.079999995418},{\"page_index\":10,\"viewing_time\":1376.044999997248}]","rt":35749.88499999745,"trial_type":"pit-instructions","trial_index":11,"time_elapsed":91544,"internal_node_id":"0.0-1.0-0.0","task_version":"battery-v0.1"},{"responses":["+10","-1","True","True"],"num_errors":0,"rt":14942.954999991343,"trial_type":"pit-comprehension","trial_index":12,"time_elapsed":106489,"internal_node_id":"0.0-1.0-1.0","task_version":"battery-v0.1"},{"view_history":"[{\"page_index\":0,\"viewing_time\":11081.094999986817},{\"page_index\":1,\"viewing_time\":1361.1050000035902}]","rt":12442.514999987907,"trial_type":"pit-instructions","trial_index":13,"time_elapsed":118933,"internal_node_id":"0.0-2.0","task_version":"battery-v0.1"},{"rune":"I","hex":"#3366ff99","correct":-1,"choice":32,"rt":557.1449999988545,"accuracy":0,"outcome":"+1","keys":[2057.300000000396],"total_keys":1,"block":1,"trial":1,"robot":2,"valence":"win","action":"no-go","sham":0,"trial_type":"pit-trial","trial_index":14,"time_elapsed":122193,"internal_node_id":"0.0-3.0","task_version":"battery-v0.1"},{"rune":"Y","hex":"#f73b6a7A","correct":-1,"choice":-1,"rt":-1,"accuracy":1,"outcome":"-1","keys":[],"total_keys":0,"block":1,"trial":2,"robot":4,"valence":"lose","action":"no-go","sham":0,"trial_type":"pit-trial","trial_index":15,"time_elapsed":126196,"internal_node_id":"0.0-4.0","task_version":"battery-v0.1"},{"rune":"X","hex":"#3366ff99","correct":32,"choice":32,"rt":557.6750000036554,"accuracy":1,"outcome":"+10","keys":[2057.8499999974156],"total_keys":1,"block":1,"trial":3,"robot":1,"valence":"win","action":"go","sham":0,"trial_type":"pit-trial","trial_index":16,"time_elapsed":129455,"internal_node_id":"0.0-5.0","task_version":"battery-v0.1"},{"rune":"H","hex":"#3366ff99","correct":32,"choice":32,"rt":337.05499999632593,"accuracy":1,"outcome":"+10","keys":[1837.2600000002421],"total_keys":1,"block":1,"trial":4,"robot":1,"valence":"win","action":"go","sham":0,"trial_type":"pit-trial","trial_index":17,"time_elapsed":132494,"internal_node_id":"0.0-6.0","task_version":"battery-v0.1"},{"rune":"X","hex":"#3366ff99","correct":32,"choice":32,"rt":654.3499999970663,"accuracy":1,"outcome":"+1","keys":[2154.5199999964098],"total_keys":1,"block":1,"trial":5,"robot":1,"valence":"win","action":"go","sham":1,"trial_type":"pit-trial","trial_index":18,"time_elapsed":135851,"internal_node_id":"0.0-7.0","task_version":"battery-v0.1"},{"rune":"Y","hex":"#f73b6a7A","correct":-1,"choice":-1,"rt":-1,"accuracy":1,"outcome":"-1","keys":[],"total_keys":0,"block":1,"trial":6,"robot":4,"valence":"lose","action":"no-go","sham":0,"trial_type":"pit-trial","trial_index":19,"time_elapsed":139854,"internal_node_id":"0.0-8.0","task_version":"battery-v0.1"},{"rune":"I","hex":"#3366ff99","correct":-1,"choice":32,"rt":295.750000004773,"accuracy":0,"outcome":"+1","keys":[1795.9399999963352],"total_keys":1,"block":1,"trial":7,"robot":2,"valence":"win","action":"no-go","sham":0,"trial_type":"pit-trial","trial_index":20,"time_elapsed":142852,"internal_node_id":"0.0-9.0","task_version":"battery-v0.1"},{"rune":"H","hex":"#3366ff99","correct":32,"choice":32,"rt":496.274999997695,"accuracy":1,"outcome":"+1","keys":[1996.3799999968614],"total_keys":1,"block":1,"trial":8,"robot":1,"valence":"win","action":"go","sham":1,"trial_type":"pit-trial","trial_index":21,"time_elapsed":146050,"internal_node_id":"0.0-10.0","task_version":"battery-v0.1"},{"rune":"Y","hex":"#f73b6a7A","correct":-1,"choice":-1,"rt":-1,"accuracy":1,"outcome":"-1","keys":[],"total_keys":0,"block":1,"trial":9,"robot":4,"valence":"lose","action":"no-go","sham":0,"trial_type":"pit-trial","trial_index":22,"time_elapsed":150054,"internal_node_id":"0.0-11.0","task_version":"battery-v0.1"},{"rune":"X","hex":"#3366ff99","correct":32,"choice":32,"rt":274.7499999968568,"accuracy":1,"outcome":"+10","keys":[1774.8950000095647],"total_keys":1,"block":1,"trial":10,"robot":1,"valence":"win","action":"go","sham":0,"trial_type":"pit-trial","trial_index":23,"time_elapsed":153030,"internal_node_id":"0.0-12.0","task_version":"battery-v0.1"},{"rune":"H","hex":"#3366ff99","correct":32,"choice":32,"rt":327.06500000495,"accuracy":1,"outcome":"+10","keys":[1828.1049999932293],"total_keys":1,"block":1,"trial":11,"robot":1,"valence":"win","action":"go","sham":0,"trial_type":"pit-trial","trial_index":24,"time_elapsed":156060,"internal_node_id":"0.0-13.0","task_version":"battery-v0.1"},{"rune":"I","hex":"#3366ff99","correct":-1,"choice":32,"rt":329.33999999659136,"accuracy":0,"outcome":"+1","keys":[1829.5249999937369],"total_keys":1,"block":1,"trial":12,"robot":2,"valence":"win","action":"no-go","sham":0,"trial_type":"pit-trial","trial_index":25,"time_elapsed":159092,"internal_node_id":"0.0-14.0","task_version":"battery-v0.1"},{"rune":"H","hex":"#3366ff99","correct":32,"choice":32,"rt":340.72500000183936,"accuracy":1,"outcome":"+10","keys":[1841.484999997192],"total_keys":1,"block":1,"trial":13,"robot":1,"valence":"win","action":"go","sham":0,"trial_type":"pit-trial","trial_index":26,"time_elapsed":162135,"internal_node_id":"0.0-15.0","task_version":"battery-v0.1"},{"rune":"X","hex":"#3366ff99","correct":32,"choice":32,"rt":298.1149999977788,"accuracy":1,"outcome":"+1","keys":[1798.2699999993201],"total_keys":1,"block":1,"trial":14,"robot":1,"valence":"win","action":"go","sham":1,"trial_type":"pit-trial","trial_index":27,"time_elapsed":165136,"internal_node_id":"0.0-16.0","task_version":"battery-v0.1"},{"rune":"Y","hex":"#f73b6a7A","correct":-1,"choice":-1,"rt":-1,"accuracy":1,"outcome":"-10","keys":[],"total_keys":0,"block":1,"trial":15,"robot":4,"valence":"lose","action":"no-go","sham":1,"trial_type":"pit-trial","trial_index":28,"time_elapsed":169139,"internal_node_id":"0.0-17.0","task_version":"battery-v0.1"},{"rune":"I","hex":"#3366ff99","correct":-1,"choice":32,"rt":311.61500001326203,"accuracy":0,"outcome":"+1","keys":[1811.7349999956787],"total_keys":1,"block":1,"trial":16,"robot":2,"valence":"win","action":"no-go","sham":0,"trial_type":"pit-trial","trial_index":29,"time_elapsed":172153,"internal_node_id":"0.0-18.0","task_version":"battery-v0.1"},{"rune":"I","hex":"#3366ff99","correct":-1,"choice":32,"rt":290.0599999993574,"accuracy":0,"outcome":"+10","keys":[1790.19500000868],"total_keys":1,"block":1,"trial":17,"robot":2,"valence":"win","action":"no-go","sham":1,"trial_type":"pit-trial","trial_index":30,"time_elapsed":175146,"internal_node_id":"0.0-19.0","task_version":"battery-v0.1"},{"rune":"Y","hex":"#f73b6a7A","correct":-1,"choice":-1,"rt":-1,"accuracy":1,"outcome":"-1","keys":[],"total_keys":0,"block":1,"trial":18,"robot":4,"valence":"lose","action":"no-go","sham":0,"trial_type":"pit-trial","trial_index":31,"time_elapsed":179149,"internal_node_id":"0.0-20.0","task_version":"battery-v0.1"},{"rune":"H","hex":"#3366ff99","correct":32,"choice":32,"rt":352.39000000001397,"accuracy":1,"outcome":"+1","keys":[1852.6249999995343],"total_keys":1,"block":1,"trial":19,"robot":1,"valence":"win","action":"go","sham":1,"trial_type":"pit-trial","trial_index":32,"time_elapsed":182203,"internal_node_id":"0.0-21.0","task_version":"battery-v0.1"},{"rune":"X","hex":"#3366ff99","correct":32,"choice":32,"rt":381.81999999505933,"accuracy":1,"outcome":"+10","keys":[1882.00000001234],"total_keys":1,"block":1,"trial":20,"robot":1,"valence":"win","action":"go","sham":0,"trial_type":"pit-trial","trial_index":33,"time_elapsed":185287,"internal_node_id":"0.0-22.0","task_version":"battery-v0.1"},{"rune":"H","hex":"#3366ff99","correct":32,"choice":32,"rt":359.1350000060629,"accuracy":1,"outcome":"+10","keys":[1859.2849999986356],"total_keys":1,"block":1,"trial":21,"robot":1,"valence":"win","action":"go","sham":0,"trial_type":"pit-trial","trial_index":34,"time_elapsed":188348,"internal_node_id":"0.0-23.0","task_version":"battery-v0.1"},{"rune":"X","hex":"#3366ff99","correct":32,"choice":32,"rt":302.38499998813495,"accuracy":1,"outcome":"+10","keys":[1802.6150000077905],"total_keys":1,"block":1,"trial":22,"robot":1,"valence":"win","action":"go","sham":0,"trial_type":"pit-trial","trial_index":35,"time_elapsed":191353,"internal_node_id":"0.0-24.0","task_version":"battery-v0.1"},{"rune":"Y","hex":"#f73b6a7A","correct":-1,"choice":32,"rt":518.1700000102865,"accuracy":0,"outcome":"-1","keys":[2019.3799999979092],"total_keys":1,"block":1,"trial":23,"robot":4,"valence":"lose","action":"no-go","sham":1,"trial_type":"pit-trial","trial_index":36,"time_elapsed":194573,"internal_node_id":"0.0-25.0","task_version":"battery-v0.1"},{"rune":"I","hex":"#3366ff99","correct":-1,"choice":32,"rt":300.99499999778345,"accuracy":0,"outcome":"+1","keys":[1801.2049999961164],"total_keys":1,"block":1,"trial":24,"robot":2,"valence":"win","action":"no-go","sham":0,"trial_type":"pit-trial","trial_index":37,"time_elapsed":197577,"internal_node_id":"0.0-26.0","task_version":"battery-v0.1"},{"rune":"X","hex":"#3366ff99","correct":32,"choice":32,"rt":375.46999999904074,"accuracy":1,"outcome":"+10","keys":[1875.659999990603],"total_keys":1,"block":1,"trial":25,"robot":1,"valence":"win","action":"go","sham":0,"trial_type":"pit-trial","trial_index":38,"time_elapsed":200655,"internal_node_id":"0.0-27.0","task_version":"battery-v0.1"},{"rune":"I","hex":"#3366ff99","correct":-1,"choice":32,"rt":298.8150000019232,"accuracy":0,"outcome":"+1","keys":[1799.0649999992456],"total_keys":1,"block":1,"trial":26,"robot":2,"valence":"win","action":"no-go","sham":0,"trial_type":"pit-trial","trial_index":39,"time_elapsed":203656,"internal_node_id":"0.0-28.0","task_version":"battery-v0.1"},{"rune":"H","hex":"#3366ff99","correct":32,"choice":32,"rt":342.18999999575317,"accuracy":1,"outcome":"+10","keys":[1842.3550000006799],"total_keys":1,"block":1,"trial":27,"robot":1,"valence":"win","action":"go","sham":0,"trial_type":"pit-trial","trial_index":40,"time_elapsed":206699,"internal_node_id":"0.0-29.0","task_version":"battery-v0.1"},{"rune":"Y","hex":"#f73b6a7A","correct":-1,"choice":32,"rt":350.72000000218395,"accuracy":0,"outcome":"-10","keys":[1850.8699999947567],"total_keys":1,"block":1,"trial":28,"robot":4,"valence":"lose","action":"no-go","sham":0,"trial_type":"pit-trial","trial_index":41,"time_elapsed":209752,"internal_node_id":"0.0-30.0","task_version":"battery-v0.1"},{"rune":"Y","hex":"#f73b6a7A","correct":-1,"choice":-1,"rt":-1,"accuracy":1,"outcome":"-1","keys":[],"total_keys":0,"block":1,"trial":29,"robot":4,"valence":"lose","action":"no-go","sham":0,"trial_type":"pit-trial","trial_index":42,"time_elapsed":213755,"internal_node_id":"0.0-31.0","task_version":"battery-v0.1"},{"rune":"H","hex":"#3366ff99","correct":32,"choice":32,"rt":341.9949999952223,"accuracy":1,"outcome":"+10","keys":[1842.239999998128],"total_keys":1,"block":1,"trial":30,"robot":1,"valence":"win","action":"go","sham":0,"trial_type":"pit-trial","trial_index":43,"time_elapsed":216798,"internal_node_id":"0.0-32.0","task_version":"battery-v0.1"},{"rune":"I","hex":"#3366ff99","correct":-1,"choice":32,"rt":344.4149999995716,"accuracy":0,"outcome":"+1","keys":[1844.6550000080606],"total_keys":1,"block":1,"trial":31,"robot":2,"valence":"win","action":"no-go","sham":0,"trial_type":"pit-trial","trial_index":44,"time_elapsed":219845,"internal_node_id":"0.0-33.0","task_version":"battery-v0.1"},{"rune":"X","hex":"#3366ff99","correct":32,"choice":32,"rt":461.7199999920558,"accuracy":1,"outcome":"+10","keys":[1961.9499999971595],"total_keys":1,"block":1,"trial":32,"robot":1,"valence":"win","action":"go","sham":0,"trial_type":"pit-trial","trial_index":45,"time_elapsed":223009,"internal_node_id":"0.0-34.0","task_version":"battery-v0.1"},{"rune":"Y","hex":"#f73b6a7A","correct":-1,"choice":-1,"rt":-1,"accuracy":1,"outcome":"-10","keys":[],"total_keys":0,"block":1,"trial":33,"robot":4,"valence":"lose","action":"no-go","sham":1,"trial_type":"pit-trial","trial_index":46,"time_elapsed":227012,"internal_node_id":"0.0-35.0","task_version":"battery-v0.1"},{"rune":"R","hex":"#3366ff99","correct":32,"choice":32,"rt":359.2249999928754,"accuracy":1,"outcome":"+10","keys":[1859.454999997979],"total_keys":1,"block":1,"trial":34,"robot":1,"valence":"win","action":"go","sham":0,"trial_type":"pit-trial","trial_index":47,"time_elapsed":230074,"internal_node_id":"0.0-36.0","task_version":"battery-v0.1"},{"rune":"I","hex":"#3366ff99","correct":-1,"choice":32,"rt":338.62999999837484,"accuracy":0,"outcome":"+1","keys":[1838.91500000027],"total_keys":1,"block":1,"trial":35,"robot":2,"valence":"win","action":"no-go","sham":0,"trial_type":"pit-trial","trial_index":48,"time_elapsed":233114,"internal_node_id":"0.0-37.0","task_version":"battery-v0.1"},{"rune":"X","hex":"#3366ff99","correct":32,"choice":32,"rt":336.99999999953434,"accuracy":1,"outcome":"+1","keys":[1838.30499999749],"total_keys":1,"block":1,"trial":36,"robot":1,"valence":"win","action":"go","sham":1,"trial_type":"pit-trial","trial_index":49,"time_elapsed":236154,"internal_node_id":"0.0-38.0","task_version":"battery-v0.1"},{"rune":"I","hex":"#3366ff99","correct":-1,"choice":32,"rt":286.20499999669846,"accuracy":0,"outcome":"+1","keys":[1786.4750000007916],"total_keys":1,"block":1,"trial":37,"robot":2,"valence":"win","action":"no-go","sham":0,"trial_type":"pit-trial","trial_index":50,"time_elapsed":239143,"internal_node_id":"0.0-39.0","task_version":"battery-v0.1"},{"rune":"Y","hex":"#f73b6a7A","correct":-1,"choice":-1,"rt":-1,"accuracy":1,"outcome":"-1","keys":[],"total_keys":0,"block":1,"trial":38,"robot":4,"valence":"lose","action":"no-go","sham":0,"trial_type":"pit-trial","trial_index":51,"time_elapsed":243146,"internal_node_id":"0.0-40.0","task_version":"battery-v0.1"},{"rune":"R","hex":"#3366ff99","correct":32,"choice":32,"rt":243.7600000121165,"accuracy":1,"outcome":"+10","keys":[1744.0249999926891],"total_keys":1,"block":1,"trial":39,"robot":1,"valence":"win","action":"go","sham":0,"trial_type":"pit-trial","trial_index":52,"time_elapsed":246092,"internal_node_id":"0.0-41.0","task_version":"battery-v0.1"},{"rune":"X","hex":"#3366ff99","correct":32,"choice":32,"rt":548.0649999954039,"accuracy":1,"outcome":"+10","keys":[2048.284999997122],"total_keys":1,"block":1,"trial":40,"robot":1,"valence":"win","action":"go","sham":0,"trial_type":"pit-trial","trial_index":53,"time_elapsed":249341,"internal_node_id":"0.0-42.0","task_version":"battery-v0.1"},{"rune":"I","hex":"#3366ff99","correct":-1,"choice":32,"rt":278.38999999221414,"accuracy":0,"outcome":"+1","keys":[1778.5800000128802],"total_keys":1,"block":1,"trial":41,"robot":2,"valence":"win","action":"no-go","sham":0,"trial_type":"pit-trial","trial_index":54,"time_elapsed":252322,"internal_node_id":"0.0-43.0","task_version":"battery-v0.1"},{"rune":"C","hex":"#f73b6a7A","correct":-1,"choice":-1,"rt":-1,"accuracy":1,"outcome":"-1","keys":[],"total_keys":0,"block":1,"trial":42,"robot":4,"valence":"lose","action":"no-go","sham":0,"trial_type":"pit-trial","trial_index":55,"time_elapsed":256325,"internal_node_id":"0.0-44.0","task_version":"battery-v0.1"},{"rune":"D","hex":"#f73b6a7A","correct":32,"choice":-1,"rt":-1,"accuracy":0,"outcome":"-1","keys":[],"total_keys":0,"block":1,"trial":43,"robot":3,"valence":"lose","action":"go","sham":1,"trial_type":"pit-trial","trial_index":56,"time_elapsed":260328,"internal_node_id":"0.0-45.0","task_version":"battery-v0.1"},{"rune":"R","hex":"#3366ff99","correct":32,"choice":32,"rt":222.9150000057416,"accuracy":1,"outcome":"+10","keys":[1723.1099999917205],"total_keys":1,"block":1,"trial":44,"robot":1,"valence":"win","action":"go","sham":0,"trial_type":"pit-trial","trial_index":57,"time_elapsed":263253,"internal_node_id":"0.0-46.0","task_version":"battery-v0.1"},{"rune":"C","hex":"#f73b6a7A","correct":-1,"choice":-1,"rt":-1,"accuracy":1,"outcome":"-1","keys":[],"total_keys":0,"block":1,"trial":45,"robot":4,"valence":"lose","action":"no-go","sham":0,"trial_type":"pit-trial","trial_index":58,"time_elapsed":267256,"internal_node_id":"0.0-47.0","task_version":"battery-v0.1"},{"rune":"R","hex":"#3366ff99","correct":32,"choice":32,"rt":215.49999999115244,"accuracy":1,"outcome":"+10","keys":[1715.7500000030268],"total_keys":1,"block":1,"trial":46,"robot":1,"valence":"win","action":"go","sham":0,"trial_type":"pit-trial","trial_index":59,"time_elapsed":270174,"internal_node_id":"0.0-48.0","task_version":"battery-v0.1"},{"rune":"I","hex":"#3366ff99","correct":-1,"choice":32,"rt":374.84000000404194,"accuracy":0,"outcome":"+1","keys":[1875.0850000069477],"total_keys":1,"block":1,"trial":47,"robot":2,"valence":"win","action":"no-go","sham":0,"trial_type":"pit-trial","trial_index":60,"time_elapsed":273251,"internal_node_id":"0.0-49.0","task_version":"battery-v0.1"},{"rune":"D","hex":"#f73b6a7A","correct":32,"choice":-1,"rt":-1,"accuracy":0,"outcome":"-10","keys":[],"total_keys":0,"block":1,"trial":48,"robot":3,"valence":"lose","action":"go","sham":0,"trial_type":"pit-trial","trial_index":61,"time_elapsed":277254,"internal_node_id":"0.0-50.0","task_version":"battery-v0.1"},{"rune":"D","hex":"#f73b6a7A","correct":32,"choice":-1,"rt":-1,"accuracy":0,"outcome":"-10","keys":[],"total_keys":0,"block":1,"trial":49,"robot":3,"valence":"lose","action":"go","sham":0,"trial_type":"pit-trial","trial_index":62,"time_elapsed":281257,"internal_node_id":"0.0-51.0","task_version":"battery-v0.1"},{"rune":"S","hex":"#3366ff99","correct":-1,"choice":32,"rt":284.52000000106636,"accuracy":0,"outcome":"+1","keys":[1784.5949999900768],"total_keys":1,"block":1,"trial":50,"robot":2,"valence":"win","action":"no-go","sham":0,"trial_type":"pit-trial","trial_index":63,"time_elapsed":284243,"internal_node_id":"0.0-52.0","task_version":"battery-v0.1"},{"rune":"R","hex":"#3366ff99","correct":32,"choice":32,"rt":261.85999999870546,"accuracy":1,"outcome":"+1","keys":[1762.0749999914551],"total_keys":1,"block":1,"trial":51,"robot":1,"valence":"win","action":"go","sham":1,"trial_type":"pit-trial","trial_index":64,"time_elapsed":287207,"internal_node_id":"0.0-53.0","task_version":"battery-v0.1"},{"rune":"C","hex":"#f73b6a7A","correct":-1,"choice":-1,"rt":-1,"accuracy":1,"outcome":"-10","keys":[],"total_keys":0,"block":1,"trial":52,"robot":4,"valence":"lose","action":"no-go","sham":1,"trial_type":"pit-trial","trial_index":65,"time_elapsed":291210,"internal_node_id":"0.0-54.0","task_version":"battery-v0.1"},{"rune":"C","hex":"#f73b6a7A","correct":-1,"choice":-1,"rt":-1,"accuracy":1,"outcome":"-1","keys":[],"total_keys":0,"block":1,"trial":53,"robot":4,"valence":"lose","action":"no-go","sham":0,"trial_type":"pit-trial","trial_index":66,"time_elapsed":295212,"internal_node_id":"0.0-55.0","task_version":"battery-v0.1"},{"rune":"S","hex":"#3366ff99","correct":-1,"choice":32,"rt":212.69000000029337,"accuracy":0,"outcome":"+1","keys":[1712.759999994887],"total_keys":1,"block":1,"trial":54,"robot":2,"valence":"win","action":"no-go","sham":0,"trial_type":"pit-trial","trial_index":67,"time_elapsed":298127,"internal_node_id":"0.0-56.0","task_version":"battery-v0.1"},{"rune":"D","hex":"#f73b6a7A","correct":32,"choice":-1,"rt":-1,"accuracy":0,"outcome":"-10","keys":[],"total_keys":0,"block":1,"trial":55,"robot":3,"valence":"lose","action":"go","sham":0,"trial_type":"pit-trial","trial_index":68,"time_elapsed":302130,"internal_node_id":"0.0-57.0","task_version":"battery-v0.1"},{"rune":"R","hex":"#3366ff99","correct":32,"choice":32,"rt":252.93499999679625,"accuracy":1,"outcome":"+10","keys":[1753.4700000105659],"total_keys":1,"block":1,"trial":56,"robot":1,"valence":"win","action":"go","sham":0,"trial_type":"pit-trial","trial_index":69,"time_elapsed":305086,"internal_node_id":"0.0-58.0","task_version":"battery-v0.1"},{"rune":"S","hex":"#3366ff99","correct":-1,"choice":32,"rt":221.49500000523403,"accuracy":0,"outcome":"+1","keys":[1721.6950000001816],"total_keys":1,"block":1,"trial":57,"robot":2,"valence":"win","action":"no-go","sham":0,"trial_type":"pit-trial","trial_index":70,"time_elapsed":308010,"internal_node_id":"0.0-59.0","task_version":"battery-v0.1"},{"rune":"D","hex":"#f73b6a7A","correct":32,"choice":-1,"rt":-1,"accuracy":0,"outcome":"-10","keys":[],"total_keys":0,"block":1,"trial":58,"robot":3,"valence":"lose","action":"go","sham":0,"trial_type":"pit-trial","trial_index":71,"time_elapsed":312013,"internal_node_id":"0.0-60.0","task_version":"battery-v0.1"},{"rune":"C","hex":"#f73b6a7A","correct":-1,"choice":-1,"rt":-1,"accuracy":1,"outcome":"-1","keys":[],"total_keys":0,"block":1,"trial":59,"robot":4,"valence":"lose","action":"no-go","sham":0,"trial_type":"pit-trial","trial_index":72,"time_elapsed":316016,"internal_node_id":"0.0-61.0","task_version":"battery-v0.1"},{"rune":"R","hex":"#3366ff99","correct":32,"choice":32,"rt":227.340000012191,"accuracy":1,"outcome":"+10","keys":[1727.485000010347],"total_keys":1,"block":1,"trial":60,"robot":1,"valence":"win","action":"go","sham":0,"trial_type":"pit-trial","trial_index":73,"time_elapsed":318946,"internal_node_id":"0.0-62.0","task_version":"battery-v0.1"},{"rune":"S","hex":"#3366ff99","correct":-1,"choice":32,"rt":361.7050000029849,"accuracy":0,"outcome":"+1","keys":[1861.7599999997765],"total_keys":1,"block":1,"trial":61,"robot":2,"valence":"win","action":"no-go","sham":0,"trial_type":"pit-trial","trial_index":74,"time_elapsed":322009,"internal_node_id":"0.0-63.0","task_version":"battery-v0.1"},{"rune":"D","hex":"#f73b6a7A","correct":32,"choice":-1,"rt":-1,"accuracy":0,"outcome":"-10","keys":[],"total_keys":0,"block":1,"trial":62,"robot":3,"valence":"lose","action":"go","sham":0,"trial_type":"pit-trial","trial_index":75,"time_elapsed":326012,"internal_node_id":"0.0-64.0","task_version":"battery-v0.1"},{"rune":"R","hex":"#3366ff99","correct":32,"choice":32,"rt":252.00999999651685,"accuracy":1,"outcome":"+10","keys":[1753.114999999525],"total_keys":1,"block":1,"trial":63,"robot":1,"valence":"win","action":"go","sham":0,"trial_type":"pit-trial","trial_index":76,"time_elapsed":328967,"internal_node_id":"0.0-65.0","task_version":"battery-v0.1"},{"rune":"C","hex":"#f73b6a7A","correct":-1,"choice":32,"rt":535.8249999990221,"accuracy":0,"outcome":"-10","keys":[2036.2549999990733],"total_keys":1,"block":1,"trial":64,"robot":4,"valence":"lose","action":"no-go","sham":0,"trial_type":"pit-trial","trial_index":77,"time_elapsed":332206,"internal_node_id":"0.0-66.0","task_version":"battery-v0.1"},{"rune":"D","hex":"#f73b6a7A","correct":32,"choice":32,"rt":460.9599999967031,"accuracy":1,"outcome":"-1","keys":[1961.0700000048382],"total_keys":1,"block":1,"trial":65,"robot":3,"valence":"lose","action":"go","sham":0,"trial_type":"pit-trial","trial_index":78,"time_elapsed":335369,"internal_node_id":"0.0-67.0","task_version":"battery-v0.1"},{"rune":"C","hex":"#f73b6a7A","correct":-1,"choice":-1,"rt":-1,"accuracy":1,"outcome":"-1","keys":[],"total_keys":0,"block":1,"trial":66,"robot":4,"valence":"lose","action":"no-go","sham":0,"trial_type":"pit-trial","trial_index":79,"time_elapsed":339372,"internal_node_id":"0.0-68.0","task_version":"battery-v0.1"},{"rune":"S","hex":"#3366ff99","correct":-1,"choice":32,"rt":306.38000000908505,"accuracy":0,"outcome":"+1","keys":[1807.1900000068126],"total_keys":1,"block":1,"trial":67,"robot":2,"valence":"win","action":"no-go","sham":0,"trial_type":"pit-trial","trial_index":80,"time_elapsed":342381,"internal_node_id":"0.0-69.0","task_version":"battery-v0.1"},{"rune":"R","hex":"#3366ff99","correct":32,"choice":32,"rt":207.76000000478234,"accuracy":1,"outcome":"+10","keys":[1707.9200000007404],"total_keys":1,"block":1,"trial":68,"robot":1,"valence":"win","action":"go","sham":0,"trial_type":"pit-trial","trial_index":81,"time_elapsed":345291,"internal_node_id":"0.0-70.0","task_version":"battery-v0.1"},{"rune":"C","hex":"#f73b6a7A","correct":-1,"choice":-1,"rt":-1,"accuracy":1,"outcome":"-10","keys":[],"total_keys":0,"block":1,"trial":69,"robot":4,"valence":"lose","action":"no-go","sham":1,"trial_type":"pit-trial","trial_index":82,"time_elapsed":349294,"internal_node_id":"0.0-71.0","task_version":"battery-v0.1"},{"rune":"D","hex":"#f73b6a7A","correct":32,"choice":32,"rt":473.3399999968242,"accuracy":1,"outcome":"-1","keys":[1974.5349999866448],"total_keys":1,"block":1,"trial":70,"robot":3,"valence":"lose","action":"go","sham":0,"trial_type":"pit-trial","trial_index":83,"time_elapsed":352471,"internal_node_id":"0.0-72.0","task_version":"battery-v0.1"},{"rune":"R","hex":"#3366ff99","correct":32,"choice":32,"rt":257.7049999963492,"accuracy":1,"outcome":"+10","keys":[1757.8750000102445],"total_keys":1,"block":1,"trial":71,"robot":1,"valence":"win","action":"go","sham":0,"trial_type":"pit-trial","trial_index":84,"time_elapsed":355430,"internal_node_id":"0.0-73.0","task_version":"battery-v0.1"},{"rune":"S","hex":"#3366ff99","correct":-1,"choice":32,"rt":260.13999999850057,"accuracy":0,"outcome":"+1","keys":[1760.325000010198],"total_keys":1,"block":1,"trial":72,"robot":2,"valence":"win","action":"no-go","sham":0,"trial_type":"pit-trial","trial_index":85,"time_elapsed":358393,"internal_node_id":"0.0-74.0","task_version":"battery-v0.1"},{"rune":"S","hex":"#3366ff99","correct":-1,"choice":-1,"rt":-1,"accuracy":1,"outcome":"+10","keys":[],"total_keys":0,"block":1,"trial":73,"robot":2,"valence":"win","action":"no-go","sham":0,"trial_type":"pit-trial","trial_index":86,"time_elapsed":362397,"internal_node_id":"0.0-75.0","task_version":"battery-v0.1"},{"rune":"R","hex":"#3366ff99","correct":32,"choice":32,"rt":562.5199999922188,"accuracy":1,"outcome":"+10","keys":[2063.2599999953527],"total_keys":1,"block":1,"trial":74,"robot":1,"valence":"win","action":"go","sham":0,"trial_type":"pit-trial","trial_index":87,"time_elapsed":365662,"internal_node_id":"0.0-76.0","task_version":"battery-v0.1"},{"rune":"V","hex":"#f73b6a7A","correct":32,"choice":-1,"rt":-1,"accuracy":0,"outcome":"-1","keys":[],"total_keys":0,"block":1,"trial":75,"robot":3,"valence":"lose","action":"go","sham":1,"trial_type":"pit-trial","trial_index":88,"time_elapsed":369665,"internal_node_id":"0.0-77.0","task_version":"battery-v0.1"},{"rune":"C","hex":"#f73b6a7A","correct":-1,"choice":32,"rt":837.1049999987008,"accuracy":0,"outcome":"-10","keys":[2337.2049999888986],"total_keys":1,"block":1,"trial":76,"robot":4,"valence":"lose","action":"no-go","sham":0,"trial_type":"pit-trial","trial_index":89,"time_elapsed":373204,"internal_node_id":"0.0-78.0","task_version":"battery-v0.1"},{"rune":"R","hex":"#3366ff99","correct":32,"choice":32,"rt":683.5399999981746,"accuracy":1,"outcome":"+10","keys":[2183.7549999909243],"total_keys":1,"block":1,"trial":77,"robot":1,"valence":"win","action":"go","sham":0,"trial_type":"pit-trial","trial_index":90,"time_elapsed":376589,"internal_node_id":"0.0-79.0","task_version":"battery-v0.1"},{"rune":"S","hex":"#3366ff99","correct":-1,"choice":32,"rt":1151.465000002645,"accuracy":0,"outcome":"+1","keys":[2651.7949999979464],"total_keys":1,"block":1,"trial":78,"robot":2,"valence":"win","action":"no-go","sham":0,"trial_type":"pit-trial","trial_index":91,"time_elapsed":380444,"internal_node_id":"0.0-80.0","task_version":"battery-v0.1"},{"rune":"V","hex":"#f73b6a7A","correct":32,"choice":-1,"rt":-1,"accuracy":0,"outcome":"-1","keys":[],"total_keys":0,"block":1,"trial":79,"robot":3,"valence":"lose","action":"go","sham":1,"trial_type":"pit-trial","trial_index":92,"time_elapsed":384447,"internal_node_id":"0.0-81.0","task_version":"battery-v0.1"},{"rune":"C","hex":"#f73b6a7A","correct":-1,"choice":-1,"rt":-1,"accuracy":1,"outcome":"-1","keys":[],"total_keys":0,"block":1,"trial":80,"robot":4,"valence":"lose","action":"no-go","sham":0,"trial_type":"pit-trial","trial_index":93,"time_elapsed":388450,"internal_node_id":"0.0-82.0","task_version":"battery-v0.1"},{"rune":"S","hex":"#3366ff99","correct":-1,"choice":32,"rt":444.12000000011176,"accuracy":0,"outcome":"+1","keys":[1944.2100000014761],"total_keys":1,"block":1,"trial":81,"robot":2,"valence":"win","action":"no-go","sham":0,"trial_type":"pit-trial","trial_index":94,"time_elapsed":391597,"internal_node_id":"0.0-83.0","task_version":"battery-v0.1"},{"rune":"V","hex":"#f73b6a7A","correct":32,"choice":-1,"rt":-1,"accuracy":0,"outcome":"-10","keys":[],"total_keys":0,"block":1,"trial":82,"robot":3,"valence":"lose","action":"go","sham":0,"trial_type":"pit-trial","trial_index":95,"time_elapsed":395600,"internal_node_id":"0.0-84.0","task_version":"battery-v0.1"},{"rune":"M","hex":"#f73b6a7A","correct":32,"choice":-1,"rt":-1,"accuracy":0,"outcome":"-10","keys":[],"total_keys":0,"block":1,"trial":83,"robot":3,"valence":"lose","action":"go","sham":0,"trial_type":"pit-trial","trial_index":96,"time_elapsed":399603,"internal_node_id":"0.0-85.0","task_version":"battery-v0.1"},{"rune":"C","hex":"#f73b6a7A","correct":-1,"choice":32,"rt":413.86500000953674,"accuracy":0,"outcome":"-10","keys":[1914.0450000122655],"total_keys":1,"block":1,"trial":84,"robot":4,"valence":"lose","action":"no-go","sham":0,"trial_type":"pit-trial","trial_index":97,"time_elapsed":402719,"internal_node_id":"0.0-86.0","task_version":"battery-v0.1"},{"rune":"V","hex":"#f73b6a7A","correct":32,"choice":-1,"rt":-1,"accuracy":0,"outcome":"-1","keys":[],"total_keys":0,"block":1,"trial":85,"robot":3,"valence":"lose","action":"go","sham":1,"trial_type":"pit-trial","trial_index":98,"time_elapsed":406722,"internal_node_id":"0.0-87.0","task_version":"battery-v0.1"},{"rune":"S","hex":"#3366ff99","correct":-1,"choice":32,"rt":324.254999999539,"accuracy":0,"outcome":"+1","keys":[1824.4350000022678],"total_keys":1,"block":1,"trial":86,"robot":2,"valence":"win","action":"no-go","sham":0,"trial_type":"pit-trial","trial_index":99,"time_elapsed":409748,"internal_node_id":"0.0-88.0","task_version":"battery-v0.1"},{"rune":"M","hex":"#f73b6a7A","correct":32,"choice":32,"rt":1062.709999998333,"accuracy":1,"outcome":"-1","keys":[2564.4549999997253],"total_keys":1,"block":1,"trial":87,"robot":3,"valence":"lose","action":"go","sham":0,"trial_type":"pit-trial","trial_index":100,"time_elapsed":413514,"internal_node_id":"0.0-89.0","task_version":"battery-v0.1"},{"rune":"C","hex":"#f73b6a7A","correct":-1,"choice":32,"rt":1124.085000003106,"accuracy":0,"outcome":"-10","keys":[2624.1599999921164],"total_keys":1,"block":1,"trial":88,"robot":4,"valence":"lose","action":"no-go","sham":0,"trial_type":"pit-trial","trial_index":101,"time_elapsed":417341,"internal_node_id":"0.0-90.0","task_version":"battery-v0.1"},{"rune":"Q","hex":"#3366ff99","correct":-1,"choice":32,"rt":531.6600000078324,"accuracy":0,"outcome":"+1","keys":[2031.8700000061654],"total_keys":1,"block":1,"trial":89,"robot":2,"valence":"win","action":"no-go","sham":0,"trial_type":"pit-trial","trial_index":102,"time_elapsed":420574,"internal_node_id":"0.0-91.0","task_version":"battery-v0.1"},{"rune":"K","hex":"#f73b6a7A","correct":-1,"choice":32,"rt":731.3750000030268,"accuracy":0,"outcome":"-1","keys":[2231.614999996964],"total_keys":1,"block":1,"trial":90,"robot":4,"valence":"lose","action":"no-go","sham":1,"trial_type":"pit-trial","trial_index":103,"time_elapsed":424008,"internal_node_id":"0.0-92.0","task_version":"battery-v0.1"},{"rune":"V","hex":"#f73b6a7A","correct":32,"choice":-1,"rt":-1,"accuracy":0,"outcome":"-10","keys":[],"total_keys":0,"block":1,"trial":91,"robot":3,"valence":"lose","action":"go","sham":0,"trial_type":"pit-trial","trial_index":104,"time_elapsed":428012,"internal_node_id":"0.0-93.0","task_version":"battery-v0.1"},{"rune":"M","hex":"#f73b6a7A","correct":32,"choice":32,"rt":696.0050000052433,"accuracy":1,"outcome":"-1","keys":[2196.104999995441],"total_keys":1,"block":1,"trial":92,"robot":3,"valence":"lose","action":"go","sham":0,"trial_type":"pit-trial","trial_index":105,"time_elapsed":431410,"internal_node_id":"0.0-94.0","task_version":"battery-v0.1"},{"rune":"V","hex":"#f73b6a7A","correct":32,"choice":-1,"rt":-1,"accuracy":0,"outcome":"-1","keys":[],"total_keys":0,"block":1,"trial":93,"robot":3,"valence":"lose","action":"go","sham":1,"trial_type":"pit-trial","trial_index":106,"time_elapsed":435412,"internal_node_id":"0.0-95.0","task_version":"battery-v0.1"},{"rune":"Q","hex":"#3366ff99","correct":-1,"choice":32,"rt":323.48500000080094,"accuracy":0,"outcome":"+1","keys":[1823.6949999991339],"total_keys":1,"block":1,"trial":94,"robot":2,"valence":"win","action":"no-go","sham":0,"trial_type":"pit-trial","trial_index":107,"time_elapsed":438437,"internal_node_id":"0.0-96.0","task_version":"battery-v0.1"},{"rune":"K","hex":"#f73b6a7A","correct":-1,"choice":-1,"rt":-1,"accuracy":1,"outcome":"-10","keys":[],"total_keys":0,"block":1,"trial":95,"robot":4,"valence":"lose","action":"no-go","sham":1,"trial_type":"pit-trial","trial_index":108,"time_elapsed":442440,"internal_node_id":"0.0-97.0","task_version":"battery-v0.1"},{"rune":"M","hex":"#f73b6a7A","correct":32,"choice":-1,"rt":-1,"accuracy":0,"outcome":"-10","keys":[],"total_keys":0,"block":1,"trial":96,"robot":3,"valence":"lose","action":"go","sham":0,"trial_type":"pit-trial","trial_index":109,"time_elapsed":446444,"internal_node_id":"0.0-98.0","task_version":"battery-v0.1"},{"rune":"M","hex":"#f73b6a7A","correct":32,"choice":32,"rt":532.8799999988405,"accuracy":1,"outcome":"-1","keys":[2032.91999999783],"total_keys":1,"block":1,"trial":97,"robot":3,"valence":"lose","action":"go","sham":0,"trial_type":"pit-trial","trial_index":110,"time_elapsed":449678,"internal_node_id":"0.0-99.0","task_version":"battery-v0.1"},{"rune":"Q","hex":"#3366ff99","correct":-1,"choice":32,"rt":533.7150000123074,"accuracy":0,"outcome":"+1","keys":[2034.429999999702],"total_keys":1,"block":1,"trial":98,"robot":2,"valence":"win","action":"no-go","sham":0,"trial_type":"pit-trial","trial_index":111,"time_elapsed":452914,"internal_node_id":"0.0-100.0","task_version":"battery-v0.1"},{"rune":"V","hex":"#f73b6a7A","correct":32,"choice":-1,"rt":-1,"accuracy":0,"outcome":"-10","keys":[],"total_keys":0,"block":1,"trial":99,"robot":3,"valence":"lose","action":"go","sham":0,"trial_type":"pit-trial","trial_index":112,"time_elapsed":456916,"internal_node_id":"0.0-101.0","task_version":"battery-v0.1"},{"rune":"K","hex":"#f73b6a7A","correct":-1,"choice":-1,"rt":-1,"accuracy":1,"outcome":"-1","keys":[],"total_keys":0,"block":1,"trial":100,"robot":4,"valence":"lose","action":"no-go","sham":0,"trial_type":"pit-trial","trial_index":113,"time_elapsed":460919,"internal_node_id":"0.0-102.0","task_version":"battery-v0.1"},{"rune":"M","hex":"#f73b6a7A","correct":32,"choice":32,"rt":925.1199999998789,"accuracy":1,"outcome":"-1","keys":[2425.299999988056],"total_keys":1,"block":1,"trial":101,"robot":3,"valence":"lose","action":"go","sham":0,"trial_type":"pit-trial","trial_index":114,"time_elapsed":464547,"internal_node_id":"0.0-103.0","task_version":"battery-v0.1"},{"rune":"Q","hex":"#3366ff99","correct":-1,"choice":32,"rt":410.3549999999814,"accuracy":0,"outcome":"+1","keys":[1910.5100000015227],"total_keys":1,"block":1,"trial":102,"robot":2,"valence":"win","action":"no-go","sham":0,"trial_type":"pit-trial","trial_index":115,"time_elapsed":467659,"internal_node_id":"0.0-104.0","task_version":"battery-v0.1"},{"rune":"V","hex":"#f73b6a7A","correct":32,"choice":-1,"rt":-1,"accuracy":0,"outcome":"-10","keys":[],"total_keys":0,"block":1,"trial":103,"robot":3,"valence":"lose","action":"go","sham":0,"trial_type":"pit-trial","trial_index":116,"time_elapsed":471662,"internal_node_id":"0.0-105.0","task_version":"battery-v0.1"},{"rune":"K","hex":"#f73b6a7A","correct":-1,"choice":-1,"rt":-1,"accuracy":1,"outcome":"-1","keys":[],"total_keys":0,"block":1,"trial":104,"robot":4,"valence":"lose","action":"no-go","sham":0,"trial_type":"pit-trial","trial_index":117,"time_elapsed":475665,"internal_node_id":"0.0-106.0","task_version":"battery-v0.1"},{"rune":"K","hex":"#f73b6a7A","correct":-1,"choice":-1,"rt":-1,"accuracy":1,"outcome":"-1","keys":[],"total_keys":0,"block":1,"trial":105,"robot":4,"valence":"lose","action":"no-go","sham":0,"trial_type":"pit-trial","trial_index":118,"time_elapsed":479668,"internal_node_id":"0.0-107.0","task_version":"battery-v0.1"},{"rune":"V","hex":"#f73b6a7A","correct":32,"choice":32,"rt":503.8849999982631,"accuracy":1,"outcome":"-10","keys":[2004.3149999983143],"total_keys":1,"block":1,"trial":106,"robot":3,"valence":"lose","action":"go","sham":1,"trial_type":"pit-trial","trial_index":119,"time_elapsed":482875,"internal_node_id":"0.0-108.0","task_version":"battery-v0.1"},{"rune":"Q","hex":"#3366ff99","correct":-1,"choice":32,"rt":382.00500000675675,"accuracy":0,"outcome":"+1","keys":[1883.8299999915762],"total_keys":1,"block":1,"trial":107,"robot":2,"valence":"win","action":"no-go","sham":0,"trial_type":"pit-trial","trial_index":120,"time_elapsed":485960,"internal_node_id":"0.0-109.0","task_version":"battery-v0.1"},{"rune":"M","hex":"#f73b6a7A","correct":32,"choice":-1,"rt":-1,"accuracy":0,"outcome":"-10","keys":[],"total_keys":0,"block":1,"trial":108,"robot":3,"valence":"lose","action":"go","sham":0,"trial_type":"pit-trial","trial_index":121,"time_elapsed":489963,"internal_node_id":"0.0-110.0","task_version":"battery-v0.1"},{"rune":"M","hex":"#f73b6a7A","correct":32,"choice":32,"rt":922.3800000036135,"accuracy":1,"outcome":"-10","keys":[2422.5100000039674],"total_keys":1,"block":1,"trial":109,"robot":3,"valence":"lose","action":"go","sham":1,"trial_type":"pit-trial","trial_index":122,"time_elapsed":493588,"internal_node_id":"0.0-111.0","task_version":"battery-v0.1"},{"rune":"K","hex":"#f73b6a7A","correct":-1,"choice":32,"rt":591.7349999945145,"accuracy":0,"outcome":"-10","keys":[2091.889999996056],"total_keys":1,"block":1,"trial":110,"robot":4,"valence":"lose","action":"no-go","sham":0,"trial_type":"pit-trial","trial_index":123,"time_elapsed":496882,"internal_node_id":"0.0-112.0","task_version":"battery-v0.1"},{"rune":"Q","hex":"#3366ff99","correct":-1,"choice":32,"rt":473.96000000298955,"accuracy":0,"outcome":"+1","keys":[1974.1400000057183],"total_keys":1,"block":1,"trial":111,"robot":2,"valence":"win","action":"no-go","sham":0,"trial_type":"pit-trial","trial_index":124,"time_elapsed":500058,"internal_node_id":"0.0-113.0","task_version":"battery-v0.1"},{"rune":"V","hex":"#f73b6a7A","correct":32,"choice":-1,"rt":-1,"accuracy":0,"outcome":"-10","keys":[],"total_keys":0,"block":1,"trial":112,"robot":3,"valence":"lose","action":"go","sham":0,"trial_type":"pit-trial","trial_index":125,"time_elapsed":504061,"internal_node_id":"0.0-114.0","task_version":"battery-v0.1"},{"rune":"Q","hex":"#3366ff99","correct":-1,"choice":32,"rt":325.4000000015367,"accuracy":0,"outcome":"+1","keys":[1825.6950000068173],"total_keys":1,"block":1,"trial":113,"robot":2,"valence":"win","action":"no-go","sham":0,"trial_type":"pit-trial","trial_index":126,"time_elapsed":507088,"internal_node_id":"0.0-115.0","task_version":"battery-v0.1"},{"rune":"M","hex":"#f73b6a7A","correct":32,"choice":-1,"rt":-1,"accuracy":0,"outcome":"-10","keys":[],"total_keys":0,"block":1,"trial":114,"robot":3,"valence":"lose","action":"go","sham":0,"trial_type":"pit-trial","trial_index":127,"time_elapsed":511092,"internal_node_id":"0.0-116.0","task_version":"battery-v0.1"},{"rune":"V","hex":"#f73b6a7A","correct":32,"choice":-1,"rt":-1,"accuracy":0,"outcome":"-10","keys":[],"total_keys":0,"block":1,"trial":115,"robot":3,"valence":"lose","action":"go","sham":0,"trial_type":"pit-trial","trial_index":128,"time_elapsed":515095,"internal_node_id":"0.0-117.0","task_version":"battery-v0.1"},{"rune":"K","hex":"#f73b6a7A","correct":-1,"choice":-1,"rt":-1,"accuracy":1,"outcome":"-1","keys":[],"total_keys":0,"block":1,"trial":116,"robot":4,"valence":"lose","action":"no-go","sham":0,"trial_type":"pit-trial","trial_index":129,"time_elapsed":519098,"internal_node_id":"0.0-118.0","task_version":"battery-v0.1"},{"rune":"Q","hex":"#3366ff99","correct":-1,"choice":-1,"rt":-1,"accuracy":1,"outcome":"+10","keys":[],"total_keys":0,"block":1,"trial":117,"robot":2,"valence":"win","action":"no-go","sham":0,"trial_type":"pit-trial","trial_index":130,"time_elapsed":523101,"internal_node_id":"0.0-119.0","task_version":"battery-v0.1"},{"rune":"V","hex":"#f73b6a7A","correct":32,"choice":-1,"rt":-1,"accuracy":0,"outcome":"-10","keys":[],"total_keys":0,"block":1,"trial":118,"robot":3,"valence":"lose","action":"go","sham":0,"trial_type":"pit-trial","trial_index":131,"time_elapsed":527105,"internal_node_id":"0.0-120.0","task_version":"battery-v0.1"},{"rune":"K","hex":"#f73b6a7A","correct":-1,"choice":-1,"rt":-1,"accuracy":1,"outcome":"-1","keys":[],"total_keys":0,"block":1,"trial":119,"robot":4,"valence":"lose","action":"no-go","sham":0,"trial_type":"pit-trial","trial_index":132,"time_elapsed":531108,"internal_node_id":"0.0-121.0","task_version":"battery-v0.1"},{"rune":"M","hex":"#f73b6a7A","correct":32,"choice":32,"rt":959.419999999227,"accuracy":1,"outcome":"-1","keys":[2459.6400000009453],"total_keys":1,"block":1,"trial":120,"robot":3,"valence":"lose","action":"go","sham":0,"trial_type":"pit-trial","trial_index":133,"time_elapsed":534770,"internal_node_id":"0.0-122.0","task_version":"battery-v0.1"},{"view_history":"[{\"page_index\":0,\"viewing_time\":2521.584999994957},{\"page_index\":1,\"viewing_time\":1808.0300000001444}]","rt":4329.960000002757,"trial_type":"pit-instructions","trial_index":134,"time_elapsed":539101,"internal_node_id":"0.0-123.0","task_version":"battery-v0.1"},{"rune":"E","hex":"#3366ff99","correct":-1,"choice":32,"rt":402.70000000600703,"accuracy":0,"outcome":"+1","keys":[1903.135000000475],"total_keys":1,"block":2,"trial":121,"robot":2,"valence":"win","action":"no-go","sham":0,"trial_type":"pit-trial","trial_index":135,"time_elapsed":542207,"internal_node_id":"0.0-124.0","task_version":"battery-v0.1"},{"rune":"W","hex":"#f73b6a7A","correct":-1,"choice":-1,"rt":-1,"accuracy":1,"outcome":"-10","keys":[],"total_keys":0,"block":2,"trial":122,"robot":4,"valence":"lose","action":"no-go","sham":1,"trial_type":"pit-trial","trial_index":136,"time_elapsed":546210,"internal_node_id":"0.0-125.0","task_version":"battery-v0.1"},{"rune":"U","hex":"#f73b6a7A","correct":-1,"choice":32,"rt":451.2399999948684,"accuracy":0,"outcome":"-10","keys":[1951.4300000009825],"total_keys":1,"block":2,"trial":123,"robot":4,"valence":"lose","action":"no-go","sham":0,"trial_type":"pit-trial","trial_index":137,"time_elapsed":549364,"internal_node_id":"0.0-126.0","task_version":"battery-v0.1"},{"rune":"N","hex":"#3366ff99","correct":32,"choice":32,"rt":323.59500000893604,"accuracy":1,"outcome":"+10","keys":[1824.7600000031525],"total_keys":1,"block":2,"trial":124,"robot":1,"valence":"win","action":"go","sham":0,"trial_type":"pit-trial","trial_index":138,"time_elapsed":552390,"internal_node_id":"0.0-127.0","task_version":"battery-v0.1"},{"rune":"W","hex":"#f73b6a7A","correct":-1,"choice":-1,"rt":-1,"accuracy":1,"outcome":"-1","keys":[],"total_keys":0,"block":2,"trial":125,"robot":4,"valence":"lose","action":"no-go","sham":0,"trial_type":"pit-trial","trial_index":139,"time_elapsed":556393,"internal_node_id":"0.0-128.0","task_version":"battery-v0.1"},{"rune":"N","hex":"#3366ff99","correct":32,"choice":32,"rt":635.1549999963026,"accuracy":1,"outcome":"+10","keys":[2135.309999997844],"total_keys":1,"block":2,"trial":126,"robot":1,"valence":"win","action":"go","sham":0,"trial_type":"pit-trial","trial_index":140,"time_elapsed":559730,"internal_node_id":"0.0-129.0","task_version":"battery-v0.1"},{"rune":"E","hex":"#3366ff99","correct":-1,"choice":-1,"rt":-1,"accuracy":1,"outcome":"+10","keys":[],"total_keys":0,"block":2,"trial":127,"robot":2,"valence":"win","action":"no-go","sham":0,"trial_type":"pit-trial","trial_index":141,"time_elapsed":563732,"internal_node_id":"0.0-130.0","task_version":"battery-v0.1"},{"rune":"U","hex":"#f73b6a7A","correct":-1,"choice":-1,"rt":-1,"accuracy":1,"outcome":"-1","keys":[],"total_keys":0,"block":2,"trial":128,"robot":4,"valence":"lose","action":"no-go","sham":0,"trial_type":"pit-trial","trial_index":142,"time_elapsed":567736,"internal_node_id":"0.0-131.0","task_version":"battery-v0.1"},{"rune":"N","hex":"#3366ff99","correct":32,"choice":32,"rt":721.4250000106404,"accuracy":1,"outcome":"+10","keys":[2221.5649999998277],"total_keys":1,"block":2,"trial":129,"robot":1,"valence":"win","action":"go","sham":0,"trial_type":"pit-trial","trial_index":143,"time_elapsed":571160,"internal_node_id":"0.0-132.0","task_version":"battery-v0.1"},{"rune":"E","hex":"#3366ff99","correct":-1,"choice":32,"rt":681.734999991022,"accuracy":0,"outcome":"+1","keys":[2181.8999999959487],"total_keys":1,"block":2,"trial":130,"robot":2,"valence":"win","action":"no-go","sham":0,"trial_type":"pit-trial","trial_index":144,"time_elapsed":574544,"internal_node_id":"0.0-133.0","task_version":"battery-v0.1"},{"rune":"U","hex":"#f73b6a7A","correct":-1,"choice":-1,"rt":-1,"accuracy":1,"outcome":"-10","keys":[],"total_keys":0,"block":2,"trial":131,"robot":4,"valence":"lose","action":"no-go","sham":1,"trial_type":"pit-trial","trial_index":145,"time_elapsed":578547,"internal_node_id":"0.0-134.0","task_version":"battery-v0.1"},{"rune":"W","hex":"#f73b6a7A","correct":-1,"choice":32,"rt":500.15500000154134,"accuracy":0,"outcome":"-1","keys":[2000.2999999996973],"total_keys":1,"block":2,"trial":132,"robot":4,"valence":"lose","action":"no-go","sham":1,"trial_type":"pit-trial","trial_index":146,"time_elapsed":581749,"internal_node_id":"0.0-135.0","task_version":"battery-v0.1"},{"rune":"N","hex":"#3366ff99","correct":32,"choice":32,"rt":660.5750000016997,"accuracy":1,"outcome":"+1","keys":[2160.7250000088243],"total_keys":1,"block":2,"trial":133,"robot":1,"valence":"win","action":"go","sham":1,"trial_type":"pit-trial","trial_index":147,"time_elapsed":585111,"internal_node_id":"0.0-136.0","task_version":"battery-v0.1"},{"rune":"U","hex":"#f73b6a7A","correct":-1,"choice":32,"rt":685.8700000011595,"accuracy":0,"outcome":"-10","keys":[2186.019999993732],"total_keys":1,"block":2,"trial":134,"robot":4,"valence":"lose","action":"no-go","sham":0,"trial_type":"pit-trial","trial_index":148,"time_elapsed":588499,"internal_node_id":"0.0-137.0","task_version":"battery-v0.1"},{"rune":"E","hex":"#3366ff99","correct":-1,"choice":32,"rt":838.1850000005215,"accuracy":0,"outcome":"+1","keys":[2338.3499999908963],"total_keys":1,"block":2,"trial":135,"robot":2,"valence":"win","action":"no-go","sham":0,"trial_type":"pit-trial","trial_index":149,"time_elapsed":592039,"internal_node_id":"0.0-138.0","task_version":"battery-v0.1"},{"rune":"W","hex":"#f73b6a7A","correct":-1,"choice":-1,"rt":-1,"accuracy":1,"outcome":"-1","keys":[],"total_keys":0,"block":2,"trial":136,"robot":4,"valence":"lose","action":"no-go","sham":0,"trial_type":"pit-trial","trial_index":150,"time_elapsed":596041,"internal_node_id":"0.0-139.0","task_version":"battery-v0.1"},{"rune":"E","hex":"#3366ff99","correct":-1,"choice":32,"rt":289.4900000101188,"accuracy":0,"outcome":"+10","keys":[1791.239999991376],"total_keys":1,"block":2,"trial":137,"robot":2,"valence":"win","action":"no-go","sham":1,"trial_type":"pit-trial","trial_index":151,"time_elapsed":599035,"internal_node_id":"0.0-140.0","task_version":"battery-v0.1"},{"rune":"U","hex":"#f73b6a7A","correct":-1,"choice":-1,"rt":-1,"accuracy":1,"outcome":"-1","keys":[],"total_keys":0,"block":2,"trial":138,"robot":4,"valence":"lose","action":"no-go","sham":0,"trial_type":"pit-trial","trial_index":152,"time_elapsed":603039,"internal_node_id":"0.0-141.0","task_version":"battery-v0.1"},{"rune":"N","hex":"#3366ff99","correct":32,"choice":32,"rt":381.02500000968575,"accuracy":1,"outcome":"+10","keys":[1881.84000000183],"total_keys":1,"block":2,"trial":139,"robot":1,"valence":"win","action":"go","sham":0,"trial_type":"pit-trial","trial_index":153,"time_elapsed":606124,"internal_node_id":"0.0-142.0","task_version":"battery-v0.1"},{"rune":"W","hex":"#f73b6a7A","correct":-1,"choice":32,"rt":641.2400000117486,"accuracy":0,"outcome":"-10","keys":[2141.8350000021746],"total_keys":1,"block":2,"trial":140,"robot":4,"valence":"lose","action":"no-go","sham":0,"trial_type":"pit-trial","trial_index":154,"time_elapsed":609468,"internal_node_id":"0.0-143.0","task_version":"battery-v0.1"},{"rune":"N","hex":"#3366ff99","correct":32,"choice":32,"rt":409.57499999785796,"accuracy":1,"outcome":"+10","keys":[1909.7449999972014],"total_keys":1,"block":2,"trial":141,"robot":1,"valence":"win","action":"go","sham":0,"trial_type":"pit-trial","trial_index":155,"time_elapsed":612580,"internal_node_id":"0.0-144.0","task_version":"battery-v0.1"},{"rune":"E","hex":"#3366ff99","correct":-1,"choice":32,"rt":331.94499999808613,"accuracy":0,"outcome":"+1","keys":[1832.1150000119815],"total_keys":1,"block":2,"trial":142,"robot":2,"valence":"win","action":"no-go","sham":0,"trial_type":"pit-trial","trial_index":156,"time_elapsed":615614,"internal_node_id":"0.0-145.0","task_version":"battery-v0.1"},{"rune":"W","hex":"#f73b6a7A","correct":-1,"choice":-1,"rt":-1,"accuracy":1,"outcome":"-1","keys":[],"total_keys":0,"block":2,"trial":143,"robot":4,"valence":"lose","action":"no-go","sham":0,"trial_type":"pit-trial","trial_index":157,"time_elapsed":619617,"internal_node_id":"0.0-146.0","task_version":"battery-v0.1"},{"rune":"U","hex":"#f73b6a7A","correct":-1,"choice":32,"rt":775.6550000049174,"accuracy":0,"outcome":"-10","keys":[2275.7199999905424],"total_keys":1,"block":2,"trial":144,"robot":4,"valence":"lose","action":"no-go","sham":0,"trial_type":"pit-trial","trial_index":158,"time_elapsed":623094,"internal_node_id":"0.0-147.0","task_version":"battery-v0.1"},{"rune":"E","hex":"#3366ff99","correct":-1,"choice":32,"rt":246.99499999405816,"accuracy":0,"outcome":"+1","keys":[1747.1550000045681],"total_keys":1,"block":2,"trial":145,"robot":2,"valence":"win","action":"no-go","sham":0,"trial_type":"pit-trial","trial_index":159,"time_elapsed":626043,"internal_node_id":"0.0-148.0","task_version":"battery-v0.1"},{"rune":"W","hex":"#f73b6a7A","correct":-1,"choice":-1,"rt":-1,"accuracy":1,"outcome":"-1","keys":[],"total_keys":0,"block":2,"trial":146,"robot":4,"valence":"lose","action":"no-go","sham":0,"trial_type":"pit-trial","trial_index":160,"time_elapsed":630046,"internal_node_id":"0.0-149.0","task_version":"battery-v0.1"},{"rune":"U","hex":"#f73b6a7A","correct":-1,"choice":-1,"rt":-1,"accuracy":1,"outcome":"-10","keys":[],"total_keys":0,"block":2,"trial":147,"robot":4,"valence":"lose","action":"no-go","sham":1,"trial_type":"pit-trial","trial_index":161,"time_elapsed":634049,"internal_node_id":"0.0-150.0","task_version":"battery-v0.1"},{"rune":"N","hex":"#3366ff99","correct":32,"choice":32,"rt":278.6399999895366,"accuracy":1,"outcome":"+10","keys":[1778.7649999954738],"total_keys":1,"block":2,"trial":148,"robot":1,"valence":"win","action":"go","sham":0,"trial_type":"pit-trial","trial_index":162,"time_elapsed":637030,"internal_node_id":"0.0-151.0","task_version":"battery-v0.1"},{"rune":"U","hex":"#f73b6a7A","correct":-1,"choice":-1,"rt":-1,"accuracy":1,"outcome":"-10","keys":[],"total_keys":0,"block":2,"trial":149,"robot":4,"valence":"lose","action":"no-go","sham":1,"trial_type":"pit-trial","trial_index":163,"time_elapsed":641033,"internal_node_id":"0.0-152.0","task_version":"battery-v0.1"},{"rune":"N","hex":"#3366ff99","correct":32,"choice":32,"rt":315.1050000014948,"accuracy":1,"outcome":"+1","keys":[1815.9650000015972],"total_keys":1,"block":2,"trial":150,"robot":1,"valence":"win","action":"go","sham":1,"trial_type":"pit-trial","trial_index":164,"time_elapsed":644052,"internal_node_id":"0.0-153.0","task_version":"battery-v0.1"},{"rune":"E","hex":"#3366ff99","correct":-1,"choice":32,"rt":304.19999999867287,"accuracy":0,"outcome":"+10","keys":[1805.1049999921815],"total_keys":1,"block":2,"trial":151,"robot":2,"valence":"win","action":"no-go","sham":1,"trial_type":"pit-trial","trial_index":165,"time_elapsed":647059,"internal_node_id":"0.0-154.0","task_version":"battery-v0.1"},{"rune":"W","hex":"#f73b6a7A","correct":-1,"choice":-1,"rt":-1,"accuracy":1,"outcome":"-1","keys":[],"total_keys":0,"block":2,"trial":152,"robot":4,"valence":"lose","action":"no-go","sham":0,"trial_type":"pit-trial","trial_index":166,"time_elapsed":651062,"internal_node_id":"0.0-155.0","task_version":"battery-v0.1"},{"rune":"U","hex":"#f73b6a7A","correct":-1,"choice":32,"rt":609.7900000022491,"accuracy":0,"outcome":"-10","keys":[2110.819999987143],"total_keys":1,"block":2,"trial":153,"robot":4,"valence":"lose","action":"no-go","sham":0,"trial_type":"pit-trial","trial_index":167,"time_elapsed":654375,"internal_node_id":"0.0-156.0","task_version":"battery-v0.1"},{"rune":"E","hex":"#3366ff99","correct":-1,"choice":32,"rt":297.10999999952037,"accuracy":0,"outcome":"+1","keys":[1797.1350000007078],"total_keys":1,"block":2,"trial":154,"robot":2,"valence":"win","action":"no-go","sham":0,"trial_type":"pit-trial","trial_index":168,"time_elapsed":657374,"internal_node_id":"0.0-157.0","task_version":"battery-v0.1"},{"rune":"N","hex":"#3366ff99","correct":32,"choice":32,"rt":312.49499999103136,"accuracy":1,"outcome":"+10","keys":[1812.5450000079582],"total_keys":1,"block":2,"trial":155,"robot":1,"valence":"win","action":"go","sham":0,"trial_type":"pit-trial","trial_index":169,"time_elapsed":660389,"internal_node_id":"0.0-158.0","task_version":"battery-v0.1"},{"rune":"P","hex":"#f73b6a7A","correct":32,"choice":-1,"rt":-1,"accuracy":0,"outcome":"-1","keys":[],"total_keys":0,"block":2,"trial":156,"robot":3,"valence":"lose","action":"go","sham":1,"trial_type":"pit-trial","trial_index":170,"time_elapsed":664391,"internal_node_id":"0.0-159.0","task_version":"battery-v0.1"},{"rune":"U","hex":"#f73b6a7A","correct":-1,"choice":32,"rt":524.0800000028685,"accuracy":0,"outcome":"-10","keys":[2024.3049999990035],"total_keys":1,"block":2,"trial":157,"robot":4,"valence":"lose","action":"no-go","sham":0,"trial_type":"pit-trial","trial_index":171,"time_elapsed":667616,"internal_node_id":"0.0-160.0","task_version":"battery-v0.1"},{"rune":"N","hex":"#3366ff99","correct":32,"choice":32,"rt":267.3499999946216,"accuracy":1,"outcome":"+10","keys":[1767.6050000009127],"total_keys":1,"block":2,"trial":158,"robot":1,"valence":"win","action":"go","sham":0,"trial_type":"pit-trial","trial_index":172,"time_elapsed":670586,"internal_node_id":"0.0-161.0","task_version":"battery-v0.1"},{"rune":"P","hex":"#f73b6a7A","correct":32,"choice":-1,"rt":-1,"accuracy":0,"outcome":"-10","keys":[],"total_keys":0,"block":2,"trial":159,"robot":3,"valence":"lose","action":"go","sham":0,"trial_type":"pit-trial","trial_index":173,"time_elapsed":674589,"internal_node_id":"0.0-162.0","task_version":"battery-v0.1"},{"rune":"E","hex":"#3366ff99","correct":-1,"choice":32,"rt":260.4550000105519,"accuracy":0,"outcome":"+10","keys":[1761.4100000064354],"total_keys":1,"block":2,"trial":160,"robot":2,"valence":"win","action":"no-go","sham":1,"trial_type":"pit-trial","trial_index":174,"time_elapsed":677552,"internal_node_id":"0.0-163.0","task_version":"battery-v0.1"},{"rune":"P","hex":"#f73b6a7A","correct":32,"choice":-1,"rt":-1,"accuracy":0,"outcome":"-10","keys":[],"total_keys":0,"block":2,"trial":161,"robot":3,"valence":"lose","action":"go","sham":0,"trial_type":"pit-trial","trial_index":175,"time_elapsed":681557,"internal_node_id":"0.0-164.0","task_version":"battery-v0.1"},{"rune":"F","hex":"#3366ff99","correct":32,"choice":32,"rt":424.04500000702683,"accuracy":1,"outcome":"+10","keys":[1924.2150000063702],"total_keys":1,"block":2,"trial":162,"robot":1,"valence":"win","action":"go","sham":0,"trial_type":"pit-trial","trial_index":176,"time_elapsed":684683,"internal_node_id":"0.0-165.0","task_version":"battery-v0.1"},{"rune":"B","hex":"#3366ff99","correct":-1,"choice":32,"rt":524.4349999993574,"accuracy":0,"outcome":"+1","keys":[2024.6400000032736],"total_keys":1,"block":2,"trial":163,"robot":2,"valence":"win","action":"no-go","sham":0,"trial_type":"pit-trial","trial_index":177,"time_elapsed":687910,"internal_node_id":"0.0-166.0","task_version":"battery-v0.1"},{"rune":"U","hex":"#f73b6a7A","correct":-1,"choice":-1,"rt":-1,"accuracy":1,"outcome":"-10","keys":[],"total_keys":0,"block":2,"trial":164,"robot":4,"valence":"lose","action":"no-go","sham":1,"trial_type":"pit-trial","trial_index":178,"time_elapsed":691911,"internal_node_id":"0.0-167.0","task_version":"battery-v0.1"},{"rune":"P","hex":"#f73b6a7A","correct":32,"choice":32,"rt":67.74999998742715,"accuracy":1,"outcome":"-1","keys":[1568.184999996447],"total_keys":1,"block":2,"trial":165,"robot":3,"valence":"lose","action":"go","sham":0,"trial_type":"pit-trial","trial_index":179,"time_elapsed":694681,"internal_node_id":"0.0-168.0","task_version":"battery-v0.1"},{"rune":"B","hex":"#3366ff99","correct":-1,"choice":32,"rt":286.44500000518747,"accuracy":0,"outcome":"+1","keys":[1786.550000004354],"total_keys":1,"block":2,"trial":166,"robot":2,"valence":"win","action":"no-go","sham":0,"trial_type":"pit-trial","trial_index":180,"time_elapsed":697670,"internal_node_id":"0.0-169.0","task_version":"battery-v0.1"},{"rune":"U","hex":"#f73b6a7A","correct":-1,"choice":-1,"rt":-1,"accuracy":1,"outcome":"-1","keys":[],"total_keys":0,"block":2,"trial":167,"robot":4,"valence":"lose","action":"no-go","sham":0,"trial_type":"pit-trial","trial_index":181,"time_elapsed":701673,"internal_node_id":"0.0-170.0","task_version":"battery-v0.1"},{"rune":"F","hex":"#3366ff99","correct":32,"choice":32,"rt":342.03500000876375,"accuracy":1,"outcome":"+10","keys":[1842.2449999925448],"total_keys":1,"block":2,"trial":168,"robot":1,"valence":"win","action":"go","sham":0,"trial_type":"pit-trial","trial_index":182,"time_elapsed":704716,"internal_node_id":"0.0-171.0","task_version":"battery-v0.1"},{"rune":"B","hex":"#3366ff99","correct":-1,"choice":32,"rt":401.53499999723863,"accuracy":0,"outcome":"+1","keys":[1902.7700000006007],"total_keys":1,"block":2,"trial":169,"robot":2,"valence":"win","action":"no-go","sham":0,"trial_type":"pit-trial","trial_index":183,"time_elapsed":707821,"internal_node_id":"0.0-172.0","task_version":"battery-v0.1"},{"rune":"G","hex":"#f73b6a7A","correct":-1,"choice":-1,"rt":-1,"accuracy":1,"outcome":"-10","keys":[],"total_keys":0,"block":2,"trial":170,"robot":4,"valence":"lose","action":"no-go","sham":1,"trial_type":"pit-trial","trial_index":184,"time_elapsed":711824,"internal_node_id":"0.0-173.0","task_version":"battery-v0.1"},{"rune":"F","hex":"#3366ff99","correct":32,"choice":32,"rt":161.5999999921769,"accuracy":1,"outcome":"+10","keys":[1661.8099999905098],"total_keys":1,"block":2,"trial":171,"robot":1,"valence":"win","action":"go","sham":0,"trial_type":"pit-trial","trial_index":185,"time_elapsed":714688,"internal_node_id":"0.0-174.0","task_version":"battery-v0.1"},{"rune":"P","hex":"#f73b6a7A","correct":32,"choice":-1,"rt":-1,"accuracy":0,"outcome":"-10","keys":[],"total_keys":0,"block":2,"trial":172,"robot":3,"valence":"lose","action":"go","sham":0,"trial_type":"pit-trial","trial_index":186,"time_elapsed":718691,"internal_node_id":"0.0-175.0","task_version":"battery-v0.1"},{"rune":"P","hex":"#f73b6a7A","correct":32,"choice":32,"rt":280.8050000021467,"accuracy":1,"outcome":"-1","keys":[1780.9700000070734],"total_keys":1,"block":2,"trial":173,"robot":3,"valence":"lose","action":"go","sham":0,"trial_type":"pit-trial","trial_index":187,"time_elapsed":721674,"internal_node_id":"0.0-176.0","task_version":"battery-v0.1"},{"rune":"F","hex":"#3366ff99","correct":32,"choice":32,"rt":312.114999993355,"accuracy":1,"outcome":"+10","keys":[1812.2700000094483],"total_keys":1,"block":2,"trial":174,"robot":1,"valence":"win","action":"go","sham":0,"trial_type":"pit-trial","trial_index":188,"time_elapsed":724689,"internal_node_id":"0.0-177.0","task_version":"battery-v0.1"},{"rune":"G","hex":"#f73b6a7A","correct":-1,"choice":-1,"rt":-1,"accuracy":1,"outcome":"-1","keys":[],"total_keys":0,"block":2,"trial":175,"robot":4,"valence":"lose","action":"no-go","sham":0,"trial_type":"pit-trial","trial_index":189,"time_elapsed":728692,"internal_node_id":"0.0-178.0","task_version":"battery-v0.1"},{"rune":"B","hex":"#3366ff99","correct":-1,"choice":32,"rt":257.78499999432825,"accuracy":0,"outcome":"+1","keys":[1757.9550000082236],"total_keys":1,"block":2,"trial":176,"robot":2,"valence":"win","action":"no-go","sham":0,"trial_type":"pit-trial","trial_index":190,"time_elapsed":731651,"internal_node_id":"0.0-179.0","task_version":"battery-v0.1"},{"rune":"B","hex":"#3366ff99","correct":-1,"choice":32,"rt":408.10500000952743,"accuracy":0,"outcome":"+1","keys":[1909.7699999983888],"total_keys":1,"block":2,"trial":177,"robot":2,"valence":"win","action":"no-go","sham":0,"trial_type":"pit-trial","trial_index":191,"time_elapsed":734764,"internal_node_id":"0.0-180.0","task_version":"battery-v0.1"},{"rune":"F","hex":"#3366ff99","correct":32,"choice":32,"rt":337.4899999907939,"accuracy":1,"outcome":"+1","keys":[1837.549999996554],"total_keys":1,"block":2,"trial":178,"robot":1,"valence":"win","action":"go","sham":1,"trial_type":"pit-trial","trial_index":192,"time_elapsed":737804,"internal_node_id":"0.0-181.0","task_version":"battery-v0.1"},{"rune":"P","hex":"#f73b6a7A","correct":32,"choice":-1,"rt":-1,"accuracy":0,"outcome":"-10","keys":[],"total_keys":0,"block":2,"trial":179,"robot":3,"valence":"lose","action":"go","sham":0,"trial_type":"pit-trial","trial_index":193,"time_elapsed":741807,"internal_node_id":"0.0-182.0","task_version":"battery-v0.1"},{"rune":"G","hex":"#f73b6a7A","correct":-1,"choice":32,"rt":994.1200000030221,"accuracy":0,"outcome":"-10","keys":[2494.27999999898],"total_keys":1,"block":2,"trial":180,"robot":4,"valence":"lose","action":"no-go","sham":0,"trial_type":"pit-trial","trial_index":194,"time_elapsed":745503,"internal_node_id":"0.0-183.0","task_version":"battery-v0.1"},{"rune":"P","hex":"#f73b6a7A","correct":32,"choice":32,"rt":550.2200000046287,"accuracy":1,"outcome":"-10","keys":[2050.4800000053365],"total_keys":1,"block":2,"trial":181,"robot":3,"valence":"lose","action":"go","sham":1,"trial_type":"pit-trial","trial_index":195,"time_elapsed":748755,"internal_node_id":"0.0-184.0","task_version":"battery-v0.1"},{"rune":"F","hex":"#3366ff99","correct":32,"choice":32,"rt":316.38000000384636,"accuracy":1,"outcome":"+1","keys":[1816.4799999940442],"total_keys":1,"block":2,"trial":182,"robot":1,"valence":"win","action":"go","sham":1,"trial_type":"pit-trial","trial_index":196,"time_elapsed":751774,"internal_node_id":"0.0-185.0","task_version":"battery-v0.1"},{"rune":"B","hex":"#3366ff99","correct":-1,"choice":32,"rt":287.0850000035716,"accuracy":0,"outcome":"+1","keys":[1787.3650000110501],"total_keys":1,"block":2,"trial":183,"robot":2,"valence":"win","action":"no-go","sham":0,"trial_type":"pit-trial","trial_index":197,"time_elapsed":754763,"internal_node_id":"0.0-186.0","task_version":"battery-v0.1"},{"rune":"G","hex":"#f73b6a7A","correct":-1,"choice":-1,"rt":-1,"accuracy":1,"outcome":"-1","keys":[],"total_keys":0,"block":2,"trial":184,"robot":4,"valence":"lose","action":"no-go","sham":0,"trial_type":"pit-trial","trial_index":198,"time_elapsed":758766,"internal_node_id":"0.0-187.0","task_version":"battery-v0.1"},{"rune":"F","hex":"#3366ff99","correct":32,"choice":32,"rt":145.66999999806285,"accuracy":1,"outcome":"+10","keys":[1645.8350000029895],"total_keys":1,"block":2,"trial":185,"robot":1,"valence":"win","action":"go","sham":0,"trial_type":"pit-trial","trial_index":199,"time_elapsed":761614,"internal_node_id":"0.0-188.0","task_version":"battery-v0.1"},{"rune":"B","hex":"#3366ff99","correct":-1,"choice":32,"rt":258.4599999972852,"accuracy":0,"outcome":"+1","keys":[1758.6900000023888],"total_keys":1,"block":2,"trial":186,"robot":2,"valence":"win","action":"no-go","sham":0,"trial_type":"pit-trial","trial_index":200,"time_elapsed":764575,"internal_node_id":"0.0-189.0","task_version":"battery-v0.1"},{"rune":"G","hex":"#f73b6a7A","correct":-1,"choice":-1,"rt":-1,"accuracy":1,"outcome":"-1","keys":[],"total_keys":0,"block":2,"trial":187,"robot":4,"valence":"lose","action":"no-go","sham":0,"trial_type":"pit-trial","trial_index":201,"time_elapsed":768578,"internal_node_id":"0.0-190.0","task_version":"battery-v0.1"},{"rune":"P","hex":"#f73b6a7A","correct":32,"choice":-1,"rt":-1,"accuracy":0,"outcome":"-10","keys":[],"total_keys":0,"block":2,"trial":188,"robot":3,"valence":"lose","action":"go","sham":0,"trial_type":"pit-trial","trial_index":202,"time_elapsed":772580,"internal_node_id":"0.0-191.0","task_version":"battery-v0.1"},{"rune":"P","hex":"#f73b6a7A","correct":32,"choice":32,"rt":294.8349999933271,"accuracy":1,"outcome":"-1","keys":[1794.9200000002747],"total_keys":1,"block":2,"trial":189,"robot":3,"valence":"lose","action":"go","sham":0,"trial_type":"pit-trial","trial_index":203,"time_elapsed":775577,"internal_node_id":"0.0-192.0","task_version":"battery-v0.1"},{"rune":"B","hex":"#3366ff99","correct":-1,"choice":32,"rt":393.5250000067754,"accuracy":0,"outcome":"+10","keys":[1894.2450000031386],"total_keys":1,"block":2,"trial":190,"robot":2,"valence":"win","action":"no-go","sham":1,"trial_type":"pit-trial","trial_index":204,"time_elapsed":778673,"internal_node_id":"0.0-193.0","task_version":"battery-v0.1"},{"rune":"G","hex":"#f73b6a7A","correct":-1,"choice":-1,"rt":-1,"accuracy":1,"outcome":"-10","keys":[],"total_keys":0,"block":2,"trial":191,"robot":4,"valence":"lose","action":"no-go","sham":1,"trial_type":"pit-trial","trial_index":205,"time_elapsed":782676,"internal_node_id":"0.0-194.0","task_version":"battery-v0.1"},{"rune":"F","hex":"#3366ff99","correct":32,"choice":32,"rt":366.32499999541324,"accuracy":1,"outcome":"+10","keys":[1867.4900000041816],"total_keys":1,"block":2,"trial":192,"robot":1,"valence":"win","action":"go","sham":0,"trial_type":"pit-trial","trial_index":206,"time_elapsed":785747,"internal_node_id":"0.0-195.0","task_version":"battery-v0.1"},{"rune":"T","hex":"#f73b6a7A","correct":32,"choice":32,"rt":686.3900000025751,"accuracy":1,"outcome":"-1","keys":[2187.1749999991152],"total_keys":1,"block":2,"trial":193,"robot":3,"valence":"lose","action":"go","sham":0,"trial_type":"pit-trial","trial_index":207,"time_elapsed":789136,"internal_node_id":"0.0-196.0","task_version":"battery-v0.1"},{"rune":"L","hex":"#3366ff99","correct":32,"choice":32,"rt":327.22999999532476,"accuracy":1,"outcome":"+10","keys":[1827.3099999933038],"total_keys":1,"block":2,"trial":194,"robot":1,"valence":"win","action":"go","sham":0,"trial_type":"pit-trial","trial_index":208,"time_elapsed":792165,"internal_node_id":"0.0-197.0","task_version":"battery-v0.1"},{"rune":"G","hex":"#f73b6a7A","correct":-1,"choice":32,"rt":645.8099999872502,"accuracy":0,"outcome":"-1","keys":[2146.2849999952596],"total_keys":1,"block":2,"trial":195,"robot":4,"valence":"lose","action":"no-go","sham":1,"trial_type":"pit-trial","trial_index":209,"time_elapsed":795513,"internal_node_id":"0.0-198.0","task_version":"battery-v0.1"},{"rune":"B","hex":"#3366ff99","correct":-1,"choice":32,"rt":432.23500000021886,"accuracy":0,"outcome":"+1","keys":[1932.3950000107288],"total_keys":1,"block":2,"trial":196,"robot":2,"valence":"win","action":"no-go","sham":0,"trial_type":"pit-trial","trial_index":210,"time_elapsed":798647,"internal_node_id":"0.0-199.0","task_version":"battery-v0.1"},{"rune":"T","hex":"#f73b6a7A","correct":32,"choice":-1,"rt":-1,"accuracy":0,"outcome":"-10","keys":[],"total_keys":0,"block":2,"trial":197,"robot":3,"valence":"lose","action":"go","sham":0,"trial_type":"pit-trial","trial_index":211,"time_elapsed":802649,"internal_node_id":"0.0-200.0","task_version":"battery-v0.1"},{"rune":"G","hex":"#f73b6a7A","correct":-1,"choice":32,"rt":556.8300000013551,"accuracy":0,"outcome":"-10","keys":[2056.9499999983236],"total_keys":1,"block":2,"trial":198,"robot":4,"valence":"lose","action":"no-go","sham":0,"trial_type":"pit-trial","trial_index":212,"time_elapsed":805908,"internal_node_id":"0.0-201.0","task_version":"battery-v0.1"},{"rune":"L","hex":"#3366ff99","correct":32,"choice":32,"rt":394.06000000599306,"accuracy":1,"outcome":"+1","keys":[1894.1950000007637],"total_keys":1,"block":2,"trial":199,"robot":1,"valence":"win","action":"go","sham":1,"trial_type":"pit-trial","trial_index":213,"time_elapsed":809004,"internal_node_id":"0.0-202.0","task_version":"battery-v0.1"},{"rune":"B","hex":"#3366ff99","correct":-1,"choice":32,"rt":222.45999998995103,"accuracy":0,"outcome":"+1","keys":[1722.5499999913154],"total_keys":1,"block":2,"trial":200,"robot":2,"valence":"win","action":"no-go","sham":0,"trial_type":"pit-trial","trial_index":214,"time_elapsed":811929,"internal_node_id":"0.0-203.0","task_version":"battery-v0.1"},{"rune":"G","hex":"#f73b6a7A","correct":-1,"choice":32,"rt":411.9899999932386,"accuracy":0,"outcome":"-10","keys":[1912.0550000079675],"total_keys":1,"block":2,"trial":201,"robot":4,"valence":"lose","action":"no-go","sham":0,"trial_type":"pit-trial","trial_index":215,"time_elapsed":815043,"internal_node_id":"0.0-204.0","task_version":"battery-v0.1"},{"rune":"T","hex":"#f73b6a7A","correct":32,"choice":-1,"rt":-1,"accuracy":0,"outcome":"-10","keys":[1341.230000005453],"total_keys":1,"block":2,"trial":202,"robot":3,"valence":"lose","action":"go","sham":0,"trial_type":"pit-trial","trial_index":216,"time_elapsed":819045,"internal_node_id":"0.0-205.0","task_version":"battery-v0.1"},{"rune":"B","hex":"#3366ff99","correct":-1,"choice":32,"rt":637.3800000001211,"accuracy":0,"outcome":"+1","keys":[1273.495000001276,2137.56000000285],"total_keys":2,"block":2,"trial":203,"robot":2,"valence":"win","action":"no-go","sham":0,"trial_type":"pit-trial","trial_index":217,"time_elapsed":822384,"internal_node_id":"0.0-206.0","task_version":"battery-v0.1"},{"rune":"L","hex":"#3366ff99","correct":32,"choice":32,"rt":444.0549999999348,"accuracy":1,"outcome":"+10","keys":[1944.6800000005169],"total_keys":1,"block":2,"trial":204,"robot":1,"valence":"win","action":"go","sham":0,"trial_type":"pit-trial","trial_index":218,"time_elapsed":825532,"internal_node_id":"0.0-207.0","task_version":"battery-v0.1"},{"rune":"B","hex":"#3366ff99","correct":-1,"choice":32,"rt":223.05500000948086,"accuracy":0,"outcome":"+1","keys":[1723.2700000022305],"total_keys":1,"block":2,"trial":205,"robot":2,"valence":"win","action":"no-go","sham":0,"trial_type":"pit-trial","trial_index":219,"time_elapsed":828458,"internal_node_id":"0.0-208.0","task_version":"battery-v0.1"},{"rune":"G","hex":"#f73b6a7A","correct":-1,"choice":-1,"rt":-1,"accuracy":1,"outcome":"-1","keys":[],"total_keys":0,"block":2,"trial":206,"robot":4,"valence":"lose","action":"no-go","sham":0,"trial_type":"pit-trial","trial_index":220,"time_elapsed":832461,"internal_node_id":"0.0-209.0","task_version":"battery-v0.1"},{"rune":"T","hex":"#f73b6a7A","correct":32,"choice":32,"rt":933.5049999936018,"accuracy":1,"outcome":"-1","keys":[2434.4750000018394],"total_keys":1,"block":2,"trial":207,"robot":3,"valence":"lose","action":"go","sham":0,"trial_type":"pit-trial","trial_index":221,"time_elapsed":836098,"internal_node_id":"0.0-210.0","task_version":"battery-v0.1"},{"rune":"L","hex":"#3366ff99","correct":32,"choice":32,"rt":459.85500000824686,"accuracy":1,"outcome":"+10","keys":[1960.0249999930384],"total_keys":1,"block":2,"trial":208,"robot":1,"valence":"win","action":"go","sham":0,"trial_type":"pit-trial","trial_index":222,"time_elapsed":839260,"internal_node_id":"0.0-211.0","task_version":"battery-v0.1"},{"rune":"J","hex":"#f73b6a7A","correct":32,"choice":-1,"rt":-1,"accuracy":0,"outcome":"-10","keys":[],"total_keys":0,"block":2,"trial":209,"robot":3,"valence":"lose","action":"go","sham":0,"trial_type":"pit-trial","trial_index":223,"time_elapsed":843262,"internal_node_id":"0.0-212.0","task_version":"battery-v0.1"},{"rune":"T","hex":"#f73b6a7A","correct":32,"choice":32,"rt":759.4499999977415,"accuracy":1,"outcome":"-1","keys":[2260.569999998552],"total_keys":1,"block":2,"trial":210,"robot":3,"valence":"lose","action":"go","sham":0,"trial_type":"pit-trial","trial_index":224,"time_elapsed":846725,"internal_node_id":"0.0-213.0","task_version":"battery-v0.1"},{"rune":"Z","hex":"#3366ff99","correct":-1,"choice":32,"rt":517.8149999992456,"accuracy":0,"outcome":"+10","keys":[2017.9300000017975],"total_keys":1,"block":2,"trial":211,"robot":2,"valence":"win","action":"no-go","sham":1,"trial_type":"pit-trial","trial_index":225,"time_elapsed":849945,"internal_node_id":"0.0-214.0","task_version":"battery-v0.1"},{"rune":"L","hex":"#3366ff99","correct":32,"choice":32,"rt":542.0700000104262,"accuracy":1,"outcome":"+10","keys":[2042.235000000801],"total_keys":1,"block":2,"trial":212,"robot":1,"valence":"win","action":"go","sham":0,"trial_type":"pit-trial","trial_index":226,"time_elapsed":853189,"internal_node_id":"0.0-215.0","task_version":"battery-v0.1"},{"rune":"L","hex":"#3366ff99","correct":32,"choice":32,"rt":428.32999999518506,"accuracy":1,"outcome":"+10","keys":[1928.4999999945285],"total_keys":1,"block":2,"trial":213,"robot":1,"valence":"win","action":"go","sham":0,"trial_type":"pit-trial","trial_index":227,"time_elapsed":856319,"internal_node_id":"0.0-216.0","task_version":"battery-v0.1"},{"rune":"Z","hex":"#3366ff99","correct":-1,"choice":32,"rt":645.7450000016252,"accuracy":0,"outcome":"+1","keys":[2146.6849999997066],"total_keys":1,"block":2,"trial":214,"robot":2,"valence":"win","action":"no-go","sham":0,"trial_type":"pit-trial","trial_index":228,"time_elapsed":859668,"internal_node_id":"0.0-217.0","task_version":"battery-v0.1"},{"rune":"J","hex":"#f73b6a7A","correct":32,"choice":-1,"rt":-1,"accuracy":0,"outcome":"-10","keys":[],"total_keys":0,"block":2,"trial":215,"robot":3,"valence":"lose","action":"go","sham":0,"trial_type":"pit-trial","trial_index":229,"time_elapsed":863671,"internal_node_id":"0.0-218.0","task_version":"battery-v0.1"},{"rune":"T","hex":"#f73b6a7A","correct":32,"choice":32,"rt":594.4949999975506,"accuracy":1,"outcome":"-1","keys":[2095.2499999984866],"total_keys":1,"block":2,"trial":216,"robot":3,"valence":"lose","action":"go","sham":0,"trial_type":"pit-trial","trial_index":230,"time_elapsed":866969,"internal_node_id":"0.0-219.0","task_version":"battery-v0.1"},{"rune":"T","hex":"#f73b6a7A","correct":32,"choice":32,"rt":337.615000011283,"accuracy":1,"outcome":"-10","keys":[1837.7349999936996],"total_keys":1,"block":2,"trial":217,"robot":3,"valence":"lose","action":"go","sham":1,"trial_type":"pit-trial","trial_index":231,"time_elapsed":870009,"internal_node_id":"0.0-220.0","task_version":"battery-v0.1"},{"rune":"Z","hex":"#3366ff99","correct":-1,"choice":32,"rt":403.6600000108592,"accuracy":0,"outcome":"+1","keys":[1903.7499999976717],"total_keys":1,"block":2,"trial":218,"robot":2,"valence":"win","action":"no-go","sham":0,"trial_type":"pit-trial","trial_index":232,"time_elapsed":873115,"internal_node_id":"0.0-221.0","task_version":"battery-v0.1"},{"rune":"L","hex":"#3366ff99","correct":32,"choice":32,"rt":280.9599999891361,"accuracy":1,"outcome":"+10","keys":[1781.0299999982817],"total_keys":1,"block":2,"trial":219,"robot":1,"valence":"win","action":"go","sham":0,"trial_type":"pit-trial","trial_index":233,"time_elapsed":876097,"internal_node_id":"0.0-222.0","task_version":"battery-v0.1"},{"rune":"J","hex":"#f73b6a7A","correct":32,"choice":-1,"rt":-1,"accuracy":0,"outcome":"-10","keys":[],"total_keys":0,"block":2,"trial":220,"robot":3,"valence":"lose","action":"go","sham":0,"trial_type":"pit-trial","trial_index":234,"time_elapsed":880099,"internal_node_id":"0.0-223.0","task_version":"battery-v0.1"},{"rune":"Z","hex":"#3366ff99","correct":-1,"choice":32,"rt":200.6249999976717,"accuracy":0,"outcome":"+10","keys":[1702.369999999064],"total_keys":1,"block":2,"trial":221,"robot":2,"valence":"win","action":"no-go","sham":1,"trial_type":"pit-trial","trial_index":235,"time_elapsed":883004,"internal_node_id":"0.0-224.0","task_version":"battery-v0.1"},{"rune":"T","hex":"#f73b6a7A","correct":32,"choice":32,"rt":501.10499998845626,"accuracy":1,"outcome":"-1","keys":[2001.814999995986],"total_keys":1,"block":2,"trial":222,"robot":3,"valence":"lose","action":"go","sham":0,"trial_type":"pit-trial","trial_index":236,"time_elapsed":886210,"internal_node_id":"0.0-225.0","task_version":"battery-v0.1"},{"rune":"J","hex":"#f73b6a7A","correct":32,"choice":-1,"rt":-1,"accuracy":0,"outcome":"-10","keys":[],"total_keys":0,"block":2,"trial":223,"robot":3,"valence":"lose","action":"go","sham":0,"trial_type":"pit-trial","trial_index":237,"time_elapsed":890213,"internal_node_id":"0.0-226.0","task_version":"battery-v0.1"},{"rune":"L","hex":"#3366ff99","correct":32,"choice":32,"rt":34.45000000647269,"accuracy":1,"outcome":"+10","keys":[1534.6799999970244],"total_keys":1,"block":2,"trial":224,"robot":1,"valence":"win","action":"go","sham":0,"trial_type":"pit-trial","trial_index":238,"time_elapsed":892949,"internal_node_id":"0.0-227.0","task_version":"battery-v0.1"},{"rune":"Z","hex":"#3366ff99","correct":-1,"choice":32,"rt":609.1799999994691,"accuracy":0,"outcome":"+1","keys":[2109.440000000177],"total_keys":1,"block":2,"trial":225,"robot":2,"valence":"win","action":"no-go","sham":0,"trial_type":"pit-trial","trial_index":239,"time_elapsed":896261,"internal_node_id":"0.0-228.0","task_version":"battery-v0.1"},{"rune":"J","hex":"#f73b6a7A","correct":32,"choice":32,"rt":586.2950000009732,"accuracy":1,"outcome":"-1","keys":[2086.4699999947334],"total_keys":1,"block":2,"trial":226,"robot":3,"valence":"lose","action":"go","sham":0,"trial_type":"pit-trial","trial_index":240,"time_elapsed":899549,"internal_node_id":"0.0-229.0","task_version":"battery-v0.1"},{"rune":"T","hex":"#f73b6a7A","correct":32,"choice":32,"rt":497.5350000022445,"accuracy":1,"outcome":"-1","keys":[1998.344999999972],"total_keys":1,"block":2,"trial":227,"robot":3,"valence":"lose","action":"go","sham":0,"trial_type":"pit-trial","trial_index":241,"time_elapsed":902750,"internal_node_id":"0.0-230.0","task_version":"battery-v0.1"},{"rune":"L","hex":"#3366ff99","correct":32,"choice":32,"rt":511.00999998743646,"accuracy":1,"outcome":"+10","keys":[2011.1949999991339],"total_keys":1,"block":2,"trial":228,"robot":1,"valence":"win","action":"go","sham":0,"trial_type":"pit-trial","trial_index":242,"time_elapsed":905963,"internal_node_id":"0.0-231.0","task_version":"battery-v0.1"},{"rune":"Z","hex":"#3366ff99","correct":-1,"choice":-1,"rt":-1,"accuracy":1,"outcome":"+1","keys":[],"total_keys":0,"block":2,"trial":229,"robot":2,"valence":"win","action":"no-go","sham":1,"trial_type":"pit-trial","trial_index":243,"time_elapsed":909966,"internal_node_id":"0.0-232.0","task_version":"battery-v0.1"},{"rune":"J","hex":"#f73b6a7A","correct":32,"choice":32,"rt":450.924999997369,"accuracy":1,"outcome":"-1","keys":[1951.1050000000978],"total_keys":1,"block":2,"trial":230,"robot":3,"valence":"lose","action":"go","sham":0,"trial_type":"pit-trial","trial_index":244,"time_elapsed":913119,"internal_node_id":"0.0-233.0","task_version":"battery-v0.1"},{"rune":"T","hex":"#f73b6a7A","correct":32,"choice":32,"rt":808.0900000059046,"accuracy":1,"outcome":"-1","keys":[2308.2699999940814],"total_keys":1,"block":2,"trial":231,"robot":3,"valence":"lose","action":"go","sham":0,"trial_type":"pit-trial","trial_index":245,"time_elapsed":916629,"internal_node_id":"0.0-234.0","task_version":"battery-v0.1"},{"rune":"L","hex":"#3366ff99","correct":32,"choice":32,"rt":698.3750000072177,"accuracy":1,"outcome":"+1","keys":[2199.4899999990594],"total_keys":1,"block":2,"trial":232,"robot":1,"valence":"win","action":"go","sham":1,"trial_type":"pit-trial","trial_index":246,"time_elapsed":920031,"internal_node_id":"0.0-235.0","task_version":"battery-v0.1"},{"rune":"Z","hex":"#3366ff99","correct":-1,"choice":32,"rt":573.4500000107801,"accuracy":0,"outcome":"+1","keys":[2073.854999995092],"total_keys":1,"block":2,"trial":233,"robot":2,"valence":"win","action":"no-go","sham":0,"trial_type":"pit-trial","trial_index":247,"time_elapsed":923306,"internal_node_id":"0.0-236.0","task_version":"battery-v0.1"},{"rune":"L","hex":"#3366ff99","correct":32,"choice":32,"rt":544.0300000045681,"accuracy":1,"outcome":"+10","keys":[2044.194999994943],"total_keys":1,"block":2,"trial":234,"robot":1,"valence":"win","action":"go","sham":0,"trial_type":"pit-trial","trial_index":248,"time_elapsed":926552,"internal_node_id":"0.0-237.0","task_version":"battery-v0.1"},{"rune":"J","hex":"#f73b6a7A","correct":32,"choice":32,"rt":860.3950000106124,"accuracy":1,"outcome":"-1","keys":[2360.579999993206],"total_keys":1,"block":2,"trial":235,"robot":3,"valence":"lose","action":"go","sham":0,"trial_type":"pit-trial","trial_index":249,"time_elapsed":930115,"internal_node_id":"0.0-238.0","task_version":"battery-v0.1"},{"rune":"T","hex":"#f73b6a7A","correct":32,"choice":32,"rt":471.7099999979837,"accuracy":1,"outcome":"-1","keys":[1972.8350000077626],"total_keys":1,"block":2,"trial":236,"robot":3,"valence":"lose","action":"go","sham":0,"trial_type":"pit-trial","trial_index":250,"time_elapsed":933289,"internal_node_id":"0.0-239.0","task_version":"battery-v0.1"},{"rune":"J","hex":"#f73b6a7A","correct":32,"choice":32,"rt":487.5350000074832,"accuracy":1,"outcome":"-1","keys":[1988.2499999948777],"total_keys":1,"block":2,"trial":237,"robot":3,"valence":"lose","action":"go","sham":0,"trial_type":"pit-trial","trial_index":251,"time_elapsed":936480,"internal_node_id":"0.0-240.0","task_version":"battery-v0.1"},{"rune":"L","hex":"#3366ff99","correct":32,"choice":-1,"rt":-1,"accuracy":0,"outcome":"+1","keys":[],"total_keys":0,"block":2,"trial":238,"robot":1,"valence":"win","action":"go","sham":0,"trial_type":"pit-trial","trial_index":252,"time_elapsed":940483,"internal_node_id":"0.0-241.0","task_version":"battery-v0.1"},{"rune":"T","hex":"#f73b6a7A","correct":32,"choice":32,"rt":410.57500000169966,"accuracy":1,"outcome":"-1","keys":[1910.905000011553],"total_keys":1,"block":2,"trial":239,"robot":3,"valence":"lose","action":"go","sham":0,"trial_type":"pit-trial","trial_index":253,"time_elapsed":943596,"internal_node_id":"0.0-242.0","task_version":"battery-v0.1"},{"rune":"Z","hex":"#3366ff99","correct":-1,"choice":32,"rt":761.0750000021653,"accuracy":0,"outcome":"+1","keys":[2261.160000009113],"total_keys":1,"block":2,"trial":240,"robot":2,"valence":"win","action":"no-go","sham":0,"trial_type":"pit-trial","trial_index":254,"time_elapsed":947059,"internal_node_id":"0.0-243.0","task_version":"battery-v0.1"},{"view_history":"[{\"page_index\":0,\"viewing_time\":1473.0550000094809}]","rt":1473.360000003595,"trial_type":"pit-instructions","trial_index":255,"time_elapsed":948533,"internal_node_id":"0.0-244.0","task_version":"battery-v0.1"},{"rt":7864.669999995385,"responses":{"age":"28","gender-categorical":"Male","gender-free-response":"","ethnicity":"Not Hispanic or Latino","race":["White"],"language":"Yes","fluency":"Very well"},"survey":"demographics","trial_type":"survey-demo","trial_index":256,"time_elapsed":956400,"internal_node_id":"0.0-245.0","task_version":"battery-v0.1"},{"rt":5665.015000005951,"responses":{"difficulty":"3","fun":"4","clarity":"5","strategy":"","feedback":""},"survey":"debrief","trial_type":"survey-debrief","trial_index":257,"time_elapsed":962067,"internal_node_id":"0.0-246.0","task_version":"battery-v0.1","interactions":"[{\"event\":\"blur\",\"trial\":13,\"time\":116196},{\"event\":\"focus\",\"trial\":13,\"time\":117251},{\"event\":\"blur\",\"trial\":66,\"time\":293604},{\"event\":\"focus\",\"trial\":66,\"time\":294864},{\"event\":\"blur\",\"trial\":90,\"time\":374512},{\"event\":\"focus\",\"trial\":90,\"time\":375113},{\"event\":\"blur\",\"trial\":91,\"time\":378560},{\"event\":\"focus\",\"trial\":91,\"time\":379136}]"}]