[{"view_history":"[{\"page_index\":0,\"viewing_time\":2508.8700000196695},{\"page_index\":1,\"viewing_time\":3751.255000010133},{\"page_index\":2,\"viewing_time\":3623.3749999664724},{\"page_index\":3,\"viewing_time\":10246.189999976195},{\"page_index\":4,\"viewing_time\":5806.280000018887},{\"page_index\":5,\"viewing_time\":6305.779999936931}]","rt":32242.869999958202,"trial_type":"pit-instructions","trial_index":0,"time_elapsed":32268,"internal_node_id":"0.0-0.0-0.0","task_version":"battery-v0.1"},{"rune":"","hex":"#FFFFF080","correct":32,"choice":32,"rt":1015.0200000498444,"accuracy":1,"outcome":"+10","keys":[2515.514999977313],"total_keys":1,"block":0,"trial_type":"pit-trial","trial_index":1,"time_elapsed":35989,"internal_node_id":"0.0-0.0-1.0-0.0","task_version":"battery-v0.1"},{"rune":"","hex":"#FFFFF080","correct":32,"choice":-1,"rt":-1,"accuracy":0,"outcome":"+0","keys":[],"total_keys":0,"block":0,"trial_type":"pit-trial","trial_index":2,"time_elapsed":39995,"internal_node_id":"0.0-0.0-1.0-0.1","task_version":"battery-v0.1"},{"rune":"","hex":"#FFFFF080","correct":32,"choice":-1,"rt":-1,"accuracy":0,"outcome":"+0","keys":[],"total_keys":0,"block":0,"trial_type":"pit-trial","trial_index":3,"time_elapsed":44014,"internal_node_id":"0.0-0.0-1.0-0.2","task_version":"battery-v0.1"},{"rune":"","hex":"#FFFFF080","correct":32,"choice":-1,"rt":-1,"accuracy":0,"outcome":"+0","keys":[3281.944999936968],"total_keys":1,"block":0,"trial_type":"pit-trial","trial_index":4,"time_elapsed":48020,"internal_node_id":"0.0-0.0-1.0-0.3","task_version":"battery-v0.1"},{"view_history":"[{\"page_index\":0,\"viewing_time\":5868.269999977201}]","rt":5868.705000029877,"trial_type":"pit-instructions","trial_index":5,"time_elapsed":53891,"internal_node_id":"0.0-0.0-2.0","task_version":"battery-v0.1"},{"rune":"","hex":"#FFFFF080","correct":-1,"choice":-1,"rt":-1,"accuracy":1,"outcome":"+10","keys":[],"total_keys":0,"block":0,"trial_type":"pit-trial","trial_index":6,"time_elapsed":57896,"internal_node_id":"0.0-0.0-3.0-0.0","task_version":"battery-v0.1"},{"rune":"","hex":"#FFFFF080","correct":-1,"choice":-1,"rt":-1,"accuracy":1,"outcome":"+10","keys":[],"total_keys":0,"block":0,"trial_type":"pit-trial","trial_index":7,"time_elapsed":61899,"internal_node_id":"0.0-0.0-3.0-0.1","task_version":"battery-v0.1"},{"rune":"","hex":"#FFFFF080","correct":-1,"choice":-1,"rt":-1,"accuracy":1,"outcome":"+10","keys":[],"total_keys":0,"block":0,"trial_type":"pit-trial","trial_index":8,"time_elapsed":65906,"internal_node_id":"0.0-0.0-3.0-0.2","task_version":"battery-v0.1"},{"rune":"","hex":"#FFFFF080","correct":-1,"choice":-1,"rt":-1,"accuracy":1,"outcome":"+10","keys":[],"total_keys":0,"block":0,"trial_type":"pit-trial","trial_index":9,"time_elapsed":69912,"internal_node_id":"0.0-0.0-3.0-0.3","task_version":"battery-v0.1"},{"responses":["Press SPACE","Do nothing"],"num_errors":0,"rt":5698.310000007041,"trial_type":"pit-comprehension","trial_index":10,"time_elapsed":75616,"internal_node_id":"0.0-0.0-4.0","task_version":"battery-v0.1"},{"view_history":"[{\"page_index\":0,\"viewing_time\":4312.740000081249},{\"page_index\":1,\"viewing_time\":10622.389999916777},{\"page_index\":2,\"viewing_time\":5800.710000097752},{\"page_index\":3,\"viewing_time\":4495.8899999037385},{\"page_index\":4,\"viewing_time\":6275.680000078864},{\"page_index\":5,\"viewing_time\":13117.959999945015},{\"page_index\":6,\"viewing_time\":11525.729999993928},{\"page_index\":7,\"viewing_time\":11883.675000048243},{\"page_index\":6,\"viewing_time\":984.1099999612197},{\"page_index\":7,\"viewing_time\":5022.42000005208},{\"page_index\":8,\"viewing_time\":5370.244999998249},{\"page_index\":9,\"viewing_time\":3662.374999956228},{\"page_index\":10,\"viewing_time\":4201.3450000667945}]","rt":87275.77000006568,"trial_type":"pit-instructions","trial_index":11,"time_elapsed":162898,"internal_node_id":"0.0-1.0-0.0","task_version":"battery-v0.1"},{"responses":["+10","-1","True","True"],"num_errors":0,"rt":34311.17999996059,"trial_type":"pit-comprehension","trial_index":12,"time_elapsed":197212,"internal_node_id":"0.0-1.0-1.0","task_version":"battery-v0.1"},{"view_history":"[{\"page_index\":0,\"viewing_time\":4769.160000025295},{\"page_index\":1,\"viewing_time\":4719.7650000452995}]","rt":9489.395000040531,"trial_type":"pit-instructions","trial_index":13,"time_elapsed":206705,"internal_node_id":"0.0-2.0","task_version":"battery-v0.1"},{"rune":"Z","hex":"#3366ff99","correct":-1,"choice":-1,"rt":-1,"accuracy":1,"outcome":"+10","keys":[],"total_keys":0,"block":1,"trial":1,"robot":2,"valence":"win","action":"no-go","sham":0,"trial_type":"pit-trial","trial_index":14,"time_elapsed":210710,"internal_node_id":"0.0-3.0","task_version":"battery-v0.1"},{"rune":"K","hex":"#f73b6a7A","correct":-1,"choice":32,"rt":830.1650000503287,"accuracy":0,"outcome":"-1","keys":[2330.3449999075383],"total_keys":1,"block":1,"trial":2,"robot":4,"valence":"lose","action":"no-go","sham":1,"trial_type":"pit-trial","trial_index":15,"time_elapsed":214246,"internal_node_id":"0.0-4.0","task_version":"battery-v0.1"},{"rune":"J","hex":"#3366ff99","correct":32,"choice":-1,"rt":-1,"accuracy":0,"outcome":"+1","keys":[],"total_keys":0,"block":1,"trial":3,"robot":1,"valence":"win","action":"go","sham":0,"trial_type":"pit-trial","trial_index":16,"time_elapsed":218250,"internal_node_id":"0.0-5.0","task_version":"battery-v0.1"},{"rune":"T","hex":"#3366ff99","correct":32,"choice":32,"rt":737.2949999989942,"accuracy":1,"outcome":"+1","keys":[2238.4750000201166],"total_keys":1,"block":1,"trial":4,"robot":1,"valence":"win","action":"go","sham":1,"trial_type":"pit-trial","trial_index":17,"time_elapsed":221693,"internal_node_id":"0.0-6.0","task_version":"battery-v0.1"},{"rune":"T","hex":"#3366ff99","correct":32,"choice":32,"rt":509.7749999258667,"accuracy":1,"outcome":"+1","keys":[2010.5100000509992],"total_keys":1,"block":1,"trial":5,"robot":1,"valence":"win","action":"go","sham":1,"trial_type":"pit-trial","trial_index":18,"time_elapsed":224909,"internal_node_id":"0.0-7.0","task_version":"battery-v0.1"},{"rune":"K","hex":"#f73b6a7A","correct":-1,"choice":32,"rt":651.2150000780821,"accuracy":0,"outcome":"-10","keys":[2151.7600000370294],"total_keys":1,"block":1,"trial":6,"robot":4,"valence":"lose","action":"no-go","sham":0,"trial_type":"pit-trial","trial_index":19,"time_elapsed":228266,"internal_node_id":"0.0-8.0","task_version":"battery-v0.1"},{"rune":"Z","hex":"#3366ff99","correct":-1,"choice":32,"rt":499.1699999663979,"accuracy":0,"outcome":"+1","keys":[2001.1149999918416],"total_keys":1,"block":1,"trial":7,"robot":2,"valence":"win","action":"no-go","sham":0,"trial_type":"pit-trial","trial_index":20,"time_elapsed":231471,"internal_node_id":"0.0-9.0","task_version":"battery-v0.1"},{"rune":"J","hex":"#3366ff99","correct":32,"choice":32,"rt":484.59000000730157,"accuracy":1,"outcome":"+1","keys":[1985.8649999368936],"total_keys":1,"block":1,"trial":8,"robot":1,"valence":"win","action":"go","sham":1,"trial_type":"pit-trial","trial_index":21,"time_elapsed":234662,"internal_node_id":"0.0-10.0","task_version":"battery-v0.1"},{"rune":"T","hex":"#3366ff99","correct":32,"choice":-1,"rt":-1,"accuracy":0,"outcome":"+1","keys":[],"total_keys":0,"block":1,"trial":9,"robot":1,"valence":"win","action":"go","sham":0,"trial_type":"pit-trial","trial_index":22,"time_elapsed":238682,"internal_node_id":"0.0-11.0","task_version":"battery-v0.1"},{"rune":"K","hex":"#f73b6a7A","correct":-1,"choice":32,"rt":780.7699999539182,"accuracy":0,"outcome":"-10","keys":[2281.349999946542],"total_keys":1,"block":1,"trial":10,"robot":4,"valence":"lose","action":"no-go","sham":0,"trial_type":"pit-trial","trial_index":23,"time_elapsed":242167,"internal_node_id":"0.0-12.0","task_version":"battery-v0.1"},{"rune":"Z","hex":"#3366ff99","correct":-1,"choice":32,"rt":637.2200000332668,"accuracy":0,"outcome":"+1","keys":[2137.430000002496],"total_keys":1,"block":1,"trial":11,"robot":2,"valence":"win","action":"no-go","sham":0,"trial_type":"pit-trial","trial_index":24,"time_elapsed":245507,"internal_node_id":"0.0-13.0","task_version":"battery-v0.1"},{"rune":"J","hex":"#3366ff99","correct":32,"choice":32,"rt":856.3700000522658,"accuracy":1,"outcome":"+1","keys":[2357.3499999474734],"total_keys":1,"block":1,"trial":12,"robot":1,"valence":"win","action":"go","sham":1,"trial_type":"pit-trial","trial_index":25,"time_elapsed":249068,"internal_node_id":"0.0-14.0","task_version":"battery-v0.1"},{"rune":"J","hex":"#3366ff99","correct":32,"choice":-1,"rt":-1,"accuracy":0,"outcome":"+10","keys":[],"total_keys":0,"block":1,"trial":13,"robot":1,"valence":"win","action":"go","sham":1,"trial_type":"pit-trial","trial_index":26,"time_elapsed":253074,"internal_node_id":"0.0-15.0","task_version":"battery-v0.1"},{"rune":"K","hex":"#f73b6a7A","correct":-1,"choice":32,"rt":406.7299999296665,"accuracy":0,"outcome":"-10","keys":[1908.3499999251217],"total_keys":1,"block":1,"trial":14,"robot":4,"valence":"lose","action":"no-go","sham":0,"trial_type":"pit-trial","trial_index":27,"time_elapsed":256187,"internal_node_id":"0.0-16.0","task_version":"battery-v0.1"},{"rune":"T","hex":"#3366ff99","correct":32,"choice":-1,"rt":-1,"accuracy":0,"outcome":"+1","keys":[3997.994999983348],"total_keys":1,"block":1,"trial":15,"robot":1,"valence":"win","action":"go","sham":0,"trial_type":"pit-trial","trial_index":28,"time_elapsed":260189,"internal_node_id":"0.0-17.0","task_version":"battery-v0.1"},{"rune":"Z","hex":"#3366ff99","correct":-1,"choice":-1,"rt":-1,"accuracy":1,"outcome":"+10","keys":[],"total_keys":0,"block":1,"trial":16,"robot":2,"valence":"win","action":"no-go","sham":0,"trial_type":"pit-trial","trial_index":29,"time_elapsed":264195,"internal_node_id":"0.0-18.0","task_version":"battery-v0.1"},{"rune":"Z","hex":"#3366ff99","correct":-1,"choice":-1,"rt":-1,"accuracy":1,"outcome":"+10","keys":[],"total_keys":0,"block":1,"trial":17,"robot":2,"valence":"win","action":"no-go","sham":0,"trial_type":"pit-trial","trial_index":30,"time_elapsed":268200,"internal_node_id":"0.0-19.0","task_version":"battery-v0.1"},{"rune":"J","hex":"#3366ff99","correct":32,"choice":-1,"rt":-1,"accuracy":0,"outcome":"+1","keys":[],"total_keys":0,"block":1,"trial":18,"robot":1,"valence":"win","action":"go","sham":0,"trial_type":"pit-trial","trial_index":31,"time_elapsed":272203,"internal_node_id":"0.0-20.0","task_version":"battery-v0.1"},{"rune":"K","hex":"#f73b6a7A","correct":-1,"choice":32,"rt":767.0650000218302,"accuracy":0,"outcome":"-10","keys":[2267.200000002049],"total_keys":1,"block":1,"trial":19,"robot":4,"valence":"lose","action":"no-go","sham":0,"trial_type":"pit-trial","trial_index":32,"time_elapsed":275674,"internal_node_id":"0.0-21.0","task_version":"battery-v0.1"},{"rune":"T","hex":"#3366ff99","correct":32,"choice":32,"rt":532.6750000240281,"accuracy":1,"outcome":"+10","keys":[2032.8649999573827],"total_keys":1,"block":1,"trial":20,"robot":1,"valence":"win","action":"go","sham":0,"trial_type":"pit-trial","trial_index":33,"time_elapsed":278909,"internal_node_id":"0.0-22.0","task_version":"battery-v0.1"},{"rune":"T","hex":"#3366ff99","correct":32,"choice":-1,"rt":-1,"accuracy":0,"outcome":"+10","keys":[3242.2399999340996],"total_keys":1,"block":1,"trial":21,"robot":1,"valence":"win","action":"go","sham":1,"trial_type":"pit-trial","trial_index":34,"time_elapsed":282912,"internal_node_id":"0.0-23.0","task_version":"battery-v0.1"},{"rune":"J","hex":"#3366ff99","correct":32,"choice":-1,"rt":-1,"accuracy":0,"outcome":"+1","keys":[],"total_keys":0,"block":1,"trial":22,"robot":1,"valence":"win","action":"go","sham":0,"trial_type":"pit-trial","trial_index":35,"time_elapsed":286916,"internal_node_id":"0.0-24.0","task_version":"battery-v0.1"},{"rune":"K","hex":"#f73b6a7A","correct":-1,"choice":32,"rt":474.5549999643117,"accuracy":0,"outcome":"-10","keys":[1976.0650000534952],"total_keys":1,"block":1,"trial":23,"robot":4,"valence":"lose","action":"no-go","sham":0,"trial_type":"pit-trial","trial_index":36,"time_elapsed":290095,"internal_node_id":"0.0-25.0","task_version":"battery-v0.1"},{"rune":"Z","hex":"#3366ff99","correct":-1,"choice":-1,"rt":-1,"accuracy":1,"outcome":"+10","keys":[],"total_keys":0,"block":1,"trial":24,"robot":2,"valence":"win","action":"no-go","sham":0,"trial_type":"pit-trial","trial_index":37,"time_elapsed":294099,"internal_node_id":"0.0-26.0","task_version":"battery-v0.1"},{"rune":"Z","hex":"#3366ff99","correct":-1,"choice":-1,"rt":-1,"accuracy":1,"outcome":"+10","keys":[],"total_keys":0,"block":1,"trial":25,"robot":2,"valence":"win","action":"no-go","sham":0,"trial_type":"pit-trial","trial_index":38,"time_elapsed":298103,"internal_node_id":"0.0-27.0","task_version":"battery-v0.1"},{"rune":"K","hex":"#f73b6a7A","correct":-1,"choice":-1,"rt":-1,"accuracy":1,"outcome":"-1","keys":[],"total_keys":0,"block":1,"trial":26,"robot":4,"valence":"lose","action":"no-go","sham":0,"trial_type":"pit-trial","trial_index":39,"time_elapsed":302108,"internal_node_id":"0.0-28.0","task_version":"battery-v0.1"},{"rune":"J","hex":"#3366ff99","correct":32,"choice":-1,"rt":-1,"accuracy":0,"outcome":"+1","keys":[],"total_keys":0,"block":1,"trial":27,"robot":1,"valence":"win","action":"go","sham":0,"trial_type":"pit-trial","trial_index":40,"time_elapsed":306112,"internal_node_id":"0.0-29.0","task_version":"battery-v0.1"},{"rune":"T","hex":"#3366ff99","correct":32,"choice":32,"rt":927.9649999225512,"accuracy":1,"outcome":"+1","keys":[2430.099999997765],"total_keys":1,"block":1,"trial":28,"robot":1,"valence":"win","action":"go","sham":1,"trial_type":"pit-trial","trial_index":41,"time_elapsed":309745,"internal_node_id":"0.0-30.0","task_version":"battery-v0.1"},{"rune":"Z","hex":"#3366ff99","correct":-1,"choice":-1,"rt":-1,"accuracy":1,"outcome":"+10","keys":[],"total_keys":0,"block":1,"trial":29,"robot":2,"valence":"win","action":"no-go","sham":0,"trial_type":"pit-trial","trial_index":42,"time_elapsed":313754,"internal_node_id":"0.0-31.0","task_version":"battery-v0.1"},{"rune":"T","hex":"#3366ff99","correct":32,"choice":32,"rt":557.3549999389797,"accuracy":1,"outcome":"+1","keys":[2058.2899999571964],"total_keys":1,"block":1,"trial":30,"robot":1,"valence":"win","action":"go","sham":1,"trial_type":"pit-trial","trial_index":43,"time_elapsed":317015,"internal_node_id":"0.0-32.0","task_version":"battery-v0.1"},{"rune":"J","hex":"#3366ff99","correct":32,"choice":-1,"rt":-1,"accuracy":0,"outcome":"+1","keys":[],"total_keys":0,"block":1,"trial":31,"robot":1,"valence":"win","action":"go","sham":0,"trial_type":"pit-trial","trial_index":44,"time_elapsed":321019,"internal_node_id":"0.0-33.0","task_version":"battery-v0.1"},{"rune":"K","hex":"#f73b6a7A","correct":-1,"choice":-1,"rt":-1,"accuracy":1,"outcome":"-1","keys":[],"total_keys":0,"block":1,"trial":32,"robot":4,"valence":"lose","action":"no-go","sham":0,"trial_type":"pit-trial","trial_index":45,"time_elapsed":325024,"internal_node_id":"0.0-34.0","task_version":"battery-v0.1"},{"rune":"I","hex":"#3366ff99","correct":32,"choice":-1,"rt":-1,"accuracy":0,"outcome":"+1","keys":[],"total_keys":0,"block":1,"trial":33,"robot":1,"valence":"win","action":"go","sham":0,"trial_type":"pit-trial","trial_index":46,"time_elapsed":329031,"internal_node_id":"0.0-35.0","task_version":"battery-v0.1"},{"rune":"J","hex":"#3366ff99","correct":32,"choice":-1,"rt":-1,"accuracy":0,"outcome":"+1","keys":[],"total_keys":0,"block":1,"trial":34,"robot":1,"valence":"win","action":"go","sham":0,"trial_type":"pit-trial","trial_index":47,"time_elapsed":333035,"internal_node_id":"0.0-36.0","task_version":"battery-v0.1"},{"rune":"Z","hex":"#3366ff99","correct":-1,"choice":-1,"rt":-1,"accuracy":1,"outcome":"+10","keys":[],"total_keys":0,"block":1,"trial":35,"robot":2,"valence":"win","action":"no-go","sham":0,"trial_type":"pit-trial","trial_index":48,"time_elapsed":337040,"internal_node_id":"0.0-37.0","task_version":"battery-v0.1"},{"rune":"K","hex":"#f73b6a7A","correct":-1,"choice":-1,"rt":-1,"accuracy":1,"outcome":"-10","keys":[],"total_keys":0,"block":1,"trial":36,"robot":4,"valence":"lose","action":"no-go","sham":1,"trial_type":"pit-trial","trial_index":49,"time_elapsed":341045,"internal_node_id":"0.0-38.0","task_version":"battery-v0.1"},{"rune":"J","hex":"#3366ff99","correct":32,"choice":-1,"rt":-1,"accuracy":0,"outcome":"+10","keys":[],"total_keys":0,"block":1,"trial":37,"robot":1,"valence":"win","action":"go","sham":1,"trial_type":"pit-trial","trial_index":50,"time_elapsed":345048,"internal_node_id":"0.0-39.0","task_version":"battery-v0.1"},{"rune":"K","hex":"#f73b6a7A","correct":-1,"choice":32,"rt":822.6299999514595,"accuracy":0,"outcome":"-1","keys":[2323.24499997776],"total_keys":1,"block":1,"trial":38,"robot":4,"valence":"lose","action":"no-go","sham":1,"trial_type":"pit-trial","trial_index":51,"time_elapsed":348576,"internal_node_id":"0.0-40.0","task_version":"battery-v0.1"},{"rune":"Z","hex":"#3366ff99","correct":-1,"choice":-1,"rt":-1,"accuracy":1,"outcome":"+10","keys":[],"total_keys":0,"block":1,"trial":39,"robot":2,"valence":"win","action":"no-go","sham":0,"trial_type":"pit-trial","trial_index":52,"time_elapsed":352588,"internal_node_id":"0.0-41.0","task_version":"battery-v0.1"},{"rune":"I","hex":"#3366ff99","correct":32,"choice":-1,"rt":-1,"accuracy":0,"outcome":"+1","keys":[],"total_keys":0,"block":1,"trial":40,"robot":1,"valence":"win","action":"go","sham":0,"trial_type":"pit-trial","trial_index":53,"time_elapsed":356591,"internal_node_id":"0.0-42.0","task_version":"battery-v0.1"},{"rune":"U","hex":"#f73b6a7A","correct":-1,"choice":32,"rt":836.5300000878051,"accuracy":0,"outcome":"-10","keys":[2337.42999995593],"total_keys":1,"block":1,"trial":41,"robot":4,"valence":"lose","action":"no-go","sham":0,"trial_type":"pit-trial","trial_index":54,"time_elapsed":360132,"internal_node_id":"0.0-43.0","task_version":"battery-v0.1"},{"rune":"I","hex":"#3366ff99","correct":32,"choice":-1,"rt":-1,"accuracy":0,"outcome":"+1","keys":[],"total_keys":0,"block":1,"trial":42,"robot":1,"valence":"win","action":"go","sham":0,"trial_type":"pit-trial","trial_index":55,"time_elapsed":364148,"internal_node_id":"0.0-44.0","task_version":"battery-v0.1"},{"rune":"Z","hex":"#3366ff99","correct":-1,"choice":32,"rt":783.2250000210479,"accuracy":0,"outcome":"+1","keys":[2283.650000113994],"total_keys":1,"block":1,"trial":43,"robot":2,"valence":"win","action":"no-go","sham":0,"trial_type":"pit-trial","trial_index":56,"time_elapsed":367637,"internal_node_id":"0.0-45.0","task_version":"battery-v0.1"},{"rune":"G","hex":"#f73b6a7A","correct":32,"choice":32,"rt":447.1950000151992,"accuracy":1,"outcome":"-10","keys":[1947.8499999968335],"total_keys":1,"block":1,"trial":44,"robot":3,"valence":"lose","action":"go","sham":1,"trial_type":"pit-trial","trial_index":57,"time_elapsed":370788,"internal_node_id":"0.0-46.0","task_version":"battery-v0.1"},{"rune":"Z","hex":"#3366ff99","correct":-1,"choice":-1,"rt":-1,"accuracy":1,"outcome":"+10","keys":[],"total_keys":0,"block":1,"trial":45,"robot":2,"valence":"win","action":"no-go","sham":0,"trial_type":"pit-trial","trial_index":58,"time_elapsed":374791,"internal_node_id":"0.0-47.0","task_version":"battery-v0.1"},{"rune":"G","hex":"#f73b6a7A","correct":32,"choice":-1,"rt":-1,"accuracy":0,"outcome":"-10","keys":[],"total_keys":0,"block":1,"trial":46,"robot":3,"valence":"lose","action":"go","sham":0,"trial_type":"pit-trial","trial_index":59,"time_elapsed":378800,"internal_node_id":"0.0-48.0","task_version":"battery-v0.1"},{"rune":"I","hex":"#3366ff99","correct":32,"choice":32,"rt":733.1800000974908,"accuracy":1,"outcome":"+10","keys":[2234.2400000197813],"total_keys":1,"block":1,"trial":47,"robot":1,"valence":"win","action":"go","sham":0,"trial_type":"pit-trial","trial_index":60,"time_elapsed":382237,"internal_node_id":"0.0-49.0","task_version":"battery-v0.1"},{"rune":"U","hex":"#f73b6a7A","correct":-1,"choice":32,"rt":793.184999958612,"accuracy":0,"outcome":"-10","keys":[2293.7099999981],"total_keys":1,"block":1,"trial":48,"robot":4,"valence":"lose","action":"no-go","sham":0,"trial_type":"pit-trial","trial_index":61,"time_elapsed":385734,"internal_node_id":"0.0-50.0","task_version":"battery-v0.1"},{"rune":"I","hex":"#3366ff99","correct":32,"choice":-1,"rt":-1,"accuracy":0,"outcome":"+1","keys":[],"total_keys":0,"block":1,"trial":49,"robot":1,"valence":"win","action":"go","sham":0,"trial_type":"pit-trial","trial_index":62,"time_elapsed":389741,"internal_node_id":"0.0-51.0","task_version":"battery-v0.1"},{"rune":"C","hex":"#3366ff99","correct":-1,"choice":32,"rt":747.3750000353903,"accuracy":0,"outcome":"+1","keys":[2247.7449999423698],"total_keys":1,"block":1,"trial":50,"robot":2,"valence":"win","action":"no-go","sham":0,"trial_type":"pit-trial","trial_index":63,"time_elapsed":393193,"internal_node_id":"0.0-52.0","task_version":"battery-v0.1"},{"rune":"G","hex":"#f73b6a7A","correct":32,"choice":-1,"rt":-1,"accuracy":0,"outcome":"-10","keys":[],"total_keys":0,"block":1,"trial":51,"robot":3,"valence":"lose","action":"go","sham":0,"trial_type":"pit-trial","trial_index":64,"time_elapsed":397200,"internal_node_id":"0.0-53.0","task_version":"battery-v0.1"},{"rune":"U","hex":"#f73b6a7A","correct":-1,"choice":32,"rt":893.3249999536201,"accuracy":0,"outcome":"-10","keys":[2394.7400000179186],"total_keys":1,"block":1,"trial":52,"robot":4,"valence":"lose","action":"no-go","sham":0,"trial_type":"pit-trial","trial_index":65,"time_elapsed":400797,"internal_node_id":"0.0-54.0","task_version":"battery-v0.1"},{"rune":"G","hex":"#f73b6a7A","correct":32,"choice":-1,"rt":-1,"accuracy":0,"outcome":"-10","keys":[],"total_keys":0,"block":1,"trial":53,"robot":3,"valence":"lose","action":"go","sham":0,"trial_type":"pit-trial","trial_index":66,"time_elapsed":404802,"internal_node_id":"0.0-55.0","task_version":"battery-v0.1"},{"rune":"C","hex":"#3366ff99","correct":-1,"choice":-1,"rt":-1,"accuracy":1,"outcome":"+1","keys":[],"total_keys":0,"block":1,"trial":54,"robot":2,"valence":"win","action":"no-go","sham":1,"trial_type":"pit-trial","trial_index":67,"time_elapsed":408806,"internal_node_id":"0.0-56.0","task_version":"battery-v0.1"},{"rune":"I","hex":"#3366ff99","correct":32,"choice":-1,"rt":-1,"accuracy":0,"outcome":"+1","keys":[],"total_keys":0,"block":1,"trial":55,"robot":1,"valence":"win","action":"go","sham":0,"trial_type":"pit-trial","trial_index":68,"time_elapsed":412823,"internal_node_id":"0.0-57.0","task_version":"battery-v0.1"},{"rune":"U","hex":"#f73b6a7A","correct":-1,"choice":32,"rt":942.2100000083447,"accuracy":0,"outcome":"-10","keys":[2442.8449999541044],"total_keys":1,"block":1,"trial":56,"robot":4,"valence":"lose","action":"no-go","sham":0,"trial_type":"pit-trial","trial_index":69,"time_elapsed":416470,"internal_node_id":"0.0-58.0","task_version":"battery-v0.1"},{"rune":"G","hex":"#f73b6a7A","correct":32,"choice":32,"rt":883.9950000401586,"accuracy":1,"outcome":"-1","keys":[2384.5900000305846],"total_keys":1,"block":1,"trial":57,"robot":3,"valence":"lose","action":"go","sham":0,"trial_type":"pit-trial","trial_index":70,"time_elapsed":420057,"internal_node_id":"0.0-59.0","task_version":"battery-v0.1"},{"rune":"I","hex":"#3366ff99","correct":32,"choice":32,"rt":856.3750000903383,"accuracy":1,"outcome":"+10","keys":[2357.2249999269843],"total_keys":1,"block":1,"trial":58,"robot":1,"valence":"win","action":"go","sham":0,"trial_type":"pit-trial","trial_index":71,"time_elapsed":423617,"internal_node_id":"0.0-60.0","task_version":"battery-v0.1"},{"rune":"U","hex":"#f73b6a7A","correct":-1,"choice":-1,"rt":-1,"accuracy":1,"outcome":"-1","keys":[],"total_keys":0,"block":1,"trial":59,"robot":4,"valence":"lose","action":"no-go","sham":0,"trial_type":"pit-trial","trial_index":72,"time_elapsed":427622,"internal_node_id":"0.0-61.0","task_version":"battery-v0.1"},{"rune":"C","hex":"#3366ff99","correct":-1,"choice":32,"rt":344.58999999333173,"accuracy":0,"outcome":"+10","keys":[1845.0599999632686],"total_keys":1,"block":1,"trial":60,"robot":2,"valence":"win","action":"no-go","sham":1,"trial_type":"pit-trial","trial_index":73,"time_elapsed":430670,"internal_node_id":"0.0-62.0","task_version":"battery-v0.1"},{"rune":"I","hex":"#3366ff99","correct":32,"choice":32,"rt":493.30500001087785,"accuracy":1,"outcome":"+10","keys":[1993.7700000591576],"total_keys":1,"block":1,"trial":61,"robot":1,"valence":"win","action":"go","sham":0,"trial_type":"pit-trial","trial_index":74,"time_elapsed":433869,"internal_node_id":"0.0-63.0","task_version":"battery-v0.1"},{"rune":"C","hex":"#3366ff99","correct":-1,"choice":32,"rt":329.4149999273941,"accuracy":0,"outcome":"+10","keys":[1830.1450000144541],"total_keys":1,"block":1,"trial":62,"robot":2,"valence":"win","action":"no-go","sham":1,"trial_type":"pit-trial","trial_index":75,"time_elapsed":436904,"internal_node_id":"0.0-64.0","task_version":"battery-v0.1"},{"rune":"U","hex":"#f73b6a7A","correct":-1,"choice":-1,"rt":-1,"accuracy":1,"outcome":"-1","keys":[],"total_keys":0,"block":1,"trial":63,"robot":4,"valence":"lose","action":"no-go","sham":0,"trial_type":"pit-trial","trial_index":76,"time_elapsed":440911,"internal_node_id":"0.0-65.0","task_version":"battery-v0.1"},{"rune":"G","hex":"#f73b6a7A","correct":32,"choice":-1,"rt":-1,"accuracy":0,"outcome":"-10","keys":[],"total_keys":0,"block":1,"trial":64,"robot":3,"valence":"lose","action":"go","sham":0,"trial_type":"pit-trial","trial_index":77,"time_elapsed":444916,"internal_node_id":"0.0-66.0","task_version":"battery-v0.1"},{"rune":"U","hex":"#f73b6a7A","correct":-1,"choice":-1,"rt":-1,"accuracy":1,"outcome":"-10","keys":[],"total_keys":0,"block":1,"trial":65,"robot":4,"valence":"lose","action":"no-go","sham":1,"trial_type":"pit-trial","trial_index":78,"time_elapsed":448934,"internal_node_id":"0.0-67.0","task_version":"battery-v0.1"},{"rune":"C","hex":"#3366ff99","correct":-1,"choice":32,"rt":985.8849999727681,"accuracy":0,"outcome":"+10","keys":[2486.7200000444427],"total_keys":1,"block":1,"trial":66,"robot":2,"valence":"win","action":"no-go","sham":1,"trial_type":"pit-trial","trial_index":79,"time_elapsed":452624,"internal_node_id":"0.0-68.0","task_version":"battery-v0.1"},{"rune":"I","hex":"#3366ff99","correct":32,"choice":-1,"rt":-1,"accuracy":0,"outcome":"+10","keys":[],"total_keys":0,"block":1,"trial":67,"robot":1,"valence":"win","action":"go","sham":1,"trial_type":"pit-trial","trial_index":80,"time_elapsed":456637,"internal_node_id":"0.0-69.0","task_version":"battery-v0.1"},{"rune":"G","hex":"#f73b6a7A","correct":32,"choice":32,"rt":630.1499999826774,"accuracy":1,"outcome":"-10","keys":[2130.445000017062],"total_keys":1,"block":1,"trial":68,"robot":3,"valence":"lose","action":"go","sham":1,"trial_type":"pit-trial","trial_index":81,"time_elapsed":459971,"internal_node_id":"0.0-70.0","task_version":"battery-v0.1"},{"rune":"U","hex":"#f73b6a7A","correct":-1,"choice":32,"rt":742.6350000314415,"accuracy":0,"outcome":"-10","keys":[2242.839999962598],"total_keys":1,"block":1,"trial":69,"robot":4,"valence":"lose","action":"no-go","sham":0,"trial_type":"pit-trial","trial_index":82,"time_elapsed":463418,"internal_node_id":"0.0-71.0","task_version":"battery-v0.1"},{"rune":"G","hex":"#f73b6a7A","correct":32,"choice":32,"rt":675.2600000472739,"accuracy":1,"outcome":"-10","keys":[2175.965000060387],"total_keys":1,"block":1,"trial":70,"robot":3,"valence":"lose","action":"go","sham":1,"trial_type":"pit-trial","trial_index":83,"time_elapsed":466798,"internal_node_id":"0.0-72.0","task_version":"battery-v0.1"},{"rune":"C","hex":"#3366ff99","correct":-1,"choice":32,"rt":541.1649999441579,"accuracy":0,"outcome":"+1","keys":[2041.925000026822],"total_keys":1,"block":1,"trial":71,"robot":2,"valence":"win","action":"no-go","sham":0,"trial_type":"pit-trial","trial_index":84,"time_elapsed":470042,"internal_node_id":"0.0-73.0","task_version":"battery-v0.1"},{"rune":"I","hex":"#3366ff99","correct":32,"choice":32,"rt":657.6750000240281,"accuracy":1,"outcome":"+10","keys":[2158.119999920018],"total_keys":1,"block":1,"trial":72,"robot":1,"valence":"win","action":"go","sham":0,"trial_type":"pit-trial","trial_index":85,"time_elapsed":473402,"internal_node_id":"0.0-74.0","task_version":"battery-v0.1"},{"rune":"I","hex":"#3366ff99","correct":32,"choice":32,"rt":365.23999995552003,"accuracy":1,"outcome":"+10","keys":[1865.5900000594556],"total_keys":1,"block":1,"trial":73,"robot":1,"valence":"win","action":"go","sham":0,"trial_type":"pit-trial","trial_index":86,"time_elapsed":476471,"internal_node_id":"0.0-75.0","task_version":"battery-v0.1"},{"rune":"N","hex":"#f73b6a7A","correct":32,"choice":-1,"rt":-1,"accuracy":0,"outcome":"-10","keys":[],"total_keys":0,"block":1,"trial":74,"robot":3,"valence":"lose","action":"go","sham":0,"trial_type":"pit-trial","trial_index":87,"time_elapsed":480476,"internal_node_id":"0.0-76.0","task_version":"battery-v0.1"},{"rune":"U","hex":"#f73b6a7A","correct":-1,"choice":-1,"rt":-1,"accuracy":1,"outcome":"-1","keys":[],"total_keys":0,"block":1,"trial":75,"robot":4,"valence":"lose","action":"no-go","sham":0,"trial_type":"pit-trial","trial_index":88,"time_elapsed":484480,"internal_node_id":"0.0-77.0","task_version":"battery-v0.1"},{"rune":"C","hex":"#3366ff99","correct":-1,"choice":32,"rt":770.9549999563023,"accuracy":0,"outcome":"+1","keys":[2271.184999961406],"total_keys":1,"block":1,"trial":76,"robot":2,"valence":"win","action":"no-go","sham":0,"trial_type":"pit-trial","trial_index":89,"time_elapsed":487954,"internal_node_id":"0.0-78.0","task_version":"battery-v0.1"},{"rune":"U","hex":"#f73b6a7A","correct":-1,"choice":-1,"rt":-1,"accuracy":1,"outcome":"-1","keys":[],"total_keys":0,"block":1,"trial":77,"robot":4,"valence":"lose","action":"no-go","sham":0,"trial_type":"pit-trial","trial_index":90,"time_elapsed":491958,"internal_node_id":"0.0-79.0","task_version":"battery-v0.1"},{"rune":"I","hex":"#3366ff99","correct":32,"choice":32,"rt":395.48499998636544,"accuracy":1,"outcome":"+10","keys":[1896.3850000873208],"total_keys":1,"block":1,"trial":78,"robot":1,"valence":"win","action":"go","sham":0,"trial_type":"pit-trial","trial_index":91,"time_elapsed":495059,"internal_node_id":"0.0-80.0","task_version":"battery-v0.1"},{"rune":"C","hex":"#3366ff99","correct":-1,"choice":32,"rt":825.1300000119954,"accuracy":0,"outcome":"+1","keys":[2325.630000093952],"total_keys":1,"block":1,"trial":79,"robot":2,"valence":"win","action":"no-go","sham":0,"trial_type":"pit-trial","trial_index":92,"time_elapsed":498588,"internal_node_id":"0.0-81.0","task_version":"battery-v0.1"},{"rune":"N","hex":"#f73b6a7A","correct":32,"choice":32,"rt":372.73500009905547,"accuracy":1,"outcome":"-1","keys":[1872.9700000258163],"total_keys":1,"block":1,"trial":80,"robot":3,"valence":"lose","action":"go","sham":0,"trial_type":"pit-trial","trial_index":93,"time_elapsed":501663,"internal_node_id":"0.0-82.0","task_version":"battery-v0.1"},{"rune":"U","hex":"#f73b6a7A","correct":-1,"choice":-1,"rt":-1,"accuracy":1,"outcome":"-1","keys":[],"total_keys":0,"block":1,"trial":81,"robot":4,"valence":"lose","action":"no-go","sham":0,"trial_type":"pit-trial","trial_index":94,"time_elapsed":505667,"internal_node_id":"0.0-83.0","task_version":"battery-v0.1"},{"rune":"P","hex":"#f73b6a7A","correct":32,"choice":-1,"rt":-1,"accuracy":0,"outcome":"-10","keys":[],"total_keys":0,"block":1,"trial":82,"robot":3,"valence":"lose","action":"go","sham":0,"trial_type":"pit-trial","trial_index":95,"time_elapsed":509673,"internal_node_id":"0.0-84.0","task_version":"battery-v0.1"},{"rune":"N","hex":"#f73b6a7A","correct":32,"choice":32,"rt":935.2700000163168,"accuracy":1,"outcome":"-1","keys":[2436.2249999539927],"total_keys":1,"block":1,"trial":83,"robot":3,"valence":"lose","action":"go","sham":0,"trial_type":"pit-trial","trial_index":96,"time_elapsed":513313,"internal_node_id":"0.0-85.0","task_version":"battery-v0.1"},{"rune":"C","hex":"#3366ff99","correct":-1,"choice":32,"rt":302.2199999541044,"accuracy":0,"outcome":"+1","keys":[1803.749999962747],"total_keys":1,"block":1,"trial":84,"robot":2,"valence":"win","action":"no-go","sham":0,"trial_type":"pit-trial","trial_index":97,"time_elapsed":516319,"internal_node_id":"0.0-86.0","task_version":"battery-v0.1"},{"rune":"P","hex":"#f73b6a7A","correct":32,"choice":32,"rt":665.5749999918044,"accuracy":1,"outcome":"-1","keys":[2166.28500004299],"total_keys":1,"block":1,"trial":85,"robot":3,"valence":"lose","action":"go","sham":0,"trial_type":"pit-trial","trial_index":98,"time_elapsed":519689,"internal_node_id":"0.0-87.0","task_version":"battery-v0.1"},{"rune":"U","hex":"#f73b6a7A","correct":-1,"choice":-1,"rt":-1,"accuracy":1,"outcome":"-1","keys":[],"total_keys":0,"block":1,"trial":86,"robot":4,"valence":"lose","action":"no-go","sham":0,"trial_type":"pit-trial","trial_index":99,"time_elapsed":523693,"internal_node_id":"0.0-88.0","task_version":"battery-v0.1"},{"rune":"C","hex":"#3366ff99","correct":-1,"choice":32,"rt":497.11500003468245,"accuracy":0,"outcome":"+10","keys":[1997.4050000309944],"total_keys":1,"block":1,"trial":87,"robot":2,"valence":"win","action":"no-go","sham":1,"trial_type":"pit-trial","trial_index":100,"time_elapsed":526893,"internal_node_id":"0.0-89.0","task_version":"battery-v0.1"},{"rune":"N","hex":"#f73b6a7A","correct":32,"choice":32,"rt":855.5400000186637,"accuracy":1,"outcome":"-10","keys":[2357.3799999430776],"total_keys":1,"block":1,"trial":88,"robot":3,"valence":"lose","action":"go","sham":1,"trial_type":"pit-trial","trial_index":101,"time_elapsed":530455,"internal_node_id":"0.0-90.0","task_version":"battery-v0.1"},{"rune":"P","hex":"#f73b6a7A","correct":32,"choice":32,"rt":597.609999938868,"accuracy":1,"outcome":"-10","keys":[2098.035000031814],"total_keys":1,"block":1,"trial":89,"robot":3,"valence":"lose","action":"go","sham":1,"trial_type":"pit-trial","trial_index":102,"time_elapsed":533758,"internal_node_id":"0.0-91.0","task_version":"battery-v0.1"},{"rune":"N","hex":"#f73b6a7A","correct":32,"choice":32,"rt":701.6150000272319,"accuracy":1,"outcome":"-1","keys":[2202.560000005178],"total_keys":1,"block":1,"trial":90,"robot":3,"valence":"lose","action":"go","sham":0,"trial_type":"pit-trial","trial_index":103,"time_elapsed":537164,"internal_node_id":"0.0-92.0","task_version":"battery-v0.1"},{"rune":"V","hex":"#f73b6a7A","correct":-1,"choice":-1,"rt":-1,"accuracy":1,"outcome":"-1","keys":[],"total_keys":0,"block":1,"trial":91,"robot":4,"valence":"lose","action":"no-go","sham":0,"trial_type":"pit-trial","trial_index":104,"time_elapsed":541169,"internal_node_id":"0.0-93.0","task_version":"battery-v0.1"},{"rune":"S","hex":"#3366ff99","correct":-1,"choice":32,"rt":339.0849999850616,"accuracy":0,"outcome":"+1","keys":[1840.8050000434741],"total_keys":1,"block":1,"trial":92,"robot":2,"valence":"win","action":"no-go","sham":0,"trial_type":"pit-trial","trial_index":105,"time_elapsed":544213,"internal_node_id":"0.0-94.0","task_version":"battery-v0.1"},{"rune":"S","hex":"#3366ff99","correct":-1,"choice":32,"rt":274.9349999940023,"accuracy":0,"outcome":"+1","keys":[1775.3600000869483],"total_keys":1,"block":1,"trial":93,"robot":2,"valence":"win","action":"no-go","sham":0,"trial_type":"pit-trial","trial_index":106,"time_elapsed":547192,"internal_node_id":"0.0-95.0","task_version":"battery-v0.1"},{"rune":"P","hex":"#f73b6a7A","correct":32,"choice":-1,"rt":-1,"accuracy":0,"outcome":"-10","keys":[],"total_keys":0,"block":1,"trial":94,"robot":3,"valence":"lose","action":"go","sham":0,"trial_type":"pit-trial","trial_index":107,"time_elapsed":551198,"internal_node_id":"0.0-96.0","task_version":"battery-v0.1"},{"rune":"V","hex":"#f73b6a7A","correct":-1,"choice":-1,"rt":-1,"accuracy":1,"outcome":"-1","keys":[85.87499998975545],"total_keys":1,"block":1,"trial":95,"robot":4,"valence":"lose","action":"no-go","sham":0,"trial_type":"pit-trial","trial_index":108,"time_elapsed":555206,"internal_node_id":"0.0-97.0","task_version":"battery-v0.1"},{"rune":"N","hex":"#f73b6a7A","correct":32,"choice":32,"rt":765.6750000314787,"accuracy":1,"outcome":"-1","keys":[2266.7099999962375],"total_keys":1,"block":1,"trial":96,"robot":3,"valence":"lose","action":"go","sham":0,"trial_type":"pit-trial","trial_index":109,"time_elapsed":558676,"internal_node_id":"0.0-98.0","task_version":"battery-v0.1"},{"rune":"P","hex":"#f73b6a7A","correct":32,"choice":32,"rt":457.11499999742955,"accuracy":1,"outcome":"-1","keys":[1957.4649999849498],"total_keys":1,"block":1,"trial":97,"robot":3,"valence":"lose","action":"go","sham":0,"trial_type":"pit-trial","trial_index":110,"time_elapsed":561840,"internal_node_id":"0.0-99.0","task_version":"battery-v0.1"},{"rune":"S","hex":"#3366ff99","correct":-1,"choice":32,"rt":372.80000001192093,"accuracy":0,"outcome":"+1","keys":[1873.130000079982],"total_keys":1,"block":1,"trial":98,"robot":2,"valence":"win","action":"no-go","sham":0,"trial_type":"pit-trial","trial_index":111,"time_elapsed":564916,"internal_node_id":"0.0-100.0","task_version":"battery-v0.1"},{"rune":"N","hex":"#f73b6a7A","correct":32,"choice":32,"rt":632.9899999545887,"accuracy":1,"outcome":"-1","keys":[2133.819999988191],"total_keys":1,"block":1,"trial":99,"robot":3,"valence":"lose","action":"go","sham":0,"trial_type":"pit-trial","trial_index":112,"time_elapsed":568253,"internal_node_id":"0.0-101.0","task_version":"battery-v0.1"},{"rune":"V","hex":"#f73b6a7A","correct":-1,"choice":-1,"rt":-1,"accuracy":1,"outcome":"-1","keys":[],"total_keys":0,"block":1,"trial":100,"robot":4,"valence":"lose","action":"no-go","sham":0,"trial_type":"pit-trial","trial_index":113,"time_elapsed":572259,"internal_node_id":"0.0-102.0","task_version":"battery-v0.1"},{"rune":"S","hex":"#3366ff99","correct":-1,"choice":32,"rt":362.4800000106916,"accuracy":0,"outcome":"+1","keys":[1863.6899999110028],"total_keys":1,"block":1,"trial":101,"robot":2,"valence":"win","action":"no-go","sham":0,"trial_type":"pit-trial","trial_index":114,"time_elapsed":575325,"internal_node_id":"0.0-103.0","task_version":"battery-v0.1"},{"rune":"N","hex":"#f73b6a7A","correct":32,"choice":32,"rt":500.9299999801442,"accuracy":1,"outcome":"-1","keys":[2001.230000052601],"total_keys":1,"block":1,"trial":102,"robot":3,"valence":"lose","action":"go","sham":0,"trial_type":"pit-trial","trial_index":115,"time_elapsed":578529,"internal_node_id":"0.0-104.0","task_version":"battery-v0.1"},{"rune":"V","hex":"#f73b6a7A","correct":-1,"choice":-1,"rt":-1,"accuracy":1,"outcome":"-10","keys":[],"total_keys":0,"block":1,"trial":103,"robot":4,"valence":"lose","action":"no-go","sham":1,"trial_type":"pit-trial","trial_index":116,"time_elapsed":582532,"internal_node_id":"0.0-105.0","task_version":"battery-v0.1"},{"rune":"P","hex":"#f73b6a7A","correct":32,"choice":32,"rt":614.2499999841675,"accuracy":1,"outcome":"-10","keys":[2114.5000000251457],"total_keys":1,"block":1,"trial":104,"robot":3,"valence":"lose","action":"go","sham":1,"trial_type":"pit-trial","trial_index":117,"time_elapsed":585850,"internal_node_id":"0.0-106.0","task_version":"battery-v0.1"},{"rune":"V","hex":"#f73b6a7A","correct":-1,"choice":-1,"rt":-1,"accuracy":1,"outcome":"-1","keys":[],"total_keys":0,"block":1,"trial":105,"robot":4,"valence":"lose","action":"no-go","sham":0,"trial_type":"pit-trial","trial_index":118,"time_elapsed":589855,"internal_node_id":"0.0-107.0","task_version":"battery-v0.1"},{"rune":"N","hex":"#f73b6a7A","correct":32,"choice":32,"rt":649.4399999501184,"accuracy":1,"outcome":"-1","keys":[2150.4100000020117],"total_keys":1,"block":1,"trial":106,"robot":3,"valence":"lose","action":"go","sham":0,"trial_type":"pit-trial","trial_index":119,"time_elapsed":593210,"internal_node_id":"0.0-108.0","task_version":"battery-v0.1"},{"rune":"P","hex":"#f73b6a7A","correct":32,"choice":32,"rt":551.075000083074,"accuracy":1,"outcome":"-1","keys":[2051.4250000705943],"total_keys":1,"block":1,"trial":107,"robot":3,"valence":"lose","action":"go","sham":0,"trial_type":"pit-trial","trial_index":120,"time_elapsed":596466,"internal_node_id":"0.0-109.0","task_version":"battery-v0.1"},{"rune":"S","hex":"#3366ff99","correct":-1,"choice":32,"rt":317.10999994538724,"accuracy":0,"outcome":"+10","keys":[1817.365000024438],"total_keys":1,"block":1,"trial":108,"robot":2,"valence":"win","action":"no-go","sham":1,"trial_type":"pit-trial","trial_index":121,"time_elapsed":599486,"internal_node_id":"0.0-110.0","task_version":"battery-v0.1"},{"rune":"N","hex":"#f73b6a7A","correct":32,"choice":32,"rt":719.7850000811741,"accuracy":1,"outcome":"-1","keys":[2220.339999999851],"total_keys":1,"block":1,"trial":109,"robot":3,"valence":"lose","action":"go","sham":0,"trial_type":"pit-trial","trial_index":122,"time_elapsed":602912,"internal_node_id":"0.0-111.0","task_version":"battery-v0.1"},{"rune":"P","hex":"#f73b6a7A","correct":32,"choice":32,"rt":460.8599999919534,"accuracy":1,"outcome":"-1","keys":[1961.1900000600144],"total_keys":1,"block":1,"trial":110,"robot":3,"valence":"lose","action":"go","sham":0,"trial_type":"pit-trial","trial_index":123,"time_elapsed":606078,"internal_node_id":"0.0-112.0","task_version":"battery-v0.1"},{"rune":"S","hex":"#3366ff99","correct":-1,"choice":32,"rt":324.7099999571219,"accuracy":0,"outcome":"+10","keys":[1825.3949999343604],"total_keys":1,"block":1,"trial":111,"robot":2,"valence":"win","action":"no-go","sham":1,"trial_type":"pit-trial","trial_index":124,"time_elapsed":609107,"internal_node_id":"0.0-113.0","task_version":"battery-v0.1"},{"rune":"V","hex":"#f73b6a7A","correct":-1,"choice":-1,"rt":-1,"accuracy":1,"outcome":"-1","keys":[],"total_keys":0,"block":1,"trial":112,"robot":4,"valence":"lose","action":"no-go","sham":0,"trial_type":"pit-trial","trial_index":125,"time_elapsed":613112,"internal_node_id":"0.0-114.0","task_version":"battery-v0.1"},{"rune":"P","hex":"#f73b6a7A","correct":32,"choice":32,"rt":559.1600000625476,"accuracy":1,"outcome":"-1","keys":[2059.4949999358505],"total_keys":1,"block":1,"trial":113,"robot":3,"valence":"lose","action":"go","sham":0,"trial_type":"pit-trial","trial_index":126,"time_elapsed":616374,"internal_node_id":"0.0-115.0","task_version":"battery-v0.1"},{"rune":"S","hex":"#3366ff99","correct":-1,"choice":32,"rt":356.0499999439344,"accuracy":0,"outcome":"+1","keys":[1856.5499999094754],"total_keys":1,"block":1,"trial":114,"robot":2,"valence":"win","action":"no-go","sham":0,"trial_type":"pit-trial","trial_index":127,"time_elapsed":619434,"internal_node_id":"0.0-116.0","task_version":"battery-v0.1"},{"rune":"V","hex":"#f73b6a7A","correct":-1,"choice":-1,"rt":-1,"accuracy":1,"outcome":"-1","keys":[],"total_keys":0,"block":1,"trial":115,"robot":4,"valence":"lose","action":"no-go","sham":0,"trial_type":"pit-trial","trial_index":128,"time_elapsed":623437,"internal_node_id":"0.0-117.0","task_version":"battery-v0.1"},{"rune":"N","hex":"#f73b6a7A","correct":32,"choice":32,"rt":636.9749999139458,"accuracy":1,"outcome":"-1","keys":[2138.079999946058],"total_keys":1,"block":1,"trial":116,"robot":3,"valence":"lose","action":"go","sham":0,"trial_type":"pit-trial","trial_index":129,"time_elapsed":626780,"internal_node_id":"0.0-118.0","task_version":"battery-v0.1"},{"rune":"V","hex":"#f73b6a7A","correct":-1,"choice":-1,"rt":-1,"accuracy":1,"outcome":"-1","keys":[],"total_keys":0,"block":1,"trial":117,"robot":4,"valence":"lose","action":"no-go","sham":0,"trial_type":"pit-trial","trial_index":130,"time_elapsed":630784,"internal_node_id":"0.0-119.0","task_version":"battery-v0.1"},{"rune":"N","hex":"#f73b6a7A","correct":32,"choice":32,"rt":526.3900000136346,"accuracy":1,"outcome":"-1","keys":[2027.295000036247],"total_keys":1,"block":1,"trial":118,"robot":3,"valence":"lose","action":"go","sham":0,"trial_type":"pit-trial","trial_index":131,"time_elapsed":634015,"internal_node_id":"0.0-120.0","task_version":"battery-v0.1"},{"rune":"P","hex":"#f73b6a7A","correct":32,"choice":32,"rt":509.11500002257526,"accuracy":1,"outcome":"-10","keys":[2010.814999928698],"total_keys":1,"block":1,"trial":119,"robot":3,"valence":"lose","action":"go","sham":1,"trial_type":"pit-trial","trial_index":132,"time_elapsed":637229,"internal_node_id":"0.0-121.0","task_version":"battery-v0.1"},{"rune":"S","hex":"#3366ff99","correct":-1,"choice":32,"rt":329.1449999669567,"accuracy":0,"outcome":"+1","keys":[1829.2249999940395],"total_keys":1,"block":1,"trial":120,"robot":2,"valence":"win","action":"no-go","sham":0,"trial_type":"pit-trial","trial_index":133,"time_elapsed":640261,"internal_node_id":"0.0-122.0","task_version":"battery-v0.1"},{"view_history":"[{\"page_index\":0,\"viewing_time\":31137.359999935143},{\"page_index\":1,\"viewing_time\":3353.70000009425}]","rt":34491.59999995027,"trial_type":"pit-instructions","trial_index":134,"time_elapsed":674754,"internal_node_id":"0.0-123.0","task_version":"battery-v0.1"},{"rune":"F","hex":"#f73b6a7A","correct":-1,"choice":-1,"rt":-1,"accuracy":1,"outcome":"-1","keys":[],"total_keys":0,"block":2,"trial":121,"robot":4,"valence":"lose","action":"no-go","sham":0,"trial_type":"pit-trial","trial_index":135,"time_elapsed":678759,"internal_node_id":"0.0-124.0","task_version":"battery-v0.1"},{"rune":"X","hex":"#f73b6a7A","correct":-1,"choice":-1,"rt":-1,"accuracy":1,"outcome":"-1","keys":[],"total_keys":0,"block":2,"trial":122,"robot":4,"valence":"lose","action":"no-go","sham":0,"trial_type":"pit-trial","trial_index":136,"time_elapsed":682763,"internal_node_id":"0.0-125.0","task_version":"battery-v0.1"},{"rune":"E","hex":"#3366ff99","correct":-1,"choice":32,"rt":730.2349999081343,"accuracy":0,"outcome":"+10","keys":[2230.6600000010803],"total_keys":1,"block":2,"trial":123,"robot":2,"valence":"win","action":"no-go","sham":1,"trial_type":"pit-trial","trial_index":137,"time_elapsed":686198,"internal_node_id":"0.0-126.0","task_version":"battery-v0.1"},{"rune":"L","hex":"#3366ff99","correct":32,"choice":32,"rt":667.130000074394,"accuracy":1,"outcome":"+10","keys":[2167.7200000267476],"total_keys":1,"block":2,"trial":124,"robot":1,"valence":"win","action":"go","sham":0,"trial_type":"pit-trial","trial_index":138,"time_elapsed":689572,"internal_node_id":"0.0-127.0","task_version":"battery-v0.1"},{"rune":"L","hex":"#3366ff99","correct":32,"choice":32,"rt":376.61000003572553,"accuracy":1,"outcome":"+10","keys":[1878.1650000019],"total_keys":1,"block":2,"trial":125,"robot":1,"valence":"win","action":"go","sham":0,"trial_type":"pit-trial","trial_index":139,"time_elapsed":692654,"internal_node_id":"0.0-128.0","task_version":"battery-v0.1"},{"rune":"E","hex":"#3366ff99","correct":-1,"choice":32,"rt":457.494999980554,"accuracy":0,"outcome":"+1","keys":[1959.184999926947],"total_keys":1,"block":2,"trial":126,"robot":2,"valence":"win","action":"no-go","sham":0,"trial_type":"pit-trial","trial_index":140,"time_elapsed":695818,"internal_node_id":"0.0-129.0","task_version":"battery-v0.1"},{"rune":"X","hex":"#f73b6a7A","correct":-1,"choice":32,"rt":623.7549999495968,"accuracy":0,"outcome":"-1","keys":[2124.775000032969],"total_keys":1,"block":2,"trial":127,"robot":4,"valence":"lose","action":"no-go","sham":1,"trial_type":"pit-trial","trial_index":141,"time_elapsed":699147,"internal_node_id":"0.0-130.0","task_version":"battery-v0.1"},{"rune":"F","hex":"#f73b6a7A","correct":-1,"choice":32,"rt":637.3149999417365,"accuracy":0,"outcome":"-10","keys":[2138.1299999775365],"total_keys":1,"block":2,"trial":128,"robot":4,"valence":"lose","action":"no-go","sham":0,"trial_type":"pit-trial","trial_index":142,"time_elapsed":702488,"internal_node_id":"0.0-131.0","task_version":"battery-v0.1"},{"rune":"X","hex":"#f73b6a7A","correct":-1,"choice":32,"rt":556.1999999918044,"accuracy":0,"outcome":"-1","keys":[2056.7100000334904],"total_keys":1,"block":2,"trial":129,"robot":4,"valence":"lose","action":"no-go","sham":1,"trial_type":"pit-trial","trial_index":143,"time_elapsed":705747,"internal_node_id":"0.0-132.0","task_version":"battery-v0.1"},{"rune":"F","hex":"#f73b6a7A","correct":-1,"choice":-1,"rt":-1,"accuracy":1,"outcome":"-1","keys":[],"total_keys":0,"block":2,"trial":130,"robot":4,"valence":"lose","action":"no-go","sham":0,"trial_type":"pit-trial","trial_index":144,"time_elapsed":709752,"internal_node_id":"0.0-133.0","task_version":"battery-v0.1"},{"rune":"E","hex":"#3366ff99","correct":-1,"choice":32,"rt":550.8300000801682,"accuracy":0,"outcome":"+10","keys":[2051.504999981262],"total_keys":1,"block":2,"trial":131,"robot":2,"valence":"win","action":"no-go","sham":1,"trial_type":"pit-trial","trial_index":145,"time_elapsed":713006,"internal_node_id":"0.0-134.0","task_version":"battery-v0.1"},{"rune":"L","hex":"#3366ff99","correct":32,"choice":32,"rt":542.7399999462068,"accuracy":1,"outcome":"+10","keys":[2043.6300000874326],"total_keys":1,"block":2,"trial":132,"robot":1,"valence":"win","action":"go","sham":0,"trial_type":"pit-trial","trial_index":146,"time_elapsed":716254,"internal_node_id":"0.0-135.0","task_version":"battery-v0.1"},{"rune":"X","hex":"#f73b6a7A","correct":-1,"choice":32,"rt":534.1550000011921,"accuracy":0,"outcome":"-10","keys":[2034.8600000143051],"total_keys":1,"block":2,"trial":133,"robot":4,"valence":"lose","action":"no-go","sham":0,"trial_type":"pit-trial","trial_index":147,"time_elapsed":719494,"internal_node_id":"0.0-136.0","task_version":"battery-v0.1"},{"rune":"L","hex":"#3366ff99","correct":32,"choice":32,"rt":400.9250000817701,"accuracy":1,"outcome":"+10","keys":[1901.090000057593],"total_keys":1,"block":2,"trial":134,"robot":1,"valence":"win","action":"go","sham":0,"trial_type":"pit-trial","trial_index":148,"time_elapsed":722598,"internal_node_id":"0.0-137.0","task_version":"battery-v0.1"},{"rune":"E","hex":"#3366ff99","correct":-1,"choice":32,"rt":502.864999929443,"accuracy":0,"outcome":"+10","keys":[2002.9799999902025],"total_keys":1,"block":2,"trial":135,"robot":2,"valence":"win","action":"no-go","sham":1,"trial_type":"pit-trial","trial_index":149,"time_elapsed":725805,"internal_node_id":"0.0-138.0","task_version":"battery-v0.1"},{"rune":"F","hex":"#f73b6a7A","correct":-1,"choice":-1,"rt":-1,"accuracy":1,"outcome":"-10","keys":[],"total_keys":0,"block":2,"trial":136,"robot":4,"valence":"lose","action":"no-go","sham":1,"trial_type":"pit-trial","trial_index":150,"time_elapsed":729811,"internal_node_id":"0.0-139.0","task_version":"battery-v0.1"},{"rune":"F","hex":"#f73b6a7A","correct":-1,"choice":32,"rt":382.61500000953674,"accuracy":0,"outcome":"-10","keys":[1882.9949999926612],"total_keys":1,"block":2,"trial":137,"robot":4,"valence":"lose","action":"no-go","sham":0,"trial_type":"pit-trial","trial_index":151,"time_elapsed":732898,"internal_node_id":"0.0-140.0","task_version":"battery-v0.1"},{"rune":"L","hex":"#3366ff99","correct":32,"choice":32,"rt":533.8150000898167,"accuracy":1,"outcome":"+10","keys":[2034.8699999740347],"total_keys":1,"block":2,"trial":138,"robot":1,"valence":"win","action":"go","sham":0,"trial_type":"pit-trial","trial_index":152,"time_elapsed":736137,"internal_node_id":"0.0-141.0","task_version":"battery-v0.1"},{"rune":"E","hex":"#3366ff99","correct":-1,"choice":32,"rt":465.30499996151775,"accuracy":0,"outcome":"+1","keys":[1966.5099999401718],"total_keys":1,"block":2,"trial":139,"robot":2,"valence":"win","action":"no-go","sham":0,"trial_type":"pit-trial","trial_index":153,"time_elapsed":739308,"internal_node_id":"0.0-142.0","task_version":"battery-v0.1"},{"rune":"X","hex":"#f73b6a7A","correct":-1,"choice":32,"rt":614.0400000149384,"accuracy":0,"outcome":"-10","keys":[2114.6949999965727],"total_keys":1,"block":2,"trial":140,"robot":4,"valence":"lose","action":"no-go","sham":0,"trial_type":"pit-trial","trial_index":154,"time_elapsed":742627,"internal_node_id":"0.0-143.0","task_version":"battery-v0.1"},{"rune":"L","hex":"#3366ff99","correct":32,"choice":32,"rt":443.5299999313429,"accuracy":1,"outcome":"+10","keys":[1945.3750000102445],"total_keys":1,"block":2,"trial":141,"robot":1,"valence":"win","action":"go","sham":0,"trial_type":"pit-trial","trial_index":155,"time_elapsed":745777,"internal_node_id":"0.0-144.0","task_version":"battery-v0.1"},{"rune":"E","hex":"#3366ff99","correct":-1,"choice":32,"rt":450.0150000676513,"accuracy":0,"outcome":"+1","keys":[1951.1350000975654],"total_keys":1,"block":2,"trial":142,"robot":2,"valence":"win","action":"no-go","sham":0,"trial_type":"pit-trial","trial_index":156,"time_elapsed":748931,"internal_node_id":"0.0-145.0","task_version":"battery-v0.1"},{"rune":"X","hex":"#f73b6a7A","correct":-1,"choice":32,"rt":562.8549999091774,"accuracy":0,"outcome":"-1","keys":[2063.6849999427795],"total_keys":1,"block":2,"trial":143,"robot":4,"valence":"lose","action":"no-go","sham":1,"trial_type":"pit-trial","trial_index":157,"time_elapsed":752200,"internal_node_id":"0.0-146.0","task_version":"battery-v0.1"},{"rune":"F","hex":"#f73b6a7A","correct":-1,"choice":32,"rt":289.49500003363937,"accuracy":0,"outcome":"-10","keys":[1790.489999926649],"total_keys":1,"block":2,"trial":144,"robot":4,"valence":"lose","action":"no-go","sham":0,"trial_type":"pit-trial","trial_index":158,"time_elapsed":755194,"internal_node_id":"0.0-147.0","task_version":"battery-v0.1"},{"rune":"L","hex":"#3366ff99","correct":32,"choice":32,"rt":373.27999994158745,"accuracy":1,"outcome":"+10","keys":[1873.6199999693781],"total_keys":1,"block":2,"trial":145,"robot":1,"valence":"win","action":"go","sham":0,"trial_type":"pit-trial","trial_index":159,"time_elapsed":758271,"internal_node_id":"0.0-148.0","task_version":"battery-v0.1"},{"rune":"F","hex":"#f73b6a7A","correct":-1,"choice":-1,"rt":-1,"accuracy":1,"outcome":"-1","keys":[],"total_keys":0,"block":2,"trial":146,"robot":4,"valence":"lose","action":"no-go","sham":0,"trial_type":"pit-trial","trial_index":160,"time_elapsed":762276,"internal_node_id":"0.0-149.0","task_version":"battery-v0.1"},{"rune":"E","hex":"#3366ff99","correct":-1,"choice":32,"rt":393.9800000516698,"accuracy":0,"outcome":"+10","keys":[1894.4050000282004],"total_keys":1,"block":2,"trial":147,"robot":2,"valence":"win","action":"no-go","sham":1,"trial_type":"pit-trial","trial_index":161,"time_elapsed":765374,"internal_node_id":"0.0-150.0","task_version":"battery-v0.1"},{"rune":"X","hex":"#f73b6a7A","correct":-1,"choice":-1,"rt":-1,"accuracy":1,"outcome":"-1","keys":[],"total_keys":0,"block":2,"trial":148,"robot":4,"valence":"lose","action":"no-go","sham":0,"trial_type":"pit-trial","trial_index":162,"time_elapsed":769377,"internal_node_id":"0.0-151.0","task_version":"battery-v0.1"},{"rune":"X","hex":"#f73b6a7A","correct":-1,"choice":-1,"rt":-1,"accuracy":1,"outcome":"-1","keys":[],"total_keys":0,"block":2,"trial":149,"robot":4,"valence":"lose","action":"no-go","sham":0,"trial_type":"pit-trial","trial_index":163,"time_elapsed":773382,"internal_node_id":"0.0-152.0","task_version":"battery-v0.1"},{"rune":"F","hex":"#f73b6a7A","correct":-1,"choice":-1,"rt":-1,"accuracy":1,"outcome":"-1","keys":[],"total_keys":0,"block":2,"trial":150,"robot":4,"valence":"lose","action":"no-go","sham":0,"trial_type":"pit-trial","trial_index":164,"time_elapsed":777388,"internal_node_id":"0.0-153.0","task_version":"battery-v0.1"},{"rune":"L","hex":"#3366ff99","correct":32,"choice":32,"rt":290.86999990977347,"accuracy":1,"outcome":"+1","keys":[1790.8949999837205],"total_keys":1,"block":2,"trial":151,"robot":1,"valence":"win","action":"go","sham":1,"trial_type":"pit-trial","trial_index":165,"time_elapsed":780385,"internal_node_id":"0.0-154.0","task_version":"battery-v0.1"},{"rune":"E","hex":"#3366ff99","correct":-1,"choice":32,"rt":322.1550000598654,"accuracy":0,"outcome":"+1","keys":[1822.8149999631569],"total_keys":1,"block":2,"trial":152,"robot":2,"valence":"win","action":"no-go","sham":0,"trial_type":"pit-trial","trial_index":166,"time_elapsed":783411,"internal_node_id":"0.0-155.0","task_version":"battery-v0.1"},{"rune":"E","hex":"#3366ff99","correct":-1,"choice":32,"rt":298.72999992221594,"accuracy":0,"outcome":"+1","keys":[1800.745000015013],"total_keys":1,"block":2,"trial":153,"robot":2,"valence":"win","action":"no-go","sham":0,"trial_type":"pit-trial","trial_index":167,"time_elapsed":786415,"internal_node_id":"0.0-156.0","task_version":"battery-v0.1"},{"rune":"F","hex":"#f73b6a7A","correct":-1,"choice":-1,"rt":-1,"accuracy":1,"outcome":"-1","keys":[],"total_keys":0,"block":2,"trial":154,"robot":4,"valence":"lose","action":"no-go","sham":0,"trial_type":"pit-trial","trial_index":168,"time_elapsed":790421,"internal_node_id":"0.0-157.0","task_version":"battery-v0.1"},{"rune":"B","hex":"#f73b6a7A","correct":32,"choice":32,"rt":585.0700000301003,"accuracy":1,"outcome":"-1","keys":[2085.6849999399856],"total_keys":1,"block":2,"trial":155,"robot":3,"valence":"lose","action":"go","sham":0,"trial_type":"pit-trial","trial_index":169,"time_elapsed":793710,"internal_node_id":"0.0-158.0","task_version":"battery-v0.1"},{"rune":"L","hex":"#3366ff99","correct":32,"choice":32,"rt":521.9799999613315,"accuracy":1,"outcome":"+10","keys":[2024.0950000006706],"total_keys":1,"block":2,"trial":156,"robot":1,"valence":"win","action":"go","sham":0,"trial_type":"pit-trial","trial_index":170,"time_elapsed":796937,"internal_node_id":"0.0-159.0","task_version":"battery-v0.1"},{"rune":"E","hex":"#3366ff99","correct":-1,"choice":32,"rt":427.7599999913946,"accuracy":0,"outcome":"+10","keys":[1928.1850000843406],"total_keys":1,"block":2,"trial":157,"robot":2,"valence":"win","action":"no-go","sham":1,"trial_type":"pit-trial","trial_index":171,"time_elapsed":800069,"internal_node_id":"0.0-160.0","task_version":"battery-v0.1"},{"rune":"L","hex":"#3366ff99","correct":32,"choice":32,"rt":473.4900000039488,"accuracy":1,"outcome":"+10","keys":[1974.53000000678],"total_keys":1,"block":2,"trial":158,"robot":1,"valence":"win","action":"go","sham":0,"trial_type":"pit-trial","trial_index":172,"time_elapsed":803247,"internal_node_id":"0.0-161.0","task_version":"battery-v0.1"},{"rune":"B","hex":"#f73b6a7A","correct":32,"choice":32,"rt":484.80500001460314,"accuracy":1,"outcome":"-1","keys":[1985.690000001341],"total_keys":1,"block":2,"trial":159,"robot":3,"valence":"lose","action":"go","sham":0,"trial_type":"pit-trial","trial_index":173,"time_elapsed":806438,"internal_node_id":"0.0-162.0","task_version":"battery-v0.1"},{"rune":"F","hex":"#f73b6a7A","correct":-1,"choice":-1,"rt":-1,"accuracy":1,"outcome":"-1","keys":[],"total_keys":0,"block":2,"trial":160,"robot":4,"valence":"lose","action":"no-go","sham":0,"trial_type":"pit-trial","trial_index":174,"time_elapsed":810442,"internal_node_id":"0.0-163.0","task_version":"battery-v0.1"},{"rune":"B","hex":"#f73b6a7A","correct":32,"choice":32,"rt":842.5050000660121,"accuracy":1,"outcome":"-1","keys":[2343.624999979511],"total_keys":1,"block":2,"trial":161,"robot":3,"valence":"lose","action":"go","sham":0,"trial_type":"pit-trial","trial_index":175,"time_elapsed":813990,"internal_node_id":"0.0-164.0","task_version":"battery-v0.1"},{"rune":"M","hex":"#3366ff99","correct":-1,"choice":32,"rt":463.8850000919774,"accuracy":0,"outcome":"+10","keys":[1965.2000000933185],"total_keys":1,"block":2,"trial":162,"robot":2,"valence":"win","action":"no-go","sham":1,"trial_type":"pit-trial","trial_index":176,"time_elapsed":817158,"internal_node_id":"0.0-165.0","task_version":"battery-v0.1"},{"rune":"Q","hex":"#3366ff99","correct":32,"choice":32,"rt":517.4899999983609,"accuracy":1,"outcome":"+10","keys":[2018.8700000289828],"total_keys":1,"block":2,"trial":163,"robot":1,"valence":"win","action":"go","sham":0,"trial_type":"pit-trial","trial_index":177,"time_elapsed":820379,"internal_node_id":"0.0-166.0","task_version":"battery-v0.1"},{"rune":"F","hex":"#f73b6a7A","correct":-1,"choice":-1,"rt":-1,"accuracy":1,"outcome":"-1","keys":[],"total_keys":0,"block":2,"trial":164,"robot":4,"valence":"lose","action":"no-go","sham":0,"trial_type":"pit-trial","trial_index":178,"time_elapsed":824383,"internal_node_id":"0.0-167.0","task_version":"battery-v0.1"},{"rune":"Q","hex":"#3366ff99","correct":32,"choice":32,"rt":388.5749999899417,"accuracy":1,"outcome":"+10","keys":[1889.1399999847636],"total_keys":1,"block":2,"trial":165,"robot":1,"valence":"win","action":"go","sham":0,"trial_type":"pit-trial","trial_index":179,"time_elapsed":827476,"internal_node_id":"0.0-168.0","task_version":"battery-v0.1"},{"rune":"F","hex":"#f73b6a7A","correct":-1,"choice":-1,"rt":-1,"accuracy":1,"outcome":"-1","keys":[],"total_keys":0,"block":2,"trial":166,"robot":4,"valence":"lose","action":"no-go","sham":0,"trial_type":"pit-trial","trial_index":180,"time_elapsed":831481,"internal_node_id":"0.0-169.0","task_version":"battery-v0.1"},{"rune":"B","hex":"#f73b6a7A","correct":32,"choice":32,"rt":642.6000000210479,"accuracy":1,"outcome":"-1","keys":[2143.7349999323487],"total_keys":1,"block":2,"trial":167,"robot":3,"valence":"lose","action":"go","sham":0,"trial_type":"pit-trial","trial_index":181,"time_elapsed":834828,"internal_node_id":"0.0-170.0","task_version":"battery-v0.1"},{"rune":"M","hex":"#3366ff99","correct":-1,"choice":32,"rt":381.93000003229827,"accuracy":0,"outcome":"+1","keys":[1882.344999932684],"total_keys":1,"block":2,"trial":168,"robot":2,"valence":"win","action":"no-go","sham":0,"trial_type":"pit-trial","trial_index":182,"time_elapsed":837913,"internal_node_id":"0.0-171.0","task_version":"battery-v0.1"},{"rune":"B","hex":"#f73b6a7A","correct":32,"choice":32,"rt":562.389999977313,"accuracy":1,"outcome":"-10","keys":[2062.789999996312],"total_keys":1,"block":2,"trial":169,"robot":3,"valence":"lose","action":"go","sham":1,"trial_type":"pit-trial","trial_index":183,"time_elapsed":841181,"internal_node_id":"0.0-172.0","task_version":"battery-v0.1"},{"rune":"D","hex":"#f73b6a7A","correct":-1,"choice":-1,"rt":-1,"accuracy":1,"outcome":"-1","keys":[],"total_keys":0,"block":2,"trial":170,"robot":4,"valence":"lose","action":"no-go","sham":0,"trial_type":"pit-trial","trial_index":184,"time_elapsed":845186,"internal_node_id":"0.0-173.0","task_version":"battery-v0.1"},{"rune":"Q","hex":"#3366ff99","correct":32,"choice":32,"rt":359.0300000505522,"accuracy":1,"outcome":"+1","keys":[1859.3849999597296],"total_keys":1,"block":2,"trial":171,"robot":1,"valence":"win","action":"go","sham":1,"trial_type":"pit-trial","trial_index":185,"time_elapsed":848248,"internal_node_id":"0.0-174.0","task_version":"battery-v0.1"},{"rune":"M","hex":"#3366ff99","correct":-1,"choice":32,"rt":372.3199999658391,"accuracy":0,"outcome":"+1","keys":[1873.7700000638142],"total_keys":1,"block":2,"trial":172,"robot":2,"valence":"win","action":"no-go","sham":0,"trial_type":"pit-trial","trial_index":186,"time_elapsed":851326,"internal_node_id":"0.0-175.0","task_version":"battery-v0.1"},{"rune":"B","hex":"#f73b6a7A","correct":32,"choice":32,"rt":520.6199999665841,"accuracy":1,"outcome":"-1","keys":[2021.0700000170618],"total_keys":1,"block":2,"trial":173,"robot":3,"valence":"lose","action":"go","sham":0,"trial_type":"pit-trial","trial_index":187,"time_elapsed":854553,"internal_node_id":"0.0-176.0","task_version":"battery-v0.1"},{"rune":"Q","hex":"#3366ff99","correct":32,"choice":32,"rt":510.60500007588416,"accuracy":1,"outcome":"+10","keys":[2012.4150000046939],"total_keys":1,"block":2,"trial":174,"robot":1,"valence":"win","action":"go","sham":0,"trial_type":"pit-trial","trial_index":188,"time_elapsed":857769,"internal_node_id":"0.0-177.0","task_version":"battery-v0.1"},{"rune":"D","hex":"#f73b6a7A","correct":-1,"choice":-1,"rt":-1,"accuracy":1,"outcome":"-10","keys":[],"total_keys":0,"block":2,"trial":175,"robot":4,"valence":"lose","action":"no-go","sham":1,"trial_type":"pit-trial","trial_index":189,"time_elapsed":861773,"internal_node_id":"0.0-178.0","task_version":"battery-v0.1"},{"rune":"M","hex":"#3366ff99","correct":-1,"choice":-1,"rt":-1,"accuracy":1,"outcome":"+1","keys":[],"total_keys":0,"block":2,"trial":176,"robot":2,"valence":"win","action":"no-go","sham":1,"trial_type":"pit-trial","trial_index":190,"time_elapsed":865778,"internal_node_id":"0.0-179.0","task_version":"battery-v0.1"},{"rune":"M","hex":"#3366ff99","correct":-1,"choice":32,"rt":514.4050000235438,"accuracy":0,"outcome":"+1","keys":[2015.4900000197813],"total_keys":1,"block":2,"trial":177,"robot":2,"valence":"win","action":"no-go","sham":0,"trial_type":"pit-trial","trial_index":191,"time_elapsed":868997,"internal_node_id":"0.0-180.0","task_version":"battery-v0.1"},{"rune":"Q","hex":"#3366ff99","correct":32,"choice":32,"rt":486.61500005982816,"accuracy":1,"outcome":"+10","keys":[1988.1300000706688],"total_keys":1,"block":2,"trial":178,"robot":1,"valence":"win","action":"go","sham":0,"trial_type":"pit-trial","trial_index":192,"time_elapsed":872189,"internal_node_id":"0.0-181.0","task_version":"battery-v0.1"},{"rune":"B","hex":"#f73b6a7A","correct":32,"choice":32,"rt":550.7150000194088,"accuracy":1,"outcome":"-1","keys":[2051.119999960065],"total_keys":1,"block":2,"trial":179,"robot":3,"valence":"lose","action":"go","sham":0,"trial_type":"pit-trial","trial_index":193,"time_elapsed":875443,"internal_node_id":"0.0-182.0","task_version":"battery-v0.1"},{"rune":"D","hex":"#f73b6a7A","correct":-1,"choice":32,"rt":354.3650000356138,"accuracy":0,"outcome":"-10","keys":[1855.5349999805912],"total_keys":1,"block":2,"trial":180,"robot":4,"valence":"lose","action":"no-go","sham":0,"trial_type":"pit-trial","trial_index":194,"time_elapsed":878506,"internal_node_id":"0.0-183.0","task_version":"battery-v0.1"},{"rune":"Q","hex":"#3366ff99","correct":32,"choice":32,"rt":432.4400000041351,"accuracy":1,"outcome":"+10","keys":[1932.744999998249],"total_keys":1,"block":2,"trial":181,"robot":1,"valence":"win","action":"go","sham":0,"trial_type":"pit-trial","trial_index":195,"time_elapsed":881642,"internal_node_id":"0.0-184.0","task_version":"battery-v0.1"},{"rune":"B","hex":"#f73b6a7A","correct":32,"choice":32,"rt":1243.2549999793991,"accuracy":1,"outcome":"-1","keys":[2744.0499999793246],"total_keys":1,"block":2,"trial":182,"robot":3,"valence":"lose","action":"go","sham":0,"trial_type":"pit-trial","trial_index":196,"time_elapsed":885590,"internal_node_id":"0.0-185.0","task_version":"battery-v0.1"},{"rune":"D","hex":"#f73b6a7A","correct":-1,"choice":-1,"rt":-1,"accuracy":1,"outcome":"-1","keys":[],"total_keys":0,"block":2,"trial":183,"robot":4,"valence":"lose","action":"no-go","sham":0,"trial_type":"pit-trial","trial_index":197,"time_elapsed":889595,"internal_node_id":"0.0-186.0","task_version":"battery-v0.1"},{"rune":"M","hex":"#3366ff99","correct":-1,"choice":-1,"rt":-1,"accuracy":1,"outcome":"+1","keys":[],"total_keys":0,"block":2,"trial":184,"robot":2,"valence":"win","action":"no-go","sham":1,"trial_type":"pit-trial","trial_index":198,"time_elapsed":893602,"internal_node_id":"0.0-187.0","task_version":"battery-v0.1"},{"rune":"B","hex":"#f73b6a7A","correct":32,"choice":32,"rt":614.7949999431148,"accuracy":1,"outcome":"-1","keys":[2115.8449999056756],"total_keys":1,"block":2,"trial":185,"robot":3,"valence":"lose","action":"go","sham":0,"trial_type":"pit-trial","trial_index":199,"time_elapsed":896920,"internal_node_id":"0.0-188.0","task_version":"battery-v0.1"},{"rune":"Q","hex":"#3366ff99","correct":32,"choice":32,"rt":388.32500006537884,"accuracy":1,"outcome":"+10","keys":[1889.130000025034],"total_keys":1,"block":2,"trial":186,"robot":1,"valence":"win","action":"go","sham":0,"trial_type":"pit-trial","trial_index":200,"time_elapsed":900013,"internal_node_id":"0.0-189.0","task_version":"battery-v0.1"},{"rune":"M","hex":"#3366ff99","correct":-1,"choice":32,"rt":289.4999999552965,"accuracy":0,"outcome":"+10","keys":[1790.7049999339506],"total_keys":1,"block":2,"trial":187,"robot":2,"valence":"win","action":"no-go","sham":1,"trial_type":"pit-trial","trial_index":201,"time_elapsed":903007,"internal_node_id":"0.0-190.0","task_version":"battery-v0.1"},{"rune":"D","hex":"#f73b6a7A","correct":-1,"choice":32,"rt":865.775000071153,"accuracy":0,"outcome":"-1","keys":[2366.2599999224767],"total_keys":1,"block":2,"trial":188,"robot":4,"valence":"lose","action":"no-go","sham":1,"trial_type":"pit-trial","trial_index":202,"time_elapsed":906578,"internal_node_id":"0.0-191.0","task_version":"battery-v0.1"},{"rune":"D","hex":"#f73b6a7A","correct":-1,"choice":32,"rt":1096.9099999638274,"accuracy":0,"outcome":"-10","keys":[2597.029999946244],"total_keys":1,"block":2,"trial":189,"robot":4,"valence":"lose","action":"no-go","sham":0,"trial_type":"pit-trial","trial_index":203,"time_elapsed":910379,"internal_node_id":"0.0-192.0","task_version":"battery-v0.1"},{"rune":"M","hex":"#3366ff99","correct":-1,"choice":32,"rt":435.68500003311783,"accuracy":0,"outcome":"+1","keys":[1936.1900000367314],"total_keys":1,"block":2,"trial":190,"robot":2,"valence":"win","action":"no-go","sham":0,"trial_type":"pit-trial","trial_index":204,"time_elapsed":913519,"internal_node_id":"0.0-193.0","task_version":"battery-v0.1"},{"rune":"B","hex":"#f73b6a7A","correct":32,"choice":32,"rt":615.1899999240413,"accuracy":1,"outcome":"-10","keys":[2115.8849999774247],"total_keys":1,"block":2,"trial":191,"robot":3,"valence":"lose","action":"go","sham":1,"trial_type":"pit-trial","trial_index":205,"time_elapsed":916839,"internal_node_id":"0.0-194.0","task_version":"battery-v0.1"},{"rune":"Q","hex":"#3366ff99","correct":32,"choice":32,"rt":406.6449999809265,"accuracy":1,"outcome":"+10","keys":[1907.7200000174344],"total_keys":1,"block":2,"trial":192,"robot":1,"valence":"win","action":"go","sham":0,"trial_type":"pit-trial","trial_index":206,"time_elapsed":919951,"internal_node_id":"0.0-195.0","task_version":"battery-v0.1"},{"rune":"Y","hex":"#3366ff99","correct":32,"choice":32,"rt":518.015000037849,"accuracy":1,"outcome":"+10","keys":[2019.41499998793],"total_keys":1,"block":2,"trial":193,"robot":1,"valence":"win","action":"go","sham":0,"trial_type":"pit-trial","trial_index":207,"time_elapsed":923174,"internal_node_id":"0.0-196.0","task_version":"battery-v0.1"},{"rune":"H","hex":"#f73b6a7A","correct":32,"choice":-1,"rt":-1,"accuracy":0,"outcome":"-10","keys":[],"total_keys":0,"block":2,"trial":194,"robot":3,"valence":"lose","action":"go","sham":0,"trial_type":"pit-trial","trial_index":208,"time_elapsed":927178,"internal_node_id":"0.0-197.0","task_version":"battery-v0.1"},{"rune":"M","hex":"#3366ff99","correct":-1,"choice":32,"rt":396.88500005286187,"accuracy":0,"outcome":"+1","keys":[1897.3100000293925],"total_keys":1,"block":2,"trial":195,"robot":2,"valence":"win","action":"no-go","sham":0,"trial_type":"pit-trial","trial_index":209,"time_elapsed":930278,"internal_node_id":"0.0-198.0","task_version":"battery-v0.1"},{"rune":"D","hex":"#f73b6a7A","correct":-1,"choice":-1,"rt":-1,"accuracy":1,"outcome":"-1","keys":[],"total_keys":0,"block":2,"trial":196,"robot":4,"valence":"lose","action":"no-go","sham":0,"trial_type":"pit-trial","trial_index":210,"time_elapsed":934282,"internal_node_id":"0.0-199.0","task_version":"battery-v0.1"},{"rune":"M","hex":"#3366ff99","correct":-1,"choice":32,"rt":649.9100000364706,"accuracy":0,"outcome":"+1","keys":[2151.354999979958],"total_keys":1,"block":2,"trial":197,"robot":2,"valence":"win","action":"no-go","sham":0,"trial_type":"pit-trial","trial_index":211,"time_elapsed":937638,"internal_node_id":"0.0-200.0","task_version":"battery-v0.1"},{"rune":"H","hex":"#f73b6a7A","correct":32,"choice":-1,"rt":-1,"accuracy":0,"outcome":"-1","keys":[],"total_keys":0,"block":2,"trial":198,"robot":3,"valence":"lose","action":"go","sham":1,"trial_type":"pit-trial","trial_index":212,"time_elapsed":941641,"internal_node_id":"0.0-201.0","task_version":"battery-v0.1"},{"rune":"D","hex":"#f73b6a7A","correct":-1,"choice":-1,"rt":-1,"accuracy":1,"outcome":"-1","keys":[],"total_keys":0,"block":2,"trial":199,"robot":4,"valence":"lose","action":"no-go","sham":0,"trial_type":"pit-trial","trial_index":213,"time_elapsed":945656,"internal_node_id":"0.0-202.0","task_version":"battery-v0.1"},{"rune":"Y","hex":"#3366ff99","correct":32,"choice":32,"rt":556.8999999668449,"accuracy":1,"outcome":"+10","keys":[2058.364999946207],"total_keys":1,"block":2,"trial":200,"robot":1,"valence":"win","action":"go","sham":0,"trial_type":"pit-trial","trial_index":214,"time_elapsed":948919,"internal_node_id":"0.0-203.0","task_version":"battery-v0.1"},{"rune":"H","hex":"#f73b6a7A","correct":32,"choice":-1,"rt":-1,"accuracy":0,"outcome":"-10","keys":[],"total_keys":0,"block":2,"trial":201,"robot":3,"valence":"lose","action":"go","sham":0,"trial_type":"pit-trial","trial_index":215,"time_elapsed":952922,"internal_node_id":"0.0-204.0","task_version":"battery-v0.1"},{"rune":"Y","hex":"#3366ff99","correct":32,"choice":32,"rt":719.8300000745803,"accuracy":1,"outcome":"+10","keys":[2220.839999965392],"total_keys":1,"block":2,"trial":202,"robot":1,"valence":"win","action":"go","sham":0,"trial_type":"pit-trial","trial_index":216,"time_elapsed":956345,"internal_node_id":"0.0-205.0","task_version":"battery-v0.1"},{"rune":"M","hex":"#3366ff99","correct":-1,"choice":-1,"rt":-1,"accuracy":1,"outcome":"+10","keys":[],"total_keys":0,"block":2,"trial":203,"robot":2,"valence":"win","action":"no-go","sham":0,"trial_type":"pit-trial","trial_index":217,"time_elapsed":960348,"internal_node_id":"0.0-206.0","task_version":"battery-v0.1"},{"rune":"D","hex":"#f73b6a7A","correct":-1,"choice":-1,"rt":-1,"accuracy":1,"outcome":"-1","keys":[],"total_keys":0,"block":2,"trial":204,"robot":4,"valence":"lose","action":"no-go","sham":0,"trial_type":"pit-trial","trial_index":218,"time_elapsed":964352,"internal_node_id":"0.0-207.0","task_version":"battery-v0.1"},{"rune":"M","hex":"#3366ff99","correct":-1,"choice":-1,"rt":-1,"accuracy":1,"outcome":"+10","keys":[],"total_keys":0,"block":2,"trial":205,"robot":2,"valence":"win","action":"no-go","sham":0,"trial_type":"pit-trial","trial_index":219,"time_elapsed":968359,"internal_node_id":"0.0-208.0","task_version":"battery-v0.1"},{"rune":"D","hex":"#f73b6a7A","correct":-1,"choice":-1,"rt":-1,"accuracy":1,"outcome":"-1","keys":[],"total_keys":0,"block":2,"trial":206,"robot":4,"valence":"lose","action":"no-go","sham":0,"trial_type":"pit-trial","trial_index":220,"time_elapsed":972363,"internal_node_id":"0.0-209.0","task_version":"battery-v0.1"},{"rune":"H","hex":"#f73b6a7A","correct":32,"choice":32,"rt":805.46000006143,"accuracy":1,"outcome":"-10","keys":[2305.835000006482],"total_keys":1,"block":2,"trial":207,"robot":3,"valence":"lose","action":"go","sham":1,"trial_type":"pit-trial","trial_index":221,"time_elapsed":975873,"internal_node_id":"0.0-210.0","task_version":"battery-v0.1"},{"rune":"Y","hex":"#3366ff99","correct":32,"choice":32,"rt":426.9300000742078,"accuracy":1,"outcome":"+10","keys":[1928.7400000030175],"total_keys":1,"block":2,"trial":208,"robot":1,"valence":"win","action":"go","sham":0,"trial_type":"pit-trial","trial_index":222,"time_elapsed":979005,"internal_node_id":"0.0-211.0","task_version":"battery-v0.1"},{"rune":"Y","hex":"#3366ff99","correct":32,"choice":32,"rt":431.92000000271946,"accuracy":1,"outcome":"+10","keys":[1932.0200000656769],"total_keys":1,"block":2,"trial":209,"robot":1,"valence":"win","action":"go","sham":0,"trial_type":"pit-trial","trial_index":223,"time_elapsed":982140,"internal_node_id":"0.0-212.0","task_version":"battery-v0.1"},{"rune":"W","hex":"#f73b6a7A","correct":32,"choice":-1,"rt":-1,"accuracy":0,"outcome":"-1","keys":[],"total_keys":0,"block":2,"trial":210,"robot":3,"valence":"lose","action":"go","sham":1,"trial_type":"pit-trial","trial_index":224,"time_elapsed":986144,"internal_node_id":"0.0-213.0","task_version":"battery-v0.1"},{"rune":"H","hex":"#f73b6a7A","correct":32,"choice":-1,"rt":-1,"accuracy":0,"outcome":"-1","keys":[2821.750000002794],"total_keys":1,"block":2,"trial":211,"robot":3,"valence":"lose","action":"go","sham":1,"trial_type":"pit-trial","trial_index":225,"time_elapsed":990163,"internal_node_id":"0.0-214.0","task_version":"battery-v0.1"},{"rune":"R","hex":"#3366ff99","correct":-1,"choice":32,"rt":507.2699999436736,"accuracy":0,"outcome":"+10","keys":[2007.7399999136105],"total_keys":1,"block":2,"trial":212,"robot":2,"valence":"win","action":"no-go","sham":1,"trial_type":"pit-trial","trial_index":226,"time_elapsed":993375,"internal_node_id":"0.0-215.0","task_version":"battery-v0.1"},{"rune":"H","hex":"#f73b6a7A","correct":32,"choice":32,"rt":851.9699999596924,"accuracy":1,"outcome":"-1","keys":[2352.8550000628456],"total_keys":1,"block":2,"trial":213,"robot":3,"valence":"lose","action":"go","sham":0,"trial_type":"pit-trial","trial_index":227,"time_elapsed":996930,"internal_node_id":"0.0-216.0","task_version":"battery-v0.1"},{"rune":"W","hex":"#f73b6a7A","correct":32,"choice":-1,"rt":-1,"accuracy":0,"outcome":"-10","keys":[],"total_keys":0,"block":2,"trial":214,"robot":3,"valence":"lose","action":"go","sham":0,"trial_type":"pit-trial","trial_index":228,"time_elapsed":1000934,"internal_node_id":"0.0-217.0","task_version":"battery-v0.1"},{"rune":"Y","hex":"#3366ff99","correct":32,"choice":32,"rt":450.12499997392297,"accuracy":1,"outcome":"+10","keys":[1950.7500000763685],"total_keys":1,"block":2,"trial":215,"robot":1,"valence":"win","action":"go","sham":0,"trial_type":"pit-trial","trial_index":229,"time_elapsed":1004087,"internal_node_id":"0.0-218.0","task_version":"battery-v0.1"},{"rune":"R","hex":"#3366ff99","correct":-1,"choice":32,"rt":447.6649999851361,"accuracy":0,"outcome":"+1","keys":[1947.7599998936057],"total_keys":1,"block":2,"trial":216,"robot":2,"valence":"win","action":"no-go","sham":0,"trial_type":"pit-trial","trial_index":230,"time_elapsed":1007239,"internal_node_id":"0.0-219.0","task_version":"battery-v0.1"},{"rune":"Y","hex":"#3366ff99","correct":32,"choice":32,"rt":705.614999984391,"accuracy":1,"outcome":"+10","keys":[2205.850000027567],"total_keys":1,"block":2,"trial":217,"robot":1,"valence":"win","action":"go","sham":0,"trial_type":"pit-trial","trial_index":231,"time_elapsed":1010661,"internal_node_id":"0.0-220.0","task_version":"battery-v0.1"},{"rune":"W","hex":"#f73b6a7A","correct":32,"choice":32,"rt":1266.8500000145286,"accuracy":1,"outcome":"-1","keys":[2766.9899999164045],"total_keys":1,"block":2,"trial":218,"robot":3,"valence":"lose","action":"go","sham":0,"trial_type":"pit-trial","trial_index":232,"time_elapsed":1014630,"internal_node_id":"0.0-221.0","task_version":"battery-v0.1"},{"rune":"R","hex":"#3366ff99","correct":-1,"choice":32,"rt":989.2300000647083,"accuracy":0,"outcome":"+1","keys":[2489.25500002224],"total_keys":1,"block":2,"trial":219,"robot":2,"valence":"win","action":"no-go","sham":0,"trial_type":"pit-trial","trial_index":233,"time_elapsed":1018322,"internal_node_id":"0.0-222.0","task_version":"battery-v0.1"},{"rune":"H","hex":"#f73b6a7A","correct":32,"choice":32,"rt":686.8549999780953,"accuracy":1,"outcome":"-10","keys":[2187.485000002198],"total_keys":1,"block":2,"trial":220,"robot":3,"valence":"lose","action":"go","sham":1,"trial_type":"pit-trial","trial_index":234,"time_elapsed":1021712,"internal_node_id":"0.0-223.0","task_version":"battery-v0.1"},{"rune":"R","hex":"#3366ff99","correct":-1,"choice":32,"rt":512.6800000434741,"accuracy":0,"outcome":"+1","keys":[2013.3650000207126],"total_keys":1,"block":2,"trial":221,"robot":2,"valence":"win","action":"no-go","sham":0,"trial_type":"pit-trial","trial_index":235,"time_elapsed":1024931,"internal_node_id":"0.0-224.0","task_version":"battery-v0.1"},{"rune":"W","hex":"#f73b6a7A","correct":32,"choice":32,"rt":1246.2049999739975,"accuracy":1,"outcome":"-1","keys":[2746.800000080839],"total_keys":1,"block":2,"trial":222,"robot":3,"valence":"lose","action":"go","sham":0,"trial_type":"pit-trial","trial_index":236,"time_elapsed":1028882,"internal_node_id":"0.0-225.0","task_version":"battery-v0.1"},{"rune":"H","hex":"#f73b6a7A","correct":32,"choice":32,"rt":740.5150000704452,"accuracy":1,"outcome":"-1","keys":[2241.5349999209866],"total_keys":1,"block":2,"trial":223,"robot":3,"valence":"lose","action":"go","sham":0,"trial_type":"pit-trial","trial_index":237,"time_elapsed":1032326,"internal_node_id":"0.0-226.0","task_version":"battery-v0.1"},{"rune":"Y","hex":"#3366ff99","correct":32,"choice":32,"rt":364.8599999723956,"accuracy":1,"outcome":"+1","keys":[1864.9699999950826],"total_keys":1,"block":2,"trial":224,"robot":1,"valence":"win","action":"go","sham":1,"trial_type":"pit-trial","trial_index":238,"time_elapsed":1035394,"internal_node_id":"0.0-227.0","task_version":"battery-v0.1"},{"rune":"H","hex":"#f73b6a7A","correct":32,"choice":32,"rt":907.024999964051,"accuracy":1,"outcome":"-1","keys":[2409.0749999741092],"total_keys":1,"block":2,"trial":225,"robot":3,"valence":"lose","action":"go","sham":0,"trial_type":"pit-trial","trial_index":239,"time_elapsed":1039006,"internal_node_id":"0.0-228.0","task_version":"battery-v0.1"},{"rune":"R","hex":"#3366ff99","correct":-1,"choice":-1,"rt":-1,"accuracy":1,"outcome":"+10","keys":[],"total_keys":0,"block":2,"trial":226,"robot":2,"valence":"win","action":"no-go","sham":0,"trial_type":"pit-trial","trial_index":240,"time_elapsed":1043011,"internal_node_id":"0.0-229.0","task_version":"battery-v0.1"},{"rune":"Y","hex":"#3366ff99","correct":32,"choice":32,"rt":539.5700000226498,"accuracy":1,"outcome":"+1","keys":[2040.8350001089275],"total_keys":1,"block":2,"trial":227,"robot":1,"valence":"win","action":"go","sham":1,"trial_type":"pit-trial","trial_index":241,"time_elapsed":1046255,"internal_node_id":"0.0-230.0","task_version":"battery-v0.1"},{"rune":"W","hex":"#f73b6a7A","correct":32,"choice":32,"rt":753.595000016503,"accuracy":1,"outcome":"-1","keys":[2253.6749999271706],"total_keys":1,"block":2,"trial":228,"robot":3,"valence":"lose","action":"go","sham":0,"trial_type":"pit-trial","trial_index":242,"time_elapsed":1049714,"internal_node_id":"0.0-231.0","task_version":"battery-v0.1"},{"rune":"Y","hex":"#3366ff99","correct":32,"choice":32,"rt":585.6100000673905,"accuracy":1,"outcome":"+10","keys":[2086.780000012368],"total_keys":1,"block":2,"trial":229,"robot":1,"valence":"win","action":"go","sham":0,"trial_type":"pit-trial","trial_index":243,"time_elapsed":1053004,"internal_node_id":"0.0-232.0","task_version":"battery-v0.1"},{"rune":"R","hex":"#3366ff99","correct":-1,"choice":-1,"rt":-1,"accuracy":1,"outcome":"+10","keys":[],"total_keys":0,"block":2,"trial":230,"robot":2,"valence":"win","action":"no-go","sham":0,"trial_type":"pit-trial","trial_index":244,"time_elapsed":1057010,"internal_node_id":"0.0-233.0","task_version":"battery-v0.1"},{"rune":"H","hex":"#f73b6a7A","correct":32,"choice":32,"rt":545.8000000799075,"accuracy":1,"outcome":"-1","keys":[2046.3599999202415],"total_keys":1,"block":2,"trial":231,"robot":3,"valence":"lose","action":"go","sham":0,"trial_type":"pit-trial","trial_index":245,"time_elapsed":1060261,"internal_node_id":"0.0-234.0","task_version":"battery-v0.1"},{"rune":"W","hex":"#f73b6a7A","correct":32,"choice":32,"rt":581.5200000070035,"accuracy":1,"outcome":"-10","keys":[2082.0550000062212],"total_keys":1,"block":2,"trial":232,"robot":3,"valence":"lose","action":"go","sham":1,"trial_type":"pit-trial","trial_index":246,"time_elapsed":1063546,"internal_node_id":"0.0-235.0","task_version":"battery-v0.1"},{"rune":"R","hex":"#3366ff99","correct":-1,"choice":32,"rt":1080.6349999038503,"accuracy":0,"outcome":"+10","keys":[2581.664999946952],"total_keys":1,"block":2,"trial":233,"robot":2,"valence":"win","action":"no-go","sham":1,"trial_type":"pit-trial","trial_index":247,"time_elapsed":1067330,"internal_node_id":"0.0-236.0","task_version":"battery-v0.1"},{"rune":"H","hex":"#f73b6a7A","correct":32,"choice":32,"rt":806.8349999375641,"accuracy":1,"outcome":"-1","keys":[2307.325000059791],"total_keys":1,"block":2,"trial":234,"robot":3,"valence":"lose","action":"go","sham":0,"trial_type":"pit-trial","trial_index":248,"time_elapsed":1070840,"internal_node_id":"0.0-237.0","task_version":"battery-v0.1"},{"rune":"W","hex":"#f73b6a7A","correct":32,"choice":32,"rt":679.6600000234321,"accuracy":1,"outcome":"-10","keys":[2180.5500000482425],"total_keys":1,"block":2,"trial":235,"robot":3,"valence":"lose","action":"go","sham":1,"trial_type":"pit-trial","trial_index":249,"time_elapsed":1074223,"internal_node_id":"0.0-238.0","task_version":"battery-v0.1"},{"rune":"Y","hex":"#3366ff99","correct":32,"choice":32,"rt":435.62000000383705,"accuracy":1,"outcome":"+10","keys":[1935.8700000448152],"total_keys":1,"block":2,"trial":236,"robot":1,"valence":"win","action":"go","sham":0,"trial_type":"pit-trial","trial_index":250,"time_elapsed":1077365,"internal_node_id":"0.0-239.0","task_version":"battery-v0.1"},{"rune":"Y","hex":"#3366ff99","correct":32,"choice":32,"rt":528.6250000353903,"accuracy":1,"outcome":"+10","keys":[2029.1699999943376],"total_keys":1,"block":2,"trial":237,"robot":1,"valence":"win","action":"go","sham":0,"trial_type":"pit-trial","trial_index":251,"time_elapsed":1080598,"internal_node_id":"0.0-240.0","task_version":"battery-v0.1"},{"rune":"R","hex":"#3366ff99","correct":-1,"choice":-1,"rt":-1,"accuracy":1,"outcome":"+1","keys":[],"total_keys":0,"block":2,"trial":238,"robot":2,"valence":"win","action":"no-go","sham":1,"trial_type":"pit-trial","trial_index":252,"time_elapsed":1084602,"internal_node_id":"0.0-241.0","task_version":"battery-v0.1"},{"rune":"H","hex":"#f73b6a7A","correct":32,"choice":32,"rt":558.79499996081,"accuracy":1,"outcome":"-1","keys":[2058.934999979101],"total_keys":1,"block":2,"trial":239,"robot":3,"valence":"lose","action":"go","sham":0,"trial_type":"pit-trial","trial_index":253,"time_elapsed":1087865,"internal_node_id":"0.0-242.0","task_version":"battery-v0.1"},{"rune":"W","hex":"#f73b6a7A","correct":32,"choice":32,"rt":516.9699999969453,"accuracy":1,"outcome":"-1","keys":[2018.0699999909848],"total_keys":1,"block":2,"trial":240,"robot":3,"valence":"lose","action":"go","sham":0,"trial_type":"pit-trial","trial_index":254,"time_elapsed":1091087,"internal_node_id":"0.0-243.0","task_version":"battery-v0.1"},{"view_history":"[{\"page_index\":0,\"viewing_time\":1836.1900000600144}]","rt":1836.6600000299513,"trial_type":"pit-instructions","trial_index":255,"time_elapsed":1092925,"internal_node_id":"0.0-244.0","task_version":"battery-v0.1"},{"rt":9381.030000047758,"responses":{"age":"30","gender-categorical":"Female","gender-free-response":"","ethnicity":"Not Hispanic or Latino","race":["Black or African American"],"language":"Yes","fluency":"Very well"},"survey":"demographics","trial_type":"survey-demo","trial_index":256,"time_elapsed":1102310,"internal_node_id":"0.0-245.0","task_version":"battery-v0.1"},{"rt":43276.995000080206,"responses":{"difficulty":"4","fun":"5","clarity":"5","strategy":"repeating out loud the letter/color combo that i thought most likely needed repair.","feedback":"none"},"survey":"debrief","trial_type":"survey-debrief","trial_index":257,"time_elapsed":1145590,"internal_node_id":"0.0-246.0","task_version":"battery-v0.1","interactions":"[]"}]