[{"view_history":"[{\"page_index\":0,\"viewing_time\":2881.030000047758},{\"page_index\":1,\"viewing_time\":3451.6699999803677},{\"page_index\":2,\"viewing_time\":1719.9999999720603},{\"page_index\":3,\"viewing_time\":5873.885000008158},{\"page_index\":4,\"viewing_time\":3680.005000089295},{\"page_index\":5,\"viewing_time\":2946.004999917932}]","rt":20553.215000079945,"trial_type":"pit-instructions","trial_index":0,"time_elapsed":20583,"internal_node_id":"0.0-0.0-0.0","task_version":"battery-v0.1"},{"rune":"","hex":"#FFFFF080","correct":32,"choice":32,"rt":482.68000001553446,"accuracy":1,"outcome":"+10","keys":[1983.9449999853969],"total_keys":1,"block":0,"trial_type":"pit-trial","trial_index":1,"time_elapsed":23774,"internal_node_id":"0.0-0.0-1.0-0.0","task_version":"battery-v0.1"},{"rune":"","hex":"#FFFFF080","correct":32,"choice":32,"rt":467.960000038147,"accuracy":1,"outcome":"+10","keys":[1968.0100000696257],"total_keys":1,"block":0,"trial_type":"pit-trial","trial_index":2,"time_elapsed":26950,"internal_node_id":"0.0-0.0-1.0-0.1","task_version":"battery-v0.1"},{"rune":"","hex":"#FFFFF080","correct":32,"choice":32,"rt":444.32999996934086,"accuracy":1,"outcome":"+10","keys":[1944.7350000264123],"total_keys":1,"block":0,"trial_type":"pit-trial","trial_index":3,"time_elapsed":30102,"internal_node_id":"0.0-0.0-1.0-0.2","task_version":"battery-v0.1"},{"rune":"","hex":"#FFFFF080","correct":32,"choice":32,"rt":357.47000004630536,"accuracy":1,"outcome":"+10","keys":[1857.5600000331178],"total_keys":1,"block":0,"trial_type":"pit-trial","trial_index":4,"time_elapsed":33166,"internal_node_id":"0.0-0.0-1.0-0.3","task_version":"battery-v0.1"},{"view_history":"[{\"page_index\":0,\"viewing_time\":3991.4300000527874}]","rt":3991.7900000000373,"trial_type":"pit-instructions","trial_index":5,"time_elapsed":37163,"internal_node_id":"0.0-0.0-2.0","task_version":"battery-v0.1"},{"rune":"","hex":"#FFFFF080","correct":-1,"choice":-1,"rt":-1,"accuracy":1,"outcome":"+10","keys":[],"total_keys":0,"block":0,"trial_type":"pit-trial","trial_index":6,"time_elapsed":41172,"internal_node_id":"0.0-0.0-3.0-0.0","task_version":"battery-v0.1"},{"rune":"","hex":"#FFFFF080","correct":-1,"choice":-1,"rt":-1,"accuracy":1,"outcome":"+10","keys":[],"total_keys":0,"block":0,"trial_type":"pit-trial","trial_index":7,"time_elapsed":45179,"internal_node_id":"0.0-0.0-3.0-0.1","task_version":"battery-v0.1"},{"rune":"","hex":"#FFFFF080","correct":-1,"choice":-1,"rt":-1,"accuracy":1,"outcome":"+10","keys":[],"total_keys":0,"block":0,"trial_type":"pit-trial","trial_index":8,"time_elapsed":49185,"internal_node_id":"0.0-0.0-3.0-0.2","task_version":"battery-v0.1"},{"rune":"","hex":"#FFFFF080","correct":-1,"choice":-1,"rt":-1,"accuracy":1,"outcome":"+10","keys":[],"total_keys":0,"block":0,"trial_type":"pit-trial","trial_index":9,"time_elapsed":53192,"internal_node_id":"0.0-0.0-3.0-0.3","task_version":"battery-v0.1"},{"responses":["Press SPACE","Do nothing"],"num_errors":0,"rt":10155.004999949597,"trial_type":"pit-comprehension","trial_index":10,"time_elapsed":63353,"internal_node_id":"0.0-0.0-4.0","task_version":"battery-v0.1"},{"view_history":"[{\"page_index\":0,\"viewing_time\":4440.670000039972},{\"page_index\":1,\"viewing_time\":4592.089999932796},{\"page_index\":2,\"viewing_time\":4086.119999992661},{\"page_index\":3,\"viewing_time\":3487.81500000041},{\"page_index\":4,\"viewing_time\":5586.050000041723},{\"page_index\":5,\"viewing_time\":15247.854999965057},{\"page_index\":6,\"viewing_time\":4732.250000000931},{\"page_index\":7,\"viewing_time\":5533.795000053942},{\"page_index\":8,\"viewing_time\":1527.7699999278411},{\"page_index\":9,\"viewing_time\":1544.0200000302866},{\"page_index\":10,\"viewing_time\":1922.290000016801}]","rt":52701.12999994308,"trial_type":"pit-instructions","trial_index":11,"time_elapsed":116063,"internal_node_id":"0.0-1.0-0.0","task_version":"battery-v0.1"},{"responses":["+10","-1","True","True"],"num_errors":0,"rt":20500.339999911375,"trial_type":"pit-comprehension","trial_index":12,"time_elapsed":136571,"internal_node_id":"0.0-1.0-1.0","task_version":"battery-v0.1"},{"view_history":"[{\"page_index\":0,\"viewing_time\":5161.240000044927},{\"page_index\":1,\"viewing_time\":2631.9799999473616}]","rt":7793.539999984205,"trial_type":"pit-instructions","trial_index":13,"time_elapsed":144373,"internal_node_id":"0.0-2.0","task_version":"battery-v0.1"},{"rune":"Z","hex":"#3366ff99","correct":-1,"choice":32,"rt":547.8800000855699,"accuracy":0,"outcome":"+1","keys":[2048.494999995455],"total_keys":1,"block":1,"trial":1,"robot":2,"valence":"win","action":"no-go","sham":0,"trial_type":"pit-trial","trial_index":14,"time_elapsed":147630,"internal_node_id":"0.0-3.0","task_version":"battery-v0.1"},{"rune":"C","hex":"#f73b6a7A","correct":-1,"choice":-1,"rt":-1,"accuracy":1,"outcome":"-1","keys":[],"total_keys":0,"block":1,"trial":2,"robot":4,"valence":"lose","action":"no-go","sham":0,"trial_type":"pit-trial","trial_index":15,"time_elapsed":151635,"internal_node_id":"0.0-4.0","task_version":"battery-v0.1"},{"rune":"T","hex":"#3366ff99","correct":32,"choice":32,"rt":775.1900000730529,"accuracy":1,"outcome":"+10","keys":[2276.315000024624],"total_keys":1,"block":1,"trial":3,"robot":1,"valence":"win","action":"go","sham":0,"trial_type":"pit-trial","trial_index":16,"time_elapsed":155117,"internal_node_id":"0.0-5.0","task_version":"battery-v0.1"},{"rune":"R","hex":"#f73b6a7A","correct":-1,"choice":32,"rt":1142.4349999288097,"accuracy":0,"outcome":"-1","keys":[2642.5649999873713],"total_keys":1,"block":1,"trial":4,"robot":4,"valence":"lose","action":"no-go","sham":1,"trial_type":"pit-trial","trial_index":17,"time_elapsed":158966,"internal_node_id":"0.0-6.0","task_version":"battery-v0.1"},{"rune":"T","hex":"#3366ff99","correct":32,"choice":32,"rt":771.5300000272691,"accuracy":1,"outcome":"+10","keys":[2272.3050001077354],"total_keys":1,"block":1,"trial":5,"robot":1,"valence":"win","action":"go","sham":0,"trial_type":"pit-trial","trial_index":18,"time_elapsed":162446,"internal_node_id":"0.0-7.0","task_version":"battery-v0.1"},{"rune":"C","hex":"#f73b6a7A","correct":-1,"choice":-1,"rt":-1,"accuracy":1,"outcome":"-1","keys":[],"total_keys":0,"block":1,"trial":6,"robot":4,"valence":"lose","action":"no-go","sham":0,"trial_type":"pit-trial","trial_index":19,"time_elapsed":166453,"internal_node_id":"0.0-8.0","task_version":"battery-v0.1"},{"rune":"Z","hex":"#3366ff99","correct":-1,"choice":-1,"rt":-1,"accuracy":1,"outcome":"+10","keys":[],"total_keys":0,"block":1,"trial":7,"robot":2,"valence":"win","action":"no-go","sham":0,"trial_type":"pit-trial","trial_index":20,"time_elapsed":170459,"internal_node_id":"0.0-9.0","task_version":"battery-v0.1"},{"rune":"R","hex":"#f73b6a7A","correct":-1,"choice":32,"rt":751.7249999800697,"accuracy":0,"outcome":"-10","keys":[2252.7000000700355],"total_keys":1,"block":1,"trial":8,"robot":4,"valence":"lose","action":"no-go","sham":0,"trial_type":"pit-trial","trial_index":21,"time_elapsed":173917,"internal_node_id":"0.0-10.0","task_version":"battery-v0.1"},{"rune":"Z","hex":"#3366ff99","correct":-1,"choice":32,"rt":924.254999961704,"accuracy":0,"outcome":"+10","keys":[2425.290000042878],"total_keys":1,"block":1,"trial":9,"robot":2,"valence":"win","action":"no-go","sham":1,"trial_type":"pit-trial","trial_index":22,"time_elapsed":177549,"internal_node_id":"0.0-11.0","task_version":"battery-v0.1"},{"rune":"R","hex":"#f73b6a7A","correct":-1,"choice":-1,"rt":-1,"accuracy":1,"outcome":"-10","keys":[],"total_keys":0,"block":1,"trial":10,"robot":4,"valence":"lose","action":"no-go","sham":1,"trial_type":"pit-trial","trial_index":23,"time_elapsed":181557,"internal_node_id":"0.0-12.0","task_version":"battery-v0.1"},{"rune":"T","hex":"#3366ff99","correct":32,"choice":32,"rt":781.870000064373,"accuracy":1,"outcome":"+10","keys":[2282.714999979362],"total_keys":1,"block":1,"trial":11,"robot":1,"valence":"win","action":"go","sham":0,"trial_type":"pit-trial","trial_index":24,"time_elapsed":185046,"internal_node_id":"0.0-13.0","task_version":"battery-v0.1"},{"rune":"C","hex":"#f73b6a7A","correct":-1,"choice":32,"rt":1085.770000005141,"accuracy":0,"outcome":"-1","keys":[2585.920000099577],"total_keys":1,"block":1,"trial":12,"robot":4,"valence":"lose","action":"no-go","sham":1,"trial_type":"pit-trial","trial_index":25,"time_elapsed":188837,"internal_node_id":"0.0-14.0","task_version":"battery-v0.1"},{"rune":"C","hex":"#f73b6a7A","correct":-1,"choice":32,"rt":685.3000000119209,"accuracy":0,"outcome":"-10","keys":[2186.1400000052527],"total_keys":1,"block":1,"trial":13,"robot":4,"valence":"lose","action":"no-go","sham":0,"trial_type":"pit-trial","trial_index":26,"time_elapsed":192230,"internal_node_id":"0.0-15.0","task_version":"battery-v0.1"},{"rune":"T","hex":"#3366ff99","correct":32,"choice":32,"rt":740.9650000045076,"accuracy":1,"outcome":"+10","keys":[2241.314999992028],"total_keys":1,"block":1,"trial":14,"robot":1,"valence":"win","action":"go","sham":0,"trial_type":"pit-trial","trial_index":27,"time_elapsed":195678,"internal_node_id":"0.0-16.0","task_version":"battery-v0.1"},{"rune":"Z","hex":"#3366ff99","correct":-1,"choice":-1,"rt":-1,"accuracy":1,"outcome":"+10","keys":[],"total_keys":0,"block":1,"trial":15,"robot":2,"valence":"win","action":"no-go","sham":0,"trial_type":"pit-trial","trial_index":28,"time_elapsed":199686,"internal_node_id":"0.0-17.0","task_version":"battery-v0.1"},{"rune":"R","hex":"#f73b6a7A","correct":-1,"choice":-1,"rt":-1,"accuracy":1,"outcome":"-1","keys":[],"total_keys":0,"block":1,"trial":16,"robot":4,"valence":"lose","action":"no-go","sham":0,"trial_type":"pit-trial","trial_index":29,"time_elapsed":203692,"internal_node_id":"0.0-18.0","task_version":"battery-v0.1"},{"rune":"T","hex":"#3366ff99","correct":32,"choice":32,"rt":791.6600001044571,"accuracy":1,"outcome":"+10","keys":[2291.7949999682605],"total_keys":1,"block":1,"trial":17,"robot":1,"valence":"win","action":"go","sham":0,"trial_type":"pit-trial","trial_index":30,"time_elapsed":207189,"internal_node_id":"0.0-19.0","task_version":"battery-v0.1"},{"rune":"C","hex":"#f73b6a7A","correct":-1,"choice":32,"rt":979.2349999770522,"accuracy":0,"outcome":"-10","keys":[2480.1900000311434],"total_keys":1,"block":1,"trial":18,"robot":4,"valence":"lose","action":"no-go","sham":0,"trial_type":"pit-trial","trial_index":31,"time_elapsed":210877,"internal_node_id":"0.0-20.0","task_version":"battery-v0.1"},{"rune":"R","hex":"#f73b6a7A","correct":-1,"choice":-1,"rt":-1,"accuracy":1,"outcome":"-1","keys":[],"total_keys":0,"block":1,"trial":19,"robot":4,"valence":"lose","action":"no-go","sham":0,"trial_type":"pit-trial","trial_index":32,"time_elapsed":214883,"internal_node_id":"0.0-21.0","task_version":"battery-v0.1"},{"rune":"Z","hex":"#3366ff99","correct":-1,"choice":32,"rt":615.0149999884889,"accuracy":0,"outcome":"+1","keys":[2116.0749999107793],"total_keys":1,"block":1,"trial":20,"robot":2,"valence":"win","action":"no-go","sham":0,"trial_type":"pit-trial","trial_index":33,"time_elapsed":218205,"internal_node_id":"0.0-22.0","task_version":"battery-v0.1"},{"rune":"R","hex":"#f73b6a7A","correct":-1,"choice":-1,"rt":-1,"accuracy":1,"outcome":"-1","keys":[],"total_keys":0,"block":1,"trial":21,"robot":4,"valence":"lose","action":"no-go","sham":0,"trial_type":"pit-trial","trial_index":34,"time_elapsed":222211,"internal_node_id":"0.0-23.0","task_version":"battery-v0.1"},{"rune":"T","hex":"#3366ff99","correct":32,"choice":32,"rt":743.8399998936802,"accuracy":1,"outcome":"+1","keys":[2243.9949999097735],"total_keys":1,"block":1,"trial":22,"robot":1,"valence":"win","action":"go","sham":1,"trial_type":"pit-trial","trial_index":35,"time_elapsed":225661,"internal_node_id":"0.0-24.0","task_version":"battery-v0.1"},{"rune":"C","hex":"#f73b6a7A","correct":-1,"choice":32,"rt":812.0899999048561,"accuracy":0,"outcome":"-1","keys":[2312.815000070259],"total_keys":1,"block":1,"trial":23,"robot":4,"valence":"lose","action":"no-go","sham":1,"trial_type":"pit-trial","trial_index":36,"time_elapsed":229181,"internal_node_id":"0.0-25.0","task_version":"battery-v0.1"},{"rune":"Z","hex":"#3366ff99","correct":-1,"choice":32,"rt":877.4449999909848,"accuracy":0,"outcome":"+1","keys":[2377.6099999668077],"total_keys":1,"block":1,"trial":24,"robot":2,"valence":"win","action":"no-go","sham":0,"trial_type":"pit-trial","trial_index":37,"time_elapsed":232764,"internal_node_id":"0.0-26.0","task_version":"battery-v0.1"},{"rune":"R","hex":"#f73b6a7A","correct":-1,"choice":-1,"rt":-1,"accuracy":1,"outcome":"-1","keys":[],"total_keys":0,"block":1,"trial":25,"robot":4,"valence":"lose","action":"no-go","sham":0,"trial_type":"pit-trial","trial_index":38,"time_elapsed":236771,"internal_node_id":"0.0-27.0","task_version":"battery-v0.1"},{"rune":"Z","hex":"#3366ff99","correct":-1,"choice":32,"rt":1096.0699999704957,"accuracy":0,"outcome":"+10","keys":[2596.3250000495464],"total_keys":1,"block":1,"trial":26,"robot":2,"valence":"win","action":"no-go","sham":1,"trial_type":"pit-trial","trial_index":39,"time_elapsed":240573,"internal_node_id":"0.0-28.0","task_version":"battery-v0.1"},{"rune":"T","hex":"#3366ff99","correct":32,"choice":-1,"rt":-1,"accuracy":0,"outcome":"+1","keys":[],"total_keys":0,"block":1,"trial":27,"robot":1,"valence":"win","action":"go","sham":0,"trial_type":"pit-trial","trial_index":40,"time_elapsed":244579,"internal_node_id":"0.0-29.0","task_version":"battery-v0.1"},{"rune":"C","hex":"#f73b6a7A","correct":-1,"choice":-1,"rt":-1,"accuracy":1,"outcome":"-1","keys":[],"total_keys":0,"block":1,"trial":28,"robot":4,"valence":"lose","action":"no-go","sham":0,"trial_type":"pit-trial","trial_index":41,"time_elapsed":248586,"internal_node_id":"0.0-30.0","task_version":"battery-v0.1"},{"rune":"C","hex":"#f73b6a7A","correct":-1,"choice":-1,"rt":-1,"accuracy":1,"outcome":"-1","keys":[],"total_keys":0,"block":1,"trial":29,"robot":4,"valence":"lose","action":"no-go","sham":0,"trial_type":"pit-trial","trial_index":42,"time_elapsed":252592,"internal_node_id":"0.0-31.0","task_version":"battery-v0.1"},{"rune":"R","hex":"#f73b6a7A","correct":-1,"choice":32,"rt":1074.6049999725074,"accuracy":0,"outcome":"-10","keys":[2575.0049999915063],"total_keys":1,"block":1,"trial":30,"robot":4,"valence":"lose","action":"no-go","sham":0,"trial_type":"pit-trial","trial_index":43,"time_elapsed":256373,"internal_node_id":"0.0-32.0","task_version":"battery-v0.1"},{"rune":"Z","hex":"#3366ff99","correct":-1,"choice":32,"rt":660.0800000596792,"accuracy":0,"outcome":"+1","keys":[2160.299999988638],"total_keys":1,"block":1,"trial":31,"robot":2,"valence":"win","action":"no-go","sham":0,"trial_type":"pit-trial","trial_index":44,"time_elapsed":259740,"internal_node_id":"0.0-33.0","task_version":"battery-v0.1"},{"rune":"T","hex":"#3366ff99","correct":32,"choice":32,"rt":724.9900000169873,"accuracy":1,"outcome":"+10","keys":[2226.0000000242144],"total_keys":1,"block":1,"trial":32,"robot":1,"valence":"win","action":"go","sham":0,"trial_type":"pit-trial","trial_index":45,"time_elapsed":263172,"internal_node_id":"0.0-34.0","task_version":"battery-v0.1"},{"rune":"T","hex":"#3366ff99","correct":32,"choice":32,"rt":822.4200000986457,"accuracy":1,"outcome":"+10","keys":[2322.5199999287724],"total_keys":1,"block":1,"trial":33,"robot":1,"valence":"win","action":"go","sham":0,"trial_type":"pit-trial","trial_index":46,"time_elapsed":266702,"internal_node_id":"0.0-35.0","task_version":"battery-v0.1"},{"rune":"Q","hex":"#f73b6a7A","correct":32,"choice":-1,"rt":-1,"accuracy":0,"outcome":"-10","keys":[],"total_keys":0,"block":1,"trial":34,"robot":3,"valence":"lose","action":"go","sham":0,"trial_type":"pit-trial","trial_index":47,"time_elapsed":270708,"internal_node_id":"0.0-36.0","task_version":"battery-v0.1"},{"rune":"C","hex":"#f73b6a7A","correct":-1,"choice":32,"rt":1062.485000002198,"accuracy":0,"outcome":"-1","keys":[2562.9099999787286],"total_keys":1,"block":1,"trial":35,"robot":4,"valence":"lose","action":"no-go","sham":1,"trial_type":"pit-trial","trial_index":48,"time_elapsed":274477,"internal_node_id":"0.0-37.0","task_version":"battery-v0.1"},{"rune":"Z","hex":"#3366ff99","correct":-1,"choice":32,"rt":950.1799999270588,"accuracy":0,"outcome":"+1","keys":[2450.230000074953],"total_keys":1,"block":1,"trial":36,"robot":2,"valence":"win","action":"no-go","sham":0,"trial_type":"pit-trial","trial_index":49,"time_elapsed":278133,"internal_node_id":"0.0-38.0","task_version":"battery-v0.1"},{"rune":"Z","hex":"#3366ff99","correct":-1,"choice":32,"rt":1245.244999998249,"accuracy":0,"outcome":"+1","keys":[2745.490000001155],"total_keys":1,"block":1,"trial":37,"robot":2,"valence":"win","action":"no-go","sham":0,"trial_type":"pit-trial","trial_index":50,"time_elapsed":282085,"internal_node_id":"0.0-39.0","task_version":"battery-v0.1"},{"rune":"C","hex":"#f73b6a7A","correct":-1,"choice":-1,"rt":-1,"accuracy":1,"outcome":"-1","keys":[],"total_keys":0,"block":1,"trial":38,"robot":4,"valence":"lose","action":"no-go","sham":0,"trial_type":"pit-trial","trial_index":51,"time_elapsed":286091,"internal_node_id":"0.0-40.0","task_version":"battery-v0.1"},{"rune":"T","hex":"#3366ff99","correct":32,"choice":32,"rt":976.2450000271201,"accuracy":1,"outcome":"+10","keys":[2476.4450000366196],"total_keys":1,"block":1,"trial":39,"robot":1,"valence":"win","action":"go","sham":0,"trial_type":"pit-trial","trial_index":52,"time_elapsed":289773,"internal_node_id":"0.0-41.0","task_version":"battery-v0.1"},{"rune":"Q","hex":"#f73b6a7A","correct":32,"choice":32,"rt":686.199999996461,"accuracy":1,"outcome":"-1","keys":[2186.420000041835],"total_keys":1,"block":1,"trial":40,"robot":3,"valence":"lose","action":"go","sham":0,"trial_type":"pit-trial","trial_index":53,"time_elapsed":293164,"internal_node_id":"0.0-42.0","task_version":"battery-v0.1"},{"rune":"Q","hex":"#f73b6a7A","correct":32,"choice":32,"rt":814.2900000093505,"accuracy":1,"outcome":"-1","keys":[2314.6399999968708],"total_keys":1,"block":1,"trial":41,"robot":3,"valence":"lose","action":"go","sham":0,"trial_type":"pit-trial","trial_index":54,"time_elapsed":296685,"internal_node_id":"0.0-43.0","task_version":"battery-v0.1"},{"rune":"L","hex":"#3366ff99","correct":-1,"choice":-1,"rt":-1,"accuracy":1,"outcome":"+10","keys":[],"total_keys":0,"block":1,"trial":42,"robot":2,"valence":"win","action":"no-go","sham":0,"trial_type":"pit-trial","trial_index":55,"time_elapsed":300693,"internal_node_id":"0.0-44.0","task_version":"battery-v0.1"},{"rune":"C","hex":"#f73b6a7A","correct":-1,"choice":32,"rt":678.334999945946,"accuracy":0,"outcome":"-1","keys":[2178.36499994155],"total_keys":1,"block":1,"trial":43,"robot":4,"valence":"lose","action":"no-go","sham":1,"trial_type":"pit-trial","trial_index":56,"time_elapsed":304077,"internal_node_id":"0.0-45.0","task_version":"battery-v0.1"},{"rune":"N","hex":"#3366ff99","correct":32,"choice":-1,"rt":-1,"accuracy":0,"outcome":"+10","keys":[],"total_keys":0,"block":1,"trial":44,"robot":1,"valence":"win","action":"go","sham":1,"trial_type":"pit-trial","trial_index":57,"time_elapsed":308083,"internal_node_id":"0.0-46.0","task_version":"battery-v0.1"},{"rune":"L","hex":"#3366ff99","correct":-1,"choice":-1,"rt":-1,"accuracy":1,"outcome":"+1","keys":[],"total_keys":0,"block":1,"trial":45,"robot":2,"valence":"win","action":"no-go","sham":1,"trial_type":"pit-trial","trial_index":58,"time_elapsed":312089,"internal_node_id":"0.0-47.0","task_version":"battery-v0.1"},{"rune":"C","hex":"#f73b6a7A","correct":-1,"choice":32,"rt":704.7000000020489,"accuracy":0,"outcome":"-10","keys":[2205.669999937527],"total_keys":1,"block":1,"trial":46,"robot":4,"valence":"lose","action":"no-go","sham":0,"trial_type":"pit-trial","trial_index":59,"time_elapsed":315501,"internal_node_id":"0.0-48.0","task_version":"battery-v0.1"},{"rune":"N","hex":"#3366ff99","correct":32,"choice":32,"rt":788.5049999458715,"accuracy":1,"outcome":"+10","keys":[2289.5649999845773],"total_keys":1,"block":1,"trial":47,"robot":1,"valence":"win","action":"go","sham":0,"trial_type":"pit-trial","trial_index":60,"time_elapsed":318996,"internal_node_id":"0.0-49.0","task_version":"battery-v0.1"},{"rune":"Q","hex":"#f73b6a7A","correct":32,"choice":-1,"rt":-1,"accuracy":0,"outcome":"-10","keys":[],"total_keys":0,"block":1,"trial":48,"robot":3,"valence":"lose","action":"go","sham":0,"trial_type":"pit-trial","trial_index":61,"time_elapsed":323003,"internal_node_id":"0.0-50.0","task_version":"battery-v0.1"},{"rune":"L","hex":"#3366ff99","correct":-1,"choice":32,"rt":870.835000067018,"accuracy":0,"outcome":"+1","keys":[2371.7300000134856],"total_keys":1,"block":1,"trial":49,"robot":2,"valence":"win","action":"no-go","sham":0,"trial_type":"pit-trial","trial_index":62,"time_elapsed":326581,"internal_node_id":"0.0-51.0","task_version":"battery-v0.1"},{"rune":"M","hex":"#f73b6a7A","correct":-1,"choice":32,"rt":989.7249999921769,"accuracy":0,"outcome":"-10","keys":[2489.7799999453127],"total_keys":1,"block":1,"trial":50,"robot":4,"valence":"lose","action":"no-go","sham":0,"trial_type":"pit-trial","trial_index":63,"time_elapsed":330281,"internal_node_id":"0.0-52.0","task_version":"battery-v0.1"},{"rune":"N","hex":"#3366ff99","correct":32,"choice":32,"rt":1111.5549999522045,"accuracy":1,"outcome":"+1","keys":[2612.360000028275],"total_keys":1,"block":1,"trial":51,"robot":1,"valence":"win","action":"go","sham":1,"trial_type":"pit-trial","trial_index":64,"time_elapsed":334100,"internal_node_id":"0.0-53.0","task_version":"battery-v0.1"},{"rune":"Q","hex":"#f73b6a7A","correct":32,"choice":32,"rt":541.8899999931455,"accuracy":1,"outcome":"-1","keys":[2041.9649999821559],"total_keys":1,"block":1,"trial":52,"robot":3,"valence":"lose","action":"go","sham":0,"trial_type":"pit-trial","trial_index":65,"time_elapsed":337348,"internal_node_id":"0.0-54.0","task_version":"battery-v0.1"},{"rune":"M","hex":"#f73b6a7A","correct":-1,"choice":-1,"rt":-1,"accuracy":1,"outcome":"-1","keys":[],"total_keys":0,"block":1,"trial":53,"robot":4,"valence":"lose","action":"no-go","sham":0,"trial_type":"pit-trial","trial_index":66,"time_elapsed":341354,"internal_node_id":"0.0-55.0","task_version":"battery-v0.1"},{"rune":"L","hex":"#3366ff99","correct":-1,"choice":-1,"rt":-1,"accuracy":1,"outcome":"+10","keys":[],"total_keys":0,"block":1,"trial":54,"robot":2,"valence":"win","action":"no-go","sham":0,"trial_type":"pit-trial","trial_index":67,"time_elapsed":345361,"internal_node_id":"0.0-56.0","task_version":"battery-v0.1"},{"rune":"N","hex":"#3366ff99","correct":32,"choice":32,"rt":1057.1650000056252,"accuracy":1,"outcome":"+10","keys":[2557.505000033416],"total_keys":1,"block":1,"trial":55,"robot":1,"valence":"win","action":"go","sham":0,"trial_type":"pit-trial","trial_index":68,"time_elapsed":349124,"internal_node_id":"0.0-57.0","task_version":"battery-v0.1"},{"rune":"Q","hex":"#f73b6a7A","correct":32,"choice":32,"rt":780.2150000352412,"accuracy":1,"outcome":"-1","keys":[2281.0799999861047],"total_keys":1,"block":1,"trial":56,"robot":3,"valence":"lose","action":"go","sham":0,"trial_type":"pit-trial","trial_index":69,"time_elapsed":352612,"internal_node_id":"0.0-58.0","task_version":"battery-v0.1"},{"rune":"M","hex":"#f73b6a7A","correct":-1,"choice":-1,"rt":-1,"accuracy":1,"outcome":"-10","keys":[],"total_keys":0,"block":1,"trial":57,"robot":4,"valence":"lose","action":"no-go","sham":1,"trial_type":"pit-trial","trial_index":70,"time_elapsed":356619,"internal_node_id":"0.0-59.0","task_version":"battery-v0.1"},{"rune":"L","hex":"#3366ff99","correct":-1,"choice":32,"rt":1142.1550000086427,"accuracy":0,"outcome":"+1","keys":[2643.1000001030043],"total_keys":1,"block":1,"trial":58,"robot":2,"valence":"win","action":"no-go","sham":0,"trial_type":"pit-trial","trial_index":71,"time_elapsed":360468,"internal_node_id":"0.0-60.0","task_version":"battery-v0.1"},{"rune":"N","hex":"#3366ff99","correct":32,"choice":-1,"rt":-1,"accuracy":0,"outcome":"+10","keys":[],"total_keys":0,"block":1,"trial":59,"robot":1,"valence":"win","action":"go","sham":1,"trial_type":"pit-trial","trial_index":72,"time_elapsed":364475,"internal_node_id":"0.0-61.0","task_version":"battery-v0.1"},{"rune":"Q","hex":"#f73b6a7A","correct":32,"choice":32,"rt":702.5349999312311,"accuracy":1,"outcome":"-1","keys":[2203.4650000277907],"total_keys":1,"block":1,"trial":60,"robot":3,"valence":"lose","action":"go","sham":0,"trial_type":"pit-trial","trial_index":73,"time_elapsed":367884,"internal_node_id":"0.0-62.0","task_version":"battery-v0.1"},{"rune":"Q","hex":"#f73b6a7A","correct":32,"choice":32,"rt":755.8250000001863,"accuracy":1,"outcome":"-1","keys":[2256.8250000476837],"total_keys":1,"block":1,"trial":61,"robot":3,"valence":"lose","action":"go","sham":0,"trial_type":"pit-trial","trial_index":74,"time_elapsed":371348,"internal_node_id":"0.0-63.0","task_version":"battery-v0.1"},{"rune":"M","hex":"#f73b6a7A","correct":-1,"choice":-1,"rt":-1,"accuracy":1,"outcome":"-1","keys":[],"total_keys":0,"block":1,"trial":62,"robot":4,"valence":"lose","action":"no-go","sham":0,"trial_type":"pit-trial","trial_index":75,"time_elapsed":375354,"internal_node_id":"0.0-64.0","task_version":"battery-v0.1"},{"rune":"N","hex":"#3366ff99","correct":32,"choice":32,"rt":998.9599999971688,"accuracy":1,"outcome":"+10","keys":[2499.904999975115],"total_keys":1,"block":1,"trial":63,"robot":1,"valence":"win","action":"go","sham":0,"trial_type":"pit-trial","trial_index":76,"time_elapsed":379060,"internal_node_id":"0.0-65.0","task_version":"battery-v0.1"},{"rune":"L","hex":"#3366ff99","correct":-1,"choice":-1,"rt":-1,"accuracy":1,"outcome":"+10","keys":[],"total_keys":0,"block":1,"trial":64,"robot":2,"valence":"win","action":"no-go","sham":0,"trial_type":"pit-trial","trial_index":77,"time_elapsed":383066,"internal_node_id":"0.0-66.0","task_version":"battery-v0.1"},{"rune":"Q","hex":"#f73b6a7A","correct":32,"choice":32,"rt":686.8049999466166,"accuracy":1,"outcome":"-10","keys":[2187.885000021197],"total_keys":1,"block":1,"trial":65,"robot":3,"valence":"lose","action":"go","sham":1,"trial_type":"pit-trial","trial_index":78,"time_elapsed":386460,"internal_node_id":"0.0-67.0","task_version":"battery-v0.1"},{"rune":"M","hex":"#f73b6a7A","correct":-1,"choice":-1,"rt":-1,"accuracy":1,"outcome":"-1","keys":[],"total_keys":0,"block":1,"trial":66,"robot":4,"valence":"lose","action":"no-go","sham":0,"trial_type":"pit-trial","trial_index":79,"time_elapsed":390469,"internal_node_id":"0.0-68.0","task_version":"battery-v0.1"},{"rune":"L","hex":"#3366ff99","correct":-1,"choice":-1,"rt":-1,"accuracy":1,"outcome":"+10","keys":[],"total_keys":0,"block":1,"trial":67,"robot":2,"valence":"win","action":"no-go","sham":0,"trial_type":"pit-trial","trial_index":80,"time_elapsed":394475,"internal_node_id":"0.0-69.0","task_version":"battery-v0.1"},{"rune":"N","hex":"#3366ff99","correct":32,"choice":-1,"rt":-1,"accuracy":0,"outcome":"+1","keys":[],"total_keys":0,"block":1,"trial":68,"robot":1,"valence":"win","action":"go","sham":0,"trial_type":"pit-trial","trial_index":81,"time_elapsed":398481,"internal_node_id":"0.0-70.0","task_version":"battery-v0.1"},{"rune":"N","hex":"#3366ff99","correct":32,"choice":32,"rt":889.0200000023469,"accuracy":1,"outcome":"+10","keys":[2389.880000031553],"total_keys":1,"block":1,"trial":69,"robot":1,"valence":"win","action":"go","sham":0,"trial_type":"pit-trial","trial_index":82,"time_elapsed":402077,"internal_node_id":"0.0-71.0","task_version":"battery-v0.1"},{"rune":"Q","hex":"#f73b6a7A","correct":32,"choice":32,"rt":717.1200000448152,"accuracy":1,"outcome":"-1","keys":[2218.0950000183657],"total_keys":1,"block":1,"trial":70,"robot":3,"valence":"lose","action":"go","sham":0,"trial_type":"pit-trial","trial_index":83,"time_elapsed":405501,"internal_node_id":"0.0-72.0","task_version":"battery-v0.1"},{"rune":"M","hex":"#f73b6a7A","correct":-1,"choice":-1,"rt":-1,"accuracy":1,"outcome":"-1","keys":[],"total_keys":0,"block":1,"trial":71,"robot":4,"valence":"lose","action":"no-go","sham":0,"trial_type":"pit-trial","trial_index":84,"time_elapsed":409507,"internal_node_id":"0.0-73.0","task_version":"battery-v0.1"},{"rune":"L","hex":"#3366ff99","correct":-1,"choice":-1,"rt":-1,"accuracy":1,"outcome":"+1","keys":[],"total_keys":0,"block":1,"trial":72,"robot":2,"valence":"win","action":"no-go","sham":1,"trial_type":"pit-trial","trial_index":85,"time_elapsed":413514,"internal_node_id":"0.0-74.0","task_version":"battery-v0.1"},{"rune":"L","hex":"#3366ff99","correct":-1,"choice":32,"rt":640.7200000248849,"accuracy":0,"outcome":"+1","keys":[2140.7700000563636],"total_keys":1,"block":1,"trial":73,"robot":2,"valence":"win","action":"no-go","sham":0,"trial_type":"pit-trial","trial_index":86,"time_elapsed":416861,"internal_node_id":"0.0-75.0","task_version":"battery-v0.1"},{"rune":"S","hex":"#f73b6a7A","correct":32,"choice":-1,"rt":-1,"accuracy":0,"outcome":"-10","keys":[],"total_keys":0,"block":1,"trial":74,"robot":3,"valence":"lose","action":"go","sham":0,"trial_type":"pit-trial","trial_index":87,"time_elapsed":420868,"internal_node_id":"0.0-76.0","task_version":"battery-v0.1"},{"rune":"X","hex":"#3366ff99","correct":32,"choice":-1,"rt":-1,"accuracy":0,"outcome":"+1","keys":[],"total_keys":0,"block":1,"trial":75,"robot":1,"valence":"win","action":"go","sham":0,"trial_type":"pit-trial","trial_index":88,"time_elapsed":424875,"internal_node_id":"0.0-77.0","task_version":"battery-v0.1"},{"rune":"M","hex":"#f73b6a7A","correct":-1,"choice":-1,"rt":-1,"accuracy":1,"outcome":"-1","keys":[],"total_keys":0,"block":1,"trial":76,"robot":4,"valence":"lose","action":"no-go","sham":0,"trial_type":"pit-trial","trial_index":89,"time_elapsed":428882,"internal_node_id":"0.0-78.0","task_version":"battery-v0.1"},{"rune":"X","hex":"#3366ff99","correct":32,"choice":32,"rt":927.9999999562278,"accuracy":1,"outcome":"+1","keys":[2428.3650000579655],"total_keys":1,"block":1,"trial":77,"robot":1,"valence":"win","action":"go","sham":1,"trial_type":"pit-trial","trial_index":90,"time_elapsed":432517,"internal_node_id":"0.0-79.0","task_version":"battery-v0.1"},{"rune":"M","hex":"#f73b6a7A","correct":-1,"choice":-1,"rt":-1,"accuracy":1,"outcome":"-10","keys":[],"total_keys":0,"block":1,"trial":78,"robot":4,"valence":"lose","action":"no-go","sham":1,"trial_type":"pit-trial","trial_index":91,"time_elapsed":436524,"internal_node_id":"0.0-80.0","task_version":"battery-v0.1"},{"rune":"L","hex":"#3366ff99","correct":-1,"choice":-1,"rt":-1,"accuracy":1,"outcome":"+10","keys":[],"total_keys":0,"block":1,"trial":79,"robot":2,"valence":"win","action":"no-go","sham":0,"trial_type":"pit-trial","trial_index":92,"time_elapsed":440530,"internal_node_id":"0.0-81.0","task_version":"battery-v0.1"},{"rune":"S","hex":"#f73b6a7A","correct":32,"choice":32,"rt":736.3149999873713,"accuracy":1,"outcome":"-10","keys":[2236.445000045933],"total_keys":1,"block":1,"trial":80,"robot":3,"valence":"lose","action":"go","sham":1,"trial_type":"pit-trial","trial_index":93,"time_elapsed":443973,"internal_node_id":"0.0-82.0","task_version":"battery-v0.1"},{"rune":"L","hex":"#3366ff99","correct":-1,"choice":-1,"rt":-1,"accuracy":1,"outcome":"+10","keys":[],"total_keys":0,"block":1,"trial":81,"robot":2,"valence":"win","action":"no-go","sham":0,"trial_type":"pit-trial","trial_index":94,"time_elapsed":447981,"internal_node_id":"0.0-83.0","task_version":"battery-v0.1"},{"rune":"S","hex":"#f73b6a7A","correct":32,"choice":-1,"rt":-1,"accuracy":0,"outcome":"-10","keys":[],"total_keys":0,"block":1,"trial":82,"robot":3,"valence":"lose","action":"go","sham":0,"trial_type":"pit-trial","trial_index":95,"time_elapsed":451987,"internal_node_id":"0.0-84.0","task_version":"battery-v0.1"},{"rune":"X","hex":"#3366ff99","correct":32,"choice":-1,"rt":-1,"accuracy":0,"outcome":"+1","keys":[],"total_keys":0,"block":1,"trial":83,"robot":1,"valence":"win","action":"go","sham":0,"trial_type":"pit-trial","trial_index":96,"time_elapsed":455994,"internal_node_id":"0.0-85.0","task_version":"battery-v0.1"},{"rune":"M","hex":"#f73b6a7A","correct":-1,"choice":-1,"rt":-1,"accuracy":1,"outcome":"-1","keys":[],"total_keys":0,"block":1,"trial":84,"robot":4,"valence":"lose","action":"no-go","sham":0,"trial_type":"pit-trial","trial_index":97,"time_elapsed":460001,"internal_node_id":"0.0-86.0","task_version":"battery-v0.1"},{"rune":"M","hex":"#f73b6a7A","correct":-1,"choice":32,"rt":1023.47999997437,"accuracy":0,"outcome":"-1","keys":[2524.2499999003485],"total_keys":1,"block":1,"trial":85,"robot":4,"valence":"lose","action":"no-go","sham":1,"trial_type":"pit-trial","trial_index":98,"time_elapsed":463733,"internal_node_id":"0.0-87.0","task_version":"battery-v0.1"},{"rune":"X","hex":"#3366ff99","correct":32,"choice":32,"rt":898.4700000146404,"accuracy":1,"outcome":"+10","keys":[2400.4249999998137],"total_keys":1,"block":1,"trial":86,"robot":1,"valence":"win","action":"go","sham":0,"trial_type":"pit-trial","trial_index":99,"time_elapsed":467340,"internal_node_id":"0.0-88.0","task_version":"battery-v0.1"},{"rune":"S","hex":"#f73b6a7A","correct":32,"choice":32,"rt":886.365000042133,"accuracy":1,"outcome":"-1","keys":[2386.4550000289455],"total_keys":1,"block":1,"trial":87,"robot":3,"valence":"lose","action":"go","sham":0,"trial_type":"pit-trial","trial_index":100,"time_elapsed":470933,"internal_node_id":"0.0-89.0","task_version":"battery-v0.1"},{"rune":"L","hex":"#3366ff99","correct":-1,"choice":-1,"rt":-1,"accuracy":1,"outcome":"+10","keys":[],"total_keys":0,"block":1,"trial":88,"robot":2,"valence":"win","action":"no-go","sham":0,"trial_type":"pit-trial","trial_index":101,"time_elapsed":474940,"internal_node_id":"0.0-90.0","task_version":"battery-v0.1"},{"rune":"S","hex":"#f73b6a7A","correct":32,"choice":32,"rt":822.4149999441579,"accuracy":1,"outcome":"-1","keys":[2322.5150000071153],"total_keys":1,"block":1,"trial":89,"robot":3,"valence":"lose","action":"go","sham":0,"trial_type":"pit-trial","trial_index":102,"time_elapsed":478469,"internal_node_id":"0.0-91.0","task_version":"battery-v0.1"},{"rune":"K","hex":"#f73b6a7A","correct":32,"choice":-1,"rt":-1,"accuracy":0,"outcome":"-10","keys":[],"total_keys":0,"block":1,"trial":90,"robot":3,"valence":"lose","action":"go","sham":0,"trial_type":"pit-trial","trial_index":103,"time_elapsed":482476,"internal_node_id":"0.0-92.0","task_version":"battery-v0.1"},{"rune":"P","hex":"#3366ff99","correct":-1,"choice":-1,"rt":-1,"accuracy":1,"outcome":"+1","keys":[],"total_keys":0,"block":1,"trial":91,"robot":2,"valence":"win","action":"no-go","sham":1,"trial_type":"pit-trial","trial_index":104,"time_elapsed":486483,"internal_node_id":"0.0-93.0","task_version":"battery-v0.1"},{"rune":"X","hex":"#3366ff99","correct":32,"choice":32,"rt":1047.9250000789762,"accuracy":1,"outcome":"+10","keys":[2548.010000027716],"total_keys":1,"block":1,"trial":92,"robot":1,"valence":"win","action":"go","sham":0,"trial_type":"pit-trial","trial_index":105,"time_elapsed":490237,"internal_node_id":"0.0-94.0","task_version":"battery-v0.1"},{"rune":"X","hex":"#3366ff99","correct":32,"choice":32,"rt":810.6149999657646,"accuracy":1,"outcome":"+10","keys":[2312.580000027083],"total_keys":1,"block":1,"trial":93,"robot":1,"valence":"win","action":"go","sham":0,"trial_type":"pit-trial","trial_index":106,"time_elapsed":493757,"internal_node_id":"0.0-95.0","task_version":"battery-v0.1"},{"rune":"S","hex":"#f73b6a7A","correct":32,"choice":32,"rt":915.7650000415742,"accuracy":1,"outcome":"-1","keys":[2416.785000008531],"total_keys":1,"block":1,"trial":94,"robot":3,"valence":"lose","action":"go","sham":0,"trial_type":"pit-trial","trial_index":107,"time_elapsed":497381,"internal_node_id":"0.0-96.0","task_version":"battery-v0.1"},{"rune":"K","hex":"#f73b6a7A","correct":32,"choice":32,"rt":1028.5799999255687,"accuracy":1,"outcome":"-1","keys":[2529.6099999686703],"total_keys":1,"block":1,"trial":95,"robot":3,"valence":"lose","action":"go","sham":0,"trial_type":"pit-trial","trial_index":108,"time_elapsed":501117,"internal_node_id":"0.0-97.0","task_version":"battery-v0.1"},{"rune":"P","hex":"#3366ff99","correct":-1,"choice":-1,"rt":-1,"accuracy":1,"outcome":"+10","keys":[],"total_keys":0,"block":1,"trial":96,"robot":2,"valence":"win","action":"no-go","sham":0,"trial_type":"pit-trial","trial_index":109,"time_elapsed":505123,"internal_node_id":"0.0-98.0","task_version":"battery-v0.1"},{"rune":"X","hex":"#3366ff99","correct":32,"choice":32,"rt":911.6250000661239,"accuracy":1,"outcome":"+10","keys":[2411.7199999745935],"total_keys":1,"block":1,"trial":97,"robot":1,"valence":"win","action":"go","sham":0,"trial_type":"pit-trial","trial_index":110,"time_elapsed":508740,"internal_node_id":"0.0-99.0","task_version":"battery-v0.1"},{"rune":"P","hex":"#3366ff99","correct":-1,"choice":32,"rt":1147.9349998990074,"accuracy":0,"outcome":"+1","keys":[2648.8550000358373],"total_keys":1,"block":1,"trial":98,"robot":2,"valence":"win","action":"no-go","sham":0,"trial_type":"pit-trial","trial_index":111,"time_elapsed":512596,"internal_node_id":"0.0-100.0","task_version":"battery-v0.1"},{"rune":"K","hex":"#f73b6a7A","correct":32,"choice":-1,"rt":-1,"accuracy":0,"outcome":"-10","keys":[],"total_keys":0,"block":1,"trial":99,"robot":3,"valence":"lose","action":"go","sham":0,"trial_type":"pit-trial","trial_index":112,"time_elapsed":516602,"internal_node_id":"0.0-101.0","task_version":"battery-v0.1"},{"rune":"S","hex":"#f73b6a7A","correct":32,"choice":32,"rt":952.3749999934807,"accuracy":1,"outcome":"-1","keys":[2452.3950000293553],"total_keys":1,"block":1,"trial":100,"robot":3,"valence":"lose","action":"go","sham":0,"trial_type":"pit-trial","trial_index":113,"time_elapsed":520260,"internal_node_id":"0.0-102.0","task_version":"battery-v0.1"},{"rune":"X","hex":"#3366ff99","correct":32,"choice":32,"rt":843.6350000556558,"accuracy":1,"outcome":"+1","keys":[2344.5599999977276],"total_keys":1,"block":1,"trial":101,"robot":1,"valence":"win","action":"go","sham":1,"trial_type":"pit-trial","trial_index":114,"time_elapsed":523812,"internal_node_id":"0.0-103.0","task_version":"battery-v0.1"},{"rune":"P","hex":"#3366ff99","correct":-1,"choice":32,"rt":756.6999999107793,"accuracy":0,"outcome":"+10","keys":[2257.22999998834],"total_keys":1,"block":1,"trial":102,"robot":2,"valence":"win","action":"no-go","sham":1,"trial_type":"pit-trial","trial_index":115,"time_elapsed":527276,"internal_node_id":"0.0-104.0","task_version":"battery-v0.1"},{"rune":"S","hex":"#f73b6a7A","correct":32,"choice":32,"rt":941.7549999197945,"accuracy":1,"outcome":"-1","keys":[2441.965000005439],"total_keys":1,"block":1,"trial":103,"robot":3,"valence":"lose","action":"go","sham":0,"trial_type":"pit-trial","trial_index":116,"time_elapsed":530924,"internal_node_id":"0.0-105.0","task_version":"battery-v0.1"},{"rune":"K","hex":"#f73b6a7A","correct":32,"choice":32,"rt":774.0300000878051,"accuracy":1,"outcome":"-1","keys":[2274.1750000277534],"total_keys":1,"block":1,"trial":104,"robot":3,"valence":"lose","action":"go","sham":0,"trial_type":"pit-trial","trial_index":117,"time_elapsed":534404,"internal_node_id":"0.0-106.0","task_version":"battery-v0.1"},{"rune":"K","hex":"#f73b6a7A","correct":32,"choice":32,"rt":742.1200000680983,"accuracy":1,"outcome":"-1","keys":[2242.1950000571087],"total_keys":1,"block":1,"trial":105,"robot":3,"valence":"lose","action":"go","sham":0,"trial_type":"pit-trial","trial_index":118,"time_elapsed":537851,"internal_node_id":"0.0-107.0","task_version":"battery-v0.1"},{"rune":"X","hex":"#3366ff99","correct":32,"choice":32,"rt":907.3050000006333,"accuracy":1,"outcome":"+10","keys":[2409.239999949932],"total_keys":1,"block":1,"trial":106,"robot":1,"valence":"win","action":"go","sham":0,"trial_type":"pit-trial","trial_index":119,"time_elapsed":541468,"internal_node_id":"0.0-108.0","task_version":"battery-v0.1"},{"rune":"P","hex":"#3366ff99","correct":-1,"choice":-1,"rt":-1,"accuracy":1,"outcome":"+1","keys":[],"total_keys":0,"block":1,"trial":107,"robot":2,"valence":"win","action":"no-go","sham":1,"trial_type":"pit-trial","trial_index":120,"time_elapsed":545474,"internal_node_id":"0.0-109.0","task_version":"battery-v0.1"},{"rune":"S","hex":"#f73b6a7A","correct":32,"choice":32,"rt":775.6100000115111,"accuracy":1,"outcome":"-10","keys":[2275.690000038594],"total_keys":1,"block":1,"trial":108,"robot":3,"valence":"lose","action":"go","sham":1,"trial_type":"pit-trial","trial_index":121,"time_elapsed":548957,"internal_node_id":"0.0-110.0","task_version":"battery-v0.1"},{"rune":"S","hex":"#f73b6a7A","correct":32,"choice":32,"rt":586.71000006143,"accuracy":1,"outcome":"-1","keys":[2088.0449999822304],"total_keys":1,"block":1,"trial":109,"robot":3,"valence":"lose","action":"go","sham":0,"trial_type":"pit-trial","trial_index":122,"time_elapsed":552252,"internal_node_id":"0.0-111.0","task_version":"battery-v0.1"},{"rune":"X","hex":"#3366ff99","correct":32,"choice":32,"rt":708.974999957718,"accuracy":1,"outcome":"+1","keys":[2209.7849999554455],"total_keys":1,"block":1,"trial":110,"robot":1,"valence":"win","action":"go","sham":1,"trial_type":"pit-trial","trial_index":123,"time_elapsed":555667,"internal_node_id":"0.0-112.0","task_version":"battery-v0.1"},{"rune":"P","hex":"#3366ff99","correct":-1,"choice":-1,"rt":-1,"accuracy":1,"outcome":"+10","keys":[],"total_keys":0,"block":1,"trial":111,"robot":2,"valence":"win","action":"no-go","sham":0,"trial_type":"pit-trial","trial_index":124,"time_elapsed":559674,"internal_node_id":"0.0-113.0","task_version":"battery-v0.1"},{"rune":"K","hex":"#f73b6a7A","correct":32,"choice":32,"rt":1078.4699999494478,"accuracy":1,"outcome":"-1","keys":[2579.4449999229982],"total_keys":1,"block":1,"trial":112,"robot":3,"valence":"lose","action":"go","sham":0,"trial_type":"pit-trial","trial_index":125,"time_elapsed":563460,"internal_node_id":"0.0-114.0","task_version":"battery-v0.1"},{"rune":"X","hex":"#3366ff99","correct":32,"choice":32,"rt":803.4400000469759,"accuracy":1,"outcome":"+10","keys":[2304.2500000447035],"total_keys":1,"block":1,"trial":113,"robot":1,"valence":"win","action":"go","sham":0,"trial_type":"pit-trial","trial_index":126,"time_elapsed":566971,"internal_node_id":"0.0-115.0","task_version":"battery-v0.1"},{"rune":"S","hex":"#f73b6a7A","correct":32,"choice":32,"rt":854.4049999909475,"accuracy":1,"outcome":"-1","keys":[2354.5999999623746],"total_keys":1,"block":1,"trial":114,"robot":3,"valence":"lose","action":"go","sham":0,"trial_type":"pit-trial","trial_index":127,"time_elapsed":570532,"internal_node_id":"0.0-116.0","task_version":"battery-v0.1"},{"rune":"K","hex":"#f73b6a7A","correct":32,"choice":-1,"rt":-1,"accuracy":0,"outcome":"-10","keys":[],"total_keys":0,"block":1,"trial":115,"robot":3,"valence":"lose","action":"go","sham":0,"trial_type":"pit-trial","trial_index":128,"time_elapsed":574538,"internal_node_id":"0.0-117.0","task_version":"battery-v0.1"},{"rune":"P","hex":"#3366ff99","correct":-1,"choice":32,"rt":766.6500000050291,"accuracy":0,"outcome":"+1","keys":[2267.6549999741837],"total_keys":1,"block":1,"trial":116,"robot":2,"valence":"win","action":"no-go","sham":0,"trial_type":"pit-trial","trial_index":129,"time_elapsed":578012,"internal_node_id":"0.0-118.0","task_version":"battery-v0.1"},{"rune":"S","hex":"#f73b6a7A","correct":32,"choice":32,"rt":619.6999999228865,"accuracy":1,"outcome":"-1","keys":[2120.0299999909475],"total_keys":1,"block":1,"trial":117,"robot":3,"valence":"lose","action":"go","sham":0,"trial_type":"pit-trial","trial_index":130,"time_elapsed":581339,"internal_node_id":"0.0-119.0","task_version":"battery-v0.1"},{"rune":"K","hex":"#f73b6a7A","correct":32,"choice":32,"rt":741.855000029318,"accuracy":1,"outcome":"-1","keys":[2241.920000058599],"total_keys":1,"block":1,"trial":118,"robot":3,"valence":"lose","action":"go","sham":0,"trial_type":"pit-trial","trial_index":131,"time_elapsed":584787,"internal_node_id":"0.0-120.0","task_version":"battery-v0.1"},{"rune":"P","hex":"#3366ff99","correct":-1,"choice":-1,"rt":-1,"accuracy":1,"outcome":"+10","keys":[],"total_keys":0,"block":1,"trial":119,"robot":2,"valence":"win","action":"no-go","sham":0,"trial_type":"pit-trial","trial_index":132,"time_elapsed":588793,"internal_node_id":"0.0-121.0","task_version":"battery-v0.1"},{"rune":"X","hex":"#3366ff99","correct":32,"choice":32,"rt":736.0800000606105,"accuracy":1,"outcome":"+10","keys":[2236.269999993965],"total_keys":1,"block":1,"trial":120,"robot":1,"valence":"win","action":"go","sham":0,"trial_type":"pit-trial","trial_index":133,"time_elapsed":592235,"internal_node_id":"0.0-122.0","task_version":"battery-v0.1"},{"view_history":"[{\"page_index\":0,\"viewing_time\":10665.81999999471},{\"page_index\":1,\"viewing_time\":1780.0150000257418}]","rt":12446.24499999918,"trial_type":"pit-instructions","trial_index":134,"time_elapsed":604687,"internal_node_id":"0.0-123.0","task_version":"battery-v0.1"},{"rune":"U","hex":"#f73b6a7A","correct":-1,"choice":-1,"rt":-1,"accuracy":1,"outcome":"-1","keys":[],"total_keys":0,"block":2,"trial":121,"robot":4,"valence":"lose","action":"no-go","sham":0,"trial_type":"pit-trial","trial_index":135,"time_elapsed":608695,"internal_node_id":"0.0-124.0","task_version":"battery-v0.1"},{"rune":"I","hex":"#3366ff99","correct":-1,"choice":32,"rt":1017.7299999631941,"accuracy":0,"outcome":"+1","keys":[2517.8700000979006],"total_keys":1,"block":2,"trial":122,"robot":2,"valence":"win","action":"no-go","sham":0,"trial_type":"pit-trial","trial_index":136,"time_elapsed":612419,"internal_node_id":"0.0-125.0","task_version":"battery-v0.1"},{"rune":"Y","hex":"#3366ff99","correct":32,"choice":-1,"rt":-1,"accuracy":0,"outcome":"+1","keys":[],"total_keys":0,"block":2,"trial":123,"robot":1,"valence":"win","action":"go","sham":0,"trial_type":"pit-trial","trial_index":137,"time_elapsed":616425,"internal_node_id":"0.0-126.0","task_version":"battery-v0.1"},{"rune":"D","hex":"#3366ff99","correct":32,"choice":32,"rt":752.0100000547245,"accuracy":1,"outcome":"+10","keys":[2252.1650000708178],"total_keys":1,"block":2,"trial":124,"robot":1,"valence":"win","action":"go","sham":0,"trial_type":"pit-trial","trial_index":138,"time_elapsed":619883,"internal_node_id":"0.0-127.0","task_version":"battery-v0.1"},{"rune":"U","hex":"#f73b6a7A","correct":-1,"choice":32,"rt":908.6599999573082,"accuracy":0,"outcome":"-10","keys":[2408.9800000656396],"total_keys":1,"block":2,"trial":125,"robot":4,"valence":"lose","action":"no-go","sham":0,"trial_type":"pit-trial","trial_index":139,"time_elapsed":623499,"internal_node_id":"0.0-128.0","task_version":"battery-v0.1"},{"rune":"I","hex":"#3366ff99","correct":-1,"choice":-1,"rt":-1,"accuracy":1,"outcome":"+10","keys":[],"total_keys":0,"block":2,"trial":126,"robot":2,"valence":"win","action":"no-go","sham":0,"trial_type":"pit-trial","trial_index":140,"time_elapsed":627506,"internal_node_id":"0.0-129.0","task_version":"battery-v0.1"},{"rune":"Y","hex":"#3366ff99","correct":32,"choice":-1,"rt":-1,"accuracy":0,"outcome":"+10","keys":[],"total_keys":0,"block":2,"trial":127,"robot":1,"valence":"win","action":"go","sham":1,"trial_type":"pit-trial","trial_index":141,"time_elapsed":631512,"internal_node_id":"0.0-130.0","task_version":"battery-v0.1"},{"rune":"D","hex":"#3366ff99","correct":32,"choice":-1,"rt":-1,"accuracy":0,"outcome":"+10","keys":[],"total_keys":0,"block":2,"trial":128,"robot":1,"valence":"win","action":"go","sham":1,"trial_type":"pit-trial","trial_index":142,"time_elapsed":635519,"internal_node_id":"0.0-131.0","task_version":"battery-v0.1"},{"rune":"Y","hex":"#3366ff99","correct":32,"choice":-1,"rt":-1,"accuracy":0,"outcome":"+1","keys":[],"total_keys":0,"block":2,"trial":129,"robot":1,"valence":"win","action":"go","sham":0,"trial_type":"pit-trial","trial_index":143,"time_elapsed":639525,"internal_node_id":"0.0-132.0","task_version":"battery-v0.1"},{"rune":"U","hex":"#f73b6a7A","correct":-1,"choice":32,"rt":684.4699999783188,"accuracy":0,"outcome":"-10","keys":[2184.599999920465],"total_keys":1,"block":2,"trial":130,"robot":4,"valence":"lose","action":"no-go","sham":0,"trial_type":"pit-trial","trial_index":144,"time_elapsed":642917,"internal_node_id":"0.0-133.0","task_version":"battery-v0.1"},{"rune":"I","hex":"#3366ff99","correct":-1,"choice":-1,"rt":-1,"accuracy":1,"outcome":"+10","keys":[],"total_keys":0,"block":2,"trial":131,"robot":2,"valence":"win","action":"no-go","sham":0,"trial_type":"pit-trial","trial_index":145,"time_elapsed":646926,"internal_node_id":"0.0-134.0","task_version":"battery-v0.1"},{"rune":"D","hex":"#3366ff99","correct":32,"choice":-1,"rt":-1,"accuracy":0,"outcome":"+1","keys":[],"total_keys":0,"block":2,"trial":132,"robot":1,"valence":"win","action":"go","sham":0,"trial_type":"pit-trial","trial_index":146,"time_elapsed":650933,"internal_node_id":"0.0-135.0","task_version":"battery-v0.1"},{"rune":"I","hex":"#3366ff99","correct":-1,"choice":-1,"rt":-1,"accuracy":1,"outcome":"+1","keys":[],"total_keys":0,"block":2,"trial":133,"robot":2,"valence":"win","action":"no-go","sham":1,"trial_type":"pit-trial","trial_index":147,"time_elapsed":654939,"internal_node_id":"0.0-136.0","task_version":"battery-v0.1"},{"rune":"D","hex":"#3366ff99","correct":32,"choice":-1,"rt":-1,"accuracy":0,"outcome":"+1","keys":[],"total_keys":0,"block":2,"trial":134,"robot":1,"valence":"win","action":"go","sham":0,"trial_type":"pit-trial","trial_index":148,"time_elapsed":658944,"internal_node_id":"0.0-137.0","task_version":"battery-v0.1"},{"rune":"Y","hex":"#3366ff99","correct":32,"choice":32,"rt":728.3900000620633,"accuracy":1,"outcome":"+10","keys":[2229.3249999638647],"total_keys":1,"block":2,"trial":135,"robot":1,"valence":"win","action":"go","sham":0,"trial_type":"pit-trial","trial_index":149,"time_elapsed":662380,"internal_node_id":"0.0-138.0","task_version":"battery-v0.1"},{"rune":"U","hex":"#f73b6a7A","correct":-1,"choice":-1,"rt":-1,"accuracy":1,"outcome":"-1","keys":[],"total_keys":0,"block":2,"trial":136,"robot":4,"valence":"lose","action":"no-go","sham":0,"trial_type":"pit-trial","trial_index":150,"time_elapsed":666386,"internal_node_id":"0.0-139.0","task_version":"battery-v0.1"},{"rune":"U","hex":"#f73b6a7A","correct":-1,"choice":-1,"rt":-1,"accuracy":1,"outcome":"-10","keys":[],"total_keys":0,"block":2,"trial":137,"robot":4,"valence":"lose","action":"no-go","sham":1,"trial_type":"pit-trial","trial_index":151,"time_elapsed":670393,"internal_node_id":"0.0-140.0","task_version":"battery-v0.1"},{"rune":"I","hex":"#3366ff99","correct":-1,"choice":-1,"rt":-1,"accuracy":1,"outcome":"+10","keys":[],"total_keys":0,"block":2,"trial":138,"robot":2,"valence":"win","action":"no-go","sham":0,"trial_type":"pit-trial","trial_index":152,"time_elapsed":674399,"internal_node_id":"0.0-141.0","task_version":"battery-v0.1"},{"rune":"Y","hex":"#3366ff99","correct":32,"choice":32,"rt":1035.2249999996275,"accuracy":1,"outcome":"+10","keys":[2535.2800000691786],"total_keys":1,"block":2,"trial":139,"robot":1,"valence":"win","action":"go","sham":0,"trial_type":"pit-trial","trial_index":153,"time_elapsed":678139,"internal_node_id":"0.0-142.0","task_version":"battery-v0.1"},{"rune":"D","hex":"#3366ff99","correct":32,"choice":32,"rt":710.2099999319762,"accuracy":1,"outcome":"+10","keys":[2210.3349999524653],"total_keys":1,"block":2,"trial":140,"robot":1,"valence":"win","action":"go","sham":0,"trial_type":"pit-trial","trial_index":154,"time_elapsed":681555,"internal_node_id":"0.0-143.0","task_version":"battery-v0.1"},{"rune":"I","hex":"#3366ff99","correct":-1,"choice":-1,"rt":-1,"accuracy":1,"outcome":"+10","keys":[],"total_keys":0,"block":2,"trial":141,"robot":2,"valence":"win","action":"no-go","sham":0,"trial_type":"pit-trial","trial_index":155,"time_elapsed":685562,"internal_node_id":"0.0-144.0","task_version":"battery-v0.1"},{"rune":"Y","hex":"#3366ff99","correct":32,"choice":32,"rt":839.1700000502169,"accuracy":1,"outcome":"+10","keys":[2340.124999987893],"total_keys":1,"block":2,"trial":142,"robot":1,"valence":"win","action":"go","sham":0,"trial_type":"pit-trial","trial_index":156,"time_elapsed":689107,"internal_node_id":"0.0-145.0","task_version":"battery-v0.1"},{"rune":"D","hex":"#3366ff99","correct":32,"choice":32,"rt":621.6449999483302,"accuracy":1,"outcome":"+10","keys":[2121.860000072047],"total_keys":1,"block":2,"trial":143,"robot":1,"valence":"win","action":"go","sham":0,"trial_type":"pit-trial","trial_index":157,"time_elapsed":692435,"internal_node_id":"0.0-146.0","task_version":"battery-v0.1"},{"rune":"U","hex":"#f73b6a7A","correct":-1,"choice":32,"rt":580.8800000231713,"accuracy":0,"outcome":"-10","keys":[2081.860000034794],"total_keys":1,"block":2,"trial":144,"robot":4,"valence":"lose","action":"no-go","sham":0,"trial_type":"pit-trial","trial_index":158,"time_elapsed":695724,"internal_node_id":"0.0-147.0","task_version":"battery-v0.1"},{"rune":"U","hex":"#f73b6a7A","correct":-1,"choice":32,"rt":516.9699999969453,"accuracy":0,"outcome":"-10","keys":[2017.214999999851],"total_keys":1,"block":2,"trial":145,"robot":4,"valence":"lose","action":"no-go","sham":0,"trial_type":"pit-trial","trial_index":159,"time_elapsed":698948,"internal_node_id":"0.0-148.0","task_version":"battery-v0.1"},{"rune":"I","hex":"#3366ff99","correct":-1,"choice":-1,"rt":-1,"accuracy":1,"outcome":"+10","keys":[],"total_keys":0,"block":2,"trial":146,"robot":2,"valence":"win","action":"no-go","sham":0,"trial_type":"pit-trial","trial_index":160,"time_elapsed":702955,"internal_node_id":"0.0-149.0","task_version":"battery-v0.1"},{"rune":"Y","hex":"#3366ff99","correct":32,"choice":32,"rt":964.9849999696016,"accuracy":1,"outcome":"+10","keys":[2465.985000017099],"total_keys":1,"block":2,"trial":147,"robot":1,"valence":"win","action":"go","sham":0,"trial_type":"pit-trial","trial_index":161,"time_elapsed":706627,"internal_node_id":"0.0-150.0","task_version":"battery-v0.1"},{"rune":"D","hex":"#3366ff99","correct":32,"choice":32,"rt":596.7400000663474,"accuracy":1,"outcome":"+10","keys":[2097.92000008747],"total_keys":1,"block":2,"trial":148,"robot":1,"valence":"win","action":"go","sham":0,"trial_type":"pit-trial","trial_index":162,"time_elapsed":709930,"internal_node_id":"0.0-151.0","task_version":"battery-v0.1"},{"rune":"I","hex":"#3366ff99","correct":-1,"choice":-1,"rt":-1,"accuracy":1,"outcome":"+1","keys":[],"total_keys":0,"block":2,"trial":149,"robot":2,"valence":"win","action":"no-go","sham":1,"trial_type":"pit-trial","trial_index":163,"time_elapsed":713939,"internal_node_id":"0.0-152.0","task_version":"battery-v0.1"},{"rune":"D","hex":"#3366ff99","correct":32,"choice":32,"rt":918.2850000215694,"accuracy":1,"outcome":"+10","keys":[2418.335000053048],"total_keys":1,"block":2,"trial":150,"robot":1,"valence":"win","action":"go","sham":0,"trial_type":"pit-trial","trial_index":164,"time_elapsed":717563,"internal_node_id":"0.0-153.0","task_version":"battery-v0.1"},{"rune":"U","hex":"#f73b6a7A","correct":-1,"choice":-1,"rt":-1,"accuracy":1,"outcome":"-1","keys":[],"total_keys":0,"block":2,"trial":151,"robot":4,"valence":"lose","action":"no-go","sham":0,"trial_type":"pit-trial","trial_index":165,"time_elapsed":721569,"internal_node_id":"0.0-154.0","task_version":"battery-v0.1"},{"rune":"Y","hex":"#3366ff99","correct":32,"choice":32,"rt":814.064999925904,"accuracy":1,"outcome":"+10","keys":[2314.9299999931827],"total_keys":1,"block":2,"trial":152,"robot":1,"valence":"win","action":"go","sham":0,"trial_type":"pit-trial","trial_index":166,"time_elapsed":725091,"internal_node_id":"0.0-155.0","task_version":"battery-v0.1"},{"rune":"U","hex":"#f73b6a7A","correct":-1,"choice":-1,"rt":-1,"accuracy":1,"outcome":"-1","keys":[],"total_keys":0,"block":2,"trial":153,"robot":4,"valence":"lose","action":"no-go","sham":0,"trial_type":"pit-trial","trial_index":167,"time_elapsed":729097,"internal_node_id":"0.0-156.0","task_version":"battery-v0.1"},{"rune":"W","hex":"#3366ff99","correct":32,"choice":-1,"rt":-1,"accuracy":0,"outcome":"+1","keys":[],"total_keys":0,"block":2,"trial":154,"robot":1,"valence":"win","action":"go","sham":0,"trial_type":"pit-trial","trial_index":168,"time_elapsed":733103,"internal_node_id":"0.0-157.0","task_version":"battery-v0.1"},{"rune":"I","hex":"#3366ff99","correct":-1,"choice":-1,"rt":-1,"accuracy":1,"outcome":"+10","keys":[],"total_keys":0,"block":2,"trial":155,"robot":2,"valence":"win","action":"no-go","sham":0,"trial_type":"pit-trial","trial_index":169,"time_elapsed":737109,"internal_node_id":"0.0-158.0","task_version":"battery-v0.1"},{"rune":"Y","hex":"#3366ff99","correct":32,"choice":32,"rt":722.8399999439716,"accuracy":1,"outcome":"+1","keys":[2223.9599999738857],"total_keys":1,"block":2,"trial":156,"robot":1,"valence":"win","action":"go","sham":1,"trial_type":"pit-trial","trial_index":170,"time_elapsed":740539,"internal_node_id":"0.0-159.0","task_version":"battery-v0.1"},{"rune":"Y","hex":"#3366ff99","correct":32,"choice":32,"rt":668.8950000097975,"accuracy":1,"outcome":"+10","keys":[2169.914999976754],"total_keys":1,"block":2,"trial":157,"robot":1,"valence":"win","action":"go","sham":0,"trial_type":"pit-trial","trial_index":171,"time_elapsed":743915,"internal_node_id":"0.0-160.0","task_version":"battery-v0.1"},{"rune":"W","hex":"#3366ff99","correct":32,"choice":32,"rt":781.7750000394881,"accuracy":1,"outcome":"+10","keys":[2281.8950000219047],"total_keys":1,"block":2,"trial":158,"robot":1,"valence":"win","action":"go","sham":0,"trial_type":"pit-trial","trial_index":172,"time_elapsed":747403,"internal_node_id":"0.0-161.0","task_version":"battery-v0.1"},{"rune":"U","hex":"#f73b6a7A","correct":-1,"choice":-1,"rt":-1,"accuracy":1,"outcome":"-1","keys":[],"total_keys":0,"block":2,"trial":159,"robot":4,"valence":"lose","action":"no-go","sham":0,"trial_type":"pit-trial","trial_index":173,"time_elapsed":751410,"internal_node_id":"0.0-162.0","task_version":"battery-v0.1"},{"rune":"I","hex":"#3366ff99","correct":-1,"choice":-1,"rt":-1,"accuracy":1,"outcome":"+10","keys":[],"total_keys":0,"block":2,"trial":160,"robot":2,"valence":"win","action":"no-go","sham":0,"trial_type":"pit-trial","trial_index":174,"time_elapsed":755415,"internal_node_id":"0.0-163.0","task_version":"battery-v0.1"},{"rune":"I","hex":"#3366ff99","correct":-1,"choice":-1,"rt":-1,"accuracy":1,"outcome":"+10","keys":[],"total_keys":0,"block":2,"trial":161,"robot":2,"valence":"win","action":"no-go","sham":0,"trial_type":"pit-trial","trial_index":175,"time_elapsed":759422,"internal_node_id":"0.0-164.0","task_version":"battery-v0.1"},{"rune":"F","hex":"#f73b6a7A","correct":32,"choice":-1,"rt":-1,"accuracy":0,"outcome":"-10","keys":[],"total_keys":0,"block":2,"trial":162,"robot":3,"valence":"lose","action":"go","sham":0,"trial_type":"pit-trial","trial_index":176,"time_elapsed":763428,"internal_node_id":"0.0-165.0","task_version":"battery-v0.1"},{"rune":"W","hex":"#3366ff99","correct":32,"choice":32,"rt":757.6000000117347,"accuracy":1,"outcome":"+10","keys":[2257.630000007339],"total_keys":1,"block":2,"trial":163,"robot":1,"valence":"win","action":"go","sham":0,"trial_type":"pit-trial","trial_index":177,"time_elapsed":766892,"internal_node_id":"0.0-166.0","task_version":"battery-v0.1"},{"rune":"G","hex":"#f73b6a7A","correct":-1,"choice":-1,"rt":-1,"accuracy":1,"outcome":"-1","keys":[],"total_keys":0,"block":2,"trial":164,"robot":4,"valence":"lose","action":"no-go","sham":0,"trial_type":"pit-trial","trial_index":178,"time_elapsed":770900,"internal_node_id":"0.0-167.0","task_version":"battery-v0.1"},{"rune":"F","hex":"#f73b6a7A","correct":32,"choice":32,"rt":773.700000019744,"accuracy":1,"outcome":"-1","keys":[2273.9049999509007],"total_keys":1,"block":2,"trial":165,"robot":3,"valence":"lose","action":"go","sham":0,"trial_type":"pit-trial","trial_index":179,"time_elapsed":774380,"internal_node_id":"0.0-168.0","task_version":"battery-v0.1"},{"rune":"I","hex":"#3366ff99","correct":-1,"choice":-1,"rt":-1,"accuracy":1,"outcome":"+10","keys":[],"total_keys":0,"block":2,"trial":166,"robot":2,"valence":"win","action":"no-go","sham":0,"trial_type":"pit-trial","trial_index":180,"time_elapsed":778386,"internal_node_id":"0.0-169.0","task_version":"battery-v0.1"},{"rune":"G","hex":"#f73b6a7A","correct":-1,"choice":-1,"rt":-1,"accuracy":1,"outcome":"-1","keys":[],"total_keys":0,"block":2,"trial":167,"robot":4,"valence":"lose","action":"no-go","sham":0,"trial_type":"pit-trial","trial_index":181,"time_elapsed":782392,"internal_node_id":"0.0-170.0","task_version":"battery-v0.1"},{"rune":"W","hex":"#3366ff99","correct":32,"choice":32,"rt":815.4050000011921,"accuracy":1,"outcome":"+10","keys":[2317.384999943897],"total_keys":1,"block":2,"trial":168,"robot":1,"valence":"win","action":"go","sham":0,"trial_type":"pit-trial","trial_index":182,"time_elapsed":785915,"internal_node_id":"0.0-171.0","task_version":"battery-v0.1"},{"rune":"E","hex":"#3366ff99","correct":-1,"choice":-1,"rt":-1,"accuracy":1,"outcome":"+1","keys":[],"total_keys":0,"block":2,"trial":169,"robot":2,"valence":"win","action":"no-go","sham":1,"trial_type":"pit-trial","trial_index":183,"time_elapsed":789921,"internal_node_id":"0.0-172.0","task_version":"battery-v0.1"},{"rune":"W","hex":"#3366ff99","correct":32,"choice":32,"rt":696.1649999720976,"accuracy":1,"outcome":"+10","keys":[2196.3550000218675],"total_keys":1,"block":2,"trial":170,"robot":1,"valence":"win","action":"go","sham":0,"trial_type":"pit-trial","trial_index":184,"time_elapsed":793323,"internal_node_id":"0.0-173.0","task_version":"battery-v0.1"},{"rune":"F","hex":"#f73b6a7A","correct":32,"choice":32,"rt":661.5699999965727,"accuracy":1,"outcome":"-1","keys":[2162.57000004407],"total_keys":1,"block":2,"trial":171,"robot":3,"valence":"lose","action":"go","sham":0,"trial_type":"pit-trial","trial_index":185,"time_elapsed":796692,"internal_node_id":"0.0-174.0","task_version":"battery-v0.1"},{"rune":"G","hex":"#f73b6a7A","correct":-1,"choice":-1,"rt":-1,"accuracy":1,"outcome":"-1","keys":[],"total_keys":0,"block":2,"trial":172,"robot":4,"valence":"lose","action":"no-go","sham":0,"trial_type":"pit-trial","trial_index":186,"time_elapsed":800699,"internal_node_id":"0.0-175.0","task_version":"battery-v0.1"},{"rune":"F","hex":"#f73b6a7A","correct":32,"choice":32,"rt":757.4499999172986,"accuracy":1,"outcome":"-1","keys":[2258.4299999289215],"total_keys":1,"block":2,"trial":173,"robot":3,"valence":"lose","action":"go","sham":0,"trial_type":"pit-trial","trial_index":187,"time_elapsed":804163,"internal_node_id":"0.0-176.0","task_version":"battery-v0.1"},{"rune":"E","hex":"#3366ff99","correct":-1,"choice":-1,"rt":-1,"accuracy":1,"outcome":"+1","keys":[3250.099999946542],"total_keys":1,"block":2,"trial":174,"robot":2,"valence":"win","action":"no-go","sham":1,"trial_type":"pit-trial","trial_index":188,"time_elapsed":808169,"internal_node_id":"0.0-177.0","task_version":"battery-v0.1"},{"rune":"W","hex":"#3366ff99","correct":32,"choice":32,"rt":847.5499999476597,"accuracy":1,"outcome":"+10","keys":[2347.884999937378],"total_keys":1,"block":2,"trial":175,"robot":1,"valence":"win","action":"go","sham":0,"trial_type":"pit-trial","trial_index":189,"time_elapsed":811723,"internal_node_id":"0.0-178.0","task_version":"battery-v0.1"},{"rune":"G","hex":"#f73b6a7A","correct":-1,"choice":-1,"rt":-1,"accuracy":1,"outcome":"-1","keys":[],"total_keys":0,"block":2,"trial":176,"robot":4,"valence":"lose","action":"no-go","sham":0,"trial_type":"pit-trial","trial_index":190,"time_elapsed":815730,"internal_node_id":"0.0-179.0","task_version":"battery-v0.1"},{"rune":"G","hex":"#f73b6a7A","correct":-1,"choice":-1,"rt":-1,"accuracy":1,"outcome":"-1","keys":[],"total_keys":0,"block":2,"trial":177,"robot":4,"valence":"lose","action":"no-go","sham":0,"trial_type":"pit-trial","trial_index":191,"time_elapsed":819739,"internal_node_id":"0.0-180.0","task_version":"battery-v0.1"},{"rune":"E","hex":"#3366ff99","correct":-1,"choice":32,"rt":589.8599999491125,"accuracy":0,"outcome":"+1","keys":[2090.04499996081],"total_keys":1,"block":2,"trial":178,"robot":2,"valence":"win","action":"no-go","sham":0,"trial_type":"pit-trial","trial_index":192,"time_elapsed":823035,"internal_node_id":"0.0-181.0","task_version":"battery-v0.1"},{"rune":"W","hex":"#3366ff99","correct":32,"choice":32,"rt":677.7250000741333,"accuracy":1,"outcome":"+10","keys":[2178.0200001085177],"total_keys":1,"block":2,"trial":179,"robot":1,"valence":"win","action":"go","sham":0,"trial_type":"pit-trial","trial_index":193,"time_elapsed":826420,"internal_node_id":"0.0-182.0","task_version":"battery-v0.1"},{"rune":"F","hex":"#f73b6a7A","correct":32,"choice":32,"rt":717.2199999913573,"accuracy":1,"outcome":"-1","keys":[2217.3200000543147],"total_keys":1,"block":2,"trial":180,"robot":3,"valence":"lose","action":"go","sham":0,"trial_type":"pit-trial","trial_index":194,"time_elapsed":829843,"internal_node_id":"0.0-183.0","task_version":"battery-v0.1"},{"rune":"G","hex":"#f73b6a7A","correct":-1,"choice":-1,"rt":-1,"accuracy":1,"outcome":"-1","keys":[],"total_keys":0,"block":2,"trial":181,"robot":4,"valence":"lose","action":"no-go","sham":0,"trial_type":"pit-trial","trial_index":195,"time_elapsed":833849,"internal_node_id":"0.0-184.0","task_version":"battery-v0.1"},{"rune":"W","hex":"#3366ff99","correct":32,"choice":32,"rt":695.670000044629,"accuracy":1,"outcome":"+1","keys":[2195.7949999487028],"total_keys":1,"block":2,"trial":182,"robot":1,"valence":"win","action":"go","sham":1,"trial_type":"pit-trial","trial_index":196,"time_elapsed":837251,"internal_node_id":"0.0-185.0","task_version":"battery-v0.1"},{"rune":"F","hex":"#f73b6a7A","correct":32,"choice":32,"rt":698.7349999835715,"accuracy":1,"outcome":"-1","keys":[2198.8600000040606],"total_keys":1,"block":2,"trial":183,"robot":3,"valence":"lose","action":"go","sham":0,"trial_type":"pit-trial","trial_index":197,"time_elapsed":840659,"internal_node_id":"0.0-186.0","task_version":"battery-v0.1"},{"rune":"E","hex":"#3366ff99","correct":-1,"choice":32,"rt":462.459999951534,"accuracy":0,"outcome":"+1","keys":[1962.5949999317527],"total_keys":1,"block":2,"trial":184,"robot":2,"valence":"win","action":"no-go","sham":0,"trial_type":"pit-trial","trial_index":198,"time_elapsed":843827,"internal_node_id":"0.0-187.0","task_version":"battery-v0.1"},{"rune":"W","hex":"#3366ff99","correct":32,"choice":32,"rt":587.679999996908,"accuracy":1,"outcome":"+10","keys":[2088.050000020303],"total_keys":1,"block":2,"trial":185,"robot":1,"valence":"win","action":"go","sham":0,"trial_type":"pit-trial","trial_index":199,"time_elapsed":847123,"internal_node_id":"0.0-188.0","task_version":"battery-v0.1"},{"rune":"G","hex":"#f73b6a7A","correct":-1,"choice":-1,"rt":-1,"accuracy":1,"outcome":"-1","keys":[],"total_keys":0,"block":2,"trial":186,"robot":4,"valence":"lose","action":"no-go","sham":0,"trial_type":"pit-trial","trial_index":200,"time_elapsed":851129,"internal_node_id":"0.0-189.0","task_version":"battery-v0.1"},{"rune":"F","hex":"#f73b6a7A","correct":32,"choice":32,"rt":711.7250000592321,"accuracy":1,"outcome":"-10","keys":[2211.8999999947846],"total_keys":1,"block":2,"trial":187,"robot":3,"valence":"lose","action":"go","sham":1,"trial_type":"pit-trial","trial_index":201,"time_elapsed":854547,"internal_node_id":"0.0-190.0","task_version":"battery-v0.1"},{"rune":"E","hex":"#3366ff99","correct":-1,"choice":32,"rt":749.5750000234693,"accuracy":0,"outcome":"+1","keys":[2249.680000008084],"total_keys":1,"block":2,"trial":188,"robot":2,"valence":"win","action":"no-go","sham":0,"trial_type":"pit-trial","trial_index":202,"time_elapsed":858004,"internal_node_id":"0.0-191.0","task_version":"battery-v0.1"},{"rune":"F","hex":"#f73b6a7A","correct":32,"choice":32,"rt":682.7699999557808,"accuracy":1,"outcome":"-10","keys":[2183.5900000296533],"total_keys":1,"block":2,"trial":189,"robot":3,"valence":"lose","action":"go","sham":1,"trial_type":"pit-trial","trial_index":203,"time_elapsed":861396,"internal_node_id":"0.0-192.0","task_version":"battery-v0.1"},{"rune":"E","hex":"#3366ff99","correct":-1,"choice":32,"rt":1258.6349999764934,"accuracy":0,"outcome":"+1","keys":[2759.5799999544397],"total_keys":1,"block":2,"trial":190,"robot":2,"valence":"win","action":"no-go","sham":0,"trial_type":"pit-trial","trial_index":204,"time_elapsed":865363,"internal_node_id":"0.0-193.0","task_version":"battery-v0.1"},{"rune":"W","hex":"#3366ff99","correct":32,"choice":-1,"rt":-1,"accuracy":0,"outcome":"+1","keys":[],"total_keys":0,"block":2,"trial":191,"robot":1,"valence":"win","action":"go","sham":0,"trial_type":"pit-trial","trial_index":205,"time_elapsed":869370,"internal_node_id":"0.0-194.0","task_version":"battery-v0.1"},{"rune":"G","hex":"#f73b6a7A","correct":-1,"choice":-1,"rt":-1,"accuracy":1,"outcome":"-1","keys":[],"total_keys":0,"block":2,"trial":192,"robot":4,"valence":"lose","action":"no-go","sham":0,"trial_type":"pit-trial","trial_index":206,"time_elapsed":873376,"internal_node_id":"0.0-195.0","task_version":"battery-v0.1"},{"rune":"E","hex":"#3366ff99","correct":-1,"choice":-1,"rt":-1,"accuracy":1,"outcome":"+10","keys":[],"total_keys":0,"block":2,"trial":193,"robot":2,"valence":"win","action":"no-go","sham":0,"trial_type":"pit-trial","trial_index":207,"time_elapsed":877382,"internal_node_id":"0.0-196.0","task_version":"battery-v0.1"},{"rune":"V","hex":"#f73b6a7A","correct":32,"choice":32,"rt":987.3249999945983,"accuracy":1,"outcome":"-1","keys":[2487.4399999389425],"total_keys":1,"block":2,"trial":194,"robot":3,"valence":"lose","action":"go","sham":0,"trial_type":"pit-trial","trial_index":208,"time_elapsed":881076,"internal_node_id":"0.0-197.0","task_version":"battery-v0.1"},{"rune":"G","hex":"#f73b6a7A","correct":-1,"choice":-1,"rt":-1,"accuracy":1,"outcome":"-1","keys":[],"total_keys":0,"block":2,"trial":195,"robot":4,"valence":"lose","action":"no-go","sham":0,"trial_type":"pit-trial","trial_index":209,"time_elapsed":885083,"internal_node_id":"0.0-198.0","task_version":"battery-v0.1"},{"rune":"W","hex":"#3366ff99","correct":32,"choice":32,"rt":516.4349999977276,"accuracy":1,"outcome":"+10","keys":[2018.2400000048801],"total_keys":1,"block":2,"trial":196,"robot":1,"valence":"win","action":"go","sham":0,"trial_type":"pit-trial","trial_index":210,"time_elapsed":888307,"internal_node_id":"0.0-199.0","task_version":"battery-v0.1"},{"rune":"V","hex":"#f73b6a7A","correct":32,"choice":32,"rt":395.8999998867512,"accuracy":1,"outcome":"-1","keys":[1896.3650000514463],"total_keys":1,"block":2,"trial":197,"robot":3,"valence":"lose","action":"go","sham":0,"trial_type":"pit-trial","trial_index":211,"time_elapsed":891411,"internal_node_id":"0.0-200.0","task_version":"battery-v0.1"},{"rune":"G","hex":"#f73b6a7A","correct":-1,"choice":-1,"rt":-1,"accuracy":1,"outcome":"-10","keys":[],"total_keys":0,"block":2,"trial":198,"robot":4,"valence":"lose","action":"no-go","sham":1,"trial_type":"pit-trial","trial_index":212,"time_elapsed":895418,"internal_node_id":"0.0-201.0","task_version":"battery-v0.1"},{"rune":"W","hex":"#3366ff99","correct":32,"choice":32,"rt":838.0700000561774,"accuracy":1,"outcome":"+10","keys":[2339.075000025332],"total_keys":1,"block":2,"trial":199,"robot":1,"valence":"win","action":"go","sham":0,"trial_type":"pit-trial","trial_index":213,"time_elapsed":898963,"internal_node_id":"0.0-202.0","task_version":"battery-v0.1"},{"rune":"E","hex":"#3366ff99","correct":-1,"choice":-1,"rt":-1,"accuracy":1,"outcome":"+10","keys":[],"total_keys":0,"block":2,"trial":200,"robot":2,"valence":"win","action":"no-go","sham":0,"trial_type":"pit-trial","trial_index":214,"time_elapsed":902969,"internal_node_id":"0.0-203.0","task_version":"battery-v0.1"},{"rune":"J","hex":"#f73b6a7A","correct":32,"choice":32,"rt":792.0099999755621,"accuracy":1,"outcome":"-1","keys":[2292.0450000092387],"total_keys":1,"block":2,"trial":201,"robot":3,"valence":"lose","action":"go","sham":0,"trial_type":"pit-trial","trial_index":215,"time_elapsed":906467,"internal_node_id":"0.0-204.0","task_version":"battery-v0.1"},{"rune":"V","hex":"#f73b6a7A","correct":32,"choice":32,"rt":733.659999910742,"accuracy":1,"outcome":"-1","keys":[2233.8999999919906],"total_keys":1,"block":2,"trial":202,"robot":3,"valence":"lose","action":"go","sham":0,"trial_type":"pit-trial","trial_index":216,"time_elapsed":909907,"internal_node_id":"0.0-205.0","task_version":"battery-v0.1"},{"rune":"E","hex":"#3366ff99","correct":-1,"choice":-1,"rt":-1,"accuracy":1,"outcome":"+10","keys":[],"total_keys":0,"block":2,"trial":203,"robot":2,"valence":"win","action":"no-go","sham":0,"trial_type":"pit-trial","trial_index":217,"time_elapsed":913915,"internal_node_id":"0.0-206.0","task_version":"battery-v0.1"},{"rune":"G","hex":"#f73b6a7A","correct":-1,"choice":-1,"rt":-1,"accuracy":1,"outcome":"-1","keys":[],"total_keys":0,"block":2,"trial":204,"robot":4,"valence":"lose","action":"no-go","sham":0,"trial_type":"pit-trial","trial_index":218,"time_elapsed":917922,"internal_node_id":"0.0-207.0","task_version":"battery-v0.1"},{"rune":"J","hex":"#f73b6a7A","correct":32,"choice":32,"rt":790.5049999244511,"accuracy":1,"outcome":"-1","keys":[2291.3149999221787],"total_keys":1,"block":2,"trial":205,"robot":3,"valence":"lose","action":"go","sham":0,"trial_type":"pit-trial","trial_index":219,"time_elapsed":921419,"internal_node_id":"0.0-208.0","task_version":"battery-v0.1"},{"rune":"G","hex":"#f73b6a7A","correct":-1,"choice":32,"rt":700.539999990724,"accuracy":0,"outcome":"-10","keys":[2201.3499999884516],"total_keys":1,"block":2,"trial":206,"robot":4,"valence":"lose","action":"no-go","sham":0,"trial_type":"pit-trial","trial_index":220,"time_elapsed":924827,"internal_node_id":"0.0-209.0","task_version":"battery-v0.1"},{"rune":"E","hex":"#3366ff99","correct":-1,"choice":-1,"rt":-1,"accuracy":1,"outcome":"+1","keys":[],"total_keys":0,"block":2,"trial":207,"robot":2,"valence":"win","action":"no-go","sham":1,"trial_type":"pit-trial","trial_index":221,"time_elapsed":928834,"internal_node_id":"0.0-210.0","task_version":"battery-v0.1"},{"rune":"V","hex":"#f73b6a7A","correct":32,"choice":32,"rt":677.7299999957904,"accuracy":1,"outcome":"-1","keys":[2178.7400000030175],"total_keys":1,"block":2,"trial":208,"robot":3,"valence":"lose","action":"go","sham":0,"trial_type":"pit-trial","trial_index":222,"time_elapsed":932219,"internal_node_id":"0.0-211.0","task_version":"battery-v0.1"},{"rune":"J","hex":"#f73b6a7A","correct":32,"choice":32,"rt":669.579999987036,"accuracy":1,"outcome":"-1","keys":[2169.69499993138],"total_keys":1,"block":2,"trial":209,"robot":3,"valence":"lose","action":"go","sham":0,"trial_type":"pit-trial","trial_index":223,"time_elapsed":935595,"internal_node_id":"0.0-212.0","task_version":"battery-v0.1"},{"rune":"B","hex":"#f73b6a7A","correct":-1,"choice":-1,"rt":-1,"accuracy":1,"outcome":"-1","keys":[],"total_keys":0,"block":2,"trial":210,"robot":4,"valence":"lose","action":"no-go","sham":0,"trial_type":"pit-trial","trial_index":224,"time_elapsed":939601,"internal_node_id":"0.0-213.0","task_version":"battery-v0.1"},{"rune":"H","hex":"#3366ff99","correct":-1,"choice":-1,"rt":-1,"accuracy":1,"outcome":"+10","keys":[],"total_keys":0,"block":2,"trial":211,"robot":2,"valence":"win","action":"no-go","sham":0,"trial_type":"pit-trial","trial_index":225,"time_elapsed":943607,"internal_node_id":"0.0-214.0","task_version":"battery-v0.1"},{"rune":"V","hex":"#f73b6a7A","correct":32,"choice":32,"rt":759.5250000013039,"accuracy":1,"outcome":"-10","keys":[2261.47500006482],"total_keys":1,"block":2,"trial":212,"robot":3,"valence":"lose","action":"go","sham":1,"trial_type":"pit-trial","trial_index":226,"time_elapsed":947075,"internal_node_id":"0.0-215.0","task_version":"battery-v0.1"},{"rune":"H","hex":"#3366ff99","correct":-1,"choice":-1,"rt":-1,"accuracy":1,"outcome":"+10","keys":[],"total_keys":0,"block":2,"trial":213,"robot":2,"valence":"win","action":"no-go","sham":0,"trial_type":"pit-trial","trial_index":227,"time_elapsed":951081,"internal_node_id":"0.0-216.0","task_version":"battery-v0.1"},{"rune":"V","hex":"#f73b6a7A","correct":32,"choice":32,"rt":637.3799999710172,"accuracy":1,"outcome":"-1","keys":[2138.260000036098],"total_keys":1,"block":2,"trial":214,"robot":3,"valence":"lose","action":"go","sham":0,"trial_type":"pit-trial","trial_index":228,"time_elapsed":954426,"internal_node_id":"0.0-217.0","task_version":"battery-v0.1"},{"rune":"J","hex":"#f73b6a7A","correct":32,"choice":32,"rt":492.2100000549108,"accuracy":1,"outcome":"-1","keys":[1993.1700000306591],"total_keys":1,"block":2,"trial":215,"robot":3,"valence":"lose","action":"go","sham":0,"trial_type":"pit-trial","trial_index":229,"time_elapsed":957626,"internal_node_id":"0.0-218.0","task_version":"battery-v0.1"},{"rune":"B","hex":"#f73b6a7A","correct":-1,"choice":-1,"rt":-1,"accuracy":1,"outcome":"-10","keys":[],"total_keys":0,"block":2,"trial":216,"robot":4,"valence":"lose","action":"no-go","sham":1,"trial_type":"pit-trial","trial_index":230,"time_elapsed":961634,"internal_node_id":"0.0-219.0","task_version":"battery-v0.1"},{"rune":"V","hex":"#f73b6a7A","correct":32,"choice":32,"rt":694.359999964945,"accuracy":1,"outcome":"-10","keys":[2194.45499998983],"total_keys":1,"block":2,"trial":217,"robot":3,"valence":"lose","action":"go","sham":1,"trial_type":"pit-trial","trial_index":231,"time_elapsed":965035,"internal_node_id":"0.0-220.0","task_version":"battery-v0.1"},{"rune":"J","hex":"#f73b6a7A","correct":32,"choice":32,"rt":436.7449999554083,"accuracy":1,"outcome":"-1","keys":[1937.7000000094995],"total_keys":1,"block":2,"trial":218,"robot":3,"valence":"lose","action":"go","sham":0,"trial_type":"pit-trial","trial_index":232,"time_elapsed":968179,"internal_node_id":"0.0-221.0","task_version":"battery-v0.1"},{"rune":"B","hex":"#f73b6a7A","correct":-1,"choice":32,"rt":541.8899999931455,"accuracy":0,"outcome":"-10","keys":[2041.925000026822],"total_keys":1,"block":2,"trial":219,"robot":4,"valence":"lose","action":"no-go","sham":0,"trial_type":"pit-trial","trial_index":233,"time_elapsed":971426,"internal_node_id":"0.0-222.0","task_version":"battery-v0.1"},{"rune":"H","hex":"#3366ff99","correct":-1,"choice":-1,"rt":-1,"accuracy":1,"outcome":"+10","keys":[],"total_keys":0,"block":2,"trial":220,"robot":2,"valence":"win","action":"no-go","sham":0,"trial_type":"pit-trial","trial_index":234,"time_elapsed":975433,"internal_node_id":"0.0-223.0","task_version":"battery-v0.1"},{"rune":"H","hex":"#3366ff99","correct":-1,"choice":-1,"rt":-1,"accuracy":1,"outcome":"+1","keys":[],"total_keys":0,"block":2,"trial":221,"robot":2,"valence":"win","action":"no-go","sham":1,"trial_type":"pit-trial","trial_index":235,"time_elapsed":979440,"internal_node_id":"0.0-224.0","task_version":"battery-v0.1"},{"rune":"J","hex":"#f73b6a7A","correct":32,"choice":32,"rt":520.5950000090525,"accuracy":1,"outcome":"-10","keys":[2021.0500000976026],"total_keys":1,"block":2,"trial":222,"robot":3,"valence":"lose","action":"go","sham":1,"trial_type":"pit-trial","trial_index":236,"time_elapsed":982666,"internal_node_id":"0.0-225.0","task_version":"battery-v0.1"},{"rune":"B","hex":"#f73b6a7A","correct":-1,"choice":32,"rt":732.1799999335781,"accuracy":0,"outcome":"-10","keys":[2233.00999996718],"total_keys":1,"block":2,"trial":223,"robot":4,"valence":"lose","action":"no-go","sham":0,"trial_type":"pit-trial","trial_index":237,"time_elapsed":986106,"internal_node_id":"0.0-226.0","task_version":"battery-v0.1"},{"rune":"V","hex":"#f73b6a7A","correct":32,"choice":32,"rt":646.2149999570101,"accuracy":1,"outcome":"-1","keys":[2146.375000011176],"total_keys":1,"block":2,"trial":224,"robot":3,"valence":"lose","action":"go","sham":0,"trial_type":"pit-trial","trial_index":238,"time_elapsed":989458,"internal_node_id":"0.0-227.0","task_version":"battery-v0.1"},{"rune":"B","hex":"#f73b6a7A","correct":-1,"choice":32,"rt":990.129999932833,"accuracy":0,"outcome":"-1","keys":[2490.5600000638515],"total_keys":1,"block":2,"trial":225,"robot":4,"valence":"lose","action":"no-go","sham":1,"trial_type":"pit-trial","trial_index":239,"time_elapsed":993154,"internal_node_id":"0.0-228.0","task_version":"battery-v0.1"},{"rune":"J","hex":"#f73b6a7A","correct":32,"choice":32,"rt":494.17499999981374,"accuracy":1,"outcome":"-1","keys":[1994.2350001074374],"total_keys":1,"block":2,"trial":226,"robot":3,"valence":"lose","action":"go","sham":0,"trial_type":"pit-trial","trial_index":240,"time_elapsed":996354,"internal_node_id":"0.0-229.0","task_version":"battery-v0.1"},{"rune":"V","hex":"#f73b6a7A","correct":32,"choice":32,"rt":1070.560000021942,"accuracy":1,"outcome":"-10","keys":[2570.7049999618903],"total_keys":1,"block":2,"trial":227,"robot":3,"valence":"lose","action":"go","sham":1,"trial_type":"pit-trial","trial_index":241,"time_elapsed":1000130,"internal_node_id":"0.0-230.0","task_version":"battery-v0.1"},{"rune":"H","hex":"#3366ff99","correct":-1,"choice":-1,"rt":-1,"accuracy":1,"outcome":"+10","keys":[],"total_keys":0,"block":2,"trial":228,"robot":2,"valence":"win","action":"no-go","sham":0,"trial_type":"pit-trial","trial_index":242,"time_elapsed":1004136,"internal_node_id":"0.0-231.0","task_version":"battery-v0.1"},{"rune":"J","hex":"#f73b6a7A","correct":32,"choice":32,"rt":576.5499999979511,"accuracy":1,"outcome":"-1","keys":[2076.645000022836],"total_keys":1,"block":2,"trial":229,"robot":3,"valence":"lose","action":"go","sham":0,"trial_type":"pit-trial","trial_index":243,"time_elapsed":1007419,"internal_node_id":"0.0-232.0","task_version":"battery-v0.1"},{"rune":"H","hex":"#3366ff99","correct":-1,"choice":32,"rt":501.13500002771616,"accuracy":0,"outcome":"+10","keys":[2001.7199999419972],"total_keys":1,"block":2,"trial":230,"robot":2,"valence":"win","action":"no-go","sham":1,"trial_type":"pit-trial","trial_index":244,"time_elapsed":1010626,"internal_node_id":"0.0-233.0","task_version":"battery-v0.1"},{"rune":"B","hex":"#f73b6a7A","correct":-1,"choice":32,"rt":549.4900000048801,"accuracy":0,"outcome":"-10","keys":[2050.6149999564514],"total_keys":1,"block":2,"trial":231,"robot":4,"valence":"lose","action":"no-go","sham":0,"trial_type":"pit-trial","trial_index":245,"time_elapsed":1013883,"internal_node_id":"0.0-234.0","task_version":"battery-v0.1"},{"rune":"V","hex":"#f73b6a7A","correct":32,"choice":32,"rt":626.8599999602884,"accuracy":1,"outcome":"-1","keys":[2128.8500000955537],"total_keys":1,"block":2,"trial":232,"robot":3,"valence":"lose","action":"go","sham":0,"trial_type":"pit-trial","trial_index":246,"time_elapsed":1017218,"internal_node_id":"0.0-235.0","task_version":"battery-v0.1"},{"rune":"J","hex":"#f73b6a7A","correct":32,"choice":-1,"rt":-1,"accuracy":0,"outcome":"-10","keys":[],"total_keys":0,"block":2,"trial":233,"robot":3,"valence":"lose","action":"go","sham":0,"trial_type":"pit-trial","trial_index":247,"time_elapsed":1021224,"internal_node_id":"0.0-236.0","task_version":"battery-v0.1"},{"rune":"H","hex":"#3366ff99","correct":-1,"choice":32,"rt":591.1599999526516,"accuracy":0,"outcome":"+10","keys":[2092.2349999891594],"total_keys":1,"block":2,"trial":234,"robot":2,"valence":"win","action":"no-go","sham":1,"trial_type":"pit-trial","trial_index":248,"time_elapsed":1024523,"internal_node_id":"0.0-237.0","task_version":"battery-v0.1"},{"rune":"B","hex":"#f73b6a7A","correct":-1,"choice":32,"rt":621.29499996081,"accuracy":0,"outcome":"-10","keys":[2121.374999987893],"total_keys":1,"block":2,"trial":235,"robot":4,"valence":"lose","action":"no-go","sham":0,"trial_type":"pit-trial","trial_index":249,"time_elapsed":1027850,"internal_node_id":"0.0-238.0","task_version":"battery-v0.1"},{"rune":"V","hex":"#f73b6a7A","correct":32,"choice":32,"rt":1237.7400000113994,"accuracy":1,"outcome":"-1","keys":[2738.149999990128],"total_keys":1,"block":2,"trial":236,"robot":3,"valence":"lose","action":"go","sham":0,"trial_type":"pit-trial","trial_index":250,"time_elapsed":1031795,"internal_node_id":"0.0-239.0","task_version":"battery-v0.1"},{"rune":"J","hex":"#f73b6a7A","correct":32,"choice":32,"rt":835.774999926798,"accuracy":1,"outcome":"-1","keys":[2336.79500001017],"total_keys":1,"block":2,"trial":237,"robot":3,"valence":"lose","action":"go","sham":0,"trial_type":"pit-trial","trial_index":251,"time_elapsed":1035338,"internal_node_id":"0.0-240.0","task_version":"battery-v0.1"},{"rune":"V","hex":"#f73b6a7A","correct":32,"choice":32,"rt":596.8300000531599,"accuracy":1,"outcome":"-1","keys":[2096.9249999616295],"total_keys":1,"block":2,"trial":238,"robot":3,"valence":"lose","action":"go","sham":0,"trial_type":"pit-trial","trial_index":252,"time_elapsed":1038642,"internal_node_id":"0.0-241.0","task_version":"battery-v0.1"},{"rune":"H","hex":"#3366ff99","correct":-1,"choice":-1,"rt":-1,"accuracy":1,"outcome":"+10","keys":[],"total_keys":0,"block":2,"trial":239,"robot":2,"valence":"win","action":"no-go","sham":0,"trial_type":"pit-trial","trial_index":253,"time_elapsed":1042648,"internal_node_id":"0.0-242.0","task_version":"battery-v0.1"},{"rune":"B","hex":"#f73b6a7A","correct":-1,"choice":32,"rt":744.6800000034273,"accuracy":0,"outcome":"-10","keys":[2244.8050000239164],"total_keys":1,"block":2,"trial":240,"robot":4,"valence":"lose","action":"no-go","sham":0,"trial_type":"pit-trial","trial_index":254,"time_elapsed":1046098,"internal_node_id":"0.0-243.0","task_version":"battery-v0.1"},{"view_history":"[{\"page_index\":0,\"viewing_time\":3837.2800000943244}]","rt":3837.6200000056997,"trial_type":"pit-instructions","trial_index":255,"time_elapsed":1049941,"internal_node_id":"0.0-244.0","task_version":"battery-v0.1"},{"rt":13500.399999902584,"responses":{"age":"31","gender-categorical":"Male","gender-free-response":"","ethnicity":"Not Hispanic or Latino","race":["White"],"language":"Yes","fluency":"Very well"},"survey":"demographics","trial_type":"survey-demo","trial_index":256,"time_elapsed":1063448,"internal_node_id":"0.0-245.0","task_version":"battery-v0.1"},{"rt":37010.00999996904,"responses":{"difficulty":"2","fun":"1","clarity":"2","strategy":"no","feedback":"this took longer than 15 minutes"},"survey":"debrief","trial_type":"survey-debrief","trial_index":257,"time_elapsed":1100465,"internal_node_id":"0.0-246.0","task_version":"battery-v0.1","interactions":"[{\"event\":\"blur\",\"trial\":257,\"time\":1081574},{\"event\":\"focus\",\"trial\":257,\"time\":1083088}]"}]