[{"view_history":"[{\"page_index\":0,\"viewing_time\":2413.715000031516},{\"page_index\":1,\"viewing_time\":2791.5299999294803},{\"page_index\":2,\"viewing_time\":2144.0450000809506},{\"page_index\":3,\"viewing_time\":5503.8799999747425},{\"page_index\":4,\"viewing_time\":4983.649999951012},{\"page_index\":5,\"viewing_time\":4294.854999985546}]","rt":22132.044999976642,"trial_type":"pit-instructions","trial_index":0,"time_elapsed":22149,"internal_node_id":"0.0-0.0-0.0","task_version":"battery-v0.1"},{"rune":"","hex":"#FFFFF080","correct":32,"choice":32,"rt":376.48500001523644,"accuracy":1,"outcome":"+10","keys":[1876.7299999017268],"total_keys":1,"block":0,"trial_type":"pit-trial","trial_index":1,"time_elapsed":25230,"internal_node_id":"0.0-0.0-1.0-0.0","task_version":"battery-v0.1"},{"rune":"","hex":"#FFFFF080","correct":32,"choice":32,"rt":206.7500000121072,"accuracy":1,"outcome":"+10","keys":[1707.1850000647828],"total_keys":1,"block":0,"trial_type":"pit-trial","trial_index":2,"time_elapsed":28154,"internal_node_id":"0.0-0.0-1.0-0.1","task_version":"battery-v0.1"},{"rune":"","hex":"#FFFFF080","correct":32,"choice":32,"rt":162.4549999833107,"accuracy":1,"outcome":"+10","keys":[1662.9200000315905],"total_keys":1,"block":0,"trial_type":"pit-trial","trial_index":3,"time_elapsed":31021,"internal_node_id":"0.0-0.0-1.0-0.2","task_version":"battery-v0.1"},{"rune":"","hex":"#FFFFF080","correct":32,"choice":32,"rt":200.1450000097975,"accuracy":1,"outcome":"+10","keys":[1700.5699999863282],"total_keys":1,"block":0,"trial_type":"pit-trial","trial_index":4,"time_elapsed":33926,"internal_node_id":"0.0-0.0-1.0-0.3","task_version":"battery-v0.1"},{"view_history":"[{\"page_index\":0,\"viewing_time\":2332.3600000003353}]","rt":2332.660000072792,"trial_type":"pit-instructions","trial_index":5,"time_elapsed":36261,"internal_node_id":"0.0-0.0-2.0","task_version":"battery-v0.1"},{"rune":"","hex":"#FFFFF080","correct":-1,"choice":-1,"rt":-1,"accuracy":1,"outcome":"+10","keys":[],"total_keys":0,"block":0,"trial_type":"pit-trial","trial_index":6,"time_elapsed":40266,"internal_node_id":"0.0-0.0-3.0-0.0","task_version":"battery-v0.1"},{"rune":"","hex":"#FFFFF080","correct":-1,"choice":-1,"rt":-1,"accuracy":1,"outcome":"+10","keys":[],"total_keys":0,"block":0,"trial_type":"pit-trial","trial_index":7,"time_elapsed":44272,"internal_node_id":"0.0-0.0-3.0-0.1","task_version":"battery-v0.1"},{"rune":"","hex":"#FFFFF080","correct":-1,"choice":-1,"rt":-1,"accuracy":1,"outcome":"+10","keys":[],"total_keys":0,"block":0,"trial_type":"pit-trial","trial_index":8,"time_elapsed":48277,"internal_node_id":"0.0-0.0-3.0-0.2","task_version":"battery-v0.1"},{"rune":"","hex":"#FFFFF080","correct":-1,"choice":-1,"rt":-1,"accuracy":1,"outcome":"+10","keys":[],"total_keys":0,"block":0,"trial_type":"pit-trial","trial_index":9,"time_elapsed":52282,"internal_node_id":"0.0-0.0-3.0-0.3","task_version":"battery-v0.1"},{"responses":["Press SPACE","Do nothing"],"num_errors":0,"rt":7158.565000048839,"trial_type":"pit-comprehension","trial_index":10,"time_elapsed":59444,"internal_node_id":"0.0-0.0-4.0","task_version":"battery-v0.1"},{"view_history":"[{\"page_index\":0,\"viewing_time\":5193.71499994304},{\"page_index\":1,\"viewing_time\":6367.805000045337},{\"page_index\":2,\"viewing_time\":2999.904999975115},{\"page_index\":3,\"viewing_time\":4559.735000017099},{\"page_index\":4,\"viewing_time\":7655.689999926835},{\"page_index\":5,\"viewing_time\":28534.704999998212},{\"page_index\":6,\"viewing_time\":31326.695000054315},{\"page_index\":7,\"viewing_time\":10351.389999967068},{\"page_index\":8,\"viewing_time\":3959.785000071861},{\"page_index\":9,\"viewing_time\":2528.099999995902},{\"page_index\":10,\"viewing_time\":2887.8249999834225}]","rt":106365.66999997012,"trial_type":"pit-instructions","trial_index":11,"time_elapsed":165815,"internal_node_id":"0.0-1.0-0.0","task_version":"battery-v0.1"},{"responses":["+10","-1","True","True"],"num_errors":0,"rt":11316.730000078678,"trial_type":"pit-comprehension","trial_index":12,"time_elapsed":177136,"internal_node_id":"0.0-1.0-1.0","task_version":"battery-v0.1"},{"view_history":"[{\"page_index\":0,\"viewing_time\":1474.599999957718},{\"page_index\":1,\"viewing_time\":11231.554999947548}]","rt":12706.44999993965,"trial_type":"pit-instructions","trial_index":13,"time_elapsed":189846,"internal_node_id":"0.0-2.0","task_version":"battery-v0.1"},{"rune":"J","hex":"#f73b6a7A","correct":-1,"choice":-1,"rt":-1,"accuracy":1,"outcome":"-1","keys":[],"total_keys":0,"block":1,"trial":1,"robot":4,"valence":"lose","action":"no-go","sham":0,"trial_type":"pit-trial","trial_index":14,"time_elapsed":193852,"internal_node_id":"0.0-3.0","task_version":"battery-v0.1"},{"rune":"P","hex":"#3366ff99","correct":-1,"choice":-1,"rt":-1,"accuracy":1,"outcome":"+10","keys":[],"total_keys":0,"block":1,"trial":2,"robot":2,"valence":"win","action":"no-go","sham":0,"trial_type":"pit-trial","trial_index":15,"time_elapsed":197857,"internal_node_id":"0.0-4.0","task_version":"battery-v0.1"},{"rune":"U","hex":"#3366ff99","correct":32,"choice":-1,"rt":-1,"accuracy":0,"outcome":"+1","keys":[],"total_keys":0,"block":1,"trial":3,"robot":1,"valence":"win","action":"go","sham":0,"trial_type":"pit-trial","trial_index":16,"time_elapsed":201863,"internal_node_id":"0.0-5.0","task_version":"battery-v0.1"},{"rune":"N","hex":"#3366ff99","correct":32,"choice":-1,"rt":-1,"accuracy":0,"outcome":"+1","keys":[],"total_keys":0,"block":1,"trial":4,"robot":1,"valence":"win","action":"go","sham":0,"trial_type":"pit-trial","trial_index":17,"time_elapsed":205867,"internal_node_id":"0.0-6.0","task_version":"battery-v0.1"},{"rune":"U","hex":"#3366ff99","correct":32,"choice":32,"rt":642.3799999756739,"accuracy":1,"outcome":"+10","keys":[2142.6549999741837],"total_keys":1,"block":1,"trial":5,"robot":1,"valence":"win","action":"go","sham":0,"trial_type":"pit-trial","trial_index":18,"time_elapsed":209213,"internal_node_id":"0.0-7.0","task_version":"battery-v0.1"},{"rune":"N","hex":"#3366ff99","correct":32,"choice":32,"rt":495.72499992791563,"accuracy":1,"outcome":"+1","keys":[1996.4550000149757],"total_keys":1,"block":1,"trial":6,"robot":1,"valence":"win","action":"go","sham":1,"trial_type":"pit-trial","trial_index":19,"time_elapsed":212413,"internal_node_id":"0.0-8.0","task_version":"battery-v0.1"},{"rune":"J","hex":"#f73b6a7A","correct":-1,"choice":-1,"rt":-1,"accuracy":1,"outcome":"-1","keys":[],"total_keys":0,"block":1,"trial":7,"robot":4,"valence":"lose","action":"no-go","sham":0,"trial_type":"pit-trial","trial_index":20,"time_elapsed":216417,"internal_node_id":"0.0-9.0","task_version":"battery-v0.1"},{"rune":"P","hex":"#3366ff99","correct":-1,"choice":-1,"rt":-1,"accuracy":1,"outcome":"+10","keys":[],"total_keys":0,"block":1,"trial":8,"robot":2,"valence":"win","action":"no-go","sham":0,"trial_type":"pit-trial","trial_index":21,"time_elapsed":220422,"internal_node_id":"0.0-10.0","task_version":"battery-v0.1"},{"rune":"J","hex":"#f73b6a7A","correct":-1,"choice":-1,"rt":-1,"accuracy":1,"outcome":"-10","keys":[],"total_keys":0,"block":1,"trial":9,"robot":4,"valence":"lose","action":"no-go","sham":1,"trial_type":"pit-trial","trial_index":22,"time_elapsed":224427,"internal_node_id":"0.0-11.0","task_version":"battery-v0.1"},{"rune":"U","hex":"#3366ff99","correct":32,"choice":32,"rt":416.5849999990314,"accuracy":1,"outcome":"+1","keys":[1918.0499999783933],"total_keys":1,"block":1,"trial":10,"robot":1,"valence":"win","action":"go","sham":1,"trial_type":"pit-trial","trial_index":23,"time_elapsed":227549,"internal_node_id":"0.0-12.0","task_version":"battery-v0.1"},{"rune":"N","hex":"#3366ff99","correct":32,"choice":32,"rt":351.8400000175461,"accuracy":1,"outcome":"+10","keys":[1852.0299999509007],"total_keys":1,"block":1,"trial":11,"robot":1,"valence":"win","action":"go","sham":0,"trial_type":"pit-trial","trial_index":24,"time_elapsed":230605,"internal_node_id":"0.0-13.0","task_version":"battery-v0.1"},{"rune":"P","hex":"#3366ff99","correct":-1,"choice":-1,"rt":-1,"accuracy":1,"outcome":"+10","keys":[],"total_keys":0,"block":1,"trial":12,"robot":2,"valence":"win","action":"no-go","sham":0,"trial_type":"pit-trial","trial_index":25,"time_elapsed":234610,"internal_node_id":"0.0-14.0","task_version":"battery-v0.1"},{"rune":"J","hex":"#f73b6a7A","correct":-1,"choice":-1,"rt":-1,"accuracy":1,"outcome":"-10","keys":[],"total_keys":0,"block":1,"trial":13,"robot":4,"valence":"lose","action":"no-go","sham":1,"trial_type":"pit-trial","trial_index":26,"time_elapsed":238614,"internal_node_id":"0.0-15.0","task_version":"battery-v0.1"},{"rune":"U","hex":"#3366ff99","correct":32,"choice":32,"rt":340.8300000010058,"accuracy":1,"outcome":"+10","keys":[1841.8350000865757],"total_keys":1,"block":1,"trial":14,"robot":1,"valence":"win","action":"go","sham":0,"trial_type":"pit-trial","trial_index":27,"time_elapsed":241660,"internal_node_id":"0.0-16.0","task_version":"battery-v0.1"},{"rune":"P","hex":"#3366ff99","correct":-1,"choice":-1,"rt":-1,"accuracy":1,"outcome":"+10","keys":[],"total_keys":0,"block":1,"trial":15,"robot":2,"valence":"win","action":"no-go","sham":0,"trial_type":"pit-trial","trial_index":28,"time_elapsed":245666,"internal_node_id":"0.0-17.0","task_version":"battery-v0.1"},{"rune":"N","hex":"#3366ff99","correct":32,"choice":32,"rt":641.4300000760704,"accuracy":1,"outcome":"+1","keys":[2141.5349999442697],"total_keys":1,"block":1,"trial":16,"robot":1,"valence":"win","action":"go","sham":1,"trial_type":"pit-trial","trial_index":29,"time_elapsed":249011,"internal_node_id":"0.0-18.0","task_version":"battery-v0.1"},{"rune":"P","hex":"#3366ff99","correct":-1,"choice":-1,"rt":-1,"accuracy":1,"outcome":"+10","keys":[],"total_keys":0,"block":1,"trial":17,"robot":2,"valence":"win","action":"no-go","sham":0,"trial_type":"pit-trial","trial_index":30,"time_elapsed":253015,"internal_node_id":"0.0-19.0","task_version":"battery-v0.1"},{"rune":"J","hex":"#f73b6a7A","correct":-1,"choice":32,"rt":403.47500005736947,"accuracy":0,"outcome":"-10","keys":[1903.7999999709427],"total_keys":1,"block":1,"trial":18,"robot":4,"valence":"lose","action":"no-go","sham":0,"trial_type":"pit-trial","trial_index":31,"time_elapsed":256123,"internal_node_id":"0.0-20.0","task_version":"battery-v0.1"},{"rune":"U","hex":"#3366ff99","correct":32,"choice":32,"rt":582.2949999710545,"accuracy":1,"outcome":"+1","keys":[2083.290000096895],"total_keys":1,"block":1,"trial":19,"robot":1,"valence":"win","action":"go","sham":1,"trial_type":"pit-trial","trial_index":32,"time_elapsed":259411,"internal_node_id":"0.0-21.0","task_version":"battery-v0.1"},{"rune":"N","hex":"#3366ff99","correct":32,"choice":-1,"rt":-1,"accuracy":0,"outcome":"+1","keys":[],"total_keys":0,"block":1,"trial":20,"robot":1,"valence":"win","action":"go","sham":0,"trial_type":"pit-trial","trial_index":33,"time_elapsed":263416,"internal_node_id":"0.0-22.0","task_version":"battery-v0.1"},{"rune":"N","hex":"#3366ff99","correct":32,"choice":-1,"rt":-1,"accuracy":0,"outcome":"+1","keys":[],"total_keys":0,"block":1,"trial":21,"robot":1,"valence":"win","action":"go","sham":0,"trial_type":"pit-trial","trial_index":34,"time_elapsed":267422,"internal_node_id":"0.0-23.0","task_version":"battery-v0.1"},{"rune":"J","hex":"#f73b6a7A","correct":-1,"choice":-1,"rt":-1,"accuracy":1,"outcome":"-1","keys":[],"total_keys":0,"block":1,"trial":22,"robot":4,"valence":"lose","action":"no-go","sham":0,"trial_type":"pit-trial","trial_index":35,"time_elapsed":271426,"internal_node_id":"0.0-24.0","task_version":"battery-v0.1"},{"rune":"P","hex":"#3366ff99","correct":-1,"choice":-1,"rt":-1,"accuracy":1,"outcome":"+10","keys":[],"total_keys":0,"block":1,"trial":23,"robot":2,"valence":"win","action":"no-go","sham":0,"trial_type":"pit-trial","trial_index":36,"time_elapsed":275431,"internal_node_id":"0.0-25.0","task_version":"battery-v0.1"},{"rune":"U","hex":"#3366ff99","correct":32,"choice":32,"rt":402.2150000091642,"accuracy":1,"outcome":"+1","keys":[1903.7650000536814],"total_keys":1,"block":1,"trial":24,"robot":1,"valence":"win","action":"go","sham":1,"trial_type":"pit-trial","trial_index":37,"time_elapsed":278538,"internal_node_id":"0.0-26.0","task_version":"battery-v0.1"},{"rune":"N","hex":"#3366ff99","correct":32,"choice":32,"rt":479.50500005390495,"accuracy":1,"outcome":"+10","keys":[1980.2599999820814],"total_keys":1,"block":1,"trial":25,"robot":1,"valence":"win","action":"go","sham":0,"trial_type":"pit-trial","trial_index":38,"time_elapsed":281722,"internal_node_id":"0.0-27.0","task_version":"battery-v0.1"},{"rune":"U","hex":"#3366ff99","correct":32,"choice":32,"rt":519.6350000333041,"accuracy":1,"outcome":"+1","keys":[2019.869999960065],"total_keys":1,"block":1,"trial":26,"robot":1,"valence":"win","action":"go","sham":1,"trial_type":"pit-trial","trial_index":39,"time_elapsed":284946,"internal_node_id":"0.0-28.0","task_version":"battery-v0.1"},{"rune":"J","hex":"#f73b6a7A","correct":-1,"choice":-1,"rt":-1,"accuracy":1,"outcome":"-1","keys":[],"total_keys":0,"block":1,"trial":27,"robot":4,"valence":"lose","action":"no-go","sham":0,"trial_type":"pit-trial","trial_index":40,"time_elapsed":288951,"internal_node_id":"0.0-29.0","task_version":"battery-v0.1"},{"rune":"P","hex":"#3366ff99","correct":-1,"choice":-1,"rt":-1,"accuracy":1,"outcome":"+1","keys":[],"total_keys":0,"block":1,"trial":28,"robot":2,"valence":"win","action":"no-go","sham":1,"trial_type":"pit-trial","trial_index":41,"time_elapsed":292956,"internal_node_id":"0.0-30.0","task_version":"battery-v0.1"},{"rune":"J","hex":"#f73b6a7A","correct":-1,"choice":-1,"rt":-1,"accuracy":1,"outcome":"-1","keys":[],"total_keys":0,"block":1,"trial":29,"robot":4,"valence":"lose","action":"no-go","sham":0,"trial_type":"pit-trial","trial_index":42,"time_elapsed":296961,"internal_node_id":"0.0-31.0","task_version":"battery-v0.1"},{"rune":"N","hex":"#3366ff99","correct":32,"choice":32,"rt":391.83500001672655,"accuracy":1,"outcome":"+10","keys":[1892.3550000181422],"total_keys":1,"block":1,"trial":30,"robot":1,"valence":"win","action":"go","sham":0,"trial_type":"pit-trial","trial_index":43,"time_elapsed":300057,"internal_node_id":"0.0-32.0","task_version":"battery-v0.1"},{"rune":"U","hex":"#3366ff99","correct":32,"choice":32,"rt":407.4050000635907,"accuracy":1,"outcome":"+10","keys":[1907.9899999778718],"total_keys":1,"block":1,"trial":31,"robot":1,"valence":"win","action":"go","sham":0,"trial_type":"pit-trial","trial_index":44,"time_elapsed":303169,"internal_node_id":"0.0-33.0","task_version":"battery-v0.1"},{"rune":"P","hex":"#3366ff99","correct":-1,"choice":-1,"rt":-1,"accuracy":1,"outcome":"+10","keys":[],"total_keys":0,"block":1,"trial":32,"robot":2,"valence":"win","action":"no-go","sham":0,"trial_type":"pit-trial","trial_index":45,"time_elapsed":307174,"internal_node_id":"0.0-34.0","task_version":"battery-v0.1"},{"rune":"N","hex":"#3366ff99","correct":32,"choice":32,"rt":466.97999991010875,"accuracy":1,"outcome":"+10","keys":[1967.0800000894815],"total_keys":1,"block":1,"trial":33,"robot":1,"valence":"win","action":"go","sham":0,"trial_type":"pit-trial","trial_index":46,"time_elapsed":310346,"internal_node_id":"0.0-35.0","task_version":"battery-v0.1"},{"rune":"P","hex":"#3366ff99","correct":-1,"choice":-1,"rt":-1,"accuracy":1,"outcome":"+10","keys":[],"total_keys":0,"block":1,"trial":34,"robot":2,"valence":"win","action":"no-go","sham":0,"trial_type":"pit-trial","trial_index":47,"time_elapsed":314351,"internal_node_id":"0.0-36.0","task_version":"battery-v0.1"},{"rune":"J","hex":"#f73b6a7A","correct":-1,"choice":-1,"rt":-1,"accuracy":1,"outcome":"-10","keys":[],"total_keys":0,"block":1,"trial":35,"robot":4,"valence":"lose","action":"no-go","sham":1,"trial_type":"pit-trial","trial_index":48,"time_elapsed":318355,"internal_node_id":"0.0-37.0","task_version":"battery-v0.1"},{"rune":"Y","hex":"#3366ff99","correct":32,"choice":32,"rt":885.1100000320002,"accuracy":1,"outcome":"+1","keys":[2385.3649999946356],"total_keys":1,"block":1,"trial":36,"robot":1,"valence":"win","action":"go","sham":1,"trial_type":"pit-trial","trial_index":49,"time_elapsed":321945,"internal_node_id":"0.0-38.0","task_version":"battery-v0.1"},{"rune":"P","hex":"#3366ff99","correct":-1,"choice":-1,"rt":-1,"accuracy":1,"outcome":"+10","keys":[],"total_keys":0,"block":1,"trial":37,"robot":2,"valence":"win","action":"no-go","sham":0,"trial_type":"pit-trial","trial_index":50,"time_elapsed":325951,"internal_node_id":"0.0-39.0","task_version":"battery-v0.1"},{"rune":"N","hex":"#3366ff99","correct":32,"choice":32,"rt":472.4100000457838,"accuracy":1,"outcome":"+10","keys":[1972.9099998949096],"total_keys":1,"block":1,"trial":38,"robot":1,"valence":"win","action":"go","sham":0,"trial_type":"pit-trial","trial_index":51,"time_elapsed":329128,"internal_node_id":"0.0-40.0","task_version":"battery-v0.1"},{"rune":"Y","hex":"#3366ff99","correct":32,"choice":-1,"rt":-1,"accuracy":0,"outcome":"+1","keys":[],"total_keys":0,"block":1,"trial":39,"robot":1,"valence":"win","action":"go","sham":0,"trial_type":"pit-trial","trial_index":52,"time_elapsed":333133,"internal_node_id":"0.0-41.0","task_version":"battery-v0.1"},{"rune":"J","hex":"#f73b6a7A","correct":-1,"choice":-1,"rt":-1,"accuracy":1,"outcome":"-1","keys":[],"total_keys":0,"block":1,"trial":40,"robot":4,"valence":"lose","action":"no-go","sham":0,"trial_type":"pit-trial","trial_index":53,"time_elapsed":337137,"internal_node_id":"0.0-42.0","task_version":"battery-v0.1"},{"rune":"P","hex":"#3366ff99","correct":-1,"choice":-1,"rt":-1,"accuracy":1,"outcome":"+1","keys":[],"total_keys":0,"block":1,"trial":41,"robot":2,"valence":"win","action":"no-go","sham":1,"trial_type":"pit-trial","trial_index":54,"time_elapsed":341142,"internal_node_id":"0.0-43.0","task_version":"battery-v0.1"},{"rune":"W","hex":"#f73b6a7A","correct":32,"choice":-1,"rt":-1,"accuracy":0,"outcome":"-1","keys":[],"total_keys":0,"block":1,"trial":42,"robot":3,"valence":"lose","action":"go","sham":1,"trial_type":"pit-trial","trial_index":55,"time_elapsed":345147,"internal_node_id":"0.0-44.0","task_version":"battery-v0.1"},{"rune":"Y","hex":"#3366ff99","correct":32,"choice":32,"rt":684.5400000456721,"accuracy":1,"outcome":"+10","keys":[2184.5850000390783],"total_keys":1,"block":1,"trial":43,"robot":1,"valence":"win","action":"go","sham":0,"trial_type":"pit-trial","trial_index":56,"time_elapsed":348536,"internal_node_id":"0.0-45.0","task_version":"battery-v0.1"},{"rune":"V","hex":"#f73b6a7A","correct":-1,"choice":-1,"rt":-1,"accuracy":1,"outcome":"-1","keys":[],"total_keys":0,"block":1,"trial":44,"robot":4,"valence":"lose","action":"no-go","sham":0,"trial_type":"pit-trial","trial_index":57,"time_elapsed":352541,"internal_node_id":"0.0-46.0","task_version":"battery-v0.1"},{"rune":"V","hex":"#f73b6a7A","correct":-1,"choice":-1,"rt":-1,"accuracy":1,"outcome":"-1","keys":[],"total_keys":0,"block":1,"trial":45,"robot":4,"valence":"lose","action":"no-go","sham":0,"trial_type":"pit-trial","trial_index":58,"time_elapsed":356547,"internal_node_id":"0.0-47.0","task_version":"battery-v0.1"},{"rune":"P","hex":"#3366ff99","correct":-1,"choice":-1,"rt":-1,"accuracy":1,"outcome":"+10","keys":[],"total_keys":0,"block":1,"trial":46,"robot":2,"valence":"win","action":"no-go","sham":0,"trial_type":"pit-trial","trial_index":59,"time_elapsed":360551,"internal_node_id":"0.0-48.0","task_version":"battery-v0.1"},{"rune":"W","hex":"#f73b6a7A","correct":32,"choice":-1,"rt":-1,"accuracy":0,"outcome":"-10","keys":[],"total_keys":0,"block":1,"trial":47,"robot":3,"valence":"lose","action":"go","sham":0,"trial_type":"pit-trial","trial_index":60,"time_elapsed":364556,"internal_node_id":"0.0-49.0","task_version":"battery-v0.1"},{"rune":"Y","hex":"#3366ff99","correct":32,"choice":-1,"rt":-1,"accuracy":0,"outcome":"+1","keys":[],"total_keys":0,"block":1,"trial":48,"robot":1,"valence":"win","action":"go","sham":0,"trial_type":"pit-trial","trial_index":61,"time_elapsed":368562,"internal_node_id":"0.0-50.0","task_version":"battery-v0.1"},{"rune":"H","hex":"#3366ff99","correct":-1,"choice":-1,"rt":-1,"accuracy":1,"outcome":"+10","keys":[],"total_keys":0,"block":1,"trial":49,"robot":2,"valence":"win","action":"no-go","sham":0,"trial_type":"pit-trial","trial_index":62,"time_elapsed":372566,"internal_node_id":"0.0-51.0","task_version":"battery-v0.1"},{"rune":"W","hex":"#f73b6a7A","correct":32,"choice":-1,"rt":-1,"accuracy":0,"outcome":"-10","keys":[],"total_keys":0,"block":1,"trial":50,"robot":3,"valence":"lose","action":"go","sham":0,"trial_type":"pit-trial","trial_index":63,"time_elapsed":376571,"internal_node_id":"0.0-52.0","task_version":"battery-v0.1"},{"rune":"Y","hex":"#3366ff99","correct":32,"choice":-1,"rt":-1,"accuracy":0,"outcome":"+1","keys":[3263.3900000946596],"total_keys":1,"block":1,"trial":51,"robot":1,"valence":"win","action":"go","sham":0,"trial_type":"pit-trial","trial_index":64,"time_elapsed":380575,"internal_node_id":"0.0-53.0","task_version":"battery-v0.1"},{"rune":"V","hex":"#f73b6a7A","correct":-1,"choice":-1,"rt":-1,"accuracy":1,"outcome":"-1","keys":[],"total_keys":0,"block":1,"trial":52,"robot":4,"valence":"lose","action":"no-go","sham":0,"trial_type":"pit-trial","trial_index":65,"time_elapsed":384580,"internal_node_id":"0.0-54.0","task_version":"battery-v0.1"},{"rune":"H","hex":"#3366ff99","correct":-1,"choice":-1,"rt":-1,"accuracy":1,"outcome":"+10","keys":[],"total_keys":0,"block":1,"trial":53,"robot":2,"valence":"win","action":"no-go","sham":0,"trial_type":"pit-trial","trial_index":66,"time_elapsed":388584,"internal_node_id":"0.0-55.0","task_version":"battery-v0.1"},{"rune":"W","hex":"#f73b6a7A","correct":32,"choice":32,"rt":484.87499996554106,"accuracy":1,"outcome":"-1","keys":[1985.2099999552593],"total_keys":1,"block":1,"trial":54,"robot":3,"valence":"lose","action":"go","sham":0,"trial_type":"pit-trial","trial_index":67,"time_elapsed":391773,"internal_node_id":"0.0-56.0","task_version":"battery-v0.1"},{"rune":"V","hex":"#f73b6a7A","correct":-1,"choice":-1,"rt":-1,"accuracy":1,"outcome":"-1","keys":[],"total_keys":0,"block":1,"trial":55,"robot":4,"valence":"lose","action":"no-go","sham":0,"trial_type":"pit-trial","trial_index":68,"time_elapsed":395777,"internal_node_id":"0.0-57.0","task_version":"battery-v0.1"},{"rune":"Y","hex":"#3366ff99","correct":32,"choice":32,"rt":436.3750000484288,"accuracy":1,"outcome":"+10","keys":[1936.3900000462309],"total_keys":1,"block":1,"trial":56,"robot":1,"valence":"win","action":"go","sham":0,"trial_type":"pit-trial","trial_index":69,"time_elapsed":398917,"internal_node_id":"0.0-58.0","task_version":"battery-v0.1"},{"rune":"W","hex":"#f73b6a7A","correct":32,"choice":32,"rt":560.0700000068173,"accuracy":1,"outcome":"-1","keys":[2060.1599999936298],"total_keys":1,"block":1,"trial":57,"robot":3,"valence":"lose","action":"go","sham":0,"trial_type":"pit-trial","trial_index":70,"time_elapsed":402180,"internal_node_id":"0.0-59.0","task_version":"battery-v0.1"},{"rune":"Y","hex":"#3366ff99","correct":32,"choice":32,"rt":575.5700001027435,"accuracy":1,"outcome":"+10","keys":[2076.370000024326],"total_keys":1,"block":1,"trial":58,"robot":1,"valence":"win","action":"go","sham":0,"trial_type":"pit-trial","trial_index":71,"time_elapsed":405460,"internal_node_id":"0.0-60.0","task_version":"battery-v0.1"},{"rune":"H","hex":"#3366ff99","correct":-1,"choice":-1,"rt":-1,"accuracy":1,"outcome":"+10","keys":[],"total_keys":0,"block":1,"trial":59,"robot":2,"valence":"win","action":"no-go","sham":0,"trial_type":"pit-trial","trial_index":72,"time_elapsed":409465,"internal_node_id":"0.0-61.0","task_version":"battery-v0.1"},{"rune":"V","hex":"#f73b6a7A","correct":-1,"choice":-1,"rt":-1,"accuracy":1,"outcome":"-1","keys":[],"total_keys":0,"block":1,"trial":60,"robot":4,"valence":"lose","action":"no-go","sham":0,"trial_type":"pit-trial","trial_index":73,"time_elapsed":413469,"internal_node_id":"0.0-62.0","task_version":"battery-v0.1"},{"rune":"H","hex":"#3366ff99","correct":-1,"choice":-1,"rt":-1,"accuracy":1,"outcome":"+10","keys":[],"total_keys":0,"block":1,"trial":61,"robot":2,"valence":"win","action":"no-go","sham":0,"trial_type":"pit-trial","trial_index":74,"time_elapsed":417473,"internal_node_id":"0.0-63.0","task_version":"battery-v0.1"},{"rune":"W","hex":"#f73b6a7A","correct":32,"choice":32,"rt":843.0099999532104,"accuracy":1,"outcome":"-1","keys":[2343.7100000446662],"total_keys":1,"block":1,"trial":62,"robot":3,"valence":"lose","action":"go","sham":0,"trial_type":"pit-trial","trial_index":75,"time_elapsed":421021,"internal_node_id":"0.0-64.0","task_version":"battery-v0.1"},{"rune":"V","hex":"#f73b6a7A","correct":-1,"choice":-1,"rt":-1,"accuracy":1,"outcome":"-1","keys":[],"total_keys":0,"block":1,"trial":63,"robot":4,"valence":"lose","action":"no-go","sham":0,"trial_type":"pit-trial","trial_index":76,"time_elapsed":425025,"internal_node_id":"0.0-65.0","task_version":"battery-v0.1"},{"rune":"Y","hex":"#3366ff99","correct":32,"choice":32,"rt":434.06499992124736,"accuracy":1,"outcome":"+1","keys":[1934.6549999900162],"total_keys":1,"block":1,"trial":64,"robot":1,"valence":"win","action":"go","sham":1,"trial_type":"pit-trial","trial_index":77,"time_elapsed":428163,"internal_node_id":"0.0-66.0","task_version":"battery-v0.1"},{"rune":"Y","hex":"#3366ff99","correct":32,"choice":32,"rt":455.6199999060482,"accuracy":1,"outcome":"+1","keys":[1956.4249999821186],"total_keys":1,"block":1,"trial":65,"robot":1,"valence":"win","action":"go","sham":1,"trial_type":"pit-trial","trial_index":78,"time_elapsed":431324,"internal_node_id":"0.0-67.0","task_version":"battery-v0.1"},{"rune":"H","hex":"#3366ff99","correct":-1,"choice":-1,"rt":-1,"accuracy":1,"outcome":"+10","keys":[],"total_keys":0,"block":1,"trial":66,"robot":2,"valence":"win","action":"no-go","sham":0,"trial_type":"pit-trial","trial_index":79,"time_elapsed":435329,"internal_node_id":"0.0-68.0","task_version":"battery-v0.1"},{"rune":"V","hex":"#f73b6a7A","correct":-1,"choice":-1,"rt":-1,"accuracy":1,"outcome":"-1","keys":[],"total_keys":0,"block":1,"trial":67,"robot":4,"valence":"lose","action":"no-go","sham":0,"trial_type":"pit-trial","trial_index":80,"time_elapsed":439333,"internal_node_id":"0.0-69.0","task_version":"battery-v0.1"},{"rune":"W","hex":"#f73b6a7A","correct":32,"choice":32,"rt":277.3249999154359,"accuracy":1,"outcome":"-10","keys":[1778.1599999871105],"total_keys":1,"block":1,"trial":68,"robot":3,"valence":"lose","action":"go","sham":1,"trial_type":"pit-trial","trial_index":81,"time_elapsed":442315,"internal_node_id":"0.0-70.0","task_version":"battery-v0.1"},{"rune":"Y","hex":"#3366ff99","correct":32,"choice":32,"rt":488.25499997474253,"accuracy":1,"outcome":"+10","keys":[1988.7899999739602],"total_keys":1,"block":1,"trial":69,"robot":1,"valence":"win","action":"go","sham":0,"trial_type":"pit-trial","trial_index":82,"time_elapsed":445508,"internal_node_id":"0.0-71.0","task_version":"battery-v0.1"},{"rune":"W","hex":"#f73b6a7A","correct":32,"choice":32,"rt":502.66500003635883,"accuracy":1,"outcome":"-1","keys":[2002.9099999228492],"total_keys":1,"block":1,"trial":70,"robot":3,"valence":"lose","action":"go","sham":0,"trial_type":"pit-trial","trial_index":83,"time_elapsed":448715,"internal_node_id":"0.0-72.0","task_version":"battery-v0.1"},{"rune":"H","hex":"#3366ff99","correct":-1,"choice":-1,"rt":-1,"accuracy":1,"outcome":"+10","keys":[],"total_keys":0,"block":1,"trial":71,"robot":2,"valence":"win","action":"no-go","sham":0,"trial_type":"pit-trial","trial_index":84,"time_elapsed":452719,"internal_node_id":"0.0-73.0","task_version":"battery-v0.1"},{"rune":"V","hex":"#f73b6a7A","correct":-1,"choice":-1,"rt":-1,"accuracy":1,"outcome":"-10","keys":[],"total_keys":0,"block":1,"trial":72,"robot":4,"valence":"lose","action":"no-go","sham":1,"trial_type":"pit-trial","trial_index":85,"time_elapsed":456724,"internal_node_id":"0.0-74.0","task_version":"battery-v0.1"},{"rune":"H","hex":"#3366ff99","correct":-1,"choice":-1,"rt":-1,"accuracy":1,"outcome":"+10","keys":[],"total_keys":0,"block":1,"trial":73,"robot":2,"valence":"win","action":"no-go","sham":0,"trial_type":"pit-trial","trial_index":86,"time_elapsed":460728,"internal_node_id":"0.0-75.0","task_version":"battery-v0.1"},{"rune":"Y","hex":"#3366ff99","correct":32,"choice":32,"rt":433.4749999688938,"accuracy":1,"outcome":"+10","keys":[1934.2649999307469],"total_keys":1,"block":1,"trial":74,"robot":1,"valence":"win","action":"go","sham":0,"trial_type":"pit-trial","trial_index":87,"time_elapsed":463866,"internal_node_id":"0.0-76.0","task_version":"battery-v0.1"},{"rune":"L","hex":"#f73b6a7A","correct":32,"choice":-1,"rt":-1,"accuracy":0,"outcome":"-10","keys":[],"total_keys":0,"block":1,"trial":75,"robot":3,"valence":"lose","action":"go","sham":0,"trial_type":"pit-trial","trial_index":88,"time_elapsed":467871,"internal_node_id":"0.0-77.0","task_version":"battery-v0.1"},{"rune":"V","hex":"#f73b6a7A","correct":-1,"choice":-1,"rt":-1,"accuracy":1,"outcome":"-1","keys":[],"total_keys":0,"block":1,"trial":76,"robot":4,"valence":"lose","action":"no-go","sham":0,"trial_type":"pit-trial","trial_index":89,"time_elapsed":471878,"internal_node_id":"0.0-78.0","task_version":"battery-v0.1"},{"rune":"H","hex":"#3366ff99","correct":-1,"choice":-1,"rt":-1,"accuracy":1,"outcome":"+10","keys":[],"total_keys":0,"block":1,"trial":77,"robot":2,"valence":"win","action":"no-go","sham":0,"trial_type":"pit-trial","trial_index":90,"time_elapsed":475882,"internal_node_id":"0.0-79.0","task_version":"battery-v0.1"},{"rune":"L","hex":"#f73b6a7A","correct":32,"choice":32,"rt":495.5449999542907,"accuracy":1,"outcome":"-1","keys":[1995.8849999820814],"total_keys":1,"block":1,"trial":78,"robot":3,"valence":"lose","action":"go","sham":0,"trial_type":"pit-trial","trial_index":91,"time_elapsed":479082,"internal_node_id":"0.0-80.0","task_version":"battery-v0.1"},{"rune":"V","hex":"#f73b6a7A","correct":-1,"choice":-1,"rt":-1,"accuracy":1,"outcome":"-10","keys":[],"total_keys":0,"block":1,"trial":79,"robot":4,"valence":"lose","action":"no-go","sham":1,"trial_type":"pit-trial","trial_index":92,"time_elapsed":483086,"internal_node_id":"0.0-81.0","task_version":"battery-v0.1"},{"rune":"Y","hex":"#3366ff99","correct":32,"choice":32,"rt":442.94500001706183,"accuracy":1,"outcome":"+10","keys":[1943.6400000704452],"total_keys":1,"block":1,"trial":80,"robot":1,"valence":"win","action":"go","sham":0,"trial_type":"pit-trial","trial_index":93,"time_elapsed":486233,"internal_node_id":"0.0-82.0","task_version":"battery-v0.1"},{"rune":"H","hex":"#3366ff99","correct":-1,"choice":-1,"rt":-1,"accuracy":1,"outcome":"+10","keys":[],"total_keys":0,"block":1,"trial":81,"robot":2,"valence":"win","action":"no-go","sham":0,"trial_type":"pit-trial","trial_index":94,"time_elapsed":490238,"internal_node_id":"0.0-83.0","task_version":"battery-v0.1"},{"rune":"V","hex":"#f73b6a7A","correct":-1,"choice":-1,"rt":-1,"accuracy":1,"outcome":"-1","keys":[],"total_keys":0,"block":1,"trial":82,"robot":4,"valence":"lose","action":"no-go","sham":0,"trial_type":"pit-trial","trial_index":95,"time_elapsed":494242,"internal_node_id":"0.0-84.0","task_version":"battery-v0.1"},{"rune":"L","hex":"#f73b6a7A","correct":32,"choice":32,"rt":326.1750000528991,"accuracy":1,"outcome":"-1","keys":[1826.7800000030547],"total_keys":1,"block":1,"trial":83,"robot":3,"valence":"lose","action":"go","sham":0,"trial_type":"pit-trial","trial_index":96,"time_elapsed":497274,"internal_node_id":"0.0-85.0","task_version":"battery-v0.1"},{"rune":"G","hex":"#f73b6a7A","correct":32,"choice":-1,"rt":-1,"accuracy":0,"outcome":"-1","keys":[],"total_keys":0,"block":1,"trial":84,"robot":3,"valence":"lose","action":"go","sham":1,"trial_type":"pit-trial","trial_index":97,"time_elapsed":501279,"internal_node_id":"0.0-86.0","task_version":"battery-v0.1"},{"rune":"G","hex":"#f73b6a7A","correct":32,"choice":-1,"rt":-1,"accuracy":0,"outcome":"-10","keys":[],"total_keys":0,"block":1,"trial":85,"robot":3,"valence":"lose","action":"go","sham":0,"trial_type":"pit-trial","trial_index":98,"time_elapsed":505284,"internal_node_id":"0.0-87.0","task_version":"battery-v0.1"},{"rune":"L","hex":"#f73b6a7A","correct":32,"choice":32,"rt":548.3600000152364,"accuracy":1,"outcome":"-10","keys":[2048.630000092089],"total_keys":1,"block":1,"trial":86,"robot":3,"valence":"lose","action":"go","sham":1,"trial_type":"pit-trial","trial_index":99,"time_elapsed":508536,"internal_node_id":"0.0-88.0","task_version":"battery-v0.1"},{"rune":"H","hex":"#3366ff99","correct":-1,"choice":-1,"rt":-1,"accuracy":1,"outcome":"+1","keys":[],"total_keys":0,"block":1,"trial":87,"robot":2,"valence":"win","action":"no-go","sham":1,"trial_type":"pit-trial","trial_index":100,"time_elapsed":512541,"internal_node_id":"0.0-89.0","task_version":"battery-v0.1"},{"rune":"V","hex":"#f73b6a7A","correct":-1,"choice":-1,"rt":-1,"accuracy":1,"outcome":"-1","keys":[],"total_keys":0,"block":1,"trial":88,"robot":4,"valence":"lose","action":"no-go","sham":0,"trial_type":"pit-trial","trial_index":101,"time_elapsed":516545,"internal_node_id":"0.0-90.0","task_version":"battery-v0.1"},{"rune":"L","hex":"#f73b6a7A","correct":32,"choice":32,"rt":582.7300000237301,"accuracy":1,"outcome":"-1","keys":[2083.28000002075],"total_keys":1,"block":1,"trial":89,"robot":3,"valence":"lose","action":"go","sham":0,"trial_type":"pit-trial","trial_index":102,"time_elapsed":519833,"internal_node_id":"0.0-91.0","task_version":"battery-v0.1"},{"rune":"I","hex":"#f73b6a7A","correct":-1,"choice":-1,"rt":-1,"accuracy":1,"outcome":"-1","keys":[],"total_keys":0,"block":1,"trial":90,"robot":4,"valence":"lose","action":"no-go","sham":0,"trial_type":"pit-trial","trial_index":103,"time_elapsed":523837,"internal_node_id":"0.0-92.0","task_version":"battery-v0.1"},{"rune":"G","hex":"#f73b6a7A","correct":32,"choice":-1,"rt":-1,"accuracy":0,"outcome":"-10","keys":[],"total_keys":0,"block":1,"trial":91,"robot":3,"valence":"lose","action":"go","sham":0,"trial_type":"pit-trial","trial_index":104,"time_elapsed":527841,"internal_node_id":"0.0-93.0","task_version":"battery-v0.1"},{"rune":"C","hex":"#3366ff99","correct":-1,"choice":-1,"rt":-1,"accuracy":1,"outcome":"+10","keys":[],"total_keys":0,"block":1,"trial":92,"robot":2,"valence":"win","action":"no-go","sham":0,"trial_type":"pit-trial","trial_index":105,"time_elapsed":531846,"internal_node_id":"0.0-94.0","task_version":"battery-v0.1"},{"rune":"C","hex":"#3366ff99","correct":-1,"choice":-1,"rt":-1,"accuracy":1,"outcome":"+10","keys":[],"total_keys":0,"block":1,"trial":93,"robot":2,"valence":"win","action":"no-go","sham":0,"trial_type":"pit-trial","trial_index":106,"time_elapsed":535851,"internal_node_id":"0.0-95.0","task_version":"battery-v0.1"},{"rune":"I","hex":"#f73b6a7A","correct":-1,"choice":-1,"rt":-1,"accuracy":1,"outcome":"-1","keys":[],"total_keys":0,"block":1,"trial":94,"robot":4,"valence":"lose","action":"no-go","sham":0,"trial_type":"pit-trial","trial_index":107,"time_elapsed":539855,"internal_node_id":"0.0-96.0","task_version":"battery-v0.1"},{"rune":"L","hex":"#f73b6a7A","correct":32,"choice":32,"rt":496.06000003404915,"accuracy":1,"outcome":"-1","keys":[1996.1650000186637],"total_keys":1,"block":1,"trial":95,"robot":3,"valence":"lose","action":"go","sham":0,"trial_type":"pit-trial","trial_index":108,"time_elapsed":543055,"internal_node_id":"0.0-97.0","task_version":"battery-v0.1"},{"rune":"G","hex":"#f73b6a7A","correct":32,"choice":32,"rt":335.5000000447035,"accuracy":1,"outcome":"-1","keys":[1836.020000046119],"total_keys":1,"block":1,"trial":96,"robot":3,"valence":"lose","action":"go","sham":0,"trial_type":"pit-trial","trial_index":109,"time_elapsed":546095,"internal_node_id":"0.0-98.0","task_version":"battery-v0.1"},{"rune":"C","hex":"#3366ff99","correct":-1,"choice":-1,"rt":-1,"accuracy":1,"outcome":"+10","keys":[],"total_keys":0,"block":1,"trial":97,"robot":2,"valence":"win","action":"no-go","sham":0,"trial_type":"pit-trial","trial_index":110,"time_elapsed":550099,"internal_node_id":"0.0-99.0","task_version":"battery-v0.1"},{"rune":"I","hex":"#f73b6a7A","correct":-1,"choice":-1,"rt":-1,"accuracy":1,"outcome":"-10","keys":[],"total_keys":0,"block":1,"trial":98,"robot":4,"valence":"lose","action":"no-go","sham":1,"trial_type":"pit-trial","trial_index":111,"time_elapsed":554103,"internal_node_id":"0.0-100.0","task_version":"battery-v0.1"},{"rune":"G","hex":"#f73b6a7A","correct":32,"choice":32,"rt":334.8400000249967,"accuracy":1,"outcome":"-1","keys":[1835.2400000439957],"total_keys":1,"block":1,"trial":99,"robot":3,"valence":"lose","action":"go","sham":0,"trial_type":"pit-trial","trial_index":112,"time_elapsed":557142,"internal_node_id":"0.0-101.0","task_version":"battery-v0.1"},{"rune":"L","hex":"#f73b6a7A","correct":32,"choice":32,"rt":422.9449999984354,"accuracy":1,"outcome":"-1","keys":[1923.8950000144541],"total_keys":1,"block":1,"trial":100,"robot":3,"valence":"lose","action":"go","sham":0,"trial_type":"pit-trial","trial_index":113,"time_elapsed":560270,"internal_node_id":"0.0-102.0","task_version":"battery-v0.1"},{"rune":"C","hex":"#3366ff99","correct":-1,"choice":-1,"rt":-1,"accuracy":1,"outcome":"+10","keys":[],"total_keys":0,"block":1,"trial":101,"robot":2,"valence":"win","action":"no-go","sham":0,"trial_type":"pit-trial","trial_index":114,"time_elapsed":564275,"internal_node_id":"0.0-103.0","task_version":"battery-v0.1"},{"rune":"I","hex":"#f73b6a7A","correct":-1,"choice":-1,"rt":-1,"accuracy":1,"outcome":"-1","keys":[],"total_keys":0,"block":1,"trial":102,"robot":4,"valence":"lose","action":"no-go","sham":0,"trial_type":"pit-trial","trial_index":115,"time_elapsed":568279,"internal_node_id":"0.0-104.0","task_version":"battery-v0.1"},{"rune":"G","hex":"#f73b6a7A","correct":32,"choice":32,"rt":430.3999999538064,"accuracy":1,"outcome":"-1","keys":[1932.1149999741465],"total_keys":1,"block":1,"trial":103,"robot":3,"valence":"lose","action":"go","sham":0,"trial_type":"pit-trial","trial_index":116,"time_elapsed":571414,"internal_node_id":"0.0-105.0","task_version":"battery-v0.1"},{"rune":"L","hex":"#f73b6a7A","correct":32,"choice":32,"rt":454.16999992448837,"accuracy":1,"outcome":"-1","keys":[1955.0649999873713],"total_keys":1,"block":1,"trial":104,"robot":3,"valence":"lose","action":"go","sham":0,"trial_type":"pit-trial","trial_index":117,"time_elapsed":574573,"internal_node_id":"0.0-106.0","task_version":"battery-v0.1"},{"rune":"C","hex":"#3366ff99","correct":-1,"choice":-1,"rt":-1,"accuracy":1,"outcome":"+10","keys":[],"total_keys":0,"block":1,"trial":105,"robot":2,"valence":"win","action":"no-go","sham":0,"trial_type":"pit-trial","trial_index":118,"time_elapsed":578578,"internal_node_id":"0.0-107.0","task_version":"battery-v0.1"},{"rune":"L","hex":"#f73b6a7A","correct":32,"choice":32,"rt":411.0799999907613,"accuracy":1,"outcome":"-1","keys":[1912.015000008978],"total_keys":1,"block":1,"trial":106,"robot":3,"valence":"lose","action":"go","sham":0,"trial_type":"pit-trial","trial_index":119,"time_elapsed":581693,"internal_node_id":"0.0-108.0","task_version":"battery-v0.1"},{"rune":"G","hex":"#f73b6a7A","correct":32,"choice":32,"rt":297.2450000233948,"accuracy":1,"outcome":"-10","keys":[1797.3350000102073],"total_keys":1,"block":1,"trial":107,"robot":3,"valence":"lose","action":"go","sham":1,"trial_type":"pit-trial","trial_index":120,"time_elapsed":584694,"internal_node_id":"0.0-109.0","task_version":"battery-v0.1"},{"rune":"I","hex":"#f73b6a7A","correct":-1,"choice":-1,"rt":-1,"accuracy":1,"outcome":"-10","keys":[],"total_keys":0,"block":1,"trial":108,"robot":4,"valence":"lose","action":"no-go","sham":1,"trial_type":"pit-trial","trial_index":121,"time_elapsed":588699,"internal_node_id":"0.0-110.0","task_version":"battery-v0.1"},{"rune":"C","hex":"#3366ff99","correct":-1,"choice":-1,"rt":-1,"accuracy":1,"outcome":"+1","keys":[],"total_keys":0,"block":1,"trial":109,"robot":2,"valence":"win","action":"no-go","sham":1,"trial_type":"pit-trial","trial_index":122,"time_elapsed":592704,"internal_node_id":"0.0-111.0","task_version":"battery-v0.1"},{"rune":"G","hex":"#f73b6a7A","correct":32,"choice":32,"rt":658.750000060536,"accuracy":1,"outcome":"-1","keys":[2159.2250000685453],"total_keys":1,"block":1,"trial":110,"robot":3,"valence":"lose","action":"go","sham":0,"trial_type":"pit-trial","trial_index":123,"time_elapsed":596069,"internal_node_id":"0.0-112.0","task_version":"battery-v0.1"},{"rune":"L","hex":"#f73b6a7A","correct":32,"choice":32,"rt":279.51999998185784,"accuracy":1,"outcome":"-1","keys":[1779.9200000008568],"total_keys":1,"block":1,"trial":111,"robot":3,"valence":"lose","action":"go","sham":0,"trial_type":"pit-trial","trial_index":124,"time_elapsed":599052,"internal_node_id":"0.0-113.0","task_version":"battery-v0.1"},{"rune":"I","hex":"#f73b6a7A","correct":-1,"choice":-1,"rt":-1,"accuracy":1,"outcome":"-1","keys":[],"total_keys":0,"block":1,"trial":112,"robot":4,"valence":"lose","action":"no-go","sham":0,"trial_type":"pit-trial","trial_index":125,"time_elapsed":603056,"internal_node_id":"0.0-114.0","task_version":"battery-v0.1"},{"rune":"C","hex":"#3366ff99","correct":-1,"choice":-1,"rt":-1,"accuracy":1,"outcome":"+10","keys":[],"total_keys":0,"block":1,"trial":113,"robot":2,"valence":"win","action":"no-go","sham":0,"trial_type":"pit-trial","trial_index":126,"time_elapsed":607061,"internal_node_id":"0.0-115.0","task_version":"battery-v0.1"},{"rune":"L","hex":"#f73b6a7A","correct":32,"choice":32,"rt":494.55499998293817,"accuracy":1,"outcome":"-1","keys":[1995.0599999865517],"total_keys":1,"block":1,"trial":114,"robot":3,"valence":"lose","action":"go","sham":0,"trial_type":"pit-trial","trial_index":127,"time_elapsed":610259,"internal_node_id":"0.0-116.0","task_version":"battery-v0.1"},{"rune":"I","hex":"#f73b6a7A","correct":-1,"choice":-1,"rt":-1,"accuracy":1,"outcome":"-1","keys":[],"total_keys":0,"block":1,"trial":115,"robot":4,"valence":"lose","action":"no-go","sham":0,"trial_type":"pit-trial","trial_index":128,"time_elapsed":614264,"internal_node_id":"0.0-117.0","task_version":"battery-v0.1"},{"rune":"G","hex":"#f73b6a7A","correct":32,"choice":32,"rt":354.3599999975413,"accuracy":1,"outcome":"-1","keys":[1855.3450000472367],"total_keys":1,"block":1,"trial":116,"robot":3,"valence":"lose","action":"go","sham":0,"trial_type":"pit-trial","trial_index":129,"time_elapsed":617323,"internal_node_id":"0.0-118.0","task_version":"battery-v0.1"},{"rune":"C","hex":"#3366ff99","correct":-1,"choice":-1,"rt":-1,"accuracy":1,"outcome":"+10","keys":[],"total_keys":0,"block":1,"trial":117,"robot":2,"valence":"win","action":"no-go","sham":0,"trial_type":"pit-trial","trial_index":130,"time_elapsed":621328,"internal_node_id":"0.0-119.0","task_version":"battery-v0.1"},{"rune":"L","hex":"#f73b6a7A","correct":32,"choice":32,"rt":467.34999993350357,"accuracy":1,"outcome":"-10","keys":[1967.6949999993667],"total_keys":1,"block":1,"trial":118,"robot":3,"valence":"lose","action":"go","sham":1,"trial_type":"pit-trial","trial_index":131,"time_elapsed":624499,"internal_node_id":"0.0-120.0","task_version":"battery-v0.1"},{"rune":"I","hex":"#f73b6a7A","correct":-1,"choice":-1,"rt":-1,"accuracy":1,"outcome":"-1","keys":[],"total_keys":0,"block":1,"trial":119,"robot":4,"valence":"lose","action":"no-go","sham":0,"trial_type":"pit-trial","trial_index":132,"time_elapsed":628505,"internal_node_id":"0.0-121.0","task_version":"battery-v0.1"},{"rune":"G","hex":"#f73b6a7A","correct":32,"choice":32,"rt":249.59999998100102,"accuracy":1,"outcome":"-10","keys":[1750.415000016801],"total_keys":1,"block":1,"trial":120,"robot":3,"valence":"lose","action":"go","sham":1,"trial_type":"pit-trial","trial_index":133,"time_elapsed":631459,"internal_node_id":"0.0-122.0","task_version":"battery-v0.1"},{"view_history":"[{\"page_index\":0,\"viewing_time\":9724.939999985509},{\"page_index\":1,\"viewing_time\":7071.499999961816}]","rt":16796.704999986105,"trial_type":"pit-instructions","trial_index":134,"time_elapsed":648258,"internal_node_id":"0.0-123.0","task_version":"battery-v0.1"},{"rune":"F","hex":"#f73b6a7A","correct":-1,"choice":-1,"rt":-1,"accuracy":1,"outcome":"-10","keys":[],"total_keys":0,"block":2,"trial":121,"robot":4,"valence":"lose","action":"no-go","sham":1,"trial_type":"pit-trial","trial_index":135,"time_elapsed":652263,"internal_node_id":"0.0-124.0","task_version":"battery-v0.1"},{"rune":"T","hex":"#3366ff99","correct":-1,"choice":-1,"rt":-1,"accuracy":1,"outcome":"+10","keys":[],"total_keys":0,"block":2,"trial":122,"robot":2,"valence":"win","action":"no-go","sham":0,"trial_type":"pit-trial","trial_index":136,"time_elapsed":656267,"internal_node_id":"0.0-125.0","task_version":"battery-v0.1"},{"rune":"X","hex":"#3366ff99","correct":32,"choice":-1,"rt":-1,"accuracy":0,"outcome":"+1","keys":[],"total_keys":0,"block":2,"trial":123,"robot":1,"valence":"win","action":"go","sham":0,"trial_type":"pit-trial","trial_index":137,"time_elapsed":660272,"internal_node_id":"0.0-126.0","task_version":"battery-v0.1"},{"rune":"B","hex":"#f73b6a7A","correct":-1,"choice":-1,"rt":-1,"accuracy":1,"outcome":"-1","keys":[],"total_keys":0,"block":2,"trial":124,"robot":4,"valence":"lose","action":"no-go","sham":0,"trial_type":"pit-trial","trial_index":138,"time_elapsed":664277,"internal_node_id":"0.0-127.0","task_version":"battery-v0.1"},{"rune":"T","hex":"#3366ff99","correct":-1,"choice":-1,"rt":-1,"accuracy":1,"outcome":"+10","keys":[],"total_keys":0,"block":2,"trial":125,"robot":2,"valence":"win","action":"no-go","sham":0,"trial_type":"pit-trial","trial_index":139,"time_elapsed":668282,"internal_node_id":"0.0-128.0","task_version":"battery-v0.1"},{"rune":"B","hex":"#f73b6a7A","correct":-1,"choice":-1,"rt":-1,"accuracy":1,"outcome":"-10","keys":[],"total_keys":0,"block":2,"trial":126,"robot":4,"valence":"lose","action":"no-go","sham":1,"trial_type":"pit-trial","trial_index":140,"time_elapsed":672286,"internal_node_id":"0.0-129.0","task_version":"battery-v0.1"},{"rune":"F","hex":"#f73b6a7A","correct":-1,"choice":32,"rt":363.23999997694045,"accuracy":0,"outcome":"-10","keys":[1863.3200000040233],"total_keys":1,"block":2,"trial":127,"robot":4,"valence":"lose","action":"no-go","sham":0,"trial_type":"pit-trial","trial_index":141,"time_elapsed":675353,"internal_node_id":"0.0-130.0","task_version":"battery-v0.1"},{"rune":"X","hex":"#3366ff99","correct":32,"choice":32,"rt":312.2349999612197,"accuracy":1,"outcome":"+10","keys":[1812.6299999421462],"total_keys":1,"block":2,"trial":128,"robot":1,"valence":"win","action":"go","sham":0,"trial_type":"pit-trial","trial_index":142,"time_elapsed":678369,"internal_node_id":"0.0-131.0","task_version":"battery-v0.1"},{"rune":"B","hex":"#f73b6a7A","correct":-1,"choice":32,"rt":640.3850000351667,"accuracy":0,"outcome":"-10","keys":[2140.5200000153854],"total_keys":1,"block":2,"trial":129,"robot":4,"valence":"lose","action":"no-go","sham":0,"trial_type":"pit-trial","trial_index":143,"time_elapsed":681712,"internal_node_id":"0.0-132.0","task_version":"battery-v0.1"},{"rune":"X","hex":"#3366ff99","correct":32,"choice":32,"rt":512.430000002496,"accuracy":1,"outcome":"+10","keys":[2013.1850000470877],"total_keys":1,"block":2,"trial":130,"robot":1,"valence":"win","action":"go","sham":0,"trial_type":"pit-trial","trial_index":144,"time_elapsed":684929,"internal_node_id":"0.0-133.0","task_version":"battery-v0.1"},{"rune":"T","hex":"#3366ff99","correct":-1,"choice":-1,"rt":-1,"accuracy":1,"outcome":"+10","keys":[],"total_keys":0,"block":2,"trial":131,"robot":2,"valence":"win","action":"no-go","sham":0,"trial_type":"pit-trial","trial_index":145,"time_elapsed":688934,"internal_node_id":"0.0-134.0","task_version":"battery-v0.1"},{"rune":"F","hex":"#f73b6a7A","correct":-1,"choice":32,"rt":347.2250000340864,"accuracy":0,"outcome":"-10","keys":[1847.5599999073893],"total_keys":1,"block":2,"trial":132,"robot":4,"valence":"lose","action":"no-go","sham":0,"trial_type":"pit-trial","trial_index":146,"time_elapsed":691985,"internal_node_id":"0.0-135.0","task_version":"battery-v0.1"},{"rune":"F","hex":"#f73b6a7A","correct":-1,"choice":-1,"rt":-1,"accuracy":1,"outcome":"-1","keys":[],"total_keys":0,"block":2,"trial":133,"robot":4,"valence":"lose","action":"no-go","sham":0,"trial_type":"pit-trial","trial_index":147,"time_elapsed":695989,"internal_node_id":"0.0-136.0","task_version":"battery-v0.1"},{"rune":"T","hex":"#3366ff99","correct":-1,"choice":-1,"rt":-1,"accuracy":1,"outcome":"+1","keys":[],"total_keys":0,"block":2,"trial":134,"robot":2,"valence":"win","action":"no-go","sham":1,"trial_type":"pit-trial","trial_index":148,"time_elapsed":699994,"internal_node_id":"0.0-137.0","task_version":"battery-v0.1"},{"rune":"X","hex":"#3366ff99","correct":32,"choice":32,"rt":294.40999997314066,"accuracy":1,"outcome":"+10","keys":[1794.6099999826401],"total_keys":1,"block":2,"trial":135,"robot":1,"valence":"win","action":"go","sham":0,"trial_type":"pit-trial","trial_index":149,"time_elapsed":702992,"internal_node_id":"0.0-138.0","task_version":"battery-v0.1"},{"rune":"B","hex":"#f73b6a7A","correct":-1,"choice":-1,"rt":-1,"accuracy":1,"outcome":"-10","keys":[],"total_keys":0,"block":2,"trial":136,"robot":4,"valence":"lose","action":"no-go","sham":1,"trial_type":"pit-trial","trial_index":150,"time_elapsed":706997,"internal_node_id":"0.0-139.0","task_version":"battery-v0.1"},{"rune":"F","hex":"#f73b6a7A","correct":-1,"choice":-1,"rt":-1,"accuracy":1,"outcome":"-10","keys":[],"total_keys":0,"block":2,"trial":137,"robot":4,"valence":"lose","action":"no-go","sham":1,"trial_type":"pit-trial","trial_index":151,"time_elapsed":711002,"internal_node_id":"0.0-140.0","task_version":"battery-v0.1"},{"rune":"X","hex":"#3366ff99","correct":32,"choice":32,"rt":420.42999994009733,"accuracy":1,"outcome":"+10","keys":[1922.1400000387803],"total_keys":1,"block":2,"trial":138,"robot":1,"valence":"win","action":"go","sham":0,"trial_type":"pit-trial","trial_index":152,"time_elapsed":714128,"internal_node_id":"0.0-141.0","task_version":"battery-v0.1"},{"rune":"B","hex":"#f73b6a7A","correct":-1,"choice":-1,"rt":-1,"accuracy":1,"outcome":"-1","keys":[],"total_keys":0,"block":2,"trial":139,"robot":4,"valence":"lose","action":"no-go","sham":0,"trial_type":"pit-trial","trial_index":153,"time_elapsed":718133,"internal_node_id":"0.0-142.0","task_version":"battery-v0.1"},{"rune":"T","hex":"#3366ff99","correct":-1,"choice":-1,"rt":-1,"accuracy":1,"outcome":"+10","keys":[],"total_keys":0,"block":2,"trial":140,"robot":2,"valence":"win","action":"no-go","sham":0,"trial_type":"pit-trial","trial_index":154,"time_elapsed":722137,"internal_node_id":"0.0-143.0","task_version":"battery-v0.1"},{"rune":"X","hex":"#3366ff99","correct":32,"choice":32,"rt":380.79000008292496,"accuracy":1,"outcome":"+1","keys":[1881.7300000227988],"total_keys":1,"block":2,"trial":141,"robot":1,"valence":"win","action":"go","sham":1,"trial_type":"pit-trial","trial_index":155,"time_elapsed":725222,"internal_node_id":"0.0-144.0","task_version":"battery-v0.1"},{"rune":"B","hex":"#f73b6a7A","correct":-1,"choice":-1,"rt":-1,"accuracy":1,"outcome":"-1","keys":[],"total_keys":0,"block":2,"trial":142,"robot":4,"valence":"lose","action":"no-go","sham":0,"trial_type":"pit-trial","trial_index":156,"time_elapsed":729226,"internal_node_id":"0.0-145.0","task_version":"battery-v0.1"},{"rune":"F","hex":"#f73b6a7A","correct":-1,"choice":-1,"rt":-1,"accuracy":1,"outcome":"-1","keys":[],"total_keys":0,"block":2,"trial":143,"robot":4,"valence":"lose","action":"no-go","sham":0,"trial_type":"pit-trial","trial_index":157,"time_elapsed":733231,"internal_node_id":"0.0-146.0","task_version":"battery-v0.1"},{"rune":"T","hex":"#3366ff99","correct":-1,"choice":-1,"rt":-1,"accuracy":1,"outcome":"+10","keys":[],"total_keys":0,"block":2,"trial":144,"robot":2,"valence":"win","action":"no-go","sham":0,"trial_type":"pit-trial","trial_index":158,"time_elapsed":737236,"internal_node_id":"0.0-147.0","task_version":"battery-v0.1"},{"rune":"B","hex":"#f73b6a7A","correct":-1,"choice":-1,"rt":-1,"accuracy":1,"outcome":"-1","keys":[],"total_keys":0,"block":2,"trial":145,"robot":4,"valence":"lose","action":"no-go","sham":0,"trial_type":"pit-trial","trial_index":159,"time_elapsed":741240,"internal_node_id":"0.0-148.0","task_version":"battery-v0.1"},{"rune":"F","hex":"#f73b6a7A","correct":-1,"choice":-1,"rt":-1,"accuracy":1,"outcome":"-1","keys":[],"total_keys":0,"block":2,"trial":146,"robot":4,"valence":"lose","action":"no-go","sham":0,"trial_type":"pit-trial","trial_index":160,"time_elapsed":745244,"internal_node_id":"0.0-149.0","task_version":"battery-v0.1"},{"rune":"T","hex":"#3366ff99","correct":-1,"choice":-1,"rt":-1,"accuracy":1,"outcome":"+10","keys":[],"total_keys":0,"block":2,"trial":147,"robot":2,"valence":"win","action":"no-go","sham":0,"trial_type":"pit-trial","trial_index":161,"time_elapsed":749249,"internal_node_id":"0.0-150.0","task_version":"battery-v0.1"},{"rune":"X","hex":"#3366ff99","correct":32,"choice":32,"rt":283.945000031963,"accuracy":1,"outcome":"+10","keys":[1784.2200000304729],"total_keys":1,"block":2,"trial":148,"robot":1,"valence":"win","action":"go","sham":0,"trial_type":"pit-trial","trial_index":162,"time_elapsed":752237,"internal_node_id":"0.0-151.0","task_version":"battery-v0.1"},{"rune":"X","hex":"#3366ff99","correct":32,"choice":32,"rt":415.13999993912876,"accuracy":1,"outcome":"+10","keys":[1916.0050000064075],"total_keys":1,"block":2,"trial":149,"robot":1,"valence":"win","action":"go","sham":0,"trial_type":"pit-trial","trial_index":163,"time_elapsed":755357,"internal_node_id":"0.0-152.0","task_version":"battery-v0.1"},{"rune":"F","hex":"#f73b6a7A","correct":-1,"choice":-1,"rt":-1,"accuracy":1,"outcome":"-1","keys":[],"total_keys":0,"block":2,"trial":150,"robot":4,"valence":"lose","action":"no-go","sham":0,"trial_type":"pit-trial","trial_index":164,"time_elapsed":759363,"internal_node_id":"0.0-153.0","task_version":"battery-v0.1"},{"rune":"B","hex":"#f73b6a7A","correct":-1,"choice":-1,"rt":-1,"accuracy":1,"outcome":"-1","keys":[],"total_keys":0,"block":2,"trial":151,"robot":4,"valence":"lose","action":"no-go","sham":0,"trial_type":"pit-trial","trial_index":165,"time_elapsed":763367,"internal_node_id":"0.0-154.0","task_version":"battery-v0.1"},{"rune":"T","hex":"#3366ff99","correct":-1,"choice":-1,"rt":-1,"accuracy":1,"outcome":"+10","keys":[],"total_keys":0,"block":2,"trial":152,"robot":2,"valence":"win","action":"no-go","sham":0,"trial_type":"pit-trial","trial_index":166,"time_elapsed":767373,"internal_node_id":"0.0-155.0","task_version":"battery-v0.1"},{"rune":"E","hex":"#f73b6a7A","correct":32,"choice":-1,"rt":-1,"accuracy":0,"outcome":"-10","keys":[],"total_keys":0,"block":2,"trial":153,"robot":3,"valence":"lose","action":"go","sham":0,"trial_type":"pit-trial","trial_index":167,"time_elapsed":771378,"internal_node_id":"0.0-156.0","task_version":"battery-v0.1"},{"rune":"T","hex":"#3366ff99","correct":-1,"choice":-1,"rt":-1,"accuracy":1,"outcome":"+10","keys":[],"total_keys":0,"block":2,"trial":154,"robot":2,"valence":"win","action":"no-go","sham":0,"trial_type":"pit-trial","trial_index":168,"time_elapsed":775382,"internal_node_id":"0.0-157.0","task_version":"battery-v0.1"},{"rune":"X","hex":"#3366ff99","correct":32,"choice":32,"rt":437.47999996412545,"accuracy":1,"outcome":"+10","keys":[1938.4750000899658],"total_keys":1,"block":2,"trial":155,"robot":1,"valence":"win","action":"go","sham":0,"trial_type":"pit-trial","trial_index":169,"time_elapsed":778524,"internal_node_id":"0.0-158.0","task_version":"battery-v0.1"},{"rune":"B","hex":"#f73b6a7A","correct":-1,"choice":-1,"rt":-1,"accuracy":1,"outcome":"-1","keys":[],"total_keys":0,"block":2,"trial":156,"robot":4,"valence":"lose","action":"no-go","sham":0,"trial_type":"pit-trial","trial_index":170,"time_elapsed":782529,"internal_node_id":"0.0-159.0","task_version":"battery-v0.1"},{"rune":"B","hex":"#f73b6a7A","correct":-1,"choice":-1,"rt":-1,"accuracy":1,"outcome":"-1","keys":[],"total_keys":0,"block":2,"trial":157,"robot":4,"valence":"lose","action":"no-go","sham":0,"trial_type":"pit-trial","trial_index":171,"time_elapsed":786534,"internal_node_id":"0.0-160.0","task_version":"battery-v0.1"},{"rune":"E","hex":"#f73b6a7A","correct":32,"choice":32,"rt":340.8250000793487,"accuracy":1,"outcome":"-1","keys":[1841.1599999526516],"total_keys":1,"block":2,"trial":158,"robot":3,"valence":"lose","action":"go","sham":0,"trial_type":"pit-trial","trial_index":172,"time_elapsed":789580,"internal_node_id":"0.0-161.0","task_version":"battery-v0.1"},{"rune":"T","hex":"#3366ff99","correct":-1,"choice":-1,"rt":-1,"accuracy":1,"outcome":"+10","keys":[],"total_keys":0,"block":2,"trial":159,"robot":2,"valence":"win","action":"no-go","sham":0,"trial_type":"pit-trial","trial_index":173,"time_elapsed":793586,"internal_node_id":"0.0-162.0","task_version":"battery-v0.1"},{"rune":"X","hex":"#3366ff99","correct":32,"choice":32,"rt":424.99500000849366,"accuracy":1,"outcome":"+10","keys":[1925.775000010617],"total_keys":1,"block":2,"trial":160,"robot":1,"valence":"win","action":"go","sham":0,"trial_type":"pit-trial","trial_index":174,"time_elapsed":796715,"internal_node_id":"0.0-163.0","task_version":"battery-v0.1"},{"rune":"Q","hex":"#3366ff99","correct":-1,"choice":-1,"rt":-1,"accuracy":1,"outcome":"+10","keys":[],"total_keys":0,"block":2,"trial":161,"robot":2,"valence":"win","action":"no-go","sham":0,"trial_type":"pit-trial","trial_index":175,"time_elapsed":800719,"internal_node_id":"0.0-164.0","task_version":"battery-v0.1"},{"rune":"E","hex":"#f73b6a7A","correct":32,"choice":32,"rt":459.86000006087124,"accuracy":1,"outcome":"-1","keys":[1959.915000014007],"total_keys":1,"block":2,"trial":162,"robot":3,"valence":"lose","action":"go","sham":0,"trial_type":"pit-trial","trial_index":176,"time_elapsed":803883,"internal_node_id":"0.0-165.0","task_version":"battery-v0.1"},{"rune":"B","hex":"#f73b6a7A","correct":-1,"choice":-1,"rt":-1,"accuracy":1,"outcome":"-10","keys":[],"total_keys":0,"block":2,"trial":163,"robot":4,"valence":"lose","action":"no-go","sham":1,"trial_type":"pit-trial","trial_index":177,"time_elapsed":807887,"internal_node_id":"0.0-166.0","task_version":"battery-v0.1"},{"rune":"Z","hex":"#3366ff99","correct":32,"choice":-1,"rt":-1,"accuracy":0,"outcome":"+1","keys":[],"total_keys":0,"block":2,"trial":164,"robot":1,"valence":"win","action":"go","sham":0,"trial_type":"pit-trial","trial_index":178,"time_elapsed":811891,"internal_node_id":"0.0-167.0","task_version":"battery-v0.1"},{"rune":"Q","hex":"#3366ff99","correct":-1,"choice":-1,"rt":-1,"accuracy":1,"outcome":"+1","keys":[],"total_keys":0,"block":2,"trial":165,"robot":2,"valence":"win","action":"no-go","sham":1,"trial_type":"pit-trial","trial_index":179,"time_elapsed":815895,"internal_node_id":"0.0-168.0","task_version":"battery-v0.1"},{"rune":"Z","hex":"#3366ff99","correct":32,"choice":32,"rt":930.3800000343472,"accuracy":1,"outcome":"+1","keys":[2431.7550000268966],"total_keys":1,"block":2,"trial":166,"robot":1,"valence":"win","action":"go","sham":1,"trial_type":"pit-trial","trial_index":180,"time_elapsed":819531,"internal_node_id":"0.0-169.0","task_version":"battery-v0.1"},{"rune":"B","hex":"#f73b6a7A","correct":-1,"choice":-1,"rt":-1,"accuracy":1,"outcome":"-1","keys":[],"total_keys":0,"block":2,"trial":167,"robot":4,"valence":"lose","action":"no-go","sham":0,"trial_type":"pit-trial","trial_index":181,"time_elapsed":823534,"internal_node_id":"0.0-170.0","task_version":"battery-v0.1"},{"rune":"E","hex":"#f73b6a7A","correct":32,"choice":32,"rt":323.7049999879673,"accuracy":1,"outcome":"-1","keys":[1824.2950000567362],"total_keys":1,"block":2,"trial":168,"robot":3,"valence":"lose","action":"go","sham":0,"trial_type":"pit-trial","trial_index":182,"time_elapsed":826562,"internal_node_id":"0.0-171.0","task_version":"battery-v0.1"},{"rune":"Q","hex":"#3366ff99","correct":-1,"choice":-1,"rt":-1,"accuracy":1,"outcome":"+10","keys":[],"total_keys":0,"block":2,"trial":169,"robot":2,"valence":"win","action":"no-go","sham":0,"trial_type":"pit-trial","trial_index":183,"time_elapsed":830566,"internal_node_id":"0.0-172.0","task_version":"battery-v0.1"},{"rune":"Z","hex":"#3366ff99","correct":32,"choice":32,"rt":755.3850000258535,"accuracy":1,"outcome":"+10","keys":[2256.260000052862],"total_keys":1,"block":2,"trial":170,"robot":1,"valence":"win","action":"go","sham":0,"trial_type":"pit-trial","trial_index":184,"time_elapsed":834026,"internal_node_id":"0.0-173.0","task_version":"battery-v0.1"},{"rune":"D","hex":"#f73b6a7A","correct":-1,"choice":-1,"rt":-1,"accuracy":1,"outcome":"-1","keys":[],"total_keys":0,"block":2,"trial":171,"robot":4,"valence":"lose","action":"no-go","sham":0,"trial_type":"pit-trial","trial_index":185,"time_elapsed":838031,"internal_node_id":"0.0-174.0","task_version":"battery-v0.1"},{"rune":"E","hex":"#f73b6a7A","correct":32,"choice":32,"rt":474.71500001847744,"accuracy":1,"outcome":"-1","keys":[1974.7399999760091],"total_keys":1,"block":2,"trial":172,"robot":3,"valence":"lose","action":"go","sham":0,"trial_type":"pit-trial","trial_index":186,"time_elapsed":841210,"internal_node_id":"0.0-175.0","task_version":"battery-v0.1"},{"rune":"E","hex":"#f73b6a7A","correct":32,"choice":32,"rt":534.4350000377744,"accuracy":1,"outcome":"-1","keys":[2035.03999998793],"total_keys":1,"block":2,"trial":173,"robot":3,"valence":"lose","action":"go","sham":0,"trial_type":"pit-trial","trial_index":187,"time_elapsed":844449,"internal_node_id":"0.0-176.0","task_version":"battery-v0.1"},{"rune":"D","hex":"#f73b6a7A","correct":-1,"choice":-1,"rt":-1,"accuracy":1,"outcome":"-1","keys":[],"total_keys":0,"block":2,"trial":174,"robot":4,"valence":"lose","action":"no-go","sham":0,"trial_type":"pit-trial","trial_index":188,"time_elapsed":848453,"internal_node_id":"0.0-177.0","task_version":"battery-v0.1"},{"rune":"Z","hex":"#3366ff99","correct":32,"choice":32,"rt":939.4099999917671,"accuracy":1,"outcome":"+10","keys":[2439.6650000708178],"total_keys":1,"block":2,"trial":175,"robot":1,"valence":"win","action":"go","sham":0,"trial_type":"pit-trial","trial_index":189,"time_elapsed":852097,"internal_node_id":"0.0-178.0","task_version":"battery-v0.1"},{"rune":"Q","hex":"#3366ff99","correct":-1,"choice":-1,"rt":-1,"accuracy":1,"outcome":"+10","keys":[],"total_keys":0,"block":2,"trial":176,"robot":2,"valence":"win","action":"no-go","sham":0,"trial_type":"pit-trial","trial_index":190,"time_elapsed":856101,"internal_node_id":"0.0-179.0","task_version":"battery-v0.1"},{"rune":"Z","hex":"#3366ff99","correct":32,"choice":32,"rt":522.49500004109,"accuracy":1,"outcome":"+10","keys":[2022.6800000527874],"total_keys":1,"block":2,"trial":177,"robot":1,"valence":"win","action":"go","sham":0,"trial_type":"pit-trial","trial_index":191,"time_elapsed":859329,"internal_node_id":"0.0-180.0","task_version":"battery-v0.1"},{"rune":"E","hex":"#f73b6a7A","correct":32,"choice":32,"rt":423.21000003721565,"accuracy":1,"outcome":"-1","keys":[1923.365000053309],"total_keys":1,"block":2,"trial":178,"robot":3,"valence":"lose","action":"go","sham":0,"trial_type":"pit-trial","trial_index":192,"time_elapsed":862456,"internal_node_id":"0.0-181.0","task_version":"battery-v0.1"},{"rune":"D","hex":"#f73b6a7A","correct":-1,"choice":-1,"rt":-1,"accuracy":1,"outcome":"-10","keys":[],"total_keys":0,"block":2,"trial":179,"robot":4,"valence":"lose","action":"no-go","sham":1,"trial_type":"pit-trial","trial_index":193,"time_elapsed":866461,"internal_node_id":"0.0-182.0","task_version":"battery-v0.1"},{"rune":"Q","hex":"#3366ff99","correct":-1,"choice":-1,"rt":-1,"accuracy":1,"outcome":"+10","keys":[],"total_keys":0,"block":2,"trial":180,"robot":2,"valence":"win","action":"no-go","sham":0,"trial_type":"pit-trial","trial_index":194,"time_elapsed":870466,"internal_node_id":"0.0-183.0","task_version":"battery-v0.1"},{"rune":"E","hex":"#f73b6a7A","correct":32,"choice":32,"rt":317.59500002954155,"accuracy":1,"outcome":"-1","keys":[1818.169999984093],"total_keys":1,"block":2,"trial":181,"robot":3,"valence":"lose","action":"go","sham":0,"trial_type":"pit-trial","trial_index":195,"time_elapsed":873488,"internal_node_id":"0.0-184.0","task_version":"battery-v0.1"},{"rune":"D","hex":"#f73b6a7A","correct":-1,"choice":-1,"rt":-1,"accuracy":1,"outcome":"-10","keys":[],"total_keys":0,"block":2,"trial":182,"robot":4,"valence":"lose","action":"no-go","sham":1,"trial_type":"pit-trial","trial_index":196,"time_elapsed":877493,"internal_node_id":"0.0-185.0","task_version":"battery-v0.1"},{"rune":"Q","hex":"#3366ff99","correct":-1,"choice":-1,"rt":-1,"accuracy":1,"outcome":"+10","keys":[],"total_keys":0,"block":2,"trial":183,"robot":2,"valence":"win","action":"no-go","sham":0,"trial_type":"pit-trial","trial_index":197,"time_elapsed":881499,"internal_node_id":"0.0-186.0","task_version":"battery-v0.1"},{"rune":"Z","hex":"#3366ff99","correct":32,"choice":32,"rt":395.22499998565763,"accuracy":1,"outcome":"+1","keys":[1896.7500000726432],"total_keys":1,"block":2,"trial":184,"robot":1,"valence":"win","action":"go","sham":1,"trial_type":"pit-trial","trial_index":198,"time_elapsed":884600,"internal_node_id":"0.0-187.0","task_version":"battery-v0.1"},{"rune":"Q","hex":"#3366ff99","correct":-1,"choice":-1,"rt":-1,"accuracy":1,"outcome":"+10","keys":[],"total_keys":0,"block":2,"trial":185,"robot":2,"valence":"win","action":"no-go","sham":0,"trial_type":"pit-trial","trial_index":199,"time_elapsed":888605,"internal_node_id":"0.0-188.0","task_version":"battery-v0.1"},{"rune":"Z","hex":"#3366ff99","correct":32,"choice":32,"rt":441.9149999739602,"accuracy":1,"outcome":"+10","keys":[1942.2900000354275],"total_keys":1,"block":2,"trial":186,"robot":1,"valence":"win","action":"go","sham":0,"trial_type":"pit-trial","trial_index":200,"time_elapsed":891751,"internal_node_id":"0.0-189.0","task_version":"battery-v0.1"},{"rune":"E","hex":"#f73b6a7A","correct":32,"choice":32,"rt":304.39000006299466,"accuracy":1,"outcome":"-1","keys":[1804.6800000593066],"total_keys":1,"block":2,"trial":187,"robot":3,"valence":"lose","action":"go","sham":0,"trial_type":"pit-trial","trial_index":201,"time_elapsed":894760,"internal_node_id":"0.0-190.0","task_version":"battery-v0.1"},{"rune":"D","hex":"#f73b6a7A","correct":-1,"choice":-1,"rt":-1,"accuracy":1,"outcome":"-1","keys":[],"total_keys":0,"block":2,"trial":188,"robot":4,"valence":"lose","action":"no-go","sham":0,"trial_type":"pit-trial","trial_index":202,"time_elapsed":898765,"internal_node_id":"0.0-191.0","task_version":"battery-v0.1"},{"rune":"E","hex":"#f73b6a7A","correct":32,"choice":32,"rt":329.1800000006333,"accuracy":1,"outcome":"-1","keys":[1829.4699999969453],"total_keys":1,"block":2,"trial":189,"robot":3,"valence":"lose","action":"go","sham":0,"trial_type":"pit-trial","trial_index":203,"time_elapsed":901799,"internal_node_id":"0.0-192.0","task_version":"battery-v0.1"},{"rune":"Q","hex":"#3366ff99","correct":-1,"choice":-1,"rt":-1,"accuracy":1,"outcome":"+1","keys":[],"total_keys":0,"block":2,"trial":190,"robot":2,"valence":"win","action":"no-go","sham":1,"trial_type":"pit-trial","trial_index":204,"time_elapsed":905804,"internal_node_id":"0.0-193.0","task_version":"battery-v0.1"},{"rune":"Z","hex":"#3366ff99","correct":32,"choice":32,"rt":265.7100000651553,"accuracy":1,"outcome":"+1","keys":[1766.5999999735504],"total_keys":1,"block":2,"trial":191,"robot":1,"valence":"win","action":"go","sham":1,"trial_type":"pit-trial","trial_index":205,"time_elapsed":908774,"internal_node_id":"0.0-194.0","task_version":"battery-v0.1"},{"rune":"D","hex":"#f73b6a7A","correct":-1,"choice":-1,"rt":-1,"accuracy":1,"outcome":"-10","keys":[],"total_keys":0,"block":2,"trial":192,"robot":4,"valence":"lose","action":"no-go","sham":1,"trial_type":"pit-trial","trial_index":206,"time_elapsed":912780,"internal_node_id":"0.0-195.0","task_version":"battery-v0.1"},{"rune":"Q","hex":"#3366ff99","correct":-1,"choice":-1,"rt":-1,"accuracy":1,"outcome":"+10","keys":[],"total_keys":0,"block":2,"trial":193,"robot":2,"valence":"win","action":"no-go","sham":0,"trial_type":"pit-trial","trial_index":207,"time_elapsed":916785,"internal_node_id":"0.0-196.0","task_version":"battery-v0.1"},{"rune":"D","hex":"#f73b6a7A","correct":-1,"choice":-1,"rt":-1,"accuracy":1,"outcome":"-1","keys":[],"total_keys":0,"block":2,"trial":194,"robot":4,"valence":"lose","action":"no-go","sham":0,"trial_type":"pit-trial","trial_index":208,"time_elapsed":920789,"internal_node_id":"0.0-197.0","task_version":"battery-v0.1"},{"rune":"S","hex":"#f73b6a7A","correct":32,"choice":-1,"rt":-1,"accuracy":0,"outcome":"-10","keys":[],"total_keys":0,"block":2,"trial":195,"robot":3,"valence":"lose","action":"go","sham":0,"trial_type":"pit-trial","trial_index":209,"time_elapsed":924794,"internal_node_id":"0.0-198.0","task_version":"battery-v0.1"},{"rune":"K","hex":"#3366ff99","correct":32,"choice":-1,"rt":-1,"accuracy":0,"outcome":"+1","keys":[],"total_keys":0,"block":2,"trial":196,"robot":1,"valence":"win","action":"go","sham":0,"trial_type":"pit-trial","trial_index":210,"time_elapsed":928799,"internal_node_id":"0.0-199.0","task_version":"battery-v0.1"},{"rune":"S","hex":"#f73b6a7A","correct":32,"choice":32,"rt":582.3199999285862,"accuracy":1,"outcome":"-1","keys":[2082.7499999431893],"total_keys":1,"block":2,"trial":197,"robot":3,"valence":"lose","action":"go","sham":0,"trial_type":"pit-trial","trial_index":211,"time_elapsed":932086,"internal_node_id":"0.0-200.0","task_version":"battery-v0.1"},{"rune":"Q","hex":"#3366ff99","correct":-1,"choice":-1,"rt":-1,"accuracy":1,"outcome":"+10","keys":[],"total_keys":0,"block":2,"trial":198,"robot":2,"valence":"win","action":"no-go","sham":0,"trial_type":"pit-trial","trial_index":212,"time_elapsed":936090,"internal_node_id":"0.0-201.0","task_version":"battery-v0.1"},{"rune":"D","hex":"#f73b6a7A","correct":-1,"choice":-1,"rt":-1,"accuracy":1,"outcome":"-1","keys":[],"total_keys":0,"block":2,"trial":199,"robot":4,"valence":"lose","action":"no-go","sham":0,"trial_type":"pit-trial","trial_index":213,"time_elapsed":940094,"internal_node_id":"0.0-202.0","task_version":"battery-v0.1"},{"rune":"K","hex":"#3366ff99","correct":32,"choice":32,"rt":334.2399999964982,"accuracy":1,"outcome":"+10","keys":[1835.340000106953],"total_keys":1,"block":2,"trial":200,"robot":1,"valence":"win","action":"go","sham":0,"trial_type":"pit-trial","trial_index":214,"time_elapsed":943133,"internal_node_id":"0.0-203.0","task_version":"battery-v0.1"},{"rune":"K","hex":"#3366ff99","correct":32,"choice":32,"rt":448.16499995067716,"accuracy":1,"outcome":"+10","keys":[1948.5100000165403],"total_keys":1,"block":2,"trial":201,"robot":1,"valence":"win","action":"go","sham":0,"trial_type":"pit-trial","trial_index":215,"time_elapsed":946285,"internal_node_id":"0.0-204.0","task_version":"battery-v0.1"},{"rune":"S","hex":"#f73b6a7A","correct":32,"choice":32,"rt":343.59499998390675,"accuracy":1,"outcome":"-1","keys":[1843.929999973625],"total_keys":1,"block":2,"trial":202,"robot":3,"valence":"lose","action":"go","sham":0,"trial_type":"pit-trial","trial_index":216,"time_elapsed":949332,"internal_node_id":"0.0-205.0","task_version":"battery-v0.1"},{"rune":"D","hex":"#f73b6a7A","correct":-1,"choice":-1,"rt":-1,"accuracy":1,"outcome":"-1","keys":[],"total_keys":0,"block":2,"trial":203,"robot":4,"valence":"lose","action":"no-go","sham":0,"trial_type":"pit-trial","trial_index":217,"time_elapsed":953337,"internal_node_id":"0.0-206.0","task_version":"battery-v0.1"},{"rune":"Q","hex":"#3366ff99","correct":-1,"choice":-1,"rt":-1,"accuracy":1,"outcome":"+1","keys":[],"total_keys":0,"block":2,"trial":204,"robot":2,"valence":"win","action":"no-go","sham":1,"trial_type":"pit-trial","trial_index":218,"time_elapsed":957341,"internal_node_id":"0.0-207.0","task_version":"battery-v0.1"},{"rune":"D","hex":"#f73b6a7A","correct":-1,"choice":-1,"rt":-1,"accuracy":1,"outcome":"-1","keys":[],"total_keys":0,"block":2,"trial":205,"robot":4,"valence":"lose","action":"no-go","sham":0,"trial_type":"pit-trial","trial_index":219,"time_elapsed":961346,"internal_node_id":"0.0-208.0","task_version":"battery-v0.1"},{"rune":"S","hex":"#f73b6a7A","correct":32,"choice":32,"rt":265.9349999157712,"accuracy":1,"outcome":"-1","keys":[1766.340000089258],"total_keys":1,"block":2,"trial":206,"robot":3,"valence":"lose","action":"go","sham":0,"trial_type":"pit-trial","trial_index":220,"time_elapsed":964316,"internal_node_id":"0.0-209.0","task_version":"battery-v0.1"},{"rune":"K","hex":"#3366ff99","correct":32,"choice":32,"rt":232.22000000532717,"accuracy":1,"outcome":"+10","keys":[1732.2549999225885],"total_keys":1,"block":2,"trial":207,"robot":1,"valence":"win","action":"go","sham":0,"trial_type":"pit-trial","trial_index":221,"time_elapsed":967252,"internal_node_id":"0.0-210.0","task_version":"battery-v0.1"},{"rune":"Q","hex":"#3366ff99","correct":-1,"choice":-1,"rt":-1,"accuracy":1,"outcome":"+10","keys":[],"total_keys":0,"block":2,"trial":208,"robot":2,"valence":"win","action":"no-go","sham":0,"trial_type":"pit-trial","trial_index":222,"time_elapsed":971256,"internal_node_id":"0.0-211.0","task_version":"battery-v0.1"},{"rune":"K","hex":"#3366ff99","correct":32,"choice":32,"rt":322.91999994777143,"accuracy":1,"outcome":"+10","keys":[1823.549999971874],"total_keys":1,"block":2,"trial":209,"robot":1,"valence":"win","action":"go","sham":0,"trial_type":"pit-trial","trial_index":223,"time_elapsed":974284,"internal_node_id":"0.0-212.0","task_version":"battery-v0.1"},{"rune":"R","hex":"#3366ff99","correct":-1,"choice":-1,"rt":-1,"accuracy":1,"outcome":"+10","keys":[],"total_keys":0,"block":2,"trial":210,"robot":2,"valence":"win","action":"no-go","sham":0,"trial_type":"pit-trial","trial_index":224,"time_elapsed":978289,"internal_node_id":"0.0-213.0","task_version":"battery-v0.1"},{"rune":"S","hex":"#f73b6a7A","correct":32,"choice":32,"rt":561.8199999444187,"accuracy":1,"outcome":"-1","keys":[2062.8499999875203],"total_keys":1,"block":2,"trial":211,"robot":3,"valence":"lose","action":"go","sham":0,"trial_type":"pit-trial","trial_index":225,"time_elapsed":981555,"internal_node_id":"0.0-214.0","task_version":"battery-v0.1"},{"rune":"M","hex":"#f73b6a7A","correct":32,"choice":-1,"rt":-1,"accuracy":0,"outcome":"-10","keys":[],"total_keys":0,"block":2,"trial":212,"robot":3,"valence":"lose","action":"go","sham":0,"trial_type":"pit-trial","trial_index":226,"time_elapsed":985559,"internal_node_id":"0.0-215.0","task_version":"battery-v0.1"},{"rune":"R","hex":"#3366ff99","correct":-1,"choice":-1,"rt":-1,"accuracy":1,"outcome":"+10","keys":[],"total_keys":0,"block":2,"trial":213,"robot":2,"valence":"win","action":"no-go","sham":0,"trial_type":"pit-trial","trial_index":227,"time_elapsed":989563,"internal_node_id":"0.0-216.0","task_version":"battery-v0.1"},{"rune":"S","hex":"#f73b6a7A","correct":32,"choice":32,"rt":383.43500008340925,"accuracy":1,"outcome":"-1","keys":[1883.6250000167638],"total_keys":1,"block":2,"trial":214,"robot":3,"valence":"lose","action":"go","sham":0,"trial_type":"pit-trial","trial_index":228,"time_elapsed":992651,"internal_node_id":"0.0-217.0","task_version":"battery-v0.1"},{"rune":"M","hex":"#f73b6a7A","correct":32,"choice":32,"rt":375.97499997355044,"accuracy":1,"outcome":"-1","keys":[1876.9699999829754],"total_keys":1,"block":2,"trial":215,"robot":3,"valence":"lose","action":"go","sham":0,"trial_type":"pit-trial","trial_index":229,"time_elapsed":995731,"internal_node_id":"0.0-218.0","task_version":"battery-v0.1"},{"rune":"K","hex":"#3366ff99","correct":32,"choice":32,"rt":286.8699999526143,"accuracy":1,"outcome":"+10","keys":[1787.8950000740588],"total_keys":1,"block":2,"trial":216,"robot":1,"valence":"win","action":"go","sham":0,"trial_type":"pit-trial","trial_index":230,"time_elapsed":998723,"internal_node_id":"0.0-219.0","task_version":"battery-v0.1"},{"rune":"M","hex":"#f73b6a7A","correct":32,"choice":32,"rt":470.5499999690801,"accuracy":1,"outcome":"-1","keys":[1972.1000000135973],"total_keys":1,"block":2,"trial":217,"robot":3,"valence":"lose","action":"go","sham":0,"trial_type":"pit-trial","trial_index":231,"time_elapsed":1001898,"internal_node_id":"0.0-220.0","task_version":"battery-v0.1"},{"rune":"S","hex":"#f73b6a7A","correct":32,"choice":32,"rt":296.48500005714595,"accuracy":1,"outcome":"-1","keys":[1796.5100000146776],"total_keys":1,"block":2,"trial":218,"robot":3,"valence":"lose","action":"go","sham":0,"trial_type":"pit-trial","trial_index":232,"time_elapsed":1004898,"internal_node_id":"0.0-221.0","task_version":"battery-v0.1"},{"rune":"K","hex":"#3366ff99","correct":32,"choice":32,"rt":239.2249999102205,"accuracy":1,"outcome":"+10","keys":[1739.8800000082701],"total_keys":1,"block":2,"trial":219,"robot":1,"valence":"win","action":"go","sham":0,"trial_type":"pit-trial","trial_index":233,"time_elapsed":1007842,"internal_node_id":"0.0-222.0","task_version":"battery-v0.1"},{"rune":"R","hex":"#3366ff99","correct":-1,"choice":-1,"rt":-1,"accuracy":1,"outcome":"+10","keys":[],"total_keys":0,"block":2,"trial":220,"robot":2,"valence":"win","action":"no-go","sham":0,"trial_type":"pit-trial","trial_index":234,"time_elapsed":1011846,"internal_node_id":"0.0-223.0","task_version":"battery-v0.1"},{"rune":"S","hex":"#f73b6a7A","correct":32,"choice":32,"rt":330.7700000004843,"accuracy":1,"outcome":"-1","keys":[1831.9099999498576],"total_keys":1,"block":2,"trial":221,"robot":3,"valence":"lose","action":"go","sham":0,"trial_type":"pit-trial","trial_index":235,"time_elapsed":1014882,"internal_node_id":"0.0-224.0","task_version":"battery-v0.1"},{"rune":"M","hex":"#f73b6a7A","correct":32,"choice":32,"rt":280.57499998249114,"accuracy":1,"outcome":"-1","keys":[1780.7700000703335],"total_keys":1,"block":2,"trial":222,"robot":3,"valence":"lose","action":"go","sham":0,"trial_type":"pit-trial","trial_index":236,"time_elapsed":1017867,"internal_node_id":"0.0-225.0","task_version":"battery-v0.1"},{"rune":"K","hex":"#3366ff99","correct":32,"choice":32,"rt":374.4700000388548,"accuracy":1,"outcome":"+10","keys":[1874.9700000043958],"total_keys":1,"block":2,"trial":223,"robot":1,"valence":"win","action":"go","sham":0,"trial_type":"pit-trial","trial_index":237,"time_elapsed":1020946,"internal_node_id":"0.0-226.0","task_version":"battery-v0.1"},{"rune":"R","hex":"#3366ff99","correct":-1,"choice":-1,"rt":-1,"accuracy":1,"outcome":"+10","keys":[],"total_keys":0,"block":2,"trial":224,"robot":2,"valence":"win","action":"no-go","sham":0,"trial_type":"pit-trial","trial_index":238,"time_elapsed":1024950,"internal_node_id":"0.0-227.0","task_version":"battery-v0.1"},{"rune":"S","hex":"#f73b6a7A","correct":32,"choice":32,"rt":291.9349999865517,"accuracy":1,"outcome":"-10","keys":[1792.4249999923632],"total_keys":1,"block":2,"trial":225,"robot":3,"valence":"lose","action":"go","sham":1,"trial_type":"pit-trial","trial_index":239,"time_elapsed":1027946,"internal_node_id":"0.0-228.0","task_version":"battery-v0.1"},{"rune":"R","hex":"#3366ff99","correct":-1,"choice":-1,"rt":-1,"accuracy":1,"outcome":"+10","keys":[],"total_keys":0,"block":2,"trial":226,"robot":2,"valence":"win","action":"no-go","sham":0,"trial_type":"pit-trial","trial_index":240,"time_elapsed":1031950,"internal_node_id":"0.0-229.0","task_version":"battery-v0.1"},{"rune":"M","hex":"#f73b6a7A","correct":32,"choice":32,"rt":267.49500003643334,"accuracy":1,"outcome":"-1","keys":[1767.7799999946728],"total_keys":1,"block":2,"trial":227,"robot":3,"valence":"lose","action":"go","sham":0,"trial_type":"pit-trial","trial_index":241,"time_elapsed":1034923,"internal_node_id":"0.0-230.0","task_version":"battery-v0.1"},{"rune":"K","hex":"#3366ff99","correct":32,"choice":32,"rt":366.124999942258,"accuracy":1,"outcome":"+10","keys":[1866.4049999788404],"total_keys":1,"block":2,"trial":228,"robot":1,"valence":"win","action":"go","sham":0,"trial_type":"pit-trial","trial_index":242,"time_elapsed":1037993,"internal_node_id":"0.0-231.0","task_version":"battery-v0.1"},{"rune":"K","hex":"#3366ff99","correct":32,"choice":32,"rt":375.2450000029057,"accuracy":1,"outcome":"+10","keys":[1876.0699999984354],"total_keys":1,"block":2,"trial":229,"robot":1,"valence":"win","action":"go","sham":0,"trial_type":"pit-trial","trial_index":243,"time_elapsed":1041074,"internal_node_id":"0.0-232.0","task_version":"battery-v0.1"},{"rune":"M","hex":"#f73b6a7A","correct":32,"choice":32,"rt":326.9849999342114,"accuracy":1,"outcome":"-10","keys":[1827.0699999993667],"total_keys":1,"block":2,"trial":230,"robot":3,"valence":"lose","action":"go","sham":1,"trial_type":"pit-trial","trial_index":244,"time_elapsed":1044105,"internal_node_id":"0.0-233.0","task_version":"battery-v0.1"},{"rune":"R","hex":"#3366ff99","correct":-1,"choice":32,"rt":334.8750000586733,"accuracy":0,"outcome":"+1","keys":[1836.0150000080466],"total_keys":1,"block":2,"trial":231,"robot":2,"valence":"win","action":"no-go","sham":0,"trial_type":"pit-trial","trial_index":245,"time_elapsed":1047144,"internal_node_id":"0.0-234.0","task_version":"battery-v0.1"},{"rune":"S","hex":"#f73b6a7A","correct":32,"choice":32,"rt":384.37500002328306,"accuracy":1,"outcome":"-1","keys":[1884.829999995418],"total_keys":1,"block":2,"trial":232,"robot":3,"valence":"lose","action":"go","sham":0,"trial_type":"pit-trial","trial_index":246,"time_elapsed":1050233,"internal_node_id":"0.0-235.0","task_version":"battery-v0.1"},{"rune":"K","hex":"#3366ff99","correct":32,"choice":32,"rt":352.38999989815056,"accuracy":1,"outcome":"+10","keys":[1852.4800000013784],"total_keys":1,"block":2,"trial":233,"robot":1,"valence":"win","action":"go","sham":0,"trial_type":"pit-trial","trial_index":247,"time_elapsed":1053288,"internal_node_id":"0.0-236.0","task_version":"battery-v0.1"},{"rune":"R","hex":"#3366ff99","correct":-1,"choice":-1,"rt":-1,"accuracy":1,"outcome":"+1","keys":[],"total_keys":0,"block":2,"trial":234,"robot":2,"valence":"win","action":"no-go","sham":1,"trial_type":"pit-trial","trial_index":248,"time_elapsed":1057293,"internal_node_id":"0.0-237.0","task_version":"battery-v0.1"},{"rune":"S","hex":"#f73b6a7A","correct":32,"choice":32,"rt":379.34999994467944,"accuracy":1,"outcome":"-1","keys":[1879.755000001751],"total_keys":1,"block":2,"trial":235,"robot":3,"valence":"lose","action":"go","sham":0,"trial_type":"pit-trial","trial_index":249,"time_elapsed":1060377,"internal_node_id":"0.0-238.0","task_version":"battery-v0.1"},{"rune":"M","hex":"#f73b6a7A","correct":32,"choice":32,"rt":310.9199999598786,"accuracy":1,"outcome":"-1","keys":[1811.905000009574],"total_keys":1,"block":2,"trial":236,"robot":3,"valence":"lose","action":"go","sham":0,"trial_type":"pit-trial","trial_index":250,"time_elapsed":1063392,"internal_node_id":"0.0-239.0","task_version":"battery-v0.1"},{"rune":"R","hex":"#3366ff99","correct":-1,"choice":-1,"rt":-1,"accuracy":1,"outcome":"+10","keys":[],"total_keys":0,"block":2,"trial":237,"robot":2,"valence":"win","action":"no-go","sham":0,"trial_type":"pit-trial","trial_index":251,"time_elapsed":1067397,"internal_node_id":"0.0-240.0","task_version":"battery-v0.1"},{"rune":"K","hex":"#3366ff99","correct":32,"choice":32,"rt":370.34999998286366,"accuracy":1,"outcome":"+1","keys":[1871.4299999410287],"total_keys":1,"block":2,"trial":238,"robot":1,"valence":"win","action":"go","sham":1,"trial_type":"pit-trial","trial_index":252,"time_elapsed":1070472,"internal_node_id":"0.0-241.0","task_version":"battery-v0.1"},{"rune":"S","hex":"#f73b6a7A","correct":32,"choice":32,"rt":311.8549999780953,"accuracy":1,"outcome":"-1","keys":[1812.3299999861047],"total_keys":1,"block":2,"trial":239,"robot":3,"valence":"lose","action":"go","sham":0,"trial_type":"pit-trial","trial_index":253,"time_elapsed":1073488,"internal_node_id":"0.0-242.0","task_version":"battery-v0.1"},{"rune":"M","hex":"#f73b6a7A","correct":32,"choice":32,"rt":383.5999999428168,"accuracy":1,"outcome":"-1","keys":[1884.055000031367],"total_keys":1,"block":2,"trial":240,"robot":3,"valence":"lose","action":"go","sham":0,"trial_type":"pit-trial","trial_index":254,"time_elapsed":1076576,"internal_node_id":"0.0-243.0","task_version":"battery-v0.1"},{"view_history":"[{\"page_index\":0,\"viewing_time\":2828.800000017509}]","rt":2829.0999999735504,"trial_type":"pit-instructions","trial_index":255,"time_elapsed":1079408,"internal_node_id":"0.0-244.0","task_version":"battery-v0.1"},{"rt":25107.549999956973,"responses":{"age":"35","gender-categorical":"Male","gender-free-response":"","ethnicity":"Not Hispanic or Latino","race":["White"],"language":"Yes","fluency":"Very well"},"survey":"demographics","trial_type":"survey-demo","trial_index":256,"time_elapsed":1104520,"internal_node_id":"0.0-245.0","task_version":"battery-v0.1"},{"rt":138845.86000000127,"responses":{"difficulty":"4","fun":"5","clarity":"5","strategy":"I would just not repair robots until it seemed like the incorrect choice for that type of robot the majority of the time.  I didn't take any notes.","feedback":"As far as experiments go this was pretty enjoyable."},"survey":"debrief","trial_type":"survey-debrief","trial_index":257,"time_elapsed":1243369,"internal_node_id":"0.0-246.0","task_version":"battery-v0.1","interactions":"[{\"event\":\"blur\",\"trial\":13,\"time\":182807},{\"event\":\"focus\",\"trial\":13,\"time\":183354}]"}]