[{"view_history":"[{\"page_index\":0,\"viewing_time\":3164.9650000035763},{\"page_index\":1,\"viewing_time\":3368.555000051856},{\"page_index\":2,\"viewing_time\":2198.9449999528006},{\"page_index\":3,\"viewing_time\":4344.2550000036135},{\"page_index\":4,\"viewing_time\":2784.789999946952},{\"page_index\":5,\"viewing_time\":2446.875000023283}]","rt":18309.905000030994,"trial_type":"pit-instructions","trial_index":0,"time_elapsed":18375,"internal_node_id":"0.0-0.0-0.0","task_version":"battery-v0.1"},{"rune":"","hex":"#FFFFF080","correct":32,"choice":32,"rt":206.81500004138798,"accuracy":1,"outcome":"+10","keys":[1728.4900000086054],"total_keys":1,"block":0,"trial_type":"pit-trial","trial_index":1,"time_elapsed":21309,"internal_node_id":"0.0-0.0-1.0-0.0","task_version":"battery-v0.1"},{"rune":"","hex":"#FFFFF080","correct":32,"choice":32,"rt":744.9649999616668,"accuracy":1,"outcome":"+10","keys":[2252.585000009276],"total_keys":1,"block":0,"trial_type":"pit-trial","trial_index":2,"time_elapsed":24779,"internal_node_id":"0.0-0.0-1.0-0.1","task_version":"battery-v0.1"},{"rune":"","hex":"#FFFFF080","correct":32,"choice":32,"rt":501.47000001743436,"accuracy":1,"outcome":"+10","keys":[2008.6799999698997],"total_keys":1,"block":0,"trial_type":"pit-trial","trial_index":3,"time_elapsed":28001,"internal_node_id":"0.0-0.0-1.0-0.2","task_version":"battery-v0.1"},{"rune":"","hex":"#FFFFF080","correct":32,"choice":32,"rt":457.9899999080226,"accuracy":1,"outcome":"+10","keys":[1958.464999916032],"total_keys":1,"block":0,"trial_type":"pit-trial","trial_index":4,"time_elapsed":31178,"internal_node_id":"0.0-0.0-1.0-0.3","task_version":"battery-v0.1"},{"view_history":"[{\"page_index\":0,\"viewing_time\":2657.2500000474975}]","rt":2658.380000037141,"trial_type":"pit-instructions","trial_index":5,"time_elapsed":33838,"internal_node_id":"0.0-0.0-2.0","task_version":"battery-v0.1"},{"rune":"","hex":"#FFFFF080","correct":-1,"choice":-1,"rt":-1,"accuracy":1,"outcome":"+10","keys":[],"total_keys":0,"block":0,"trial_type":"pit-trial","trial_index":6,"time_elapsed":37849,"internal_node_id":"0.0-0.0-3.0-0.0","task_version":"battery-v0.1"},{"rune":"","hex":"#FFFFF080","correct":-1,"choice":-1,"rt":-1,"accuracy":1,"outcome":"+10","keys":[],"total_keys":0,"block":0,"trial_type":"pit-trial","trial_index":7,"time_elapsed":41857,"internal_node_id":"0.0-0.0-3.0-0.1","task_version":"battery-v0.1"},{"rune":"","hex":"#FFFFF080","correct":-1,"choice":-1,"rt":-1,"accuracy":1,"outcome":"+10","keys":[],"total_keys":0,"block":0,"trial_type":"pit-trial","trial_index":8,"time_elapsed":45866,"internal_node_id":"0.0-0.0-3.0-0.2","task_version":"battery-v0.1"},{"rune":"","hex":"#FFFFF080","correct":-1,"choice":-1,"rt":-1,"accuracy":1,"outcome":"+10","keys":[],"total_keys":0,"block":0,"trial_type":"pit-trial","trial_index":9,"time_elapsed":49876,"internal_node_id":"0.0-0.0-3.0-0.3","task_version":"battery-v0.1"},{"responses":["Press SPACE","Do nothing"],"num_errors":0,"rt":6115.390000049956,"trial_type":"pit-comprehension","trial_index":10,"time_elapsed":56001,"internal_node_id":"0.0-0.0-4.0","task_version":"battery-v0.1"},{"view_history":"[{\"page_index\":0,\"viewing_time\":3029.510000022128},{\"page_index\":1,\"viewing_time\":4287.510000052862},{\"page_index\":2,\"viewing_time\":3088.24499999173},{\"page_index\":3,\"viewing_time\":4272.129999939352},{\"page_index\":4,\"viewing_time\":4478.875000029802},{\"page_index\":5,\"viewing_time\":14681.115000043064},{\"page_index\":6,\"viewing_time\":3831.8299999227747},{\"page_index\":7,\"viewing_time\":2904.255000059493},{\"page_index\":8,\"viewing_time\":3974.790000007488},{\"page_index\":9,\"viewing_time\":2329.079999937676},{\"page_index\":10,\"viewing_time\":2191.980000003241}]","rt":49070.52000006661,"trial_type":"pit-instructions","trial_index":11,"time_elapsed":105087,"internal_node_id":"0.0-1.0-0.0","task_version":"battery-v0.1"},{"responses":["+10","+1","True","True"],"num_errors":1,"rt":13843.289999989793,"trial_type":"pit-comprehension","trial_index":12,"time_elapsed":118938,"internal_node_id":"0.0-1.0-1.0","task_version":"battery-v0.1"},{"view_history":"[{\"page_index\":0,\"viewing_time\":2094.275000039488},{\"page_index\":1,\"viewing_time\":935.9499999554828},{\"page_index\":2,\"viewing_time\":584.084999980405},{\"page_index\":3,\"viewing_time\":952.1500000264496},{\"page_index\":4,\"viewing_time\":992.035000002943},{\"page_index\":5,\"viewing_time\":2215.9100000280887},{\"page_index\":6,\"viewing_time\":1751.88499991782},{\"page_index\":7,\"viewing_time\":744.1899999976158},{\"page_index\":8,\"viewing_time\":608.1050001084805},{\"page_index\":9,\"viewing_time\":575.5899999057874},{\"page_index\":10,\"viewing_time\":520.2300000237301}]","rt":11975.55500001181,"trial_type":"pit-instructions","trial_index":13,"time_elapsed":130927,"internal_node_id":"0.0-1.1-0.1","task_version":"battery-v0.1"},{"responses":["+10","-1","True","True"],"num_errors":0,"rt":7219.395000021905,"trial_type":"pit-comprehension","trial_index":14,"time_elapsed":138154,"internal_node_id":"0.0-1.1-1.1","task_version":"battery-v0.1"},{"view_history":"[{\"page_index\":0,\"viewing_time\":3289.0349999070168},{\"page_index\":1,\"viewing_time\":2591.885000001639}]","rt":5882.009999942966,"trial_type":"pit-instructions","trial_index":15,"time_elapsed":144047,"internal_node_id":"0.0-2.0","task_version":"battery-v0.1"},{"rune":"I","hex":"#3366ff99","correct":32,"choice":32,"rt":650.6000000517815,"accuracy":1,"outcome":"+10","keys":[2151.545000029728],"total_keys":1,"block":1,"trial":1,"robot":1,"valence":"win","action":"go","sham":0,"trial_type":"pit-trial","trial_index":16,"time_elapsed":147408,"internal_node_id":"0.0-3.0","task_version":"battery-v0.1"},{"rune":"H","hex":"#f73b6a7A","correct":-1,"choice":32,"rt":717.6350000081584,"accuracy":0,"outcome":"-10","keys":[2219.219999969937],"total_keys":1,"block":1,"trial":2,"robot":4,"valence":"lose","action":"no-go","sham":0,"trial_type":"pit-trial","trial_index":17,"time_elapsed":150835,"internal_node_id":"0.0-4.0","task_version":"battery-v0.1"},{"rune":"X","hex":"#3366ff99","correct":-1,"choice":32,"rt":465.65499994903803,"accuracy":0,"outcome":"+1","keys":[1966.634999960661],"total_keys":1,"block":1,"trial":3,"robot":2,"valence":"win","action":"no-go","sham":0,"trial_type":"pit-trial","trial_index":18,"time_elapsed":154009,"internal_node_id":"0.0-5.0","task_version":"battery-v0.1"},{"rune":"J","hex":"#f73b6a7A","correct":-1,"choice":32,"rt":588.4350000414997,"accuracy":0,"outcome":"-1","keys":[2089.1100000590086],"total_keys":1,"block":1,"trial":4,"robot":4,"valence":"lose","action":"no-go","sham":1,"trial_type":"pit-trial","trial_index":19,"time_elapsed":157306,"internal_node_id":"0.0-6.0","task_version":"battery-v0.1"},{"rune":"I","hex":"#3366ff99","correct":32,"choice":32,"rt":368.1600000709295,"accuracy":1,"outcome":"+10","keys":[1868.8850000035018],"total_keys":1,"block":1,"trial":5,"robot":1,"valence":"win","action":"go","sham":0,"trial_type":"pit-trial","trial_index":20,"time_elapsed":160382,"internal_node_id":"0.0-7.0","task_version":"battery-v0.1"},{"rune":"X","hex":"#3366ff99","correct":-1,"choice":32,"rt":558.5799999535084,"accuracy":0,"outcome":"+10","keys":[2059.4799999380484],"total_keys":1,"block":1,"trial":6,"robot":2,"valence":"win","action":"no-go","sham":1,"trial_type":"pit-trial","trial_index":21,"time_elapsed":163649,"internal_node_id":"0.0-8.0","task_version":"battery-v0.1"},{"rune":"J","hex":"#f73b6a7A","correct":-1,"choice":-1,"rt":-1,"accuracy":1,"outcome":"-1","keys":[],"total_keys":0,"block":1,"trial":7,"robot":4,"valence":"lose","action":"no-go","sham":0,"trial_type":"pit-trial","trial_index":22,"time_elapsed":167656,"internal_node_id":"0.0-9.0","task_version":"battery-v0.1"},{"rune":"H","hex":"#f73b6a7A","correct":-1,"choice":-1,"rt":-1,"accuracy":1,"outcome":"-10","keys":[],"total_keys":0,"block":1,"trial":8,"robot":4,"valence":"lose","action":"no-go","sham":1,"trial_type":"pit-trial","trial_index":23,"time_elapsed":171664,"internal_node_id":"0.0-10.0","task_version":"battery-v0.1"},{"rune":"I","hex":"#3366ff99","correct":32,"choice":32,"rt":342.82500005792826,"accuracy":1,"outcome":"+1","keys":[1844.175000092946],"total_keys":1,"block":1,"trial":9,"robot":1,"valence":"win","action":"go","sham":1,"trial_type":"pit-trial","trial_index":24,"time_elapsed":174717,"internal_node_id":"0.0-11.0","task_version":"battery-v0.1"},{"rune":"X","hex":"#3366ff99","correct":-1,"choice":32,"rt":370.4699999652803,"accuracy":0,"outcome":"+10","keys":[1871.1800000164658],"total_keys":1,"block":1,"trial":10,"robot":2,"valence":"win","action":"no-go","sham":1,"trial_type":"pit-trial","trial_index":25,"time_elapsed":177798,"internal_node_id":"0.0-12.0","task_version":"battery-v0.1"},{"rune":"J","hex":"#f73b6a7A","correct":-1,"choice":32,"rt":569.7250000666827,"accuracy":0,"outcome":"-10","keys":[2071.2050000438467],"total_keys":1,"block":1,"trial":11,"robot":4,"valence":"lose","action":"no-go","sham":0,"trial_type":"pit-trial","trial_index":26,"time_elapsed":181079,"internal_node_id":"0.0-13.0","task_version":"battery-v0.1"},{"rune":"H","hex":"#f73b6a7A","correct":-1,"choice":32,"rt":756.2400000169873,"accuracy":0,"outcome":"-10","keys":[2256.694999989122],"total_keys":1,"block":1,"trial":12,"robot":4,"valence":"lose","action":"no-go","sham":0,"trial_type":"pit-trial","trial_index":27,"time_elapsed":184543,"internal_node_id":"0.0-14.0","task_version":"battery-v0.1"},{"rune":"X","hex":"#3366ff99","correct":-1,"choice":32,"rt":408.434999990277,"accuracy":0,"outcome":"+1","keys":[1909.5150000648573],"total_keys":1,"block":1,"trial":13,"robot":2,"valence":"win","action":"no-go","sham":0,"trial_type":"pit-trial","trial_index":28,"time_elapsed":187660,"internal_node_id":"0.0-15.0","task_version":"battery-v0.1"},{"rune":"J","hex":"#f73b6a7A","correct":-1,"choice":-1,"rt":-1,"accuracy":1,"outcome":"-1","keys":[],"total_keys":0,"block":1,"trial":14,"robot":4,"valence":"lose","action":"no-go","sham":0,"trial_type":"pit-trial","trial_index":29,"time_elapsed":191668,"internal_node_id":"0.0-16.0","task_version":"battery-v0.1"},{"rune":"I","hex":"#3366ff99","correct":32,"choice":32,"rt":358.07000007480383,"accuracy":1,"outcome":"+1","keys":[1859.6749999560416],"total_keys":1,"block":1,"trial":15,"robot":1,"valence":"win","action":"go","sham":1,"trial_type":"pit-trial","trial_index":30,"time_elapsed":194736,"internal_node_id":"0.0-17.0","task_version":"battery-v0.1"},{"rune":"H","hex":"#f73b6a7A","correct":-1,"choice":-1,"rt":-1,"accuracy":1,"outcome":"-1","keys":[],"total_keys":0,"block":1,"trial":16,"robot":4,"valence":"lose","action":"no-go","sham":0,"trial_type":"pit-trial","trial_index":31,"time_elapsed":198744,"internal_node_id":"0.0-18.0","task_version":"battery-v0.1"},{"rune":"J","hex":"#f73b6a7A","correct":-1,"choice":-1,"rt":-1,"accuracy":1,"outcome":"-1","keys":[],"total_keys":0,"block":1,"trial":17,"robot":4,"valence":"lose","action":"no-go","sham":0,"trial_type":"pit-trial","trial_index":32,"time_elapsed":202767,"internal_node_id":"0.0-19.0","task_version":"battery-v0.1"},{"rune":"I","hex":"#3366ff99","correct":32,"choice":32,"rt":288.51500002201647,"accuracy":1,"outcome":"+10","keys":[1789.8549999808893],"total_keys":1,"block":1,"trial":18,"robot":1,"valence":"win","action":"go","sham":0,"trial_type":"pit-trial","trial_index":33,"time_elapsed":205764,"internal_node_id":"0.0-20.0","task_version":"battery-v0.1"},{"rune":"X","hex":"#3366ff99","correct":-1,"choice":32,"rt":326.1749999364838,"accuracy":0,"outcome":"+1","keys":[1826.424999977462],"total_keys":1,"block":1,"trial":19,"robot":2,"valence":"win","action":"no-go","sham":0,"trial_type":"pit-trial","trial_index":34,"time_elapsed":208799,"internal_node_id":"0.0-21.0","task_version":"battery-v0.1"},{"rune":"H","hex":"#f73b6a7A","correct":-1,"choice":-1,"rt":-1,"accuracy":1,"outcome":"-1","keys":[],"total_keys":0,"block":1,"trial":20,"robot":4,"valence":"lose","action":"no-go","sham":0,"trial_type":"pit-trial","trial_index":35,"time_elapsed":212807,"internal_node_id":"0.0-22.0","task_version":"battery-v0.1"},{"rune":"I","hex":"#3366ff99","correct":32,"choice":32,"rt":300.88999995496124,"accuracy":1,"outcome":"+1","keys":[1801.0950000025332],"total_keys":1,"block":1,"trial":21,"robot":1,"valence":"win","action":"go","sham":1,"trial_type":"pit-trial","trial_index":36,"time_elapsed":215816,"internal_node_id":"0.0-23.0","task_version":"battery-v0.1"},{"rune":"H","hex":"#f73b6a7A","correct":-1,"choice":-1,"rt":-1,"accuracy":1,"outcome":"-1","keys":[],"total_keys":0,"block":1,"trial":22,"robot":4,"valence":"lose","action":"no-go","sham":0,"trial_type":"pit-trial","trial_index":37,"time_elapsed":219823,"internal_node_id":"0.0-24.0","task_version":"battery-v0.1"},{"rune":"J","hex":"#f73b6a7A","correct":-1,"choice":-1,"rt":-1,"accuracy":1,"outcome":"-10","keys":[],"total_keys":0,"block":1,"trial":23,"robot":4,"valence":"lose","action":"no-go","sham":1,"trial_type":"pit-trial","trial_index":38,"time_elapsed":223830,"internal_node_id":"0.0-25.0","task_version":"battery-v0.1"},{"rune":"X","hex":"#3366ff99","correct":-1,"choice":32,"rt":441.60000002011657,"accuracy":0,"outcome":"+10","keys":[1942.7200000500306],"total_keys":1,"block":1,"trial":24,"robot":2,"valence":"win","action":"no-go","sham":1,"trial_type":"pit-trial","trial_index":39,"time_elapsed":226980,"internal_node_id":"0.0-26.0","task_version":"battery-v0.1"},{"rune":"H","hex":"#f73b6a7A","correct":-1,"choice":-1,"rt":-1,"accuracy":1,"outcome":"-1","keys":[],"total_keys":0,"block":1,"trial":25,"robot":4,"valence":"lose","action":"no-go","sham":0,"trial_type":"pit-trial","trial_index":40,"time_elapsed":230987,"internal_node_id":"0.0-27.0","task_version":"battery-v0.1"},{"rune":"X","hex":"#3366ff99","correct":-1,"choice":32,"rt":336.2650000490248,"accuracy":0,"outcome":"+1","keys":[1836.379999993369],"total_keys":1,"block":1,"trial":26,"robot":2,"valence":"win","action":"no-go","sham":0,"trial_type":"pit-trial","trial_index":41,"time_elapsed":234031,"internal_node_id":"0.0-28.0","task_version":"battery-v0.1"},{"rune":"J","hex":"#f73b6a7A","correct":-1,"choice":-1,"rt":-1,"accuracy":1,"outcome":"-1","keys":[],"total_keys":0,"block":1,"trial":27,"robot":4,"valence":"lose","action":"no-go","sham":0,"trial_type":"pit-trial","trial_index":42,"time_elapsed":238038,"internal_node_id":"0.0-29.0","task_version":"battery-v0.1"},{"rune":"I","hex":"#3366ff99","correct":32,"choice":32,"rt":351.14500008057803,"accuracy":1,"outcome":"+10","keys":[1852.1900000050664],"total_keys":1,"block":1,"trial":28,"robot":1,"valence":"win","action":"go","sham":0,"trial_type":"pit-trial","trial_index":43,"time_elapsed":241097,"internal_node_id":"0.0-30.0","task_version":"battery-v0.1"},{"rune":"I","hex":"#3366ff99","correct":32,"choice":32,"rt":321.6849999735132,"accuracy":1,"outcome":"+10","keys":[1823.065000004135],"total_keys":1,"block":1,"trial":29,"robot":1,"valence":"win","action":"go","sham":0,"trial_type":"pit-trial","trial_index":44,"time_elapsed":244128,"internal_node_id":"0.0-31.0","task_version":"battery-v0.1"},{"rune":"X","hex":"#3366ff99","correct":-1,"choice":32,"rt":372.2100000595674,"accuracy":0,"outcome":"+1","keys":[1872.9450000682846],"total_keys":1,"block":1,"trial":30,"robot":2,"valence":"win","action":"no-go","sham":0,"trial_type":"pit-trial","trial_index":45,"time_elapsed":247208,"internal_node_id":"0.0-32.0","task_version":"battery-v0.1"},{"rune":"J","hex":"#f73b6a7A","correct":-1,"choice":-1,"rt":-1,"accuracy":1,"outcome":"-1","keys":[],"total_keys":0,"block":1,"trial":31,"robot":4,"valence":"lose","action":"no-go","sham":0,"trial_type":"pit-trial","trial_index":46,"time_elapsed":251214,"internal_node_id":"0.0-33.0","task_version":"battery-v0.1"},{"rune":"H","hex":"#f73b6a7A","correct":-1,"choice":-1,"rt":-1,"accuracy":1,"outcome":"-10","keys":[],"total_keys":0,"block":1,"trial":32,"robot":4,"valence":"lose","action":"no-go","sham":1,"trial_type":"pit-trial","trial_index":47,"time_elapsed":255219,"internal_node_id":"0.0-34.0","task_version":"battery-v0.1"},{"rune":"I","hex":"#3366ff99","correct":32,"choice":32,"rt":394.2900000838563,"accuracy":1,"outcome":"+10","keys":[1894.5049999747425],"total_keys":1,"block":1,"trial":33,"robot":1,"valence":"win","action":"go","sham":0,"trial_type":"pit-trial","trial_index":48,"time_elapsed":258320,"internal_node_id":"0.0-35.0","task_version":"battery-v0.1"},{"rune":"X","hex":"#3366ff99","correct":-1,"choice":-1,"rt":-1,"accuracy":1,"outcome":"+10","keys":[],"total_keys":0,"block":1,"trial":34,"robot":2,"valence":"win","action":"no-go","sham":0,"trial_type":"pit-trial","trial_index":49,"time_elapsed":262328,"internal_node_id":"0.0-36.0","task_version":"battery-v0.1"},{"rune":"H","hex":"#f73b6a7A","correct":-1,"choice":-1,"rt":-1,"accuracy":1,"outcome":"-1","keys":[],"total_keys":0,"block":1,"trial":35,"robot":4,"valence":"lose","action":"no-go","sham":0,"trial_type":"pit-trial","trial_index":50,"time_elapsed":266338,"internal_node_id":"0.0-37.0","task_version":"battery-v0.1"},{"rune":"N","hex":"#f73b6a7A","correct":32,"choice":32,"rt":836.669999989681,"accuracy":1,"outcome":"-1","keys":[2337.4949999852106],"total_keys":1,"block":1,"trial":36,"robot":3,"valence":"lose","action":"go","sham":0,"trial_type":"pit-trial","trial_index":51,"time_elapsed":269882,"internal_node_id":"0.0-38.0","task_version":"battery-v0.1"},{"rune":"H","hex":"#f73b6a7A","correct":-1,"choice":-1,"rt":-1,"accuracy":1,"outcome":"-1","keys":[],"total_keys":0,"block":1,"trial":37,"robot":4,"valence":"lose","action":"no-go","sham":0,"trial_type":"pit-trial","trial_index":52,"time_elapsed":273890,"internal_node_id":"0.0-39.0","task_version":"battery-v0.1"},{"rune":"X","hex":"#3366ff99","correct":-1,"choice":-1,"rt":-1,"accuracy":1,"outcome":"+10","keys":[],"total_keys":0,"block":1,"trial":38,"robot":2,"valence":"win","action":"no-go","sham":0,"trial_type":"pit-trial","trial_index":53,"time_elapsed":277897,"internal_node_id":"0.0-40.0","task_version":"battery-v0.1"},{"rune":"I","hex":"#3366ff99","correct":32,"choice":32,"rt":305.41999998968095,"accuracy":1,"outcome":"+1","keys":[1806.1600000364706],"total_keys":1,"block":1,"trial":39,"robot":1,"valence":"win","action":"go","sham":1,"trial_type":"pit-trial","trial_index":54,"time_elapsed":280911,"internal_node_id":"0.0-41.0","task_version":"battery-v0.1"},{"rune":"N","hex":"#f73b6a7A","correct":32,"choice":-1,"rt":-1,"accuracy":0,"outcome":"-10","keys":[],"total_keys":0,"block":1,"trial":40,"robot":3,"valence":"lose","action":"go","sham":0,"trial_type":"pit-trial","trial_index":55,"time_elapsed":284919,"internal_node_id":"0.0-42.0","task_version":"battery-v0.1"},{"rune":"N","hex":"#f73b6a7A","correct":32,"choice":32,"rt":383.4400000050664,"accuracy":1,"outcome":"-1","keys":[1884.0649999910966],"total_keys":1,"block":1,"trial":41,"robot":3,"valence":"lose","action":"go","sham":0,"trial_type":"pit-trial","trial_index":56,"time_elapsed":288010,"internal_node_id":"0.0-43.0","task_version":"battery-v0.1"},{"rune":"Y","hex":"#3366ff99","correct":32,"choice":32,"rt":456.87999995425344,"accuracy":1,"outcome":"+10","keys":[1958.015000098385],"total_keys":1,"block":1,"trial":42,"robot":1,"valence":"win","action":"go","sham":0,"trial_type":"pit-trial","trial_index":57,"time_elapsed":291176,"internal_node_id":"0.0-44.0","task_version":"battery-v0.1"},{"rune":"H","hex":"#f73b6a7A","correct":-1,"choice":-1,"rt":-1,"accuracy":1,"outcome":"-1","keys":[],"total_keys":0,"block":1,"trial":43,"robot":4,"valence":"lose","action":"no-go","sham":0,"trial_type":"pit-trial","trial_index":58,"time_elapsed":295182,"internal_node_id":"0.0-45.0","task_version":"battery-v0.1"},{"rune":"B","hex":"#3366ff99","correct":-1,"choice":32,"rt":623.9349999232218,"accuracy":0,"outcome":"+1","keys":[2124.240000033751],"total_keys":1,"block":1,"trial":44,"robot":2,"valence":"win","action":"no-go","sham":0,"trial_type":"pit-trial","trial_index":59,"time_elapsed":298511,"internal_node_id":"0.0-46.0","task_version":"battery-v0.1"},{"rune":"N","hex":"#f73b6a7A","correct":32,"choice":32,"rt":776.9049999769777,"accuracy":1,"outcome":"-1","keys":[2277.6300000259653],"total_keys":1,"block":1,"trial":45,"robot":3,"valence":"lose","action":"go","sham":0,"trial_type":"pit-trial","trial_index":60,"time_elapsed":301996,"internal_node_id":"0.0-47.0","task_version":"battery-v0.1"},{"rune":"B","hex":"#3366ff99","correct":-1,"choice":-1,"rt":-1,"accuracy":1,"outcome":"+10","keys":[],"total_keys":0,"block":1,"trial":46,"robot":2,"valence":"win","action":"no-go","sham":0,"trial_type":"pit-trial","trial_index":61,"time_elapsed":306004,"internal_node_id":"0.0-48.0","task_version":"battery-v0.1"},{"rune":"H","hex":"#f73b6a7A","correct":-1,"choice":-1,"rt":-1,"accuracy":1,"outcome":"-1","keys":[],"total_keys":0,"block":1,"trial":47,"robot":4,"valence":"lose","action":"no-go","sham":0,"trial_type":"pit-trial","trial_index":62,"time_elapsed":310012,"internal_node_id":"0.0-49.0","task_version":"battery-v0.1"},{"rune":"Y","hex":"#3366ff99","correct":32,"choice":-1,"rt":-1,"accuracy":0,"outcome":"+1","keys":[],"total_keys":0,"block":1,"trial":48,"robot":1,"valence":"win","action":"go","sham":0,"trial_type":"pit-trial","trial_index":63,"time_elapsed":314020,"internal_node_id":"0.0-50.0","task_version":"battery-v0.1"},{"rune":"Y","hex":"#3366ff99","correct":32,"choice":32,"rt":466.87999996356666,"accuracy":1,"outcome":"+10","keys":[1967.3949999269098],"total_keys":1,"block":1,"trial":49,"robot":1,"valence":"win","action":"go","sham":0,"trial_type":"pit-trial","trial_index":64,"time_elapsed":317195,"internal_node_id":"0.0-51.0","task_version":"battery-v0.1"},{"rune":"N","hex":"#f73b6a7A","correct":32,"choice":-1,"rt":-1,"accuracy":0,"outcome":"-10","keys":[],"total_keys":0,"block":1,"trial":50,"robot":3,"valence":"lose","action":"go","sham":0,"trial_type":"pit-trial","trial_index":65,"time_elapsed":321201,"internal_node_id":"0.0-52.0","task_version":"battery-v0.1"},{"rune":"B","hex":"#3366ff99","correct":-1,"choice":-1,"rt":-1,"accuracy":1,"outcome":"+10","keys":[],"total_keys":0,"block":1,"trial":51,"robot":2,"valence":"win","action":"no-go","sham":0,"trial_type":"pit-trial","trial_index":66,"time_elapsed":325206,"internal_node_id":"0.0-53.0","task_version":"battery-v0.1"},{"rune":"W","hex":"#f73b6a7A","correct":-1,"choice":32,"rt":714.4100000150502,"accuracy":0,"outcome":"-1","keys":[2216.3350000046194],"total_keys":1,"block":1,"trial":52,"robot":4,"valence":"lose","action":"no-go","sham":1,"trial_type":"pit-trial","trial_index":67,"time_elapsed":328628,"internal_node_id":"0.0-54.0","task_version":"battery-v0.1"},{"rune":"B","hex":"#3366ff99","correct":-1,"choice":32,"rt":1180.5350000504404,"accuracy":0,"outcome":"+1","keys":[2680.960000026971],"total_keys":1,"block":1,"trial":53,"robot":2,"valence":"win","action":"no-go","sham":0,"trial_type":"pit-trial","trial_index":68,"time_elapsed":332516,"internal_node_id":"0.0-55.0","task_version":"battery-v0.1"},{"rune":"Y","hex":"#3366ff99","correct":32,"choice":32,"rt":599.6549999108538,"accuracy":1,"outcome":"+10","keys":[2101.3349998975173],"total_keys":1,"block":1,"trial":54,"robot":1,"valence":"win","action":"go","sham":0,"trial_type":"pit-trial","trial_index":69,"time_elapsed":335830,"internal_node_id":"0.0-56.0","task_version":"battery-v0.1"},{"rune":"N","hex":"#f73b6a7A","correct":32,"choice":-1,"rt":-1,"accuracy":0,"outcome":"-1","keys":[],"total_keys":0,"block":1,"trial":55,"robot":3,"valence":"lose","action":"go","sham":1,"trial_type":"pit-trial","trial_index":70,"time_elapsed":339839,"internal_node_id":"0.0-57.0","task_version":"battery-v0.1"},{"rune":"W","hex":"#f73b6a7A","correct":-1,"choice":32,"rt":626.8450000789016,"accuracy":0,"outcome":"-1","keys":[2128.264999948442],"total_keys":1,"block":1,"trial":56,"robot":4,"valence":"lose","action":"no-go","sham":1,"trial_type":"pit-trial","trial_index":71,"time_elapsed":343173,"internal_node_id":"0.0-58.0","task_version":"battery-v0.1"},{"rune":"W","hex":"#f73b6a7A","correct":-1,"choice":32,"rt":608.4450000198558,"accuracy":0,"outcome":"-10","keys":[2108.9650000212714],"total_keys":1,"block":1,"trial":57,"robot":4,"valence":"lose","action":"no-go","sham":0,"trial_type":"pit-trial","trial_index":72,"time_elapsed":346487,"internal_node_id":"0.0-59.0","task_version":"battery-v0.1"},{"rune":"Y","hex":"#3366ff99","correct":32,"choice":-1,"rt":-1,"accuracy":0,"outcome":"+1","keys":[3236.410000012256],"total_keys":1,"block":1,"trial":58,"robot":1,"valence":"win","action":"go","sham":0,"trial_type":"pit-trial","trial_index":73,"time_elapsed":350496,"internal_node_id":"0.0-60.0","task_version":"battery-v0.1"},{"rune":"N","hex":"#f73b6a7A","correct":32,"choice":-1,"rt":-1,"accuracy":0,"outcome":"-10","keys":[],"total_keys":0,"block":1,"trial":59,"robot":3,"valence":"lose","action":"go","sham":0,"trial_type":"pit-trial","trial_index":74,"time_elapsed":354503,"internal_node_id":"0.0-61.0","task_version":"battery-v0.1"},{"rune":"B","hex":"#3366ff99","correct":-1,"choice":-1,"rt":-1,"accuracy":1,"outcome":"+10","keys":[],"total_keys":0,"block":1,"trial":60,"robot":2,"valence":"win","action":"no-go","sham":0,"trial_type":"pit-trial","trial_index":75,"time_elapsed":358512,"internal_node_id":"0.0-62.0","task_version":"battery-v0.1"},{"rune":"B","hex":"#3366ff99","correct":-1,"choice":-1,"rt":-1,"accuracy":1,"outcome":"+10","keys":[],"total_keys":0,"block":1,"trial":61,"robot":2,"valence":"win","action":"no-go","sham":0,"trial_type":"pit-trial","trial_index":76,"time_elapsed":362520,"internal_node_id":"0.0-63.0","task_version":"battery-v0.1"},{"rune":"Y","hex":"#3366ff99","correct":32,"choice":32,"rt":397.3250000271946,"accuracy":1,"outcome":"+10","keys":[1897.5199999986216],"total_keys":1,"block":1,"trial":62,"robot":1,"valence":"win","action":"go","sham":0,"trial_type":"pit-trial","trial_index":77,"time_elapsed":365626,"internal_node_id":"0.0-64.0","task_version":"battery-v0.1"},{"rune":"W","hex":"#f73b6a7A","correct":-1,"choice":32,"rt":574.6550000039861,"accuracy":0,"outcome":"-10","keys":[2075.485000037588],"total_keys":1,"block":1,"trial":63,"robot":4,"valence":"lose","action":"no-go","sham":0,"trial_type":"pit-trial","trial_index":78,"time_elapsed":368908,"internal_node_id":"0.0-65.0","task_version":"battery-v0.1"},{"rune":"N","hex":"#f73b6a7A","correct":32,"choice":32,"rt":674.2799999192357,"accuracy":1,"outcome":"-1","keys":[2175.0350000802428],"total_keys":1,"block":1,"trial":64,"robot":3,"valence":"lose","action":"go","sham":0,"trial_type":"pit-trial","trial_index":79,"time_elapsed":372290,"internal_node_id":"0.0-66.0","task_version":"battery-v0.1"},{"rune":"W","hex":"#f73b6a7A","correct":-1,"choice":-1,"rt":-1,"accuracy":1,"outcome":"-1","keys":[],"total_keys":0,"block":1,"trial":65,"robot":4,"valence":"lose","action":"no-go","sham":0,"trial_type":"pit-trial","trial_index":80,"time_elapsed":376298,"internal_node_id":"0.0-67.0","task_version":"battery-v0.1"},{"rune":"B","hex":"#3366ff99","correct":-1,"choice":-1,"rt":-1,"accuracy":1,"outcome":"+10","keys":[],"total_keys":0,"block":1,"trial":66,"robot":2,"valence":"win","action":"no-go","sham":0,"trial_type":"pit-trial","trial_index":81,"time_elapsed":380307,"internal_node_id":"0.0-68.0","task_version":"battery-v0.1"},{"rune":"N","hex":"#f73b6a7A","correct":32,"choice":32,"rt":1071.2749999947846,"accuracy":1,"outcome":"-1","keys":[2571.6600000159815],"total_keys":1,"block":1,"trial":67,"robot":3,"valence":"lose","action":"go","sham":0,"trial_type":"pit-trial","trial_index":82,"time_elapsed":384087,"internal_node_id":"0.0-69.0","task_version":"battery-v0.1"},{"rune":"Y","hex":"#3366ff99","correct":32,"choice":32,"rt":303.4849999239668,"accuracy":1,"outcome":"+10","keys":[1804.494999931194],"total_keys":1,"block":1,"trial":68,"robot":1,"valence":"win","action":"go","sham":0,"trial_type":"pit-trial","trial_index":83,"time_elapsed":387098,"internal_node_id":"0.0-70.0","task_version":"battery-v0.1"},{"rune":"Y","hex":"#3366ff99","correct":32,"choice":32,"rt":386.61000004503876,"accuracy":1,"outcome":"+1","keys":[1887.6699999673292],"total_keys":1,"block":1,"trial":69,"robot":1,"valence":"win","action":"go","sham":1,"trial_type":"pit-trial","trial_index":84,"time_elapsed":390193,"internal_node_id":"0.0-71.0","task_version":"battery-v0.1"},{"rune":"N","hex":"#f73b6a7A","correct":32,"choice":32,"rt":330.7899999199435,"accuracy":1,"outcome":"-1","keys":[1831.815000041388],"total_keys":1,"block":1,"trial":70,"robot":3,"valence":"lose","action":"go","sham":0,"trial_type":"pit-trial","trial_index":85,"time_elapsed":393232,"internal_node_id":"0.0-72.0","task_version":"battery-v0.1"},{"rune":"B","hex":"#3366ff99","correct":-1,"choice":-1,"rt":-1,"accuracy":1,"outcome":"+10","keys":[],"total_keys":0,"block":1,"trial":71,"robot":2,"valence":"win","action":"no-go","sham":0,"trial_type":"pit-trial","trial_index":86,"time_elapsed":397240,"internal_node_id":"0.0-73.0","task_version":"battery-v0.1"},{"rune":"W","hex":"#f73b6a7A","correct":-1,"choice":-1,"rt":-1,"accuracy":1,"outcome":"-1","keys":[],"total_keys":0,"block":1,"trial":72,"robot":4,"valence":"lose","action":"no-go","sham":0,"trial_type":"pit-trial","trial_index":87,"time_elapsed":401248,"internal_node_id":"0.0-74.0","task_version":"battery-v0.1"},{"rune":"Z","hex":"#3366ff99","correct":32,"choice":32,"rt":636.0250000143424,"accuracy":1,"outcome":"+10","keys":[2136.270000017248],"total_keys":1,"block":1,"trial":73,"robot":1,"valence":"win","action":"go","sham":0,"trial_type":"pit-trial","trial_index":88,"time_elapsed":404592,"internal_node_id":"0.0-75.0","task_version":"battery-v0.1"},{"rune":"S","hex":"#f73b6a7A","correct":32,"choice":32,"rt":746.5499999234453,"accuracy":1,"outcome":"-10","keys":[2247.7250000229105],"total_keys":1,"block":1,"trial":74,"robot":3,"valence":"lose","action":"go","sham":1,"trial_type":"pit-trial","trial_index":89,"time_elapsed":408047,"internal_node_id":"0.0-76.0","task_version":"battery-v0.1"},{"rune":"B","hex":"#3366ff99","correct":-1,"choice":32,"rt":537.5249999342486,"accuracy":0,"outcome":"+1","keys":[2039.1600000439212],"total_keys":1,"block":1,"trial":75,"robot":2,"valence":"win","action":"no-go","sham":0,"trial_type":"pit-trial","trial_index":90,"time_elapsed":411292,"internal_node_id":"0.0-77.0","task_version":"battery-v0.1"},{"rune":"W","hex":"#f73b6a7A","correct":-1,"choice":32,"rt":692.5000000046566,"accuracy":0,"outcome":"-10","keys":[2193.754999898374],"total_keys":1,"block":1,"trial":76,"robot":4,"valence":"lose","action":"no-go","sham":0,"trial_type":"pit-trial","trial_index":91,"time_elapsed":414693,"internal_node_id":"0.0-78.0","task_version":"battery-v0.1"},{"rune":"Z","hex":"#3366ff99","correct":32,"choice":32,"rt":566.9400000479072,"accuracy":1,"outcome":"+10","keys":[2067.8850000258535],"total_keys":1,"block":1,"trial":77,"robot":1,"valence":"win","action":"go","sham":0,"trial_type":"pit-trial","trial_index":92,"time_elapsed":417967,"internal_node_id":"0.0-79.0","task_version":"battery-v0.1"},{"rune":"W","hex":"#f73b6a7A","correct":-1,"choice":-1,"rt":-1,"accuracy":1,"outcome":"-1","keys":[],"total_keys":0,"block":1,"trial":78,"robot":4,"valence":"lose","action":"no-go","sham":0,"trial_type":"pit-trial","trial_index":93,"time_elapsed":421975,"internal_node_id":"0.0-80.0","task_version":"battery-v0.1"},{"rune":"S","hex":"#f73b6a7A","correct":32,"choice":32,"rt":837.5549999764189,"accuracy":1,"outcome":"-1","keys":[2337.9600000334904],"total_keys":1,"block":1,"trial":79,"robot":3,"valence":"lose","action":"go","sham":0,"trial_type":"pit-trial","trial_index":94,"time_elapsed":425520,"internal_node_id":"0.0-81.0","task_version":"battery-v0.1"},{"rune":"B","hex":"#3366ff99","correct":-1,"choice":-1,"rt":-1,"accuracy":1,"outcome":"+10","keys":[],"total_keys":0,"block":1,"trial":80,"robot":2,"valence":"win","action":"no-go","sham":0,"trial_type":"pit-trial","trial_index":95,"time_elapsed":429534,"internal_node_id":"0.0-82.0","task_version":"battery-v0.1"},{"rune":"B","hex":"#3366ff99","correct":-1,"choice":-1,"rt":-1,"accuracy":1,"outcome":"+10","keys":[],"total_keys":0,"block":1,"trial":81,"robot":2,"valence":"win","action":"no-go","sham":0,"trial_type":"pit-trial","trial_index":96,"time_elapsed":433541,"internal_node_id":"0.0-83.0","task_version":"battery-v0.1"},{"rune":"W","hex":"#f73b6a7A","correct":-1,"choice":-1,"rt":-1,"accuracy":1,"outcome":"-10","keys":[],"total_keys":0,"block":1,"trial":82,"robot":4,"valence":"lose","action":"no-go","sham":1,"trial_type":"pit-trial","trial_index":97,"time_elapsed":437550,"internal_node_id":"0.0-84.0","task_version":"battery-v0.1"},{"rune":"Z","hex":"#3366ff99","correct":32,"choice":32,"rt":377.64000007882714,"accuracy":1,"outcome":"+1","keys":[1878.664999967441],"total_keys":1,"block":1,"trial":83,"robot":1,"valence":"win","action":"go","sham":1,"trial_type":"pit-trial","trial_index":98,"time_elapsed":440636,"internal_node_id":"0.0-85.0","task_version":"battery-v0.1"},{"rune":"S","hex":"#f73b6a7A","correct":32,"choice":32,"rt":323.3250000048429,"accuracy":1,"outcome":"-1","keys":[1824.0950000472367],"total_keys":1,"block":1,"trial":84,"robot":3,"valence":"lose","action":"go","sham":0,"trial_type":"pit-trial","trial_index":99,"time_elapsed":443667,"internal_node_id":"0.0-86.0","task_version":"battery-v0.1"},{"rune":"Z","hex":"#3366ff99","correct":32,"choice":32,"rt":546.2200000183657,"accuracy":1,"outcome":"+10","keys":[2046.2749999715015],"total_keys":1,"block":1,"trial":85,"robot":1,"valence":"win","action":"go","sham":0,"trial_type":"pit-trial","trial_index":100,"time_elapsed":446918,"internal_node_id":"0.0-87.0","task_version":"battery-v0.1"},{"rune":"S","hex":"#f73b6a7A","correct":32,"choice":32,"rt":451.40500005800277,"accuracy":1,"outcome":"-1","keys":[1952.8000000864267],"total_keys":1,"block":1,"trial":86,"robot":3,"valence":"lose","action":"go","sham":0,"trial_type":"pit-trial","trial_index":101,"time_elapsed":450078,"internal_node_id":"0.0-88.0","task_version":"battery-v0.1"},{"rune":"B","hex":"#3366ff99","correct":-1,"choice":-1,"rt":-1,"accuracy":1,"outcome":"+10","keys":[],"total_keys":0,"block":1,"trial":87,"robot":2,"valence":"win","action":"no-go","sham":0,"trial_type":"pit-trial","trial_index":102,"time_elapsed":454085,"internal_node_id":"0.0-89.0","task_version":"battery-v0.1"},{"rune":"W","hex":"#f73b6a7A","correct":-1,"choice":32,"rt":627.3949999595061,"accuracy":0,"outcome":"-10","keys":[2129.315000027418],"total_keys":1,"block":1,"trial":88,"robot":4,"valence":"lose","action":"no-go","sham":0,"trial_type":"pit-trial","trial_index":103,"time_elapsed":457422,"internal_node_id":"0.0-90.0","task_version":"battery-v0.1"},{"rune":"D","hex":"#3366ff99","correct":-1,"choice":-1,"rt":-1,"accuracy":1,"outcome":"+10","keys":[],"total_keys":0,"block":1,"trial":89,"robot":2,"valence":"win","action":"no-go","sham":0,"trial_type":"pit-trial","trial_index":104,"time_elapsed":461429,"internal_node_id":"0.0-91.0","task_version":"battery-v0.1"},{"rune":"S","hex":"#f73b6a7A","correct":32,"choice":32,"rt":792.795000015758,"accuracy":1,"outcome":"-1","keys":[2293.0350000970066],"total_keys":1,"block":1,"trial":90,"robot":3,"valence":"lose","action":"go","sham":0,"trial_type":"pit-trial","trial_index":105,"time_elapsed":464928,"internal_node_id":"0.0-92.0","task_version":"battery-v0.1"},{"rune":"Z","hex":"#3366ff99","correct":32,"choice":32,"rt":425.48999993596226,"accuracy":1,"outcome":"+10","keys":[1926.2699999380857],"total_keys":1,"block":1,"trial":91,"robot":1,"valence":"win","action":"go","sham":0,"trial_type":"pit-trial","trial_index":106,"time_elapsed":468061,"internal_node_id":"0.0-93.0","task_version":"battery-v0.1"},{"rune":"M","hex":"#f73b6a7A","correct":32,"choice":-1,"rt":-1,"accuracy":0,"outcome":"-10","keys":[],"total_keys":0,"block":1,"trial":92,"robot":3,"valence":"lose","action":"go","sham":0,"trial_type":"pit-trial","trial_index":107,"time_elapsed":472070,"internal_node_id":"0.0-94.0","task_version":"battery-v0.1"},{"rune":"M","hex":"#f73b6a7A","correct":32,"choice":32,"rt":443.2299999753013,"accuracy":1,"outcome":"-1","keys":[1945.2400000300258],"total_keys":1,"block":1,"trial":93,"robot":3,"valence":"lose","action":"go","sham":0,"trial_type":"pit-trial","trial_index":108,"time_elapsed":475222,"internal_node_id":"0.0-95.0","task_version":"battery-v0.1"},{"rune":"Z","hex":"#3366ff99","correct":32,"choice":32,"rt":958.2299999892712,"accuracy":1,"outcome":"+10","keys":[2458.7349999928847],"total_keys":1,"block":1,"trial":94,"robot":1,"valence":"win","action":"go","sham":0,"trial_type":"pit-trial","trial_index":109,"time_elapsed":478887,"internal_node_id":"0.0-96.0","task_version":"battery-v0.1"},{"rune":"S","hex":"#f73b6a7A","correct":32,"choice":32,"rt":766.4949999889359,"accuracy":1,"outcome":"-1","keys":[2266.5899998974055],"total_keys":1,"block":1,"trial":95,"robot":3,"valence":"lose","action":"go","sham":0,"trial_type":"pit-trial","trial_index":110,"time_elapsed":482360,"internal_node_id":"0.0-97.0","task_version":"battery-v0.1"},{"rune":"D","hex":"#3366ff99","correct":-1,"choice":-1,"rt":-1,"accuracy":1,"outcome":"+10","keys":[],"total_keys":0,"block":1,"trial":96,"robot":2,"valence":"win","action":"no-go","sham":0,"trial_type":"pit-trial","trial_index":111,"time_elapsed":486368,"internal_node_id":"0.0-98.0","task_version":"battery-v0.1"},{"rune":"Z","hex":"#3366ff99","correct":32,"choice":32,"rt":413.6700000381097,"accuracy":1,"outcome":"+10","keys":[1915.0699999881908],"total_keys":1,"block":1,"trial":97,"robot":1,"valence":"win","action":"go","sham":0,"trial_type":"pit-trial","trial_index":112,"time_elapsed":489489,"internal_node_id":"0.0-99.0","task_version":"battery-v0.1"},{"rune":"S","hex":"#f73b6a7A","correct":32,"choice":32,"rt":438.40000010095537,"accuracy":1,"outcome":"-1","keys":[1939.505000016652],"total_keys":1,"block":1,"trial":98,"robot":3,"valence":"lose","action":"go","sham":0,"trial_type":"pit-trial","trial_index":113,"time_elapsed":492635,"internal_node_id":"0.0-100.0","task_version":"battery-v0.1"},{"rune":"D","hex":"#3366ff99","correct":-1,"choice":-1,"rt":-1,"accuracy":1,"outcome":"+1","keys":[],"total_keys":0,"block":1,"trial":99,"robot":2,"valence":"win","action":"no-go","sham":1,"trial_type":"pit-trial","trial_index":114,"time_elapsed":496654,"internal_node_id":"0.0-101.0","task_version":"battery-v0.1"},{"rune":"M","hex":"#f73b6a7A","correct":32,"choice":32,"rt":523.4149999450892,"accuracy":1,"outcome":"-1","keys":[2024.57000000868],"total_keys":1,"block":1,"trial":100,"robot":3,"valence":"lose","action":"go","sham":0,"trial_type":"pit-trial","trial_index":115,"time_elapsed":499891,"internal_node_id":"0.0-102.0","task_version":"battery-v0.1"},{"rune":"D","hex":"#3366ff99","correct":-1,"choice":-1,"rt":-1,"accuracy":1,"outcome":"+10","keys":[],"total_keys":0,"block":1,"trial":101,"robot":2,"valence":"win","action":"no-go","sham":0,"trial_type":"pit-trial","trial_index":116,"time_elapsed":503899,"internal_node_id":"0.0-103.0","task_version":"battery-v0.1"},{"rune":"M","hex":"#f73b6a7A","correct":32,"choice":32,"rt":384.0199999976903,"accuracy":1,"outcome":"-1","keys":[1885.2399999741465],"total_keys":1,"block":1,"trial":102,"robot":3,"valence":"lose","action":"go","sham":0,"trial_type":"pit-trial","trial_index":117,"time_elapsed":506991,"internal_node_id":"0.0-104.0","task_version":"battery-v0.1"},{"rune":"Z","hex":"#3366ff99","correct":32,"choice":32,"rt":372.1699999878183,"accuracy":1,"outcome":"+10","keys":[1872.4200000287965],"total_keys":1,"block":1,"trial":103,"robot":1,"valence":"win","action":"go","sham":0,"trial_type":"pit-trial","trial_index":118,"time_elapsed":510070,"internal_node_id":"0.0-105.0","task_version":"battery-v0.1"},{"rune":"S","hex":"#f73b6a7A","correct":32,"choice":32,"rt":641.1150000058115,"accuracy":1,"outcome":"-1","keys":[2142.005000030622],"total_keys":1,"block":1,"trial":104,"robot":3,"valence":"lose","action":"go","sham":0,"trial_type":"pit-trial","trial_index":119,"time_elapsed":513420,"internal_node_id":"0.0-106.0","task_version":"battery-v0.1"},{"rune":"Z","hex":"#3366ff99","correct":32,"choice":32,"rt":396.9050000887364,"accuracy":1,"outcome":"+1","keys":[1898.8449999596924],"total_keys":1,"block":1,"trial":105,"robot":1,"valence":"win","action":"go","sham":1,"trial_type":"pit-trial","trial_index":120,"time_elapsed":516526,"internal_node_id":"0.0-107.0","task_version":"battery-v0.1"},{"rune":"S","hex":"#f73b6a7A","correct":32,"choice":32,"rt":464.3050000304356,"accuracy":1,"outcome":"-1","keys":[1965.7049999805167],"total_keys":1,"block":1,"trial":106,"robot":3,"valence":"lose","action":"go","sham":0,"trial_type":"pit-trial","trial_index":121,"time_elapsed":519699,"internal_node_id":"0.0-108.0","task_version":"battery-v0.1"},{"rune":"D","hex":"#3366ff99","correct":-1,"choice":-1,"rt":-1,"accuracy":1,"outcome":"+10","keys":[],"total_keys":0,"block":1,"trial":107,"robot":2,"valence":"win","action":"no-go","sham":0,"trial_type":"pit-trial","trial_index":122,"time_elapsed":523706,"internal_node_id":"0.0-109.0","task_version":"battery-v0.1"},{"rune":"M","hex":"#f73b6a7A","correct":32,"choice":32,"rt":464.0049999579787,"accuracy":1,"outcome":"-1","keys":[1964.96000001207],"total_keys":1,"block":1,"trial":108,"robot":3,"valence":"lose","action":"go","sham":0,"trial_type":"pit-trial","trial_index":123,"time_elapsed":526878,"internal_node_id":"0.0-110.0","task_version":"battery-v0.1"},{"rune":"S","hex":"#f73b6a7A","correct":32,"choice":32,"rt":538.7499999487773,"accuracy":1,"outcome":"-1","keys":[2038.8700000476092],"total_keys":1,"block":1,"trial":109,"robot":3,"valence":"lose","action":"go","sham":0,"trial_type":"pit-trial","trial_index":124,"time_elapsed":530123,"internal_node_id":"0.0-111.0","task_version":"battery-v0.1"},{"rune":"Z","hex":"#3366ff99","correct":32,"choice":32,"rt":334.9500000476837,"accuracy":1,"outcome":"+10","keys":[1835.205000010319],"total_keys":1,"block":1,"trial":110,"robot":1,"valence":"win","action":"go","sham":0,"trial_type":"pit-trial","trial_index":125,"time_elapsed":533164,"internal_node_id":"0.0-112.0","task_version":"battery-v0.1"},{"rune":"D","hex":"#3366ff99","correct":-1,"choice":-1,"rt":-1,"accuracy":1,"outcome":"+10","keys":[],"total_keys":0,"block":1,"trial":111,"robot":2,"valence":"win","action":"no-go","sham":0,"trial_type":"pit-trial","trial_index":126,"time_elapsed":537170,"internal_node_id":"0.0-113.0","task_version":"battery-v0.1"},{"rune":"M","hex":"#f73b6a7A","correct":32,"choice":32,"rt":409.8249999806285,"accuracy":1,"outcome":"-1","keys":[1910.5749999871477],"total_keys":1,"block":1,"trial":112,"robot":3,"valence":"lose","action":"go","sham":0,"trial_type":"pit-trial","trial_index":127,"time_elapsed":540287,"internal_node_id":"0.0-114.0","task_version":"battery-v0.1"},{"rune":"Z","hex":"#3366ff99","correct":32,"choice":32,"rt":275.7649999111891,"accuracy":1,"outcome":"+10","keys":[1777.064999914728],"total_keys":1,"block":1,"trial":113,"robot":1,"valence":"win","action":"go","sham":0,"trial_type":"pit-trial","trial_index":128,"time_elapsed":543271,"internal_node_id":"0.0-115.0","task_version":"battery-v0.1"},{"rune":"D","hex":"#3366ff99","correct":-1,"choice":-1,"rt":-1,"accuracy":1,"outcome":"+10","keys":[],"total_keys":0,"block":1,"trial":114,"robot":2,"valence":"win","action":"no-go","sham":0,"trial_type":"pit-trial","trial_index":129,"time_elapsed":547279,"internal_node_id":"0.0-116.0","task_version":"battery-v0.1"},{"rune":"M","hex":"#f73b6a7A","correct":32,"choice":32,"rt":530.2900000242516,"accuracy":1,"outcome":"-1","keys":[2030.8049999875948],"total_keys":1,"block":1,"trial":115,"robot":3,"valence":"lose","action":"go","sham":0,"trial_type":"pit-trial","trial_index":130,"time_elapsed":550517,"internal_node_id":"0.0-117.0","task_version":"battery-v0.1"},{"rune":"S","hex":"#f73b6a7A","correct":32,"choice":32,"rt":382.39000004250556,"accuracy":1,"outcome":"-1","keys":[1883.5899999830872],"total_keys":1,"block":1,"trial":116,"robot":3,"valence":"lose","action":"go","sham":0,"trial_type":"pit-trial","trial_index":131,"time_elapsed":553607,"internal_node_id":"0.0-118.0","task_version":"battery-v0.1"},{"rune":"Z","hex":"#3366ff99","correct":32,"choice":32,"rt":327.9500000644475,"accuracy":1,"outcome":"+10","keys":[1829.9150000093505],"total_keys":1,"block":1,"trial":117,"robot":1,"valence":"win","action":"go","sham":0,"trial_type":"pit-trial","trial_index":132,"time_elapsed":556644,"internal_node_id":"0.0-119.0","task_version":"battery-v0.1"},{"rune":"M","hex":"#f73b6a7A","correct":32,"choice":32,"rt":610.0350000197068,"accuracy":1,"outcome":"-1","keys":[2111.159999971278],"total_keys":1,"block":1,"trial":118,"robot":3,"valence":"lose","action":"go","sham":0,"trial_type":"pit-trial","trial_index":133,"time_elapsed":559962,"internal_node_id":"0.0-120.0","task_version":"battery-v0.1"},{"rune":"S","hex":"#f73b6a7A","correct":32,"choice":32,"rt":278.2700000097975,"accuracy":1,"outcome":"-1","keys":[1778.6199999973178],"total_keys":1,"block":1,"trial":119,"robot":3,"valence":"lose","action":"go","sham":0,"trial_type":"pit-trial","trial_index":134,"time_elapsed":562947,"internal_node_id":"0.0-121.0","task_version":"battery-v0.1"},{"rune":"D","hex":"#3366ff99","correct":-1,"choice":-1,"rt":-1,"accuracy":1,"outcome":"+1","keys":[],"total_keys":0,"block":1,"trial":120,"robot":2,"valence":"win","action":"no-go","sham":1,"trial_type":"pit-trial","trial_index":135,"time_elapsed":566966,"internal_node_id":"0.0-122.0","task_version":"battery-v0.1"},{"view_history":"[{\"page_index\":0,\"viewing_time\":2846.1749999551103},{\"page_index\":1,\"viewing_time\":2535.5250000720844}]","rt":5382.744999951683,"trial_type":"pit-instructions","trial_index":136,"time_elapsed":572350,"internal_node_id":"0.0-123.0","task_version":"battery-v0.1"},{"rune":"E","hex":"#f73b6a7A","correct":-1,"choice":32,"rt":518.0699999909848,"accuracy":0,"outcome":"-10","keys":[2017.9850000422448],"total_keys":1,"block":2,"trial":121,"robot":4,"valence":"lose","action":"no-go","sham":0,"trial_type":"pit-trial","trial_index":137,"time_elapsed":575578,"internal_node_id":"0.0-124.0","task_version":"battery-v0.1"},{"rune":"T","hex":"#3366ff99","correct":32,"choice":32,"rt":354.700000025332,"accuracy":1,"outcome":"+10","keys":[1855.6249999674037],"total_keys":1,"block":2,"trial":122,"robot":1,"valence":"win","action":"go","sham":0,"trial_type":"pit-trial","trial_index":138,"time_elapsed":578641,"internal_node_id":"0.0-125.0","task_version":"battery-v0.1"},{"rune":"Q","hex":"#3366ff99","correct":32,"choice":32,"rt":391.58499997574836,"accuracy":1,"outcome":"+10","keys":[1892.9250000510365],"total_keys":1,"block":2,"trial":123,"robot":1,"valence":"win","action":"go","sham":0,"trial_type":"pit-trial","trial_index":139,"time_elapsed":581740,"internal_node_id":"0.0-126.0","task_version":"battery-v0.1"},{"rune":"G","hex":"#3366ff99","correct":-1,"choice":32,"rt":426.0549999307841,"accuracy":0,"outcome":"+1","keys":[1927.335000014864],"total_keys":1,"block":2,"trial":124,"robot":2,"valence":"win","action":"no-go","sham":0,"trial_type":"pit-trial","trial_index":140,"time_elapsed":584876,"internal_node_id":"0.0-127.0","task_version":"battery-v0.1"},{"rune":"E","hex":"#f73b6a7A","correct":-1,"choice":32,"rt":330.794999958016,"accuracy":0,"outcome":"-10","keys":[1831.389999948442],"total_keys":1,"block":2,"trial":125,"robot":4,"valence":"lose","action":"no-go","sham":0,"trial_type":"pit-trial","trial_index":141,"time_elapsed":587914,"internal_node_id":"0.0-128.0","task_version":"battery-v0.1"},{"rune":"Q","hex":"#3366ff99","correct":32,"choice":32,"rt":430.80500001087785,"accuracy":1,"outcome":"+10","keys":[1932.2750000283122],"total_keys":1,"block":2,"trial":126,"robot":1,"valence":"win","action":"go","sham":0,"trial_type":"pit-trial","trial_index":142,"time_elapsed":591054,"internal_node_id":"0.0-129.0","task_version":"battery-v0.1"},{"rune":"G","hex":"#3366ff99","correct":-1,"choice":-1,"rt":-1,"accuracy":1,"outcome":"+10","keys":[],"total_keys":0,"block":2,"trial":127,"robot":2,"valence":"win","action":"no-go","sham":0,"trial_type":"pit-trial","trial_index":143,"time_elapsed":595063,"internal_node_id":"0.0-130.0","task_version":"battery-v0.1"},{"rune":"T","hex":"#3366ff99","correct":32,"choice":32,"rt":479.89999991841614,"accuracy":1,"outcome":"+1","keys":[1980.4199999198318],"total_keys":1,"block":2,"trial":128,"robot":1,"valence":"win","action":"go","sham":1,"trial_type":"pit-trial","trial_index":144,"time_elapsed":598251,"internal_node_id":"0.0-131.0","task_version":"battery-v0.1"},{"rune":"Q","hex":"#3366ff99","correct":32,"choice":32,"rt":340.97499994095415,"accuracy":1,"outcome":"+1","keys":[1842.4749999539927],"total_keys":1,"block":2,"trial":129,"robot":1,"valence":"win","action":"go","sham":1,"trial_type":"pit-trial","trial_index":145,"time_elapsed":601300,"internal_node_id":"0.0-132.0","task_version":"battery-v0.1"},{"rune":"G","hex":"#3366ff99","correct":-1,"choice":32,"rt":510.0899999961257,"accuracy":0,"outcome":"+1","keys":[2011.4900000626221],"total_keys":1,"block":2,"trial":130,"robot":2,"valence":"win","action":"no-go","sham":0,"trial_type":"pit-trial","trial_index":146,"time_elapsed":604516,"internal_node_id":"0.0-133.0","task_version":"battery-v0.1"},{"rune":"E","hex":"#f73b6a7A","correct":-1,"choice":-1,"rt":-1,"accuracy":1,"outcome":"-10","keys":[],"total_keys":0,"block":2,"trial":131,"robot":4,"valence":"lose","action":"no-go","sham":1,"trial_type":"pit-trial","trial_index":147,"time_elapsed":608524,"internal_node_id":"0.0-134.0","task_version":"battery-v0.1"},{"rune":"T","hex":"#3366ff99","correct":32,"choice":32,"rt":265.6849999912083,"accuracy":1,"outcome":"+10","keys":[1766.330000013113],"total_keys":1,"block":2,"trial":132,"robot":1,"valence":"win","action":"go","sham":0,"trial_type":"pit-trial","trial_index":148,"time_elapsed":611497,"internal_node_id":"0.0-135.0","task_version":"battery-v0.1"},{"rune":"T","hex":"#3366ff99","correct":32,"choice":32,"rt":337.8100000554696,"accuracy":1,"outcome":"+10","keys":[1838.1250000093132],"total_keys":1,"block":2,"trial":133,"robot":1,"valence":"win","action":"go","sham":0,"trial_type":"pit-trial","trial_index":149,"time_elapsed":614542,"internal_node_id":"0.0-136.0","task_version":"battery-v0.1"},{"rune":"Q","hex":"#3366ff99","correct":32,"choice":32,"rt":259.2450000811368,"accuracy":1,"outcome":"+10","keys":[1760.2049999404699],"total_keys":1,"block":2,"trial":134,"robot":1,"valence":"win","action":"go","sham":0,"trial_type":"pit-trial","trial_index":150,"time_elapsed":617509,"internal_node_id":"0.0-137.0","task_version":"battery-v0.1"},{"rune":"G","hex":"#3366ff99","correct":-1,"choice":-1,"rt":-1,"accuracy":1,"outcome":"+10","keys":[],"total_keys":0,"block":2,"trial":135,"robot":2,"valence":"win","action":"no-go","sham":0,"trial_type":"pit-trial","trial_index":151,"time_elapsed":621517,"internal_node_id":"0.0-138.0","task_version":"battery-v0.1"},{"rune":"E","hex":"#f73b6a7A","correct":-1,"choice":32,"rt":268.68500001728535,"accuracy":0,"outcome":"-10","keys":[1769.730000058189],"total_keys":1,"block":2,"trial":136,"robot":4,"valence":"lose","action":"no-go","sham":0,"trial_type":"pit-trial","trial_index":152,"time_elapsed":624494,"internal_node_id":"0.0-139.0","task_version":"battery-v0.1"},{"rune":"E","hex":"#f73b6a7A","correct":-1,"choice":32,"rt":615.6849999679253,"accuracy":0,"outcome":"-10","keys":[2116.924999980256],"total_keys":1,"block":2,"trial":137,"robot":4,"valence":"lose","action":"no-go","sham":0,"trial_type":"pit-trial","trial_index":153,"time_elapsed":627818,"internal_node_id":"0.0-140.0","task_version":"battery-v0.1"},{"rune":"Q","hex":"#3366ff99","correct":32,"choice":32,"rt":416.77000001072884,"accuracy":1,"outcome":"+10","keys":[1916.899999952875],"total_keys":1,"block":2,"trial":138,"robot":1,"valence":"win","action":"go","sham":0,"trial_type":"pit-trial","trial_index":154,"time_elapsed":630942,"internal_node_id":"0.0-141.0","task_version":"battery-v0.1"},{"rune":"T","hex":"#3366ff99","correct":32,"choice":32,"rt":271.30500006023794,"accuracy":1,"outcome":"+10","keys":[1773.0199999641627],"total_keys":1,"block":2,"trial":139,"robot":1,"valence":"win","action":"go","sham":0,"trial_type":"pit-trial","trial_index":155,"time_elapsed":633923,"internal_node_id":"0.0-142.0","task_version":"battery-v0.1"},{"rune":"G","hex":"#3366ff99","correct":-1,"choice":-1,"rt":-1,"accuracy":1,"outcome":"+10","keys":[],"total_keys":0,"block":2,"trial":140,"robot":2,"valence":"win","action":"no-go","sham":0,"trial_type":"pit-trial","trial_index":156,"time_elapsed":637930,"internal_node_id":"0.0-143.0","task_version":"battery-v0.1"},{"rune":"E","hex":"#f73b6a7A","correct":-1,"choice":-1,"rt":-1,"accuracy":1,"outcome":"-10","keys":[],"total_keys":0,"block":2,"trial":141,"robot":4,"valence":"lose","action":"no-go","sham":1,"trial_type":"pit-trial","trial_index":157,"time_elapsed":641938,"internal_node_id":"0.0-144.0","task_version":"battery-v0.1"},{"rune":"G","hex":"#3366ff99","correct":-1,"choice":-1,"rt":-1,"accuracy":1,"outcome":"+10","keys":[],"total_keys":0,"block":2,"trial":142,"robot":2,"valence":"win","action":"no-go","sham":0,"trial_type":"pit-trial","trial_index":158,"time_elapsed":645948,"internal_node_id":"0.0-145.0","task_version":"battery-v0.1"},{"rune":"T","hex":"#3366ff99","correct":32,"choice":32,"rt":378.95999988541007,"accuracy":1,"outcome":"+1","keys":[1879.6149999834597],"total_keys":1,"block":2,"trial":143,"robot":1,"valence":"win","action":"go","sham":1,"trial_type":"pit-trial","trial_index":159,"time_elapsed":649034,"internal_node_id":"0.0-146.0","task_version":"battery-v0.1"},{"rune":"Q","hex":"#3366ff99","correct":32,"choice":32,"rt":386.1049999250099,"accuracy":1,"outcome":"+10","keys":[1888.340000063181],"total_keys":1,"block":2,"trial":144,"robot":1,"valence":"win","action":"go","sham":0,"trial_type":"pit-trial","trial_index":160,"time_elapsed":652131,"internal_node_id":"0.0-147.0","task_version":"battery-v0.1"},{"rune":"E","hex":"#f73b6a7A","correct":-1,"choice":32,"rt":269.8649999219924,"accuracy":0,"outcome":"-10","keys":[1770.989999989979],"total_keys":1,"block":2,"trial":145,"robot":4,"valence":"lose","action":"no-go","sham":0,"trial_type":"pit-trial","trial_index":161,"time_elapsed":655109,"internal_node_id":"0.0-148.0","task_version":"battery-v0.1"},{"rune":"Q","hex":"#3366ff99","correct":32,"choice":32,"rt":422.05499997362494,"accuracy":1,"outcome":"+10","keys":[1922.2049999516457],"total_keys":1,"block":2,"trial":146,"robot":1,"valence":"win","action":"go","sham":0,"trial_type":"pit-trial","trial_index":162,"time_elapsed":658240,"internal_node_id":"0.0-149.0","task_version":"battery-v0.1"},{"rune":"T","hex":"#3366ff99","correct":32,"choice":32,"rt":273.29000004101545,"accuracy":1,"outcome":"+10","keys":[1774.015000090003],"total_keys":1,"block":2,"trial":147,"robot":1,"valence":"win","action":"go","sham":0,"trial_type":"pit-trial","trial_index":163,"time_elapsed":661221,"internal_node_id":"0.0-150.0","task_version":"battery-v0.1"},{"rune":"G","hex":"#3366ff99","correct":-1,"choice":-1,"rt":-1,"accuracy":1,"outcome":"+10","keys":[],"total_keys":0,"block":2,"trial":148,"robot":2,"valence":"win","action":"no-go","sham":0,"trial_type":"pit-trial","trial_index":164,"time_elapsed":665227,"internal_node_id":"0.0-151.0","task_version":"battery-v0.1"},{"rune":"Q","hex":"#3366ff99","correct":32,"choice":32,"rt":437.9950000438839,"accuracy":1,"outcome":"+10","keys":[1938.8599999947473],"total_keys":1,"block":2,"trial":149,"robot":1,"valence":"win","action":"go","sham":0,"trial_type":"pit-trial","trial_index":165,"time_elapsed":668373,"internal_node_id":"0.0-152.0","task_version":"battery-v0.1"},{"rune":"T","hex":"#3366ff99","correct":32,"choice":32,"rt":334.82999994885176,"accuracy":1,"outcome":"+1","keys":[1834.9349999334663],"total_keys":1,"block":2,"trial":150,"robot":1,"valence":"win","action":"go","sham":1,"trial_type":"pit-trial","trial_index":166,"time_elapsed":671415,"internal_node_id":"0.0-153.0","task_version":"battery-v0.1"},{"rune":"E","hex":"#f73b6a7A","correct":-1,"choice":-1,"rt":-1,"accuracy":1,"outcome":"-1","keys":[],"total_keys":0,"block":2,"trial":151,"robot":4,"valence":"lose","action":"no-go","sham":0,"trial_type":"pit-trial","trial_index":167,"time_elapsed":675423,"internal_node_id":"0.0-154.0","task_version":"battery-v0.1"},{"rune":"G","hex":"#3366ff99","correct":-1,"choice":-1,"rt":-1,"accuracy":1,"outcome":"+10","keys":[],"total_keys":0,"block":2,"trial":152,"robot":2,"valence":"win","action":"no-go","sham":0,"trial_type":"pit-trial","trial_index":168,"time_elapsed":679430,"internal_node_id":"0.0-155.0","task_version":"battery-v0.1"},{"rune":"G","hex":"#3366ff99","correct":-1,"choice":-1,"rt":-1,"accuracy":1,"outcome":"+10","keys":[],"total_keys":0,"block":2,"trial":153,"robot":2,"valence":"win","action":"no-go","sham":0,"trial_type":"pit-trial","trial_index":169,"time_elapsed":683437,"internal_node_id":"0.0-156.0","task_version":"battery-v0.1"},{"rune":"Q","hex":"#3366ff99","correct":32,"choice":32,"rt":357.64499998185784,"accuracy":1,"outcome":"+10","keys":[1858.6349999532104],"total_keys":1,"block":2,"trial":154,"robot":1,"valence":"win","action":"go","sham":0,"trial_type":"pit-trial","trial_index":170,"time_elapsed":686503,"internal_node_id":"0.0-157.0","task_version":"battery-v0.1"},{"rune":"E","hex":"#f73b6a7A","correct":-1,"choice":-1,"rt":-1,"accuracy":1,"outcome":"-1","keys":[],"total_keys":0,"block":2,"trial":155,"robot":4,"valence":"lose","action":"no-go","sham":0,"trial_type":"pit-trial","trial_index":171,"time_elapsed":690510,"internal_node_id":"0.0-158.0","task_version":"battery-v0.1"},{"rune":"F","hex":"#3366ff99","correct":32,"choice":-1,"rt":-1,"accuracy":0,"outcome":"+1","keys":[],"total_keys":0,"block":2,"trial":156,"robot":1,"valence":"win","action":"go","sham":0,"trial_type":"pit-trial","trial_index":172,"time_elapsed":694518,"internal_node_id":"0.0-159.0","task_version":"battery-v0.1"},{"rune":"G","hex":"#3366ff99","correct":-1,"choice":-1,"rt":-1,"accuracy":1,"outcome":"+10","keys":[],"total_keys":0,"block":2,"trial":157,"robot":2,"valence":"win","action":"no-go","sham":0,"trial_type":"pit-trial","trial_index":173,"time_elapsed":698527,"internal_node_id":"0.0-160.0","task_version":"battery-v0.1"},{"rune":"F","hex":"#3366ff99","correct":32,"choice":32,"rt":294.5249999174848,"accuracy":1,"outcome":"+1","keys":[1795.9199999459088],"total_keys":1,"block":2,"trial":158,"robot":1,"valence":"win","action":"go","sham":1,"trial_type":"pit-trial","trial_index":174,"time_elapsed":701530,"internal_node_id":"0.0-161.0","task_version":"battery-v0.1"},{"rune":"E","hex":"#f73b6a7A","correct":-1,"choice":-1,"rt":-1,"accuracy":1,"outcome":"-1","keys":[],"total_keys":0,"block":2,"trial":159,"robot":4,"valence":"lose","action":"no-go","sham":0,"trial_type":"pit-trial","trial_index":175,"time_elapsed":705538,"internal_node_id":"0.0-162.0","task_version":"battery-v0.1"},{"rune":"Q","hex":"#3366ff99","correct":32,"choice":32,"rt":426.5299999387935,"accuracy":1,"outcome":"+10","keys":[1927.8700000140816],"total_keys":1,"block":2,"trial":160,"robot":1,"valence":"win","action":"go","sham":0,"trial_type":"pit-trial","trial_index":176,"time_elapsed":708672,"internal_node_id":"0.0-163.0","task_version":"battery-v0.1"},{"rune":"C","hex":"#f73b6a7A","correct":32,"choice":-1,"rt":-1,"accuracy":0,"outcome":"-10","keys":[],"total_keys":0,"block":2,"trial":161,"robot":3,"valence":"lose","action":"go","sham":0,"trial_type":"pit-trial","trial_index":177,"time_elapsed":712679,"internal_node_id":"0.0-164.0","task_version":"battery-v0.1"},{"rune":"K","hex":"#f73b6a7A","correct":-1,"choice":-1,"rt":-1,"accuracy":1,"outcome":"-1","keys":[],"total_keys":0,"block":2,"trial":162,"robot":4,"valence":"lose","action":"no-go","sham":0,"trial_type":"pit-trial","trial_index":178,"time_elapsed":716688,"internal_node_id":"0.0-165.0","task_version":"battery-v0.1"},{"rune":"G","hex":"#3366ff99","correct":-1,"choice":-1,"rt":-1,"accuracy":1,"outcome":"+10","keys":[],"total_keys":0,"block":2,"trial":163,"robot":2,"valence":"win","action":"no-go","sham":0,"trial_type":"pit-trial","trial_index":179,"time_elapsed":720698,"internal_node_id":"0.0-166.0","task_version":"battery-v0.1"},{"rune":"F","hex":"#3366ff99","correct":32,"choice":32,"rt":660.2600000333041,"accuracy":1,"outcome":"+10","keys":[2160.429999930784],"total_keys":1,"block":2,"trial":164,"robot":1,"valence":"win","action":"go","sham":0,"trial_type":"pit-trial","trial_index":180,"time_elapsed":724066,"internal_node_id":"0.0-167.0","task_version":"battery-v0.1"},{"rune":"F","hex":"#3366ff99","correct":32,"choice":32,"rt":396.584999980405,"accuracy":1,"outcome":"+10","keys":[1898.2049999758601],"total_keys":1,"block":2,"trial":165,"robot":1,"valence":"win","action":"go","sham":0,"trial_type":"pit-trial","trial_index":181,"time_elapsed":727172,"internal_node_id":"0.0-168.0","task_version":"battery-v0.1"},{"rune":"G","hex":"#3366ff99","correct":-1,"choice":-1,"rt":-1,"accuracy":1,"outcome":"+10","keys":[],"total_keys":0,"block":2,"trial":166,"robot":2,"valence":"win","action":"no-go","sham":0,"trial_type":"pit-trial","trial_index":182,"time_elapsed":731180,"internal_node_id":"0.0-169.0","task_version":"battery-v0.1"},{"rune":"C","hex":"#f73b6a7A","correct":32,"choice":32,"rt":368.0900000035763,"accuracy":1,"outcome":"-1","keys":[1869.3200000561774],"total_keys":1,"block":2,"trial":167,"robot":3,"valence":"lose","action":"go","sham":0,"trial_type":"pit-trial","trial_index":183,"time_elapsed":734256,"internal_node_id":"0.0-170.0","task_version":"battery-v0.1"},{"rune":"K","hex":"#f73b6a7A","correct":-1,"choice":-1,"rt":-1,"accuracy":1,"outcome":"-1","keys":[],"total_keys":0,"block":2,"trial":168,"robot":4,"valence":"lose","action":"no-go","sham":0,"trial_type":"pit-trial","trial_index":184,"time_elapsed":738264,"internal_node_id":"0.0-171.0","task_version":"battery-v0.1"},{"rune":"K","hex":"#f73b6a7A","correct":-1,"choice":-1,"rt":-1,"accuracy":1,"outcome":"-1","keys":[],"total_keys":0,"block":2,"trial":169,"robot":4,"valence":"lose","action":"no-go","sham":0,"trial_type":"pit-trial","trial_index":185,"time_elapsed":742271,"internal_node_id":"0.0-172.0","task_version":"battery-v0.1"},{"rune":"F","hex":"#3366ff99","correct":32,"choice":32,"rt":336.48499997798353,"accuracy":1,"outcome":"+10","keys":[1837.5450000166893],"total_keys":1,"block":2,"trial":170,"robot":1,"valence":"win","action":"go","sham":0,"trial_type":"pit-trial","trial_index":186,"time_elapsed":745316,"internal_node_id":"0.0-173.0","task_version":"battery-v0.1"},{"rune":"L","hex":"#3366ff99","correct":-1,"choice":32,"rt":804.2350000469014,"accuracy":0,"outcome":"+1","keys":[2304.4600000139326],"total_keys":1,"block":2,"trial":171,"robot":2,"valence":"win","action":"no-go","sham":0,"trial_type":"pit-trial","trial_index":187,"time_elapsed":748828,"internal_node_id":"0.0-174.0","task_version":"battery-v0.1"},{"rune":"C","hex":"#f73b6a7A","correct":32,"choice":32,"rt":393.35000002756715,"accuracy":1,"outcome":"-1","keys":[1894.3949999520555],"total_keys":1,"block":2,"trial":172,"robot":3,"valence":"lose","action":"go","sham":0,"trial_type":"pit-trial","trial_index":188,"time_elapsed":751929,"internal_node_id":"0.0-175.0","task_version":"battery-v0.1"},{"rune":"L","hex":"#3366ff99","correct":-1,"choice":-1,"rt":-1,"accuracy":1,"outcome":"+10","keys":[],"total_keys":0,"block":2,"trial":173,"robot":2,"valence":"win","action":"no-go","sham":0,"trial_type":"pit-trial","trial_index":189,"time_elapsed":755937,"internal_node_id":"0.0-176.0","task_version":"battery-v0.1"},{"rune":"C","hex":"#f73b6a7A","correct":32,"choice":32,"rt":401.3849999755621,"accuracy":1,"outcome":"-10","keys":[1902.9400000581518],"total_keys":1,"block":2,"trial":174,"robot":3,"valence":"lose","action":"go","sham":1,"trial_type":"pit-trial","trial_index":190,"time_elapsed":759047,"internal_node_id":"0.0-177.0","task_version":"battery-v0.1"},{"rune":"K","hex":"#f73b6a7A","correct":-1,"choice":-1,"rt":-1,"accuracy":1,"outcome":"-1","keys":[],"total_keys":0,"block":2,"trial":175,"robot":4,"valence":"lose","action":"no-go","sham":0,"trial_type":"pit-trial","trial_index":191,"time_elapsed":763054,"internal_node_id":"0.0-178.0","task_version":"battery-v0.1"},{"rune":"F","hex":"#3366ff99","correct":32,"choice":32,"rt":340.32000007573515,"accuracy":1,"outcome":"+10","keys":[1840.5600000405684],"total_keys":1,"block":2,"trial":176,"robot":1,"valence":"win","action":"go","sham":0,"trial_type":"pit-trial","trial_index":192,"time_elapsed":766102,"internal_node_id":"0.0-179.0","task_version":"battery-v0.1"},{"rune":"F","hex":"#3366ff99","correct":32,"choice":32,"rt":498.41499992180616,"accuracy":1,"outcome":"+10","keys":[1999.7049999656156],"total_keys":1,"block":2,"trial":177,"robot":1,"valence":"win","action":"go","sham":0,"trial_type":"pit-trial","trial_index":193,"time_elapsed":769312,"internal_node_id":"0.0-180.0","task_version":"battery-v0.1"},{"rune":"C","hex":"#f73b6a7A","correct":32,"choice":32,"rt":370.21500000264496,"accuracy":1,"outcome":"-1","keys":[1870.4000000143424],"total_keys":1,"block":2,"trial":178,"robot":3,"valence":"lose","action":"go","sham":0,"trial_type":"pit-trial","trial_index":194,"time_elapsed":772390,"internal_node_id":"0.0-181.0","task_version":"battery-v0.1"},{"rune":"L","hex":"#3366ff99","correct":-1,"choice":-1,"rt":-1,"accuracy":1,"outcome":"+10","keys":[],"total_keys":0,"block":2,"trial":179,"robot":2,"valence":"win","action":"no-go","sham":0,"trial_type":"pit-trial","trial_index":195,"time_elapsed":776398,"internal_node_id":"0.0-182.0","task_version":"battery-v0.1"},{"rune":"K","hex":"#f73b6a7A","correct":-1,"choice":-1,"rt":-1,"accuracy":1,"outcome":"-1","keys":[],"total_keys":0,"block":2,"trial":180,"robot":4,"valence":"lose","action":"no-go","sham":0,"trial_type":"pit-trial","trial_index":196,"time_elapsed":780407,"internal_node_id":"0.0-183.0","task_version":"battery-v0.1"},{"rune":"L","hex":"#3366ff99","correct":-1,"choice":-1,"rt":-1,"accuracy":1,"outcome":"+1","keys":[],"total_keys":0,"block":2,"trial":181,"robot":2,"valence":"win","action":"no-go","sham":1,"trial_type":"pit-trial","trial_index":197,"time_elapsed":784415,"internal_node_id":"0.0-184.0","task_version":"battery-v0.1"},{"rune":"F","hex":"#3366ff99","correct":32,"choice":32,"rt":359.969999990426,"accuracy":1,"outcome":"+10","keys":[1860.039999941364],"total_keys":1,"block":2,"trial":182,"robot":1,"valence":"win","action":"go","sham":0,"trial_type":"pit-trial","trial_index":198,"time_elapsed":787482,"internal_node_id":"0.0-185.0","task_version":"battery-v0.1"},{"rune":"K","hex":"#f73b6a7A","correct":-1,"choice":-1,"rt":-1,"accuracy":1,"outcome":"-1","keys":[],"total_keys":0,"block":2,"trial":183,"robot":4,"valence":"lose","action":"no-go","sham":0,"trial_type":"pit-trial","trial_index":199,"time_elapsed":791490,"internal_node_id":"0.0-186.0","task_version":"battery-v0.1"},{"rune":"C","hex":"#f73b6a7A","correct":32,"choice":32,"rt":329.15000000502914,"accuracy":1,"outcome":"-1","keys":[1830.1699999719858],"total_keys":1,"block":2,"trial":184,"robot":3,"valence":"lose","action":"go","sham":0,"trial_type":"pit-trial","trial_index":200,"time_elapsed":794527,"internal_node_id":"0.0-187.0","task_version":"battery-v0.1"},{"rune":"L","hex":"#3366ff99","correct":-1,"choice":32,"rt":302.75000003166497,"accuracy":0,"outcome":"+1","keys":[1803.5450000315905],"total_keys":1,"block":2,"trial":185,"robot":2,"valence":"win","action":"no-go","sham":0,"trial_type":"pit-trial","trial_index":201,"time_elapsed":797538,"internal_node_id":"0.0-188.0","task_version":"battery-v0.1"},{"rune":"C","hex":"#f73b6a7A","correct":32,"choice":32,"rt":575.9300000499934,"accuracy":1,"outcome":"-1","keys":[2076.9849999342114],"total_keys":1,"block":2,"trial":186,"robot":3,"valence":"lose","action":"go","sham":0,"trial_type":"pit-trial","trial_index":202,"time_elapsed":800822,"internal_node_id":"0.0-189.0","task_version":"battery-v0.1"},{"rune":"F","hex":"#3366ff99","correct":32,"choice":32,"rt":250.34000002779067,"accuracy":1,"outcome":"+1","keys":[1750.9200000204146],"total_keys":1,"block":2,"trial":187,"robot":1,"valence":"win","action":"go","sham":1,"trial_type":"pit-trial","trial_index":203,"time_elapsed":803781,"internal_node_id":"0.0-190.0","task_version":"battery-v0.1"},{"rune":"K","hex":"#f73b6a7A","correct":-1,"choice":-1,"rt":-1,"accuracy":1,"outcome":"-10","keys":[],"total_keys":0,"block":2,"trial":188,"robot":4,"valence":"lose","action":"no-go","sham":1,"trial_type":"pit-trial","trial_index":204,"time_elapsed":807789,"internal_node_id":"0.0-191.0","task_version":"battery-v0.1"},{"rune":"F","hex":"#3366ff99","correct":32,"choice":32,"rt":362.7650000853464,"accuracy":1,"outcome":"+10","keys":[1863.2949999300763],"total_keys":1,"block":2,"trial":189,"robot":1,"valence":"win","action":"go","sham":0,"trial_type":"pit-trial","trial_index":205,"time_elapsed":810860,"internal_node_id":"0.0-192.0","task_version":"battery-v0.1"},{"rune":"L","hex":"#3366ff99","correct":-1,"choice":32,"rt":560.7600000221282,"accuracy":0,"outcome":"+1","keys":[2060.769999981858],"total_keys":1,"block":2,"trial":190,"robot":2,"valence":"win","action":"no-go","sham":0,"trial_type":"pit-trial","trial_index":206,"time_elapsed":814128,"internal_node_id":"0.0-193.0","task_version":"battery-v0.1"},{"rune":"K","hex":"#f73b6a7A","correct":-1,"choice":-1,"rt":-1,"accuracy":1,"outcome":"-1","keys":[],"total_keys":0,"block":2,"trial":191,"robot":4,"valence":"lose","action":"no-go","sham":0,"trial_type":"pit-trial","trial_index":207,"time_elapsed":818135,"internal_node_id":"0.0-194.0","task_version":"battery-v0.1"},{"rune":"C","hex":"#f73b6a7A","correct":32,"choice":32,"rt":301.7399999080226,"accuracy":1,"outcome":"-1","keys":[1803.429999970831],"total_keys":1,"block":2,"trial":192,"robot":3,"valence":"lose","action":"go","sham":0,"trial_type":"pit-trial","trial_index":208,"time_elapsed":821147,"internal_node_id":"0.0-195.0","task_version":"battery-v0.1"},{"rune":"L","hex":"#3366ff99","correct":-1,"choice":32,"rt":804.2600000044331,"accuracy":0,"outcome":"+1","keys":[2305.930000031367],"total_keys":1,"block":2,"trial":193,"robot":2,"valence":"win","action":"no-go","sham":0,"trial_type":"pit-trial","trial_index":209,"time_elapsed":824660,"internal_node_id":"0.0-196.0","task_version":"battery-v0.1"},{"rune":"K","hex":"#f73b6a7A","correct":-1,"choice":-1,"rt":-1,"accuracy":1,"outcome":"-1","keys":[],"total_keys":0,"block":2,"trial":194,"robot":4,"valence":"lose","action":"no-go","sham":0,"trial_type":"pit-trial","trial_index":210,"time_elapsed":828667,"internal_node_id":"0.0-197.0","task_version":"battery-v0.1"},{"rune":"F","hex":"#3366ff99","correct":32,"choice":32,"rt":309.1100000310689,"accuracy":1,"outcome":"+10","keys":[1810.6350000016391],"total_keys":1,"block":2,"trial":195,"robot":1,"valence":"win","action":"go","sham":0,"trial_type":"pit-trial","trial_index":211,"time_elapsed":831685,"internal_node_id":"0.0-198.0","task_version":"battery-v0.1"},{"rune":"V","hex":"#f73b6a7A","correct":32,"choice":32,"rt":864.1899999929592,"accuracy":1,"outcome":"-10","keys":[2365.9500000067055],"total_keys":1,"block":2,"trial":196,"robot":3,"valence":"lose","action":"go","sham":1,"trial_type":"pit-trial","trial_index":212,"time_elapsed":835257,"internal_node_id":"0.0-199.0","task_version":"battery-v0.1"},{"rune":"F","hex":"#3366ff99","correct":32,"choice":32,"rt":394.05500004068017,"accuracy":1,"outcome":"+10","keys":[1895.3200000105426],"total_keys":1,"block":2,"trial":197,"robot":1,"valence":"win","action":"go","sham":0,"trial_type":"pit-trial","trial_index":213,"time_elapsed":838360,"internal_node_id":"0.0-200.0","task_version":"battery-v0.1"},{"rune":"V","hex":"#f73b6a7A","correct":32,"choice":-1,"rt":-1,"accuracy":0,"outcome":"-10","keys":[],"total_keys":0,"block":2,"trial":198,"robot":3,"valence":"lose","action":"go","sham":0,"trial_type":"pit-trial","trial_index":214,"time_elapsed":842369,"internal_node_id":"0.0-201.0","task_version":"battery-v0.1"},{"rune":"K","hex":"#f73b6a7A","correct":-1,"choice":-1,"rt":-1,"accuracy":1,"outcome":"-1","keys":[],"total_keys":0,"block":2,"trial":199,"robot":4,"valence":"lose","action":"no-go","sham":0,"trial_type":"pit-trial","trial_index":215,"time_elapsed":846376,"internal_node_id":"0.0-202.0","task_version":"battery-v0.1"},{"rune":"L","hex":"#3366ff99","correct":-1,"choice":-1,"rt":-1,"accuracy":1,"outcome":"+1","keys":[],"total_keys":0,"block":2,"trial":200,"robot":2,"valence":"win","action":"no-go","sham":1,"trial_type":"pit-trial","trial_index":216,"time_elapsed":850384,"internal_node_id":"0.0-203.0","task_version":"battery-v0.1"},{"rune":"V","hex":"#f73b6a7A","correct":32,"choice":32,"rt":433.17500001285225,"accuracy":1,"outcome":"-1","keys":[1934.1950000962242],"total_keys":1,"block":2,"trial":201,"robot":3,"valence":"lose","action":"go","sham":0,"trial_type":"pit-trial","trial_index":217,"time_elapsed":853524,"internal_node_id":"0.0-204.0","task_version":"battery-v0.1"},{"rune":"L","hex":"#3366ff99","correct":-1,"choice":32,"rt":289.22499995678663,"accuracy":0,"outcome":"+10","keys":[1789.9850000394508],"total_keys":1,"block":2,"trial":202,"robot":2,"valence":"win","action":"no-go","sham":1,"trial_type":"pit-trial","trial_index":218,"time_elapsed":856522,"internal_node_id":"0.0-205.0","task_version":"battery-v0.1"},{"rune":"K","hex":"#f73b6a7A","correct":-1,"choice":-1,"rt":-1,"accuracy":1,"outcome":"-1","keys":[],"total_keys":0,"block":2,"trial":203,"robot":4,"valence":"lose","action":"no-go","sham":0,"trial_type":"pit-trial","trial_index":219,"time_elapsed":860530,"internal_node_id":"0.0-206.0","task_version":"battery-v0.1"},{"rune":"R","hex":"#f73b6a7A","correct":32,"choice":32,"rt":649.1499999538064,"accuracy":1,"outcome":"-1","keys":[2150.164999999106],"total_keys":1,"block":2,"trial":204,"robot":3,"valence":"lose","action":"go","sham":0,"trial_type":"pit-trial","trial_index":220,"time_elapsed":863887,"internal_node_id":"0.0-207.0","task_version":"battery-v0.1"},{"rune":"L","hex":"#3366ff99","correct":-1,"choice":32,"rt":376.98000005912036,"accuracy":0,"outcome":"+1","keys":[1877.0550000481308],"total_keys":1,"block":2,"trial":205,"robot":2,"valence":"win","action":"no-go","sham":0,"trial_type":"pit-trial","trial_index":221,"time_elapsed":866971,"internal_node_id":"0.0-208.0","task_version":"battery-v0.1"},{"rune":"V","hex":"#f73b6a7A","correct":32,"choice":32,"rt":296.1900000227615,"accuracy":1,"outcome":"-1","keys":[1797.1950001083314],"total_keys":1,"block":2,"trial":206,"robot":3,"valence":"lose","action":"go","sham":0,"trial_type":"pit-trial","trial_index":222,"time_elapsed":869975,"internal_node_id":"0.0-209.0","task_version":"battery-v0.1"},{"rune":"R","hex":"#f73b6a7A","correct":32,"choice":32,"rt":441.6099999798462,"accuracy":1,"outcome":"-1","keys":[1945.655000046827],"total_keys":1,"block":2,"trial":207,"robot":3,"valence":"lose","action":"go","sham":0,"trial_type":"pit-trial","trial_index":223,"time_elapsed":873128,"internal_node_id":"0.0-210.0","task_version":"battery-v0.1"},{"rune":"K","hex":"#f73b6a7A","correct":-1,"choice":-1,"rt":-1,"accuracy":1,"outcome":"-10","keys":[],"total_keys":0,"block":2,"trial":208,"robot":4,"valence":"lose","action":"no-go","sham":1,"trial_type":"pit-trial","trial_index":224,"time_elapsed":877137,"internal_node_id":"0.0-211.0","task_version":"battery-v0.1"},{"rune":"U","hex":"#f73b6a7A","correct":-1,"choice":-1,"rt":-1,"accuracy":1,"outcome":"-10","keys":[],"total_keys":0,"block":2,"trial":209,"robot":4,"valence":"lose","action":"no-go","sham":1,"trial_type":"pit-trial","trial_index":225,"time_elapsed":881145,"internal_node_id":"0.0-212.0","task_version":"battery-v0.1"},{"rune":"P","hex":"#3366ff99","correct":-1,"choice":32,"rt":613.9149999944493,"accuracy":0,"outcome":"+10","keys":[2115.594999981113],"total_keys":1,"block":2,"trial":210,"robot":2,"valence":"win","action":"no-go","sham":1,"trial_type":"pit-trial","trial_index":226,"time_elapsed":884466,"internal_node_id":"0.0-213.0","task_version":"battery-v0.1"},{"rune":"V","hex":"#f73b6a7A","correct":32,"choice":32,"rt":867.8350000409409,"accuracy":1,"outcome":"-1","keys":[2368.244999903254],"total_keys":1,"block":2,"trial":211,"robot":3,"valence":"lose","action":"go","sham":0,"trial_type":"pit-trial","trial_index":227,"time_elapsed":888038,"internal_node_id":"0.0-214.0","task_version":"battery-v0.1"},{"rune":"R","hex":"#f73b6a7A","correct":32,"choice":32,"rt":345.339999999851,"accuracy":1,"outcome":"-1","keys":[1846.625000005588],"total_keys":1,"block":2,"trial":212,"robot":3,"valence":"lose","action":"go","sham":0,"trial_type":"pit-trial","trial_index":228,"time_elapsed":891090,"internal_node_id":"0.0-215.0","task_version":"battery-v0.1"},{"rune":"P","hex":"#3366ff99","correct":-1,"choice":32,"rt":339.55000003334135,"accuracy":0,"outcome":"+1","keys":[1841.439999989234],"total_keys":1,"block":2,"trial":213,"robot":2,"valence":"win","action":"no-go","sham":0,"trial_type":"pit-trial","trial_index":229,"time_elapsed":894135,"internal_node_id":"0.0-216.0","task_version":"battery-v0.1"},{"rune":"V","hex":"#f73b6a7A","correct":32,"choice":32,"rt":393.22500000707805,"accuracy":1,"outcome":"-1","keys":[1893.7549999682233],"total_keys":1,"block":2,"trial":214,"robot":3,"valence":"lose","action":"go","sham":0,"trial_type":"pit-trial","trial_index":230,"time_elapsed":897247,"internal_node_id":"0.0-217.0","task_version":"battery-v0.1"},{"rune":"U","hex":"#f73b6a7A","correct":-1,"choice":-1,"rt":-1,"accuracy":1,"outcome":"-1","keys":[],"total_keys":0,"block":2,"trial":215,"robot":4,"valence":"lose","action":"no-go","sham":0,"trial_type":"pit-trial","trial_index":231,"time_elapsed":901252,"internal_node_id":"0.0-218.0","task_version":"battery-v0.1"},{"rune":"R","hex":"#f73b6a7A","correct":32,"choice":32,"rt":412.9399999510497,"accuracy":1,"outcome":"-1","keys":[1913.230000063777],"total_keys":1,"block":2,"trial":216,"robot":3,"valence":"lose","action":"go","sham":0,"trial_type":"pit-trial","trial_index":232,"time_elapsed":904373,"internal_node_id":"0.0-219.0","task_version":"battery-v0.1"},{"rune":"V","hex":"#f73b6a7A","correct":32,"choice":32,"rt":543.0799999739975,"accuracy":1,"outcome":"-1","keys":[2044.2700000712648],"total_keys":1,"block":2,"trial":217,"robot":3,"valence":"lose","action":"go","sham":0,"trial_type":"pit-trial","trial_index":233,"time_elapsed":907620,"internal_node_id":"0.0-220.0","task_version":"battery-v0.1"},{"rune":"U","hex":"#f73b6a7A","correct":-1,"choice":-1,"rt":-1,"accuracy":1,"outcome":"-1","keys":[],"total_keys":0,"block":2,"trial":218,"robot":4,"valence":"lose","action":"no-go","sham":0,"trial_type":"pit-trial","trial_index":234,"time_elapsed":911626,"internal_node_id":"0.0-221.0","task_version":"battery-v0.1"},{"rune":"P","hex":"#3366ff99","correct":-1,"choice":32,"rt":293.1650000391528,"accuracy":0,"outcome":"+1","keys":[1794.0450001042336],"total_keys":1,"block":2,"trial":219,"robot":2,"valence":"win","action":"no-go","sham":0,"trial_type":"pit-trial","trial_index":235,"time_elapsed":914627,"internal_node_id":"0.0-222.0","task_version":"battery-v0.1"},{"rune":"R","hex":"#f73b6a7A","correct":32,"choice":-1,"rt":-1,"accuracy":0,"outcome":"-1","keys":[],"total_keys":0,"block":2,"trial":220,"robot":3,"valence":"lose","action":"go","sham":1,"trial_type":"pit-trial","trial_index":236,"time_elapsed":918646,"internal_node_id":"0.0-223.0","task_version":"battery-v0.1"},{"rune":"V","hex":"#f73b6a7A","correct":32,"choice":32,"rt":1111.6600000532344,"accuracy":1,"outcome":"-10","keys":[2612.959999940358],"total_keys":1,"block":2,"trial":221,"robot":3,"valence":"lose","action":"go","sham":1,"trial_type":"pit-trial","trial_index":237,"time_elapsed":922466,"internal_node_id":"0.0-224.0","task_version":"battery-v0.1"},{"rune":"U","hex":"#f73b6a7A","correct":-1,"choice":-1,"rt":-1,"accuracy":1,"outcome":"-1","keys":[],"total_keys":0,"block":2,"trial":222,"robot":4,"valence":"lose","action":"no-go","sham":0,"trial_type":"pit-trial","trial_index":238,"time_elapsed":926474,"internal_node_id":"0.0-225.0","task_version":"battery-v0.1"},{"rune":"R","hex":"#f73b6a7A","correct":32,"choice":-1,"rt":-1,"accuracy":0,"outcome":"-1","keys":[],"total_keys":0,"block":2,"trial":223,"robot":3,"valence":"lose","action":"go","sham":1,"trial_type":"pit-trial","trial_index":239,"time_elapsed":930481,"internal_node_id":"0.0-226.0","task_version":"battery-v0.1"},{"rune":"P","hex":"#3366ff99","correct":-1,"choice":-1,"rt":-1,"accuracy":1,"outcome":"+10","keys":[],"total_keys":0,"block":2,"trial":224,"robot":2,"valence":"win","action":"no-go","sham":0,"trial_type":"pit-trial","trial_index":240,"time_elapsed":934488,"internal_node_id":"0.0-227.0","task_version":"battery-v0.1"},{"rune":"R","hex":"#f73b6a7A","correct":32,"choice":-1,"rt":-1,"accuracy":0,"outcome":"-10","keys":[],"total_keys":0,"block":2,"trial":225,"robot":3,"valence":"lose","action":"go","sham":0,"trial_type":"pit-trial","trial_index":241,"time_elapsed":938495,"internal_node_id":"0.0-228.0","task_version":"battery-v0.1"},{"rune":"V","hex":"#f73b6a7A","correct":32,"choice":32,"rt":347.96499996446073,"accuracy":1,"outcome":"-1","keys":[1848.5149999614805],"total_keys":1,"block":2,"trial":226,"robot":3,"valence":"lose","action":"go","sham":0,"trial_type":"pit-trial","trial_index":242,"time_elapsed":941550,"internal_node_id":"0.0-229.0","task_version":"battery-v0.1"},{"rune":"P","hex":"#3366ff99","correct":-1,"choice":32,"rt":724.5249999687076,"accuracy":0,"outcome":"+1","keys":[2224.820000003092],"total_keys":1,"block":2,"trial":227,"robot":2,"valence":"win","action":"no-go","sham":0,"trial_type":"pit-trial","trial_index":243,"time_elapsed":944982,"internal_node_id":"0.0-230.0","task_version":"battery-v0.1"},{"rune":"U","hex":"#f73b6a7A","correct":-1,"choice":-1,"rt":-1,"accuracy":1,"outcome":"-1","keys":[],"total_keys":0,"block":2,"trial":228,"robot":4,"valence":"lose","action":"no-go","sham":0,"trial_type":"pit-trial","trial_index":244,"time_elapsed":948990,"internal_node_id":"0.0-231.0","task_version":"battery-v0.1"},{"rune":"P","hex":"#3366ff99","correct":-1,"choice":-1,"rt":-1,"accuracy":1,"outcome":"+10","keys":[],"total_keys":0,"block":2,"trial":229,"robot":2,"valence":"win","action":"no-go","sham":0,"trial_type":"pit-trial","trial_index":245,"time_elapsed":952996,"internal_node_id":"0.0-232.0","task_version":"battery-v0.1"},{"rune":"V","hex":"#f73b6a7A","correct":32,"choice":32,"rt":248.215000028722,"accuracy":1,"outcome":"-1","keys":[1748.6400000052527],"total_keys":1,"block":2,"trial":230,"robot":3,"valence":"lose","action":"go","sham":0,"trial_type":"pit-trial","trial_index":246,"time_elapsed":955950,"internal_node_id":"0.0-233.0","task_version":"battery-v0.1"},{"rune":"R","hex":"#f73b6a7A","correct":32,"choice":32,"rt":246.4400000171736,"accuracy":1,"outcome":"-10","keys":[1747.4650000222027],"total_keys":1,"block":2,"trial":231,"robot":3,"valence":"lose","action":"go","sham":1,"trial_type":"pit-trial","trial_index":247,"time_elapsed":958905,"internal_node_id":"0.0-234.0","task_version":"battery-v0.1"},{"rune":"U","hex":"#f73b6a7A","correct":-1,"choice":-1,"rt":-1,"accuracy":1,"outcome":"-1","keys":[],"total_keys":0,"block":2,"trial":232,"robot":4,"valence":"lose","action":"no-go","sham":0,"trial_type":"pit-trial","trial_index":248,"time_elapsed":962913,"internal_node_id":"0.0-235.0","task_version":"battery-v0.1"},{"rune":"U","hex":"#f73b6a7A","correct":-1,"choice":-1,"rt":-1,"accuracy":1,"outcome":"-1","keys":[],"total_keys":0,"block":2,"trial":233,"robot":4,"valence":"lose","action":"no-go","sham":0,"trial_type":"pit-trial","trial_index":249,"time_elapsed":966921,"internal_node_id":"0.0-236.0","task_version":"battery-v0.1"},{"rune":"P","hex":"#3366ff99","correct":-1,"choice":-1,"rt":-1,"accuracy":1,"outcome":"+10","keys":[],"total_keys":0,"block":2,"trial":234,"robot":2,"valence":"win","action":"no-go","sham":0,"trial_type":"pit-trial","trial_index":250,"time_elapsed":970932,"internal_node_id":"0.0-237.0","task_version":"battery-v0.1"},{"rune":"V","hex":"#f73b6a7A","correct":32,"choice":32,"rt":264.7200000938028,"accuracy":1,"outcome":"-1","keys":[1765.1199999963865],"total_keys":1,"block":2,"trial":235,"robot":3,"valence":"lose","action":"go","sham":0,"trial_type":"pit-trial","trial_index":251,"time_elapsed":973904,"internal_node_id":"0.0-238.0","task_version":"battery-v0.1"},{"rune":"R","hex":"#f73b6a7A","correct":32,"choice":-1,"rt":-1,"accuracy":0,"outcome":"-1","keys":[],"total_keys":0,"block":2,"trial":236,"robot":3,"valence":"lose","action":"go","sham":1,"trial_type":"pit-trial","trial_index":252,"time_elapsed":977912,"internal_node_id":"0.0-239.0","task_version":"battery-v0.1"},{"rune":"U","hex":"#f73b6a7A","correct":-1,"choice":-1,"rt":-1,"accuracy":1,"outcome":"-1","keys":[],"total_keys":0,"block":2,"trial":237,"robot":4,"valence":"lose","action":"no-go","sham":0,"trial_type":"pit-trial","trial_index":253,"time_elapsed":981920,"internal_node_id":"0.0-240.0","task_version":"battery-v0.1"},{"rune":"R","hex":"#f73b6a7A","correct":32,"choice":-1,"rt":-1,"accuracy":0,"outcome":"-10","keys":[],"total_keys":0,"block":2,"trial":238,"robot":3,"valence":"lose","action":"go","sham":0,"trial_type":"pit-trial","trial_index":254,"time_elapsed":985928,"internal_node_id":"0.0-241.0","task_version":"battery-v0.1"},{"rune":"P","hex":"#3366ff99","correct":-1,"choice":-1,"rt":-1,"accuracy":1,"outcome":"+10","keys":[],"total_keys":0,"block":2,"trial":239,"robot":2,"valence":"win","action":"no-go","sham":0,"trial_type":"pit-trial","trial_index":255,"time_elapsed":989937,"internal_node_id":"0.0-242.0","task_version":"battery-v0.1"},{"rune":"V","hex":"#f73b6a7A","correct":32,"choice":32,"rt":389.1849999781698,"accuracy":1,"outcome":"-1","keys":[1891.0150000592694],"total_keys":1,"block":2,"trial":240,"robot":3,"valence":"lose","action":"go","sham":0,"trial_type":"pit-trial","trial_index":256,"time_elapsed":993035,"internal_node_id":"0.0-243.0","task_version":"battery-v0.1"},{"view_history":"[{\"page_index\":0,\"viewing_time\":2686.725000035949}]","rt":2687.870000023395,"trial_type":"pit-instructions","trial_index":257,"time_elapsed":995728,"internal_node_id":"0.0-244.0","task_version":"battery-v0.1"},{"rt":13106.90999997314,"responses":{"age":"40","gender-categorical":"Male","gender-free-response":"","ethnicity":"Not Hispanic or Latino","race":["White"],"language":"Yes","fluency":"Very well"},"survey":"demographics","trial_type":"survey-demo","trial_index":258,"time_elapsed":1008844,"internal_node_id":"0.0-245.0","task_version":"battery-v0.1"},{"rt":71934.57499996293,"responses":{"difficulty":"2","fun":"4","clarity":"5","strategy":"tried to keep a mental inventory of what letters were getting best results and try to notice when changes occurred (new letters)","feedback":"No."},"survey":"debrief","trial_type":"survey-debrief","trial_index":259,"time_elapsed":1080785,"internal_node_id":"0.0-246.0","task_version":"battery-v0.1","interactions":"[]"}]