[{"view_history":"[{\"page_index\":0,\"viewing_time\":2480.4750000184868},{\"page_index\":1,\"viewing_time\":1838.900000002468},{\"page_index\":2,\"viewing_time\":1427.78499997803},{\"page_index\":3,\"viewing_time\":9998.290000017732},{\"page_index\":4,\"viewing_time\":3287.7499999885913},{\"page_index\":5,\"viewing_time\":3034.6000000135973}]","rt":22068.859999999404,"trial_type":"pit-instructions","trial_index":0,"time_elapsed":22121,"internal_node_id":"0.0-0.0-0.0","task_version":"battery-v0.1"},{"rune":"","hex":"#FFFFF080","correct":32,"choice":32,"rt":393.19000000250526,"accuracy":1,"outcome":"+10","keys":[1902.494999987539],"total_keys":1,"block":0,"trial_type":"pit-trial","trial_index":1,"time_elapsed":25235,"internal_node_id":"0.0-0.0-1.0-0.0","task_version":"battery-v0.1"},{"rune":"","hex":"#FFFFF080","correct":32,"choice":32,"rt":378.91999998828396,"accuracy":1,"outcome":"+10","keys":[1880.78000000678],"total_keys":1,"block":0,"trial_type":"pit-trial","trial_index":2,"time_elapsed":28325,"internal_node_id":"0.0-0.0-1.0-0.1","task_version":"battery-v0.1"},{"rune":"","hex":"#FFFFF080","correct":32,"choice":32,"rt":274.44999999715947,"accuracy":1,"outcome":"+10","keys":[1775.534999993397],"total_keys":1,"block":0,"trial_type":"pit-trial","trial_index":3,"time_elapsed":31310,"internal_node_id":"0.0-0.0-1.0-0.2","task_version":"battery-v0.1"},{"rune":"","hex":"#FFFFF080","correct":32,"choice":32,"rt":240.16499999561347,"accuracy":1,"outcome":"+10","keys":[1742.050000000745],"total_keys":1,"block":0,"trial_type":"pit-trial","trial_index":4,"time_elapsed":34259,"internal_node_id":"0.0-0.0-1.0-0.3","task_version":"battery-v0.1"},{"view_history":"[{\"page_index\":0,\"viewing_time\":2454.200000007404}]","rt":2454.51999999932,"trial_type":"pit-instructions","trial_index":5,"time_elapsed":36719,"internal_node_id":"0.0-0.0-2.0","task_version":"battery-v0.1"},{"rune":"","hex":"#FFFFF080","correct":-1,"choice":-1,"rt":-1,"accuracy":1,"outcome":"+10","keys":[],"total_keys":0,"block":0,"trial_type":"pit-trial","trial_index":6,"time_elapsed":40730,"internal_node_id":"0.0-0.0-3.0-0.0","task_version":"battery-v0.1"},{"rune":"","hex":"#FFFFF080","correct":-1,"choice":-1,"rt":-1,"accuracy":1,"outcome":"+10","keys":[],"total_keys":0,"block":0,"trial_type":"pit-trial","trial_index":7,"time_elapsed":44739,"internal_node_id":"0.0-0.0-3.0-0.1","task_version":"battery-v0.1"},{"rune":"","hex":"#FFFFF080","correct":-1,"choice":-1,"rt":-1,"accuracy":1,"outcome":"+10","keys":[],"total_keys":0,"block":0,"trial_type":"pit-trial","trial_index":8,"time_elapsed":48752,"internal_node_id":"0.0-0.0-3.0-0.2","task_version":"battery-v0.1"},{"rune":"","hex":"#FFFFF080","correct":-1,"choice":-1,"rt":-1,"accuracy":1,"outcome":"+10","keys":[],"total_keys":0,"block":0,"trial_type":"pit-trial","trial_index":9,"time_elapsed":52765,"internal_node_id":"0.0-0.0-3.0-0.3","task_version":"battery-v0.1"},{"responses":["Press SPACE","Do nothing"],"num_errors":0,"rt":9212.650000001304,"trial_type":"pit-comprehension","trial_index":10,"time_elapsed":61984,"internal_node_id":"0.0-0.0-4.0","task_version":"battery-v0.1"},{"view_history":"[{\"page_index\":0,\"viewing_time\":4152.904999995371},{\"page_index\":1,\"viewing_time\":6404.920000000857},{\"page_index\":2,\"viewing_time\":14796.739999990677},{\"page_index\":3,\"viewing_time\":3169.575000007171},{\"page_index\":4,\"viewing_time\":4025.1250000146683},{\"page_index\":5,\"viewing_time\":10107.610000006389},{\"page_index\":6,\"viewing_time\":10743.959999992512},{\"page_index\":7,\"viewing_time\":4142.084999999497},{\"page_index\":8,\"viewing_time\":6639.4600000057835},{\"page_index\":9,\"viewing_time\":209230.67999997875},{\"page_index\":10,\"viewing_time\":1960.0400000053924}]","rt":275373.93500001053,"trial_type":"pit-instructions","trial_index":11,"time_elapsed":337378,"internal_node_id":"0.0-1.0-0.0","task_version":"battery-v0.1"},{"responses":["+10","-1","True","True"],"num_errors":0,"rt":12048.47000000882,"trial_type":"pit-comprehension","trial_index":12,"time_elapsed":349436,"internal_node_id":"0.0-1.0-1.0","task_version":"battery-v0.1"},{"view_history":"[{\"page_index\":0,\"viewing_time\":3608.3749999816064},{\"page_index\":1,\"viewing_time\":2748.890000017127}]","rt":6357.579999981681,"trial_type":"pit-instructions","trial_index":13,"time_elapsed":355803,"internal_node_id":"0.0-2.0","task_version":"battery-v0.1"},{"rune":"P","hex":"#3366ff99","correct":32,"choice":32,"rt":619.2949999822304,"accuracy":1,"outcome":"+10","keys":[2121.93500000285],"total_keys":1,"block":1,"trial":1,"robot":1,"valence":"win","action":"go","sham":0,"trial_type":"pit-trial","trial_index":14,"time_elapsed":359135,"internal_node_id":"0.0-3.0","task_version":"battery-v0.1"},{"rune":"N","hex":"#3366ff99","correct":32,"choice":-1,"rt":-1,"accuracy":0,"outcome":"+1","keys":[],"total_keys":0,"block":1,"trial":2,"robot":1,"valence":"win","action":"go","sham":0,"trial_type":"pit-trial","trial_index":15,"time_elapsed":363145,"internal_node_id":"0.0-4.0","task_version":"battery-v0.1"},{"rune":"R","hex":"#f73b6a7A","correct":-1,"choice":-1,"rt":-1,"accuracy":1,"outcome":"-1","keys":[],"total_keys":0,"block":1,"trial":3,"robot":4,"valence":"lose","action":"no-go","sham":0,"trial_type":"pit-trial","trial_index":16,"time_elapsed":367164,"internal_node_id":"0.0-5.0","task_version":"battery-v0.1"},{"rune":"X","hex":"#3366ff99","correct":-1,"choice":-1,"rt":-1,"accuracy":1,"outcome":"+10","keys":[],"total_keys":0,"block":1,"trial":4,"robot":2,"valence":"win","action":"no-go","sham":0,"trial_type":"pit-trial","trial_index":17,"time_elapsed":371174,"internal_node_id":"0.0-6.0","task_version":"battery-v0.1"},{"rune":"R","hex":"#f73b6a7A","correct":-1,"choice":-1,"rt":-1,"accuracy":1,"outcome":"-1","keys":[],"total_keys":0,"block":1,"trial":5,"robot":4,"valence":"lose","action":"no-go","sham":0,"trial_type":"pit-trial","trial_index":18,"time_elapsed":375186,"internal_node_id":"0.0-7.0","task_version":"battery-v0.1"},{"rune":"N","hex":"#3366ff99","correct":32,"choice":32,"rt":1009.3549999874085,"accuracy":1,"outcome":"+1","keys":[2511.5700000023935],"total_keys":1,"block":1,"trial":6,"robot":1,"valence":"win","action":"go","sham":1,"trial_type":"pit-trial","trial_index":19,"time_elapsed":378908,"internal_node_id":"0.0-8.0","task_version":"battery-v0.1"},{"rune":"P","hex":"#3366ff99","correct":32,"choice":32,"rt":541.0499999998137,"accuracy":1,"outcome":"+10","keys":[2052.7000000001863],"total_keys":1,"block":1,"trial":7,"robot":1,"valence":"win","action":"go","sham":0,"trial_type":"pit-trial","trial_index":20,"time_elapsed":382169,"internal_node_id":"0.0-9.0","task_version":"battery-v0.1"},{"rune":"X","hex":"#3366ff99","correct":-1,"choice":-1,"rt":-1,"accuracy":1,"outcome":"+10","keys":[],"total_keys":0,"block":1,"trial":8,"robot":2,"valence":"win","action":"no-go","sham":0,"trial_type":"pit-trial","trial_index":21,"time_elapsed":386180,"internal_node_id":"0.0-10.0","task_version":"battery-v0.1"},{"rune":"N","hex":"#3366ff99","correct":32,"choice":32,"rt":783.3899999968708,"accuracy":1,"outcome":"+10","keys":[2287.6650000107475],"total_keys":1,"block":1,"trial":9,"robot":1,"valence":"win","action":"go","sham":0,"trial_type":"pit-trial","trial_index":22,"time_elapsed":389675,"internal_node_id":"0.0-11.0","task_version":"battery-v0.1"},{"rune":"R","hex":"#f73b6a7A","correct":-1,"choice":-1,"rt":-1,"accuracy":1,"outcome":"-10","keys":[],"total_keys":0,"block":1,"trial":10,"robot":4,"valence":"lose","action":"no-go","sham":1,"trial_type":"pit-trial","trial_index":23,"time_elapsed":393686,"internal_node_id":"0.0-12.0","task_version":"battery-v0.1"},{"rune":"X","hex":"#3366ff99","correct":-1,"choice":-1,"rt":-1,"accuracy":1,"outcome":"+10","keys":[],"total_keys":0,"block":1,"trial":11,"robot":2,"valence":"win","action":"no-go","sham":0,"trial_type":"pit-trial","trial_index":24,"time_elapsed":397700,"internal_node_id":"0.0-13.0","task_version":"battery-v0.1"},{"rune":"P","hex":"#3366ff99","correct":32,"choice":32,"rt":740.0900000066031,"accuracy":1,"outcome":"+10","keys":[2244.295000011334],"total_keys":1,"block":1,"trial":12,"robot":1,"valence":"win","action":"go","sham":0,"trial_type":"pit-trial","trial_index":25,"time_elapsed":401152,"internal_node_id":"0.0-14.0","task_version":"battery-v0.1"},{"rune":"P","hex":"#3366ff99","correct":32,"choice":32,"rt":533.770000009099,"accuracy":1,"outcome":"+10","keys":[2035.7249999942724],"total_keys":1,"block":1,"trial":13,"robot":1,"valence":"win","action":"go","sham":0,"trial_type":"pit-trial","trial_index":26,"time_elapsed":404398,"internal_node_id":"0.0-15.0","task_version":"battery-v0.1"},{"rune":"X","hex":"#3366ff99","correct":-1,"choice":-1,"rt":-1,"accuracy":1,"outcome":"+10","keys":[],"total_keys":0,"block":1,"trial":14,"robot":2,"valence":"win","action":"no-go","sham":0,"trial_type":"pit-trial","trial_index":27,"time_elapsed":408410,"internal_node_id":"0.0-16.0","task_version":"battery-v0.1"},{"rune":"R","hex":"#f73b6a7A","correct":-1,"choice":32,"rt":622.8549999941606,"accuracy":0,"outcome":"-10","keys":[2125.4750000080094],"total_keys":1,"block":1,"trial":15,"robot":4,"valence":"lose","action":"no-go","sham":0,"trial_type":"pit-trial","trial_index":28,"time_elapsed":411746,"internal_node_id":"0.0-17.0","task_version":"battery-v0.1"},{"rune":"N","hex":"#3366ff99","correct":32,"choice":32,"rt":415.7650000124704,"accuracy":1,"outcome":"+10","keys":[1916.9549999933224],"total_keys":1,"block":1,"trial":16,"robot":1,"valence":"win","action":"go","sham":0,"trial_type":"pit-trial","trial_index":29,"time_elapsed":414871,"internal_node_id":"0.0-18.0","task_version":"battery-v0.1"},{"rune":"N","hex":"#3366ff99","correct":32,"choice":32,"rt":592.1000000089407,"accuracy":1,"outcome":"+10","keys":[2093.9950000029057],"total_keys":1,"block":1,"trial":17,"robot":1,"valence":"win","action":"go","sham":0,"trial_type":"pit-trial","trial_index":30,"time_elapsed":418171,"internal_node_id":"0.0-19.0","task_version":"battery-v0.1"},{"rune":"P","hex":"#3366ff99","correct":32,"choice":32,"rt":414.5000000135042,"accuracy":1,"outcome":"+10","keys":[1915.1100000017323],"total_keys":1,"block":1,"trial":18,"robot":1,"valence":"win","action":"go","sham":0,"trial_type":"pit-trial","trial_index":31,"time_elapsed":421295,"internal_node_id":"0.0-20.0","task_version":"battery-v0.1"},{"rune":"X","hex":"#3366ff99","correct":-1,"choice":-1,"rt":-1,"accuracy":1,"outcome":"+10","keys":[],"total_keys":0,"block":1,"trial":19,"robot":2,"valence":"win","action":"no-go","sham":0,"trial_type":"pit-trial","trial_index":32,"time_elapsed":425307,"internal_node_id":"0.0-21.0","task_version":"battery-v0.1"},{"rune":"R","hex":"#f73b6a7A","correct":-1,"choice":-1,"rt":-1,"accuracy":1,"outcome":"-1","keys":[],"total_keys":0,"block":1,"trial":20,"robot":4,"valence":"lose","action":"no-go","sham":0,"trial_type":"pit-trial","trial_index":33,"time_elapsed":429317,"internal_node_id":"0.0-22.0","task_version":"battery-v0.1"},{"rune":"R","hex":"#f73b6a7A","correct":-1,"choice":-1,"rt":-1,"accuracy":1,"outcome":"-1","keys":[],"total_keys":0,"block":1,"trial":21,"robot":4,"valence":"lose","action":"no-go","sham":0,"trial_type":"pit-trial","trial_index":34,"time_elapsed":433325,"internal_node_id":"0.0-23.0","task_version":"battery-v0.1"},{"rune":"X","hex":"#3366ff99","correct":-1,"choice":-1,"rt":-1,"accuracy":1,"outcome":"+10","keys":[],"total_keys":0,"block":1,"trial":22,"robot":2,"valence":"win","action":"no-go","sham":0,"trial_type":"pit-trial","trial_index":35,"time_elapsed":437342,"internal_node_id":"0.0-24.0","task_version":"battery-v0.1"},{"rune":"P","hex":"#3366ff99","correct":32,"choice":32,"rt":756.6850000002887,"accuracy":1,"outcome":"+10","keys":[2256.790000014007],"total_keys":1,"block":1,"trial":23,"robot":1,"valence":"win","action":"go","sham":0,"trial_type":"pit-trial","trial_index":36,"time_elapsed":440807,"internal_node_id":"0.0-25.0","task_version":"battery-v0.1"},{"rune":"N","hex":"#3366ff99","correct":32,"choice":32,"rt":497.5300000223797,"accuracy":1,"outcome":"+10","keys":[1999.9400000087917],"total_keys":1,"block":1,"trial":24,"robot":1,"valence":"win","action":"go","sham":0,"trial_type":"pit-trial","trial_index":37,"time_elapsed":444013,"internal_node_id":"0.0-26.0","task_version":"battery-v0.1"},{"rune":"R","hex":"#f73b6a7A","correct":-1,"choice":-1,"rt":-1,"accuracy":1,"outcome":"-10","keys":[],"total_keys":0,"block":1,"trial":25,"robot":4,"valence":"lose","action":"no-go","sham":1,"trial_type":"pit-trial","trial_index":38,"time_elapsed":448028,"internal_node_id":"0.0-27.0","task_version":"battery-v0.1"},{"rune":"X","hex":"#3366ff99","correct":-1,"choice":-1,"rt":-1,"accuracy":1,"outcome":"+10","keys":[],"total_keys":0,"block":1,"trial":26,"robot":2,"valence":"win","action":"no-go","sham":0,"trial_type":"pit-trial","trial_index":39,"time_elapsed":452041,"internal_node_id":"0.0-28.0","task_version":"battery-v0.1"},{"rune":"N","hex":"#3366ff99","correct":32,"choice":32,"rt":465.02000000327826,"accuracy":1,"outcome":"+10","keys":[1965.3200000175275],"total_keys":1,"block":1,"trial":27,"robot":1,"valence":"win","action":"go","sham":0,"trial_type":"pit-trial","trial_index":40,"time_elapsed":455216,"internal_node_id":"0.0-29.0","task_version":"battery-v0.1"},{"rune":"P","hex":"#3366ff99","correct":32,"choice":32,"rt":547.0000000204891,"accuracy":1,"outcome":"+10","keys":[2057.150000007823],"total_keys":1,"block":1,"trial":28,"robot":1,"valence":"win","action":"go","sham":0,"trial_type":"pit-trial","trial_index":41,"time_elapsed":458483,"internal_node_id":"0.0-30.0","task_version":"battery-v0.1"},{"rune":"P","hex":"#3366ff99","correct":32,"choice":32,"rt":877.0500000100583,"accuracy":1,"outcome":"+10","keys":[2377.2049999970477],"total_keys":1,"block":1,"trial":29,"robot":1,"valence":"win","action":"go","sham":0,"trial_type":"pit-trial","trial_index":42,"time_elapsed":462071,"internal_node_id":"0.0-31.0","task_version":"battery-v0.1"},{"rune":"X","hex":"#3366ff99","correct":-1,"choice":-1,"rt":-1,"accuracy":1,"outcome":"+10","keys":[],"total_keys":0,"block":1,"trial":30,"robot":2,"valence":"win","action":"no-go","sham":0,"trial_type":"pit-trial","trial_index":43,"time_elapsed":466082,"internal_node_id":"0.0-32.0","task_version":"battery-v0.1"},{"rune":"N","hex":"#3366ff99","correct":32,"choice":32,"rt":705.019999993965,"accuracy":1,"outcome":"+10","keys":[2208.2249999803025],"total_keys":1,"block":1,"trial":31,"robot":1,"valence":"win","action":"go","sham":0,"trial_type":"pit-trial","trial_index":44,"time_elapsed":469497,"internal_node_id":"0.0-33.0","task_version":"battery-v0.1"},{"rune":"R","hex":"#f73b6a7A","correct":-1,"choice":-1,"rt":-1,"accuracy":1,"outcome":"-1","keys":[],"total_keys":0,"block":1,"trial":32,"robot":4,"valence":"lose","action":"no-go","sham":0,"trial_type":"pit-trial","trial_index":45,"time_elapsed":473507,"internal_node_id":"0.0-34.0","task_version":"battery-v0.1"},{"rune":"R","hex":"#f73b6a7A","correct":-1,"choice":-1,"rt":-1,"accuracy":1,"outcome":"-1","keys":[],"total_keys":0,"block":1,"trial":33,"robot":4,"valence":"lose","action":"no-go","sham":0,"trial_type":"pit-trial","trial_index":46,"time_elapsed":477518,"internal_node_id":"0.0-35.0","task_version":"battery-v0.1"},{"rune":"N","hex":"#3366ff99","correct":32,"choice":32,"rt":653.8700000091922,"accuracy":1,"outcome":"+1","keys":[2158.7599999911617],"total_keys":1,"block":1,"trial":34,"robot":1,"valence":"win","action":"go","sham":1,"trial_type":"pit-trial","trial_index":47,"time_elapsed":480885,"internal_node_id":"0.0-36.0","task_version":"battery-v0.1"},{"rune":"X","hex":"#3366ff99","correct":-1,"choice":-1,"rt":-1,"accuracy":1,"outcome":"+10","keys":[],"total_keys":0,"block":1,"trial":35,"robot":2,"valence":"win","action":"no-go","sham":0,"trial_type":"pit-trial","trial_index":48,"time_elapsed":484898,"internal_node_id":"0.0-37.0","task_version":"battery-v0.1"},{"rune":"Y","hex":"#3366ff99","correct":32,"choice":-1,"rt":-1,"accuracy":0,"outcome":"+10","keys":[],"total_keys":0,"block":1,"trial":36,"robot":1,"valence":"win","action":"go","sham":1,"trial_type":"pit-trial","trial_index":49,"time_elapsed":488908,"internal_node_id":"0.0-38.0","task_version":"battery-v0.1"},{"rune":"X","hex":"#3366ff99","correct":-1,"choice":-1,"rt":-1,"accuracy":1,"outcome":"+10","keys":[],"total_keys":0,"block":1,"trial":37,"robot":2,"valence":"win","action":"no-go","sham":0,"trial_type":"pit-trial","trial_index":50,"time_elapsed":492920,"internal_node_id":"0.0-39.0","task_version":"battery-v0.1"},{"rune":"N","hex":"#3366ff99","correct":32,"choice":32,"rt":577.0299999858253,"accuracy":1,"outcome":"+10","keys":[2080.8350000006612],"total_keys":1,"block":1,"trial":38,"robot":1,"valence":"win","action":"go","sham":0,"trial_type":"pit-trial","trial_index":51,"time_elapsed":496211,"internal_node_id":"0.0-40.0","task_version":"battery-v0.1"},{"rune":"R","hex":"#f73b6a7A","correct":-1,"choice":-1,"rt":-1,"accuracy":1,"outcome":"-1","keys":[],"total_keys":0,"block":1,"trial":39,"robot":4,"valence":"lose","action":"no-go","sham":0,"trial_type":"pit-trial","trial_index":52,"time_elapsed":500223,"internal_node_id":"0.0-41.0","task_version":"battery-v0.1"},{"rune":"Y","hex":"#3366ff99","correct":32,"choice":-1,"rt":-1,"accuracy":0,"outcome":"+1","keys":[],"total_keys":0,"block":1,"trial":40,"robot":1,"valence":"win","action":"go","sham":0,"trial_type":"pit-trial","trial_index":53,"time_elapsed":504233,"internal_node_id":"0.0-42.0","task_version":"battery-v0.1"},{"rune":"T","hex":"#f73b6a7A","correct":-1,"choice":-1,"rt":-1,"accuracy":1,"outcome":"-1","keys":[],"total_keys":0,"block":1,"trial":41,"robot":4,"valence":"lose","action":"no-go","sham":0,"trial_type":"pit-trial","trial_index":54,"time_elapsed":508241,"internal_node_id":"0.0-43.0","task_version":"battery-v0.1"},{"rune":"X","hex":"#3366ff99","correct":-1,"choice":-1,"rt":-1,"accuracy":1,"outcome":"+10","keys":[],"total_keys":0,"block":1,"trial":42,"robot":2,"valence":"win","action":"no-go","sham":0,"trial_type":"pit-trial","trial_index":55,"time_elapsed":512251,"internal_node_id":"0.0-44.0","task_version":"battery-v0.1"},{"rune":"Y","hex":"#3366ff99","correct":32,"choice":32,"rt":836.3750000135042,"accuracy":1,"outcome":"+10","keys":[2340.0300000212155],"total_keys":1,"block":1,"trial":43,"robot":1,"valence":"win","action":"go","sham":0,"trial_type":"pit-trial","trial_index":56,"time_elapsed":515799,"internal_node_id":"0.0-45.0","task_version":"battery-v0.1"},{"rune":"H","hex":"#f73b6a7A","correct":32,"choice":-1,"rt":-1,"accuracy":0,"outcome":"-1","keys":[],"total_keys":0,"block":1,"trial":44,"robot":3,"valence":"lose","action":"go","sham":1,"trial_type":"pit-trial","trial_index":57,"time_elapsed":519810,"internal_node_id":"0.0-46.0","task_version":"battery-v0.1"},{"rune":"X","hex":"#3366ff99","correct":-1,"choice":32,"rt":709.7150000045076,"accuracy":0,"outcome":"+1","keys":[2211.9450000172947],"total_keys":1,"block":1,"trial":45,"robot":2,"valence":"win","action":"no-go","sham":0,"trial_type":"pit-trial","trial_index":58,"time_elapsed":523231,"internal_node_id":"0.0-47.0","task_version":"battery-v0.1"},{"rune":"H","hex":"#f73b6a7A","correct":32,"choice":-1,"rt":-1,"accuracy":0,"outcome":"-10","keys":[],"total_keys":0,"block":1,"trial":46,"robot":3,"valence":"lose","action":"go","sham":0,"trial_type":"pit-trial","trial_index":59,"time_elapsed":527242,"internal_node_id":"0.0-48.0","task_version":"battery-v0.1"},{"rune":"Y","hex":"#3366ff99","correct":32,"choice":32,"rt":625.6850000063423,"accuracy":1,"outcome":"+10","keys":[2132.320000004256],"total_keys":1,"block":1,"trial":47,"robot":1,"valence":"win","action":"go","sham":0,"trial_type":"pit-trial","trial_index":60,"time_elapsed":530583,"internal_node_id":"0.0-49.0","task_version":"battery-v0.1"},{"rune":"T","hex":"#f73b6a7A","correct":-1,"choice":-1,"rt":-1,"accuracy":1,"outcome":"-1","keys":[],"total_keys":0,"block":1,"trial":48,"robot":4,"valence":"lose","action":"no-go","sham":0,"trial_type":"pit-trial","trial_index":61,"time_elapsed":534595,"internal_node_id":"0.0-50.0","task_version":"battery-v0.1"},{"rune":"W","hex":"#3366ff99","correct":-1,"choice":-1,"rt":-1,"accuracy":1,"outcome":"+1","keys":[],"total_keys":0,"block":1,"trial":49,"robot":2,"valence":"win","action":"no-go","sham":1,"trial_type":"pit-trial","trial_index":62,"time_elapsed":538606,"internal_node_id":"0.0-51.0","task_version":"battery-v0.1"},{"rune":"Y","hex":"#3366ff99","correct":32,"choice":32,"rt":833.4399999876041,"accuracy":1,"outcome":"+10","keys":[2335.8550000120886],"total_keys":1,"block":1,"trial":50,"robot":1,"valence":"win","action":"go","sham":0,"trial_type":"pit-trial","trial_index":63,"time_elapsed":542147,"internal_node_id":"0.0-52.0","task_version":"battery-v0.1"},{"rune":"T","hex":"#f73b6a7A","correct":-1,"choice":32,"rt":747.994999983348,"accuracy":0,"outcome":"-10","keys":[2248.9449999993667],"total_keys":1,"block":1,"trial":51,"robot":4,"valence":"lose","action":"no-go","sham":0,"trial_type":"pit-trial","trial_index":64,"time_elapsed":545604,"internal_node_id":"0.0-53.0","task_version":"battery-v0.1"},{"rune":"H","hex":"#f73b6a7A","correct":32,"choice":32,"rt":379.41500000306405,"accuracy":1,"outcome":"-1","keys":[1882.1900000039022],"total_keys":1,"block":1,"trial":52,"robot":3,"valence":"lose","action":"go","sham":0,"trial_type":"pit-trial","trial_index":65,"time_elapsed":548694,"internal_node_id":"0.0-54.0","task_version":"battery-v0.1"},{"rune":"H","hex":"#f73b6a7A","correct":32,"choice":32,"rt":456.65000000735745,"accuracy":1,"outcome":"-1","keys":[1958.4649999742396],"total_keys":1,"block":1,"trial":53,"robot":3,"valence":"lose","action":"go","sham":0,"trial_type":"pit-trial","trial_index":66,"time_elapsed":551861,"internal_node_id":"0.0-55.0","task_version":"battery-v0.1"},{"rune":"T","hex":"#f73b6a7A","correct":-1,"choice":32,"rt":766.925000003539,"accuracy":0,"outcome":"-1","keys":[2267.4649999826215],"total_keys":1,"block":1,"trial":54,"robot":4,"valence":"lose","action":"no-go","sham":1,"trial_type":"pit-trial","trial_index":67,"time_elapsed":555339,"internal_node_id":"0.0-56.0","task_version":"battery-v0.1"},{"rune":"W","hex":"#3366ff99","correct":-1,"choice":32,"rt":671.8199999886565,"accuracy":0,"outcome":"+1","keys":[2172.485000017332],"total_keys":1,"block":1,"trial":55,"robot":2,"valence":"win","action":"no-go","sham":0,"trial_type":"pit-trial","trial_index":68,"time_elapsed":558720,"internal_node_id":"0.0-57.0","task_version":"battery-v0.1"},{"rune":"Y","hex":"#3366ff99","correct":32,"choice":32,"rt":518.5300000011921,"accuracy":1,"outcome":"+10","keys":[2019.5650000241585],"total_keys":1,"block":1,"trial":56,"robot":1,"valence":"win","action":"go","sham":0,"trial_type":"pit-trial","trial_index":69,"time_elapsed":561951,"internal_node_id":"0.0-58.0","task_version":"battery-v0.1"},{"rune":"Y","hex":"#3366ff99","correct":32,"choice":32,"rt":518.1499999889638,"accuracy":1,"outcome":"+10","keys":[2025.099999998929],"total_keys":1,"block":1,"trial":57,"robot":1,"valence":"win","action":"go","sham":0,"trial_type":"pit-trial","trial_index":70,"time_elapsed":565182,"internal_node_id":"0.0-59.0","task_version":"battery-v0.1"},{"rune":"H","hex":"#f73b6a7A","correct":32,"choice":32,"rt":710.415000008652,"accuracy":1,"outcome":"-10","keys":[2211.6649999807123],"total_keys":1,"block":1,"trial":58,"robot":3,"valence":"lose","action":"go","sham":1,"trial_type":"pit-trial","trial_index":71,"time_elapsed":568602,"internal_node_id":"0.0-60.0","task_version":"battery-v0.1"},{"rune":"W","hex":"#3366ff99","correct":-1,"choice":32,"rt":618.8450000190642,"accuracy":0,"outcome":"+1","keys":[2120.9649999800604],"total_keys":1,"block":1,"trial":59,"robot":2,"valence":"win","action":"no-go","sham":0,"trial_type":"pit-trial","trial_index":72,"time_elapsed":571937,"internal_node_id":"0.0-61.0","task_version":"battery-v0.1"},{"rune":"T","hex":"#f73b6a7A","correct":-1,"choice":32,"rt":833.4949999989476,"accuracy":0,"outcome":"-1","keys":[2337.4100000073668],"total_keys":1,"block":1,"trial":60,"robot":4,"valence":"lose","action":"no-go","sham":1,"trial_type":"pit-trial","trial_index":73,"time_elapsed":575483,"internal_node_id":"0.0-62.0","task_version":"battery-v0.1"},{"rune":"H","hex":"#f73b6a7A","correct":32,"choice":32,"rt":557.3750000039581,"accuracy":1,"outcome":"-1","keys":[2058.0599999811966],"total_keys":1,"block":1,"trial":61,"robot":3,"valence":"lose","action":"go","sham":0,"trial_type":"pit-trial","trial_index":74,"time_elapsed":578748,"internal_node_id":"0.0-63.0","task_version":"battery-v0.1"},{"rune":"W","hex":"#3366ff99","correct":-1,"choice":-1,"rt":-1,"accuracy":1,"outcome":"+10","keys":[],"total_keys":0,"block":1,"trial":62,"robot":2,"valence":"win","action":"no-go","sham":0,"trial_type":"pit-trial","trial_index":75,"time_elapsed":582760,"internal_node_id":"0.0-64.0","task_version":"battery-v0.1"},{"rune":"T","hex":"#f73b6a7A","correct":-1,"choice":32,"rt":617.5100000109524,"accuracy":0,"outcome":"-10","keys":[2119.8699999949895],"total_keys":1,"block":1,"trial":63,"robot":4,"valence":"lose","action":"no-go","sham":0,"trial_type":"pit-trial","trial_index":76,"time_elapsed":586092,"internal_node_id":"0.0-65.0","task_version":"battery-v0.1"},{"rune":"Y","hex":"#3366ff99","correct":32,"choice":32,"rt":650.1050000078976,"accuracy":1,"outcome":"+10","keys":[2150.759999989532],"total_keys":1,"block":1,"trial":64,"robot":1,"valence":"win","action":"go","sham":0,"trial_type":"pit-trial","trial_index":77,"time_elapsed":589449,"internal_node_id":"0.0-66.0","task_version":"battery-v0.1"},{"rune":"H","hex":"#f73b6a7A","correct":32,"choice":32,"rt":617.2749999968801,"accuracy":1,"outcome":"-1","keys":[2118.9249999879394],"total_keys":1,"block":1,"trial":65,"robot":3,"valence":"lose","action":"go","sham":0,"trial_type":"pit-trial","trial_index":78,"time_elapsed":592776,"internal_node_id":"0.0-67.0","task_version":"battery-v0.1"},{"rune":"W","hex":"#3366ff99","correct":-1,"choice":-1,"rt":-1,"accuracy":1,"outcome":"+10","keys":[],"total_keys":0,"block":1,"trial":66,"robot":2,"valence":"win","action":"no-go","sham":0,"trial_type":"pit-trial","trial_index":79,"time_elapsed":596788,"internal_node_id":"0.0-68.0","task_version":"battery-v0.1"},{"rune":"T","hex":"#f73b6a7A","correct":-1,"choice":32,"rt":558.3650000044145,"accuracy":0,"outcome":"-1","keys":[2060.505000001285],"total_keys":1,"block":1,"trial":67,"robot":4,"valence":"lose","action":"no-go","sham":1,"trial_type":"pit-trial","trial_index":80,"time_elapsed":600058,"internal_node_id":"0.0-69.0","task_version":"battery-v0.1"},{"rune":"Y","hex":"#3366ff99","correct":32,"choice":32,"rt":700.4899999883492,"accuracy":1,"outcome":"+1","keys":[2201.4949999866076],"total_keys":1,"block":1,"trial":68,"robot":1,"valence":"win","action":"go","sham":1,"trial_type":"pit-trial","trial_index":81,"time_elapsed":603468,"internal_node_id":"0.0-70.0","task_version":"battery-v0.1"},{"rune":"Y","hex":"#3366ff99","correct":32,"choice":32,"rt":551.7299999773968,"accuracy":1,"outcome":"+10","keys":[2056.735000020126],"total_keys":1,"block":1,"trial":69,"robot":1,"valence":"win","action":"go","sham":0,"trial_type":"pit-trial","trial_index":82,"time_elapsed":606731,"internal_node_id":"0.0-71.0","task_version":"battery-v0.1"},{"rune":"T","hex":"#f73b6a7A","correct":-1,"choice":32,"rt":1100.624999991851,"accuracy":0,"outcome":"-1","keys":[2602.5899999949615],"total_keys":1,"block":1,"trial":70,"robot":4,"valence":"lose","action":"no-go","sham":1,"trial_type":"pit-trial","trial_index":83,"time_elapsed":610539,"internal_node_id":"0.0-72.0","task_version":"battery-v0.1"},{"rune":"W","hex":"#3366ff99","correct":-1,"choice":32,"rt":780.7599999941885,"accuracy":0,"outcome":"+1","keys":[2282.310000009602],"total_keys":1,"block":1,"trial":71,"robot":2,"valence":"win","action":"no-go","sham":0,"trial_type":"pit-trial","trial_index":84,"time_elapsed":614030,"internal_node_id":"0.0-73.0","task_version":"battery-v0.1"},{"rune":"H","hex":"#f73b6a7A","correct":32,"choice":32,"rt":604.3600000266451,"accuracy":1,"outcome":"-1","keys":[2105.9600000153296],"total_keys":1,"block":1,"trial":72,"robot":3,"valence":"lose","action":"go","sham":0,"trial_type":"pit-trial","trial_index":85,"time_elapsed":617345,"internal_node_id":"0.0-74.0","task_version":"battery-v0.1"},{"rune":"W","hex":"#3366ff99","correct":-1,"choice":32,"rt":559.2500000202563,"accuracy":0,"outcome":"+1","keys":[2061.5150000085123],"total_keys":1,"block":1,"trial":73,"robot":2,"valence":"win","action":"no-go","sham":0,"trial_type":"pit-trial","trial_index":86,"time_elapsed":620613,"internal_node_id":"0.0-75.0","task_version":"battery-v0.1"},{"rune":"L","hex":"#f73b6a7A","correct":32,"choice":-1,"rt":-1,"accuracy":0,"outcome":"-10","keys":[],"total_keys":0,"block":1,"trial":74,"robot":3,"valence":"lose","action":"go","sham":0,"trial_type":"pit-trial","trial_index":87,"time_elapsed":624624,"internal_node_id":"0.0-76.0","task_version":"battery-v0.1"},{"rune":"T","hex":"#f73b6a7A","correct":-1,"choice":32,"rt":812.2649999859277,"accuracy":0,"outcome":"-10","keys":[2317.3899999819696],"total_keys":1,"block":1,"trial":75,"robot":4,"valence":"lose","action":"no-go","sham":0,"trial_type":"pit-trial","trial_index":88,"time_elapsed":628148,"internal_node_id":"0.0-77.0","task_version":"battery-v0.1"},{"rune":"Y","hex":"#3366ff99","correct":32,"choice":32,"rt":642.2000000020489,"accuracy":1,"outcome":"+1","keys":[2142.4849999893922],"total_keys":1,"block":1,"trial":76,"robot":1,"valence":"win","action":"go","sham":1,"trial_type":"pit-trial","trial_index":89,"time_elapsed":631497,"internal_node_id":"0.0-78.0","task_version":"battery-v0.1"},{"rune":"Y","hex":"#3366ff99","correct":32,"choice":32,"rt":630.7150000066031,"accuracy":1,"outcome":"+10","keys":[2149.6899999910966],"total_keys":1,"block":1,"trial":77,"robot":1,"valence":"win","action":"go","sham":0,"trial_type":"pit-trial","trial_index":90,"time_elapsed":634853,"internal_node_id":"0.0-79.0","task_version":"battery-v0.1"},{"rune":"L","hex":"#f73b6a7A","correct":32,"choice":32,"rt":846.7949999903794,"accuracy":1,"outcome":"-1","keys":[2359.020000003511],"total_keys":1,"block":1,"trial":78,"robot":3,"valence":"lose","action":"go","sham":0,"trial_type":"pit-trial","trial_index":91,"time_elapsed":638422,"internal_node_id":"0.0-80.0","task_version":"battery-v0.1"},{"rune":"W","hex":"#3366ff99","correct":-1,"choice":32,"rt":628.9150000084192,"accuracy":0,"outcome":"+1","keys":[2131.410000001779],"total_keys":1,"block":1,"trial":79,"robot":2,"valence":"win","action":"no-go","sham":0,"trial_type":"pit-trial","trial_index":92,"time_elapsed":641760,"internal_node_id":"0.0-81.0","task_version":"battery-v0.1"},{"rune":"T","hex":"#f73b6a7A","correct":-1,"choice":32,"rt":665.5900000187103,"accuracy":0,"outcome":"-10","keys":[2166.4100000052713],"total_keys":1,"block":1,"trial":80,"robot":4,"valence":"lose","action":"no-go","sham":0,"trial_type":"pit-trial","trial_index":93,"time_elapsed":645132,"internal_node_id":"0.0-82.0","task_version":"battery-v0.1"},{"rune":"L","hex":"#f73b6a7A","correct":32,"choice":32,"rt":541.2800000049174,"accuracy":1,"outcome":"-1","keys":[2042.5600000016857],"total_keys":1,"block":1,"trial":81,"robot":3,"valence":"lose","action":"go","sham":0,"trial_type":"pit-trial","trial_index":94,"time_elapsed":648385,"internal_node_id":"0.0-83.0","task_version":"battery-v0.1"},{"rune":"T","hex":"#f73b6a7A","correct":-1,"choice":-1,"rt":-1,"accuracy":1,"outcome":"-10","keys":[],"total_keys":0,"block":1,"trial":82,"robot":4,"valence":"lose","action":"no-go","sham":1,"trial_type":"pit-trial","trial_index":95,"time_elapsed":652397,"internal_node_id":"0.0-84.0","task_version":"battery-v0.1"},{"rune":"Z","hex":"#f73b6a7A","correct":32,"choice":32,"rt":771.664999978384,"accuracy":1,"outcome":"-1","keys":[2272.2800000046846],"total_keys":1,"block":1,"trial":83,"robot":3,"valence":"lose","action":"go","sham":0,"trial_type":"pit-trial","trial_index":96,"time_elapsed":655878,"internal_node_id":"0.0-85.0","task_version":"battery-v0.1"},{"rune":"W","hex":"#3366ff99","correct":-1,"choice":-1,"rt":-1,"accuracy":1,"outcome":"+10","keys":[],"total_keys":0,"block":1,"trial":84,"robot":2,"valence":"win","action":"no-go","sham":0,"trial_type":"pit-trial","trial_index":97,"time_elapsed":659891,"internal_node_id":"0.0-86.0","task_version":"battery-v0.1"},{"rune":"W","hex":"#3366ff99","correct":-1,"choice":-1,"rt":-1,"accuracy":1,"outcome":"+1","keys":[],"total_keys":0,"block":1,"trial":85,"robot":2,"valence":"win","action":"no-go","sham":1,"trial_type":"pit-trial","trial_index":98,"time_elapsed":663900,"internal_node_id":"0.0-87.0","task_version":"battery-v0.1"},{"rune":"L","hex":"#f73b6a7A","correct":32,"choice":32,"rt":632.1599999791943,"accuracy":1,"outcome":"-1","keys":[2133.414999989327],"total_keys":1,"block":1,"trial":86,"robot":3,"valence":"lose","action":"go","sham":0,"trial_type":"pit-trial","trial_index":99,"time_elapsed":667243,"internal_node_id":"0.0-88.0","task_version":"battery-v0.1"},{"rune":"Z","hex":"#f73b6a7A","correct":32,"choice":32,"rt":747.8299999784213,"accuracy":1,"outcome":"-1","keys":[2256.150000001071],"total_keys":1,"block":1,"trial":87,"robot":3,"valence":"lose","action":"go","sham":0,"trial_type":"pit-trial","trial_index":100,"time_elapsed":670706,"internal_node_id":"0.0-89.0","task_version":"battery-v0.1"},{"rune":"T","hex":"#f73b6a7A","correct":-1,"choice":32,"rt":662.0450000045821,"accuracy":0,"outcome":"-10","keys":[2162.290000007488],"total_keys":1,"block":1,"trial":88,"robot":4,"valence":"lose","action":"no-go","sham":0,"trial_type":"pit-trial","trial_index":101,"time_elapsed":674077,"internal_node_id":"0.0-90.0","task_version":"battery-v0.1"},{"rune":"L","hex":"#f73b6a7A","correct":32,"choice":32,"rt":537.6300000061747,"accuracy":1,"outcome":"-1","keys":[2038.044999993872],"total_keys":1,"block":1,"trial":89,"robot":3,"valence":"lose","action":"go","sham":0,"trial_type":"pit-trial","trial_index":102,"time_elapsed":677322,"internal_node_id":"0.0-91.0","task_version":"battery-v0.1"},{"rune":"C","hex":"#f73b6a7A","correct":-1,"choice":32,"rt":1143.3799999940675,"accuracy":0,"outcome":"-10","keys":[2643.9449999888893],"total_keys":1,"block":1,"trial":90,"robot":4,"valence":"lose","action":"no-go","sham":0,"trial_type":"pit-trial","trial_index":103,"time_elapsed":681172,"internal_node_id":"0.0-92.0","task_version":"battery-v0.1"},{"rune":"E","hex":"#3366ff99","correct":-1,"choice":32,"rt":1124.390000011772,"accuracy":0,"outcome":"+1","keys":[2628.645000018878],"total_keys":1,"block":1,"trial":91,"robot":2,"valence":"win","action":"no-go","sham":0,"trial_type":"pit-trial","trial_index":104,"time_elapsed":685007,"internal_node_id":"0.0-93.0","task_version":"battery-v0.1"},{"rune":"Z","hex":"#f73b6a7A","correct":32,"choice":32,"rt":684.7750000015367,"accuracy":1,"outcome":"-1","keys":[2187.3649999906775],"total_keys":1,"block":1,"trial":92,"robot":3,"valence":"lose","action":"go","sham":0,"trial_type":"pit-trial","trial_index":105,"time_elapsed":688401,"internal_node_id":"0.0-94.0","task_version":"battery-v0.1"},{"rune":"Z","hex":"#f73b6a7A","correct":32,"choice":32,"rt":783.6200000019744,"accuracy":1,"outcome":"-1","keys":[2284.6150000113994],"total_keys":1,"block":1,"trial":93,"robot":3,"valence":"lose","action":"go","sham":0,"trial_type":"pit-trial","trial_index":106,"time_elapsed":691893,"internal_node_id":"0.0-95.0","task_version":"battery-v0.1"},{"rune":"E","hex":"#3366ff99","correct":-1,"choice":-1,"rt":-1,"accuracy":1,"outcome":"+10","keys":[],"total_keys":0,"block":1,"trial":94,"robot":2,"valence":"win","action":"no-go","sham":0,"trial_type":"pit-trial","trial_index":107,"time_elapsed":695904,"internal_node_id":"0.0-96.0","task_version":"battery-v0.1"},{"rune":"L","hex":"#f73b6a7A","correct":32,"choice":32,"rt":575.394999992568,"accuracy":1,"outcome":"-1","keys":[2077.320000011241],"total_keys":1,"block":1,"trial":95,"robot":3,"valence":"lose","action":"go","sham":0,"trial_type":"pit-trial","trial_index":108,"time_elapsed":699187,"internal_node_id":"0.0-97.0","task_version":"battery-v0.1"},{"rune":"C","hex":"#f73b6a7A","correct":-1,"choice":-1,"rt":-1,"accuracy":1,"outcome":"-1","keys":[],"total_keys":0,"block":1,"trial":96,"robot":4,"valence":"lose","action":"no-go","sham":0,"trial_type":"pit-trial","trial_index":109,"time_elapsed":703197,"internal_node_id":"0.0-98.0","task_version":"battery-v0.1"},{"rune":"E","hex":"#3366ff99","correct":-1,"choice":-1,"rt":-1,"accuracy":1,"outcome":"+1","keys":[],"total_keys":0,"block":1,"trial":97,"robot":2,"valence":"win","action":"no-go","sham":1,"trial_type":"pit-trial","trial_index":110,"time_elapsed":707207,"internal_node_id":"0.0-99.0","task_version":"battery-v0.1"},{"rune":"L","hex":"#f73b6a7A","correct":32,"choice":32,"rt":649.2699999944307,"accuracy":1,"outcome":"-1","keys":[2150.805000012042],"total_keys":1,"block":1,"trial":98,"robot":3,"valence":"lose","action":"go","sham":0,"trial_type":"pit-trial","trial_index":111,"time_elapsed":710566,"internal_node_id":"0.0-100.0","task_version":"battery-v0.1"},{"rune":"Z","hex":"#f73b6a7A","correct":32,"choice":-1,"rt":-1,"accuracy":0,"outcome":"-10","keys":[],"total_keys":0,"block":1,"trial":99,"robot":3,"valence":"lose","action":"go","sham":0,"trial_type":"pit-trial","trial_index":112,"time_elapsed":714579,"internal_node_id":"0.0-101.0","task_version":"battery-v0.1"},{"rune":"C","hex":"#f73b6a7A","correct":-1,"choice":32,"rt":926.6249999927823,"accuracy":0,"outcome":"-1","keys":[2426.7999999865424],"total_keys":1,"block":1,"trial":100,"robot":4,"valence":"lose","action":"no-go","sham":1,"trial_type":"pit-trial","trial_index":113,"time_elapsed":718214,"internal_node_id":"0.0-102.0","task_version":"battery-v0.1"},{"rune":"E","hex":"#3366ff99","correct":-1,"choice":32,"rt":855.1049999950919,"accuracy":0,"outcome":"+1","keys":[2355.894999986049],"total_keys":1,"block":1,"trial":101,"robot":2,"valence":"win","action":"no-go","sham":0,"trial_type":"pit-trial","trial_index":114,"time_elapsed":721779,"internal_node_id":"0.0-103.0","task_version":"battery-v0.1"},{"rune":"C","hex":"#f73b6a7A","correct":-1,"choice":32,"rt":976.8650000041816,"accuracy":0,"outcome":"-10","keys":[2478.1000000075437],"total_keys":1,"block":1,"trial":102,"robot":4,"valence":"lose","action":"no-go","sham":0,"trial_type":"pit-trial","trial_index":115,"time_elapsed":725469,"internal_node_id":"0.0-104.0","task_version":"battery-v0.1"},{"rune":"L","hex":"#f73b6a7A","correct":32,"choice":32,"rt":940.134999982547,"accuracy":1,"outcome":"-1","keys":[2440.709999995306],"total_keys":1,"block":1,"trial":103,"robot":3,"valence":"lose","action":"go","sham":0,"trial_type":"pit-trial","trial_index":116,"time_elapsed":729118,"internal_node_id":"0.0-105.0","task_version":"battery-v0.1"},{"rune":"Z","hex":"#f73b6a7A","correct":32,"choice":32,"rt":710.9399999899324,"accuracy":1,"outcome":"-1","keys":[2211.349999997765],"total_keys":1,"block":1,"trial":104,"robot":3,"valence":"lose","action":"go","sham":0,"trial_type":"pit-trial","trial_index":117,"time_elapsed":732536,"internal_node_id":"0.0-106.0","task_version":"battery-v0.1"},{"rune":"L","hex":"#f73b6a7A","correct":32,"choice":-1,"rt":-1,"accuracy":0,"outcome":"-1","keys":[],"total_keys":0,"block":1,"trial":105,"robot":3,"valence":"lose","action":"go","sham":1,"trial_type":"pit-trial","trial_index":118,"time_elapsed":736549,"internal_node_id":"0.0-107.0","task_version":"battery-v0.1"},{"rune":"C","hex":"#f73b6a7A","correct":-1,"choice":32,"rt":845.4250000067987,"accuracy":0,"outcome":"-10","keys":[2346.0250000061933],"total_keys":1,"block":1,"trial":106,"robot":4,"valence":"lose","action":"no-go","sham":0,"trial_type":"pit-trial","trial_index":119,"time_elapsed":740101,"internal_node_id":"0.0-108.0","task_version":"battery-v0.1"},{"rune":"Z","hex":"#f73b6a7A","correct":32,"choice":32,"rt":663.7550000159536,"accuracy":1,"outcome":"-1","keys":[2165.32499997993],"total_keys":1,"block":1,"trial":107,"robot":3,"valence":"lose","action":"go","sham":0,"trial_type":"pit-trial","trial_index":120,"time_elapsed":743478,"internal_node_id":"0.0-109.0","task_version":"battery-v0.1"},{"rune":"E","hex":"#3366ff99","correct":-1,"choice":32,"rt":837.9750000021886,"accuracy":0,"outcome":"+1","keys":[2339.1149999806657],"total_keys":1,"block":1,"trial":108,"robot":2,"valence":"win","action":"no-go","sham":0,"trial_type":"pit-trial","trial_index":121,"time_elapsed":747026,"internal_node_id":"0.0-110.0","task_version":"battery-v0.1"},{"rune":"L","hex":"#f73b6a7A","correct":32,"choice":32,"rt":679.1800000064541,"accuracy":1,"outcome":"-1","keys":[2179.3199999956414],"total_keys":1,"block":1,"trial":109,"robot":3,"valence":"lose","action":"go","sham":0,"trial_type":"pit-trial","trial_index":122,"time_elapsed":750415,"internal_node_id":"0.0-111.0","task_version":"battery-v0.1"},{"rune":"E","hex":"#3366ff99","correct":-1,"choice":32,"rt":950.0150000094436,"accuracy":0,"outcome":"+1","keys":[2464.640000020154],"total_keys":1,"block":1,"trial":110,"robot":2,"valence":"win","action":"no-go","sham":0,"trial_type":"pit-trial","trial_index":123,"time_elapsed":754089,"internal_node_id":"0.0-112.0","task_version":"battery-v0.1"},{"rune":"C","hex":"#f73b6a7A","correct":-1,"choice":-1,"rt":-1,"accuracy":1,"outcome":"-10","keys":[],"total_keys":0,"block":1,"trial":111,"robot":4,"valence":"lose","action":"no-go","sham":1,"trial_type":"pit-trial","trial_index":124,"time_elapsed":758101,"internal_node_id":"0.0-113.0","task_version":"battery-v0.1"},{"rune":"Z","hex":"#f73b6a7A","correct":32,"choice":-1,"rt":-1,"accuracy":0,"outcome":"-10","keys":[],"total_keys":0,"block":1,"trial":112,"robot":3,"valence":"lose","action":"go","sham":0,"trial_type":"pit-trial","trial_index":125,"time_elapsed":762109,"internal_node_id":"0.0-114.0","task_version":"battery-v0.1"},{"rune":"L","hex":"#f73b6a7A","correct":32,"choice":-1,"rt":-1,"accuracy":0,"outcome":"-10","keys":[],"total_keys":0,"block":1,"trial":113,"robot":3,"valence":"lose","action":"go","sham":0,"trial_type":"pit-trial","trial_index":126,"time_elapsed":766118,"internal_node_id":"0.0-115.0","task_version":"battery-v0.1"},{"rune":"E","hex":"#3366ff99","correct":-1,"choice":32,"rt":710.3650000062771,"accuracy":0,"outcome":"+10","keys":[2211.975000012899],"total_keys":1,"block":1,"trial":114,"robot":2,"valence":"win","action":"no-go","sham":1,"trial_type":"pit-trial","trial_index":127,"time_elapsed":769537,"internal_node_id":"0.0-116.0","task_version":"battery-v0.1"},{"rune":"Z","hex":"#f73b6a7A","correct":32,"choice":32,"rt":770.9049999830313,"accuracy":1,"outcome":"-1","keys":[2272.735000005923],"total_keys":1,"block":1,"trial":115,"robot":3,"valence":"lose","action":"go","sham":0,"trial_type":"pit-trial","trial_index":128,"time_elapsed":773020,"internal_node_id":"0.0-117.0","task_version":"battery-v0.1"},{"rune":"C","hex":"#f73b6a7A","correct":-1,"choice":-1,"rt":-1,"accuracy":1,"outcome":"-1","keys":[],"total_keys":0,"block":1,"trial":116,"robot":4,"valence":"lose","action":"no-go","sham":0,"trial_type":"pit-trial","trial_index":129,"time_elapsed":777032,"internal_node_id":"0.0-118.0","task_version":"battery-v0.1"},{"rune":"C","hex":"#f73b6a7A","correct":-1,"choice":-1,"rt":-1,"accuracy":1,"outcome":"-1","keys":[],"total_keys":0,"block":1,"trial":117,"robot":4,"valence":"lose","action":"no-go","sham":0,"trial_type":"pit-trial","trial_index":130,"time_elapsed":781043,"internal_node_id":"0.0-119.0","task_version":"battery-v0.1"},{"rune":"Z","hex":"#f73b6a7A","correct":32,"choice":32,"rt":756.7399999825284,"accuracy":1,"outcome":"-1","keys":[2258.979999984149],"total_keys":1,"block":1,"trial":118,"robot":3,"valence":"lose","action":"go","sham":0,"trial_type":"pit-trial","trial_index":131,"time_elapsed":784509,"internal_node_id":"0.0-120.0","task_version":"battery-v0.1"},{"rune":"L","hex":"#f73b6a7A","correct":32,"choice":32,"rt":616.6050000174437,"accuracy":1,"outcome":"-1","keys":[2116.710000002058],"total_keys":1,"block":1,"trial":119,"robot":3,"valence":"lose","action":"go","sham":0,"trial_type":"pit-trial","trial_index":132,"time_elapsed":787835,"internal_node_id":"0.0-121.0","task_version":"battery-v0.1"},{"rune":"E","hex":"#3366ff99","correct":-1,"choice":32,"rt":566.4399999950547,"accuracy":0,"outcome":"+1","keys":[2066.9749999942724],"total_keys":1,"block":1,"trial":120,"robot":2,"valence":"win","action":"no-go","sham":0,"trial_type":"pit-trial","trial_index":133,"time_elapsed":791111,"internal_node_id":"0.0-122.0","task_version":"battery-v0.1"},{"view_history":"[{\"page_index\":0,\"viewing_time\":67532.24000000046},{\"page_index\":1,\"viewing_time\":1745.8850000111852}]","rt":69278.45499999239,"trial_type":"pit-instructions","trial_index":134,"time_elapsed":860397,"internal_node_id":"0.0-123.0","task_version":"battery-v0.1"},{"rune":"V","hex":"#3366ff99","correct":32,"choice":-1,"rt":-1,"accuracy":0,"outcome":"+10","keys":[],"total_keys":0,"block":2,"trial":121,"robot":1,"valence":"win","action":"go","sham":1,"trial_type":"pit-trial","trial_index":135,"time_elapsed":864411,"internal_node_id":"0.0-124.0","task_version":"battery-v0.1"},{"rune":"D","hex":"#3366ff99","correct":-1,"choice":-1,"rt":-1,"accuracy":1,"outcome":"+10","keys":[],"total_keys":0,"block":2,"trial":122,"robot":2,"valence":"win","action":"no-go","sham":0,"trial_type":"pit-trial","trial_index":136,"time_elapsed":868422,"internal_node_id":"0.0-125.0","task_version":"battery-v0.1"},{"rune":"I","hex":"#f73b6a7A","correct":-1,"choice":-1,"rt":-1,"accuracy":1,"outcome":"-1","keys":[],"total_keys":0,"block":2,"trial":123,"robot":4,"valence":"lose","action":"no-go","sham":0,"trial_type":"pit-trial","trial_index":137,"time_elapsed":872434,"internal_node_id":"0.0-126.0","task_version":"battery-v0.1"},{"rune":"J","hex":"#f73b6a7A","correct":-1,"choice":-1,"rt":-1,"accuracy":1,"outcome":"-1","keys":[],"total_keys":0,"block":2,"trial":124,"robot":4,"valence":"lose","action":"no-go","sham":0,"trial_type":"pit-trial","trial_index":138,"time_elapsed":876445,"internal_node_id":"0.0-127.0","task_version":"battery-v0.1"},{"rune":"V","hex":"#3366ff99","correct":32,"choice":-1,"rt":-1,"accuracy":0,"outcome":"+1","keys":[],"total_keys":0,"block":2,"trial":125,"robot":1,"valence":"win","action":"go","sham":0,"trial_type":"pit-trial","trial_index":139,"time_elapsed":880456,"internal_node_id":"0.0-128.0","task_version":"battery-v0.1"},{"rune":"I","hex":"#f73b6a7A","correct":-1,"choice":-1,"rt":-1,"accuracy":1,"outcome":"-1","keys":[],"total_keys":0,"block":2,"trial":126,"robot":4,"valence":"lose","action":"no-go","sham":0,"trial_type":"pit-trial","trial_index":140,"time_elapsed":884469,"internal_node_id":"0.0-129.0","task_version":"battery-v0.1"},{"rune":"D","hex":"#3366ff99","correct":-1,"choice":-1,"rt":-1,"accuracy":1,"outcome":"+10","keys":[],"total_keys":0,"block":2,"trial":127,"robot":2,"valence":"win","action":"no-go","sham":0,"trial_type":"pit-trial","trial_index":141,"time_elapsed":888485,"internal_node_id":"0.0-130.0","task_version":"battery-v0.1"},{"rune":"J","hex":"#f73b6a7A","correct":-1,"choice":-1,"rt":-1,"accuracy":1,"outcome":"-1","keys":[],"total_keys":0,"block":2,"trial":128,"robot":4,"valence":"lose","action":"no-go","sham":0,"trial_type":"pit-trial","trial_index":142,"time_elapsed":892497,"internal_node_id":"0.0-131.0","task_version":"battery-v0.1"},{"rune":"J","hex":"#f73b6a7A","correct":-1,"choice":-1,"rt":-1,"accuracy":1,"outcome":"-10","keys":[],"total_keys":0,"block":2,"trial":129,"robot":4,"valence":"lose","action":"no-go","sham":1,"trial_type":"pit-trial","trial_index":143,"time_elapsed":896509,"internal_node_id":"0.0-132.0","task_version":"battery-v0.1"},{"rune":"V","hex":"#3366ff99","correct":32,"choice":-1,"rt":-1,"accuracy":0,"outcome":"+1","keys":[],"total_keys":0,"block":2,"trial":130,"robot":1,"valence":"win","action":"go","sham":0,"trial_type":"pit-trial","trial_index":144,"time_elapsed":900519,"internal_node_id":"0.0-133.0","task_version":"battery-v0.1"},{"rune":"D","hex":"#3366ff99","correct":-1,"choice":-1,"rt":-1,"accuracy":1,"outcome":"+10","keys":[],"total_keys":0,"block":2,"trial":131,"robot":2,"valence":"win","action":"no-go","sham":0,"trial_type":"pit-trial","trial_index":145,"time_elapsed":904531,"internal_node_id":"0.0-134.0","task_version":"battery-v0.1"},{"rune":"I","hex":"#f73b6a7A","correct":-1,"choice":-1,"rt":-1,"accuracy":1,"outcome":"-1","keys":[],"total_keys":0,"block":2,"trial":132,"robot":4,"valence":"lose","action":"no-go","sham":0,"trial_type":"pit-trial","trial_index":146,"time_elapsed":908543,"internal_node_id":"0.0-135.0","task_version":"battery-v0.1"},{"rune":"J","hex":"#f73b6a7A","correct":-1,"choice":32,"rt":371.69999995967373,"accuracy":0,"outcome":"-10","keys":[1872.2999999881722],"total_keys":1,"block":2,"trial":133,"robot":4,"valence":"lose","action":"no-go","sham":0,"trial_type":"pit-trial","trial_index":147,"time_elapsed":911624,"internal_node_id":"0.0-136.0","task_version":"battery-v0.1"},{"rune":"D","hex":"#3366ff99","correct":-1,"choice":-1,"rt":-1,"accuracy":1,"outcome":"+10","keys":[],"total_keys":0,"block":2,"trial":134,"robot":2,"valence":"win","action":"no-go","sham":0,"trial_type":"pit-trial","trial_index":148,"time_elapsed":915637,"internal_node_id":"0.0-137.0","task_version":"battery-v0.1"},{"rune":"V","hex":"#3366ff99","correct":32,"choice":-1,"rt":-1,"accuracy":0,"outcome":"+1","keys":[],"total_keys":0,"block":2,"trial":135,"robot":1,"valence":"win","action":"go","sham":0,"trial_type":"pit-trial","trial_index":149,"time_elapsed":919647,"internal_node_id":"0.0-138.0","task_version":"battery-v0.1"},{"rune":"I","hex":"#f73b6a7A","correct":-1,"choice":-1,"rt":-1,"accuracy":1,"outcome":"-10","keys":[],"total_keys":0,"block":2,"trial":136,"robot":4,"valence":"lose","action":"no-go","sham":1,"trial_type":"pit-trial","trial_index":150,"time_elapsed":923654,"internal_node_id":"0.0-139.0","task_version":"battery-v0.1"},{"rune":"J","hex":"#f73b6a7A","correct":-1,"choice":32,"rt":612.5849999953061,"accuracy":0,"outcome":"-1","keys":[2113.290000008419],"total_keys":1,"block":2,"trial":137,"robot":4,"valence":"lose","action":"no-go","sham":1,"trial_type":"pit-trial","trial_index":151,"time_elapsed":926978,"internal_node_id":"0.0-140.0","task_version":"battery-v0.1"},{"rune":"D","hex":"#3366ff99","correct":-1,"choice":-1,"rt":-1,"accuracy":1,"outcome":"+1","keys":[],"total_keys":0,"block":2,"trial":138,"robot":2,"valence":"win","action":"no-go","sham":1,"trial_type":"pit-trial","trial_index":152,"time_elapsed":930990,"internal_node_id":"0.0-141.0","task_version":"battery-v0.1"},{"rune":"V","hex":"#3366ff99","correct":32,"choice":32,"rt":300.46500003663823,"accuracy":1,"outcome":"+10","keys":[1806.5049999859184],"total_keys":1,"block":2,"trial":139,"robot":1,"valence":"win","action":"go","sham":0,"trial_type":"pit-trial","trial_index":153,"time_elapsed":934006,"internal_node_id":"0.0-142.0","task_version":"battery-v0.1"},{"rune":"I","hex":"#f73b6a7A","correct":-1,"choice":-1,"rt":-1,"accuracy":1,"outcome":"-1","keys":[],"total_keys":0,"block":2,"trial":140,"robot":4,"valence":"lose","action":"no-go","sham":0,"trial_type":"pit-trial","trial_index":154,"time_elapsed":938017,"internal_node_id":"0.0-143.0","task_version":"battery-v0.1"},{"rune":"J","hex":"#f73b6a7A","correct":-1,"choice":32,"rt":393.1400000001304,"accuracy":0,"outcome":"-10","keys":[1894.5399999502115],"total_keys":1,"block":2,"trial":141,"robot":4,"valence":"lose","action":"no-go","sham":0,"trial_type":"pit-trial","trial_index":155,"time_elapsed":941121,"internal_node_id":"0.0-144.0","task_version":"battery-v0.1"},{"rune":"V","hex":"#3366ff99","correct":32,"choice":32,"rt":547.1249999827705,"accuracy":1,"outcome":"+10","keys":[2048.479999997653],"total_keys":1,"block":2,"trial":142,"robot":1,"valence":"win","action":"go","sham":0,"trial_type":"pit-trial","trial_index":156,"time_elapsed":944378,"internal_node_id":"0.0-145.0","task_version":"battery-v0.1"},{"rune":"D","hex":"#3366ff99","correct":-1,"choice":-1,"rt":-1,"accuracy":1,"outcome":"+10","keys":[],"total_keys":0,"block":2,"trial":143,"robot":2,"valence":"win","action":"no-go","sham":0,"trial_type":"pit-trial","trial_index":157,"time_elapsed":948388,"internal_node_id":"0.0-146.0","task_version":"battery-v0.1"},{"rune":"I","hex":"#f73b6a7A","correct":-1,"choice":-1,"rt":-1,"accuracy":1,"outcome":"-1","keys":[],"total_keys":0,"block":2,"trial":144,"robot":4,"valence":"lose","action":"no-go","sham":0,"trial_type":"pit-trial","trial_index":158,"time_elapsed":952404,"internal_node_id":"0.0-147.0","task_version":"battery-v0.1"},{"rune":"I","hex":"#f73b6a7A","correct":-1,"choice":-1,"rt":-1,"accuracy":1,"outcome":"-1","keys":[],"total_keys":0,"block":2,"trial":145,"robot":4,"valence":"lose","action":"no-go","sham":0,"trial_type":"pit-trial","trial_index":159,"time_elapsed":956418,"internal_node_id":"0.0-148.0","task_version":"battery-v0.1"},{"rune":"J","hex":"#f73b6a7A","correct":-1,"choice":32,"rt":677.0499999984168,"accuracy":0,"outcome":"-10","keys":[2183.3999999798834],"total_keys":1,"block":2,"trial":146,"robot":4,"valence":"lose","action":"no-go","sham":0,"trial_type":"pit-trial","trial_index":160,"time_elapsed":959809,"internal_node_id":"0.0-149.0","task_version":"battery-v0.1"},{"rune":"D","hex":"#3366ff99","correct":-1,"choice":-1,"rt":-1,"accuracy":1,"outcome":"+10","keys":[],"total_keys":0,"block":2,"trial":147,"robot":2,"valence":"win","action":"no-go","sham":0,"trial_type":"pit-trial","trial_index":161,"time_elapsed":963819,"internal_node_id":"0.0-150.0","task_version":"battery-v0.1"},{"rune":"V","hex":"#3366ff99","correct":32,"choice":32,"rt":561.8799999938346,"accuracy":1,"outcome":"+1","keys":[2062.5],"total_keys":1,"block":2,"trial":148,"robot":1,"valence":"win","action":"go","sham":1,"trial_type":"pit-trial","trial_index":162,"time_elapsed":967087,"internal_node_id":"0.0-151.0","task_version":"battery-v0.1"},{"rune":"D","hex":"#3366ff99","correct":-1,"choice":-1,"rt":-1,"accuracy":1,"outcome":"+10","keys":[],"total_keys":0,"block":2,"trial":149,"robot":2,"valence":"win","action":"no-go","sham":0,"trial_type":"pit-trial","trial_index":163,"time_elapsed":971100,"internal_node_id":"0.0-152.0","task_version":"battery-v0.1"},{"rune":"I","hex":"#f73b6a7A","correct":-1,"choice":-1,"rt":-1,"accuracy":1,"outcome":"-10","keys":[],"total_keys":0,"block":2,"trial":150,"robot":4,"valence":"lose","action":"no-go","sham":1,"trial_type":"pit-trial","trial_index":164,"time_elapsed":975111,"internal_node_id":"0.0-153.0","task_version":"battery-v0.1"},{"rune":"J","hex":"#f73b6a7A","correct":-1,"choice":32,"rt":397.57500000996515,"accuracy":0,"outcome":"-10","keys":[1897.8400000487454],"total_keys":1,"block":2,"trial":151,"robot":4,"valence":"lose","action":"no-go","sham":0,"trial_type":"pit-trial","trial_index":165,"time_elapsed":978215,"internal_node_id":"0.0-154.0","task_version":"battery-v0.1"},{"rune":"V","hex":"#3366ff99","correct":32,"choice":32,"rt":537.4550000415184,"accuracy":1,"outcome":"+1","keys":[2037.7900000312366],"total_keys":1,"block":2,"trial":152,"robot":1,"valence":"win","action":"go","sham":1,"trial_type":"pit-trial","trial_index":166,"time_elapsed":981461,"internal_node_id":"0.0-155.0","task_version":"battery-v0.1"},{"rune":"V","hex":"#3366ff99","correct":32,"choice":32,"rt":477.86500002257526,"accuracy":1,"outcome":"+10","keys":[1978.8900000276044],"total_keys":1,"block":2,"trial":153,"robot":1,"valence":"win","action":"go","sham":0,"trial_type":"pit-trial","trial_index":167,"time_elapsed":984655,"internal_node_id":"0.0-156.0","task_version":"battery-v0.1"},{"rune":"Q","hex":"#f73b6a7A","correct":32,"choice":-1,"rt":-1,"accuracy":0,"outcome":"-10","keys":[],"total_keys":0,"block":2,"trial":154,"robot":3,"valence":"lose","action":"go","sham":0,"trial_type":"pit-trial","trial_index":168,"time_elapsed":988667,"internal_node_id":"0.0-157.0","task_version":"battery-v0.1"},{"rune":"J","hex":"#f73b6a7A","correct":-1,"choice":32,"rt":640.830000047572,"accuracy":0,"outcome":"-10","keys":[2143.7150000128895],"total_keys":1,"block":2,"trial":155,"robot":4,"valence":"lose","action":"no-go","sham":0,"trial_type":"pit-trial","trial_index":169,"time_elapsed":992020,"internal_node_id":"0.0-158.0","task_version":"battery-v0.1"},{"rune":"D","hex":"#3366ff99","correct":-1,"choice":32,"rt":613.7549999984913,"accuracy":0,"outcome":"+1","keys":[2115.014999988489],"total_keys":1,"block":2,"trial":156,"robot":2,"valence":"win","action":"no-go","sham":0,"trial_type":"pit-trial","trial_index":170,"time_elapsed":995342,"internal_node_id":"0.0-159.0","task_version":"battery-v0.1"},{"rune":"Q","hex":"#f73b6a7A","correct":32,"choice":32,"rt":602.6849999907427,"accuracy":1,"outcome":"-1","keys":[2103.255000023637],"total_keys":1,"block":2,"trial":157,"robot":3,"valence":"lose","action":"go","sham":0,"trial_type":"pit-trial","trial_index":171,"time_elapsed":998655,"internal_node_id":"0.0-160.0","task_version":"battery-v0.1"},{"rune":"V","hex":"#3366ff99","correct":32,"choice":32,"rt":612.2900000191294,"accuracy":1,"outcome":"+10","keys":[2134.3350000097416],"total_keys":1,"block":2,"trial":158,"robot":1,"valence":"win","action":"go","sham":0,"trial_type":"pit-trial","trial_index":172,"time_elapsed":1001996,"internal_node_id":"0.0-161.0","task_version":"battery-v0.1"},{"rune":"D","hex":"#3366ff99","correct":-1,"choice":-1,"rt":-1,"accuracy":1,"outcome":"+1","keys":[],"total_keys":0,"block":2,"trial":159,"robot":2,"valence":"win","action":"no-go","sham":1,"trial_type":"pit-trial","trial_index":173,"time_elapsed":1006006,"internal_node_id":"0.0-162.0","task_version":"battery-v0.1"},{"rune":"J","hex":"#f73b6a7A","correct":-1,"choice":32,"rt":505.37999998778105,"accuracy":0,"outcome":"-10","keys":[2006.6449999576434],"total_keys":1,"block":2,"trial":160,"robot":4,"valence":"lose","action":"no-go","sham":0,"trial_type":"pit-trial","trial_index":174,"time_elapsed":1009222,"internal_node_id":"0.0-163.0","task_version":"battery-v0.1"},{"rune":"F","hex":"#3366ff99","correct":-1,"choice":32,"rt":641.6900000185706,"accuracy":0,"outcome":"+1","keys":[2142.7549999789335],"total_keys":1,"block":2,"trial":161,"robot":2,"valence":"win","action":"no-go","sham":0,"trial_type":"pit-trial","trial_index":175,"time_elapsed":1012572,"internal_node_id":"0.0-164.0","task_version":"battery-v0.1"},{"rune":"M","hex":"#3366ff99","correct":32,"choice":32,"rt":734.2699999571778,"accuracy":1,"outcome":"+1","keys":[2238.3150000241585],"total_keys":1,"block":2,"trial":162,"robot":1,"valence":"win","action":"go","sham":1,"trial_type":"pit-trial","trial_index":176,"time_elapsed":1016020,"internal_node_id":"0.0-165.0","task_version":"battery-v0.1"},{"rune":"Q","hex":"#f73b6a7A","correct":32,"choice":32,"rt":631.920000014361,"accuracy":1,"outcome":"-10","keys":[2132.849999994505],"total_keys":1,"block":2,"trial":163,"robot":3,"valence":"lose","action":"go","sham":1,"trial_type":"pit-trial","trial_index":177,"time_elapsed":1019362,"internal_node_id":"0.0-166.0","task_version":"battery-v0.1"},{"rune":"J","hex":"#f73b6a7A","correct":-1,"choice":32,"rt":695.2150000142865,"accuracy":0,"outcome":"-10","keys":[2196.380000037607],"total_keys":1,"block":2,"trial":164,"robot":4,"valence":"lose","action":"no-go","sham":0,"trial_type":"pit-trial","trial_index":178,"time_elapsed":1022766,"internal_node_id":"0.0-167.0","task_version":"battery-v0.1"},{"rune":"M","hex":"#3366ff99","correct":32,"choice":32,"rt":591.8950000195764,"accuracy":1,"outcome":"+10","keys":[2095.720000041183],"total_keys":1,"block":2,"trial":165,"robot":1,"valence":"win","action":"go","sham":0,"trial_type":"pit-trial","trial_index":179,"time_elapsed":1026070,"internal_node_id":"0.0-168.0","task_version":"battery-v0.1"},{"rune":"Q","hex":"#f73b6a7A","correct":32,"choice":32,"rt":847.9850000003353,"accuracy":1,"outcome":"-10","keys":[2348.2700000167824],"total_keys":1,"block":2,"trial":166,"robot":3,"valence":"lose","action":"go","sham":1,"trial_type":"pit-trial","trial_index":180,"time_elapsed":1029626,"internal_node_id":"0.0-169.0","task_version":"battery-v0.1"},{"rune":"F","hex":"#3366ff99","correct":-1,"choice":-1,"rt":-1,"accuracy":1,"outcome":"+10","keys":[],"total_keys":0,"block":2,"trial":167,"robot":2,"valence":"win","action":"no-go","sham":0,"trial_type":"pit-trial","trial_index":181,"time_elapsed":1033636,"internal_node_id":"0.0-170.0","task_version":"battery-v0.1"},{"rune":"J","hex":"#f73b6a7A","correct":-1,"choice":32,"rt":657.950000022538,"accuracy":0,"outcome":"-10","keys":[2158.3899999968708],"total_keys":1,"block":2,"trial":168,"robot":4,"valence":"lose","action":"no-go","sham":0,"trial_type":"pit-trial","trial_index":182,"time_elapsed":1037004,"internal_node_id":"0.0-171.0","task_version":"battery-v0.1"},{"rune":"F","hex":"#3366ff99","correct":-1,"choice":32,"rt":680.690000008326,"accuracy":0,"outcome":"+1","keys":[2183.084999967832],"total_keys":1,"block":2,"trial":169,"robot":2,"valence":"win","action":"no-go","sham":0,"trial_type":"pit-trial","trial_index":183,"time_elapsed":1040396,"internal_node_id":"0.0-172.0","task_version":"battery-v0.1"},{"rune":"B","hex":"#f73b6a7A","correct":-1,"choice":-1,"rt":-1,"accuracy":1,"outcome":"-1","keys":[],"total_keys":0,"block":2,"trial":170,"robot":4,"valence":"lose","action":"no-go","sham":0,"trial_type":"pit-trial","trial_index":184,"time_elapsed":1044407,"internal_node_id":"0.0-173.0","task_version":"battery-v0.1"},{"rune":"M","hex":"#3366ff99","correct":32,"choice":32,"rt":760.2849999675527,"accuracy":1,"outcome":"+10","keys":[2262.0050000259653],"total_keys":1,"block":2,"trial":171,"robot":1,"valence":"win","action":"go","sham":0,"trial_type":"pit-trial","trial_index":185,"time_elapsed":1047877,"internal_node_id":"0.0-174.0","task_version":"battery-v0.1"},{"rune":"Q","hex":"#f73b6a7A","correct":32,"choice":-1,"rt":-1,"accuracy":0,"outcome":"-10","keys":[],"total_keys":0,"block":2,"trial":172,"robot":3,"valence":"lose","action":"go","sham":0,"trial_type":"pit-trial","trial_index":186,"time_elapsed":1051887,"internal_node_id":"0.0-175.0","task_version":"battery-v0.1"},{"rune":"Q","hex":"#f73b6a7A","correct":32,"choice":32,"rt":631.6399999777786,"accuracy":1,"outcome":"-1","keys":[2147.830000030808],"total_keys":1,"block":2,"trial":173,"robot":3,"valence":"lose","action":"go","sham":0,"trial_type":"pit-trial","trial_index":187,"time_elapsed":1055244,"internal_node_id":"0.0-176.0","task_version":"battery-v0.1"},{"rune":"F","hex":"#3366ff99","correct":-1,"choice":-1,"rt":-1,"accuracy":1,"outcome":"+10","keys":[],"total_keys":0,"block":2,"trial":174,"robot":2,"valence":"win","action":"no-go","sham":0,"trial_type":"pit-trial","trial_index":188,"time_elapsed":1059255,"internal_node_id":"0.0-177.0","task_version":"battery-v0.1"},{"rune":"M","hex":"#3366ff99","correct":32,"choice":32,"rt":468.05999998468906,"accuracy":1,"outcome":"+10","keys":[1976.6599999857135],"total_keys":1,"block":2,"trial":175,"robot":1,"valence":"win","action":"go","sham":0,"trial_type":"pit-trial","trial_index":189,"time_elapsed":1062438,"internal_node_id":"0.0-178.0","task_version":"battery-v0.1"},{"rune":"B","hex":"#f73b6a7A","correct":-1,"choice":-1,"rt":-1,"accuracy":1,"outcome":"-1","keys":[],"total_keys":0,"block":2,"trial":176,"robot":4,"valence":"lose","action":"no-go","sham":0,"trial_type":"pit-trial","trial_index":190,"time_elapsed":1066448,"internal_node_id":"0.0-179.0","task_version":"battery-v0.1"},{"rune":"F","hex":"#3366ff99","correct":-1,"choice":-1,"rt":-1,"accuracy":1,"outcome":"+1","keys":[],"total_keys":0,"block":2,"trial":177,"robot":2,"valence":"win","action":"no-go","sham":1,"trial_type":"pit-trial","trial_index":191,"time_elapsed":1070458,"internal_node_id":"0.0-180.0","task_version":"battery-v0.1"},{"rune":"M","hex":"#3366ff99","correct":32,"choice":32,"rt":354.9250000505708,"accuracy":1,"outcome":"+10","keys":[1856.2600000295788],"total_keys":1,"block":2,"trial":178,"robot":1,"valence":"win","action":"go","sham":0,"trial_type":"pit-trial","trial_index":192,"time_elapsed":1073524,"internal_node_id":"0.0-181.0","task_version":"battery-v0.1"},{"rune":"B","hex":"#f73b6a7A","correct":-1,"choice":-1,"rt":-1,"accuracy":1,"outcome":"-1","keys":[],"total_keys":0,"block":2,"trial":179,"robot":4,"valence":"lose","action":"no-go","sham":0,"trial_type":"pit-trial","trial_index":193,"time_elapsed":1077538,"internal_node_id":"0.0-182.0","task_version":"battery-v0.1"},{"rune":"Q","hex":"#f73b6a7A","correct":32,"choice":-1,"rt":-1,"accuracy":0,"outcome":"-10","keys":[],"total_keys":0,"block":2,"trial":180,"robot":3,"valence":"lose","action":"go","sham":0,"trial_type":"pit-trial","trial_index":194,"time_elapsed":1081549,"internal_node_id":"0.0-183.0","task_version":"battery-v0.1"},{"rune":"F","hex":"#3366ff99","correct":-1,"choice":32,"rt":796.840000024531,"accuracy":0,"outcome":"+10","keys":[2297.3450000281446],"total_keys":1,"block":2,"trial":181,"robot":2,"valence":"win","action":"no-go","sham":1,"trial_type":"pit-trial","trial_index":195,"time_elapsed":1085054,"internal_node_id":"0.0-184.0","task_version":"battery-v0.1"},{"rune":"M","hex":"#3366ff99","correct":32,"choice":32,"rt":343.9399999915622,"accuracy":1,"outcome":"+10","keys":[1844.1549999988638],"total_keys":1,"block":2,"trial":182,"robot":1,"valence":"win","action":"go","sham":0,"trial_type":"pit-trial","trial_index":196,"time_elapsed":1088107,"internal_node_id":"0.0-185.0","task_version":"battery-v0.1"},{"rune":"B","hex":"#f73b6a7A","correct":-1,"choice":-1,"rt":-1,"accuracy":1,"outcome":"-1","keys":[],"total_keys":0,"block":2,"trial":183,"robot":4,"valence":"lose","action":"no-go","sham":0,"trial_type":"pit-trial","trial_index":197,"time_elapsed":1092119,"internal_node_id":"0.0-186.0","task_version":"battery-v0.1"},{"rune":"Q","hex":"#f73b6a7A","correct":32,"choice":32,"rt":564.7300000418909,"accuracy":1,"outcome":"-1","keys":[2084.1699999873526],"total_keys":1,"block":2,"trial":184,"robot":3,"valence":"lose","action":"go","sham":0,"trial_type":"pit-trial","trial_index":198,"time_elapsed":1095409,"internal_node_id":"0.0-187.0","task_version":"battery-v0.1"},{"rune":"Q","hex":"#f73b6a7A","correct":32,"choice":32,"rt":621.7900000046939,"accuracy":1,"outcome":"-1","keys":[2125.2649999805726],"total_keys":1,"block":2,"trial":185,"robot":3,"valence":"lose","action":"go","sham":0,"trial_type":"pit-trial","trial_index":199,"time_elapsed":1098745,"internal_node_id":"0.0-188.0","task_version":"battery-v0.1"},{"rune":"M","hex":"#3366ff99","correct":32,"choice":32,"rt":386.0949999652803,"accuracy":1,"outcome":"+1","keys":[1891.1800000350922],"total_keys":1,"block":2,"trial":186,"robot":1,"valence":"win","action":"go","sham":1,"trial_type":"pit-trial","trial_index":200,"time_elapsed":1101843,"internal_node_id":"0.0-189.0","task_version":"battery-v0.1"},{"rune":"F","hex":"#3366ff99","correct":-1,"choice":-1,"rt":-1,"accuracy":1,"outcome":"+10","keys":[],"total_keys":0,"block":2,"trial":187,"robot":2,"valence":"win","action":"no-go","sham":0,"trial_type":"pit-trial","trial_index":201,"time_elapsed":1105855,"internal_node_id":"0.0-190.0","task_version":"battery-v0.1"},{"rune":"B","hex":"#f73b6a7A","correct":-1,"choice":-1,"rt":-1,"accuracy":1,"outcome":"-1","keys":[],"total_keys":0,"block":2,"trial":188,"robot":4,"valence":"lose","action":"no-go","sham":0,"trial_type":"pit-trial","trial_index":202,"time_elapsed":1109866,"internal_node_id":"0.0-191.0","task_version":"battery-v0.1"},{"rune":"B","hex":"#f73b6a7A","correct":-1,"choice":-1,"rt":-1,"accuracy":1,"outcome":"-1","keys":[],"total_keys":0,"block":2,"trial":189,"robot":4,"valence":"lose","action":"no-go","sham":0,"trial_type":"pit-trial","trial_index":203,"time_elapsed":1113878,"internal_node_id":"0.0-192.0","task_version":"battery-v0.1"},{"rune":"Q","hex":"#f73b6a7A","correct":32,"choice":32,"rt":576.1949999723583,"accuracy":1,"outcome":"-1","keys":[2076.6599999624304],"total_keys":1,"block":2,"trial":190,"robot":3,"valence":"lose","action":"go","sham":0,"trial_type":"pit-trial","trial_index":204,"time_elapsed":1117163,"internal_node_id":"0.0-193.0","task_version":"battery-v0.1"},{"rune":"F","hex":"#3366ff99","correct":-1,"choice":-1,"rt":-1,"accuracy":1,"outcome":"+10","keys":[],"total_keys":0,"block":2,"trial":191,"robot":2,"valence":"win","action":"no-go","sham":0,"trial_type":"pit-trial","trial_index":205,"time_elapsed":1121173,"internal_node_id":"0.0-194.0","task_version":"battery-v0.1"},{"rune":"M","hex":"#3366ff99","correct":32,"choice":32,"rt":451.0299999965355,"accuracy":1,"outcome":"+1","keys":[1952.869999979157],"total_keys":1,"block":2,"trial":192,"robot":1,"valence":"win","action":"go","sham":1,"trial_type":"pit-trial","trial_index":206,"time_elapsed":1124337,"internal_node_id":"0.0-195.0","task_version":"battery-v0.1"},{"rune":"F","hex":"#3366ff99","correct":-1,"choice":-1,"rt":-1,"accuracy":1,"outcome":"+10","keys":[],"total_keys":0,"block":2,"trial":193,"robot":2,"valence":"win","action":"no-go","sham":0,"trial_type":"pit-trial","trial_index":207,"time_elapsed":1128354,"internal_node_id":"0.0-196.0","task_version":"battery-v0.1"},{"rune":"B","hex":"#f73b6a7A","correct":-1,"choice":-1,"rt":-1,"accuracy":1,"outcome":"-1","keys":[],"total_keys":0,"block":2,"trial":194,"robot":4,"valence":"lose","action":"no-go","sham":0,"trial_type":"pit-trial","trial_index":208,"time_elapsed":1132361,"internal_node_id":"0.0-197.0","task_version":"battery-v0.1"},{"rune":"K","hex":"#3366ff99","correct":32,"choice":32,"rt":555.5200000526384,"accuracy":1,"outcome":"+10","keys":[2056.784999964293],"total_keys":1,"block":2,"trial":195,"robot":1,"valence":"win","action":"go","sham":0,"trial_type":"pit-trial","trial_index":209,"time_elapsed":1135628,"internal_node_id":"0.0-198.0","task_version":"battery-v0.1"},{"rune":"S","hex":"#f73b6a7A","correct":32,"choice":-1,"rt":-1,"accuracy":0,"outcome":"-10","keys":[],"total_keys":0,"block":2,"trial":196,"robot":3,"valence":"lose","action":"go","sham":0,"trial_type":"pit-trial","trial_index":210,"time_elapsed":1139639,"internal_node_id":"0.0-199.0","task_version":"battery-v0.1"},{"rune":"B","hex":"#f73b6a7A","correct":-1,"choice":-1,"rt":-1,"accuracy":1,"outcome":"-1","keys":[],"total_keys":0,"block":2,"trial":197,"robot":4,"valence":"lose","action":"no-go","sham":0,"trial_type":"pit-trial","trial_index":211,"time_elapsed":1143652,"internal_node_id":"0.0-200.0","task_version":"battery-v0.1"},{"rune":"S","hex":"#f73b6a7A","correct":32,"choice":32,"rt":354.0849999990314,"accuracy":1,"outcome":"-1","keys":[1857.9349999781698],"total_keys":1,"block":2,"trial":198,"robot":3,"valence":"lose","action":"go","sham":0,"trial_type":"pit-trial","trial_index":212,"time_elapsed":1146716,"internal_node_id":"0.0-201.0","task_version":"battery-v0.1"},{"rune":"K","hex":"#3366ff99","correct":32,"choice":-1,"rt":-1,"accuracy":0,"outcome":"+1","keys":[],"total_keys":0,"block":2,"trial":199,"robot":1,"valence":"win","action":"go","sham":0,"trial_type":"pit-trial","trial_index":213,"time_elapsed":1150727,"internal_node_id":"0.0-202.0","task_version":"battery-v0.1"},{"rune":"F","hex":"#3366ff99","correct":-1,"choice":-1,"rt":-1,"accuracy":1,"outcome":"+10","keys":[],"total_keys":0,"block":2,"trial":200,"robot":2,"valence":"win","action":"no-go","sham":0,"trial_type":"pit-trial","trial_index":214,"time_elapsed":1154738,"internal_node_id":"0.0-203.0","task_version":"battery-v0.1"},{"rune":"B","hex":"#f73b6a7A","correct":-1,"choice":32,"rt":791.7499999748543,"accuracy":0,"outcome":"-10","keys":[2292.989999987185],"total_keys":1,"block":2,"trial":201,"robot":4,"valence":"lose","action":"no-go","sham":0,"trial_type":"pit-trial","trial_index":215,"time_elapsed":1158239,"internal_node_id":"0.0-204.0","task_version":"battery-v0.1"},{"rune":"S","hex":"#f73b6a7A","correct":32,"choice":32,"rt":579.9000000115484,"accuracy":1,"outcome":"-1","keys":[2081.530000024941],"total_keys":1,"block":2,"trial":202,"robot":3,"valence":"lose","action":"go","sham":0,"trial_type":"pit-trial","trial_index":216,"time_elapsed":1161531,"internal_node_id":"0.0-205.0","task_version":"battery-v0.1"},{"rune":"F","hex":"#3366ff99","correct":-1,"choice":-1,"rt":-1,"accuracy":1,"outcome":"+1","keys":[],"total_keys":0,"block":2,"trial":203,"robot":2,"valence":"win","action":"no-go","sham":1,"trial_type":"pit-trial","trial_index":217,"time_elapsed":1165538,"internal_node_id":"0.0-206.0","task_version":"battery-v0.1"},{"rune":"K","hex":"#3366ff99","correct":32,"choice":32,"rt":762.2100000153296,"accuracy":1,"outcome":"+10","keys":[2267.8300000261515],"total_keys":1,"block":2,"trial":204,"robot":1,"valence":"win","action":"go","sham":0,"trial_type":"pit-trial","trial_index":218,"time_elapsed":1169014,"internal_node_id":"0.0-207.0","task_version":"battery-v0.1"},{"rune":"K","hex":"#3366ff99","correct":32,"choice":32,"rt":419.945000030566,"accuracy":1,"outcome":"+10","keys":[1920.410000020638],"total_keys":1,"block":2,"trial":205,"robot":1,"valence":"win","action":"go","sham":0,"trial_type":"pit-trial","trial_index":219,"time_elapsed":1172140,"internal_node_id":"0.0-208.0","task_version":"battery-v0.1"},{"rune":"B","hex":"#f73b6a7A","correct":-1,"choice":-1,"rt":-1,"accuracy":1,"outcome":"-1","keys":[],"total_keys":0,"block":2,"trial":206,"robot":4,"valence":"lose","action":"no-go","sham":0,"trial_type":"pit-trial","trial_index":220,"time_elapsed":1176150,"internal_node_id":"0.0-209.0","task_version":"battery-v0.1"},{"rune":"F","hex":"#3366ff99","correct":-1,"choice":-1,"rt":-1,"accuracy":1,"outcome":"+1","keys":[],"total_keys":0,"block":2,"trial":207,"robot":2,"valence":"win","action":"no-go","sham":1,"trial_type":"pit-trial","trial_index":221,"time_elapsed":1180161,"internal_node_id":"0.0-210.0","task_version":"battery-v0.1"},{"rune":"S","hex":"#f73b6a7A","correct":32,"choice":32,"rt":498.7599999876693,"accuracy":1,"outcome":"-1","keys":[2001.1299999896437],"total_keys":1,"block":2,"trial":208,"robot":3,"valence":"lose","action":"go","sham":0,"trial_type":"pit-trial","trial_index":222,"time_elapsed":1183371,"internal_node_id":"0.0-211.0","task_version":"battery-v0.1"},{"rune":"K","hex":"#3366ff99","correct":32,"choice":32,"rt":517.4150000093505,"accuracy":1,"outcome":"+1","keys":[2018.2900000363588],"total_keys":1,"block":2,"trial":209,"robot":1,"valence":"win","action":"go","sham":1,"trial_type":"pit-trial","trial_index":223,"time_elapsed":1186597,"internal_node_id":"0.0-212.0","task_version":"battery-v0.1"},{"rune":"G","hex":"#3366ff99","correct":-1,"choice":32,"rt":537.354999978561,"accuracy":0,"outcome":"+1","keys":[2038.1899999920279],"total_keys":1,"block":2,"trial":210,"robot":2,"valence":"win","action":"no-go","sham":0,"trial_type":"pit-trial","trial_index":224,"time_elapsed":1189845,"internal_node_id":"0.0-213.0","task_version":"battery-v0.1"},{"rune":"U","hex":"#f73b6a7A","correct":32,"choice":-1,"rt":-1,"accuracy":0,"outcome":"-10","keys":[],"total_keys":0,"block":2,"trial":211,"robot":3,"valence":"lose","action":"go","sham":0,"trial_type":"pit-trial","trial_index":225,"time_elapsed":1193854,"internal_node_id":"0.0-214.0","task_version":"battery-v0.1"},{"rune":"S","hex":"#f73b6a7A","correct":32,"choice":32,"rt":544.5150000159629,"accuracy":1,"outcome":"-1","keys":[2046.0800000000745],"total_keys":1,"block":2,"trial":212,"robot":3,"valence":"lose","action":"go","sham":0,"trial_type":"pit-trial","trial_index":226,"time_elapsed":1197111,"internal_node_id":"0.0-215.0","task_version":"battery-v0.1"},{"rune":"G","hex":"#3366ff99","correct":-1,"choice":-1,"rt":-1,"accuracy":1,"outcome":"+10","keys":[],"total_keys":0,"block":2,"trial":213,"robot":2,"valence":"win","action":"no-go","sham":0,"trial_type":"pit-trial","trial_index":227,"time_elapsed":1201122,"internal_node_id":"0.0-216.0","task_version":"battery-v0.1"},{"rune":"U","hex":"#f73b6a7A","correct":32,"choice":32,"rt":634.444999974221,"accuracy":1,"outcome":"-10","keys":[2135.6849999865517],"total_keys":1,"block":2,"trial":214,"robot":3,"valence":"lose","action":"go","sham":1,"trial_type":"pit-trial","trial_index":228,"time_elapsed":1204466,"internal_node_id":"0.0-217.0","task_version":"battery-v0.1"},{"rune":"S","hex":"#f73b6a7A","correct":32,"choice":32,"rt":588.8000000268221,"accuracy":1,"outcome":"-1","keys":[2089.719999989029],"total_keys":1,"block":2,"trial":215,"robot":3,"valence":"lose","action":"go","sham":0,"trial_type":"pit-trial","trial_index":229,"time_elapsed":1207762,"internal_node_id":"0.0-218.0","task_version":"battery-v0.1"},{"rune":"K","hex":"#3366ff99","correct":32,"choice":32,"rt":589.5800000289455,"accuracy":1,"outcome":"+1","keys":[2089.9649999919347],"total_keys":1,"block":2,"trial":216,"robot":1,"valence":"win","action":"go","sham":1,"trial_type":"pit-trial","trial_index":230,"time_elapsed":1211060,"internal_node_id":"0.0-219.0","task_version":"battery-v0.1"},{"rune":"S","hex":"#f73b6a7A","correct":32,"choice":32,"rt":535.9649999882095,"accuracy":1,"outcome":"-1","keys":[2036.6400000057183],"total_keys":1,"block":2,"trial":217,"robot":3,"valence":"lose","action":"go","sham":0,"trial_type":"pit-trial","trial_index":231,"time_elapsed":1214305,"internal_node_id":"0.0-220.0","task_version":"battery-v0.1"},{"rune":"K","hex":"#3366ff99","correct":32,"choice":32,"rt":433.0600000103004,"accuracy":1,"outcome":"+10","keys":[1933.9949999703094],"total_keys":1,"block":2,"trial":218,"robot":1,"valence":"win","action":"go","sham":0,"trial_type":"pit-trial","trial_index":232,"time_elapsed":1217448,"internal_node_id":"0.0-221.0","task_version":"battery-v0.1"},{"rune":"U","hex":"#f73b6a7A","correct":32,"choice":32,"rt":758.7100000237115,"accuracy":1,"outcome":"-1","keys":[2260.680000006687],"total_keys":1,"block":2,"trial":219,"robot":3,"valence":"lose","action":"go","sham":0,"trial_type":"pit-trial","trial_index":233,"time_elapsed":1220918,"internal_node_id":"0.0-222.0","task_version":"battery-v0.1"},{"rune":"G","hex":"#3366ff99","correct":-1,"choice":32,"rt":615.3449999983422,"accuracy":0,"outcome":"+1","keys":[2120.2050000429153],"total_keys":1,"block":2,"trial":220,"robot":2,"valence":"win","action":"no-go","sham":0,"trial_type":"pit-trial","trial_index":234,"time_elapsed":1224245,"internal_node_id":"0.0-223.0","task_version":"battery-v0.1"},{"rune":"U","hex":"#f73b6a7A","correct":32,"choice":32,"rt":562.6349999802187,"accuracy":1,"outcome":"-10","keys":[2065.2549999649636],"total_keys":1,"block":2,"trial":221,"robot":3,"valence":"lose","action":"go","sham":1,"trial_type":"pit-trial","trial_index":235,"time_elapsed":1227520,"internal_node_id":"0.0-224.0","task_version":"battery-v0.1"},{"rune":"K","hex":"#3366ff99","correct":32,"choice":32,"rt":486.32500000530854,"accuracy":1,"outcome":"+1","keys":[1992.9150000098161],"total_keys":1,"block":2,"trial":222,"robot":1,"valence":"win","action":"go","sham":1,"trial_type":"pit-trial","trial_index":236,"time_elapsed":1230724,"internal_node_id":"0.0-225.0","task_version":"battery-v0.1"},{"rune":"S","hex":"#f73b6a7A","correct":32,"choice":32,"rt":507.0450000348501,"accuracy":1,"outcome":"-1","keys":[2012.9050000105053],"total_keys":1,"block":2,"trial":223,"robot":3,"valence":"lose","action":"go","sham":0,"trial_type":"pit-trial","trial_index":237,"time_elapsed":1233944,"internal_node_id":"0.0-226.0","task_version":"battery-v0.1"},{"rune":"G","hex":"#3366ff99","correct":-1,"choice":32,"rt":1080.0949999829754,"accuracy":0,"outcome":"+1","keys":[2581.1000000103377],"total_keys":1,"block":2,"trial":224,"robot":2,"valence":"win","action":"no-go","sham":0,"trial_type":"pit-trial","trial_index":238,"time_elapsed":1237735,"internal_node_id":"0.0-227.0","task_version":"battery-v0.1"},{"rune":"K","hex":"#3366ff99","correct":32,"choice":32,"rt":465.9899999969639,"accuracy":1,"outcome":"+10","keys":[1967.0800000312738],"total_keys":1,"block":2,"trial":225,"robot":1,"valence":"win","action":"go","sham":0,"trial_type":"pit-trial","trial_index":239,"time_elapsed":1240911,"internal_node_id":"0.0-228.0","task_version":"battery-v0.1"},{"rune":"U","hex":"#f73b6a7A","correct":32,"choice":32,"rt":643.0950000067241,"accuracy":1,"outcome":"-10","keys":[2146.5600000228733],"total_keys":1,"block":2,"trial":226,"robot":3,"valence":"lose","action":"go","sham":1,"trial_type":"pit-trial","trial_index":240,"time_elapsed":1244264,"internal_node_id":"0.0-229.0","task_version":"battery-v0.1"},{"rune":"S","hex":"#f73b6a7A","correct":32,"choice":32,"rt":741.6550000198185,"accuracy":1,"outcome":"-1","keys":[2243.049999990035],"total_keys":1,"block":2,"trial":227,"robot":3,"valence":"lose","action":"go","sham":0,"trial_type":"pit-trial","trial_index":241,"time_elapsed":1247714,"internal_node_id":"0.0-230.0","task_version":"battery-v0.1"},{"rune":"G","hex":"#3366ff99","correct":-1,"choice":-1,"rt":-1,"accuracy":1,"outcome":"+10","keys":[],"total_keys":0,"block":2,"trial":228,"robot":2,"valence":"win","action":"no-go","sham":0,"trial_type":"pit-trial","trial_index":242,"time_elapsed":1251729,"internal_node_id":"0.0-231.0","task_version":"battery-v0.1"},{"rune":"G","hex":"#3366ff99","correct":-1,"choice":-1,"rt":-1,"accuracy":1,"outcome":"+10","keys":[],"total_keys":0,"block":2,"trial":229,"robot":2,"valence":"win","action":"no-go","sham":0,"trial_type":"pit-trial","trial_index":243,"time_elapsed":1255743,"internal_node_id":"0.0-232.0","task_version":"battery-v0.1"},{"rune":"S","hex":"#f73b6a7A","correct":32,"choice":32,"rt":737.3850000440143,"accuracy":1,"outcome":"-1","keys":[2238.034999987576],"total_keys":1,"block":2,"trial":230,"robot":3,"valence":"lose","action":"go","sham":0,"trial_type":"pit-trial","trial_index":244,"time_elapsed":1259189,"internal_node_id":"0.0-233.0","task_version":"battery-v0.1"},{"rune":"K","hex":"#3366ff99","correct":32,"choice":32,"rt":837.9650000133552,"accuracy":1,"outcome":"+1","keys":[2353.7900000228547],"total_keys":1,"block":2,"trial":231,"robot":1,"valence":"win","action":"go","sham":1,"trial_type":"pit-trial","trial_index":245,"time_elapsed":1262751,"internal_node_id":"0.0-234.0","task_version":"battery-v0.1"},{"rune":"U","hex":"#f73b6a7A","correct":32,"choice":32,"rt":559.865000017453,"accuracy":1,"outcome":"-1","keys":[2061.32500001695],"total_keys":1,"block":2,"trial":232,"robot":3,"valence":"lose","action":"go","sham":0,"trial_type":"pit-trial","trial_index":246,"time_elapsed":1266024,"internal_node_id":"0.0-235.0","task_version":"battery-v0.1"},{"rune":"K","hex":"#3366ff99","correct":32,"choice":32,"rt":695.9049999713898,"accuracy":1,"outcome":"+10","keys":[2198.5050000366755],"total_keys":1,"block":2,"trial":233,"robot":1,"valence":"win","action":"go","sham":0,"trial_type":"pit-trial","trial_index":247,"time_elapsed":1269433,"internal_node_id":"0.0-236.0","task_version":"battery-v0.1"},{"rune":"S","hex":"#f73b6a7A","correct":32,"choice":32,"rt":613.1799999857321,"accuracy":1,"outcome":"-1","keys":[2121.255000005476],"total_keys":1,"block":2,"trial":234,"robot":3,"valence":"lose","action":"go","sham":0,"trial_type":"pit-trial","trial_index":248,"time_elapsed":1272761,"internal_node_id":"0.0-237.0","task_version":"battery-v0.1"},{"rune":"U","hex":"#f73b6a7A","correct":32,"choice":32,"rt":533.1700000097044,"accuracy":1,"outcome":"-1","keys":[2065.7699999865144],"total_keys":1,"block":2,"trial":235,"robot":3,"valence":"lose","action":"go","sham":0,"trial_type":"pit-trial","trial_index":249,"time_elapsed":1276036,"internal_node_id":"0.0-238.0","task_version":"battery-v0.1"},{"rune":"G","hex":"#3366ff99","correct":-1,"choice":-1,"rt":-1,"accuracy":1,"outcome":"+10","keys":[],"total_keys":0,"block":2,"trial":236,"robot":2,"valence":"win","action":"no-go","sham":0,"trial_type":"pit-trial","trial_index":250,"time_elapsed":1280049,"internal_node_id":"0.0-239.0","task_version":"battery-v0.1"},{"rune":"G","hex":"#3366ff99","correct":-1,"choice":-1,"rt":-1,"accuracy":1,"outcome":"+10","keys":[],"total_keys":0,"block":2,"trial":237,"robot":2,"valence":"win","action":"no-go","sham":0,"trial_type":"pit-trial","trial_index":251,"time_elapsed":1284060,"internal_node_id":"0.0-240.0","task_version":"battery-v0.1"},{"rune":"U","hex":"#f73b6a7A","correct":32,"choice":32,"rt":558.4549999912269,"accuracy":1,"outcome":"-1","keys":[2066.370000015013],"total_keys":1,"block":2,"trial":238,"robot":3,"valence":"lose","action":"go","sham":0,"trial_type":"pit-trial","trial_index":252,"time_elapsed":1287336,"internal_node_id":"0.0-241.0","task_version":"battery-v0.1"},{"rune":"S","hex":"#f73b6a7A","correct":32,"choice":32,"rt":448.7049999879673,"accuracy":1,"outcome":"-1","keys":[1949.0449999575503],"total_keys":1,"block":2,"trial":239,"robot":3,"valence":"lose","action":"go","sham":0,"trial_type":"pit-trial","trial_index":253,"time_elapsed":1290493,"internal_node_id":"0.0-242.0","task_version":"battery-v0.1"},{"rune":"K","hex":"#3366ff99","correct":32,"choice":32,"rt":537.7999999909662,"accuracy":1,"outcome":"+10","keys":[2039.8799999966286],"total_keys":1,"block":2,"trial":240,"robot":1,"valence":"win","action":"go","sham":0,"trial_type":"pit-trial","trial_index":254,"time_elapsed":1293743,"internal_node_id":"0.0-243.0","task_version":"battery-v0.1"},{"view_history":"[{\"page_index\":0,\"viewing_time\":1883.5049999761395}]","rt":1883.830000006128,"trial_type":"pit-instructions","trial_index":255,"time_elapsed":1295633,"internal_node_id":"0.0-244.0","task_version":"battery-v0.1"},{"rt":14222.669999988284,"responses":{"age":"32","gender-categorical":"Male","gender-free-response":"","ethnicity":"Not Hispanic or Latino","race":["White"],"language":"Yes","fluency":"Very well"},"survey":"demographics","trial_type":"survey-demo","trial_index":256,"time_elapsed":1309866,"internal_node_id":"0.0-245.0","task_version":"battery-v0.1"},{"rt":28829.67499998631,"responses":{"difficulty":"2","fun":"4","clarity":"5","strategy":"I didn't write things down. I thought about it, but didn't feel there was enough time.","feedback":""},"survey":"debrief","trial_type":"survey-debrief","trial_index":257,"time_elapsed":1338704,"internal_node_id":"0.0-246.0","task_version":"battery-v0.1","interactions":"[{\"event\":\"blur\",\"trial\":11,\"time\":322669},{\"event\":\"focus\",\"trial\":11,\"time\":332565}]"}]