[{"view_history":"[{\"page_index\":0,\"viewing_time\":4097.815000044648},{\"page_index\":1,\"viewing_time\":8952.664999989793},{\"page_index\":2,\"viewing_time\":7492.855000018608},{\"page_index\":3,\"viewing_time\":8996.59499997506},{\"page_index\":4,\"viewing_time\":14002.434999973048},{\"page_index\":5,\"viewing_time\":16891.105000046082}]","rt":60434.580000001006,"trial_type":"pit-instructions","trial_index":0,"time_elapsed":60461,"internal_node_id":"0.0-0.0-0.0","task_version":"battery-v0.1"},{"rune":"","hex":"#FFFFF080","correct":32,"choice":-1,"rt":-1,"accuracy":0,"outcome":"+0","keys":[1108.9800000190735],"total_keys":1,"block":0,"trial_type":"pit-trial","trial_index":1,"time_elapsed":64475,"internal_node_id":"0.0-0.0-1.0-0.0","task_version":"battery-v0.1"},{"rune":"","hex":"#FFFFF080","correct":32,"choice":-1,"rt":-1,"accuracy":0,"outcome":"+0","keys":[1166.4800000144169],"total_keys":1,"block":0,"trial_type":"pit-trial","trial_index":2,"time_elapsed":68484,"internal_node_id":"0.0-0.0-1.0-0.1","task_version":"battery-v0.1"},{"rune":"","hex":"#FFFFF080","correct":32,"choice":32,"rt":992.6099999574944,"accuracy":1,"outcome":"+10","keys":[1234.5400000340305,2492.9100000299513],"total_keys":2,"block":0,"trial_type":"pit-trial","trial_index":3,"time_elapsed":72185,"internal_node_id":"0.0-0.0-1.0-0.2","task_version":"battery-v0.1"},{"rune":"","hex":"#FFFFF080","correct":32,"choice":32,"rt":321.0899999830872,"accuracy":1,"outcome":"+10","keys":[1821.8099999940023],"total_keys":1,"block":0,"trial_type":"pit-trial","trial_index":4,"time_elapsed":75217,"internal_node_id":"0.0-0.0-1.0-0.3","task_version":"battery-v0.1"},{"view_history":"[{\"page_index\":0,\"viewing_time\":10878.769999952056}]","rt":10879.279999993742,"trial_type":"pit-instructions","trial_index":5,"time_elapsed":86110,"internal_node_id":"0.0-0.0-2.0","task_version":"battery-v0.1"},{"rune":"","hex":"#FFFFF080","correct":-1,"choice":-1,"rt":-1,"accuracy":1,"outcome":"+10","keys":[],"total_keys":0,"block":0,"trial_type":"pit-trial","trial_index":6,"time_elapsed":90121,"internal_node_id":"0.0-0.0-3.0-0.0","task_version":"battery-v0.1"},{"rune":"","hex":"#FFFFF080","correct":-1,"choice":-1,"rt":-1,"accuracy":1,"outcome":"+10","keys":[],"total_keys":0,"block":0,"trial_type":"pit-trial","trial_index":7,"time_elapsed":94136,"internal_node_id":"0.0-0.0-3.0-0.1","task_version":"battery-v0.1"},{"rune":"","hex":"#FFFFF080","correct":-1,"choice":-1,"rt":-1,"accuracy":1,"outcome":"+10","keys":[],"total_keys":0,"block":0,"trial_type":"pit-trial","trial_index":8,"time_elapsed":98158,"internal_node_id":"0.0-0.0-3.0-0.2","task_version":"battery-v0.1"},{"rune":"","hex":"#FFFFF080","correct":-1,"choice":-1,"rt":-1,"accuracy":1,"outcome":"+10","keys":[],"total_keys":0,"block":0,"trial_type":"pit-trial","trial_index":9,"time_elapsed":102173,"internal_node_id":"0.0-0.0-3.0-0.3","task_version":"battery-v0.1"},{"responses":["Press SPACE","Do nothing"],"num_errors":0,"rt":8137.5000000116415,"trial_type":"pit-comprehension","trial_index":10,"time_elapsed":110331,"internal_node_id":"0.0-0.0-4.0","task_version":"battery-v0.1"},{"view_history":"[{\"page_index\":0,\"viewing_time\":8104.519999993499},{\"page_index\":1,\"viewing_time\":31451.37500000419},{\"page_index\":2,\"viewing_time\":12335.149999998976},{\"page_index\":3,\"viewing_time\":9429.92999998387},{\"page_index\":4,\"viewing_time\":9296.589999983553},{\"page_index\":5,\"viewing_time\":22862.545000039972},{\"page_index\":6,\"viewing_time\":49573.41999997152},{\"page_index\":7,\"viewing_time\":19151.87500003958},{\"page_index\":8,\"viewing_time\":6324.919999984559},{\"page_index\":9,\"viewing_time\":8096.339999989141},{\"page_index\":10,\"viewing_time\":21497.815000009723}]","rt":198125.08500000695,"trial_type":"pit-instructions","trial_index":11,"time_elapsed":308486,"internal_node_id":"0.0-1.0-0.0","task_version":"battery-v0.1"},{"responses":["+10","-1","True","True"],"num_errors":0,"rt":29848.615000024438,"trial_type":"pit-comprehension","trial_index":12,"time_elapsed":338351,"internal_node_id":"0.0-1.0-1.0","task_version":"battery-v0.1"},{"view_history":"[{\"page_index\":0,\"viewing_time\":2866.5200000396},{\"page_index\":1,\"viewing_time\":47454.08499997575}]","rt":50323.10500001768,"trial_type":"pit-instructions","trial_index":13,"time_elapsed":388699,"internal_node_id":"0.0-2.0","task_version":"battery-v0.1"},{"rune":"B","hex":"#f73b6a7A","correct":-1,"choice":32,"rt":603.2000000122935,"accuracy":0,"outcome":"-10","keys":[2103.3550000283867],"total_keys":1,"block":1,"trial":1,"robot":4,"valence":"lose","action":"no-go","sham":0,"trial_type":"pit-trial","trial_index":14,"time_elapsed":392040,"internal_node_id":"0.0-3.0","task_version":"battery-v0.1"},{"rune":"P","hex":"#f73b6a7A","correct":-1,"choice":32,"rt":114.5750000141561,"accuracy":0,"outcome":"-10","keys":[1614.9849999928847],"total_keys":1,"block":1,"trial":2,"robot":4,"valence":"lose","action":"no-go","sham":0,"trial_type":"pit-trial","trial_index":15,"time_elapsed":394881,"internal_node_id":"0.0-4.0","task_version":"battery-v0.1"},{"rune":"Z","hex":"#3366ff99","correct":-1,"choice":-1,"rt":-1,"accuracy":1,"outcome":"+10","keys":[1429.184999957215],"total_keys":1,"block":1,"trial":3,"robot":2,"valence":"win","action":"no-go","sham":0,"trial_type":"pit-trial","trial_index":16,"time_elapsed":398901,"internal_node_id":"0.0-5.0","task_version":"battery-v0.1"},{"rune":"U","hex":"#3366ff99","correct":32,"choice":32,"rt":156.03999997256324,"accuracy":1,"outcome":"+10","keys":[1657.0200000423938],"total_keys":1,"block":1,"trial":4,"robot":1,"valence":"win","action":"go","sham":0,"trial_type":"pit-trial","trial_index":17,"time_elapsed":401775,"internal_node_id":"0.0-6.0","task_version":"battery-v0.1"},{"rune":"U","hex":"#3366ff99","correct":32,"choice":-1,"rt":-1,"accuracy":0,"outcome":"+1","keys":[1268.1849999935366],"total_keys":1,"block":1,"trial":5,"robot":1,"valence":"win","action":"go","sham":0,"trial_type":"pit-trial","trial_index":18,"time_elapsed":405786,"internal_node_id":"0.0-7.0","task_version":"battery-v0.1"},{"rune":"P","hex":"#f73b6a7A","correct":-1,"choice":32,"rt":674.7199999517761,"accuracy":0,"outcome":"-1","keys":[2175.325000018347],"total_keys":1,"block":1,"trial":6,"robot":4,"valence":"lose","action":"no-go","sham":1,"trial_type":"pit-trial","trial_index":19,"time_elapsed":409183,"internal_node_id":"0.0-8.0","task_version":"battery-v0.1"},{"rune":"Z","hex":"#3366ff99","correct":-1,"choice":-1,"rt":-1,"accuracy":1,"outcome":"+1","keys":[],"total_keys":0,"block":1,"trial":7,"robot":2,"valence":"win","action":"no-go","sham":1,"trial_type":"pit-trial","trial_index":20,"time_elapsed":413200,"internal_node_id":"0.0-9.0","task_version":"battery-v0.1"},{"rune":"B","hex":"#f73b6a7A","correct":-1,"choice":32,"rt":144.41000000806525,"accuracy":0,"outcome":"-10","keys":[1645.020000054501,2431.055000051856],"total_keys":2,"block":1,"trial":8,"robot":4,"valence":"lose","action":"no-go","sham":0,"trial_type":"pit-trial","trial_index":21,"time_elapsed":416059,"internal_node_id":"0.0-10.0","task_version":"battery-v0.1"},{"rune":"U","hex":"#3366ff99","correct":32,"choice":-1,"rt":-1,"accuracy":0,"outcome":"+1","keys":[1242.8849999560043],"total_keys":1,"block":1,"trial":9,"robot":1,"valence":"win","action":"go","sham":0,"trial_type":"pit-trial","trial_index":22,"time_elapsed":420082,"internal_node_id":"0.0-11.0","task_version":"battery-v0.1"},{"rune":"B","hex":"#f73b6a7A","correct":-1,"choice":32,"rt":150.55999998003244,"accuracy":0,"outcome":"-1","keys":[1007.0900000282563,1651.4000000315718],"total_keys":2,"block":1,"trial":10,"robot":4,"valence":"lose","action":"no-go","sham":1,"trial_type":"pit-trial","trial_index":23,"time_elapsed":422943,"internal_node_id":"0.0-12.0","task_version":"battery-v0.1"},{"rune":"Z","hex":"#3366ff99","correct":-1,"choice":-1,"rt":-1,"accuracy":1,"outcome":"+10","keys":[1252.8449999517761],"total_keys":1,"block":1,"trial":11,"robot":2,"valence":"win","action":"no-go","sham":0,"trial_type":"pit-trial","trial_index":24,"time_elapsed":426964,"internal_node_id":"0.0-13.0","task_version":"battery-v0.1"},{"rune":"P","hex":"#f73b6a7A","correct":-1,"choice":32,"rt":950.974999985192,"accuracy":0,"outcome":"-10","keys":[1217.9749999777414,2451.4450000133365],"total_keys":2,"block":1,"trial":12,"robot":4,"valence":"lose","action":"no-go","sham":0,"trial_type":"pit-trial","trial_index":25,"time_elapsed":430623,"internal_node_id":"0.0-14.0","task_version":"battery-v0.1"},{"rune":"U","hex":"#3366ff99","correct":32,"choice":32,"rt":106.64999997243285,"accuracy":1,"outcome":"+1","keys":[1607.2250000433996],"total_keys":1,"block":1,"trial":13,"robot":1,"valence":"win","action":"go","sham":1,"trial_type":"pit-trial","trial_index":26,"time_elapsed":433449,"internal_node_id":"0.0-15.0","task_version":"battery-v0.1"},{"rune":"B","hex":"#f73b6a7A","correct":-1,"choice":32,"rt":648.8850000314415,"accuracy":0,"outcome":"-1","keys":[1457.6349999988452,2149.265000014566,3182.455000001937],"total_keys":3,"block":1,"trial":14,"robot":4,"valence":"lose","action":"no-go","sham":1,"trial_type":"pit-trial","trial_index":27,"time_elapsed":436815,"internal_node_id":"0.0-16.0","task_version":"battery-v0.1"},{"rune":"P","hex":"#f73b6a7A","correct":-1,"choice":32,"rt":159.3350000330247,"accuracy":0,"outcome":"-10","keys":[1166.9750000000931,1659.5600000000559],"total_keys":2,"block":1,"trial":15,"robot":4,"valence":"lose","action":"no-go","sham":0,"trial_type":"pit-trial","trial_index":28,"time_elapsed":439692,"internal_node_id":"0.0-17.0","task_version":"battery-v0.1"},{"rune":"Z","hex":"#3366ff99","correct":-1,"choice":32,"rt":247.960000007879,"accuracy":0,"outcome":"+1","keys":[1400.3049999591894,1748.7549999495968],"total_keys":2,"block":1,"trial":16,"robot":2,"valence":"win","action":"no-go","sham":0,"trial_type":"pit-trial","trial_index":29,"time_elapsed":442666,"internal_node_id":"0.0-18.0","task_version":"battery-v0.1"},{"rune":"U","hex":"#3366ff99","correct":32,"choice":-1,"rt":-1,"accuracy":0,"outcome":"+1","keys":[1456.73999999417],"total_keys":1,"block":1,"trial":17,"robot":1,"valence":"win","action":"go","sham":0,"trial_type":"pit-trial","trial_index":30,"time_elapsed":446682,"internal_node_id":"0.0-19.0","task_version":"battery-v0.1"},{"rune":"P","hex":"#f73b6a7A","correct":-1,"choice":32,"rt":206.07000001473352,"accuracy":0,"outcome":"-1","keys":[1706.7249999963678],"total_keys":1,"block":1,"trial":18,"robot":4,"valence":"lose","action":"no-go","sham":1,"trial_type":"pit-trial","trial_index":31,"time_elapsed":449611,"internal_node_id":"0.0-20.0","task_version":"battery-v0.1"},{"rune":"B","hex":"#f73b6a7A","correct":-1,"choice":32,"rt":7.909999985713512,"accuracy":0,"outcome":"-10","keys":[1508.12999997288,2170.8399999770336],"total_keys":2,"block":1,"trial":19,"robot":4,"valence":"lose","action":"no-go","sham":0,"trial_type":"pit-trial","trial_index":32,"time_elapsed":452341,"internal_node_id":"0.0-21.0","task_version":"battery-v0.1"},{"rune":"Z","hex":"#3366ff99","correct":-1,"choice":32,"rt":191.94499996956438,"accuracy":0,"outcome":"+1","keys":[937.2349999612197,1277.025000017602,1692.6749999984168],"total_keys":3,"block":1,"trial":20,"robot":2,"valence":"win","action":"no-go","sham":0,"trial_type":"pit-trial","trial_index":33,"time_elapsed":455251,"internal_node_id":"0.0-22.0","task_version":"battery-v0.1"},{"rune":"Z","hex":"#3366ff99","correct":-1,"choice":-1,"rt":-1,"accuracy":1,"outcome":"+1","keys":[1337.9800000111572],"total_keys":1,"block":1,"trial":21,"robot":2,"valence":"win","action":"no-go","sham":1,"trial_type":"pit-trial","trial_index":34,"time_elapsed":459265,"internal_node_id":"0.0-23.0","task_version":"battery-v0.1"},{"rune":"U","hex":"#3366ff99","correct":32,"choice":32,"rt":8.489999978337437,"accuracy":1,"outcome":"+10","keys":[1509.0699999709614],"total_keys":1,"block":1,"trial":22,"robot":1,"valence":"win","action":"go","sham":0,"trial_type":"pit-trial","trial_index":35,"time_elapsed":461997,"internal_node_id":"0.0-24.0","task_version":"battery-v0.1"},{"rune":"B","hex":"#f73b6a7A","correct":-1,"choice":32,"rt":736.2100000027567,"accuracy":0,"outcome":"-10","keys":[1494.0300000016578,2236.3400000031106],"total_keys":2,"block":1,"trial":23,"robot":4,"valence":"lose","action":"no-go","sham":0,"trial_type":"pit-trial","trial_index":36,"time_elapsed":465455,"internal_node_id":"0.0-25.0","task_version":"battery-v0.1"},{"rune":"P","hex":"#f73b6a7A","correct":-1,"choice":32,"rt":702.1700000041164,"accuracy":0,"outcome":"-10","keys":[1487.734999973327,2202.6249999762513],"total_keys":2,"block":1,"trial":24,"robot":4,"valence":"lose","action":"no-go","sham":0,"trial_type":"pit-trial","trial_index":37,"time_elapsed":468871,"internal_node_id":"0.0-26.0","task_version":"battery-v0.1"},{"rune":"B","hex":"#f73b6a7A","correct":-1,"choice":32,"rt":37.48000005725771,"accuracy":0,"outcome":"-10","keys":[1149.9199999962002,1538.0349999759346,1895.7850000006147],"total_keys":3,"block":1,"trial":25,"robot":4,"valence":"lose","action":"no-go","sham":0,"trial_type":"pit-trial","trial_index":38,"time_elapsed":471621,"internal_node_id":"0.0-27.0","task_version":"battery-v0.1"},{"rune":"U","hex":"#3366ff99","correct":32,"choice":32,"rt":246.45500001497567,"accuracy":1,"outcome":"+10","keys":[151.0599999455735,969.4199999794364,1327.6699999696575,1746.6599999461323],"total_keys":4,"block":1,"trial":26,"robot":1,"valence":"win","action":"go","sham":0,"trial_type":"pit-trial","trial_index":39,"time_elapsed":474576,"internal_node_id":"0.0-28.0","task_version":"battery-v0.1"},{"rune":"P","hex":"#f73b6a7A","correct":-1,"choice":-1,"rt":-1,"accuracy":1,"outcome":"-1","keys":[487.84000001614913],"total_keys":1,"block":1,"trial":27,"robot":4,"valence":"lose","action":"no-go","sham":0,"trial_type":"pit-trial","trial_index":40,"time_elapsed":478586,"internal_node_id":"0.0-29.0","task_version":"battery-v0.1"},{"rune":"Z","hex":"#3366ff99","correct":-1,"choice":-1,"rt":-1,"accuracy":1,"outcome":"+10","keys":[],"total_keys":0,"block":1,"trial":28,"robot":2,"valence":"win","action":"no-go","sham":0,"trial_type":"pit-trial","trial_index":41,"time_elapsed":482595,"internal_node_id":"0.0-30.0","task_version":"battery-v0.1"},{"rune":"Z","hex":"#3366ff99","correct":-1,"choice":32,"rt":812.7400000230409,"accuracy":0,"outcome":"+1","keys":[2313.090000010561],"total_keys":1,"block":1,"trial":29,"robot":2,"valence":"win","action":"no-go","sham":0,"trial_type":"pit-trial","trial_index":42,"time_elapsed":486121,"internal_node_id":"0.0-31.0","task_version":"battery-v0.1"},{"rune":"U","hex":"#3366ff99","correct":32,"choice":-1,"rt":-1,"accuracy":0,"outcome":"+1","keys":[1128.7349999765866,1436.3950000260957],"total_keys":2,"block":1,"trial":30,"robot":1,"valence":"win","action":"go","sham":0,"trial_type":"pit-trial","trial_index":43,"time_elapsed":490139,"internal_node_id":"0.0-32.0","task_version":"battery-v0.1"},{"rune":"P","hex":"#f73b6a7A","correct":-1,"choice":32,"rt":118.00499999662861,"accuracy":0,"outcome":"-10","keys":[58.17500001285225,1135.2300000144169,1417.6699999952689,1618.3750000200234,2244.8549999971874],"total_keys":5,"block":1,"trial":31,"robot":4,"valence":"lose","action":"no-go","sham":0,"trial_type":"pit-trial","trial_index":44,"time_elapsed":492966,"internal_node_id":"0.0-33.0","task_version":"battery-v0.1"},{"rune":"B","hex":"#f73b6a7A","correct":-1,"choice":-1,"rt":-1,"accuracy":1,"outcome":"-1","keys":[1409.990000014659,3129.0099999750964],"total_keys":2,"block":1,"trial":32,"robot":4,"valence":"lose","action":"no-go","sham":0,"trial_type":"pit-trial","trial_index":45,"time_elapsed":496981,"internal_node_id":"0.0-34.0","task_version":"battery-v0.1"},{"rune":"Z","hex":"#3366ff99","correct":-1,"choice":32,"rt":80.11499996064231,"accuracy":0,"outcome":"+10","keys":[1004.6449999790639,1329.3650000123307,1581.8950000102632],"total_keys":3,"block":1,"trial":33,"robot":2,"valence":"win","action":"no-go","sham":1,"trial_type":"pit-trial","trial_index":46,"time_elapsed":499787,"internal_node_id":"0.0-35.0","task_version":"battery-v0.1"},{"rune":"U","hex":"#3366ff99","correct":32,"choice":32,"rt":65.51499996567145,"accuracy":1,"outcome":"+10","keys":[1124.5450000278652,1362.7650000271387,1566.3899999926798],"total_keys":3,"block":1,"trial":34,"robot":1,"valence":"win","action":"go","sham":0,"trial_type":"pit-trial","trial_index":47,"time_elapsed":502561,"internal_node_id":"0.0-36.0","task_version":"battery-v0.1"},{"rune":"C","hex":"#f73b6a7A","correct":32,"choice":32,"rt":82.77999999700114,"accuracy":1,"outcome":"-1","keys":[1085.030000016559,1363.3499999996275,1583.039999997709],"total_keys":3,"block":1,"trial":35,"robot":3,"valence":"lose","action":"go","sham":0,"trial_type":"pit-trial","trial_index":48,"time_elapsed":505352,"internal_node_id":"0.0-37.0","task_version":"battery-v0.1"},{"rune":"B","hex":"#f73b6a7A","correct":-1,"choice":32,"rt":200.67499997094274,"accuracy":0,"outcome":"-10","keys":[128.52999998722225,1416.2099999957718,1701.0550000122748,1907.6249999925494,2113.8299999875017,2620.5250000348315],"total_keys":6,"block":1,"trial":36,"robot":4,"valence":"lose","action":"no-go","sham":0,"trial_type":"pit-trial","trial_index":49,"time_elapsed":508261,"internal_node_id":"0.0-38.0","task_version":"battery-v0.1"},{"rune":"U","hex":"#3366ff99","correct":32,"choice":32,"rt":1.2700000079348683,"accuracy":1,"outcome":"+10","keys":[1265.354999981355,1502.2299999836832,1692.4050000379793],"total_keys":3,"block":1,"trial":37,"robot":1,"valence":"win","action":"go","sham":0,"trial_type":"pit-trial","trial_index":50,"time_elapsed":510978,"internal_node_id":"0.0-39.0","task_version":"battery-v0.1"},{"rune":"C","hex":"#f73b6a7A","correct":32,"choice":32,"rt":135.48500003525987,"accuracy":1,"outcome":"-1","keys":[1422.8049999801442,1636.0649999696761],"total_keys":2,"block":1,"trial":38,"robot":3,"valence":"lose","action":"go","sham":0,"trial_type":"pit-trial","trial_index":51,"time_elapsed":513826,"internal_node_id":"0.0-40.0","task_version":"battery-v0.1"},{"rune":"B","hex":"#f73b6a7A","correct":-1,"choice":32,"rt":142.49500003643334,"accuracy":0,"outcome":"-1","keys":[1130.7750000269152,1414.6099999779835,1643.1999999913387,2798.145000007935],"total_keys":4,"block":1,"trial":39,"robot":4,"valence":"lose","action":"no-go","sham":1,"trial_type":"pit-trial","trial_index":52,"time_elapsed":516695,"internal_node_id":"0.0-41.0","task_version":"battery-v0.1"},{"rune":"Z","hex":"#3366ff99","correct":-1,"choice":32,"rt":13.819999992847443,"accuracy":0,"outcome":"+10","keys":[1245.360000000801,1514.389999967534,1737.0050000026822],"total_keys":3,"block":1,"trial":40,"robot":2,"valence":"win","action":"no-go","sham":1,"trial_type":"pit-trial","trial_index":53,"time_elapsed":519436,"internal_node_id":"0.0-42.0","task_version":"battery-v0.1"},{"rune":"C","hex":"#f73b6a7A","correct":32,"choice":32,"rt":505.7750000269152,"accuracy":1,"outcome":"-1","keys":[996.820000000298,1261.095000023488,1498.3299999730662,2006.0250000096858,2649.410000012722],"total_keys":5,"block":1,"trial":41,"robot":3,"valence":"lose","action":"go","sham":0,"trial_type":"pit-trial","trial_index":54,"time_elapsed":522653,"internal_node_id":"0.0-43.0","task_version":"battery-v0.1"},{"rune":"B","hex":"#f73b6a7A","correct":-1,"choice":32,"rt":333.33000005222857,"accuracy":0,"outcome":"-10","keys":[1319.8400000110269,1833.8050000020303],"total_keys":2,"block":1,"trial":42,"robot":4,"valence":"lose","action":"no-go","sham":0,"trial_type":"pit-trial","trial_index":55,"time_elapsed":525704,"internal_node_id":"0.0-44.0","task_version":"battery-v0.1"},{"rune":"E","hex":"#3366ff99","correct":-1,"choice":-1,"rt":-1,"accuracy":1,"outcome":"+10","keys":[],"total_keys":0,"block":1,"trial":43,"robot":2,"valence":"win","action":"no-go","sham":0,"trial_type":"pit-trial","trial_index":56,"time_elapsed":529716,"internal_node_id":"0.0-45.0","task_version":"battery-v0.1"},{"rune":"M","hex":"#3366ff99","correct":32,"choice":32,"rt":192.02499999664724,"accuracy":1,"outcome":"+10","keys":[1408.365000039339,1692.3400000086986],"total_keys":2,"block":1,"trial":44,"robot":1,"valence":"win","action":"go","sham":0,"trial_type":"pit-trial","trial_index":57,"time_elapsed":532617,"internal_node_id":"0.0-46.0","task_version":"battery-v0.1"},{"rune":"C","hex":"#f73b6a7A","correct":32,"choice":32,"rt":170.97999999532476,"accuracy":1,"outcome":"-1","keys":[1435.4850000236183,1671.4149999897927,2002.6850000140257,2240.7249999814667],"total_keys":4,"block":1,"trial":45,"robot":3,"valence":"lose","action":"go","sham":0,"trial_type":"pit-trial","trial_index":58,"time_elapsed":535512,"internal_node_id":"0.0-47.0","task_version":"battery-v0.1"},{"rune":"E","hex":"#3366ff99","correct":-1,"choice":-1,"rt":-1,"accuracy":1,"outcome":"+10","keys":[1159.1099999495782,1388.2299999822862],"total_keys":2,"block":1,"trial":46,"robot":2,"valence":"win","action":"no-go","sham":0,"trial_type":"pit-trial","trial_index":59,"time_elapsed":539520,"internal_node_id":"0.0-48.0","task_version":"battery-v0.1"},{"rune":"B","hex":"#f73b6a7A","correct":-1,"choice":-1,"rt":-1,"accuracy":1,"outcome":"-1","keys":[],"total_keys":0,"block":1,"trial":47,"robot":4,"valence":"lose","action":"no-go","sham":0,"trial_type":"pit-trial","trial_index":60,"time_elapsed":543528,"internal_node_id":"0.0-49.0","task_version":"battery-v0.1"},{"rune":"M","hex":"#3366ff99","correct":32,"choice":32,"rt":85.78999998280779,"accuracy":1,"outcome":"+10","keys":[1136.9149999809451,1399.604999984149,1586.3599999574944,1785.7249999651685],"total_keys":4,"block":1,"trial":48,"robot":1,"valence":"win","action":"go","sham":0,"trial_type":"pit-trial","trial_index":61,"time_elapsed":546325,"internal_node_id":"0.0-50.0","task_version":"battery-v0.1"},{"rune":"V","hex":"#f73b6a7A","correct":-1,"choice":32,"rt":156.65000001899898,"accuracy":0,"outcome":"-10","keys":[1267.7299999631941,1656.589999969583,1909.189999976661],"total_keys":3,"block":1,"trial":49,"robot":4,"valence":"lose","action":"no-go","sham":0,"trial_type":"pit-trial","trial_index":62,"time_elapsed":549209,"internal_node_id":"0.0-51.0","task_version":"battery-v0.1"},{"rune":"C","hex":"#f73b6a7A","correct":32,"choice":32,"rt":226.2899999623187,"accuracy":1,"outcome":"-1","keys":[1473.7849999801256,1726.7400000127964,1939.4599999650382],"total_keys":3,"block":1,"trial":50,"robot":3,"valence":"lose","action":"go","sham":0,"trial_type":"pit-trial","trial_index":63,"time_elapsed":552149,"internal_node_id":"0.0-52.0","task_version":"battery-v0.1"},{"rune":"E","hex":"#3366ff99","correct":-1,"choice":32,"rt":149.6550000156276,"accuracy":0,"outcome":"+1","keys":[1026.0899999993853,1278.8050000090152,1468.029999989085,1650.164999999106],"total_keys":4,"block":1,"trial":51,"robot":2,"valence":"win","action":"no-go","sham":0,"trial_type":"pit-trial","trial_index":64,"time_elapsed":555022,"internal_node_id":"0.0-53.0","task_version":"battery-v0.1"},{"rune":"M","hex":"#3366ff99","correct":32,"choice":32,"rt":17.85499998368323,"accuracy":1,"outcome":"+10","keys":[1518.419999978505,1739.2049999907613],"total_keys":2,"block":1,"trial":52,"robot":1,"valence":"win","action":"go","sham":0,"trial_type":"pit-trial","trial_index":65,"time_elapsed":557753,"internal_node_id":"0.0-54.0","task_version":"battery-v0.1"},{"rune":"V","hex":"#f73b6a7A","correct":-1,"choice":32,"rt":333.09500000905246,"accuracy":0,"outcome":"-10","keys":[1833.2799999625422],"total_keys":1,"block":1,"trial":53,"robot":4,"valence":"lose","action":"no-go","sham":0,"trial_type":"pit-trial","trial_index":66,"time_elapsed":560799,"internal_node_id":"0.0-55.0","task_version":"battery-v0.1"},{"rune":"C","hex":"#f73b6a7A","correct":32,"choice":32,"rt":256.8500000052154,"accuracy":1,"outcome":"-1","keys":[1757.0900000282563,1983.8350000209175,2733.5250000469387],"total_keys":3,"block":1,"trial":54,"robot":3,"valence":"lose","action":"go","sham":0,"trial_type":"pit-trial","trial_index":67,"time_elapsed":563776,"internal_node_id":"0.0-56.0","task_version":"battery-v0.1"},{"rune":"M","hex":"#3366ff99","correct":32,"choice":32,"rt":106.5449999878183,"accuracy":1,"outcome":"+10","keys":[12.3299999977462,1149.0099999937229,1409.7099999780767,1606.8499999819323],"total_keys":4,"block":1,"trial":55,"robot":1,"valence":"win","action":"go","sham":0,"trial_type":"pit-trial","trial_index":68,"time_elapsed":566590,"internal_node_id":"0.0-57.0","task_version":"battery-v0.1"},{"rune":"E","hex":"#3366ff99","correct":-1,"choice":32,"rt":67.88499996764585,"accuracy":0,"outcome":"+10","keys":[1292.394999996759,1568.909999972675],"total_keys":2,"block":1,"trial":56,"robot":2,"valence":"win","action":"no-go","sham":1,"trial_type":"pit-trial","trial_index":69,"time_elapsed":569368,"internal_node_id":"0.0-58.0","task_version":"battery-v0.1"},{"rune":"C","hex":"#f73b6a7A","correct":32,"choice":32,"rt":120.70500000845641,"accuracy":1,"outcome":"-10","keys":[1115.4500000411645,1360.9250000445172,1621.6050000512041,2019.3950000102632,2398.9450000226498],"total_keys":5,"block":1,"trial":57,"robot":3,"valence":"lose","action":"go","sham":1,"trial_type":"pit-trial","trial_index":70,"time_elapsed":572200,"internal_node_id":"0.0-59.0","task_version":"battery-v0.1"},{"rune":"M","hex":"#3366ff99","correct":32,"choice":32,"rt":61.34999997448176,"accuracy":1,"outcome":"+10","keys":[330.2999999723397,606.2149999779649,874.744999979157,1136.6649999981746,1357.0000000181608,1562.1299999766052,1783.6499999975786,2480.6550000212155],"total_keys":8,"block":1,"trial":58,"robot":1,"valence":"win","action":"go","sham":0,"trial_type":"pit-trial","trial_index":71,"time_elapsed":574972,"internal_node_id":"0.0-60.0","task_version":"battery-v0.1"},{"rune":"E","hex":"#3366ff99","correct":-1,"choice":32,"rt":143.29999999608845,"accuracy":0,"outcome":"+1","keys":[342.18500001588836,611.075000022538,1158.6100000422448,1643.5950000304729,1927.5800000177696,2236.36500001885,2632.2350000264123],"total_keys":7,"block":1,"trial":59,"robot":2,"valence":"win","action":"no-go","sham":0,"trial_type":"pit-trial","trial_index":72,"time_elapsed":577835,"internal_node_id":"0.0-61.0","task_version":"battery-v0.1"},{"rune":"V","hex":"#f73b6a7A","correct":-1,"choice":-1,"rt":-1,"accuracy":1,"outcome":"-10","keys":[854.894999996759],"total_keys":1,"block":1,"trial":60,"robot":4,"valence":"lose","action":"no-go","sham":1,"trial_type":"pit-trial","trial_index":73,"time_elapsed":581844,"internal_node_id":"0.0-62.0","task_version":"battery-v0.1"},{"rune":"E","hex":"#3366ff99","correct":-1,"choice":-1,"rt":-1,"accuracy":1,"outcome":"+10","keys":[],"total_keys":0,"block":1,"trial":61,"robot":2,"valence":"win","action":"no-go","sham":0,"trial_type":"pit-trial","trial_index":74,"time_elapsed":585853,"internal_node_id":"0.0-63.0","task_version":"battery-v0.1"},{"rune":"C","hex":"#f73b6a7A","correct":32,"choice":-1,"rt":-1,"accuracy":0,"outcome":"-10","keys":[],"total_keys":0,"block":1,"trial":62,"robot":3,"valence":"lose","action":"go","sham":0,"trial_type":"pit-trial","trial_index":75,"time_elapsed":589863,"internal_node_id":"0.0-64.0","task_version":"battery-v0.1"},{"rune":"V","hex":"#f73b6a7A","correct":-1,"choice":-1,"rt":-1,"accuracy":1,"outcome":"-10","keys":[],"total_keys":0,"block":1,"trial":63,"robot":4,"valence":"lose","action":"no-go","sham":1,"trial_type":"pit-trial","trial_index":76,"time_elapsed":593878,"internal_node_id":"0.0-65.0","task_version":"battery-v0.1"},{"rune":"M","hex":"#3366ff99","correct":32,"choice":-1,"rt":-1,"accuracy":0,"outcome":"+1","keys":[],"total_keys":0,"block":1,"trial":64,"robot":1,"valence":"win","action":"go","sham":0,"trial_type":"pit-trial","trial_index":77,"time_elapsed":597898,"internal_node_id":"0.0-66.0","task_version":"battery-v0.1"},{"rune":"M","hex":"#3366ff99","correct":32,"choice":-1,"rt":-1,"accuracy":0,"outcome":"+1","keys":[],"total_keys":0,"block":1,"trial":65,"robot":1,"valence":"win","action":"go","sham":0,"trial_type":"pit-trial","trial_index":78,"time_elapsed":601907,"internal_node_id":"0.0-67.0","task_version":"battery-v0.1"},{"rune":"C","hex":"#f73b6a7A","correct":32,"choice":-1,"rt":-1,"accuracy":0,"outcome":"-10","keys":[],"total_keys":0,"block":1,"trial":66,"robot":3,"valence":"lose","action":"go","sham":0,"trial_type":"pit-trial","trial_index":79,"time_elapsed":605919,"internal_node_id":"0.0-68.0","task_version":"battery-v0.1"},{"rune":"V","hex":"#f73b6a7A","correct":-1,"choice":-1,"rt":-1,"accuracy":1,"outcome":"-1","keys":[],"total_keys":0,"block":1,"trial":67,"robot":4,"valence":"lose","action":"no-go","sham":0,"trial_type":"pit-trial","trial_index":80,"time_elapsed":609932,"internal_node_id":"0.0-69.0","task_version":"battery-v0.1"},{"rune":"E","hex":"#3366ff99","correct":-1,"choice":-1,"rt":-1,"accuracy":1,"outcome":"+1","keys":[],"total_keys":0,"block":1,"trial":68,"robot":2,"valence":"win","action":"no-go","sham":1,"trial_type":"pit-trial","trial_index":81,"time_elapsed":613940,"internal_node_id":"0.0-70.0","task_version":"battery-v0.1"},{"rune":"C","hex":"#f73b6a7A","correct":32,"choice":-1,"rt":-1,"accuracy":0,"outcome":"-10","keys":[],"total_keys":0,"block":1,"trial":69,"robot":3,"valence":"lose","action":"go","sham":0,"trial_type":"pit-trial","trial_index":82,"time_elapsed":617961,"internal_node_id":"0.0-71.0","task_version":"battery-v0.1"},{"rune":"V","hex":"#f73b6a7A","correct":-1,"choice":-1,"rt":-1,"accuracy":1,"outcome":"-1","keys":[],"total_keys":0,"block":1,"trial":70,"robot":4,"valence":"lose","action":"no-go","sham":0,"trial_type":"pit-trial","trial_index":83,"time_elapsed":621971,"internal_node_id":"0.0-72.0","task_version":"battery-v0.1"},{"rune":"M","hex":"#3366ff99","correct":32,"choice":-1,"rt":-1,"accuracy":0,"outcome":"+1","keys":[],"total_keys":0,"block":1,"trial":71,"robot":1,"valence":"win","action":"go","sham":0,"trial_type":"pit-trial","trial_index":84,"time_elapsed":625993,"internal_node_id":"0.0-73.0","task_version":"battery-v0.1"},{"rune":"E","hex":"#3366ff99","correct":-1,"choice":-1,"rt":-1,"accuracy":1,"outcome":"+10","keys":[],"total_keys":0,"block":1,"trial":72,"robot":2,"valence":"win","action":"no-go","sham":0,"trial_type":"pit-trial","trial_index":85,"time_elapsed":630010,"internal_node_id":"0.0-74.0","task_version":"battery-v0.1"},{"rune":"E","hex":"#3366ff99","correct":-1,"choice":-1,"rt":-1,"accuracy":1,"outcome":"+10","keys":[],"total_keys":0,"block":1,"trial":73,"robot":2,"valence":"win","action":"no-go","sham":0,"trial_type":"pit-trial","trial_index":86,"time_elapsed":634026,"internal_node_id":"0.0-75.0","task_version":"battery-v0.1"},{"rune":"V","hex":"#f73b6a7A","correct":-1,"choice":-1,"rt":-1,"accuracy":1,"outcome":"-10","keys":[],"total_keys":0,"block":1,"trial":74,"robot":4,"valence":"lose","action":"no-go","sham":1,"trial_type":"pit-trial","trial_index":87,"time_elapsed":638042,"internal_node_id":"0.0-76.0","task_version":"battery-v0.1"},{"rune":"Y","hex":"#f73b6a7A","correct":32,"choice":-1,"rt":-1,"accuracy":0,"outcome":"-10","keys":[],"total_keys":0,"block":1,"trial":75,"robot":3,"valence":"lose","action":"go","sham":0,"trial_type":"pit-trial","trial_index":88,"time_elapsed":642069,"internal_node_id":"0.0-77.0","task_version":"battery-v0.1"},{"rune":"R","hex":"#3366ff99","correct":32,"choice":-1,"rt":-1,"accuracy":0,"outcome":"+1","keys":[],"total_keys":0,"block":1,"trial":76,"robot":1,"valence":"win","action":"go","sham":0,"trial_type":"pit-trial","trial_index":89,"time_elapsed":646099,"internal_node_id":"0.0-78.0","task_version":"battery-v0.1"},{"rune":"V","hex":"#f73b6a7A","correct":-1,"choice":-1,"rt":-1,"accuracy":1,"outcome":"-10","keys":[],"total_keys":0,"block":1,"trial":77,"robot":4,"valence":"lose","action":"no-go","sham":1,"trial_type":"pit-trial","trial_index":90,"time_elapsed":650110,"internal_node_id":"0.0-79.0","task_version":"battery-v0.1"},{"rune":"Y","hex":"#f73b6a7A","correct":32,"choice":-1,"rt":-1,"accuracy":0,"outcome":"-10","keys":[],"total_keys":0,"block":1,"trial":78,"robot":3,"valence":"lose","action":"go","sham":0,"trial_type":"pit-trial","trial_index":91,"time_elapsed":654133,"internal_node_id":"0.0-80.0","task_version":"battery-v0.1"},{"rune":"E","hex":"#3366ff99","correct":-1,"choice":-1,"rt":-1,"accuracy":1,"outcome":"+10","keys":[],"total_keys":0,"block":1,"trial":79,"robot":2,"valence":"win","action":"no-go","sham":0,"trial_type":"pit-trial","trial_index":92,"time_elapsed":658154,"internal_node_id":"0.0-81.0","task_version":"battery-v0.1"},{"rune":"R","hex":"#3366ff99","correct":32,"choice":-1,"rt":-1,"accuracy":0,"outcome":"+1","keys":[],"total_keys":0,"block":1,"trial":80,"robot":1,"valence":"win","action":"go","sham":0,"trial_type":"pit-trial","trial_index":93,"time_elapsed":662168,"internal_node_id":"0.0-82.0","task_version":"battery-v0.1"},{"rune":"E","hex":"#3366ff99","correct":-1,"choice":-1,"rt":-1,"accuracy":1,"outcome":"+10","keys":[],"total_keys":0,"block":1,"trial":81,"robot":2,"valence":"win","action":"no-go","sham":0,"trial_type":"pit-trial","trial_index":94,"time_elapsed":666177,"internal_node_id":"0.0-83.0","task_version":"battery-v0.1"},{"rune":"R","hex":"#3366ff99","correct":32,"choice":-1,"rt":-1,"accuracy":0,"outcome":"+1","keys":[],"total_keys":0,"block":1,"trial":82,"robot":1,"valence":"win","action":"go","sham":0,"trial_type":"pit-trial","trial_index":95,"time_elapsed":670219,"internal_node_id":"0.0-84.0","task_version":"battery-v0.1"},{"rune":"V","hex":"#f73b6a7A","correct":-1,"choice":-1,"rt":-1,"accuracy":1,"outcome":"-1","keys":[],"total_keys":0,"block":1,"trial":83,"robot":4,"valence":"lose","action":"no-go","sham":0,"trial_type":"pit-trial","trial_index":96,"time_elapsed":674231,"internal_node_id":"0.0-85.0","task_version":"battery-v0.1"},{"rune":"Y","hex":"#f73b6a7A","correct":32,"choice":-1,"rt":-1,"accuracy":0,"outcome":"-1","keys":[],"total_keys":0,"block":1,"trial":84,"robot":3,"valence":"lose","action":"go","sham":1,"trial_type":"pit-trial","trial_index":97,"time_elapsed":678249,"internal_node_id":"0.0-86.0","task_version":"battery-v0.1"},{"rune":"Y","hex":"#f73b6a7A","correct":32,"choice":-1,"rt":-1,"accuracy":0,"outcome":"-10","keys":[],"total_keys":0,"block":1,"trial":85,"robot":3,"valence":"lose","action":"go","sham":0,"trial_type":"pit-trial","trial_index":98,"time_elapsed":682264,"internal_node_id":"0.0-87.0","task_version":"battery-v0.1"},{"rune":"R","hex":"#3366ff99","correct":32,"choice":-1,"rt":-1,"accuracy":0,"outcome":"+1","keys":[],"total_keys":0,"block":1,"trial":86,"robot":1,"valence":"win","action":"go","sham":0,"trial_type":"pit-trial","trial_index":99,"time_elapsed":686284,"internal_node_id":"0.0-88.0","task_version":"battery-v0.1"},{"rune":"E","hex":"#3366ff99","correct":-1,"choice":-1,"rt":-1,"accuracy":1,"outcome":"+1","keys":[],"total_keys":0,"block":1,"trial":87,"robot":2,"valence":"win","action":"no-go","sham":1,"trial_type":"pit-trial","trial_index":100,"time_elapsed":690306,"internal_node_id":"0.0-89.0","task_version":"battery-v0.1"},{"rune":"V","hex":"#f73b6a7A","correct":-1,"choice":-1,"rt":-1,"accuracy":1,"outcome":"-10","keys":[],"total_keys":0,"block":1,"trial":88,"robot":4,"valence":"lose","action":"no-go","sham":1,"trial_type":"pit-trial","trial_index":101,"time_elapsed":694328,"internal_node_id":"0.0-90.0","task_version":"battery-v0.1"},{"rune":"J","hex":"#3366ff99","correct":-1,"choice":-1,"rt":-1,"accuracy":1,"outcome":"+10","keys":[],"total_keys":0,"block":1,"trial":89,"robot":2,"valence":"win","action":"no-go","sham":0,"trial_type":"pit-trial","trial_index":102,"time_elapsed":698347,"internal_node_id":"0.0-91.0","task_version":"battery-v0.1"},{"rune":"R","hex":"#3366ff99","correct":32,"choice":-1,"rt":-1,"accuracy":0,"outcome":"+1","keys":[],"total_keys":0,"block":1,"trial":90,"robot":1,"valence":"win","action":"go","sham":0,"trial_type":"pit-trial","trial_index":103,"time_elapsed":702361,"internal_node_id":"0.0-92.0","task_version":"battery-v0.1"},{"rune":"H","hex":"#f73b6a7A","correct":32,"choice":-1,"rt":-1,"accuracy":0,"outcome":"-10","keys":[],"total_keys":0,"block":1,"trial":91,"robot":3,"valence":"lose","action":"go","sham":0,"trial_type":"pit-trial","trial_index":104,"time_elapsed":706370,"internal_node_id":"0.0-93.0","task_version":"battery-v0.1"},{"rune":"Y","hex":"#f73b6a7A","correct":32,"choice":-1,"rt":-1,"accuracy":0,"outcome":"-1","keys":[],"total_keys":0,"block":1,"trial":92,"robot":3,"valence":"lose","action":"go","sham":1,"trial_type":"pit-trial","trial_index":105,"time_elapsed":710386,"internal_node_id":"0.0-94.0","task_version":"battery-v0.1"},{"rune":"R","hex":"#3366ff99","correct":32,"choice":-1,"rt":-1,"accuracy":0,"outcome":"+1","keys":[],"total_keys":0,"block":1,"trial":93,"robot":1,"valence":"win","action":"go","sham":0,"trial_type":"pit-trial","trial_index":106,"time_elapsed":714399,"internal_node_id":"0.0-95.0","task_version":"battery-v0.1"},{"rune":"J","hex":"#3366ff99","correct":-1,"choice":-1,"rt":-1,"accuracy":1,"outcome":"+10","keys":[],"total_keys":0,"block":1,"trial":94,"robot":2,"valence":"win","action":"no-go","sham":0,"trial_type":"pit-trial","trial_index":107,"time_elapsed":718409,"internal_node_id":"0.0-96.0","task_version":"battery-v0.1"},{"rune":"H","hex":"#f73b6a7A","correct":32,"choice":-1,"rt":-1,"accuracy":0,"outcome":"-10","keys":[],"total_keys":0,"block":1,"trial":95,"robot":3,"valence":"lose","action":"go","sham":0,"trial_type":"pit-trial","trial_index":108,"time_elapsed":722429,"internal_node_id":"0.0-97.0","task_version":"battery-v0.1"},{"rune":"Y","hex":"#f73b6a7A","correct":32,"choice":-1,"rt":-1,"accuracy":0,"outcome":"-10","keys":[],"total_keys":0,"block":1,"trial":96,"robot":3,"valence":"lose","action":"go","sham":0,"trial_type":"pit-trial","trial_index":109,"time_elapsed":726439,"internal_node_id":"0.0-98.0","task_version":"battery-v0.1"},{"rune":"H","hex":"#f73b6a7A","correct":32,"choice":-1,"rt":-1,"accuracy":0,"outcome":"-10","keys":[],"total_keys":0,"block":1,"trial":97,"robot":3,"valence":"lose","action":"go","sham":0,"trial_type":"pit-trial","trial_index":110,"time_elapsed":730455,"internal_node_id":"0.0-99.0","task_version":"battery-v0.1"},{"rune":"J","hex":"#3366ff99","correct":-1,"choice":-1,"rt":-1,"accuracy":1,"outcome":"+10","keys":[],"total_keys":0,"block":1,"trial":98,"robot":2,"valence":"win","action":"no-go","sham":0,"trial_type":"pit-trial","trial_index":111,"time_elapsed":734476,"internal_node_id":"0.0-100.0","task_version":"battery-v0.1"},{"rune":"R","hex":"#3366ff99","correct":32,"choice":-1,"rt":-1,"accuracy":0,"outcome":"+1","keys":[],"total_keys":0,"block":1,"trial":99,"robot":1,"valence":"win","action":"go","sham":0,"trial_type":"pit-trial","trial_index":112,"time_elapsed":738488,"internal_node_id":"0.0-101.0","task_version":"battery-v0.1"},{"rune":"Y","hex":"#f73b6a7A","correct":32,"choice":-1,"rt":-1,"accuracy":0,"outcome":"-1","keys":[],"total_keys":0,"block":1,"trial":100,"robot":3,"valence":"lose","action":"go","sham":1,"trial_type":"pit-trial","trial_index":113,"time_elapsed":742497,"internal_node_id":"0.0-102.0","task_version":"battery-v0.1"},{"rune":"H","hex":"#f73b6a7A","correct":32,"choice":-1,"rt":-1,"accuracy":0,"outcome":"-10","keys":[],"total_keys":0,"block":1,"trial":101,"robot":3,"valence":"lose","action":"go","sham":0,"trial_type":"pit-trial","trial_index":114,"time_elapsed":746505,"internal_node_id":"0.0-103.0","task_version":"battery-v0.1"},{"rune":"R","hex":"#3366ff99","correct":32,"choice":-1,"rt":-1,"accuracy":0,"outcome":"+1","keys":[],"total_keys":0,"block":1,"trial":102,"robot":1,"valence":"win","action":"go","sham":0,"trial_type":"pit-trial","trial_index":115,"time_elapsed":750516,"internal_node_id":"0.0-104.0","task_version":"battery-v0.1"},{"rune":"J","hex":"#3366ff99","correct":-1,"choice":-1,"rt":-1,"accuracy":1,"outcome":"+1","keys":[],"total_keys":0,"block":1,"trial":103,"robot":2,"valence":"win","action":"no-go","sham":1,"trial_type":"pit-trial","trial_index":116,"time_elapsed":754526,"internal_node_id":"0.0-105.0","task_version":"battery-v0.1"},{"rune":"Y","hex":"#f73b6a7A","correct":32,"choice":-1,"rt":-1,"accuracy":0,"outcome":"-10","keys":[],"total_keys":0,"block":1,"trial":104,"robot":3,"valence":"lose","action":"go","sham":0,"trial_type":"pit-trial","trial_index":117,"time_elapsed":758534,"internal_node_id":"0.0-106.0","task_version":"battery-v0.1"},{"rune":"Y","hex":"#f73b6a7A","correct":32,"choice":-1,"rt":-1,"accuracy":0,"outcome":"-10","keys":[],"total_keys":0,"block":1,"trial":105,"robot":3,"valence":"lose","action":"go","sham":0,"trial_type":"pit-trial","trial_index":118,"time_elapsed":762554,"internal_node_id":"0.0-107.0","task_version":"battery-v0.1"},{"rune":"H","hex":"#f73b6a7A","correct":32,"choice":-1,"rt":-1,"accuracy":0,"outcome":"-1","keys":[],"total_keys":0,"block":1,"trial":106,"robot":3,"valence":"lose","action":"go","sham":1,"trial_type":"pit-trial","trial_index":119,"time_elapsed":766564,"internal_node_id":"0.0-108.0","task_version":"battery-v0.1"},{"rune":"R","hex":"#3366ff99","correct":32,"choice":-1,"rt":-1,"accuracy":0,"outcome":"+1","keys":[],"total_keys":0,"block":1,"trial":107,"robot":1,"valence":"win","action":"go","sham":0,"trial_type":"pit-trial","trial_index":120,"time_elapsed":770575,"internal_node_id":"0.0-109.0","task_version":"battery-v0.1"},{"rune":"J","hex":"#3366ff99","correct":-1,"choice":-1,"rt":-1,"accuracy":1,"outcome":"+10","keys":[],"total_keys":0,"block":1,"trial":108,"robot":2,"valence":"win","action":"no-go","sham":0,"trial_type":"pit-trial","trial_index":121,"time_elapsed":774585,"internal_node_id":"0.0-110.0","task_version":"battery-v0.1"},{"rune":"J","hex":"#3366ff99","correct":-1,"choice":-1,"rt":-1,"accuracy":1,"outcome":"+10","keys":[],"total_keys":0,"block":1,"trial":109,"robot":2,"valence":"win","action":"no-go","sham":0,"trial_type":"pit-trial","trial_index":122,"time_elapsed":778593,"internal_node_id":"0.0-111.0","task_version":"battery-v0.1"},{"rune":"R","hex":"#3366ff99","correct":32,"choice":-1,"rt":-1,"accuracy":0,"outcome":"+1","keys":[],"total_keys":0,"block":1,"trial":110,"robot":1,"valence":"win","action":"go","sham":0,"trial_type":"pit-trial","trial_index":123,"time_elapsed":782603,"internal_node_id":"0.0-112.0","task_version":"battery-v0.1"},{"rune":"H","hex":"#f73b6a7A","correct":32,"choice":-1,"rt":-1,"accuracy":0,"outcome":"-1","keys":[],"total_keys":0,"block":1,"trial":111,"robot":3,"valence":"lose","action":"go","sham":1,"trial_type":"pit-trial","trial_index":124,"time_elapsed":786629,"internal_node_id":"0.0-113.0","task_version":"battery-v0.1"},{"rune":"Y","hex":"#f73b6a7A","correct":32,"choice":-1,"rt":-1,"accuracy":0,"outcome":"-1","keys":[],"total_keys":0,"block":1,"trial":112,"robot":3,"valence":"lose","action":"go","sham":1,"trial_type":"pit-trial","trial_index":125,"time_elapsed":790638,"internal_node_id":"0.0-114.0","task_version":"battery-v0.1"},{"rune":"R","hex":"#3366ff99","correct":32,"choice":-1,"rt":-1,"accuracy":0,"outcome":"+1","keys":[],"total_keys":0,"block":1,"trial":113,"robot":1,"valence":"win","action":"go","sham":0,"trial_type":"pit-trial","trial_index":126,"time_elapsed":794653,"internal_node_id":"0.0-115.0","task_version":"battery-v0.1"},{"rune":"H","hex":"#f73b6a7A","correct":32,"choice":-1,"rt":-1,"accuracy":0,"outcome":"-10","keys":[],"total_keys":0,"block":1,"trial":114,"robot":3,"valence":"lose","action":"go","sham":0,"trial_type":"pit-trial","trial_index":127,"time_elapsed":798675,"internal_node_id":"0.0-116.0","task_version":"battery-v0.1"},{"rune":"Y","hex":"#f73b6a7A","correct":32,"choice":-1,"rt":-1,"accuracy":0,"outcome":"-10","keys":[],"total_keys":0,"block":1,"trial":115,"robot":3,"valence":"lose","action":"go","sham":0,"trial_type":"pit-trial","trial_index":128,"time_elapsed":802696,"internal_node_id":"0.0-117.0","task_version":"battery-v0.1"},{"rune":"J","hex":"#3366ff99","correct":-1,"choice":-1,"rt":-1,"accuracy":1,"outcome":"+10","keys":[],"total_keys":0,"block":1,"trial":116,"robot":2,"valence":"win","action":"no-go","sham":0,"trial_type":"pit-trial","trial_index":129,"time_elapsed":806710,"internal_node_id":"0.0-118.0","task_version":"battery-v0.1"},{"rune":"H","hex":"#f73b6a7A","correct":32,"choice":-1,"rt":-1,"accuracy":0,"outcome":"-10","keys":[],"total_keys":0,"block":1,"trial":117,"robot":3,"valence":"lose","action":"go","sham":0,"trial_type":"pit-trial","trial_index":130,"time_elapsed":810730,"internal_node_id":"0.0-119.0","task_version":"battery-v0.1"},{"rune":"J","hex":"#3366ff99","correct":-1,"choice":-1,"rt":-1,"accuracy":1,"outcome":"+10","keys":[],"total_keys":0,"block":1,"trial":118,"robot":2,"valence":"win","action":"no-go","sham":0,"trial_type":"pit-trial","trial_index":131,"time_elapsed":814746,"internal_node_id":"0.0-120.0","task_version":"battery-v0.1"},{"rune":"Y","hex":"#f73b6a7A","correct":32,"choice":-1,"rt":-1,"accuracy":0,"outcome":"-10","keys":[],"total_keys":0,"block":1,"trial":119,"robot":3,"valence":"lose","action":"go","sham":0,"trial_type":"pit-trial","trial_index":132,"time_elapsed":818768,"internal_node_id":"0.0-121.0","task_version":"battery-v0.1"},{"rune":"R","hex":"#3366ff99","correct":32,"choice":-1,"rt":-1,"accuracy":0,"outcome":"+1","keys":[],"total_keys":0,"block":1,"trial":120,"robot":1,"valence":"win","action":"go","sham":0,"trial_type":"pit-trial","trial_index":133,"time_elapsed":822786,"internal_node_id":"0.0-122.0","task_version":"battery-v0.1"},{"view_history":"[{\"page_index\":0,\"viewing_time\":89204.41000000574},{\"page_index\":1,\"viewing_time\":5296.730000001844}]","rt":94502.81499995617,"trial_type":"pit-instructions","trial_index":134,"time_elapsed":917299,"internal_node_id":"0.0-123.0","task_version":"battery-v0.1"},{"rune":"S","hex":"#3366ff99","correct":32,"choice":-1,"rt":-1,"accuracy":0,"outcome":"+10","keys":[1467.5050000078045],"total_keys":1,"block":2,"trial":121,"robot":1,"valence":"win","action":"go","sham":1,"trial_type":"pit-trial","trial_index":135,"time_elapsed":921332,"internal_node_id":"0.0-124.0","task_version":"battery-v0.1"},{"rune":"W","hex":"#3366ff99","correct":-1,"choice":-1,"rt":-1,"accuracy":1,"outcome":"+1","keys":[1235.9200000064448],"total_keys":1,"block":2,"trial":122,"robot":2,"valence":"win","action":"no-go","sham":1,"trial_type":"pit-trial","trial_index":136,"time_elapsed":925366,"internal_node_id":"0.0-125.0","task_version":"battery-v0.1"},{"rune":"I","hex":"#3366ff99","correct":32,"choice":-1,"rt":-1,"accuracy":0,"outcome":"+1","keys":[],"total_keys":0,"block":2,"trial":123,"robot":1,"valence":"win","action":"go","sham":0,"trial_type":"pit-trial","trial_index":137,"time_elapsed":929388,"internal_node_id":"0.0-126.0","task_version":"battery-v0.1"},{"rune":"Q","hex":"#f73b6a7A","correct":-1,"choice":32,"rt":220.15499998815358,"accuracy":0,"outcome":"-10","keys":[1720.6950000254437,2147.545000014361,2496.190000034403,2781.180000049062],"total_keys":4,"block":2,"trial":124,"robot":4,"valence":"lose","action":"no-go","sham":0,"trial_type":"pit-trial","trial_index":138,"time_elapsed":932337,"internal_node_id":"0.0-127.0","task_version":"battery-v0.1"},{"rune":"S","hex":"#3366ff99","correct":32,"choice":32,"rt":57.58000002242625,"accuracy":1,"outcome":"+10","keys":[65.94500003848225,358.99000003701076,1280.9899999992922,1557.7500000363216],"total_keys":4,"block":2,"trial":125,"robot":1,"valence":"win","action":"go","sham":0,"trial_type":"pit-trial","trial_index":139,"time_elapsed":935116,"internal_node_id":"0.0-128.0","task_version":"battery-v0.1"},{"rune":"Q","hex":"#f73b6a7A","correct":-1,"choice":32,"rt":41.009999986272305,"accuracy":0,"outcome":"-10","keys":[1107.3550000437535,1344.5000000065193,1541.335000016261],"total_keys":3,"block":2,"trial":126,"robot":4,"valence":"lose","action":"no-go","sham":0,"trial_type":"pit-trial","trial_index":140,"time_elapsed":937867,"internal_node_id":"0.0-129.0","task_version":"battery-v0.1"},{"rune":"W","hex":"#3366ff99","correct":-1,"choice":-1,"rt":-1,"accuracy":1,"outcome":"+10","keys":[6.84499996714294,1318.0900000152178],"total_keys":2,"block":2,"trial":127,"robot":2,"valence":"win","action":"no-go","sham":0,"trial_type":"pit-trial","trial_index":141,"time_elapsed":941882,"internal_node_id":"0.0-130.0","task_version":"battery-v0.1"},{"rune":"I","hex":"#3366ff99","correct":32,"choice":32,"rt":166.30500002065673,"accuracy":1,"outcome":"+10","keys":[292.95999999158084,1261.869999987539,1666.5849999990314,2016.7950000031851],"total_keys":4,"block":2,"trial":128,"robot":1,"valence":"win","action":"go","sham":0,"trial_type":"pit-trial","trial_index":142,"time_elapsed":944757,"internal_node_id":"0.0-131.0","task_version":"battery-v0.1"},{"rune":"S","hex":"#3366ff99","correct":32,"choice":32,"rt":733.8300000410527,"accuracy":1,"outcome":"+10","keys":[1224.274999985937,2233.8899999740534],"total_keys":2,"block":2,"trial":129,"robot":1,"valence":"win","action":"go","sham":0,"trial_type":"pit-trial","trial_index":143,"time_elapsed":948216,"internal_node_id":"0.0-132.0","task_version":"battery-v0.1"},{"rune":"Q","hex":"#f73b6a7A","correct":-1,"choice":32,"rt":423.34999999729916,"accuracy":0,"outcome":"-10","keys":[1218.280000030063,1923.5050000133924,2798.0550000211224],"total_keys":3,"block":2,"trial":130,"robot":4,"valence":"lose","action":"no-go","sham":0,"trial_type":"pit-trial","trial_index":144,"time_elapsed":951357,"internal_node_id":"0.0-133.0","task_version":"battery-v0.1"},{"rune":"I","hex":"#3366ff99","correct":32,"choice":32,"rt":830.6299999821931,"accuracy":1,"outcome":"+10","keys":[660.0150000303984,2331.240000028629],"total_keys":2,"block":2,"trial":131,"robot":1,"valence":"win","action":"go","sham":0,"trial_type":"pit-trial","trial_index":145,"time_elapsed":954914,"internal_node_id":"0.0-134.0","task_version":"battery-v0.1"},{"rune":"W","hex":"#3366ff99","correct":-1,"choice":-1,"rt":-1,"accuracy":1,"outcome":"+1","keys":[298.01000002771616],"total_keys":1,"block":2,"trial":132,"robot":2,"valence":"win","action":"no-go","sham":1,"trial_type":"pit-trial","trial_index":146,"time_elapsed":958934,"internal_node_id":"0.0-135.0","task_version":"battery-v0.1"},{"rune":"W","hex":"#3366ff99","correct":-1,"choice":32,"rt":242.87999997613952,"accuracy":0,"outcome":"+10","keys":[1434.659999969881,1744.6649999474175],"total_keys":2,"block":2,"trial":133,"robot":2,"valence":"win","action":"no-go","sham":1,"trial_type":"pit-trial","trial_index":147,"time_elapsed":961898,"internal_node_id":"0.0-136.0","task_version":"battery-v0.1"},{"rune":"Q","hex":"#f73b6a7A","correct":-1,"choice":32,"rt":353.4450000151992,"accuracy":0,"outcome":"-10","keys":[1301.3800000189804,1853.7450000294484,2145.9950000280514,2439.0650000423193,2730.8300000149757],"total_keys":5,"block":2,"trial":134,"robot":4,"valence":"lose","action":"no-go","sham":0,"trial_type":"pit-trial","trial_index":148,"time_elapsed":964961,"internal_node_id":"0.0-137.0","task_version":"battery-v0.1"},{"rune":"S","hex":"#3366ff99","correct":32,"choice":32,"rt":61.335000034887344,"accuracy":1,"outcome":"+10","keys":[62.755000020843,572.0749999745749,1301.3500000233762,1562.1500000124797,1799.4249999755993],"total_keys":5,"block":2,"trial":135,"robot":1,"valence":"win","action":"go","sham":0,"trial_type":"pit-trial","trial_index":149,"time_elapsed":967742,"internal_node_id":"0.0-138.0","task_version":"battery-v0.1"},{"rune":"I","hex":"#3366ff99","correct":32,"choice":32,"rt":20.0549999717623,"accuracy":1,"outcome":"+10","keys":[1188.7149999965914,1520.3049999545328,1820.9299999871291],"total_keys":3,"block":2,"trial":136,"robot":1,"valence":"win","action":"go","sham":0,"trial_type":"pit-trial","trial_index":150,"time_elapsed":970478,"internal_node_id":"0.0-139.0","task_version":"battery-v0.1"},{"rune":"S","hex":"#3366ff99","correct":32,"choice":32,"rt":196.31499995011836,"accuracy":1,"outcome":"+10","keys":[1400.2849999815226,1696.8849999830127,1971.1050000041723],"total_keys":3,"block":2,"trial":137,"robot":1,"valence":"win","action":"go","sham":0,"trial_type":"pit-trial","trial_index":151,"time_elapsed":973393,"internal_node_id":"0.0-140.0","task_version":"battery-v0.1"},{"rune":"Q","hex":"#f73b6a7A","correct":-1,"choice":32,"rt":20.530000037979335,"accuracy":0,"outcome":"-10","keys":[1205.1250000367872,1521.1799999815412,1728.9900000323541,2085.7599999872036,2440.4649999924004],"total_keys":5,"block":2,"trial":138,"robot":4,"valence":"lose","action":"no-go","sham":0,"trial_type":"pit-trial","trial_index":152,"time_elapsed":976136,"internal_node_id":"0.0-141.0","task_version":"battery-v0.1"},{"rune":"W","hex":"#3366ff99","correct":-1,"choice":32,"rt":122.32999998377636,"accuracy":0,"outcome":"+1","keys":[1622.3149999859743,1972.780000010971],"total_keys":2,"block":2,"trial":139,"robot":2,"valence":"win","action":"no-go","sham":0,"trial_type":"pit-trial","trial_index":153,"time_elapsed":978977,"internal_node_id":"0.0-142.0","task_version":"battery-v0.1"},{"rune":"I","hex":"#3366ff99","correct":32,"choice":32,"rt":131.77999999606982,"accuracy":1,"outcome":"+10","keys":[1632.175000035204,1968.0800000205636],"total_keys":2,"block":2,"trial":140,"robot":1,"valence":"win","action":"go","sham":0,"trial_type":"pit-trial","trial_index":154,"time_elapsed":981826,"internal_node_id":"0.0-143.0","task_version":"battery-v0.1"},{"rune":"I","hex":"#3366ff99","correct":32,"choice":32,"rt":267.74500001920387,"accuracy":1,"outcome":"+10","keys":[1340.6099999556318,1768.7399999704212],"total_keys":2,"block":2,"trial":141,"robot":1,"valence":"win","action":"go","sham":0,"trial_type":"pit-trial","trial_index":155,"time_elapsed":984808,"internal_node_id":"0.0-144.0","task_version":"battery-v0.1"},{"rune":"S","hex":"#3366ff99","correct":32,"choice":-1,"rt":-1,"accuracy":0,"outcome":"+1","keys":[],"total_keys":0,"block":2,"trial":142,"robot":1,"valence":"win","action":"go","sham":0,"trial_type":"pit-trial","trial_index":156,"time_elapsed":988831,"internal_node_id":"0.0-145.0","task_version":"battery-v0.1"},{"rune":"Q","hex":"#f73b6a7A","correct":-1,"choice":-1,"rt":-1,"accuracy":1,"outcome":"-1","keys":[3097.810000006575,3548.9599999855272],"total_keys":2,"block":2,"trial":143,"robot":4,"valence":"lose","action":"no-go","sham":0,"trial_type":"pit-trial","trial_index":157,"time_elapsed":992845,"internal_node_id":"0.0-146.0","task_version":"battery-v0.1"},{"rune":"W","hex":"#3366ff99","correct":-1,"choice":32,"rt":229.2250000173226,"accuracy":0,"outcome":"+1","keys":[1421.0750000202097,1729.6100000385195,1960.4650000110269],"total_keys":3,"block":2,"trial":144,"robot":2,"valence":"win","action":"no-go","sham":0,"trial_type":"pit-trial","trial_index":158,"time_elapsed":995797,"internal_node_id":"0.0-147.0","task_version":"battery-v0.1"},{"rune":"W","hex":"#3366ff99","correct":-1,"choice":32,"rt":26.920000032987446,"accuracy":0,"outcome":"+1","keys":[456.01500000339,1236.4950000192039,1527.1649999776855,1767.9149999748915],"total_keys":4,"block":2,"trial":145,"robot":2,"valence":"win","action":"no-go","sham":0,"trial_type":"pit-trial","trial_index":159,"time_elapsed":998552,"internal_node_id":"0.0-148.0","task_version":"battery-v0.1"},{"rune":"Q","hex":"#f73b6a7A","correct":-1,"choice":32,"rt":569.3900000187568,"accuracy":0,"outcome":"-1","keys":[2070.080000034068,2363.950000028126],"total_keys":2,"block":2,"trial":146,"robot":4,"valence":"lose","action":"no-go","sham":1,"trial_type":"pit-trial","trial_index":160,"time_elapsed":1001831,"internal_node_id":"0.0-149.0","task_version":"battery-v0.1"},{"rune":"S","hex":"#3366ff99","correct":32,"choice":-1,"rt":-1,"accuracy":0,"outcome":"+1","keys":[],"total_keys":0,"block":2,"trial":147,"robot":1,"valence":"win","action":"go","sham":0,"trial_type":"pit-trial","trial_index":161,"time_elapsed":1005856,"internal_node_id":"0.0-150.0","task_version":"battery-v0.1"},{"rune":"I","hex":"#3366ff99","correct":32,"choice":-1,"rt":-1,"accuracy":0,"outcome":"+1","keys":[],"total_keys":0,"block":2,"trial":148,"robot":1,"valence":"win","action":"go","sham":0,"trial_type":"pit-trial","trial_index":162,"time_elapsed":1009871,"internal_node_id":"0.0-151.0","task_version":"battery-v0.1"},{"rune":"Q","hex":"#f73b6a7A","correct":-1,"choice":32,"rt":189.6100000012666,"accuracy":0,"outcome":"-10","keys":[1689.7749999770895,1948.1399999931455,2185.379999980796,2533.319999987725],"total_keys":4,"block":2,"trial":149,"robot":4,"valence":"lose","action":"no-go","sham":0,"trial_type":"pit-trial","trial_index":163,"time_elapsed":1012774,"internal_node_id":"0.0-152.0","task_version":"battery-v0.1"},{"rune":"I","hex":"#3366ff99","correct":32,"choice":32,"rt":291.8049999861978,"accuracy":1,"outcome":"+10","keys":[381.41000003088266,795.395000022836,1412.5650000059977,1792.8350000292994,2064.3350000027567,2405.224999994971,2886.815000034403],"total_keys":7,"block":2,"trial":150,"robot":1,"valence":"win","action":"go","sham":0,"trial_type":"pit-trial","trial_index":164,"time_elapsed":1015777,"internal_node_id":"0.0-153.0","task_version":"battery-v0.1"},{"rune":"W","hex":"#3366ff99","correct":-1,"choice":32,"rt":0.6849999772384763,"accuracy":0,"outcome":"+1","keys":[456.6149999736808,977.8199999709614,1501.5199999907054,1826.7899999627843,2262.6649999874644],"total_keys":5,"block":2,"trial":151,"robot":2,"valence":"win","action":"no-go","sham":0,"trial_type":"pit-trial","trial_index":165,"time_elapsed":1018504,"internal_node_id":"0.0-154.0","task_version":"battery-v0.1"},{"rune":"S","hex":"#3366ff99","correct":32,"choice":32,"rt":119.86500001512468,"accuracy":1,"outcome":"+10","keys":[387.0699999970384,1213.6300000129268,1619.8650000151247,1959.0949999983422,2331.3949999865144],"total_keys":5,"block":2,"trial":152,"robot":1,"valence":"win","action":"go","sham":0,"trial_type":"pit-trial","trial_index":166,"time_elapsed":1021333,"internal_node_id":"0.0-155.0","task_version":"battery-v0.1"},{"rune":"I","hex":"#3366ff99","correct":32,"choice":32,"rt":493.69999999180436,"accuracy":1,"outcome":"+1","keys":[209.0450000250712,948.2899999711663,1359.839999990072,1994.6399999898858,2693.955000024289,3082.860000024084],"total_keys":6,"block":2,"trial":153,"robot":1,"valence":"win","action":"go","sham":1,"trial_type":"pit-trial","trial_index":167,"time_elapsed":1024544,"internal_node_id":"0.0-156.0","task_version":"battery-v0.1"},{"rune":"Q","hex":"#f73b6a7A","correct":-1,"choice":32,"rt":373.6700000008568,"accuracy":0,"outcome":"-1","keys":[547.4099999992177,1086.959999985993,1874.0100000286475,2589.0849999850616],"total_keys":4,"block":2,"trial":154,"robot":4,"valence":"lose","action":"no-go","sham":1,"trial_type":"pit-trial","trial_index":168,"time_elapsed":1027626,"internal_node_id":"0.0-157.0","task_version":"battery-v0.1"},{"rune":"T","hex":"#3366ff99","correct":32,"choice":32,"rt":142.24000001559034,"accuracy":1,"outcome":"+10","keys":[495.11999997776,1044.2850000108592,1642.5249999738298,2011.9599999743514,2608.215000014752],"total_keys":5,"block":2,"trial":155,"robot":1,"valence":"win","action":"go","sham":0,"trial_type":"pit-trial","trial_index":169,"time_elapsed":1030487,"internal_node_id":"0.0-158.0","task_version":"battery-v0.1"},{"rune":"W","hex":"#3366ff99","correct":-1,"choice":32,"rt":69.759999983944,"accuracy":0,"outcome":"+1","keys":[1570.3100000391714,1872.3850000533275,2546.215000038501],"total_keys":3,"block":2,"trial":156,"robot":2,"valence":"win","action":"no-go","sham":0,"trial_type":"pit-trial","trial_index":170,"time_elapsed":1033267,"internal_node_id":"0.0-159.0","task_version":"battery-v0.1"},{"rune":"W","hex":"#3366ff99","correct":-1,"choice":32,"rt":209.1200000140816,"accuracy":0,"outcome":"+10","keys":[1258.5649999673478,1487.5250000040978,1709.1899999650195],"total_keys":3,"block":2,"trial":157,"robot":2,"valence":"win","action":"no-go","sham":1,"trial_type":"pit-trial","trial_index":171,"time_elapsed":1036196,"internal_node_id":"0.0-160.0","task_version":"battery-v0.1"},{"rune":"Q","hex":"#f73b6a7A","correct":-1,"choice":32,"rt":26.78000001469627,"accuracy":0,"outcome":"-10","keys":[1203.7949999794364,1527.4099999805912,1724.7199999983422,1985.6799999834038],"total_keys":4,"block":2,"trial":158,"robot":4,"valence":"lose","action":"no-go","sham":0,"trial_type":"pit-trial","trial_index":172,"time_elapsed":1038947,"internal_node_id":"0.0-161.0","task_version":"battery-v0.1"},{"rune":"T","hex":"#3366ff99","correct":32,"choice":32,"rt":253.72999999672174,"accuracy":1,"outcome":"+10","keys":[1753.9949999772944,2020.7749999826774],"total_keys":2,"block":2,"trial":159,"robot":1,"valence":"win","action":"go","sham":0,"trial_type":"pit-trial","trial_index":173,"time_elapsed":1041923,"internal_node_id":"0.0-162.0","task_version":"battery-v0.1"},{"rune":"I","hex":"#3366ff99","correct":32,"choice":32,"rt":328.3250000094995,"accuracy":1,"outcome":"+10","keys":[1828.6800000350922,2175.5050000501797],"total_keys":2,"block":2,"trial":160,"robot":1,"valence":"win","action":"go","sham":0,"trial_type":"pit-trial","trial_index":174,"time_elapsed":1044973,"internal_node_id":"0.0-163.0","task_version":"battery-v0.1"},{"rune":"T","hex":"#3366ff99","correct":32,"choice":32,"rt":244.8549999971874,"accuracy":1,"outcome":"+1","keys":[1285.0100000505336,1745.3450000029989,2116.9750000117347,2935.890000022482],"total_keys":4,"block":2,"trial":161,"robot":1,"valence":"win","action":"go","sham":1,"trial_type":"pit-trial","trial_index":175,"time_elapsed":1047946,"internal_node_id":"0.0-164.0","task_version":"battery-v0.1"},{"rune":"F","hex":"#f73b6a7A","correct":-1,"choice":32,"rt":40.689999994356185,"accuracy":0,"outcome":"-1","keys":[954.2600000277162,1541.170000040438,2309.8200000240467],"total_keys":3,"block":2,"trial":162,"robot":4,"valence":"lose","action":"no-go","sham":1,"trial_type":"pit-trial","trial_index":176,"time_elapsed":1050708,"internal_node_id":"0.0-165.0","task_version":"battery-v0.1"},{"rune":"L","hex":"#f73b6a7A","correct":32,"choice":32,"rt":565.2950000367127,"accuracy":1,"outcome":"-1","keys":[612.7100000157952,1344.8499999940395,2065.9250000026077],"total_keys":3,"block":2,"trial":163,"robot":3,"valence":"lose","action":"go","sham":0,"trial_type":"pit-trial","trial_index":177,"time_elapsed":1053998,"internal_node_id":"0.0-166.0","task_version":"battery-v0.1"},{"rune":"W","hex":"#3366ff99","correct":-1,"choice":32,"rt":239.08500000834465,"accuracy":0,"outcome":"+1","keys":[173.42499998630956,1060.6350000016391,1739.7999999811873,2268.2049999712035],"total_keys":4,"block":2,"trial":164,"robot":2,"valence":"win","action":"no-go","sham":0,"trial_type":"pit-trial","trial_index":178,"time_elapsed":1056958,"internal_node_id":"0.0-167.0","task_version":"battery-v0.1"},{"rune":"T","hex":"#3366ff99","correct":32,"choice":32,"rt":158.6200000019744,"accuracy":1,"outcome":"+10","keys":[274.16500000981614,1658.9549999916926,2071.1949999677017],"total_keys":3,"block":2,"trial":165,"robot":1,"valence":"win","action":"go","sham":0,"trial_type":"pit-trial","trial_index":179,"time_elapsed":1059841,"internal_node_id":"0.0-168.0","task_version":"battery-v0.1"},{"rune":"W","hex":"#3366ff99","correct":-1,"choice":32,"rt":359.14000001503155,"accuracy":0,"outcome":"+1","keys":[425.16499996418133,1860.210000013467,2301.5949999680743,2657.085000013467],"total_keys":4,"block":2,"trial":166,"robot":2,"valence":"win","action":"no-go","sham":0,"trial_type":"pit-trial","trial_index":180,"time_elapsed":1062921,"internal_node_id":"0.0-169.0","task_version":"battery-v0.1"},{"rune":"F","hex":"#f73b6a7A","correct":-1,"choice":32,"rt":233.81000000517815,"accuracy":0,"outcome":"-10","keys":[430.5649999878369,1735.8099999837577,2317.8399999742396],"total_keys":3,"block":2,"trial":167,"robot":4,"valence":"lose","action":"no-go","sham":0,"trial_type":"pit-trial","trial_index":181,"time_elapsed":1065867,"internal_node_id":"0.0-170.0","task_version":"battery-v0.1"},{"rune":"L","hex":"#f73b6a7A","correct":32,"choice":32,"rt":325.26499999221414,"accuracy":1,"outcome":"-1","keys":[575.1100000343286,1219.5900000515394,1826.0450000525452,2663.6600000201724],"total_keys":4,"block":2,"trial":168,"robot":3,"valence":"lose","action":"go","sham":0,"trial_type":"pit-trial","trial_index":182,"time_elapsed":1068915,"internal_node_id":"0.0-171.0","task_version":"battery-v0.1"},{"rune":"K","hex":"#3366ff99","correct":-1,"choice":-1,"rt":-1,"accuracy":1,"outcome":"+10","keys":[192.3100000130944,1359.920000017155],"total_keys":2,"block":2,"trial":169,"robot":2,"valence":"win","action":"no-go","sham":0,"trial_type":"pit-trial","trial_index":183,"time_elapsed":1072923,"internal_node_id":"0.0-172.0","task_version":"battery-v0.1"},{"rune":"F","hex":"#f73b6a7A","correct":-1,"choice":-1,"rt":-1,"accuracy":1,"outcome":"-1","keys":[],"total_keys":0,"block":2,"trial":170,"robot":4,"valence":"lose","action":"no-go","sham":0,"trial_type":"pit-trial","trial_index":184,"time_elapsed":1076931,"internal_node_id":"0.0-173.0","task_version":"battery-v0.1"},{"rune":"T","hex":"#3366ff99","correct":32,"choice":-1,"rt":-1,"accuracy":0,"outcome":"+1","keys":[],"total_keys":0,"block":2,"trial":171,"robot":1,"valence":"win","action":"go","sham":0,"trial_type":"pit-trial","trial_index":185,"time_elapsed":1080943,"internal_node_id":"0.0-174.0","task_version":"battery-v0.1"},{"rune":"L","hex":"#f73b6a7A","correct":32,"choice":-1,"rt":-1,"accuracy":0,"outcome":"-1","keys":[],"total_keys":0,"block":2,"trial":172,"robot":3,"valence":"lose","action":"go","sham":1,"trial_type":"pit-trial","trial_index":186,"time_elapsed":1084978,"internal_node_id":"0.0-175.0","task_version":"battery-v0.1"},{"rune":"L","hex":"#f73b6a7A","correct":32,"choice":32,"rt":662.804999970831,"accuracy":1,"outcome":"-10","keys":[2162.949999968987,2710.2149999700487],"total_keys":2,"block":2,"trial":173,"robot":3,"valence":"lose","action":"go","sham":1,"trial_type":"pit-trial","trial_index":187,"time_elapsed":1088354,"internal_node_id":"0.0-176.0","task_version":"battery-v0.1"},{"rune":"T","hex":"#3366ff99","correct":32,"choice":32,"rt":947.2850000020117,"accuracy":1,"outcome":"+1","keys":[342.52499998547137,1017.3300000024028,1429.6999999787658,2448.644999996759,3345.625000016298],"total_keys":5,"block":2,"trial":174,"robot":1,"valence":"win","action":"go","sham":1,"trial_type":"pit-trial","trial_index":188,"time_elapsed":1092023,"internal_node_id":"0.0-177.0","task_version":"battery-v0.1"},{"rune":"K","hex":"#3366ff99","correct":-1,"choice":32,"rt":269.8149999487214,"accuracy":0,"outcome":"+1","keys":[476.88999999081716,1048.6350000137463,1341.405000013765,1770.0949999853037,2110.7499999925494,2569.9100000201724],"total_keys":6,"block":2,"trial":175,"robot":2,"valence":"win","action":"no-go","sham":0,"trial_type":"pit-trial","trial_index":189,"time_elapsed":1095008,"internal_node_id":"0.0-178.0","task_version":"battery-v0.1"},{"rune":"F","hex":"#f73b6a7A","correct":-1,"choice":32,"rt":292.5200000172481,"accuracy":0,"outcome":"-10","keys":[764.1899999580346,1792.6250000018626,2148.6150000127964,2537.5200000125915],"total_keys":4,"block":2,"trial":176,"robot":4,"valence":"lose","action":"no-go","sham":0,"trial_type":"pit-trial","trial_index":190,"time_elapsed":1098014,"internal_node_id":"0.0-179.0","task_version":"battery-v0.1"},{"rune":"K","hex":"#3366ff99","correct":-1,"choice":32,"rt":151.87499998137355,"accuracy":0,"outcome":"+1","keys":[676.3049999717623,979.894999996759,1421.15000000922,1674.9049999634735],"total_keys":4,"block":2,"trial":177,"robot":2,"valence":"win","action":"no-go","sham":0,"trial_type":"pit-trial","trial_index":191,"time_elapsed":1100907,"internal_node_id":"0.0-180.0","task_version":"battery-v0.1"},{"rune":"L","hex":"#f73b6a7A","correct":32,"choice":32,"rt":293.03000000072643,"accuracy":1,"outcome":"-1","keys":[1793.680000002496,2096.81499999715,2331.2849999638274],"total_keys":3,"block":2,"trial":178,"robot":3,"valence":"lose","action":"go","sham":0,"trial_type":"pit-trial","trial_index":192,"time_elapsed":1103923,"internal_node_id":"0.0-181.0","task_version":"battery-v0.1"},{"rune":"T","hex":"#3366ff99","correct":32,"choice":32,"rt":260.04999998258427,"accuracy":1,"outcome":"+10","keys":[1760.2900000056252,2315.6099999905564],"total_keys":2,"block":2,"trial":179,"robot":1,"valence":"win","action":"go","sham":0,"trial_type":"pit-trial","trial_index":193,"time_elapsed":1106896,"internal_node_id":"0.0-182.0","task_version":"battery-v0.1"},{"rune":"F","hex":"#f73b6a7A","correct":-1,"choice":32,"rt":201.35500002652407,"accuracy":0,"outcome":"-10","keys":[1401.8700000015087,1701.535000000149,1916.6149999946356,2549.1649999748915],"total_keys":4,"block":2,"trial":180,"robot":4,"valence":"lose","action":"no-go","sham":0,"trial_type":"pit-trial","trial_index":194,"time_elapsed":1109806,"internal_node_id":"0.0-183.0","task_version":"battery-v0.1"},{"rune":"L","hex":"#f73b6a7A","correct":32,"choice":32,"rt":243.51499998010695,"accuracy":1,"outcome":"-10","keys":[501.1299999896437,1094.6099999709986,1411.1699999775738,1743.5650000115857,1989.1399999614805,2285.3749999776483,2733.765000011772],"total_keys":7,"block":2,"trial":181,"robot":3,"valence":"lose","action":"go","sham":1,"trial_type":"pit-trial","trial_index":195,"time_elapsed":1112763,"internal_node_id":"0.0-184.0","task_version":"battery-v0.1"},{"rune":"F","hex":"#f73b6a7A","correct":-1,"choice":32,"rt":15.740000002551824,"accuracy":0,"outcome":"-10","keys":[1516.204999992624,1891.4249999797903,2183.889999985695,2490.3700000140816],"total_keys":4,"block":2,"trial":182,"robot":4,"valence":"lose","action":"no-go","sham":0,"trial_type":"pit-trial","trial_index":196,"time_elapsed":1115493,"internal_node_id":"0.0-185.0","task_version":"battery-v0.1"},{"rune":"T","hex":"#3366ff99","correct":32,"choice":32,"rt":43.1949999765493,"accuracy":1,"outcome":"+10","keys":[1543.9200000255369,1987.6400000066496,2719.020000018645],"total_keys":3,"block":2,"trial":183,"robot":1,"valence":"win","action":"go","sham":0,"trial_type":"pit-trial","trial_index":197,"time_elapsed":1118250,"internal_node_id":"0.0-186.0","task_version":"battery-v0.1"},{"rune":"K","hex":"#3366ff99","correct":-1,"choice":32,"rt":159.34999997261912,"accuracy":0,"outcome":"+1","keys":[587.7150000305846,864.7900000214577,1659.540000022389],"total_keys":3,"block":2,"trial":184,"robot":2,"valence":"win","action":"no-go","sham":0,"trial_type":"pit-trial","trial_index":198,"time_elapsed":1121119,"internal_node_id":"0.0-187.0","task_version":"battery-v0.1"},{"rune":"T","hex":"#3366ff99","correct":32,"choice":-1,"rt":-1,"accuracy":0,"outcome":"+1","keys":[],"total_keys":0,"block":2,"trial":185,"robot":1,"valence":"win","action":"go","sham":0,"trial_type":"pit-trial","trial_index":199,"time_elapsed":1125136,"internal_node_id":"0.0-188.0","task_version":"battery-v0.1"},{"rune":"L","hex":"#f73b6a7A","correct":32,"choice":32,"rt":256.3450000016019,"accuracy":1,"outcome":"-1","keys":[1399.364999961108,1756.9800000055693,2056.9849999737926,2356.984999962151],"total_keys":4,"block":2,"trial":186,"robot":3,"valence":"lose","action":"go","sham":0,"trial_type":"pit-trial","trial_index":200,"time_elapsed":1128111,"internal_node_id":"0.0-189.0","task_version":"battery-v0.1"},{"rune":"F","hex":"#f73b6a7A","correct":-1,"choice":32,"rt":118.19999996805564,"accuracy":0,"outcome":"-10","keys":[1263.0500000086613,1619.025000021793,1864.4249999779277,2149.105000018608,2465.2900000219233],"total_keys":5,"block":2,"trial":187,"robot":4,"valence":"lose","action":"no-go","sham":0,"trial_type":"pit-trial","trial_index":201,"time_elapsed":1130945,"internal_node_id":"0.0-190.0","task_version":"battery-v0.1"},{"rune":"K","hex":"#3366ff99","correct":-1,"choice":-1,"rt":-1,"accuracy":1,"outcome":"+1","keys":[],"total_keys":0,"block":2,"trial":188,"robot":2,"valence":"win","action":"no-go","sham":1,"trial_type":"pit-trial","trial_index":202,"time_elapsed":1134968,"internal_node_id":"0.0-191.0","task_version":"battery-v0.1"},{"rune":"L","hex":"#f73b6a7A","correct":32,"choice":32,"rt":161.68499999912456,"accuracy":1,"outcome":"-1","keys":[1157.7500000130385,1447.9750000173226,1662.335000000894,1835.8049999806099,2024.8249999713153,2213.754999975208,2387.3400000156835],"total_keys":7,"block":2,"trial":189,"robot":3,"valence":"lose","action":"go","sham":0,"trial_type":"pit-trial","trial_index":203,"time_elapsed":1137856,"internal_node_id":"0.0-192.0","task_version":"battery-v0.1"},{"rune":"T","hex":"#3366ff99","correct":32,"choice":32,"rt":81.08499995432794,"accuracy":1,"outcome":"+10","keys":[1364.3550000269897,1581.6750000230968,1786.8650000309572],"total_keys":3,"block":2,"trial":190,"robot":1,"valence":"win","action":"go","sham":0,"trial_type":"pit-trial","trial_index":204,"time_elapsed":1140656,"internal_node_id":"0.0-193.0","task_version":"battery-v0.1"},{"rune":"K","hex":"#3366ff99","correct":-1,"choice":32,"rt":448.41499999165535,"accuracy":0,"outcome":"+1","keys":[1949.480000010226,2186.2899999832734],"total_keys":2,"block":2,"trial":191,"robot":2,"valence":"win","action":"no-go","sham":0,"trial_type":"pit-trial","trial_index":205,"time_elapsed":1143827,"internal_node_id":"0.0-194.0","task_version":"battery-v0.1"},{"rune":"F","hex":"#f73b6a7A","correct":-1,"choice":32,"rt":195.78000000910833,"accuracy":0,"outcome":"-10","keys":[1696.1499999742955,1908.8049999554642,2157.0899999933317,2383.4250000072643,2589.3299999879673,2800.4949999740347],"total_keys":6,"block":2,"trial":192,"robot":4,"valence":"lose","action":"no-go","sham":0,"trial_type":"pit-trial","trial_index":206,"time_elapsed":1146732,"internal_node_id":"0.0-195.0","task_version":"battery-v0.1"},{"rune":"T","hex":"#3366ff99","correct":32,"choice":32,"rt":11.59499998902902,"accuracy":1,"outcome":"+1","keys":[135.4000000283122,1512.7099999808706,1756.1100000166334,1977.2499999962747],"total_keys":4,"block":2,"trial":193,"robot":1,"valence":"win","action":"go","sham":1,"trial_type":"pit-trial","trial_index":207,"time_elapsed":1149466,"internal_node_id":"0.0-196.0","task_version":"battery-v0.1"},{"rune":"F","hex":"#f73b6a7A","correct":-1,"choice":32,"rt":131.36999995913357,"accuracy":0,"outcome":"-10","keys":[1631.8650000030175,1863.4799999999814,2076.4600000111386,2281.4800000051036,2471.6150000458583,2662.5200000125915],"total_keys":6,"block":2,"trial":194,"robot":4,"valence":"lose","action":"no-go","sham":0,"trial_type":"pit-trial","trial_index":208,"time_elapsed":1152309,"internal_node_id":"0.0-197.0","task_version":"battery-v0.1"},{"rune":"X","hex":"#f73b6a7A","correct":32,"choice":32,"rt":773.3449999941513,"accuracy":1,"outcome":"-1","keys":[0.534999999217689,177.8500000364147,2274.3350000237115,2519.8550000204705],"total_keys":4,"block":2,"trial":195,"robot":3,"valence":"lose","action":"go","sham":0,"trial_type":"pit-trial","trial_index":209,"time_elapsed":1155803,"internal_node_id":"0.0-198.0","task_version":"battery-v0.1"},{"rune":"K","hex":"#3366ff99","correct":-1,"choice":32,"rt":51.97500000940636,"accuracy":0,"outcome":"+1","keys":[1552.5199999683537,2016.0000000032596],"total_keys":2,"block":2,"trial":196,"robot":2,"valence":"win","action":"no-go","sham":0,"trial_type":"pit-trial","trial_index":210,"time_elapsed":1158563,"internal_node_id":"0.0-199.0","task_version":"battery-v0.1"},{"rune":"T","hex":"#3366ff99","correct":32,"choice":32,"rt":541.6949999635108,"accuracy":1,"outcome":"+10","keys":[2041.8749999953434],"total_keys":1,"block":2,"trial":197,"robot":1,"valence":"win","action":"go","sham":0,"trial_type":"pit-trial","trial_index":211,"time_elapsed":1161814,"internal_node_id":"0.0-200.0","task_version":"battery-v0.1"},{"rune":"F","hex":"#f73b6a7A","correct":-1,"choice":32,"rt":233.17999998107553,"accuracy":0,"outcome":"-10","keys":[1734.050000028219,2121.3250000146218,2366.580000030808,2627.150000014808],"total_keys":4,"block":2,"trial":198,"robot":4,"valence":"lose","action":"no-go","sham":0,"trial_type":"pit-trial","trial_index":212,"time_elapsed":1164756,"internal_node_id":"0.0-201.0","task_version":"battery-v0.1"},{"rune":"X","hex":"#f73b6a7A","correct":32,"choice":32,"rt":353.4699999727309,"accuracy":1,"outcome":"-10","keys":[0.5499999970197678,279.15500005474314,540.804999996908,1853.7300000316463,2202.5050000520423,2398.6150000127964],"total_keys":6,"block":2,"trial":199,"robot":3,"valence":"lose","action":"go","sham":1,"trial_type":"pit-trial","trial_index":213,"time_elapsed":1167832,"internal_node_id":"0.0-202.0","task_version":"battery-v0.1"},{"rune":"K","hex":"#3366ff99","correct":-1,"choice":-1,"rt":-1,"accuracy":1,"outcome":"+10","keys":[],"total_keys":0,"block":2,"trial":200,"robot":2,"valence":"win","action":"no-go","sham":0,"trial_type":"pit-trial","trial_index":214,"time_elapsed":1171844,"internal_node_id":"0.0-203.0","task_version":"battery-v0.1"},{"rune":"N","hex":"#f73b6a7A","correct":32,"choice":32,"rt":225.46499996678904,"accuracy":1,"outcome":"-10","keys":[1385.3849999723025,1726.0549999773502,2033.754999982193,2682.860000000801],"total_keys":4,"block":2,"trial":201,"robot":3,"valence":"lose","action":"go","sham":1,"trial_type":"pit-trial","trial_index":215,"time_elapsed":1174795,"internal_node_id":"0.0-204.0","task_version":"battery-v0.1"},{"rune":"K","hex":"#3366ff99","correct":-1,"choice":32,"rt":197.11500004632398,"accuracy":0,"outcome":"+10","keys":[59.009999968111515,1697.34499999322,1935.2799999760464],"total_keys":3,"block":2,"trial":202,"robot":2,"valence":"win","action":"no-go","sham":1,"trial_type":"pit-trial","trial_index":216,"time_elapsed":1177707,"internal_node_id":"0.0-205.0","task_version":"battery-v0.1"},{"rune":"F","hex":"#f73b6a7A","correct":-1,"choice":32,"rt":421.45500000333413,"accuracy":0,"outcome":"-10","keys":[1921.9699999666773,2293.2049999944866,2602.7549999998882],"total_keys":3,"block":2,"trial":203,"robot":4,"valence":"lose","action":"no-go","sham":0,"trial_type":"pit-trial","trial_index":217,"time_elapsed":1180851,"internal_node_id":"0.0-206.0","task_version":"battery-v0.1"},{"rune":"X","hex":"#f73b6a7A","correct":32,"choice":32,"rt":251.99000001884997,"accuracy":1,"outcome":"-1","keys":[238.41500002890825,1324.6300000464544,1752.8700000257231,2228.334999992512],"total_keys":4,"block":2,"trial":204,"robot":3,"valence":"lose","action":"go","sham":0,"trial_type":"pit-trial","trial_index":218,"time_elapsed":1183827,"internal_node_id":"0.0-207.0","task_version":"battery-v0.1"},{"rune":"X","hex":"#f73b6a7A","correct":32,"choice":32,"rt":194.95499995537102,"accuracy":1,"outcome":"-1","keys":[1695.175000000745,2036.3849999848753,2575.0349999871105],"total_keys":3,"block":2,"trial":205,"robot":3,"valence":"lose","action":"go","sham":0,"trial_type":"pit-trial","trial_index":219,"time_elapsed":1186747,"internal_node_id":"0.0-208.0","task_version":"battery-v0.1"},{"rune":"F","hex":"#f73b6a7A","correct":-1,"choice":32,"rt":110.0950000109151,"accuracy":0,"outcome":"-10","keys":[1253.020000003744,1610.3250000160187,1855.76000000583],"total_keys":3,"block":2,"trial":206,"robot":4,"valence":"lose","action":"no-go","sham":0,"trial_type":"pit-trial","trial_index":220,"time_elapsed":1189575,"internal_node_id":"0.0-209.0","task_version":"battery-v0.1"},{"rune":"K","hex":"#3366ff99","correct":-1,"choice":-1,"rt":-1,"accuracy":1,"outcome":"+1","keys":[3816.385000012815],"total_keys":1,"block":2,"trial":207,"robot":2,"valence":"win","action":"no-go","sham":1,"trial_type":"pit-trial","trial_index":221,"time_elapsed":1193591,"internal_node_id":"0.0-210.0","task_version":"battery-v0.1"},{"rune":"N","hex":"#f73b6a7A","correct":32,"choice":-1,"rt":-1,"accuracy":0,"outcome":"-10","keys":[130.98000001627952,1100.7000000099652,3179.2199999908917],"total_keys":3,"block":2,"trial":208,"robot":3,"valence":"lose","action":"go","sham":0,"trial_type":"pit-trial","trial_index":222,"time_elapsed":1197617,"internal_node_id":"0.0-211.0","task_version":"battery-v0.1"},{"rune":"N","hex":"#f73b6a7A","correct":32,"choice":32,"rt":145.14999999664724,"accuracy":1,"outcome":"-1","keys":[50.12999998871237,693.3250000001863,973.6900000134483,1646.080000034999,2249.805000028573,2629.9899999867193],"total_keys":6,"block":2,"trial":209,"robot":3,"valence":"lose","action":"go","sham":0,"trial_type":"pit-trial","trial_index":223,"time_elapsed":1200476,"internal_node_id":"0.0-212.0","task_version":"battery-v0.1"},{"rune":"X","hex":"#f73b6a7A","correct":32,"choice":32,"rt":510.7499999576248,"accuracy":1,"outcome":"-1","keys":[120.64499995904043,780.6149999960326,1463.3949999697506,2011.4549999707378],"total_keys":4,"block":2,"trial":210,"robot":3,"valence":"lose","action":"go","sham":0,"trial_type":"pit-trial","trial_index":224,"time_elapsed":1203715,"internal_node_id":"0.0-213.0","task_version":"battery-v0.1"},{"rune":"D","hex":"#3366ff99","correct":-1,"choice":-1,"rt":-1,"accuracy":1,"outcome":"+1","keys":[],"total_keys":0,"block":2,"trial":211,"robot":2,"valence":"win","action":"no-go","sham":1,"trial_type":"pit-trial","trial_index":225,"time_elapsed":1207756,"internal_node_id":"0.0-214.0","task_version":"battery-v0.1"},{"rune":"G","hex":"#f73b6a7A","correct":-1,"choice":32,"rt":211.40999998897314,"accuracy":0,"outcome":"-10","keys":[1260.7399999978952,1711.6399999940768,2536.9250000221655],"total_keys":3,"block":2,"trial":212,"robot":4,"valence":"lose","action":"no-go","sham":0,"trial_type":"pit-trial","trial_index":226,"time_elapsed":1210684,"internal_node_id":"0.0-215.0","task_version":"battery-v0.1"},{"rune":"X","hex":"#f73b6a7A","correct":32,"choice":32,"rt":129.43500000983477,"accuracy":1,"outcome":"-1","keys":[78.08000000659376,994.4249999825843,1629.929999995511,2330.0900000031106],"total_keys":4,"block":2,"trial":213,"robot":3,"valence":"lose","action":"go","sham":0,"trial_type":"pit-trial","trial_index":227,"time_elapsed":1213530,"internal_node_id":"0.0-216.0","task_version":"battery-v0.1"},{"rune":"N","hex":"#f73b6a7A","correct":32,"choice":32,"rt":532.4750000145286,"accuracy":1,"outcome":"-1","keys":[188.39499994646758,863.2799999904819,2034.3799999682233,2452.114999992773,2753.4349999623373],"total_keys":5,"block":2,"trial":214,"robot":3,"valence":"lose","action":"go","sham":0,"trial_type":"pit-trial","trial_index":228,"time_elapsed":1216772,"internal_node_id":"0.0-217.0","task_version":"battery-v0.1"},{"rune":"G","hex":"#f73b6a7A","correct":-1,"choice":32,"rt":514.4100000034086,"accuracy":0,"outcome":"-10","keys":[58.870000008028,2014.5050000282936,2362.9450000007637,3022.0250000129454],"total_keys":4,"block":2,"trial":215,"robot":4,"valence":"lose","action":"no-go","sham":0,"trial_type":"pit-trial","trial_index":229,"time_elapsed":1219995,"internal_node_id":"0.0-218.0","task_version":"battery-v0.1"},{"rune":"D","hex":"#3366ff99","correct":-1,"choice":32,"rt":171.56500002602115,"accuracy":0,"outcome":"+1","keys":[230.9549999772571,1671.6499999747612],"total_keys":2,"block":2,"trial":216,"robot":2,"valence":"win","action":"no-go","sham":0,"trial_type":"pit-trial","trial_index":230,"time_elapsed":1222886,"internal_node_id":"0.0-219.0","task_version":"battery-v0.1"},{"rune":"G","hex":"#f73b6a7A","correct":-1,"choice":32,"rt":494.55000000307336,"accuracy":0,"outcome":"-10","keys":[1995.4549999674782,2273.864999995567,2501.9650000031106,2714.304999972228,2954.624999954831],"total_keys":5,"block":2,"trial":217,"robot":4,"valence":"lose","action":"no-go","sham":0,"trial_type":"pit-trial","trial_index":231,"time_elapsed":1226101,"internal_node_id":"0.0-220.0","task_version":"battery-v0.1"},{"rune":"D","hex":"#3366ff99","correct":-1,"choice":32,"rt":296.77499999525025,"accuracy":0,"outcome":"+1","keys":[0.6500000017695129,245.0300000491552,1797.080000047572],"total_keys":3,"block":2,"trial":218,"robot":2,"valence":"win","action":"no-go","sham":0,"trial_type":"pit-trial","trial_index":232,"time_elapsed":1229123,"internal_node_id":"0.0-221.0","task_version":"battery-v0.1"},{"rune":"N","hex":"#f73b6a7A","correct":32,"choice":32,"rt":235.20499997539446,"accuracy":1,"outcome":"-1","keys":[1737.2400000458583,1973.4250000328757,2162.385000032373,2373.1700000353158,2556.71999999322,2778.660000010859],"total_keys":6,"block":2,"trial":219,"robot":3,"valence":"lose","action":"go","sham":0,"trial_type":"pit-trial","trial_index":233,"time_elapsed":1232068,"internal_node_id":"0.0-222.0","task_version":"battery-v0.1"},{"rune":"X","hex":"#f73b6a7A","correct":32,"choice":32,"rt":247.58999998448417,"accuracy":1,"outcome":"-10","keys":[52.64999996870756,1747.83499998739,1984.729999967385,2190.2699999627657,2367.1299999696203,2544.739999982994,2724.919999949634,2891.7599999695085],"total_keys":8,"block":2,"trial":220,"robot":3,"valence":"lose","action":"go","sham":1,"trial_type":"pit-trial","trial_index":234,"time_elapsed":1235024,"internal_node_id":"0.0-223.0","task_version":"battery-v0.1"},{"rune":"X","hex":"#f73b6a7A","correct":32,"choice":32,"rt":289.05999998096377,"accuracy":1,"outcome":"-1","keys":[91.48000000277534,280.94000002602115,493.49000002257526,1791.7149999993853,2107.255000039004,2305.0050000310875,2492.6899999845773,2690.370000025723,2871.305000036955],"total_keys":9,"block":2,"trial":221,"robot":3,"valence":"lose","action":"go","sham":0,"trial_type":"pit-trial","trial_index":235,"time_elapsed":1238033,"internal_node_id":"0.0-224.0","task_version":"battery-v0.1"},{"rune":"G","hex":"#f73b6a7A","correct":-1,"choice":32,"rt":474.3449999950826,"accuracy":0,"outcome":"-10","keys":[19.979999982751906,200.11999999405816,1974.6449999511242,2211.699999985285,2430.4750000010245,2636.6699999780394,2862.2749999631196,3038.8949999469332],"total_keys":8,"block":2,"trial":222,"robot":4,"valence":"lose","action":"no-go","sham":0,"trial_type":"pit-trial","trial_index":236,"time_elapsed":1241233,"internal_node_id":"0.0-225.0","task_version":"battery-v0.1"},{"rune":"D","hex":"#3366ff99","correct":-1,"choice":32,"rt":214.31499999016523,"accuracy":0,"outcome":"+1","keys":[44.01000001234934,411.64999996544793,704.3249999987893,1714.429999992717,1943.3749999734573],"total_keys":5,"block":2,"trial":223,"robot":2,"valence":"win","action":"no-go","sham":0,"trial_type":"pit-trial","trial_index":237,"time_elapsed":1244172,"internal_node_id":"0.0-226.0","task_version":"battery-v0.1"},{"rune":"N","hex":"#f73b6a7A","correct":32,"choice":32,"rt":563.5350000229664,"accuracy":1,"outcome":"-1","keys":[2063.655000005383,2290.770000021439,2470.5550000071526,2668.5099999886006,2817.734999989625,3040.340000006836,3252.3200000287034],"total_keys":7,"block":2,"trial":224,"robot":3,"valence":"lose","action":"go","sham":0,"trial_type":"pit-trial","trial_index":238,"time_elapsed":1247460,"internal_node_id":"0.0-227.0","task_version":"battery-v0.1"},{"rune":"N","hex":"#f73b6a7A","correct":32,"choice":32,"rt":774.6000000042841,"accuracy":1,"outcome":"-1","keys":[140.69000002928078,346.01999999722466,2275.309999997262,2679.230000008829,2993.654999998398,3251.4700000174344,3473.6200000043027],"total_keys":7,"block":2,"trial":225,"robot":3,"valence":"lose","action":"go","sham":0,"trial_type":"pit-trial","trial_index":239,"time_elapsed":1250955,"internal_node_id":"0.0-228.0","task_version":"battery-v0.1"},{"rune":"G","hex":"#f73b6a7A","correct":-1,"choice":32,"rt":231.2650000094436,"accuracy":0,"outcome":"-10","keys":[315.67500001983717,1732.0150000159629,1961.7100000032224,2185.055000009015,2387.01000000583,2617.2650000080466],"total_keys":6,"block":2,"trial":226,"robot":4,"valence":"lose","action":"no-go","sham":0,"trial_type":"pit-trial","trial_index":240,"time_elapsed":1253898,"internal_node_id":"0.0-229.0","task_version":"battery-v0.1"},{"rune":"X","hex":"#f73b6a7A","correct":32,"choice":32,"rt":619.3199999979697,"accuracy":1,"outcome":"-1","keys":[109.73499994724989,392.8049999522045,2119.6950000012293,2826.564999995753,3223.0149999959394],"total_keys":5,"block":2,"trial":227,"robot":3,"valence":"lose","action":"go","sham":0,"trial_type":"pit-trial","trial_index":241,"time_elapsed":1257237,"internal_node_id":"0.0-230.0","task_version":"battery-v0.1"},{"rune":"D","hex":"#3366ff99","correct":-1,"choice":32,"rt":480.23500002454966,"accuracy":0,"outcome":"+1","keys":[1980.5449999985285],"total_keys":1,"block":2,"trial":228,"robot":2,"valence":"win","action":"no-go","sham":0,"trial_type":"pit-trial","trial_index":242,"time_elapsed":1260425,"internal_node_id":"0.0-231.0","task_version":"battery-v0.1"},{"rune":"D","hex":"#3366ff99","correct":-1,"choice":-1,"rt":-1,"accuracy":1,"outcome":"+10","keys":[],"total_keys":0,"block":2,"trial":229,"robot":2,"valence":"win","action":"no-go","sham":0,"trial_type":"pit-trial","trial_index":243,"time_elapsed":1264443,"internal_node_id":"0.0-232.0","task_version":"battery-v0.1"},{"rune":"X","hex":"#f73b6a7A","correct":32,"choice":32,"rt":549.4100000360049,"accuracy":1,"outcome":"-1","keys":[2050.12499995064,2295.2149999910034,2508.704999985639,2752.664999978151],"total_keys":4,"block":2,"trial":230,"robot":3,"valence":"lose","action":"go","sham":0,"trial_type":"pit-trial","trial_index":244,"time_elapsed":1267708,"internal_node_id":"0.0-233.0","task_version":"battery-v0.1"},{"rune":"G","hex":"#f73b6a7A","correct":-1,"choice":-1,"rt":-1,"accuracy":1,"outcome":"-10","keys":[],"total_keys":0,"block":2,"trial":231,"robot":4,"valence":"lose","action":"no-go","sham":1,"trial_type":"pit-trial","trial_index":245,"time_elapsed":1271732,"internal_node_id":"0.0-234.0","task_version":"battery-v0.1"},{"rune":"N","hex":"#f73b6a7A","correct":32,"choice":-1,"rt":-1,"accuracy":0,"outcome":"-10","keys":[],"total_keys":0,"block":2,"trial":232,"robot":3,"valence":"lose","action":"go","sham":0,"trial_type":"pit-trial","trial_index":246,"time_elapsed":1275740,"internal_node_id":"0.0-235.0","task_version":"battery-v0.1"},{"rune":"G","hex":"#f73b6a7A","correct":-1,"choice":-1,"rt":-1,"accuracy":1,"outcome":"-10","keys":[],"total_keys":0,"block":2,"trial":233,"robot":4,"valence":"lose","action":"no-go","sham":1,"trial_type":"pit-trial","trial_index":247,"time_elapsed":1279757,"internal_node_id":"0.0-236.0","task_version":"battery-v0.1"},{"rune":"D","hex":"#3366ff99","correct":-1,"choice":-1,"rt":-1,"accuracy":1,"outcome":"+10","keys":[],"total_keys":0,"block":2,"trial":234,"robot":2,"valence":"win","action":"no-go","sham":0,"trial_type":"pit-trial","trial_index":248,"time_elapsed":1283776,"internal_node_id":"0.0-237.0","task_version":"battery-v0.1"},{"rune":"X","hex":"#f73b6a7A","correct":32,"choice":-1,"rt":-1,"accuracy":0,"outcome":"-10","keys":[],"total_keys":0,"block":2,"trial":235,"robot":3,"valence":"lose","action":"go","sham":0,"trial_type":"pit-trial","trial_index":249,"time_elapsed":1287790,"internal_node_id":"0.0-238.0","task_version":"battery-v0.1"},{"rune":"N","hex":"#f73b6a7A","correct":32,"choice":-1,"rt":-1,"accuracy":0,"outcome":"-10","keys":[],"total_keys":0,"block":2,"trial":236,"robot":3,"valence":"lose","action":"go","sham":0,"trial_type":"pit-trial","trial_index":250,"time_elapsed":1291814,"internal_node_id":"0.0-239.0","task_version":"battery-v0.1"},{"rune":"N","hex":"#f73b6a7A","correct":32,"choice":-1,"rt":-1,"accuracy":0,"outcome":"-10","keys":[],"total_keys":0,"block":2,"trial":237,"robot":3,"valence":"lose","action":"go","sham":0,"trial_type":"pit-trial","trial_index":251,"time_elapsed":1295822,"internal_node_id":"0.0-240.0","task_version":"battery-v0.1"},{"rune":"X","hex":"#f73b6a7A","correct":32,"choice":-1,"rt":-1,"accuracy":0,"outcome":"-1","keys":[],"total_keys":0,"block":2,"trial":238,"robot":3,"valence":"lose","action":"go","sham":1,"trial_type":"pit-trial","trial_index":252,"time_elapsed":1299832,"internal_node_id":"0.0-241.0","task_version":"battery-v0.1"},{"rune":"G","hex":"#f73b6a7A","correct":-1,"choice":-1,"rt":-1,"accuracy":1,"outcome":"-10","keys":[],"total_keys":0,"block":2,"trial":239,"robot":4,"valence":"lose","action":"no-go","sham":1,"trial_type":"pit-trial","trial_index":253,"time_elapsed":1303845,"internal_node_id":"0.0-242.0","task_version":"battery-v0.1"},{"rune":"D","hex":"#3366ff99","correct":-1,"choice":-1,"rt":-1,"accuracy":1,"outcome":"+10","keys":[],"total_keys":0,"block":2,"trial":240,"robot":2,"valence":"win","action":"no-go","sham":0,"trial_type":"pit-trial","trial_index":254,"time_elapsed":1307860,"internal_node_id":"0.0-243.0","task_version":"battery-v0.1"},{"view_history":"[{\"page_index\":0,\"viewing_time\":3991.6899999952875}]","rt":3992.4100000062026,"trial_type":"pit-instructions","trial_index":255,"time_elapsed":1311867,"internal_node_id":"0.0-244.0","task_version":"battery-v0.1"},{"rt":19678.674999973737,"responses":{"age":"43","gender-categorical":"Male","gender-free-response":"","ethnicity":"Not Hispanic or Latino","race":["Asian"],"language":"No","fluency":"Very well"},"survey":"demographics","trial_type":"survey-demo","trial_index":256,"time_elapsed":1331557,"internal_node_id":"0.0-245.0","task_version":"battery-v0.1"},{"rt":48069.14499995764,"responses":{"difficulty":"3","fun":"2","clarity":"4","strategy":"sometime continuous good ones and sometime continuous bad ones","feedback":"None"},"survey":"debrief","trial_type":"survey-debrief","trial_index":257,"time_elapsed":1379643,"internal_node_id":"0.0-246.0","task_version":"battery-v0.1","interactions":"[{\"event\":\"blur\",\"trial\":40,\"time\":478351},{\"event\":\"focus\",\"trial\":42,\"time\":484162},{\"event\":\"blur\",\"trial\":74,\"time\":582517},{\"event\":\"focus\",\"trial\":134,\"time\":896448},{\"event\":\"blur\",\"trial\":184,\"time\":1074475},{\"event\":\"focus\",\"trial\":187,\"time\":1086934},{\"event\":\"blur\",\"trial\":221,\"time\":1191260},{\"event\":\"focus\",\"trial\":221,\"time\":1193298},{\"event\":\"blur\",\"trial\":245,\"time\":1270596},{\"event\":\"focus\",\"trial\":255,\"time\":1311785}]"}]