[{"view_history":"[{\"page_index\":0,\"viewing_time\":10525.47499999855},{\"page_index\":1,\"viewing_time\":12566.745000000083},{\"page_index\":2,\"viewing_time\":6210.299999998824},{\"page_index\":3,\"viewing_time\":6907.885000000533},{\"page_index\":4,\"viewing_time\":10226.740000001882},{\"page_index\":5,\"viewing_time\":4140.219999997498}]","rt":50578.21499999773,"trial_type":"pit-instructions","trial_index":0,"time_elapsed":50588,"internal_node_id":"0.0-0.0-0.0","task_version":"battery-v0.1"},{"rune":"","hex":"#FFFFF080","correct":32,"choice":-1,"rt":-1,"accuracy":0,"outcome":"+0","keys":[],"total_keys":0,"block":0,"trial_type":"pit-trial","trial_index":1,"time_elapsed":54591,"internal_node_id":"0.0-0.0-1.0-0.0","task_version":"battery-v0.1"},{"rune":"","hex":"#FFFFF080","correct":32,"choice":-1,"rt":-1,"accuracy":0,"outcome":"+0","keys":[],"total_keys":0,"block":0,"trial_type":"pit-trial","trial_index":2,"time_elapsed":58596,"internal_node_id":"0.0-0.0-1.0-0.1","task_version":"battery-v0.1"},{"rune":"","hex":"#FFFFF080","correct":32,"choice":-1,"rt":-1,"accuracy":0,"outcome":"+0","keys":[],"total_keys":0,"block":0,"trial_type":"pit-trial","trial_index":3,"time_elapsed":62599,"internal_node_id":"0.0-0.0-1.0-0.2","task_version":"battery-v0.1"},{"rune":"","hex":"#FFFFF080","correct":32,"choice":32,"rt":414.05500000109896,"accuracy":1,"outcome":"+10","keys":[1914.0900000020338],"total_keys":1,"block":0,"trial_type":"pit-trial","trial_index":4,"time_elapsed":65715,"internal_node_id":"0.0-0.0-1.0-0.3","task_version":"battery-v0.1"},{"view_history":"[{\"page_index\":0,\"viewing_time\":5379.420000001119}]","rt":5379.79500000074,"trial_type":"pit-instructions","trial_index":5,"time_elapsed":71096,"internal_node_id":"0.0-0.0-2.0","task_version":"battery-v0.1"},{"rune":"","hex":"#FFFFF080","correct":-1,"choice":-1,"rt":-1,"accuracy":1,"outcome":"+10","keys":[],"total_keys":0,"block":0,"trial_type":"pit-trial","trial_index":6,"time_elapsed":75103,"internal_node_id":"0.0-0.0-3.0-0.0","task_version":"battery-v0.1"},{"rune":"","hex":"#FFFFF080","correct":-1,"choice":-1,"rt":-1,"accuracy":1,"outcome":"+10","keys":[],"total_keys":0,"block":0,"trial_type":"pit-trial","trial_index":7,"time_elapsed":79110,"internal_node_id":"0.0-0.0-3.0-0.1","task_version":"battery-v0.1"},{"rune":"","hex":"#FFFFF080","correct":-1,"choice":-1,"rt":-1,"accuracy":1,"outcome":"+10","keys":[],"total_keys":0,"block":0,"trial_type":"pit-trial","trial_index":8,"time_elapsed":83118,"internal_node_id":"0.0-0.0-3.0-0.2","task_version":"battery-v0.1"},{"rune":"","hex":"#FFFFF080","correct":-1,"choice":32,"rt":661.7049999986193,"accuracy":0,"outcome":"+0","keys":[1307.4049999995623,2161.8149999994785],"total_keys":2,"block":0,"trial_type":"pit-trial","trial_index":9,"time_elapsed":86482,"internal_node_id":"0.0-0.0-3.0-0.3","task_version":"battery-v0.1"},{"responses":["Press SPACE","Do nothing"],"num_errors":0,"rt":9159.530000000814,"trial_type":"pit-comprehension","trial_index":10,"time_elapsed":95644,"internal_node_id":"0.0-0.0-4.0","task_version":"battery-v0.1"},{"view_history":"[{\"page_index\":0,\"viewing_time\":12933.450000000448},{\"page_index\":1,\"viewing_time\":8291.655000000901},{\"page_index\":2,\"viewing_time\":6581.604999999399},{\"page_index\":3,\"viewing_time\":5006.4950000014505},{\"page_index\":4,\"viewing_time\":10295.094999997673},{\"page_index\":5,\"viewing_time\":11283.395000002201},{\"page_index\":6,\"viewing_time\":12600.930000000517},{\"page_index\":7,\"viewing_time\":4319.944999999279},{\"page_index\":8,\"viewing_time\":4005.2899999973306},{\"page_index\":9,\"viewing_time\":2610.0400000032096},{\"page_index\":10,\"viewing_time\":2418.8599999979488}]","rt":80347.19000000041,"trial_type":"pit-instructions","trial_index":11,"time_elapsed":175991,"internal_node_id":"0.0-1.0-0.0","task_version":"battery-v0.1"},{"responses":["+10","-1","True","True"],"num_errors":0,"rt":33075.424999999086,"trial_type":"pit-comprehension","trial_index":12,"time_elapsed":209067,"internal_node_id":"0.0-1.0-1.0","task_version":"battery-v0.1"},{"view_history":"[{\"page_index\":0,\"viewing_time\":5778.995000000577},{\"page_index\":1,\"viewing_time\":5040.274999999383}]","rt":10819.610000002285,"trial_type":"pit-instructions","trial_index":13,"time_elapsed":219889,"internal_node_id":"0.0-2.0","task_version":"battery-v0.1"},{"rune":"Z","hex":"#3366ff99","correct":-1,"choice":32,"rt":555.6450000003679,"accuracy":0,"outcome":"+1","keys":[2055.9849999990547],"total_keys":1,"block":1,"trial":1,"robot":2,"valence":"win","action":"no-go","sham":0,"trial_type":"pit-trial","trial_index":14,"time_elapsed":223148,"internal_node_id":"0.0-3.0","task_version":"battery-v0.1"},{"rune":"X","hex":"#3366ff99","correct":32,"choice":32,"rt":784.6150000004855,"accuracy":1,"outcome":"+1","keys":[2285.745000001043],"total_keys":1,"block":1,"trial":2,"robot":1,"valence":"win","action":"go","sham":1,"trial_type":"pit-trial","trial_index":15,"time_elapsed":226636,"internal_node_id":"0.0-4.0","task_version":"battery-v0.1"},{"rune":"W","hex":"#f73b6a7A","correct":-1,"choice":32,"rt":581.7400000014459,"accuracy":0,"outcome":"-10","keys":[2082.9950000006647],"total_keys":1,"block":1,"trial":3,"robot":4,"valence":"lose","action":"no-go","sham":0,"trial_type":"pit-trial","trial_index":16,"time_elapsed":229924,"internal_node_id":"0.0-5.0","task_version":"battery-v0.1"},{"rune":"F","hex":"#f73b6a7A","correct":-1,"choice":-1,"rt":-1,"accuracy":1,"outcome":"-1","keys":[],"total_keys":0,"block":1,"trial":4,"robot":4,"valence":"lose","action":"no-go","sham":0,"trial_type":"pit-trial","trial_index":17,"time_elapsed":233930,"internal_node_id":"0.0-6.0","task_version":"battery-v0.1"},{"rune":"Z","hex":"#3366ff99","correct":-1,"choice":32,"rt":646.4799999994284,"accuracy":0,"outcome":"+1","keys":[2147.5849999987986],"total_keys":1,"block":1,"trial":5,"robot":2,"valence":"win","action":"no-go","sham":0,"trial_type":"pit-trial","trial_index":18,"time_elapsed":237280,"internal_node_id":"0.0-7.0","task_version":"battery-v0.1"},{"rune":"X","hex":"#3366ff99","correct":32,"choice":32,"rt":793.6750000008033,"accuracy":1,"outcome":"+10","keys":[2295.239999999467],"total_keys":1,"block":1,"trial":6,"robot":1,"valence":"win","action":"go","sham":0,"trial_type":"pit-trial","trial_index":19,"time_elapsed":240778,"internal_node_id":"0.0-8.0","task_version":"battery-v0.1"},{"rune":"F","hex":"#f73b6a7A","correct":-1,"choice":-1,"rt":-1,"accuracy":1,"outcome":"-1","keys":[],"total_keys":0,"block":1,"trial":7,"robot":4,"valence":"lose","action":"no-go","sham":0,"trial_type":"pit-trial","trial_index":20,"time_elapsed":244783,"internal_node_id":"0.0-9.0","task_version":"battery-v0.1"},{"rune":"W","hex":"#f73b6a7A","correct":-1,"choice":-1,"rt":-1,"accuracy":1,"outcome":"-1","keys":[],"total_keys":0,"block":1,"trial":8,"robot":4,"valence":"lose","action":"no-go","sham":0,"trial_type":"pit-trial","trial_index":21,"time_elapsed":248792,"internal_node_id":"0.0-10.0","task_version":"battery-v0.1"},{"rune":"X","hex":"#3366ff99","correct":32,"choice":32,"rt":678.0599999983679,"accuracy":1,"outcome":"+1","keys":[2180.2799999968556],"total_keys":1,"block":1,"trial":9,"robot":1,"valence":"win","action":"go","sham":1,"trial_type":"pit-trial","trial_index":22,"time_elapsed":252175,"internal_node_id":"0.0-11.0","task_version":"battery-v0.1"},{"rune":"F","hex":"#f73b6a7A","correct":-1,"choice":-1,"rt":-1,"accuracy":1,"outcome":"-1","keys":[],"total_keys":0,"block":1,"trial":10,"robot":4,"valence":"lose","action":"no-go","sham":0,"trial_type":"pit-trial","trial_index":23,"time_elapsed":256184,"internal_node_id":"0.0-12.0","task_version":"battery-v0.1"},{"rune":"Z","hex":"#3366ff99","correct":-1,"choice":32,"rt":577.1400000012363,"accuracy":0,"outcome":"+1","keys":[2078.0350000022736],"total_keys":1,"block":1,"trial":11,"robot":2,"valence":"win","action":"no-go","sham":0,"trial_type":"pit-trial","trial_index":24,"time_elapsed":259467,"internal_node_id":"0.0-13.0","task_version":"battery-v0.1"},{"rune":"W","hex":"#f73b6a7A","correct":-1,"choice":-1,"rt":-1,"accuracy":1,"outcome":"-1","keys":[],"total_keys":0,"block":1,"trial":12,"robot":4,"valence":"lose","action":"no-go","sham":0,"trial_type":"pit-trial","trial_index":25,"time_elapsed":263472,"internal_node_id":"0.0-14.0","task_version":"battery-v0.1"},{"rune":"W","hex":"#f73b6a7A","correct":-1,"choice":-1,"rt":-1,"accuracy":1,"outcome":"-1","keys":[],"total_keys":0,"block":1,"trial":13,"robot":4,"valence":"lose","action":"no-go","sham":0,"trial_type":"pit-trial","trial_index":26,"time_elapsed":267476,"internal_node_id":"0.0-15.0","task_version":"battery-v0.1"},{"rune":"F","hex":"#f73b6a7A","correct":-1,"choice":-1,"rt":-1,"accuracy":1,"outcome":"-10","keys":[],"total_keys":0,"block":1,"trial":14,"robot":4,"valence":"lose","action":"no-go","sham":1,"trial_type":"pit-trial","trial_index":27,"time_elapsed":271483,"internal_node_id":"0.0-16.0","task_version":"battery-v0.1"},{"rune":"Z","hex":"#3366ff99","correct":-1,"choice":32,"rt":590.3649999999907,"accuracy":0,"outcome":"+1","keys":[2090.535000003001],"total_keys":1,"block":1,"trial":15,"robot":2,"valence":"win","action":"no-go","sham":0,"trial_type":"pit-trial","trial_index":28,"time_elapsed":274776,"internal_node_id":"0.0-17.0","task_version":"battery-v0.1"},{"rune":"X","hex":"#3366ff99","correct":32,"choice":32,"rt":1289.8500000010245,"accuracy":1,"outcome":"+10","keys":[2790.7149999991525],"total_keys":1,"block":1,"trial":16,"robot":1,"valence":"win","action":"go","sham":0,"trial_type":"pit-trial","trial_index":29,"time_elapsed":278772,"internal_node_id":"0.0-18.0","task_version":"battery-v0.1"},{"rune":"F","hex":"#f73b6a7A","correct":-1,"choice":32,"rt":1141.7550000005285,"accuracy":0,"outcome":"-10","keys":[2641.9649999988615],"total_keys":1,"block":1,"trial":17,"robot":4,"valence":"lose","action":"no-go","sham":0,"trial_type":"pit-trial","trial_index":30,"time_elapsed":282616,"internal_node_id":"0.0-19.0","task_version":"battery-v0.1"},{"rune":"W","hex":"#f73b6a7A","correct":-1,"choice":-1,"rt":-1,"accuracy":1,"outcome":"-1","keys":[],"total_keys":0,"block":1,"trial":18,"robot":4,"valence":"lose","action":"no-go","sham":0,"trial_type":"pit-trial","trial_index":31,"time_elapsed":286618,"internal_node_id":"0.0-20.0","task_version":"battery-v0.1"},{"rune":"Z","hex":"#3366ff99","correct":-1,"choice":32,"rt":552.3650000031921,"accuracy":0,"outcome":"+1","keys":[2052.5199999974575],"total_keys":1,"block":1,"trial":19,"robot":2,"valence":"win","action":"no-go","sham":0,"trial_type":"pit-trial","trial_index":32,"time_elapsed":289873,"internal_node_id":"0.0-21.0","task_version":"battery-v0.1"},{"rune":"X","hex":"#3366ff99","correct":32,"choice":32,"rt":681.7900000023656,"accuracy":1,"outcome":"+10","keys":[2182.710000000894],"total_keys":1,"block":1,"trial":20,"robot":1,"valence":"win","action":"go","sham":0,"trial_type":"pit-trial","trial_index":33,"time_elapsed":293261,"internal_node_id":"0.0-22.0","task_version":"battery-v0.1"},{"rune":"X","hex":"#3366ff99","correct":32,"choice":32,"rt":837.6300000017509,"accuracy":1,"outcome":"+10","keys":[2339.030000002822],"total_keys":1,"block":1,"trial":21,"robot":1,"valence":"win","action":"go","sham":0,"trial_type":"pit-trial","trial_index":34,"time_elapsed":296802,"internal_node_id":"0.0-23.0","task_version":"battery-v0.1"},{"rune":"F","hex":"#f73b6a7A","correct":-1,"choice":-1,"rt":-1,"accuracy":1,"outcome":"-1","keys":[],"total_keys":0,"block":1,"trial":22,"robot":4,"valence":"lose","action":"no-go","sham":0,"trial_type":"pit-trial","trial_index":35,"time_elapsed":300810,"internal_node_id":"0.0-24.0","task_version":"battery-v0.1"},{"rune":"W","hex":"#f73b6a7A","correct":-1,"choice":-1,"rt":-1,"accuracy":1,"outcome":"-10","keys":[],"total_keys":0,"block":1,"trial":23,"robot":4,"valence":"lose","action":"no-go","sham":1,"trial_type":"pit-trial","trial_index":36,"time_elapsed":304817,"internal_node_id":"0.0-25.0","task_version":"battery-v0.1"},{"rune":"Z","hex":"#3366ff99","correct":-1,"choice":32,"rt":655.5200000002515,"accuracy":0,"outcome":"+1","keys":[2157.5100000008824],"total_keys":1,"block":1,"trial":24,"robot":2,"valence":"win","action":"no-go","sham":0,"trial_type":"pit-trial","trial_index":37,"time_elapsed":308177,"internal_node_id":"0.0-26.0","task_version":"battery-v0.1"},{"rune":"W","hex":"#f73b6a7A","correct":-1,"choice":-1,"rt":-1,"accuracy":1,"outcome":"-1","keys":[],"total_keys":0,"block":1,"trial":25,"robot":4,"valence":"lose","action":"no-go","sham":0,"trial_type":"pit-trial","trial_index":38,"time_elapsed":312185,"internal_node_id":"0.0-27.0","task_version":"battery-v0.1"},{"rune":"X","hex":"#3366ff99","correct":32,"choice":32,"rt":478.0449999998091,"accuracy":1,"outcome":"+10","keys":[1978.4450000006473],"total_keys":1,"block":1,"trial":26,"robot":1,"valence":"win","action":"go","sham":0,"trial_type":"pit-trial","trial_index":39,"time_elapsed":315365,"internal_node_id":"0.0-28.0","task_version":"battery-v0.1"},{"rune":"Z","hex":"#3366ff99","correct":-1,"choice":32,"rt":572.1400000002468,"accuracy":0,"outcome":"+10","keys":[2072.200000002398],"total_keys":1,"block":1,"trial":27,"robot":2,"valence":"win","action":"no-go","sham":1,"trial_type":"pit-trial","trial_index":40,"time_elapsed":318640,"internal_node_id":"0.0-29.0","task_version":"battery-v0.1"},{"rune":"F","hex":"#f73b6a7A","correct":-1,"choice":-1,"rt":-1,"accuracy":1,"outcome":"-1","keys":[],"total_keys":0,"block":1,"trial":28,"robot":4,"valence":"lose","action":"no-go","sham":0,"trial_type":"pit-trial","trial_index":41,"time_elapsed":322648,"internal_node_id":"0.0-30.0","task_version":"battery-v0.1"},{"rune":"F","hex":"#f73b6a7A","correct":-1,"choice":-1,"rt":-1,"accuracy":1,"outcome":"-1","keys":[],"total_keys":0,"block":1,"trial":29,"robot":4,"valence":"lose","action":"no-go","sham":0,"trial_type":"pit-trial","trial_index":42,"time_elapsed":326651,"internal_node_id":"0.0-31.0","task_version":"battery-v0.1"},{"rune":"W","hex":"#f73b6a7A","correct":-1,"choice":-1,"rt":-1,"accuracy":1,"outcome":"-10","keys":[],"total_keys":0,"block":1,"trial":30,"robot":4,"valence":"lose","action":"no-go","sham":1,"trial_type":"pit-trial","trial_index":43,"time_elapsed":330658,"internal_node_id":"0.0-32.0","task_version":"battery-v0.1"},{"rune":"Z","hex":"#3366ff99","correct":-1,"choice":32,"rt":635.4350000001723,"accuracy":0,"outcome":"+1","keys":[2135.985000000801],"total_keys":1,"block":1,"trial":31,"robot":2,"valence":"win","action":"no-go","sham":0,"trial_type":"pit-trial","trial_index":44,"time_elapsed":333996,"internal_node_id":"0.0-33.0","task_version":"battery-v0.1"},{"rune":"X","hex":"#3366ff99","correct":32,"choice":32,"rt":751.1799999992945,"accuracy":1,"outcome":"+10","keys":[2251.445000001695],"total_keys":1,"block":1,"trial":32,"robot":1,"valence":"win","action":"go","sham":0,"trial_type":"pit-trial","trial_index":45,"time_elapsed":337449,"internal_node_id":"0.0-34.0","task_version":"battery-v0.1"},{"rune":"Z","hex":"#3366ff99","correct":-1,"choice":32,"rt":616.9500000032713,"accuracy":0,"outcome":"+1","keys":[2117.1699999977136],"total_keys":1,"block":1,"trial":33,"robot":2,"valence":"win","action":"no-go","sham":0,"trial_type":"pit-trial","trial_index":46,"time_elapsed":340772,"internal_node_id":"0.0-35.0","task_version":"battery-v0.1"},{"rune":"X","hex":"#3366ff99","correct":32,"choice":32,"rt":1265.1299999997718,"accuracy":1,"outcome":"+10","keys":[2765.7599999983795],"total_keys":1,"block":1,"trial":34,"robot":1,"valence":"win","action":"go","sham":0,"trial_type":"pit-trial","trial_index":47,"time_elapsed":344741,"internal_node_id":"0.0-36.0","task_version":"battery-v0.1"},{"rune":"S","hex":"#f73b6a7A","correct":32,"choice":-1,"rt":-1,"accuracy":0,"outcome":"-10","keys":[],"total_keys":0,"block":1,"trial":35,"robot":3,"valence":"lose","action":"go","sham":0,"trial_type":"pit-trial","trial_index":48,"time_elapsed":348747,"internal_node_id":"0.0-37.0","task_version":"battery-v0.1"},{"rune":"F","hex":"#f73b6a7A","correct":-1,"choice":-1,"rt":-1,"accuracy":1,"outcome":"-1","keys":[],"total_keys":0,"block":1,"trial":36,"robot":4,"valence":"lose","action":"no-go","sham":0,"trial_type":"pit-trial","trial_index":49,"time_elapsed":352753,"internal_node_id":"0.0-38.0","task_version":"battery-v0.1"},{"rune":"Z","hex":"#3366ff99","correct":-1,"choice":32,"rt":533.5549999981304,"accuracy":0,"outcome":"+1","keys":[2034.6199999985984],"total_keys":1,"block":1,"trial":37,"robot":2,"valence":"win","action":"no-go","sham":0,"trial_type":"pit-trial","trial_index":50,"time_elapsed":355991,"internal_node_id":"0.0-39.0","task_version":"battery-v0.1"},{"rune":"F","hex":"#f73b6a7A","correct":-1,"choice":-1,"rt":-1,"accuracy":1,"outcome":"-1","keys":[],"total_keys":0,"block":1,"trial":38,"robot":4,"valence":"lose","action":"no-go","sham":0,"trial_type":"pit-trial","trial_index":51,"time_elapsed":359998,"internal_node_id":"0.0-40.0","task_version":"battery-v0.1"},{"rune":"X","hex":"#3366ff99","correct":32,"choice":32,"rt":656.4950000029057,"accuracy":1,"outcome":"+10","keys":[2157.6849999983096],"total_keys":1,"block":1,"trial":39,"robot":1,"valence":"win","action":"go","sham":0,"trial_type":"pit-trial","trial_index":52,"time_elapsed":363359,"internal_node_id":"0.0-41.0","task_version":"battery-v0.1"},{"rune":"S","hex":"#f73b6a7A","correct":32,"choice":32,"rt":750.1100000008591,"accuracy":1,"outcome":"-1","keys":[2251.075000000128],"total_keys":1,"block":1,"trial":40,"robot":3,"valence":"lose","action":"go","sham":0,"trial_type":"pit-trial","trial_index":53,"time_elapsed":366816,"internal_node_id":"0.0-42.0","task_version":"battery-v0.1"},{"rune":"G","hex":"#3366ff99","correct":-1,"choice":32,"rt":1072.2050000004238,"accuracy":0,"outcome":"+1","keys":[2574.0550000009243],"total_keys":1,"block":1,"trial":41,"robot":2,"valence":"win","action":"no-go","sham":0,"trial_type":"pit-trial","trial_index":54,"time_elapsed":370594,"internal_node_id":"0.0-43.0","task_version":"battery-v0.1"},{"rune":"F","hex":"#f73b6a7A","correct":-1,"choice":-1,"rt":-1,"accuracy":1,"outcome":"-1","keys":[],"total_keys":0,"block":1,"trial":42,"robot":4,"valence":"lose","action":"no-go","sham":0,"trial_type":"pit-trial","trial_index":55,"time_elapsed":374598,"internal_node_id":"0.0-44.0","task_version":"battery-v0.1"},{"rune":"S","hex":"#f73b6a7A","correct":32,"choice":32,"rt":1290.9699999981676,"accuracy":1,"outcome":"-1","keys":[2791.0749999973923],"total_keys":1,"block":1,"trial":43,"robot":3,"valence":"lose","action":"go","sham":0,"trial_type":"pit-trial","trial_index":56,"time_elapsed":378590,"internal_node_id":"0.0-45.0","task_version":"battery-v0.1"},{"rune":"J","hex":"#3366ff99","correct":32,"choice":-1,"rt":-1,"accuracy":0,"outcome":"+1","keys":[],"total_keys":0,"block":1,"trial":44,"robot":1,"valence":"win","action":"go","sham":0,"trial_type":"pit-trial","trial_index":57,"time_elapsed":382596,"internal_node_id":"0.0-46.0","task_version":"battery-v0.1"},{"rune":"J","hex":"#3366ff99","correct":32,"choice":-1,"rt":-1,"accuracy":0,"outcome":"+1","keys":[],"total_keys":0,"block":1,"trial":45,"robot":1,"valence":"win","action":"go","sham":0,"trial_type":"pit-trial","trial_index":58,"time_elapsed":386598,"internal_node_id":"0.0-47.0","task_version":"battery-v0.1"},{"rune":"S","hex":"#f73b6a7A","correct":32,"choice":32,"rt":956.6450000019977,"accuracy":1,"outcome":"-10","keys":[2457.6799999995856],"total_keys":1,"block":1,"trial":46,"robot":3,"valence":"lose","action":"go","sham":1,"trial_type":"pit-trial","trial_index":59,"time_elapsed":390257,"internal_node_id":"0.0-48.0","task_version":"battery-v0.1"},{"rune":"G","hex":"#3366ff99","correct":-1,"choice":32,"rt":706.1099999991711,"accuracy":0,"outcome":"+1","keys":[2206.6500000000815],"total_keys":1,"block":1,"trial":47,"robot":2,"valence":"win","action":"no-go","sham":0,"trial_type":"pit-trial","trial_index":60,"time_elapsed":393665,"internal_node_id":"0.0-49.0","task_version":"battery-v0.1"},{"rune":"F","hex":"#f73b6a7A","correct":-1,"choice":-1,"rt":-1,"accuracy":1,"outcome":"-1","keys":[],"total_keys":0,"block":1,"trial":48,"robot":4,"valence":"lose","action":"no-go","sham":0,"trial_type":"pit-trial","trial_index":61,"time_elapsed":397673,"internal_node_id":"0.0-50.0","task_version":"battery-v0.1"},{"rune":"J","hex":"#3366ff99","correct":32,"choice":32,"rt":535.9199999984121,"accuracy":1,"outcome":"+10","keys":[2036.050000002433],"total_keys":1,"block":1,"trial":49,"robot":1,"valence":"win","action":"go","sham":0,"trial_type":"pit-trial","trial_index":62,"time_elapsed":400913,"internal_node_id":"0.0-51.0","task_version":"battery-v0.1"},{"rune":"G","hex":"#3366ff99","correct":-1,"choice":32,"rt":724.2500000029104,"accuracy":0,"outcome":"+1","keys":[2227.2699999994365],"total_keys":1,"block":1,"trial":50,"robot":2,"valence":"win","action":"no-go","sham":0,"trial_type":"pit-trial","trial_index":63,"time_elapsed":404343,"internal_node_id":"0.0-52.0","task_version":"battery-v0.1"},{"rune":"S","hex":"#f73b6a7A","correct":32,"choice":-1,"rt":-1,"accuracy":0,"outcome":"-10","keys":[],"total_keys":0,"block":1,"trial":51,"robot":3,"valence":"lose","action":"go","sham":0,"trial_type":"pit-trial","trial_index":64,"time_elapsed":408345,"internal_node_id":"0.0-53.0","task_version":"battery-v0.1"},{"rune":"M","hex":"#f73b6a7A","correct":-1,"choice":32,"rt":742.3000000016764,"accuracy":0,"outcome":"-10","keys":[2242.7949999982957],"total_keys":1,"block":1,"trial":52,"robot":4,"valence":"lose","action":"no-go","sham":0,"trial_type":"pit-trial","trial_index":65,"time_elapsed":411793,"internal_node_id":"0.0-54.0","task_version":"battery-v0.1"},{"rune":"S","hex":"#f73b6a7A","correct":32,"choice":32,"rt":625.4100000005565,"accuracy":1,"outcome":"-1","keys":[2125.615000000864],"total_keys":1,"block":1,"trial":53,"robot":3,"valence":"lose","action":"go","sham":0,"trial_type":"pit-trial","trial_index":66,"time_elapsed":415120,"internal_node_id":"0.0-55.0","task_version":"battery-v0.1"},{"rune":"M","hex":"#f73b6a7A","correct":-1,"choice":32,"rt":1110.740000000049,"accuracy":0,"outcome":"-10","keys":[2611.1949999976787],"total_keys":1,"block":1,"trial":54,"robot":4,"valence":"lose","action":"no-go","sham":0,"trial_type":"pit-trial","trial_index":67,"time_elapsed":418933,"internal_node_id":"0.0-56.0","task_version":"battery-v0.1"},{"rune":"J","hex":"#3366ff99","correct":32,"choice":32,"rt":661.9449999998324,"accuracy":1,"outcome":"+10","keys":[2162.110000001092],"total_keys":1,"block":1,"trial":55,"robot":1,"valence":"win","action":"go","sham":0,"trial_type":"pit-trial","trial_index":68,"time_elapsed":422300,"internal_node_id":"0.0-57.0","task_version":"battery-v0.1"},{"rune":"G","hex":"#3366ff99","correct":-1,"choice":-1,"rt":-1,"accuracy":1,"outcome":"+10","keys":[2980.1750000006286],"total_keys":1,"block":1,"trial":56,"robot":2,"valence":"win","action":"no-go","sham":0,"trial_type":"pit-trial","trial_index":69,"time_elapsed":426308,"internal_node_id":"0.0-58.0","task_version":"battery-v0.1"},{"rune":"S","hex":"#f73b6a7A","correct":32,"choice":32,"rt":1195.6700000009732,"accuracy":1,"outcome":"-1","keys":[2695.7650000004214],"total_keys":1,"block":1,"trial":57,"robot":3,"valence":"lose","action":"go","sham":0,"trial_type":"pit-trial","trial_index":70,"time_elapsed":430208,"internal_node_id":"0.0-59.0","task_version":"battery-v0.1"},{"rune":"J","hex":"#3366ff99","correct":32,"choice":32,"rt":1087.8200000006473,"accuracy":1,"outcome":"+1","keys":[2587.92000000173],"total_keys":1,"block":1,"trial":58,"robot":1,"valence":"win","action":"go","sham":1,"trial_type":"pit-trial","trial_index":71,"time_elapsed":434001,"internal_node_id":"0.0-60.0","task_version":"battery-v0.1"},{"rune":"G","hex":"#3366ff99","correct":-1,"choice":32,"rt":555.8849999979138,"accuracy":0,"outcome":"+1","keys":[2057.4200000010314],"total_keys":1,"block":1,"trial":59,"robot":2,"valence":"win","action":"no-go","sham":0,"trial_type":"pit-trial","trial_index":72,"time_elapsed":437260,"internal_node_id":"0.0-61.0","task_version":"battery-v0.1"},{"rune":"M","hex":"#f73b6a7A","correct":-1,"choice":-1,"rt":-1,"accuracy":1,"outcome":"-1","keys":[],"total_keys":0,"block":1,"trial":60,"robot":4,"valence":"lose","action":"no-go","sham":0,"trial_type":"pit-trial","trial_index":73,"time_elapsed":441264,"internal_node_id":"0.0-62.0","task_version":"battery-v0.1"},{"rune":"J","hex":"#3366ff99","correct":32,"choice":32,"rt":694.8950000004843,"accuracy":1,"outcome":"+1","keys":[2197.2050000003655],"total_keys":1,"block":1,"trial":61,"robot":1,"valence":"win","action":"go","sham":1,"trial_type":"pit-trial","trial_index":74,"time_elapsed":444663,"internal_node_id":"0.0-63.0","task_version":"battery-v0.1"},{"rune":"S","hex":"#f73b6a7A","correct":32,"choice":-1,"rt":-1,"accuracy":0,"outcome":"-10","keys":[],"total_keys":0,"block":1,"trial":62,"robot":3,"valence":"lose","action":"go","sham":0,"trial_type":"pit-trial","trial_index":75,"time_elapsed":448671,"internal_node_id":"0.0-64.0","task_version":"battery-v0.1"},{"rune":"M","hex":"#f73b6a7A","correct":-1,"choice":-1,"rt":-1,"accuracy":1,"outcome":"-1","keys":[],"total_keys":0,"block":1,"trial":63,"robot":4,"valence":"lose","action":"no-go","sham":0,"trial_type":"pit-trial","trial_index":76,"time_elapsed":452679,"internal_node_id":"0.0-65.0","task_version":"battery-v0.1"},{"rune":"G","hex":"#3366ff99","correct":-1,"choice":32,"rt":678.2600000005914,"accuracy":0,"outcome":"+1","keys":[2178.555000002263],"total_keys":1,"block":1,"trial":64,"robot":2,"valence":"win","action":"no-go","sham":0,"trial_type":"pit-trial","trial_index":77,"time_elapsed":456062,"internal_node_id":"0.0-66.0","task_version":"battery-v0.1"},{"rune":"J","hex":"#3366ff99","correct":32,"choice":32,"rt":579.0300000007846,"accuracy":1,"outcome":"+10","keys":[2079.51999999932],"total_keys":1,"block":1,"trial":65,"robot":1,"valence":"win","action":"go","sham":0,"trial_type":"pit-trial","trial_index":78,"time_elapsed":459347,"internal_node_id":"0.0-67.0","task_version":"battery-v0.1"},{"rune":"S","hex":"#f73b6a7A","correct":32,"choice":32,"rt":748.3399999982212,"accuracy":1,"outcome":"-1","keys":[2248.8500000035856],"total_keys":1,"block":1,"trial":66,"robot":3,"valence":"lose","action":"go","sham":0,"trial_type":"pit-trial","trial_index":79,"time_elapsed":462798,"internal_node_id":"0.0-68.0","task_version":"battery-v0.1"},{"rune":"G","hex":"#3366ff99","correct":-1,"choice":32,"rt":681.4599999997881,"accuracy":0,"outcome":"+1","keys":[2182.7350000021397],"total_keys":1,"block":1,"trial":67,"robot":2,"valence":"win","action":"no-go","sham":0,"trial_type":"pit-trial","trial_index":80,"time_elapsed":466187,"internal_node_id":"0.0-69.0","task_version":"battery-v0.1"},{"rune":"M","hex":"#f73b6a7A","correct":-1,"choice":-1,"rt":-1,"accuracy":1,"outcome":"-1","keys":[],"total_keys":0,"block":1,"trial":68,"robot":4,"valence":"lose","action":"no-go","sham":0,"trial_type":"pit-trial","trial_index":81,"time_elapsed":470192,"internal_node_id":"0.0-70.0","task_version":"battery-v0.1"},{"rune":"S","hex":"#f73b6a7A","correct":32,"choice":-1,"rt":-1,"accuracy":0,"outcome":"-10","keys":[],"total_keys":0,"block":1,"trial":69,"robot":3,"valence":"lose","action":"go","sham":0,"trial_type":"pit-trial","trial_index":82,"time_elapsed":474197,"internal_node_id":"0.0-71.0","task_version":"battery-v0.1"},{"rune":"M","hex":"#f73b6a7A","correct":-1,"choice":32,"rt":545.8049999978975,"accuracy":0,"outcome":"-10","keys":[2046.4649999994435],"total_keys":1,"block":1,"trial":70,"robot":4,"valence":"lose","action":"no-go","sham":0,"trial_type":"pit-trial","trial_index":83,"time_elapsed":477446,"internal_node_id":"0.0-72.0","task_version":"battery-v0.1"},{"rune":"G","hex":"#3366ff99","correct":-1,"choice":32,"rt":1291.1050000002142,"accuracy":0,"outcome":"+1","keys":[2791.5199999988545],"total_keys":1,"block":1,"trial":71,"robot":2,"valence":"win","action":"no-go","sham":0,"trial_type":"pit-trial","trial_index":84,"time_elapsed":481440,"internal_node_id":"0.0-73.0","task_version":"battery-v0.1"},{"rune":"J","hex":"#3366ff99","correct":32,"choice":32,"rt":637.9900000029011,"accuracy":1,"outcome":"+10","keys":[2138.050000001327],"total_keys":1,"block":1,"trial":72,"robot":1,"valence":"win","action":"go","sham":0,"trial_type":"pit-trial","trial_index":85,"time_elapsed":484781,"internal_node_id":"0.0-74.0","task_version":"battery-v0.1"},{"rune":"M","hex":"#f73b6a7A","correct":-1,"choice":-1,"rt":-1,"accuracy":1,"outcome":"-1","keys":[],"total_keys":0,"block":1,"trial":73,"robot":4,"valence":"lose","action":"no-go","sham":0,"trial_type":"pit-trial","trial_index":86,"time_elapsed":488786,"internal_node_id":"0.0-75.0","task_version":"battery-v0.1"},{"rune":"G","hex":"#3366ff99","correct":-1,"choice":32,"rt":535.4500000030384,"accuracy":0,"outcome":"+1","keys":[2037.4100000007893],"total_keys":1,"block":1,"trial":74,"robot":2,"valence":"win","action":"no-go","sham":0,"trial_type":"pit-trial","trial_index":87,"time_elapsed":492025,"internal_node_id":"0.0-76.0","task_version":"battery-v0.1"},{"rune":"L","hex":"#f73b6a7A","correct":32,"choice":32,"rt":875.9050000008428,"accuracy":1,"outcome":"-1","keys":[2376.0600000022678],"total_keys":1,"block":1,"trial":75,"robot":3,"valence":"lose","action":"go","sham":0,"trial_type":"pit-trial","trial_index":88,"time_elapsed":495605,"internal_node_id":"0.0-77.0","task_version":"battery-v0.1"},{"rune":"C","hex":"#3366ff99","correct":32,"choice":32,"rt":761.6799999996438,"accuracy":1,"outcome":"+10","keys":[2261.8250000014086],"total_keys":1,"block":1,"trial":76,"robot":1,"valence":"win","action":"go","sham":0,"trial_type":"pit-trial","trial_index":89,"time_elapsed":499069,"internal_node_id":"0.0-78.0","task_version":"battery-v0.1"},{"rune":"L","hex":"#f73b6a7A","correct":32,"choice":-1,"rt":-1,"accuracy":0,"outcome":"-10","keys":[],"total_keys":0,"block":1,"trial":77,"robot":3,"valence":"lose","action":"go","sham":0,"trial_type":"pit-trial","trial_index":90,"time_elapsed":503073,"internal_node_id":"0.0-79.0","task_version":"battery-v0.1"},{"rune":"C","hex":"#3366ff99","correct":32,"choice":32,"rt":694.6650000027148,"accuracy":1,"outcome":"+10","keys":[2195.7599999987287],"total_keys":1,"block":1,"trial":78,"robot":1,"valence":"win","action":"go","sham":0,"trial_type":"pit-trial","trial_index":91,"time_elapsed":506473,"internal_node_id":"0.0-80.0","task_version":"battery-v0.1"},{"rune":"G","hex":"#3366ff99","correct":-1,"choice":32,"rt":1233.1699999995762,"accuracy":0,"outcome":"+1","keys":[2733.2850000020117],"total_keys":1,"block":1,"trial":79,"robot":2,"valence":"win","action":"no-go","sham":0,"trial_type":"pit-trial","trial_index":92,"time_elapsed":510410,"internal_node_id":"0.0-81.0","task_version":"battery-v0.1"},{"rune":"M","hex":"#f73b6a7A","correct":-1,"choice":-1,"rt":-1,"accuracy":1,"outcome":"-1","keys":[],"total_keys":0,"block":1,"trial":80,"robot":4,"valence":"lose","action":"no-go","sham":0,"trial_type":"pit-trial","trial_index":93,"time_elapsed":514416,"internal_node_id":"0.0-82.0","task_version":"battery-v0.1"},{"rune":"G","hex":"#3366ff99","correct":-1,"choice":32,"rt":522.2649999996647,"accuracy":0,"outcome":"+10","keys":[2023.6599999989267],"total_keys":1,"block":1,"trial":81,"robot":2,"valence":"win","action":"no-go","sham":1,"trial_type":"pit-trial","trial_index":94,"time_elapsed":517641,"internal_node_id":"0.0-83.0","task_version":"battery-v0.1"},{"rune":"L","hex":"#f73b6a7A","correct":32,"choice":-1,"rt":-1,"accuracy":0,"outcome":"-10","keys":[],"total_keys":0,"block":1,"trial":82,"robot":3,"valence":"lose","action":"go","sham":0,"trial_type":"pit-trial","trial_index":95,"time_elapsed":521644,"internal_node_id":"0.0-84.0","task_version":"battery-v0.1"},{"rune":"M","hex":"#f73b6a7A","correct":-1,"choice":-1,"rt":-1,"accuracy":1,"outcome":"-1","keys":[],"total_keys":0,"block":1,"trial":83,"robot":4,"valence":"lose","action":"no-go","sham":0,"trial_type":"pit-trial","trial_index":96,"time_elapsed":525648,"internal_node_id":"0.0-85.0","task_version":"battery-v0.1"},{"rune":"C","hex":"#3366ff99","correct":32,"choice":32,"rt":519.9250000005122,"accuracy":1,"outcome":"+1","keys":[2021.890000000014],"total_keys":1,"block":1,"trial":84,"robot":1,"valence":"win","action":"go","sham":1,"trial_type":"pit-trial","trial_index":97,"time_elapsed":528872,"internal_node_id":"0.0-86.0","task_version":"battery-v0.1"},{"rune":"G","hex":"#3366ff99","correct":-1,"choice":32,"rt":479.23500000254717,"accuracy":0,"outcome":"+1","keys":[1979.3700000008103],"total_keys":1,"block":1,"trial":85,"robot":2,"valence":"win","action":"no-go","sham":0,"trial_type":"pit-trial","trial_index":98,"time_elapsed":532056,"internal_node_id":"0.0-87.0","task_version":"battery-v0.1"},{"rune":"C","hex":"#3366ff99","correct":32,"choice":32,"rt":591.6550000001444,"accuracy":1,"outcome":"+10","keys":[2091.8149999998277],"total_keys":1,"block":1,"trial":86,"robot":1,"valence":"win","action":"go","sham":0,"trial_type":"pit-trial","trial_index":99,"time_elapsed":535350,"internal_node_id":"0.0-88.0","task_version":"battery-v0.1"},{"rune":"M","hex":"#f73b6a7A","correct":-1,"choice":-1,"rt":-1,"accuracy":1,"outcome":"-1","keys":[],"total_keys":0,"block":1,"trial":87,"robot":4,"valence":"lose","action":"no-go","sham":0,"trial_type":"pit-trial","trial_index":100,"time_elapsed":539358,"internal_node_id":"0.0-89.0","task_version":"battery-v0.1"},{"rune":"L","hex":"#f73b6a7A","correct":32,"choice":32,"rt":656.6199999978999,"accuracy":1,"outcome":"-1","keys":[2158.630000001751],"total_keys":1,"block":1,"trial":88,"robot":3,"valence":"lose","action":"go","sham":0,"trial_type":"pit-trial","trial_index":101,"time_elapsed":542719,"internal_node_id":"0.0-90.0","task_version":"battery-v0.1"},{"rune":"C","hex":"#3366ff99","correct":32,"choice":32,"rt":570.8900000026915,"accuracy":1,"outcome":"+10","keys":[2071.3099999993574],"total_keys":1,"block":1,"trial":89,"robot":1,"valence":"win","action":"go","sham":0,"trial_type":"pit-trial","trial_index":102,"time_elapsed":545995,"internal_node_id":"0.0-91.0","task_version":"battery-v0.1"},{"rune":"L","hex":"#f73b6a7A","correct":32,"choice":-1,"rt":-1,"accuracy":0,"outcome":"-10","keys":[],"total_keys":0,"block":1,"trial":90,"robot":3,"valence":"lose","action":"go","sham":0,"trial_type":"pit-trial","trial_index":103,"time_elapsed":550001,"internal_node_id":"0.0-92.0","task_version":"battery-v0.1"},{"rune":"Y","hex":"#3366ff99","correct":-1,"choice":-1,"rt":-1,"accuracy":1,"outcome":"+10","keys":[],"total_keys":0,"block":1,"trial":91,"robot":2,"valence":"win","action":"no-go","sham":0,"trial_type":"pit-trial","trial_index":104,"time_elapsed":554003,"internal_node_id":"0.0-93.0","task_version":"battery-v0.1"},{"rune":"H","hex":"#f73b6a7A","correct":32,"choice":-1,"rt":-1,"accuracy":0,"outcome":"-1","keys":[],"total_keys":0,"block":1,"trial":92,"robot":3,"valence":"lose","action":"go","sham":1,"trial_type":"pit-trial","trial_index":105,"time_elapsed":558010,"internal_node_id":"0.0-94.0","task_version":"battery-v0.1"},{"rune":"Y","hex":"#3366ff99","correct":-1,"choice":32,"rt":715.0550000006333,"accuracy":0,"outcome":"+1","keys":[2215.16999999946],"total_keys":1,"block":1,"trial":93,"robot":2,"valence":"win","action":"no-go","sham":0,"trial_type":"pit-trial","trial_index":106,"time_elapsed":561428,"internal_node_id":"0.0-95.0","task_version":"battery-v0.1"},{"rune":"L","hex":"#f73b6a7A","correct":32,"choice":32,"rt":1054.4049999989802,"accuracy":1,"outcome":"-1","keys":[2555.56499999878],"total_keys":1,"block":1,"trial":94,"robot":3,"valence":"lose","action":"go","sham":0,"trial_type":"pit-trial","trial_index":107,"time_elapsed":565187,"internal_node_id":"0.0-96.0","task_version":"battery-v0.1"},{"rune":"C","hex":"#3366ff99","correct":32,"choice":32,"rt":468.6349999974482,"accuracy":1,"outcome":"+10","keys":[1968.7400000002235],"total_keys":1,"block":1,"trial":95,"robot":1,"valence":"win","action":"go","sham":0,"trial_type":"pit-trial","trial_index":108,"time_elapsed":568358,"internal_node_id":"0.0-97.0","task_version":"battery-v0.1"},{"rune":"H","hex":"#f73b6a7A","correct":32,"choice":32,"rt":728.3299999980954,"accuracy":1,"outcome":"-1","keys":[2229.000000003027],"total_keys":1,"block":1,"trial":96,"robot":3,"valence":"lose","action":"go","sham":0,"trial_type":"pit-trial","trial_index":109,"time_elapsed":571790,"internal_node_id":"0.0-98.0","task_version":"battery-v0.1"},{"rune":"C","hex":"#3366ff99","correct":32,"choice":32,"rt":547.5700000023935,"accuracy":1,"outcome":"+10","keys":[2047.6799999995856],"total_keys":1,"block":1,"trial":97,"robot":1,"valence":"win","action":"go","sham":0,"trial_type":"pit-trial","trial_index":110,"time_elapsed":575042,"internal_node_id":"0.0-99.0","task_version":"battery-v0.1"},{"rune":"H","hex":"#f73b6a7A","correct":32,"choice":32,"rt":704.9550000011222,"accuracy":1,"outcome":"-1","keys":[2205.0149999995483],"total_keys":1,"block":1,"trial":98,"robot":3,"valence":"lose","action":"go","sham":0,"trial_type":"pit-trial","trial_index":111,"time_elapsed":578450,"internal_node_id":"0.0-100.0","task_version":"battery-v0.1"},{"rune":"Y","hex":"#3366ff99","correct":-1,"choice":32,"rt":582.0800000001909,"accuracy":0,"outcome":"+1","keys":[2082.174999999581],"total_keys":1,"block":1,"trial":99,"robot":2,"valence":"win","action":"no-go","sham":0,"trial_type":"pit-trial","trial_index":112,"time_elapsed":581734,"internal_node_id":"0.0-101.0","task_version":"battery-v0.1"},{"rune":"L","hex":"#f73b6a7A","correct":32,"choice":32,"rt":853.3250000000698,"accuracy":1,"outcome":"-1","keys":[2353.5049999990733],"total_keys":1,"block":1,"trial":100,"robot":3,"valence":"lose","action":"go","sham":0,"trial_type":"pit-trial","trial_index":113,"time_elapsed":585289,"internal_node_id":"0.0-102.0","task_version":"battery-v0.1"},{"rune":"L","hex":"#f73b6a7A","correct":32,"choice":32,"rt":537.1699999995762,"accuracy":1,"outcome":"-1","keys":[2037.4599999996135],"total_keys":1,"block":1,"trial":101,"robot":3,"valence":"lose","action":"go","sham":0,"trial_type":"pit-trial","trial_index":114,"time_elapsed":588529,"internal_node_id":"0.0-103.0","task_version":"battery-v0.1"},{"rune":"Y","hex":"#3366ff99","correct":-1,"choice":32,"rt":582.5650000006426,"accuracy":0,"outcome":"+1","keys":[2083.1750000034226],"total_keys":1,"block":1,"trial":102,"robot":2,"valence":"win","action":"no-go","sham":0,"trial_type":"pit-trial","trial_index":115,"time_elapsed":591817,"internal_node_id":"0.0-104.0","task_version":"battery-v0.1"},{"rune":"H","hex":"#f73b6a7A","correct":32,"choice":32,"rt":645.7499999996508,"accuracy":1,"outcome":"-1","keys":[2147.145000002696],"total_keys":1,"block":1,"trial":103,"robot":3,"valence":"lose","action":"go","sham":0,"trial_type":"pit-trial","trial_index":116,"time_elapsed":595169,"internal_node_id":"0.0-105.0","task_version":"battery-v0.1"},{"rune":"C","hex":"#3366ff99","correct":32,"choice":32,"rt":512.6400000008289,"accuracy":1,"outcome":"+10","keys":[2012.8249999979744],"total_keys":1,"block":1,"trial":104,"robot":1,"valence":"win","action":"go","sham":0,"trial_type":"pit-trial","trial_index":117,"time_elapsed":598385,"internal_node_id":"0.0-106.0","task_version":"battery-v0.1"},{"rune":"L","hex":"#f73b6a7A","correct":32,"choice":32,"rt":750.7700000023469,"accuracy":1,"outcome":"-1","keys":[2250.919999998645],"total_keys":1,"block":1,"trial":105,"robot":3,"valence":"lose","action":"go","sham":0,"trial_type":"pit-trial","trial_index":118,"time_elapsed":601841,"internal_node_id":"0.0-107.0","task_version":"battery-v0.1"},{"rune":"H","hex":"#f73b6a7A","correct":32,"choice":-1,"rt":-1,"accuracy":0,"outcome":"-1","keys":[],"total_keys":0,"block":1,"trial":106,"robot":3,"valence":"lose","action":"go","sham":1,"trial_type":"pit-trial","trial_index":119,"time_elapsed":605843,"internal_node_id":"0.0-108.0","task_version":"battery-v0.1"},{"rune":"Y","hex":"#3366ff99","correct":-1,"choice":32,"rt":503.10499999974854,"accuracy":0,"outcome":"+10","keys":[2003.8449999992736],"total_keys":1,"block":1,"trial":107,"robot":2,"valence":"win","action":"no-go","sham":1,"trial_type":"pit-trial","trial_index":120,"time_elapsed":609052,"internal_node_id":"0.0-109.0","task_version":"battery-v0.1"},{"rune":"C","hex":"#3366ff99","correct":32,"choice":32,"rt":613.374999997206,"accuracy":1,"outcome":"+10","keys":[2113.7649999982677],"total_keys":1,"block":1,"trial":108,"robot":1,"valence":"win","action":"go","sham":0,"trial_type":"pit-trial","trial_index":121,"time_elapsed":612372,"internal_node_id":"0.0-110.0","task_version":"battery-v0.1"},{"rune":"C","hex":"#3366ff99","correct":32,"choice":32,"rt":432.67999999807216,"accuracy":1,"outcome":"+10","keys":[1932.7349999984726],"total_keys":1,"block":1,"trial":109,"robot":1,"valence":"win","action":"go","sham":0,"trial_type":"pit-trial","trial_index":122,"time_elapsed":615509,"internal_node_id":"0.0-111.0","task_version":"battery-v0.1"},{"rune":"H","hex":"#f73b6a7A","correct":32,"choice":32,"rt":614.4649999986868,"accuracy":1,"outcome":"-1","keys":[2114.669999998994],"total_keys":1,"block":1,"trial":110,"robot":3,"valence":"lose","action":"go","sham":0,"trial_type":"pit-trial","trial_index":123,"time_elapsed":618828,"internal_node_id":"0.0-112.0","task_version":"battery-v0.1"},{"rune":"L","hex":"#f73b6a7A","correct":32,"choice":-1,"rt":-1,"accuracy":0,"outcome":"-10","keys":[],"total_keys":0,"block":1,"trial":111,"robot":3,"valence":"lose","action":"go","sham":0,"trial_type":"pit-trial","trial_index":124,"time_elapsed":622835,"internal_node_id":"0.0-113.0","task_version":"battery-v0.1"},{"rune":"Y","hex":"#3366ff99","correct":-1,"choice":32,"rt":600.3999999993248,"accuracy":0,"outcome":"+1","keys":[2100.8899999979185],"total_keys":1,"block":1,"trial":112,"robot":2,"valence":"win","action":"no-go","sham":0,"trial_type":"pit-trial","trial_index":125,"time_elapsed":626138,"internal_node_id":"0.0-114.0","task_version":"battery-v0.1"},{"rune":"H","hex":"#f73b6a7A","correct":32,"choice":-1,"rt":-1,"accuracy":0,"outcome":"-1","keys":[],"total_keys":0,"block":1,"trial":113,"robot":3,"valence":"lose","action":"go","sham":1,"trial_type":"pit-trial","trial_index":126,"time_elapsed":630143,"internal_node_id":"0.0-115.0","task_version":"battery-v0.1"},{"rune":"C","hex":"#3366ff99","correct":32,"choice":32,"rt":479.38000000070315,"accuracy":1,"outcome":"+1","keys":[1981.179999998887],"total_keys":1,"block":1,"trial":114,"robot":1,"valence":"win","action":"go","sham":1,"trial_type":"pit-trial","trial_index":127,"time_elapsed":633327,"internal_node_id":"0.0-116.0","task_version":"battery-v0.1"},{"rune":"Y","hex":"#3366ff99","correct":-1,"choice":32,"rt":750.9900000004563,"accuracy":0,"outcome":"+1","keys":[2251.235000003362],"total_keys":1,"block":1,"trial":115,"robot":2,"valence":"win","action":"no-go","sham":0,"trial_type":"pit-trial","trial_index":128,"time_elapsed":636783,"internal_node_id":"0.0-117.0","task_version":"battery-v0.1"},{"rune":"L","hex":"#f73b6a7A","correct":32,"choice":-1,"rt":-1,"accuracy":0,"outcome":"-1","keys":[],"total_keys":0,"block":1,"trial":116,"robot":3,"valence":"lose","action":"go","sham":1,"trial_type":"pit-trial","trial_index":129,"time_elapsed":640788,"internal_node_id":"0.0-118.0","task_version":"battery-v0.1"},{"rune":"C","hex":"#3366ff99","correct":32,"choice":32,"rt":388.7449999966193,"accuracy":1,"outcome":"+10","keys":[1889.7250000010245],"total_keys":1,"block":1,"trial":117,"robot":1,"valence":"win","action":"go","sham":0,"trial_type":"pit-trial","trial_index":130,"time_elapsed":643879,"internal_node_id":"0.0-119.0","task_version":"battery-v0.1"},{"rune":"H","hex":"#f73b6a7A","correct":32,"choice":32,"rt":628.4400000004098,"accuracy":1,"outcome":"-1","keys":[2128.980000001262],"total_keys":1,"block":1,"trial":118,"robot":3,"valence":"lose","action":"go","sham":0,"trial_type":"pit-trial","trial_index":131,"time_elapsed":647211,"internal_node_id":"0.0-120.0","task_version":"battery-v0.1"},{"rune":"Y","hex":"#3366ff99","correct":-1,"choice":32,"rt":591.4300000004005,"accuracy":0,"outcome":"+1","keys":[2092.690000001341],"total_keys":1,"block":1,"trial":119,"robot":2,"valence":"win","action":"no-go","sham":0,"trial_type":"pit-trial","trial_index":132,"time_elapsed":650505,"internal_node_id":"0.0-121.0","task_version":"battery-v0.1"},{"rune":"L","hex":"#f73b6a7A","correct":32,"choice":-1,"rt":-1,"accuracy":0,"outcome":"-10","keys":[],"total_keys":0,"block":1,"trial":120,"robot":3,"valence":"lose","action":"go","sham":0,"trial_type":"pit-trial","trial_index":133,"time_elapsed":654510,"internal_node_id":"0.0-122.0","task_version":"battery-v0.1"},{"view_history":"[{\"page_index\":0,\"viewing_time\":15359.34500000067},{\"page_index\":1,\"viewing_time\":3308.3499999993946}]","rt":18668.010000001173,"trial_type":"pit-instructions","trial_index":134,"time_elapsed":673179,"internal_node_id":"0.0-123.0","task_version":"battery-v0.1"},{"rune":"T","hex":"#3366ff99","correct":-1,"choice":32,"rt":926.4650000005495,"accuracy":0,"outcome":"+10","keys":[2427.2700000000186],"total_keys":1,"block":2,"trial":121,"robot":2,"valence":"win","action":"no-go","sham":1,"trial_type":"pit-trial","trial_index":135,"time_elapsed":676810,"internal_node_id":"0.0-124.0","task_version":"battery-v0.1"},{"rune":"D","hex":"#3366ff99","correct":32,"choice":32,"rt":1041.9299999994691,"accuracy":1,"outcome":"+10","keys":[2542.04000000027],"total_keys":1,"block":2,"trial":122,"robot":1,"valence":"win","action":"go","sham":0,"trial_type":"pit-trial","trial_index":136,"time_elapsed":680557,"internal_node_id":"0.0-125.0","task_version":"battery-v0.1"},{"rune":"V","hex":"#f73b6a7A","correct":-1,"choice":-1,"rt":-1,"accuracy":1,"outcome":"-1","keys":[],"total_keys":0,"block":2,"trial":123,"robot":4,"valence":"lose","action":"no-go","sham":0,"trial_type":"pit-trial","trial_index":137,"time_elapsed":684566,"internal_node_id":"0.0-126.0","task_version":"battery-v0.1"},{"rune":"I","hex":"#3366ff99","correct":32,"choice":32,"rt":633.2650000003632,"accuracy":1,"outcome":"+10","keys":[2133.3049999993527],"total_keys":1,"block":2,"trial":124,"robot":1,"valence":"win","action":"go","sham":0,"trial_type":"pit-trial","trial_index":138,"time_elapsed":687901,"internal_node_id":"0.0-127.0","task_version":"battery-v0.1"},{"rune":"D","hex":"#3366ff99","correct":32,"choice":32,"rt":841.3350000010105,"accuracy":1,"outcome":"+10","keys":[2341.534999999567],"total_keys":1,"block":2,"trial":125,"robot":1,"valence":"win","action":"go","sham":0,"trial_type":"pit-trial","trial_index":139,"time_elapsed":691445,"internal_node_id":"0.0-128.0","task_version":"battery-v0.1"},{"rune":"V","hex":"#f73b6a7A","correct":-1,"choice":-1,"rt":-1,"accuracy":1,"outcome":"-10","keys":[],"total_keys":0,"block":2,"trial":126,"robot":4,"valence":"lose","action":"no-go","sham":1,"trial_type":"pit-trial","trial_index":140,"time_elapsed":695448,"internal_node_id":"0.0-129.0","task_version":"battery-v0.1"},{"rune":"I","hex":"#3366ff99","correct":32,"choice":32,"rt":642.4200000001583,"accuracy":1,"outcome":"+1","keys":[2142.504999999772],"total_keys":1,"block":2,"trial":127,"robot":1,"valence":"win","action":"go","sham":1,"trial_type":"pit-trial","trial_index":141,"time_elapsed":698792,"internal_node_id":"0.0-130.0","task_version":"battery-v0.1"},{"rune":"T","hex":"#3366ff99","correct":-1,"choice":32,"rt":941.0250000001397,"accuracy":0,"outcome":"+1","keys":[2441.189999997616],"total_keys":1,"block":2,"trial":128,"robot":2,"valence":"win","action":"no-go","sham":0,"trial_type":"pit-trial","trial_index":142,"time_elapsed":702437,"internal_node_id":"0.0-131.0","task_version":"battery-v0.1"},{"rune":"D","hex":"#3366ff99","correct":32,"choice":32,"rt":625.5799999998417,"accuracy":1,"outcome":"+1","keys":[2127.439999996568],"total_keys":1,"block":2,"trial":129,"robot":1,"valence":"win","action":"go","sham":1,"trial_type":"pit-trial","trial_index":143,"time_elapsed":705767,"internal_node_id":"0.0-132.0","task_version":"battery-v0.1"},{"rune":"T","hex":"#3366ff99","correct":-1,"choice":32,"rt":581.915000002482,"accuracy":0,"outcome":"+1","keys":[2082.4350000002887],"total_keys":1,"block":2,"trial":130,"robot":2,"valence":"win","action":"no-go","sham":0,"trial_type":"pit-trial","trial_index":144,"time_elapsed":709052,"internal_node_id":"0.0-133.0","task_version":"battery-v0.1"},{"rune":"V","hex":"#f73b6a7A","correct":-1,"choice":32,"rt":660.3399999985704,"accuracy":0,"outcome":"-10","keys":[2160.4550000011222],"total_keys":1,"block":2,"trial":131,"robot":4,"valence":"lose","action":"no-go","sham":0,"trial_type":"pit-trial","trial_index":145,"time_elapsed":712417,"internal_node_id":"0.0-134.0","task_version":"battery-v0.1"},{"rune":"I","hex":"#3366ff99","correct":32,"choice":32,"rt":455.454999999376,"accuracy":1,"outcome":"+10","keys":[1957.540000003064],"total_keys":1,"block":2,"trial":132,"robot":1,"valence":"win","action":"go","sham":0,"trial_type":"pit-trial","trial_index":146,"time_elapsed":715576,"internal_node_id":"0.0-135.0","task_version":"battery-v0.1"},{"rune":"V","hex":"#f73b6a7A","correct":-1,"choice":32,"rt":695.3099999991246,"accuracy":0,"outcome":"-10","keys":[2195.684999998659],"total_keys":1,"block":2,"trial":133,"robot":4,"valence":"lose","action":"no-go","sham":0,"trial_type":"pit-trial","trial_index":147,"time_elapsed":718974,"internal_node_id":"0.0-136.0","task_version":"battery-v0.1"},{"rune":"I","hex":"#3366ff99","correct":32,"choice":32,"rt":717.2300000019604,"accuracy":1,"outcome":"+1","keys":[2217.5550000029616],"total_keys":1,"block":2,"trial":134,"robot":1,"valence":"win","action":"go","sham":1,"trial_type":"pit-trial","trial_index":148,"time_elapsed":722396,"internal_node_id":"0.0-137.0","task_version":"battery-v0.1"},{"rune":"D","hex":"#3366ff99","correct":32,"choice":32,"rt":558.2200000025332,"accuracy":1,"outcome":"+10","keys":[2058.450000000419],"total_keys":1,"block":2,"trial":135,"robot":1,"valence":"win","action":"go","sham":0,"trial_type":"pit-trial","trial_index":149,"time_elapsed":725656,"internal_node_id":"0.0-138.0","task_version":"battery-v0.1"},{"rune":"T","hex":"#3366ff99","correct":-1,"choice":32,"rt":672.0999999997439,"accuracy":0,"outcome":"+1","keys":[2173.0400000015507],"total_keys":1,"block":2,"trial":136,"robot":2,"valence":"win","action":"no-go","sham":0,"trial_type":"pit-trial","trial_index":150,"time_elapsed":729031,"internal_node_id":"0.0-139.0","task_version":"battery-v0.1"},{"rune":"D","hex":"#3366ff99","correct":32,"choice":32,"rt":514.2549999982584,"accuracy":1,"outcome":"+10","keys":[2014.804999998887],"total_keys":1,"block":2,"trial":137,"robot":1,"valence":"win","action":"go","sham":0,"trial_type":"pit-trial","trial_index":151,"time_elapsed":732248,"internal_node_id":"0.0-140.0","task_version":"battery-v0.1"},{"rune":"I","hex":"#3366ff99","correct":32,"choice":-1,"rt":-1,"accuracy":0,"outcome":"+1","keys":[],"total_keys":0,"block":2,"trial":138,"robot":1,"valence":"win","action":"go","sham":0,"trial_type":"pit-trial","trial_index":152,"time_elapsed":736256,"internal_node_id":"0.0-141.0","task_version":"battery-v0.1"},{"rune":"T","hex":"#3366ff99","correct":-1,"choice":32,"rt":761.4099999991013,"accuracy":0,"outcome":"+1","keys":[2261.4699999976438],"total_keys":1,"block":2,"trial":139,"robot":2,"valence":"win","action":"no-go","sham":0,"trial_type":"pit-trial","trial_index":153,"time_elapsed":739719,"internal_node_id":"0.0-142.0","task_version":"battery-v0.1"},{"rune":"V","hex":"#f73b6a7A","correct":-1,"choice":-1,"rt":-1,"accuracy":1,"outcome":"-1","keys":[],"total_keys":0,"block":2,"trial":140,"robot":4,"valence":"lose","action":"no-go","sham":0,"trial_type":"pit-trial","trial_index":154,"time_elapsed":743722,"internal_node_id":"0.0-143.0","task_version":"battery-v0.1"},{"rune":"I","hex":"#3366ff99","correct":32,"choice":32,"rt":561.3300000004238,"accuracy":1,"outcome":"+10","keys":[2062.024999999325],"total_keys":1,"block":2,"trial":141,"robot":1,"valence":"win","action":"go","sham":0,"trial_type":"pit-trial","trial_index":155,"time_elapsed":746987,"internal_node_id":"0.0-144.0","task_version":"battery-v0.1"},{"rune":"V","hex":"#f73b6a7A","correct":-1,"choice":-1,"rt":-1,"accuracy":1,"outcome":"-10","keys":[],"total_keys":0,"block":2,"trial":142,"robot":4,"valence":"lose","action":"no-go","sham":1,"trial_type":"pit-trial","trial_index":156,"time_elapsed":750991,"internal_node_id":"0.0-145.0","task_version":"battery-v0.1"},{"rune":"T","hex":"#3366ff99","correct":-1,"choice":32,"rt":549.6500000008382,"accuracy":0,"outcome":"+1","keys":[2049.8700000025565],"total_keys":1,"block":2,"trial":143,"robot":2,"valence":"win","action":"no-go","sham":0,"trial_type":"pit-trial","trial_index":157,"time_elapsed":754243,"internal_node_id":"0.0-146.0","task_version":"battery-v0.1"},{"rune":"D","hex":"#3366ff99","correct":32,"choice":32,"rt":424.4500000021653,"accuracy":1,"outcome":"+10","keys":[1925.7050000014715],"total_keys":1,"block":2,"trial":144,"robot":1,"valence":"win","action":"go","sham":0,"trial_type":"pit-trial","trial_index":158,"time_elapsed":757370,"internal_node_id":"0.0-147.0","task_version":"battery-v0.1"},{"rune":"I","hex":"#3366ff99","correct":32,"choice":32,"rt":559.3800000024494,"accuracy":1,"outcome":"+1","keys":[2060.5950000026496],"total_keys":1,"block":2,"trial":145,"robot":1,"valence":"win","action":"go","sham":1,"trial_type":"pit-trial","trial_index":159,"time_elapsed":760633,"internal_node_id":"0.0-148.0","task_version":"battery-v0.1"},{"rune":"V","hex":"#f73b6a7A","correct":-1,"choice":-1,"rt":-1,"accuracy":1,"outcome":"-10","keys":[],"total_keys":0,"block":2,"trial":146,"robot":4,"valence":"lose","action":"no-go","sham":1,"trial_type":"pit-trial","trial_index":160,"time_elapsed":764642,"internal_node_id":"0.0-149.0","task_version":"battery-v0.1"},{"rune":"D","hex":"#3366ff99","correct":32,"choice":32,"rt":756.7200000012526,"accuracy":1,"outcome":"+10","keys":[2259.2049999984447],"total_keys":1,"block":2,"trial":147,"robot":1,"valence":"win","action":"go","sham":0,"trial_type":"pit-trial","trial_index":161,"time_elapsed":768104,"internal_node_id":"0.0-150.0","task_version":"battery-v0.1"},{"rune":"T","hex":"#3366ff99","correct":-1,"choice":32,"rt":401.30000000144355,"accuracy":0,"outcome":"+1","keys":[1901.50999999966],"total_keys":1,"block":2,"trial":148,"robot":2,"valence":"win","action":"no-go","sham":0,"trial_type":"pit-trial","trial_index":162,"time_elapsed":771209,"internal_node_id":"0.0-151.0","task_version":"battery-v0.1"},{"rune":"D","hex":"#3366ff99","correct":32,"choice":32,"rt":491.51500000152737,"accuracy":1,"outcome":"+10","keys":[1991.8099999995902],"total_keys":1,"block":2,"trial":149,"robot":1,"valence":"win","action":"go","sham":0,"trial_type":"pit-trial","trial_index":163,"time_elapsed":774405,"internal_node_id":"0.0-152.0","task_version":"battery-v0.1"},{"rune":"T","hex":"#3366ff99","correct":-1,"choice":32,"rt":636.7050000008894,"accuracy":0,"outcome":"+10","keys":[2137.074999998673],"total_keys":1,"block":2,"trial":150,"robot":2,"valence":"win","action":"no-go","sham":1,"trial_type":"pit-trial","trial_index":164,"time_elapsed":777744,"internal_node_id":"0.0-153.0","task_version":"battery-v0.1"},{"rune":"V","hex":"#f73b6a7A","correct":-1,"choice":32,"rt":425.07000000111293,"accuracy":0,"outcome":"-10","keys":[1925.8950000002515],"total_keys":1,"block":2,"trial":151,"robot":4,"valence":"lose","action":"no-go","sham":0,"trial_type":"pit-trial","trial_index":165,"time_elapsed":780873,"internal_node_id":"0.0-154.0","task_version":"battery-v0.1"},{"rune":"I","hex":"#3366ff99","correct":32,"choice":32,"rt":468.5350000000326,"accuracy":1,"outcome":"+10","keys":[1969.0850000005448],"total_keys":1,"block":2,"trial":152,"robot":1,"valence":"win","action":"go","sham":0,"trial_type":"pit-trial","trial_index":166,"time_elapsed":784046,"internal_node_id":"0.0-155.0","task_version":"battery-v0.1"},{"rune":"I","hex":"#3366ff99","correct":32,"choice":32,"rt":412.8850000015227,"accuracy":1,"outcome":"+10","keys":[1912.9250000006286],"total_keys":1,"block":2,"trial":153,"robot":1,"valence":"win","action":"go","sham":0,"trial_type":"pit-trial","trial_index":167,"time_elapsed":787161,"internal_node_id":"0.0-156.0","task_version":"battery-v0.1"},{"rune":"E","hex":"#3366ff99","correct":32,"choice":32,"rt":604.53000000061,"accuracy":1,"outcome":"+10","keys":[2104.9249999996973],"total_keys":1,"block":2,"trial":154,"robot":1,"valence":"win","action":"go","sham":0,"trial_type":"pit-trial","trial_index":168,"time_elapsed":790468,"internal_node_id":"0.0-157.0","task_version":"battery-v0.1"},{"rune":"T","hex":"#3366ff99","correct":-1,"choice":32,"rt":549.8200000001816,"accuracy":0,"outcome":"+1","keys":[2049.8849999967497],"total_keys":1,"block":2,"trial":155,"robot":2,"valence":"win","action":"no-go","sham":0,"trial_type":"pit-trial","trial_index":169,"time_elapsed":793721,"internal_node_id":"0.0-158.0","task_version":"battery-v0.1"},{"rune":"V","hex":"#f73b6a7A","correct":-1,"choice":32,"rt":536.3550000002142,"accuracy":0,"outcome":"-10","keys":[2036.4249999984168],"total_keys":1,"block":2,"trial":156,"robot":4,"valence":"lose","action":"no-go","sham":0,"trial_type":"pit-trial","trial_index":170,"time_elapsed":796959,"internal_node_id":"0.0-159.0","task_version":"battery-v0.1"},{"rune":"V","hex":"#f73b6a7A","correct":-1,"choice":32,"rt":401.545000000624,"accuracy":0,"outcome":"-1","keys":[1902.6599999997998],"total_keys":1,"block":2,"trial":157,"robot":4,"valence":"lose","action":"no-go","sham":1,"trial_type":"pit-trial","trial_index":171,"time_elapsed":800067,"internal_node_id":"0.0-160.0","task_version":"battery-v0.1"},{"rune":"I","hex":"#3366ff99","correct":32,"choice":32,"rt":467.4200000008568,"accuracy":1,"outcome":"+10","keys":[1967.6799999979557],"total_keys":1,"block":2,"trial":158,"robot":1,"valence":"win","action":"go","sham":0,"trial_type":"pit-trial","trial_index":172,"time_elapsed":803236,"internal_node_id":"0.0-161.0","task_version":"battery-v0.1"},{"rune":"T","hex":"#3366ff99","correct":-1,"choice":32,"rt":471.09500000078697,"accuracy":0,"outcome":"+1","keys":[1971.900000000489],"total_keys":1,"block":2,"trial":159,"robot":2,"valence":"win","action":"no-go","sham":0,"trial_type":"pit-trial","trial_index":173,"time_elapsed":806413,"internal_node_id":"0.0-162.0","task_version":"battery-v0.1"},{"rune":"E","hex":"#3366ff99","correct":32,"choice":32,"rt":388.0699999972712,"accuracy":1,"outcome":"+10","keys":[1888.409999999567],"total_keys":1,"block":2,"trial":160,"robot":1,"valence":"win","action":"go","sham":0,"trial_type":"pit-trial","trial_index":174,"time_elapsed":809503,"internal_node_id":"0.0-163.0","task_version":"battery-v0.1"},{"rune":"R","hex":"#f73b6a7A","correct":32,"choice":-1,"rt":-1,"accuracy":0,"outcome":"-10","keys":[],"total_keys":0,"block":2,"trial":161,"robot":3,"valence":"lose","action":"go","sham":0,"trial_type":"pit-trial","trial_index":175,"time_elapsed":813508,"internal_node_id":"0.0-164.0","task_version":"battery-v0.1"},{"rune":"T","hex":"#3366ff99","correct":-1,"choice":32,"rt":380.08500000066124,"accuracy":0,"outcome":"+1","keys":[1881.1399999976857],"total_keys":1,"block":2,"trial":162,"robot":2,"valence":"win","action":"no-go","sham":0,"trial_type":"pit-trial","trial_index":176,"time_elapsed":816592,"internal_node_id":"0.0-165.0","task_version":"battery-v0.1"},{"rune":"B","hex":"#f73b6a7A","correct":-1,"choice":32,"rt":626.6450000003679,"accuracy":0,"outcome":"-10","keys":[2126.9800000009127],"total_keys":1,"block":2,"trial":163,"robot":4,"valence":"lose","action":"no-go","sham":0,"trial_type":"pit-trial","trial_index":177,"time_elapsed":819922,"internal_node_id":"0.0-166.0","task_version":"battery-v0.1"},{"rune":"E","hex":"#3366ff99","correct":32,"choice":32,"rt":524.8300000020536,"accuracy":1,"outcome":"+10","keys":[2025.040000000503],"total_keys":1,"block":2,"trial":164,"robot":1,"valence":"win","action":"go","sham":0,"trial_type":"pit-trial","trial_index":178,"time_elapsed":823149,"internal_node_id":"0.0-167.0","task_version":"battery-v0.1"},{"rune":"B","hex":"#f73b6a7A","correct":-1,"choice":-1,"rt":-1,"accuracy":1,"outcome":"-1","keys":[],"total_keys":0,"block":2,"trial":165,"robot":4,"valence":"lose","action":"no-go","sham":0,"trial_type":"pit-trial","trial_index":179,"time_elapsed":827155,"internal_node_id":"0.0-168.0","task_version":"battery-v0.1"},{"rune":"R","hex":"#f73b6a7A","correct":32,"choice":32,"rt":558.5299999983981,"accuracy":1,"outcome":"-10","keys":[2060.425000003306],"total_keys":1,"block":2,"trial":166,"robot":3,"valence":"lose","action":"go","sham":1,"trial_type":"pit-trial","trial_index":180,"time_elapsed":830419,"internal_node_id":"0.0-169.0","task_version":"battery-v0.1"},{"rune":"T","hex":"#3366ff99","correct":-1,"choice":32,"rt":782.9400000009919,"accuracy":0,"outcome":"+1","keys":[2283.2200000012526],"total_keys":1,"block":2,"trial":167,"robot":2,"valence":"win","action":"no-go","sham":0,"trial_type":"pit-trial","trial_index":181,"time_elapsed":833906,"internal_node_id":"0.0-170.0","task_version":"battery-v0.1"},{"rune":"E","hex":"#3366ff99","correct":32,"choice":32,"rt":525.4549999991432,"accuracy":1,"outcome":"+10","keys":[2025.5849999993807],"total_keys":1,"block":2,"trial":168,"robot":1,"valence":"win","action":"go","sham":0,"trial_type":"pit-trial","trial_index":182,"time_elapsed":837135,"internal_node_id":"0.0-171.0","task_version":"battery-v0.1"},{"rune":"R","hex":"#f73b6a7A","correct":32,"choice":-1,"rt":-1,"accuracy":0,"outcome":"-1","keys":[],"total_keys":0,"block":2,"trial":169,"robot":3,"valence":"lose","action":"go","sham":1,"trial_type":"pit-trial","trial_index":183,"time_elapsed":841139,"internal_node_id":"0.0-172.0","task_version":"battery-v0.1"},{"rune":"E","hex":"#3366ff99","correct":32,"choice":32,"rt":402.00999999803025,"accuracy":1,"outcome":"+10","keys":[1902.239999999525],"total_keys":1,"block":2,"trial":170,"robot":1,"valence":"win","action":"go","sham":0,"trial_type":"pit-trial","trial_index":184,"time_elapsed":844247,"internal_node_id":"0.0-173.0","task_version":"battery-v0.1"},{"rune":"B","hex":"#f73b6a7A","correct":-1,"choice":-1,"rt":-1,"accuracy":1,"outcome":"-1","keys":[],"total_keys":0,"block":2,"trial":171,"robot":4,"valence":"lose","action":"no-go","sham":0,"trial_type":"pit-trial","trial_index":185,"time_elapsed":848251,"internal_node_id":"0.0-174.0","task_version":"battery-v0.1"},{"rune":"N","hex":"#3366ff99","correct":-1,"choice":32,"rt":613.5399999984074,"accuracy":0,"outcome":"+1","keys":[2114.604999998817],"total_keys":1,"block":2,"trial":172,"robot":2,"valence":"win","action":"no-go","sham":0,"trial_type":"pit-trial","trial_index":186,"time_elapsed":851571,"internal_node_id":"0.0-175.0","task_version":"battery-v0.1"},{"rune":"R","hex":"#f73b6a7A","correct":32,"choice":-1,"rt":-1,"accuracy":0,"outcome":"-10","keys":[],"total_keys":0,"block":2,"trial":173,"robot":3,"valence":"lose","action":"go","sham":0,"trial_type":"pit-trial","trial_index":187,"time_elapsed":855579,"internal_node_id":"0.0-176.0","task_version":"battery-v0.1"},{"rune":"N","hex":"#3366ff99","correct":-1,"choice":32,"rt":530.8949999997858,"accuracy":0,"outcome":"+1","keys":[2031.8000000006286],"total_keys":1,"block":2,"trial":174,"robot":2,"valence":"win","action":"no-go","sham":0,"trial_type":"pit-trial","trial_index":188,"time_elapsed":858816,"internal_node_id":"0.0-177.0","task_version":"battery-v0.1"},{"rune":"E","hex":"#3366ff99","correct":32,"choice":32,"rt":476.96500000171363,"accuracy":1,"outcome":"+10","keys":[1977.5599999993574],"total_keys":1,"block":2,"trial":175,"robot":1,"valence":"win","action":"go","sham":0,"trial_type":"pit-trial","trial_index":189,"time_elapsed":861998,"internal_node_id":"0.0-178.0","task_version":"battery-v0.1"},{"rune":"B","hex":"#f73b6a7A","correct":-1,"choice":32,"rt":558.729999997071,"accuracy":0,"outcome":"-10","keys":[2058.890000000247],"total_keys":1,"block":2,"trial":176,"robot":4,"valence":"lose","action":"no-go","sham":0,"trial_type":"pit-trial","trial_index":190,"time_elapsed":865261,"internal_node_id":"0.0-179.0","task_version":"battery-v0.1"},{"rune":"N","hex":"#3366ff99","correct":-1,"choice":32,"rt":433.1750000019092,"accuracy":0,"outcome":"+10","keys":[1933.3950000000186],"total_keys":1,"block":2,"trial":177,"robot":2,"valence":"win","action":"no-go","sham":1,"trial_type":"pit-trial","trial_index":191,"time_elapsed":868398,"internal_node_id":"0.0-180.0","task_version":"battery-v0.1"},{"rune":"E","hex":"#3366ff99","correct":32,"choice":32,"rt":526.480000000447,"accuracy":1,"outcome":"+10","keys":[2026.5849999996135],"total_keys":1,"block":2,"trial":178,"robot":1,"valence":"win","action":"go","sham":0,"trial_type":"pit-trial","trial_index":192,"time_elapsed":871626,"internal_node_id":"0.0-181.0","task_version":"battery-v0.1"},{"rune":"B","hex":"#f73b6a7A","correct":-1,"choice":-1,"rt":-1,"accuracy":1,"outcome":"-1","keys":[],"total_keys":0,"block":2,"trial":179,"robot":4,"valence":"lose","action":"no-go","sham":0,"trial_type":"pit-trial","trial_index":193,"time_elapsed":875632,"internal_node_id":"0.0-182.0","task_version":"battery-v0.1"},{"rune":"R","hex":"#f73b6a7A","correct":32,"choice":-1,"rt":-1,"accuracy":0,"outcome":"-1","keys":[],"total_keys":0,"block":2,"trial":180,"robot":3,"valence":"lose","action":"go","sham":1,"trial_type":"pit-trial","trial_index":194,"time_elapsed":879641,"internal_node_id":"0.0-183.0","task_version":"battery-v0.1"},{"rune":"R","hex":"#f73b6a7A","correct":32,"choice":-1,"rt":-1,"accuracy":0,"outcome":"-10","keys":[],"total_keys":0,"block":2,"trial":181,"robot":3,"valence":"lose","action":"go","sham":0,"trial_type":"pit-trial","trial_index":195,"time_elapsed":883645,"internal_node_id":"0.0-184.0","task_version":"battery-v0.1"},{"rune":"E","hex":"#3366ff99","correct":32,"choice":32,"rt":421.2600000028033,"accuracy":1,"outcome":"+10","keys":[1921.844999997178],"total_keys":1,"block":2,"trial":182,"robot":1,"valence":"win","action":"go","sham":0,"trial_type":"pit-trial","trial_index":196,"time_elapsed":886773,"internal_node_id":"0.0-185.0","task_version":"battery-v0.1"},{"rune":"B","hex":"#f73b6a7A","correct":-1,"choice":-1,"rt":-1,"accuracy":1,"outcome":"-1","keys":[],"total_keys":0,"block":2,"trial":183,"robot":4,"valence":"lose","action":"no-go","sham":0,"trial_type":"pit-trial","trial_index":197,"time_elapsed":890781,"internal_node_id":"0.0-186.0","task_version":"battery-v0.1"},{"rune":"N","hex":"#3366ff99","correct":-1,"choice":32,"rt":609.2900000002701,"accuracy":0,"outcome":"+1","keys":[2109.4449999982025],"total_keys":1,"block":2,"trial":184,"robot":2,"valence":"win","action":"no-go","sham":0,"trial_type":"pit-trial","trial_index":198,"time_elapsed":894093,"internal_node_id":"0.0-187.0","task_version":"battery-v0.1"},{"rune":"N","hex":"#3366ff99","correct":-1,"choice":32,"rt":514.6400000011781,"accuracy":0,"outcome":"+10","keys":[2015.5550000017975],"total_keys":1,"block":2,"trial":185,"robot":2,"valence":"win","action":"no-go","sham":1,"trial_type":"pit-trial","trial_index":199,"time_elapsed":897311,"internal_node_id":"0.0-188.0","task_version":"battery-v0.1"},{"rune":"R","hex":"#f73b6a7A","correct":32,"choice":-1,"rt":-1,"accuracy":0,"outcome":"-10","keys":[],"total_keys":0,"block":2,"trial":186,"robot":3,"valence":"lose","action":"go","sham":0,"trial_type":"pit-trial","trial_index":200,"time_elapsed":901315,"internal_node_id":"0.0-189.0","task_version":"battery-v0.1"},{"rune":"E","hex":"#3366ff99","correct":32,"choice":32,"rt":706.9250000022585,"accuracy":1,"outcome":"+10","keys":[2207.234999998007],"total_keys":1,"block":2,"trial":187,"robot":1,"valence":"win","action":"go","sham":0,"trial_type":"pit-trial","trial_index":201,"time_elapsed":904724,"internal_node_id":"0.0-190.0","task_version":"battery-v0.1"},{"rune":"B","hex":"#f73b6a7A","correct":-1,"choice":-1,"rt":-1,"accuracy":1,"outcome":"-1","keys":[],"total_keys":0,"block":2,"trial":188,"robot":4,"valence":"lose","action":"no-go","sham":0,"trial_type":"pit-trial","trial_index":202,"time_elapsed":908729,"internal_node_id":"0.0-191.0","task_version":"battery-v0.1"},{"rune":"B","hex":"#f73b6a7A","correct":-1,"choice":-1,"rt":-1,"accuracy":1,"outcome":"-1","keys":[],"total_keys":0,"block":2,"trial":189,"robot":4,"valence":"lose","action":"no-go","sham":0,"trial_type":"pit-trial","trial_index":203,"time_elapsed":912736,"internal_node_id":"0.0-192.0","task_version":"battery-v0.1"},{"rune":"R","hex":"#f73b6a7A","correct":32,"choice":-1,"rt":-1,"accuracy":0,"outcome":"-1","keys":[],"total_keys":0,"block":2,"trial":190,"robot":3,"valence":"lose","action":"go","sham":1,"trial_type":"pit-trial","trial_index":204,"time_elapsed":916744,"internal_node_id":"0.0-193.0","task_version":"battery-v0.1"},{"rune":"N","hex":"#3366ff99","correct":-1,"choice":32,"rt":440.16500000003725,"accuracy":0,"outcome":"+1","keys":[1942.9650000019465],"total_keys":1,"block":2,"trial":191,"robot":2,"valence":"win","action":"no-go","sham":0,"trial_type":"pit-trial","trial_index":205,"time_elapsed":919891,"internal_node_id":"0.0-194.0","task_version":"battery-v0.1"},{"rune":"E","hex":"#3366ff99","correct":32,"choice":32,"rt":422.95000000006985,"accuracy":1,"outcome":"+10","keys":[1923.4249999972526],"total_keys":1,"block":2,"trial":192,"robot":1,"valence":"win","action":"go","sham":0,"trial_type":"pit-trial","trial_index":206,"time_elapsed":923016,"internal_node_id":"0.0-195.0","task_version":"battery-v0.1"},{"rune":"B","hex":"#f73b6a7A","correct":-1,"choice":-1,"rt":-1,"accuracy":1,"outcome":"-1","keys":[],"total_keys":0,"block":2,"trial":193,"robot":4,"valence":"lose","action":"no-go","sham":0,"trial_type":"pit-trial","trial_index":207,"time_elapsed":927024,"internal_node_id":"0.0-196.0","task_version":"battery-v0.1"},{"rune":"Q","hex":"#f73b6a7A","correct":32,"choice":32,"rt":603.3600000010338,"accuracy":1,"outcome":"-1","keys":[2103.7599999981467],"total_keys":1,"block":2,"trial":194,"robot":3,"valence":"lose","action":"go","sham":0,"trial_type":"pit-trial","trial_index":208,"time_elapsed":930331,"internal_node_id":"0.0-197.0","task_version":"battery-v0.1"},{"rune":"N","hex":"#3366ff99","correct":-1,"choice":32,"rt":513.0800000005402,"accuracy":0,"outcome":"+10","keys":[2013.1500000025844],"total_keys":1,"block":2,"trial":195,"robot":2,"valence":"win","action":"no-go","sham":1,"trial_type":"pit-trial","trial_index":209,"time_elapsed":933547,"internal_node_id":"0.0-198.0","task_version":"battery-v0.1"},{"rune":"E","hex":"#3366ff99","correct":32,"choice":32,"rt":459.0349999999162,"accuracy":1,"outcome":"+10","keys":[1959.240000000107],"total_keys":1,"block":2,"trial":196,"robot":1,"valence":"win","action":"go","sham":0,"trial_type":"pit-trial","trial_index":210,"time_elapsed":936711,"internal_node_id":"0.0-199.0","task_version":"battery-v0.1"},{"rune":"Q","hex":"#f73b6a7A","correct":32,"choice":32,"rt":658.3949999986216,"accuracy":1,"outcome":"-1","keys":[2158.625],"total_keys":1,"block":2,"trial":197,"robot":3,"valence":"lose","action":"go","sham":0,"trial_type":"pit-trial","trial_index":211,"time_elapsed":940072,"internal_node_id":"0.0-200.0","task_version":"battery-v0.1"},{"rune":"B","hex":"#f73b6a7A","correct":-1,"choice":-1,"rt":-1,"accuracy":1,"outcome":"-1","keys":[],"total_keys":0,"block":2,"trial":198,"robot":4,"valence":"lose","action":"no-go","sham":0,"trial_type":"pit-trial","trial_index":212,"time_elapsed":944075,"internal_node_id":"0.0-201.0","task_version":"battery-v0.1"},{"rune":"N","hex":"#3366ff99","correct":-1,"choice":32,"rt":539.989999997546,"accuracy":0,"outcome":"+1","keys":[2040.0699999991339],"total_keys":1,"block":2,"trial":199,"robot":2,"valence":"win","action":"no-go","sham":0,"trial_type":"pit-trial","trial_index":213,"time_elapsed":947319,"internal_node_id":"0.0-202.0","task_version":"battery-v0.1"},{"rune":"E","hex":"#3366ff99","correct":32,"choice":32,"rt":456.2200000000885,"accuracy":1,"outcome":"+10","keys":[1957.0550000026124],"total_keys":1,"block":2,"trial":200,"robot":1,"valence":"win","action":"go","sham":0,"trial_type":"pit-trial","trial_index":214,"time_elapsed":950478,"internal_node_id":"0.0-203.0","task_version":"battery-v0.1"},{"rune":"N","hex":"#3366ff99","correct":-1,"choice":32,"rt":447.90500000084285,"accuracy":0,"outcome":"+1","keys":[1947.9400000018068],"total_keys":1,"block":2,"trial":201,"robot":2,"valence":"win","action":"no-go","sham":0,"trial_type":"pit-trial","trial_index":215,"time_elapsed":953629,"internal_node_id":"0.0-204.0","task_version":"battery-v0.1"},{"rune":"Q","hex":"#f73b6a7A","correct":32,"choice":-1,"rt":-1,"accuracy":0,"outcome":"-10","keys":[],"total_keys":0,"block":2,"trial":202,"robot":3,"valence":"lose","action":"go","sham":0,"trial_type":"pit-trial","trial_index":216,"time_elapsed":957635,"internal_node_id":"0.0-205.0","task_version":"battery-v0.1"},{"rune":"B","hex":"#f73b6a7A","correct":-1,"choice":32,"rt":457.99999999883585,"accuracy":0,"outcome":"-10","keys":[1958.0800000003073],"total_keys":1,"block":2,"trial":203,"robot":4,"valence":"lose","action":"no-go","sham":0,"trial_type":"pit-trial","trial_index":217,"time_elapsed":960794,"internal_node_id":"0.0-206.0","task_version":"battery-v0.1"},{"rune":"P","hex":"#f73b6a7A","correct":32,"choice":-1,"rt":-1,"accuracy":0,"outcome":"-10","keys":[],"total_keys":0,"block":2,"trial":204,"robot":3,"valence":"lose","action":"go","sham":0,"trial_type":"pit-trial","trial_index":218,"time_elapsed":964798,"internal_node_id":"0.0-207.0","task_version":"battery-v0.1"},{"rune":"B","hex":"#f73b6a7A","correct":-1,"choice":32,"rt":628.3300000032177,"accuracy":0,"outcome":"-10","keys":[2130.0400000000373],"total_keys":1,"block":2,"trial":205,"robot":4,"valence":"lose","action":"no-go","sham":0,"trial_type":"pit-trial","trial_index":219,"time_elapsed":968133,"internal_node_id":"0.0-208.0","task_version":"battery-v0.1"},{"rune":"N","hex":"#3366ff99","correct":-1,"choice":32,"rt":421.1500000018859,"accuracy":0,"outcome":"+1","keys":[1921.5699999985518],"total_keys":1,"block":2,"trial":206,"robot":2,"valence":"win","action":"no-go","sham":0,"trial_type":"pit-trial","trial_index":220,"time_elapsed":971258,"internal_node_id":"0.0-209.0","task_version":"battery-v0.1"},{"rune":"P","hex":"#f73b6a7A","correct":32,"choice":-1,"rt":-1,"accuracy":0,"outcome":"-10","keys":[],"total_keys":0,"block":2,"trial":207,"robot":3,"valence":"lose","action":"go","sham":0,"trial_type":"pit-trial","trial_index":221,"time_elapsed":975261,"internal_node_id":"0.0-210.0","task_version":"battery-v0.1"},{"rune":"Q","hex":"#f73b6a7A","correct":32,"choice":-1,"rt":-1,"accuracy":0,"outcome":"-10","keys":[],"total_keys":0,"block":2,"trial":208,"robot":3,"valence":"lose","action":"go","sham":0,"trial_type":"pit-trial","trial_index":222,"time_elapsed":979265,"internal_node_id":"0.0-211.0","task_version":"battery-v0.1"},{"rune":"U","hex":"#f73b6a7A","correct":-1,"choice":32,"rt":607.0350000008475,"accuracy":0,"outcome":"-10","keys":[2107.9599999976344],"total_keys":1,"block":2,"trial":209,"robot":4,"valence":"lose","action":"no-go","sham":0,"trial_type":"pit-trial","trial_index":223,"time_elapsed":982576,"internal_node_id":"0.0-212.0","task_version":"battery-v0.1"},{"rune":"P","hex":"#f73b6a7A","correct":32,"choice":32,"rt":771.635000001057,"accuracy":1,"outcome":"-1","keys":[2272.2150000008987],"total_keys":1,"block":2,"trial":210,"robot":3,"valence":"lose","action":"go","sham":0,"trial_type":"pit-trial","trial_index":224,"time_elapsed":986053,"internal_node_id":"0.0-213.0","task_version":"battery-v0.1"},{"rune":"K","hex":"#3366ff99","correct":-1,"choice":32,"rt":668.9150000018999,"accuracy":0,"outcome":"+1","keys":[2170.5249999978114],"total_keys":1,"block":2,"trial":211,"robot":2,"valence":"win","action":"no-go","sham":0,"trial_type":"pit-trial","trial_index":225,"time_elapsed":989427,"internal_node_id":"0.0-214.0","task_version":"battery-v0.1"},{"rune":"Q","hex":"#f73b6a7A","correct":32,"choice":-1,"rt":-1,"accuracy":0,"outcome":"-10","keys":[],"total_keys":0,"block":2,"trial":212,"robot":3,"valence":"lose","action":"go","sham":0,"trial_type":"pit-trial","trial_index":226,"time_elapsed":993429,"internal_node_id":"0.0-215.0","task_version":"battery-v0.1"},{"rune":"P","hex":"#f73b6a7A","correct":32,"choice":32,"rt":595.9900000016205,"accuracy":1,"outcome":"-1","keys":[2096.2350000009174],"total_keys":1,"block":2,"trial":213,"robot":3,"valence":"lose","action":"go","sham":0,"trial_type":"pit-trial","trial_index":227,"time_elapsed":996729,"internal_node_id":"0.0-216.0","task_version":"battery-v0.1"},{"rune":"K","hex":"#3366ff99","correct":-1,"choice":32,"rt":545.5299999993294,"accuracy":0,"outcome":"+1","keys":[2047.5100000003586],"total_keys":1,"block":2,"trial":214,"robot":2,"valence":"win","action":"no-go","sham":0,"trial_type":"pit-trial","trial_index":228,"time_elapsed":999981,"internal_node_id":"0.0-217.0","task_version":"battery-v0.1"},{"rune":"U","hex":"#f73b6a7A","correct":-1,"choice":32,"rt":544.9750000006752,"accuracy":0,"outcome":"-10","keys":[2046.904999999213],"total_keys":1,"block":2,"trial":215,"robot":4,"valence":"lose","action":"no-go","sham":0,"trial_type":"pit-trial","trial_index":229,"time_elapsed":1003232,"internal_node_id":"0.0-218.0","task_version":"battery-v0.1"},{"rune":"Q","hex":"#f73b6a7A","correct":32,"choice":32,"rt":634.4049999970011,"accuracy":1,"outcome":"-1","keys":[2136.6049999997485],"total_keys":1,"block":2,"trial":216,"robot":3,"valence":"lose","action":"go","sham":0,"trial_type":"pit-trial","trial_index":230,"time_elapsed":1006570,"internal_node_id":"0.0-219.0","task_version":"battery-v0.1"},{"rune":"U","hex":"#f73b6a7A","correct":-1,"choice":-1,"rt":-1,"accuracy":1,"outcome":"-1","keys":[],"total_keys":0,"block":2,"trial":217,"robot":4,"valence":"lose","action":"no-go","sham":0,"trial_type":"pit-trial","trial_index":231,"time_elapsed":1010573,"internal_node_id":"0.0-220.0","task_version":"battery-v0.1"},{"rune":"K","hex":"#3366ff99","correct":-1,"choice":32,"rt":460.93000000109896,"accuracy":0,"outcome":"+10","keys":[1962.2149999996182],"total_keys":1,"block":2,"trial":218,"robot":2,"valence":"win","action":"no-go","sham":1,"trial_type":"pit-trial","trial_index":232,"time_elapsed":1013740,"internal_node_id":"0.0-221.0","task_version":"battery-v0.1"},{"rune":"P","hex":"#f73b6a7A","correct":32,"choice":-1,"rt":-1,"accuracy":0,"outcome":"-10","keys":[],"total_keys":0,"block":2,"trial":219,"robot":3,"valence":"lose","action":"go","sham":0,"trial_type":"pit-trial","trial_index":233,"time_elapsed":1017748,"internal_node_id":"0.0-222.0","task_version":"battery-v0.1"},{"rune":"Q","hex":"#f73b6a7A","correct":32,"choice":32,"rt":522.0200000002515,"accuracy":1,"outcome":"-1","keys":[2022.3549999973038],"total_keys":1,"block":2,"trial":220,"robot":3,"valence":"lose","action":"go","sham":0,"trial_type":"pit-trial","trial_index":234,"time_elapsed":1020975,"internal_node_id":"0.0-223.0","task_version":"battery-v0.1"},{"rune":"Q","hex":"#f73b6a7A","correct":32,"choice":32,"rt":453.6650000009686,"accuracy":1,"outcome":"-10","keys":[1954.7250000032363],"total_keys":1,"block":2,"trial":221,"robot":3,"valence":"lose","action":"go","sham":1,"trial_type":"pit-trial","trial_index":235,"time_elapsed":1024132,"internal_node_id":"0.0-224.0","task_version":"battery-v0.1"},{"rune":"K","hex":"#3366ff99","correct":-1,"choice":32,"rt":403.5199999999022,"accuracy":0,"outcome":"+1","keys":[1903.7349999998696],"total_keys":1,"block":2,"trial":222,"robot":2,"valence":"win","action":"no-go","sham":0,"trial_type":"pit-trial","trial_index":236,"time_elapsed":1027239,"internal_node_id":"0.0-225.0","task_version":"battery-v0.1"},{"rune":"P","hex":"#f73b6a7A","correct":32,"choice":-1,"rt":-1,"accuracy":0,"outcome":"-1","keys":[],"total_keys":0,"block":2,"trial":223,"robot":3,"valence":"lose","action":"go","sham":1,"trial_type":"pit-trial","trial_index":237,"time_elapsed":1031243,"internal_node_id":"0.0-226.0","task_version":"battery-v0.1"},{"rune":"U","hex":"#f73b6a7A","correct":-1,"choice":32,"rt":458.3249999996042,"accuracy":0,"outcome":"-1","keys":[1958.3849999981467],"total_keys":1,"block":2,"trial":224,"robot":4,"valence":"lose","action":"no-go","sham":1,"trial_type":"pit-trial","trial_index":238,"time_elapsed":1034407,"internal_node_id":"0.0-227.0","task_version":"battery-v0.1"},{"rune":"K","hex":"#3366ff99","correct":-1,"choice":32,"rt":152.53999999910593,"accuracy":0,"outcome":"+1","keys":[1652.6300000004703],"total_keys":1,"block":2,"trial":225,"robot":2,"valence":"win","action":"no-go","sham":0,"trial_type":"pit-trial","trial_index":239,"time_elapsed":1037263,"internal_node_id":"0.0-228.0","task_version":"battery-v0.1"},{"rune":"Q","hex":"#f73b6a7A","correct":32,"choice":32,"rt":613.9199999996927,"accuracy":1,"outcome":"-1","keys":[2115.2200000032317],"total_keys":1,"block":2,"trial":226,"robot":3,"valence":"lose","action":"go","sham":0,"trial_type":"pit-trial","trial_index":240,"time_elapsed":1040580,"internal_node_id":"0.0-229.0","task_version":"battery-v0.1"},{"rune":"P","hex":"#f73b6a7A","correct":32,"choice":-1,"rt":-1,"accuracy":0,"outcome":"-10","keys":[],"total_keys":0,"block":2,"trial":227,"robot":3,"valence":"lose","action":"go","sham":0,"trial_type":"pit-trial","trial_index":241,"time_elapsed":1044582,"internal_node_id":"0.0-230.0","task_version":"battery-v0.1"},{"rune":"U","hex":"#f73b6a7A","correct":-1,"choice":-1,"rt":-1,"accuracy":1,"outcome":"-1","keys":[],"total_keys":0,"block":2,"trial":228,"robot":4,"valence":"lose","action":"no-go","sham":0,"trial_type":"pit-trial","trial_index":242,"time_elapsed":1048586,"internal_node_id":"0.0-231.0","task_version":"battery-v0.1"},{"rune":"P","hex":"#f73b6a7A","correct":32,"choice":32,"rt":519.1999999987893,"accuracy":1,"outcome":"-1","keys":[2019.9700000011362],"total_keys":1,"block":2,"trial":229,"robot":3,"valence":"lose","action":"go","sham":0,"trial_type":"pit-trial","trial_index":243,"time_elapsed":1051810,"internal_node_id":"0.0-232.0","task_version":"battery-v0.1"},{"rune":"Q","hex":"#f73b6a7A","correct":32,"choice":32,"rt":580.3250000025146,"accuracy":1,"outcome":"-1","keys":[2080.5],"total_keys":1,"block":2,"trial":230,"robot":3,"valence":"lose","action":"go","sham":0,"trial_type":"pit-trial","trial_index":244,"time_elapsed":1055092,"internal_node_id":"0.0-233.0","task_version":"battery-v0.1"},{"rune":"U","hex":"#f73b6a7A","correct":-1,"choice":-1,"rt":-1,"accuracy":1,"outcome":"-1","keys":[],"total_keys":0,"block":2,"trial":231,"robot":4,"valence":"lose","action":"no-go","sham":0,"trial_type":"pit-trial","trial_index":245,"time_elapsed":1059096,"internal_node_id":"0.0-234.0","task_version":"battery-v0.1"},{"rune":"K","hex":"#3366ff99","correct":-1,"choice":32,"rt":505.3999999980442,"accuracy":0,"outcome":"+10","keys":[2006.0000000011642],"total_keys":1,"block":2,"trial":232,"robot":2,"valence":"win","action":"no-go","sham":1,"trial_type":"pit-trial","trial_index":246,"time_elapsed":1062306,"internal_node_id":"0.0-235.0","task_version":"battery-v0.1"},{"rune":"Q","hex":"#f73b6a7A","correct":32,"choice":32,"rt":557.7199999971781,"accuracy":1,"outcome":"-1","keys":[2058.769999999553],"total_keys":1,"block":2,"trial":233,"robot":3,"valence":"lose","action":"go","sham":0,"trial_type":"pit-trial","trial_index":247,"time_elapsed":1065567,"internal_node_id":"0.0-236.0","task_version":"battery-v0.1"},{"rune":"K","hex":"#3366ff99","correct":-1,"choice":32,"rt":468.54500000341795,"accuracy":0,"outcome":"+10","keys":[1970.1749999986496],"total_keys":1,"block":2,"trial":234,"robot":2,"valence":"win","action":"no-go","sham":1,"trial_type":"pit-trial","trial_index":248,"time_elapsed":1068738,"internal_node_id":"0.0-237.0","task_version":"battery-v0.1"},{"rune":"P","hex":"#f73b6a7A","correct":32,"choice":32,"rt":482.77500000060536,"accuracy":1,"outcome":"-1","keys":[1982.830000000773],"total_keys":1,"block":2,"trial":235,"robot":3,"valence":"lose","action":"go","sham":0,"trial_type":"pit-trial","trial_index":249,"time_elapsed":1071925,"internal_node_id":"0.0-238.0","task_version":"battery-v0.1"},{"rune":"U","hex":"#f73b6a7A","correct":-1,"choice":-1,"rt":-1,"accuracy":1,"outcome":"-1","keys":[],"total_keys":0,"block":2,"trial":236,"robot":4,"valence":"lose","action":"no-go","sham":0,"trial_type":"pit-trial","trial_index":250,"time_elapsed":1075929,"internal_node_id":"0.0-239.0","task_version":"battery-v0.1"},{"rune":"Q","hex":"#f73b6a7A","correct":32,"choice":32,"rt":457.4949999987148,"accuracy":1,"outcome":"-1","keys":[1957.6149999992922],"total_keys":1,"block":2,"trial":237,"robot":3,"valence":"lose","action":"go","sham":0,"trial_type":"pit-trial","trial_index":251,"time_elapsed":1079089,"internal_node_id":"0.0-240.0","task_version":"battery-v0.1"},{"rune":"K","hex":"#3366ff99","correct":-1,"choice":32,"rt":435.35999999940395,"accuracy":0,"outcome":"+1","keys":[1936.525000001071],"total_keys":1,"block":2,"trial":238,"robot":2,"valence":"win","action":"no-go","sham":0,"trial_type":"pit-trial","trial_index":252,"time_elapsed":1082228,"internal_node_id":"0.0-241.0","task_version":"battery-v0.1"},{"rune":"P","hex":"#f73b6a7A","correct":32,"choice":32,"rt":658.4750000000931,"accuracy":1,"outcome":"-10","keys":[2160.9199999985285],"total_keys":1,"block":2,"trial":239,"robot":3,"valence":"lose","action":"go","sham":1,"trial_type":"pit-trial","trial_index":253,"time_elapsed":1085593,"internal_node_id":"0.0-242.0","task_version":"battery-v0.1"},{"rune":"U","hex":"#f73b6a7A","correct":-1,"choice":-1,"rt":-1,"accuracy":1,"outcome":"-1","keys":[],"total_keys":0,"block":2,"trial":240,"robot":4,"valence":"lose","action":"no-go","sham":0,"trial_type":"pit-trial","trial_index":254,"time_elapsed":1089597,"internal_node_id":"0.0-243.0","task_version":"battery-v0.1"},{"view_history":"[{\"page_index\":0,\"viewing_time\":2904.4350000002887}]","rt":2904.795000002254,"trial_type":"pit-instructions","trial_index":255,"time_elapsed":1092503,"internal_node_id":"0.0-244.0","task_version":"battery-v0.1"},{"rt":15411.964999999152,"responses":{"age":"55","gender-categorical":"Female","gender-free-response":"","ethnicity":"Not Hispanic or Latino","race":["White"],"language":"Yes","fluency":"Very well"},"survey":"demographics","trial_type":"survey-demo","trial_index":256,"time_elapsed":1107916,"internal_node_id":"0.0-245.0","task_version":"battery-v0.1"},{"rt":41726.29500000039,"responses":{"difficulty":"2","fun":"5","clarity":"4","strategy":"I tried to memorize the symbols that gave me the most points.","feedback":"No additional comments. Thank you."},"survey":"debrief","trial_type":"survey-debrief","trial_index":257,"time_elapsed":1149643,"internal_node_id":"0.0-246.0","task_version":"battery-v0.1","interactions":"[{\"event\":\"blur\",\"trial\":11,\"time\":106399},{\"event\":\"focus\",\"trial\":11,\"time\":107918}]"}]