[{"view_history":"[{\"page_index\":0,\"viewing_time\":3890.1199999963865},{\"page_index\":1,\"viewing_time\":4623.0649999924935},{\"page_index\":2,\"viewing_time\":2183.61000000732},{\"page_index\":3,\"viewing_time\":8096.315000002505},{\"page_index\":4,\"viewing_time\":5583.899999997811},{\"page_index\":5,\"viewing_time\":7543.814999982715}]","rt":31921.524999983376,"trial_type":"pit-instructions","trial_index":0,"time_elapsed":31935,"internal_node_id":"0.0-0.0-0.0","task_version":"battery-v0.1"},{"rune":"","hex":"#FFFFF080","correct":32,"choice":32,"rt":246.68499999097548,"accuracy":1,"outcome":"+10","keys":[1747.3149999859743],"total_keys":1,"block":0,"trial_type":"pit-trial","trial_index":1,"time_elapsed":34889,"internal_node_id":"0.0-0.0-1.0-0.0","task_version":"battery-v0.1"},{"rune":"","hex":"#FFFFF080","correct":32,"choice":32,"rt":242.80000000726432,"accuracy":1,"outcome":"+10","keys":[1743.830000021262],"total_keys":1,"block":0,"trial_type":"pit-trial","trial_index":2,"time_elapsed":37848,"internal_node_id":"0.0-0.0-1.0-0.1","task_version":"battery-v0.1"},{"rune":"","hex":"#FFFFF080","correct":32,"choice":32,"rt":244.36499999137595,"accuracy":1,"outcome":"+10","keys":[1745.744999992894],"total_keys":1,"block":0,"trial_type":"pit-trial","trial_index":3,"time_elapsed":40799,"internal_node_id":"0.0-0.0-1.0-0.2","task_version":"battery-v0.1"},{"rune":"","hex":"#FFFFF080","correct":32,"choice":32,"rt":373.9649999770336,"accuracy":1,"outcome":"+10","keys":[1874.2349999956787],"total_keys":1,"block":0,"trial_type":"pit-trial","trial_index":4,"time_elapsed":43887,"internal_node_id":"0.0-0.0-1.0-0.3","task_version":"battery-v0.1"},{"view_history":"[{\"page_index\":0,\"viewing_time\":3594.745000009425}]","rt":3595.0099999899976,"trial_type":"pit-instructions","trial_index":5,"time_elapsed":47486,"internal_node_id":"0.0-0.0-2.0","task_version":"battery-v0.1"},{"rune":"","hex":"#FFFFF080","correct":-1,"choice":-1,"rt":-1,"accuracy":1,"outcome":"+10","keys":[],"total_keys":0,"block":0,"trial_type":"pit-trial","trial_index":6,"time_elapsed":51492,"internal_node_id":"0.0-0.0-3.0-0.0","task_version":"battery-v0.1"},{"rune":"","hex":"#FFFFF080","correct":-1,"choice":-1,"rt":-1,"accuracy":1,"outcome":"+10","keys":[],"total_keys":0,"block":0,"trial_type":"pit-trial","trial_index":7,"time_elapsed":55503,"internal_node_id":"0.0-0.0-3.0-0.1","task_version":"battery-v0.1"},{"rune":"","hex":"#FFFFF080","correct":-1,"choice":-1,"rt":-1,"accuracy":1,"outcome":"+10","keys":[],"total_keys":0,"block":0,"trial_type":"pit-trial","trial_index":8,"time_elapsed":59510,"internal_node_id":"0.0-0.0-3.0-0.2","task_version":"battery-v0.1"},{"rune":"","hex":"#FFFFF080","correct":-1,"choice":-1,"rt":-1,"accuracy":1,"outcome":"+10","keys":[],"total_keys":0,"block":0,"trial_type":"pit-trial","trial_index":9,"time_elapsed":63518,"internal_node_id":"0.0-0.0-3.0-0.3","task_version":"battery-v0.1"},{"responses":["Press SPACE","Do nothing"],"num_errors":0,"rt":8010.290000005625,"trial_type":"pit-comprehension","trial_index":10,"time_elapsed":71535,"internal_node_id":"0.0-0.0-4.0","task_version":"battery-v0.1"},{"view_history":"[{\"page_index\":0,\"viewing_time\":6918.200000014622},{\"page_index\":1,\"viewing_time\":9135.600000008708},{\"page_index\":2,\"viewing_time\":10551.844999979949},{\"page_index\":3,\"viewing_time\":6543.839999998454},{\"page_index\":4,\"viewing_time\":10879.899999999907},{\"page_index\":5,\"viewing_time\":17120.71499999729},{\"page_index\":6,\"viewing_time\":15079.480000014883},{\"page_index\":7,\"viewing_time\":7567.95999998576},{\"page_index\":8,\"viewing_time\":6400.8299999986775},{\"page_index\":9,\"viewing_time\":3519.5999999996275},{\"page_index\":10,\"viewing_time\":3063.635000027716}]","rt":96781.94500002428,"trial_type":"pit-instructions","trial_index":11,"time_elapsed":168326,"internal_node_id":"0.0-1.0-0.0","task_version":"battery-v0.1"},{"responses":["+10","-1","True","True"],"num_errors":0,"rt":15402.969999995548,"trial_type":"pit-comprehension","trial_index":12,"time_elapsed":183735,"internal_node_id":"0.0-1.0-1.0","task_version":"battery-v0.1"},{"view_history":"[{\"page_index\":0,\"viewing_time\":3208.7400000018533},{\"page_index\":1,\"viewing_time\":4664.04999999213}]","rt":7873.060000012629,"trial_type":"pit-instructions","trial_index":13,"time_elapsed":191614,"internal_node_id":"0.0-2.0","task_version":"battery-v0.1"},{"rune":"H","hex":"#3366ff99","correct":32,"choice":32,"rt":406.24499999103136,"accuracy":1,"outcome":"+10","keys":[1907.3700000008103],"total_keys":1,"block":1,"trial":1,"robot":1,"valence":"win","action":"go","sham":0,"trial_type":"pit-trial","trial_index":14,"time_elapsed":194728,"internal_node_id":"0.0-3.0","task_version":"battery-v0.1"},{"rune":"S","hex":"#f73b6a7A","correct":-1,"choice":-1,"rt":-1,"accuracy":1,"outcome":"-1","keys":[],"total_keys":0,"block":1,"trial":2,"robot":4,"valence":"lose","action":"no-go","sham":0,"trial_type":"pit-trial","trial_index":15,"time_elapsed":198734,"internal_node_id":"0.0-4.0","task_version":"battery-v0.1"},{"rune":"Z","hex":"#f73b6a7A","correct":-1,"choice":32,"rt":812.8750000032596,"accuracy":0,"outcome":"-10","keys":[2314.474999991944],"total_keys":1,"block":1,"trial":3,"robot":4,"valence":"lose","action":"no-go","sham":0,"trial_type":"pit-trial","trial_index":16,"time_elapsed":202255,"internal_node_id":"0.0-5.0","task_version":"battery-v0.1"},{"rune":"V","hex":"#3366ff99","correct":-1,"choice":32,"rt":694.2200000048615,"accuracy":0,"outcome":"+1","keys":[2196.1299999966286],"total_keys":1,"block":1,"trial":4,"robot":2,"valence":"win","action":"no-go","sham":0,"trial_type":"pit-trial","trial_index":17,"time_elapsed":205664,"internal_node_id":"0.0-6.0","task_version":"battery-v0.1"},{"rune":"H","hex":"#3366ff99","correct":32,"choice":32,"rt":477.2099999827333,"accuracy":1,"outcome":"+1","keys":[1978.224999998929],"total_keys":1,"block":1,"trial":5,"robot":1,"valence":"win","action":"go","sham":1,"trial_type":"pit-trial","trial_index":18,"time_elapsed":208847,"internal_node_id":"0.0-7.0","task_version":"battery-v0.1"},{"rune":"Z","hex":"#f73b6a7A","correct":-1,"choice":-1,"rt":-1,"accuracy":1,"outcome":"-1","keys":[],"total_keys":0,"block":1,"trial":6,"robot":4,"valence":"lose","action":"no-go","sham":0,"trial_type":"pit-trial","trial_index":19,"time_elapsed":212863,"internal_node_id":"0.0-8.0","task_version":"battery-v0.1"},{"rune":"V","hex":"#3366ff99","correct":-1,"choice":-1,"rt":-1,"accuracy":1,"outcome":"+10","keys":[],"total_keys":0,"block":1,"trial":7,"robot":2,"valence":"win","action":"no-go","sham":0,"trial_type":"pit-trial","trial_index":20,"time_elapsed":216879,"internal_node_id":"0.0-9.0","task_version":"battery-v0.1"},{"rune":"S","hex":"#f73b6a7A","correct":-1,"choice":-1,"rt":-1,"accuracy":1,"outcome":"-1","keys":[],"total_keys":0,"block":1,"trial":8,"robot":4,"valence":"lose","action":"no-go","sham":0,"trial_type":"pit-trial","trial_index":21,"time_elapsed":220887,"internal_node_id":"0.0-10.0","task_version":"battery-v0.1"},{"rune":"Z","hex":"#f73b6a7A","correct":-1,"choice":-1,"rt":-1,"accuracy":1,"outcome":"-1","keys":[],"total_keys":0,"block":1,"trial":9,"robot":4,"valence":"lose","action":"no-go","sham":0,"trial_type":"pit-trial","trial_index":22,"time_elapsed":224894,"internal_node_id":"0.0-11.0","task_version":"battery-v0.1"},{"rune":"S","hex":"#f73b6a7A","correct":-1,"choice":-1,"rt":-1,"accuracy":1,"outcome":"-1","keys":[],"total_keys":0,"block":1,"trial":10,"robot":4,"valence":"lose","action":"no-go","sham":0,"trial_type":"pit-trial","trial_index":23,"time_elapsed":228901,"internal_node_id":"0.0-12.0","task_version":"battery-v0.1"},{"rune":"H","hex":"#3366ff99","correct":32,"choice":32,"rt":478.9199999941047,"accuracy":1,"outcome":"+10","keys":[1979.7449999896344],"total_keys":1,"block":1,"trial":11,"robot":1,"valence":"win","action":"go","sham":0,"trial_type":"pit-trial","trial_index":24,"time_elapsed":232094,"internal_node_id":"0.0-13.0","task_version":"battery-v0.1"},{"rune":"V","hex":"#3366ff99","correct":-1,"choice":-1,"rt":-1,"accuracy":1,"outcome":"+10","keys":[],"total_keys":0,"block":1,"trial":12,"robot":2,"valence":"win","action":"no-go","sham":0,"trial_type":"pit-trial","trial_index":25,"time_elapsed":236101,"internal_node_id":"0.0-14.0","task_version":"battery-v0.1"},{"rune":"H","hex":"#3366ff99","correct":32,"choice":32,"rt":519.1800000029616,"accuracy":1,"outcome":"+10","keys":[2019.4750000082422],"total_keys":1,"block":1,"trial":13,"robot":1,"valence":"win","action":"go","sham":0,"trial_type":"pit-trial","trial_index":26,"time_elapsed":239336,"internal_node_id":"0.0-15.0","task_version":"battery-v0.1"},{"rune":"Z","hex":"#f73b6a7A","correct":-1,"choice":-1,"rt":-1,"accuracy":1,"outcome":"-1","keys":[],"total_keys":0,"block":1,"trial":14,"robot":4,"valence":"lose","action":"no-go","sham":0,"trial_type":"pit-trial","trial_index":27,"time_elapsed":243352,"internal_node_id":"0.0-16.0","task_version":"battery-v0.1"},{"rune":"V","hex":"#3366ff99","correct":-1,"choice":-1,"rt":-1,"accuracy":1,"outcome":"+10","keys":[],"total_keys":0,"block":1,"trial":15,"robot":2,"valence":"win","action":"no-go","sham":0,"trial_type":"pit-trial","trial_index":28,"time_elapsed":247362,"internal_node_id":"0.0-17.0","task_version":"battery-v0.1"},{"rune":"S","hex":"#f73b6a7A","correct":-1,"choice":-1,"rt":-1,"accuracy":1,"outcome":"-1","keys":[],"total_keys":0,"block":1,"trial":16,"robot":4,"valence":"lose","action":"no-go","sham":0,"trial_type":"pit-trial","trial_index":29,"time_elapsed":251371,"internal_node_id":"0.0-18.0","task_version":"battery-v0.1"},{"rune":"Z","hex":"#f73b6a7A","correct":-1,"choice":-1,"rt":-1,"accuracy":1,"outcome":"-1","keys":[],"total_keys":0,"block":1,"trial":17,"robot":4,"valence":"lose","action":"no-go","sham":0,"trial_type":"pit-trial","trial_index":30,"time_elapsed":255379,"internal_node_id":"0.0-19.0","task_version":"battery-v0.1"},{"rune":"V","hex":"#3366ff99","correct":-1,"choice":-1,"rt":-1,"accuracy":1,"outcome":"+1","keys":[],"total_keys":0,"block":1,"trial":18,"robot":2,"valence":"win","action":"no-go","sham":1,"trial_type":"pit-trial","trial_index":31,"time_elapsed":259395,"internal_node_id":"0.0-20.0","task_version":"battery-v0.1"},{"rune":"H","hex":"#3366ff99","correct":32,"choice":32,"rt":412.88000001804903,"accuracy":1,"outcome":"+10","keys":[1913.8299999758601],"total_keys":1,"block":1,"trial":19,"robot":1,"valence":"win","action":"go","sham":0,"trial_type":"pit-trial","trial_index":32,"time_elapsed":262520,"internal_node_id":"0.0-21.0","task_version":"battery-v0.1"},{"rune":"S","hex":"#f73b6a7A","correct":-1,"choice":-1,"rt":-1,"accuracy":1,"outcome":"-1","keys":[],"total_keys":0,"block":1,"trial":20,"robot":4,"valence":"lose","action":"no-go","sham":0,"trial_type":"pit-trial","trial_index":33,"time_elapsed":266535,"internal_node_id":"0.0-22.0","task_version":"battery-v0.1"},{"rune":"H","hex":"#3366ff99","correct":32,"choice":32,"rt":476.9549999909941,"accuracy":1,"outcome":"+10","keys":[1977.9799999960233],"total_keys":1,"block":1,"trial":21,"robot":1,"valence":"win","action":"go","sham":0,"trial_type":"pit-trial","trial_index":34,"time_elapsed":269728,"internal_node_id":"0.0-23.0","task_version":"battery-v0.1"},{"rune":"V","hex":"#3366ff99","correct":-1,"choice":32,"rt":494.06999998609535,"accuracy":0,"outcome":"+1","keys":[1994.139999995241],"total_keys":1,"block":1,"trial":22,"robot":2,"valence":"win","action":"no-go","sham":0,"trial_type":"pit-trial","trial_index":35,"time_elapsed":272937,"internal_node_id":"0.0-24.0","task_version":"battery-v0.1"},{"rune":"Z","hex":"#f73b6a7A","correct":-1,"choice":-1,"rt":-1,"accuracy":1,"outcome":"-1","keys":[],"total_keys":0,"block":1,"trial":23,"robot":4,"valence":"lose","action":"no-go","sham":0,"trial_type":"pit-trial","trial_index":36,"time_elapsed":276950,"internal_node_id":"0.0-25.0","task_version":"battery-v0.1"},{"rune":"S","hex":"#f73b6a7A","correct":-1,"choice":-1,"rt":-1,"accuracy":1,"outcome":"-10","keys":[],"total_keys":0,"block":1,"trial":24,"robot":4,"valence":"lose","action":"no-go","sham":1,"trial_type":"pit-trial","trial_index":37,"time_elapsed":280956,"internal_node_id":"0.0-26.0","task_version":"battery-v0.1"},{"rune":"Z","hex":"#f73b6a7A","correct":-1,"choice":-1,"rt":-1,"accuracy":1,"outcome":"-1","keys":[],"total_keys":0,"block":1,"trial":25,"robot":4,"valence":"lose","action":"no-go","sham":0,"trial_type":"pit-trial","trial_index":38,"time_elapsed":284970,"internal_node_id":"0.0-27.0","task_version":"battery-v0.1"},{"rune":"V","hex":"#3366ff99","correct":-1,"choice":-1,"rt":-1,"accuracy":1,"outcome":"+1","keys":[],"total_keys":0,"block":1,"trial":26,"robot":2,"valence":"win","action":"no-go","sham":1,"trial_type":"pit-trial","trial_index":39,"time_elapsed":288977,"internal_node_id":"0.0-28.0","task_version":"battery-v0.1"},{"rune":"S","hex":"#f73b6a7A","correct":-1,"choice":-1,"rt":-1,"accuracy":1,"outcome":"-1","keys":[],"total_keys":0,"block":1,"trial":27,"robot":4,"valence":"lose","action":"no-go","sham":0,"trial_type":"pit-trial","trial_index":40,"time_elapsed":292990,"internal_node_id":"0.0-29.0","task_version":"battery-v0.1"},{"rune":"H","hex":"#3366ff99","correct":32,"choice":32,"rt":504.9650000000838,"accuracy":1,"outcome":"+10","keys":[2005.089999991469],"total_keys":1,"block":1,"trial":28,"robot":1,"valence":"win","action":"go","sham":0,"trial_type":"pit-trial","trial_index":41,"time_elapsed":296208,"internal_node_id":"0.0-30.0","task_version":"battery-v0.1"},{"rune":"H","hex":"#3366ff99","correct":32,"choice":32,"rt":468.24499999638647,"accuracy":1,"outcome":"+10","keys":[1968.9349999825936],"total_keys":1,"block":1,"trial":29,"robot":1,"valence":"win","action":"go","sham":0,"trial_type":"pit-trial","trial_index":42,"time_elapsed":299383,"internal_node_id":"0.0-31.0","task_version":"battery-v0.1"},{"rune":"S","hex":"#f73b6a7A","correct":-1,"choice":-1,"rt":-1,"accuracy":1,"outcome":"-1","keys":[],"total_keys":0,"block":1,"trial":30,"robot":4,"valence":"lose","action":"no-go","sham":0,"trial_type":"pit-trial","trial_index":43,"time_elapsed":303388,"internal_node_id":"0.0-32.0","task_version":"battery-v0.1"},{"rune":"V","hex":"#3366ff99","correct":-1,"choice":-1,"rt":-1,"accuracy":1,"outcome":"+10","keys":[],"total_keys":0,"block":1,"trial":31,"robot":2,"valence":"win","action":"no-go","sham":0,"trial_type":"pit-trial","trial_index":44,"time_elapsed":307395,"internal_node_id":"0.0-33.0","task_version":"battery-v0.1"},{"rune":"Z","hex":"#f73b6a7A","correct":-1,"choice":-1,"rt":-1,"accuracy":1,"outcome":"-1","keys":[],"total_keys":0,"block":1,"trial":32,"robot":4,"valence":"lose","action":"no-go","sham":0,"trial_type":"pit-trial","trial_index":45,"time_elapsed":311403,"internal_node_id":"0.0-34.0","task_version":"battery-v0.1"},{"rune":"H","hex":"#3366ff99","correct":32,"choice":32,"rt":489.3549999978859,"accuracy":1,"outcome":"+10","keys":[1991.1499999871012],"total_keys":1,"block":1,"trial":33,"robot":1,"valence":"win","action":"go","sham":0,"trial_type":"pit-trial","trial_index":46,"time_elapsed":314600,"internal_node_id":"0.0-35.0","task_version":"battery-v0.1"},{"rune":"V","hex":"#3366ff99","correct":-1,"choice":-1,"rt":-1,"accuracy":1,"outcome":"+10","keys":[],"total_keys":0,"block":1,"trial":34,"robot":2,"valence":"win","action":"no-go","sham":0,"trial_type":"pit-trial","trial_index":47,"time_elapsed":318613,"internal_node_id":"0.0-36.0","task_version":"battery-v0.1"},{"rune":"S","hex":"#f73b6a7A","correct":-1,"choice":-1,"rt":-1,"accuracy":1,"outcome":"-1","keys":[],"total_keys":0,"block":1,"trial":35,"robot":4,"valence":"lose","action":"no-go","sham":0,"trial_type":"pit-trial","trial_index":48,"time_elapsed":322621,"internal_node_id":"0.0-37.0","task_version":"battery-v0.1"},{"rune":"U","hex":"#f73b6a7A","correct":32,"choice":-1,"rt":-1,"accuracy":0,"outcome":"-1","keys":[],"total_keys":0,"block":1,"trial":36,"robot":3,"valence":"lose","action":"go","sham":1,"trial_type":"pit-trial","trial_index":49,"time_elapsed":326634,"internal_node_id":"0.0-38.0","task_version":"battery-v0.1"},{"rune":"V","hex":"#3366ff99","correct":-1,"choice":-1,"rt":-1,"accuracy":1,"outcome":"+10","keys":[],"total_keys":0,"block":1,"trial":37,"robot":2,"valence":"win","action":"no-go","sham":0,"trial_type":"pit-trial","trial_index":50,"time_elapsed":330649,"internal_node_id":"0.0-39.0","task_version":"battery-v0.1"},{"rune":"H","hex":"#3366ff99","correct":32,"choice":32,"rt":397.37500000046566,"accuracy":1,"outcome":"+1","keys":[1898.3549999829847],"total_keys":1,"block":1,"trial":38,"robot":1,"valence":"win","action":"go","sham":1,"trial_type":"pit-trial","trial_index":51,"time_elapsed":333766,"internal_node_id":"0.0-40.0","task_version":"battery-v0.1"},{"rune":"U","hex":"#f73b6a7A","correct":32,"choice":-1,"rt":-1,"accuracy":0,"outcome":"-10","keys":[],"total_keys":0,"block":1,"trial":39,"robot":3,"valence":"lose","action":"go","sham":0,"trial_type":"pit-trial","trial_index":52,"time_elapsed":337782,"internal_node_id":"0.0-41.0","task_version":"battery-v0.1"},{"rune":"S","hex":"#f73b6a7A","correct":-1,"choice":-1,"rt":-1,"accuracy":1,"outcome":"-1","keys":[],"total_keys":0,"block":1,"trial":40,"robot":4,"valence":"lose","action":"no-go","sham":0,"trial_type":"pit-trial","trial_index":53,"time_elapsed":341792,"internal_node_id":"0.0-42.0","task_version":"battery-v0.1"},{"rune":"S","hex":"#f73b6a7A","correct":-1,"choice":-1,"rt":-1,"accuracy":1,"outcome":"-10","keys":[],"total_keys":0,"block":1,"trial":41,"robot":4,"valence":"lose","action":"no-go","sham":1,"trial_type":"pit-trial","trial_index":54,"time_elapsed":345798,"internal_node_id":"0.0-43.0","task_version":"battery-v0.1"},{"rune":"F","hex":"#3366ff99","correct":32,"choice":-1,"rt":-1,"accuracy":0,"outcome":"+1","keys":[],"total_keys":0,"block":1,"trial":42,"robot":1,"valence":"win","action":"go","sham":0,"trial_type":"pit-trial","trial_index":55,"time_elapsed":349807,"internal_node_id":"0.0-44.0","task_version":"battery-v0.1"},{"rune":"Q","hex":"#3366ff99","correct":-1,"choice":32,"rt":860.9699999797158,"accuracy":0,"outcome":"+1","keys":[2362.250000005588],"total_keys":1,"block":1,"trial":43,"robot":2,"valence":"win","action":"no-go","sham":0,"trial_type":"pit-trial","trial_index":56,"time_elapsed":353383,"internal_node_id":"0.0-45.0","task_version":"battery-v0.1"},{"rune":"U","hex":"#f73b6a7A","correct":32,"choice":32,"rt":885.3200000012293,"accuracy":1,"outcome":"-1","keys":[2385.9900000097696],"total_keys":1,"block":1,"trial":44,"robot":3,"valence":"lose","action":"go","sham":0,"trial_type":"pit-trial","trial_index":57,"time_elapsed":356982,"internal_node_id":"0.0-46.0","task_version":"battery-v0.1"},{"rune":"Q","hex":"#3366ff99","correct":-1,"choice":-1,"rt":-1,"accuracy":1,"outcome":"+10","keys":[],"total_keys":0,"block":1,"trial":45,"robot":2,"valence":"win","action":"no-go","sham":0,"trial_type":"pit-trial","trial_index":58,"time_elapsed":360990,"internal_node_id":"0.0-47.0","task_version":"battery-v0.1"},{"rune":"U","hex":"#f73b6a7A","correct":32,"choice":32,"rt":374.4600000209175,"accuracy":1,"outcome":"-1","keys":[1874.9949999910314],"total_keys":1,"block":1,"trial":46,"robot":3,"valence":"lose","action":"go","sham":0,"trial_type":"pit-trial","trial_index":59,"time_elapsed":364079,"internal_node_id":"0.0-48.0","task_version":"battery-v0.1"},{"rune":"F","hex":"#3366ff99","correct":32,"choice":32,"rt":492.1650000032969,"accuracy":1,"outcome":"+10","keys":[1992.2650000080466],"total_keys":1,"block":1,"trial":47,"robot":1,"valence":"win","action":"go","sham":0,"trial_type":"pit-trial","trial_index":60,"time_elapsed":367285,"internal_node_id":"0.0-49.0","task_version":"battery-v0.1"},{"rune":"S","hex":"#f73b6a7A","correct":-1,"choice":-1,"rt":-1,"accuracy":1,"outcome":"-1","keys":[],"total_keys":0,"block":1,"trial":48,"robot":4,"valence":"lose","action":"no-go","sham":0,"trial_type":"pit-trial","trial_index":61,"time_elapsed":371299,"internal_node_id":"0.0-50.0","task_version":"battery-v0.1"},{"rune":"F","hex":"#3366ff99","correct":32,"choice":32,"rt":521.6549999895506,"accuracy":1,"outcome":"+10","keys":[2021.9799999904353],"total_keys":1,"block":1,"trial":49,"robot":1,"valence":"win","action":"go","sham":0,"trial_type":"pit-trial","trial_index":62,"time_elapsed":374527,"internal_node_id":"0.0-51.0","task_version":"battery-v0.1"},{"rune":"U","hex":"#f73b6a7A","correct":32,"choice":32,"rt":460.22499998798594,"accuracy":1,"outcome":"-10","keys":[1961.3050000043586],"total_keys":1,"block":1,"trial":50,"robot":3,"valence":"lose","action":"go","sham":1,"trial_type":"pit-trial","trial_index":63,"time_elapsed":377702,"internal_node_id":"0.0-52.0","task_version":"battery-v0.1"},{"rune":"Q","hex":"#3366ff99","correct":-1,"choice":-1,"rt":-1,"accuracy":1,"outcome":"+10","keys":[],"total_keys":0,"block":1,"trial":51,"robot":2,"valence":"win","action":"no-go","sham":0,"trial_type":"pit-trial","trial_index":64,"time_elapsed":381710,"internal_node_id":"0.0-53.0","task_version":"battery-v0.1"},{"rune":"E","hex":"#f73b6a7A","correct":-1,"choice":-1,"rt":-1,"accuracy":1,"outcome":"-10","keys":[],"total_keys":0,"block":1,"trial":52,"robot":4,"valence":"lose","action":"no-go","sham":1,"trial_type":"pit-trial","trial_index":65,"time_elapsed":385717,"internal_node_id":"0.0-54.0","task_version":"battery-v0.1"},{"rune":"E","hex":"#f73b6a7A","correct":-1,"choice":32,"rt":623.265000001993,"accuracy":0,"outcome":"-10","keys":[2123.4800000092946],"total_keys":1,"block":1,"trial":53,"robot":4,"valence":"lose","action":"no-go","sham":0,"trial_type":"pit-trial","trial_index":66,"time_elapsed":389055,"internal_node_id":"0.0-55.0","task_version":"battery-v0.1"},{"rune":"F","hex":"#3366ff99","correct":32,"choice":32,"rt":581.3649999909103,"accuracy":1,"outcome":"+10","keys":[2082.4250000005122],"total_keys":1,"block":1,"trial":54,"robot":1,"valence":"win","action":"go","sham":0,"trial_type":"pit-trial","trial_index":67,"time_elapsed":392351,"internal_node_id":"0.0-56.0","task_version":"battery-v0.1"},{"rune":"U","hex":"#f73b6a7A","correct":32,"choice":32,"rt":468.40499999234453,"accuracy":1,"outcome":"-1","keys":[1970.2499999839347],"total_keys":1,"block":1,"trial":55,"robot":3,"valence":"lose","action":"go","sham":0,"trial_type":"pit-trial","trial_index":68,"time_elapsed":395535,"internal_node_id":"0.0-57.0","task_version":"battery-v0.1"},{"rune":"Q","hex":"#3366ff99","correct":-1,"choice":-1,"rt":-1,"accuracy":1,"outcome":"+10","keys":[],"total_keys":0,"block":1,"trial":56,"robot":2,"valence":"win","action":"no-go","sham":0,"trial_type":"pit-trial","trial_index":69,"time_elapsed":399551,"internal_node_id":"0.0-58.0","task_version":"battery-v0.1"},{"rune":"Q","hex":"#3366ff99","correct":-1,"choice":-1,"rt":-1,"accuracy":1,"outcome":"+1","keys":[],"total_keys":0,"block":1,"trial":57,"robot":2,"valence":"win","action":"no-go","sham":1,"trial_type":"pit-trial","trial_index":70,"time_elapsed":403557,"internal_node_id":"0.0-59.0","task_version":"battery-v0.1"},{"rune":"U","hex":"#f73b6a7A","correct":32,"choice":32,"rt":431.4500000036787,"accuracy":1,"outcome":"-10","keys":[1932.2899999970105],"total_keys":1,"block":1,"trial":58,"robot":3,"valence":"lose","action":"go","sham":1,"trial_type":"pit-trial","trial_index":71,"time_elapsed":406703,"internal_node_id":"0.0-60.0","task_version":"battery-v0.1"},{"rune":"F","hex":"#3366ff99","correct":32,"choice":32,"rt":510.3850000014063,"accuracy":1,"outcome":"+10","keys":[2010.9100000117905],"total_keys":1,"block":1,"trial":59,"robot":1,"valence":"win","action":"go","sham":0,"trial_type":"pit-trial","trial_index":72,"time_elapsed":409920,"internal_node_id":"0.0-61.0","task_version":"battery-v0.1"},{"rune":"E","hex":"#f73b6a7A","correct":-1,"choice":-1,"rt":-1,"accuracy":1,"outcome":"-1","keys":[],"total_keys":0,"block":1,"trial":60,"robot":4,"valence":"lose","action":"no-go","sham":0,"trial_type":"pit-trial","trial_index":73,"time_elapsed":413936,"internal_node_id":"0.0-62.0","task_version":"battery-v0.1"},{"rune":"Q","hex":"#3366ff99","correct":-1,"choice":-1,"rt":-1,"accuracy":1,"outcome":"+1","keys":[],"total_keys":0,"block":1,"trial":61,"robot":2,"valence":"win","action":"no-go","sham":1,"trial_type":"pit-trial","trial_index":74,"time_elapsed":417950,"internal_node_id":"0.0-63.0","task_version":"battery-v0.1"},{"rune":"F","hex":"#3366ff99","correct":32,"choice":32,"rt":405.7499999762513,"accuracy":1,"outcome":"+10","keys":[1905.9199999901466],"total_keys":1,"block":1,"trial":62,"robot":1,"valence":"win","action":"go","sham":0,"trial_type":"pit-trial","trial_index":75,"time_elapsed":421070,"internal_node_id":"0.0-64.0","task_version":"battery-v0.1"},{"rune":"U","hex":"#f73b6a7A","correct":32,"choice":-1,"rt":-1,"accuracy":0,"outcome":"-10","keys":[],"total_keys":0,"block":1,"trial":63,"robot":3,"valence":"lose","action":"go","sham":0,"trial_type":"pit-trial","trial_index":76,"time_elapsed":425086,"internal_node_id":"0.0-65.0","task_version":"battery-v0.1"},{"rune":"E","hex":"#f73b6a7A","correct":-1,"choice":-1,"rt":-1,"accuracy":1,"outcome":"-1","keys":[],"total_keys":0,"block":1,"trial":64,"robot":4,"valence":"lose","action":"no-go","sham":0,"trial_type":"pit-trial","trial_index":77,"time_elapsed":429095,"internal_node_id":"0.0-66.0","task_version":"battery-v0.1"},{"rune":"F","hex":"#3366ff99","correct":32,"choice":32,"rt":365.23500000475906,"accuracy":1,"outcome":"+10","keys":[1865.9150000021327],"total_keys":1,"block":1,"trial":65,"robot":1,"valence":"win","action":"go","sham":0,"trial_type":"pit-trial","trial_index":78,"time_elapsed":432175,"internal_node_id":"0.0-67.0","task_version":"battery-v0.1"},{"rune":"U","hex":"#f73b6a7A","correct":32,"choice":32,"rt":516.9799999857787,"accuracy":1,"outcome":"-10","keys":[2017.6849999988917],"total_keys":1,"block":1,"trial":66,"robot":3,"valence":"lose","action":"go","sham":1,"trial_type":"pit-trial","trial_index":79,"time_elapsed":435398,"internal_node_id":"0.0-68.0","task_version":"battery-v0.1"},{"rune":"Q","hex":"#3366ff99","correct":-1,"choice":32,"rt":487.62500000884756,"accuracy":0,"outcome":"+1","keys":[1988.8999999966472],"total_keys":1,"block":1,"trial":67,"robot":2,"valence":"win","action":"no-go","sham":0,"trial_type":"pit-trial","trial_index":80,"time_elapsed":438608,"internal_node_id":"0.0-69.0","task_version":"battery-v0.1"},{"rune":"E","hex":"#f73b6a7A","correct":-1,"choice":-1,"rt":-1,"accuracy":1,"outcome":"-1","keys":[],"total_keys":0,"block":1,"trial":68,"robot":4,"valence":"lose","action":"no-go","sham":0,"trial_type":"pit-trial","trial_index":81,"time_elapsed":442622,"internal_node_id":"0.0-70.0","task_version":"battery-v0.1"},{"rune":"Q","hex":"#3366ff99","correct":-1,"choice":32,"rt":676.88499999349,"accuracy":0,"outcome":"+1","keys":[2181.2450000143144],"total_keys":1,"block":1,"trial":69,"robot":2,"valence":"win","action":"no-go","sham":0,"trial_type":"pit-trial","trial_index":82,"time_elapsed":446015,"internal_node_id":"0.0-71.0","task_version":"battery-v0.1"},{"rune":"F","hex":"#3366ff99","correct":32,"choice":32,"rt":396.4449999912176,"accuracy":1,"outcome":"+1","keys":[1896.775000001071],"total_keys":1,"block":1,"trial":70,"robot":1,"valence":"win","action":"go","sham":1,"trial_type":"pit-trial","trial_index":83,"time_elapsed":449127,"internal_node_id":"0.0-72.0","task_version":"battery-v0.1"},{"rune":"E","hex":"#f73b6a7A","correct":-1,"choice":-1,"rt":-1,"accuracy":1,"outcome":"-10","keys":[],"total_keys":0,"block":1,"trial":71,"robot":4,"valence":"lose","action":"no-go","sham":1,"trial_type":"pit-trial","trial_index":84,"time_elapsed":453141,"internal_node_id":"0.0-73.0","task_version":"battery-v0.1"},{"rune":"U","hex":"#f73b6a7A","correct":32,"choice":32,"rt":806.8400000047404,"accuracy":1,"outcome":"-1","keys":[2307.345000008354],"total_keys":1,"block":1,"trial":72,"robot":3,"valence":"lose","action":"go","sham":0,"trial_type":"pit-trial","trial_index":85,"time_elapsed":456663,"internal_node_id":"0.0-74.0","task_version":"battery-v0.1"},{"rune":"Q","hex":"#3366ff99","correct":-1,"choice":-1,"rt":-1,"accuracy":1,"outcome":"+10","keys":[],"total_keys":0,"block":1,"trial":73,"robot":2,"valence":"win","action":"no-go","sham":0,"trial_type":"pit-trial","trial_index":86,"time_elapsed":460678,"internal_node_id":"0.0-75.0","task_version":"battery-v0.1"},{"rune":"L","hex":"#3366ff99","correct":32,"choice":-1,"rt":-1,"accuracy":0,"outcome":"+1","keys":[],"total_keys":0,"block":1,"trial":74,"robot":1,"valence":"win","action":"go","sham":0,"trial_type":"pit-trial","trial_index":87,"time_elapsed":464692,"internal_node_id":"0.0-76.0","task_version":"battery-v0.1"},{"rune":"E","hex":"#f73b6a7A","correct":-1,"choice":-1,"rt":-1,"accuracy":1,"outcome":"-1","keys":[],"total_keys":0,"block":1,"trial":75,"robot":4,"valence":"lose","action":"no-go","sham":0,"trial_type":"pit-trial","trial_index":88,"time_elapsed":468707,"internal_node_id":"0.0-77.0","task_version":"battery-v0.1"},{"rune":"Y","hex":"#f73b6a7A","correct":32,"choice":-1,"rt":-1,"accuracy":0,"outcome":"-10","keys":[],"total_keys":0,"block":1,"trial":76,"robot":3,"valence":"lose","action":"go","sham":0,"trial_type":"pit-trial","trial_index":89,"time_elapsed":472714,"internal_node_id":"0.0-78.0","task_version":"battery-v0.1"},{"rune":"Y","hex":"#f73b6a7A","correct":32,"choice":32,"rt":497.4750000110362,"accuracy":1,"outcome":"-1","keys":[1999.6199999877717],"total_keys":1,"block":1,"trial":77,"robot":3,"valence":"lose","action":"go","sham":0,"trial_type":"pit-trial","trial_index":90,"time_elapsed":475920,"internal_node_id":"0.0-79.0","task_version":"battery-v0.1"},{"rune":"Q","hex":"#3366ff99","correct":-1,"choice":-1,"rt":-1,"accuracy":1,"outcome":"+1","keys":[],"total_keys":0,"block":1,"trial":78,"robot":2,"valence":"win","action":"no-go","sham":1,"trial_type":"pit-trial","trial_index":91,"time_elapsed":479935,"internal_node_id":"0.0-80.0","task_version":"battery-v0.1"},{"rune":"L","hex":"#3366ff99","correct":32,"choice":-1,"rt":-1,"accuracy":0,"outcome":"+1","keys":[],"total_keys":0,"block":1,"trial":79,"robot":1,"valence":"win","action":"go","sham":0,"trial_type":"pit-trial","trial_index":92,"time_elapsed":483948,"internal_node_id":"0.0-81.0","task_version":"battery-v0.1"},{"rune":"E","hex":"#f73b6a7A","correct":-1,"choice":-1,"rt":-1,"accuracy":1,"outcome":"-1","keys":[],"total_keys":0,"block":1,"trial":80,"robot":4,"valence":"lose","action":"no-go","sham":0,"trial_type":"pit-trial","trial_index":93,"time_elapsed":487964,"internal_node_id":"0.0-82.0","task_version":"battery-v0.1"},{"rune":"Q","hex":"#3366ff99","correct":-1,"choice":-1,"rt":-1,"accuracy":1,"outcome":"+10","keys":[],"total_keys":0,"block":1,"trial":81,"robot":2,"valence":"win","action":"no-go","sham":0,"trial_type":"pit-trial","trial_index":94,"time_elapsed":491979,"internal_node_id":"0.0-83.0","task_version":"battery-v0.1"},{"rune":"E","hex":"#f73b6a7A","correct":-1,"choice":-1,"rt":-1,"accuracy":1,"outcome":"-1","keys":[],"total_keys":0,"block":1,"trial":82,"robot":4,"valence":"lose","action":"no-go","sham":0,"trial_type":"pit-trial","trial_index":95,"time_elapsed":495994,"internal_node_id":"0.0-84.0","task_version":"battery-v0.1"},{"rune":"Y","hex":"#f73b6a7A","correct":32,"choice":32,"rt":324.22999999835156,"accuracy":1,"outcome":"-1","keys":[1824.4450000056531],"total_keys":1,"block":1,"trial":83,"robot":3,"valence":"lose","action":"go","sham":0,"trial_type":"pit-trial","trial_index":96,"time_elapsed":499030,"internal_node_id":"0.0-85.0","task_version":"battery-v0.1"},{"rune":"L","hex":"#3366ff99","correct":32,"choice":32,"rt":293.584999977611,"accuracy":1,"outcome":"+10","keys":[1793.745000002673],"total_keys":1,"block":1,"trial":84,"robot":1,"valence":"win","action":"go","sham":0,"trial_type":"pit-trial","trial_index":97,"time_elapsed":502039,"internal_node_id":"0.0-86.0","task_version":"battery-v0.1"},{"rune":"Y","hex":"#f73b6a7A","correct":32,"choice":32,"rt":548.9099999831524,"accuracy":1,"outcome":"-1","keys":[2049.170000012964],"total_keys":1,"block":1,"trial":85,"robot":3,"valence":"lose","action":"go","sham":0,"trial_type":"pit-trial","trial_index":98,"time_elapsed":505301,"internal_node_id":"0.0-87.0","task_version":"battery-v0.1"},{"rune":"Q","hex":"#3366ff99","correct":-1,"choice":-1,"rt":-1,"accuracy":1,"outcome":"+1","keys":[],"total_keys":0,"block":1,"trial":86,"robot":2,"valence":"win","action":"no-go","sham":1,"trial_type":"pit-trial","trial_index":99,"time_elapsed":509315,"internal_node_id":"0.0-88.0","task_version":"battery-v0.1"},{"rune":"L","hex":"#3366ff99","correct":32,"choice":32,"rt":304.21500001102686,"accuracy":1,"outcome":"+10","keys":[1804.9549999996088],"total_keys":1,"block":1,"trial":87,"robot":1,"valence":"win","action":"go","sham":0,"trial_type":"pit-trial","trial_index":100,"time_elapsed":512336,"internal_node_id":"0.0-89.0","task_version":"battery-v0.1"},{"rune":"E","hex":"#f73b6a7A","correct":-1,"choice":-1,"rt":-1,"accuracy":1,"outcome":"-1","keys":[],"total_keys":0,"block":1,"trial":88,"robot":4,"valence":"lose","action":"no-go","sham":0,"trial_type":"pit-trial","trial_index":101,"time_elapsed":516351,"internal_node_id":"0.0-90.0","task_version":"battery-v0.1"},{"rune":"X","hex":"#3366ff99","correct":-1,"choice":-1,"rt":-1,"accuracy":1,"outcome":"+10","keys":[],"total_keys":0,"block":1,"trial":89,"robot":2,"valence":"win","action":"no-go","sham":0,"trial_type":"pit-trial","trial_index":102,"time_elapsed":520365,"internal_node_id":"0.0-91.0","task_version":"battery-v0.1"},{"rune":"Y","hex":"#f73b6a7A","correct":32,"choice":32,"rt":559.1650000133086,"accuracy":1,"outcome":"-10","keys":[2059.3950000184122],"total_keys":1,"block":1,"trial":90,"robot":3,"valence":"lose","action":"go","sham":1,"trial_type":"pit-trial","trial_index":103,"time_elapsed":523630,"internal_node_id":"0.0-92.0","task_version":"battery-v0.1"},{"rune":"L","hex":"#3366ff99","correct":32,"choice":32,"rt":765.3649999992922,"accuracy":1,"outcome":"+10","keys":[2265.8250000094995],"total_keys":1,"block":1,"trial":91,"robot":1,"valence":"win","action":"go","sham":0,"trial_type":"pit-trial","trial_index":104,"time_elapsed":527111,"internal_node_id":"0.0-93.0","task_version":"battery-v0.1"},{"rune":"M","hex":"#f73b6a7A","correct":32,"choice":-1,"rt":-1,"accuracy":0,"outcome":"-10","keys":[],"total_keys":0,"block":1,"trial":92,"robot":3,"valence":"lose","action":"go","sham":0,"trial_type":"pit-trial","trial_index":105,"time_elapsed":531126,"internal_node_id":"0.0-94.0","task_version":"battery-v0.1"},{"rune":"L","hex":"#3366ff99","correct":32,"choice":32,"rt":543.7899999960791,"accuracy":1,"outcome":"+10","keys":[2043.9799999876413],"total_keys":1,"block":1,"trial":93,"robot":1,"valence":"win","action":"go","sham":0,"trial_type":"pit-trial","trial_index":106,"time_elapsed":534374,"internal_node_id":"0.0-95.0","task_version":"battery-v0.1"},{"rune":"X","hex":"#3366ff99","correct":-1,"choice":-1,"rt":-1,"accuracy":1,"outcome":"+1","keys":[],"total_keys":0,"block":1,"trial":94,"robot":2,"valence":"win","action":"no-go","sham":1,"trial_type":"pit-trial","trial_index":107,"time_elapsed":538390,"internal_node_id":"0.0-96.0","task_version":"battery-v0.1"},{"rune":"M","hex":"#f73b6a7A","correct":32,"choice":32,"rt":774.9449999828357,"accuracy":1,"outcome":"-1","keys":[2275.0449999875855],"total_keys":1,"block":1,"trial":95,"robot":3,"valence":"lose","action":"go","sham":0,"trial_type":"pit-trial","trial_index":108,"time_elapsed":541880,"internal_node_id":"0.0-97.0","task_version":"battery-v0.1"},{"rune":"Y","hex":"#f73b6a7A","correct":32,"choice":-1,"rt":-1,"accuracy":0,"outcome":"-10","keys":[],"total_keys":0,"block":1,"trial":96,"robot":3,"valence":"lose","action":"go","sham":0,"trial_type":"pit-trial","trial_index":109,"time_elapsed":545895,"internal_node_id":"0.0-98.0","task_version":"battery-v0.1"},{"rune":"X","hex":"#3366ff99","correct":-1,"choice":32,"rt":432.36000000615604,"accuracy":0,"outcome":"+1","keys":[1933.7649999943096],"total_keys":1,"block":1,"trial":97,"robot":2,"valence":"win","action":"no-go","sham":0,"trial_type":"pit-trial","trial_index":110,"time_elapsed":549037,"internal_node_id":"0.0-99.0","task_version":"battery-v0.1"},{"rune":"M","hex":"#f73b6a7A","correct":32,"choice":32,"rt":614.7449999989476,"accuracy":1,"outcome":"-1","keys":[2115.8850000065286],"total_keys":1,"block":1,"trial":98,"robot":3,"valence":"lose","action":"go","sham":0,"trial_type":"pit-trial","trial_index":111,"time_elapsed":552367,"internal_node_id":"0.0-100.0","task_version":"battery-v0.1"},{"rune":"L","hex":"#3366ff99","correct":32,"choice":32,"rt":701.230000006035,"accuracy":1,"outcome":"+10","keys":[2201.9649999856483],"total_keys":1,"block":1,"trial":99,"robot":1,"valence":"win","action":"go","sham":0,"trial_type":"pit-trial","trial_index":112,"time_elapsed":555781,"internal_node_id":"0.0-101.0","task_version":"battery-v0.1"},{"rune":"Y","hex":"#f73b6a7A","correct":32,"choice":-1,"rt":-1,"accuracy":0,"outcome":"-10","keys":[],"total_keys":0,"block":1,"trial":100,"robot":3,"valence":"lose","action":"go","sham":0,"trial_type":"pit-trial","trial_index":113,"time_elapsed":559788,"internal_node_id":"0.0-102.0","task_version":"battery-v0.1"},{"rune":"L","hex":"#3366ff99","correct":32,"choice":32,"rt":448.26499998453073,"accuracy":1,"outcome":"+10","keys":[1948.4950000187382],"total_keys":1,"block":1,"trial":101,"robot":1,"valence":"win","action":"go","sham":0,"trial_type":"pit-trial","trial_index":114,"time_elapsed":562951,"internal_node_id":"0.0-103.0","task_version":"battery-v0.1"},{"rune":"X","hex":"#3366ff99","correct":-1,"choice":32,"rt":629.8200000019278,"accuracy":0,"outcome":"+1","keys":[2130.0999999803025],"total_keys":1,"block":1,"trial":102,"robot":2,"valence":"win","action":"no-go","sham":0,"trial_type":"pit-trial","trial_index":115,"time_elapsed":566286,"internal_node_id":"0.0-104.0","task_version":"battery-v0.1"},{"rune":"Y","hex":"#f73b6a7A","correct":32,"choice":32,"rt":1223.3799999812618,"accuracy":1,"outcome":"-1","keys":[2723.629999993136],"total_keys":1,"block":1,"trial":103,"robot":3,"valence":"lose","action":"go","sham":0,"trial_type":"pit-trial","trial_index":116,"time_elapsed":570223,"internal_node_id":"0.0-105.0","task_version":"battery-v0.1"},{"rune":"M","hex":"#f73b6a7A","correct":32,"choice":32,"rt":1029.1250000009313,"accuracy":1,"outcome":"-10","keys":[2529.470000008587],"total_keys":1,"block":1,"trial":104,"robot":3,"valence":"lose","action":"go","sham":1,"trial_type":"pit-trial","trial_index":117,"time_elapsed":573967,"internal_node_id":"0.0-106.0","task_version":"battery-v0.1"},{"rune":"Y","hex":"#f73b6a7A","correct":32,"choice":32,"rt":676.0099999955855,"accuracy":1,"outcome":"-1","keys":[2176.9099999801256],"total_keys":1,"block":1,"trial":105,"robot":3,"valence":"lose","action":"go","sham":0,"trial_type":"pit-trial","trial_index":118,"time_elapsed":577357,"internal_node_id":"0.0-107.0","task_version":"battery-v0.1"},{"rune":"L","hex":"#3366ff99","correct":32,"choice":32,"rt":805.3400000208057,"accuracy":1,"outcome":"+10","keys":[2306.364999996731],"total_keys":1,"block":1,"trial":106,"robot":1,"valence":"win","action":"go","sham":0,"trial_type":"pit-trial","trial_index":119,"time_elapsed":580878,"internal_node_id":"0.0-108.0","task_version":"battery-v0.1"},{"rune":"X","hex":"#3366ff99","correct":-1,"choice":-1,"rt":-1,"accuracy":1,"outcome":"+10","keys":[],"total_keys":0,"block":1,"trial":107,"robot":2,"valence":"win","action":"no-go","sham":0,"trial_type":"pit-trial","trial_index":120,"time_elapsed":584894,"internal_node_id":"0.0-109.0","task_version":"battery-v0.1"},{"rune":"M","hex":"#f73b6a7A","correct":32,"choice":32,"rt":845.1049999857787,"accuracy":1,"outcome":"-1","keys":[2347.0650000090245],"total_keys":1,"block":1,"trial":108,"robot":3,"valence":"lose","action":"go","sham":0,"trial_type":"pit-trial","trial_index":121,"time_elapsed":588447,"internal_node_id":"0.0-110.0","task_version":"battery-v0.1"},{"rune":"L","hex":"#3366ff99","correct":32,"choice":32,"rt":595.4250000067987,"accuracy":1,"outcome":"+1","keys":[2097.0999999844935],"total_keys":1,"block":1,"trial":109,"robot":1,"valence":"win","action":"go","sham":1,"trial_type":"pit-trial","trial_index":122,"time_elapsed":591759,"internal_node_id":"0.0-111.0","task_version":"battery-v0.1"},{"rune":"X","hex":"#3366ff99","correct":-1,"choice":-1,"rt":-1,"accuracy":1,"outcome":"+10","keys":[],"total_keys":0,"block":1,"trial":110,"robot":2,"valence":"win","action":"no-go","sham":0,"trial_type":"pit-trial","trial_index":123,"time_elapsed":595774,"internal_node_id":"0.0-112.0","task_version":"battery-v0.1"},{"rune":"M","hex":"#f73b6a7A","correct":32,"choice":32,"rt":516.734999982873,"accuracy":1,"outcome":"-1","keys":[2018.580000003567],"total_keys":1,"block":1,"trial":111,"robot":3,"valence":"lose","action":"go","sham":0,"trial_type":"pit-trial","trial_index":124,"time_elapsed":599007,"internal_node_id":"0.0-113.0","task_version":"battery-v0.1"},{"rune":"Y","hex":"#f73b6a7A","correct":32,"choice":32,"rt":740.300000004936,"accuracy":1,"outcome":"-10","keys":[2240.83499997505],"total_keys":1,"block":1,"trial":112,"robot":3,"valence":"lose","action":"go","sham":1,"trial_type":"pit-trial","trial_index":125,"time_elapsed":602462,"internal_node_id":"0.0-114.0","task_version":"battery-v0.1"},{"rune":"L","hex":"#3366ff99","correct":32,"choice":32,"rt":459.4349999970291,"accuracy":1,"outcome":"+10","keys":[1960.819999978412],"total_keys":1,"block":1,"trial":113,"robot":1,"valence":"win","action":"go","sham":0,"trial_type":"pit-trial","trial_index":126,"time_elapsed":605638,"internal_node_id":"0.0-115.0","task_version":"battery-v0.1"},{"rune":"Y","hex":"#f73b6a7A","correct":32,"choice":-1,"rt":-1,"accuracy":0,"outcome":"-10","keys":[],"total_keys":0,"block":1,"trial":114,"robot":3,"valence":"lose","action":"go","sham":0,"trial_type":"pit-trial","trial_index":127,"time_elapsed":609653,"internal_node_id":"0.0-116.0","task_version":"battery-v0.1"},{"rune":"M","hex":"#f73b6a7A","correct":32,"choice":32,"rt":798.9099999831524,"accuracy":1,"outcome":"-1","keys":[2299.8200000147335],"total_keys":1,"block":1,"trial":115,"robot":3,"valence":"lose","action":"go","sham":0,"trial_type":"pit-trial","trial_index":128,"time_elapsed":613159,"internal_node_id":"0.0-117.0","task_version":"battery-v0.1"},{"rune":"X","hex":"#3366ff99","correct":-1,"choice":32,"rt":595.6599999917671,"accuracy":0,"outcome":"+10","keys":[2096.4350000140257],"total_keys":1,"block":1,"trial":116,"robot":2,"valence":"win","action":"no-go","sham":1,"trial_type":"pit-trial","trial_index":129,"time_elapsed":616470,"internal_node_id":"0.0-118.0","task_version":"battery-v0.1"},{"rune":"X","hex":"#3366ff99","correct":-1,"choice":32,"rt":508.80499999038875,"accuracy":0,"outcome":"+1","keys":[2009.8249999864493],"total_keys":1,"block":1,"trial":117,"robot":2,"valence":"win","action":"no-go","sham":0,"trial_type":"pit-trial","trial_index":130,"time_elapsed":619684,"internal_node_id":"0.0-119.0","task_version":"battery-v0.1"},{"rune":"L","hex":"#3366ff99","correct":32,"choice":32,"rt":606.9849999912549,"accuracy":1,"outcome":"+10","keys":[2108.780000009574],"total_keys":1,"block":1,"trial":118,"robot":1,"valence":"win","action":"go","sham":0,"trial_type":"pit-trial","trial_index":131,"time_elapsed":623007,"internal_node_id":"0.0-120.0","task_version":"battery-v0.1"},{"rune":"Y","hex":"#f73b6a7A","correct":32,"choice":-1,"rt":-1,"accuracy":0,"outcome":"-10","keys":[],"total_keys":0,"block":1,"trial":119,"robot":3,"valence":"lose","action":"go","sham":0,"trial_type":"pit-trial","trial_index":132,"time_elapsed":627019,"internal_node_id":"0.0-121.0","task_version":"battery-v0.1"},{"rune":"M","hex":"#f73b6a7A","correct":32,"choice":32,"rt":681.879999989178,"accuracy":1,"outcome":"-1","keys":[2182.1449999988545],"total_keys":1,"block":1,"trial":120,"robot":3,"valence":"lose","action":"go","sham":0,"trial_type":"pit-trial","trial_index":133,"time_elapsed":630413,"internal_node_id":"0.0-122.0","task_version":"battery-v0.1"},{"view_history":"[{\"page_index\":0,\"viewing_time\":120511.88000000548},{\"page_index\":1,\"viewing_time\":4439.684999990277}]","rt":124951.88499998767,"trial_type":"pit-instructions","trial_index":134,"time_elapsed":755379,"internal_node_id":"0.0-123.0","task_version":"battery-v0.1"},{"rune":"P","hex":"#f73b6a7A","correct":-1,"choice":-1,"rt":-1,"accuracy":1,"outcome":"-1","keys":[],"total_keys":0,"block":2,"trial":121,"robot":4,"valence":"lose","action":"no-go","sham":0,"trial_type":"pit-trial","trial_index":135,"time_elapsed":759387,"internal_node_id":"0.0-124.0","task_version":"battery-v0.1"},{"rune":"J","hex":"#3366ff99","correct":32,"choice":32,"rt":448.7449999724049,"accuracy":1,"outcome":"+10","keys":[1949.5349999924656],"total_keys":1,"block":2,"trial":122,"robot":1,"valence":"win","action":"go","sham":0,"trial_type":"pit-trial","trial_index":136,"time_elapsed":762542,"internal_node_id":"0.0-125.0","task_version":"battery-v0.1"},{"rune":"D","hex":"#3366ff99","correct":-1,"choice":-1,"rt":-1,"accuracy":1,"outcome":"+1","keys":[],"total_keys":0,"block":2,"trial":123,"robot":2,"valence":"win","action":"no-go","sham":1,"trial_type":"pit-trial","trial_index":137,"time_elapsed":766556,"internal_node_id":"0.0-126.0","task_version":"battery-v0.1"},{"rune":"I","hex":"#3366ff99","correct":32,"choice":-1,"rt":-1,"accuracy":0,"outcome":"+10","keys":[],"total_keys":0,"block":2,"trial":124,"robot":1,"valence":"win","action":"go","sham":1,"trial_type":"pit-trial","trial_index":138,"time_elapsed":770571,"internal_node_id":"0.0-127.0","task_version":"battery-v0.1"},{"rune":"I","hex":"#3366ff99","correct":32,"choice":-1,"rt":-1,"accuracy":0,"outcome":"+1","keys":[],"total_keys":0,"block":2,"trial":125,"robot":1,"valence":"win","action":"go","sham":0,"trial_type":"pit-trial","trial_index":139,"time_elapsed":774586,"internal_node_id":"0.0-128.0","task_version":"battery-v0.1"},{"rune":"P","hex":"#f73b6a7A","correct":-1,"choice":-1,"rt":-1,"accuracy":1,"outcome":"-1","keys":[],"total_keys":0,"block":2,"trial":126,"robot":4,"valence":"lose","action":"no-go","sham":0,"trial_type":"pit-trial","trial_index":140,"time_elapsed":778600,"internal_node_id":"0.0-129.0","task_version":"battery-v0.1"},{"rune":"D","hex":"#3366ff99","correct":-1,"choice":32,"rt":398.87000000453554,"accuracy":0,"outcome":"+1","keys":[1899.3649999902118],"total_keys":1,"block":2,"trial":127,"robot":2,"valence":"win","action":"no-go","sham":0,"trial_type":"pit-trial","trial_index":141,"time_elapsed":781716,"internal_node_id":"0.0-130.0","task_version":"battery-v0.1"},{"rune":"J","hex":"#3366ff99","correct":32,"choice":32,"rt":428.9450000214856,"accuracy":1,"outcome":"+10","keys":[1929.535000002943],"total_keys":1,"block":2,"trial":128,"robot":1,"valence":"win","action":"go","sham":0,"trial_type":"pit-trial","trial_index":142,"time_elapsed":784852,"internal_node_id":"0.0-131.0","task_version":"battery-v0.1"},{"rune":"D","hex":"#3366ff99","correct":-1,"choice":-1,"rt":-1,"accuracy":1,"outcome":"+10","keys":[],"total_keys":0,"block":2,"trial":129,"robot":2,"valence":"win","action":"no-go","sham":0,"trial_type":"pit-trial","trial_index":143,"time_elapsed":788867,"internal_node_id":"0.0-132.0","task_version":"battery-v0.1"},{"rune":"P","hex":"#f73b6a7A","correct":-1,"choice":-1,"rt":-1,"accuracy":1,"outcome":"-1","keys":[],"total_keys":0,"block":2,"trial":130,"robot":4,"valence":"lose","action":"no-go","sham":0,"trial_type":"pit-trial","trial_index":144,"time_elapsed":792874,"internal_node_id":"0.0-133.0","task_version":"battery-v0.1"},{"rune":"J","hex":"#3366ff99","correct":32,"choice":32,"rt":583.7849999952596,"accuracy":1,"outcome":"+10","keys":[2084.08000000054],"total_keys":1,"block":2,"trial":131,"robot":1,"valence":"win","action":"go","sham":0,"trial_type":"pit-trial","trial_index":145,"time_elapsed":796171,"internal_node_id":"0.0-134.0","task_version":"battery-v0.1"},{"rune":"I","hex":"#3366ff99","correct":32,"choice":32,"rt":359.66499999631196,"accuracy":1,"outcome":"+1","keys":[1860.1350000244565],"total_keys":1,"block":2,"trial":132,"robot":1,"valence":"win","action":"go","sham":1,"trial_type":"pit-trial","trial_index":146,"time_elapsed":799245,"internal_node_id":"0.0-135.0","task_version":"battery-v0.1"},{"rune":"D","hex":"#3366ff99","correct":-1,"choice":-1,"rt":-1,"accuracy":1,"outcome":"+10","keys":[],"total_keys":0,"block":2,"trial":133,"robot":2,"valence":"win","action":"no-go","sham":0,"trial_type":"pit-trial","trial_index":147,"time_elapsed":803261,"internal_node_id":"0.0-136.0","task_version":"battery-v0.1"},{"rune":"P","hex":"#f73b6a7A","correct":-1,"choice":-1,"rt":-1,"accuracy":1,"outcome":"-1","keys":[],"total_keys":0,"block":2,"trial":134,"robot":4,"valence":"lose","action":"no-go","sham":0,"trial_type":"pit-trial","trial_index":148,"time_elapsed":807278,"internal_node_id":"0.0-137.0","task_version":"battery-v0.1"},{"rune":"J","hex":"#3366ff99","correct":32,"choice":32,"rt":267.7949999924749,"accuracy":1,"outcome":"+10","keys":[1768.1900000025053],"total_keys":1,"block":2,"trial":135,"robot":1,"valence":"win","action":"go","sham":0,"trial_type":"pit-trial","trial_index":149,"time_elapsed":810252,"internal_node_id":"0.0-138.0","task_version":"battery-v0.1"},{"rune":"I","hex":"#3366ff99","correct":32,"choice":-1,"rt":-1,"accuracy":0,"outcome":"+1","keys":[],"total_keys":0,"block":2,"trial":136,"robot":1,"valence":"win","action":"go","sham":0,"trial_type":"pit-trial","trial_index":150,"time_elapsed":814262,"internal_node_id":"0.0-139.0","task_version":"battery-v0.1"},{"rune":"D","hex":"#3366ff99","correct":-1,"choice":-1,"rt":-1,"accuracy":1,"outcome":"+10","keys":[],"total_keys":0,"block":2,"trial":137,"robot":2,"valence":"win","action":"no-go","sham":0,"trial_type":"pit-trial","trial_index":151,"time_elapsed":818271,"internal_node_id":"0.0-140.0","task_version":"battery-v0.1"},{"rune":"I","hex":"#3366ff99","correct":32,"choice":32,"rt":805.1350000023376,"accuracy":1,"outcome":"+1","keys":[2305.4799999808893],"total_keys":1,"block":2,"trial":138,"robot":1,"valence":"win","action":"go","sham":1,"trial_type":"pit-trial","trial_index":152,"time_elapsed":821789,"internal_node_id":"0.0-141.0","task_version":"battery-v0.1"},{"rune":"J","hex":"#3366ff99","correct":32,"choice":32,"rt":301.3700000010431,"accuracy":1,"outcome":"+10","keys":[1802.5550000020303],"total_keys":1,"block":2,"trial":139,"robot":1,"valence":"win","action":"go","sham":0,"trial_type":"pit-trial","trial_index":153,"time_elapsed":824805,"internal_node_id":"0.0-142.0","task_version":"battery-v0.1"},{"rune":"P","hex":"#f73b6a7A","correct":-1,"choice":-1,"rt":-1,"accuracy":1,"outcome":"-1","keys":[],"total_keys":0,"block":2,"trial":140,"robot":4,"valence":"lose","action":"no-go","sham":0,"trial_type":"pit-trial","trial_index":154,"time_elapsed":828820,"internal_node_id":"0.0-143.0","task_version":"battery-v0.1"},{"rune":"D","hex":"#3366ff99","correct":-1,"choice":-1,"rt":-1,"accuracy":1,"outcome":"+1","keys":[],"total_keys":0,"block":2,"trial":141,"robot":2,"valence":"win","action":"no-go","sham":1,"trial_type":"pit-trial","trial_index":155,"time_elapsed":832836,"internal_node_id":"0.0-144.0","task_version":"battery-v0.1"},{"rune":"I","hex":"#3366ff99","correct":32,"choice":32,"rt":924.1100000217557,"accuracy":1,"outcome":"+10","keys":[2425.2099999866914],"total_keys":1,"block":2,"trial":142,"robot":1,"valence":"win","action":"go","sham":0,"trial_type":"pit-trial","trial_index":156,"time_elapsed":836469,"internal_node_id":"0.0-145.0","task_version":"battery-v0.1"},{"rune":"P","hex":"#f73b6a7A","correct":-1,"choice":-1,"rt":-1,"accuracy":1,"outcome":"-10","keys":[],"total_keys":0,"block":2,"trial":143,"robot":4,"valence":"lose","action":"no-go","sham":1,"trial_type":"pit-trial","trial_index":157,"time_elapsed":840477,"internal_node_id":"0.0-146.0","task_version":"battery-v0.1"},{"rune":"J","hex":"#3366ff99","correct":32,"choice":32,"rt":421.07000001124106,"accuracy":1,"outcome":"+10","keys":[1921.2250000273343],"total_keys":1,"block":2,"trial":144,"robot":1,"valence":"win","action":"go","sham":0,"trial_type":"pit-trial","trial_index":158,"time_elapsed":843612,"internal_node_id":"0.0-147.0","task_version":"battery-v0.1"},{"rune":"D","hex":"#3366ff99","correct":-1,"choice":-1,"rt":-1,"accuracy":1,"outcome":"+10","keys":[],"total_keys":0,"block":2,"trial":145,"robot":2,"valence":"win","action":"no-go","sham":0,"trial_type":"pit-trial","trial_index":159,"time_elapsed":847617,"internal_node_id":"0.0-148.0","task_version":"battery-v0.1"},{"rune":"I","hex":"#3366ff99","correct":32,"choice":-1,"rt":-1,"accuracy":0,"outcome":"+1","keys":[],"total_keys":0,"block":2,"trial":146,"robot":1,"valence":"win","action":"go","sham":0,"trial_type":"pit-trial","trial_index":160,"time_elapsed":851624,"internal_node_id":"0.0-149.0","task_version":"battery-v0.1"},{"rune":"J","hex":"#3366ff99","correct":32,"choice":32,"rt":305.3049999871291,"accuracy":1,"outcome":"+10","keys":[1806.3399999809917],"total_keys":1,"block":2,"trial":147,"robot":1,"valence":"win","action":"go","sham":0,"trial_type":"pit-trial","trial_index":161,"time_elapsed":854636,"internal_node_id":"0.0-150.0","task_version":"battery-v0.1"},{"rune":"P","hex":"#f73b6a7A","correct":-1,"choice":-1,"rt":-1,"accuracy":1,"outcome":"-1","keys":[],"total_keys":0,"block":2,"trial":148,"robot":4,"valence":"lose","action":"no-go","sham":0,"trial_type":"pit-trial","trial_index":162,"time_elapsed":858651,"internal_node_id":"0.0-151.0","task_version":"battery-v0.1"},{"rune":"J","hex":"#3366ff99","correct":32,"choice":32,"rt":414.55499999574386,"accuracy":1,"outcome":"+10","keys":[1915.3750000114087],"total_keys":1,"block":2,"trial":149,"robot":1,"valence":"win","action":"go","sham":0,"trial_type":"pit-trial","trial_index":163,"time_elapsed":861780,"internal_node_id":"0.0-152.0","task_version":"battery-v0.1"},{"rune":"D","hex":"#3366ff99","correct":-1,"choice":-1,"rt":-1,"accuracy":1,"outcome":"+10","keys":[],"total_keys":0,"block":2,"trial":150,"robot":2,"valence":"win","action":"no-go","sham":0,"trial_type":"pit-trial","trial_index":164,"time_elapsed":865792,"internal_node_id":"0.0-153.0","task_version":"battery-v0.1"},{"rune":"P","hex":"#f73b6a7A","correct":-1,"choice":-1,"rt":-1,"accuracy":1,"outcome":"-1","keys":[],"total_keys":0,"block":2,"trial":151,"robot":4,"valence":"lose","action":"no-go","sham":0,"trial_type":"pit-trial","trial_index":165,"time_elapsed":869798,"internal_node_id":"0.0-154.0","task_version":"battery-v0.1"},{"rune":"I","hex":"#3366ff99","correct":32,"choice":32,"rt":444.12000000011176,"accuracy":1,"outcome":"+10","keys":[1946.0400000098161],"total_keys":1,"block":2,"trial":152,"robot":1,"valence":"win","action":"go","sham":0,"trial_type":"pit-trial","trial_index":166,"time_elapsed":872957,"internal_node_id":"0.0-155.0","task_version":"battery-v0.1"},{"rune":"P","hex":"#f73b6a7A","correct":-1,"choice":-1,"rt":-1,"accuracy":1,"outcome":"-1","keys":[],"total_keys":0,"block":2,"trial":153,"robot":4,"valence":"lose","action":"no-go","sham":0,"trial_type":"pit-trial","trial_index":167,"time_elapsed":876967,"internal_node_id":"0.0-156.0","task_version":"battery-v0.1"},{"rune":"R","hex":"#3366ff99","correct":32,"choice":-1,"rt":-1,"accuracy":0,"outcome":"+1","keys":[],"total_keys":0,"block":2,"trial":154,"robot":1,"valence":"win","action":"go","sham":0,"trial_type":"pit-trial","trial_index":168,"time_elapsed":880982,"internal_node_id":"0.0-157.0","task_version":"battery-v0.1"},{"rune":"J","hex":"#3366ff99","correct":32,"choice":32,"rt":435.45000001904555,"accuracy":1,"outcome":"+10","keys":[1937.369999999646],"total_keys":1,"block":2,"trial":155,"robot":1,"valence":"win","action":"go","sham":0,"trial_type":"pit-trial","trial_index":169,"time_elapsed":884125,"internal_node_id":"0.0-158.0","task_version":"battery-v0.1"},{"rune":"D","hex":"#3366ff99","correct":-1,"choice":-1,"rt":-1,"accuracy":1,"outcome":"+10","keys":[],"total_keys":0,"block":2,"trial":156,"robot":2,"valence":"win","action":"no-go","sham":0,"trial_type":"pit-trial","trial_index":170,"time_elapsed":888139,"internal_node_id":"0.0-159.0","task_version":"battery-v0.1"},{"rune":"P","hex":"#f73b6a7A","correct":-1,"choice":-1,"rt":-1,"accuracy":1,"outcome":"-1","keys":[],"total_keys":0,"block":2,"trial":157,"robot":4,"valence":"lose","action":"no-go","sham":0,"trial_type":"pit-trial","trial_index":171,"time_elapsed":892146,"internal_node_id":"0.0-160.0","task_version":"battery-v0.1"},{"rune":"R","hex":"#3366ff99","correct":32,"choice":32,"rt":607.9249999893364,"accuracy":1,"outcome":"+10","keys":[2108.460000017658],"total_keys":1,"block":2,"trial":158,"robot":1,"valence":"win","action":"go","sham":0,"trial_type":"pit-trial","trial_index":172,"time_elapsed":895468,"internal_node_id":"0.0-161.0","task_version":"battery-v0.1"},{"rune":"J","hex":"#3366ff99","correct":32,"choice":32,"rt":382.52499999362044,"accuracy":1,"outcome":"+10","keys":[1883.3750000048894],"total_keys":1,"block":2,"trial":159,"robot":1,"valence":"win","action":"go","sham":0,"trial_type":"pit-trial","trial_index":173,"time_elapsed":898564,"internal_node_id":"0.0-162.0","task_version":"battery-v0.1"},{"rune":"D","hex":"#3366ff99","correct":-1,"choice":-1,"rt":-1,"accuracy":1,"outcome":"+1","keys":[],"total_keys":0,"block":2,"trial":160,"robot":2,"valence":"win","action":"no-go","sham":1,"trial_type":"pit-trial","trial_index":174,"time_elapsed":902572,"internal_node_id":"0.0-163.0","task_version":"battery-v0.1"},{"rune":"D","hex":"#3366ff99","correct":-1,"choice":32,"rt":407.4149999942165,"accuracy":0,"outcome":"+10","keys":[1907.6149999746121],"total_keys":1,"block":2,"trial":161,"robot":2,"valence":"win","action":"no-go","sham":1,"trial_type":"pit-trial","trial_index":175,"time_elapsed":905693,"internal_node_id":"0.0-164.0","task_version":"battery-v0.1"},{"rune":"B","hex":"#f73b6a7A","correct":-1,"choice":32,"rt":1053.2050000037998,"accuracy":0,"outcome":"-10","keys":[2553.5849999869242],"total_keys":1,"block":2,"trial":162,"robot":4,"valence":"lose","action":"no-go","sham":0,"trial_type":"pit-trial","trial_index":176,"time_elapsed":909461,"internal_node_id":"0.0-165.0","task_version":"battery-v0.1"},{"rune":"R","hex":"#3366ff99","correct":32,"choice":32,"rt":802.2950000013225,"accuracy":1,"outcome":"+10","keys":[2302.5350000243634],"total_keys":1,"block":2,"trial":163,"robot":1,"valence":"win","action":"go","sham":0,"trial_type":"pit-trial","trial_index":177,"time_elapsed":912981,"internal_node_id":"0.0-166.0","task_version":"battery-v0.1"},{"rune":"C","hex":"#f73b6a7A","correct":32,"choice":-1,"rt":-1,"accuracy":0,"outcome":"-10","keys":[],"total_keys":0,"block":2,"trial":164,"robot":3,"valence":"lose","action":"go","sham":0,"trial_type":"pit-trial","trial_index":178,"time_elapsed":916986,"internal_node_id":"0.0-167.0","task_version":"battery-v0.1"},{"rune":"R","hex":"#3366ff99","correct":32,"choice":32,"rt":558.614999987185,"accuracy":1,"outcome":"+10","keys":[2058.789999980945],"total_keys":1,"block":2,"trial":165,"robot":1,"valence":"win","action":"go","sham":0,"trial_type":"pit-trial","trial_index":179,"time_elapsed":920259,"internal_node_id":"0.0-168.0","task_version":"battery-v0.1"},{"rune":"C","hex":"#f73b6a7A","correct":32,"choice":32,"rt":494.1300000064075,"accuracy":1,"outcome":"-1","keys":[1994.4050000049174],"total_keys":1,"block":2,"trial":166,"robot":3,"valence":"lose","action":"go","sham":0,"trial_type":"pit-trial","trial_index":180,"time_elapsed":923467,"internal_node_id":"0.0-169.0","task_version":"battery-v0.1"},{"rune":"B","hex":"#f73b6a7A","correct":-1,"choice":-1,"rt":-1,"accuracy":1,"outcome":"-1","keys":[],"total_keys":0,"block":2,"trial":167,"robot":4,"valence":"lose","action":"no-go","sham":0,"trial_type":"pit-trial","trial_index":181,"time_elapsed":927474,"internal_node_id":"0.0-170.0","task_version":"battery-v0.1"},{"rune":"D","hex":"#3366ff99","correct":-1,"choice":32,"rt":656.2050000065938,"accuracy":0,"outcome":"+1","keys":[2156.795000017155],"total_keys":1,"block":2,"trial":168,"robot":2,"valence":"win","action":"no-go","sham":0,"trial_type":"pit-trial","trial_index":182,"time_elapsed":930844,"internal_node_id":"0.0-171.0","task_version":"battery-v0.1"},{"rune":"R","hex":"#3366ff99","correct":32,"choice":32,"rt":860.1250000065193,"accuracy":1,"outcome":"+10","keys":[2360.9749999886844],"total_keys":1,"block":2,"trial":169,"robot":1,"valence":"win","action":"go","sham":0,"trial_type":"pit-trial","trial_index":183,"time_elapsed":934421,"internal_node_id":"0.0-172.0","task_version":"battery-v0.1"},{"rune":"C","hex":"#f73b6a7A","correct":32,"choice":32,"rt":508.63999998546205,"accuracy":1,"outcome":"-10","keys":[2009.8799999977928],"total_keys":1,"block":2,"trial":170,"robot":3,"valence":"lose","action":"go","sham":1,"trial_type":"pit-trial","trial_index":184,"time_elapsed":937644,"internal_node_id":"0.0-173.0","task_version":"battery-v0.1"},{"rune":"B","hex":"#f73b6a7A","correct":-1,"choice":-1,"rt":-1,"accuracy":1,"outcome":"-1","keys":[],"total_keys":0,"block":2,"trial":171,"robot":4,"valence":"lose","action":"no-go","sham":0,"trial_type":"pit-trial","trial_index":185,"time_elapsed":941651,"internal_node_id":"0.0-174.0","task_version":"battery-v0.1"},{"rune":"K","hex":"#3366ff99","correct":-1,"choice":32,"rt":1007.080000010319,"accuracy":0,"outcome":"+10","keys":[2507.4449999956414],"total_keys":1,"block":2,"trial":172,"robot":2,"valence":"win","action":"no-go","sham":1,"trial_type":"pit-trial","trial_index":186,"time_elapsed":945372,"internal_node_id":"0.0-175.0","task_version":"battery-v0.1"},{"rune":"K","hex":"#3366ff99","correct":-1,"choice":32,"rt":525.839999987511,"accuracy":0,"outcome":"+1","keys":[2026.5200000139885],"total_keys":1,"block":2,"trial":173,"robot":2,"valence":"win","action":"no-go","sham":0,"trial_type":"pit-trial","trial_index":187,"time_elapsed":948604,"internal_node_id":"0.0-176.0","task_version":"battery-v0.1"},{"rune":"B","hex":"#f73b6a7A","correct":-1,"choice":-1,"rt":-1,"accuracy":1,"outcome":"-1","keys":[],"total_keys":0,"block":2,"trial":174,"robot":4,"valence":"lose","action":"no-go","sham":0,"trial_type":"pit-trial","trial_index":188,"time_elapsed":952620,"internal_node_id":"0.0-177.0","task_version":"battery-v0.1"},{"rune":"C","hex":"#f73b6a7A","correct":32,"choice":32,"rt":575.2600000123493,"accuracy":1,"outcome":"-1","keys":[2075.8199999982025],"total_keys":1,"block":2,"trial":175,"robot":3,"valence":"lose","action":"go","sham":0,"trial_type":"pit-trial","trial_index":189,"time_elapsed":955909,"internal_node_id":"0.0-178.0","task_version":"battery-v0.1"},{"rune":"R","hex":"#3366ff99","correct":32,"choice":32,"rt":724.4050000153948,"accuracy":1,"outcome":"+1","keys":[2225.334999995539],"total_keys":1,"block":2,"trial":176,"robot":1,"valence":"win","action":"go","sham":1,"trial_type":"pit-trial","trial_index":190,"time_elapsed":959349,"internal_node_id":"0.0-179.0","task_version":"battery-v0.1"},{"rune":"C","hex":"#f73b6a7A","correct":32,"choice":32,"rt":729.5699999958742,"accuracy":1,"outcome":"-10","keys":[2229.5349999913014],"total_keys":1,"block":2,"trial":177,"robot":3,"valence":"lose","action":"go","sham":1,"trial_type":"pit-trial","trial_index":191,"time_elapsed":962796,"internal_node_id":"0.0-180.0","task_version":"battery-v0.1"},{"rune":"R","hex":"#3366ff99","correct":32,"choice":32,"rt":571.8699999852106,"accuracy":1,"outcome":"+10","keys":[2073.1700000178535],"total_keys":1,"block":2,"trial":178,"robot":1,"valence":"win","action":"go","sham":0,"trial_type":"pit-trial","trial_index":192,"time_elapsed":966076,"internal_node_id":"0.0-181.0","task_version":"battery-v0.1"},{"rune":"K","hex":"#3366ff99","correct":-1,"choice":-1,"rt":-1,"accuracy":1,"outcome":"+1","keys":[],"total_keys":0,"block":2,"trial":179,"robot":2,"valence":"win","action":"no-go","sham":1,"trial_type":"pit-trial","trial_index":193,"time_elapsed":970092,"internal_node_id":"0.0-182.0","task_version":"battery-v0.1"},{"rune":"B","hex":"#f73b6a7A","correct":-1,"choice":-1,"rt":-1,"accuracy":1,"outcome":"-1","keys":[],"total_keys":0,"block":2,"trial":180,"robot":4,"valence":"lose","action":"no-go","sham":0,"trial_type":"pit-trial","trial_index":194,"time_elapsed":974099,"internal_node_id":"0.0-183.0","task_version":"battery-v0.1"},{"rune":"C","hex":"#f73b6a7A","correct":32,"choice":32,"rt":591.0900000017136,"accuracy":1,"outcome":"-1","keys":[2092.0699999842327],"total_keys":1,"block":2,"trial":181,"robot":3,"valence":"lose","action":"go","sham":0,"trial_type":"pit-trial","trial_index":195,"time_elapsed":977404,"internal_node_id":"0.0-184.0","task_version":"battery-v0.1"},{"rune":"R","hex":"#3366ff99","correct":32,"choice":32,"rt":502.24500001058914,"accuracy":1,"outcome":"+10","keys":[2002.4399999820162],"total_keys":1,"block":2,"trial":182,"robot":1,"valence":"win","action":"go","sham":0,"trial_type":"pit-trial","trial_index":196,"time_elapsed":980612,"internal_node_id":"0.0-185.0","task_version":"battery-v0.1"},{"rune":"B","hex":"#f73b6a7A","correct":-1,"choice":-1,"rt":-1,"accuracy":1,"outcome":"-1","keys":[],"total_keys":0,"block":2,"trial":183,"robot":4,"valence":"lose","action":"no-go","sham":0,"trial_type":"pit-trial","trial_index":197,"time_elapsed":984627,"internal_node_id":"0.0-186.0","task_version":"battery-v0.1"},{"rune":"K","hex":"#3366ff99","correct":-1,"choice":32,"rt":350.77499999897555,"accuracy":0,"outcome":"+1","keys":[1851.8899999908172],"total_keys":1,"block":2,"trial":184,"robot":2,"valence":"win","action":"no-go","sham":0,"trial_type":"pit-trial","trial_index":198,"time_elapsed":987693,"internal_node_id":"0.0-187.0","task_version":"battery-v0.1"},{"rune":"R","hex":"#3366ff99","correct":32,"choice":32,"rt":556.4549999835435,"accuracy":1,"outcome":"+10","keys":[2056.7599999776576],"total_keys":1,"block":2,"trial":185,"robot":1,"valence":"win","action":"go","sham":0,"trial_type":"pit-trial","trial_index":199,"time_elapsed":990957,"internal_node_id":"0.0-188.0","task_version":"battery-v0.1"},{"rune":"K","hex":"#3366ff99","correct":-1,"choice":-1,"rt":-1,"accuracy":1,"outcome":"+1","keys":[],"total_keys":0,"block":2,"trial":186,"robot":2,"valence":"win","action":"no-go","sham":1,"trial_type":"pit-trial","trial_index":200,"time_elapsed":994973,"internal_node_id":"0.0-189.0","task_version":"battery-v0.1"},{"rune":"B","hex":"#f73b6a7A","correct":-1,"choice":-1,"rt":-1,"accuracy":1,"outcome":"-1","keys":[],"total_keys":0,"block":2,"trial":187,"robot":4,"valence":"lose","action":"no-go","sham":0,"trial_type":"pit-trial","trial_index":201,"time_elapsed":998980,"internal_node_id":"0.0-190.0","task_version":"battery-v0.1"},{"rune":"C","hex":"#f73b6a7A","correct":32,"choice":32,"rt":583.0299999797717,"accuracy":1,"outcome":"-10","keys":[2083.6400000262074],"total_keys":1,"block":2,"trial":188,"robot":3,"valence":"lose","action":"go","sham":1,"trial_type":"pit-trial","trial_index":202,"time_elapsed":1002277,"internal_node_id":"0.0-191.0","task_version":"battery-v0.1"},{"rune":"C","hex":"#f73b6a7A","correct":32,"choice":32,"rt":594.9600000167266,"accuracy":1,"outcome":"-10","keys":[2096.4249999960884],"total_keys":1,"block":2,"trial":189,"robot":3,"valence":"lose","action":"go","sham":1,"trial_type":"pit-trial","trial_index":203,"time_elapsed":1005588,"internal_node_id":"0.0-192.0","task_version":"battery-v0.1"},{"rune":"R","hex":"#3366ff99","correct":32,"choice":32,"rt":679.6400000166614,"accuracy":1,"outcome":"+10","keys":[2179.824999999255],"total_keys":1,"block":2,"trial":190,"robot":1,"valence":"win","action":"go","sham":0,"trial_type":"pit-trial","trial_index":204,"time_elapsed":1008980,"internal_node_id":"0.0-193.0","task_version":"battery-v0.1"},{"rune":"K","hex":"#3366ff99","correct":-1,"choice":32,"rt":806.3650000258349,"accuracy":0,"outcome":"+1","keys":[2307.0849999785423],"total_keys":1,"block":2,"trial":191,"robot":2,"valence":"win","action":"no-go","sham":0,"trial_type":"pit-trial","trial_index":205,"time_elapsed":1012492,"internal_node_id":"0.0-194.0","task_version":"battery-v0.1"},{"rune":"B","hex":"#f73b6a7A","correct":-1,"choice":-1,"rt":-1,"accuracy":1,"outcome":"-1","keys":[],"total_keys":0,"block":2,"trial":192,"robot":4,"valence":"lose","action":"no-go","sham":0,"trial_type":"pit-trial","trial_index":206,"time_elapsed":1016500,"internal_node_id":"0.0-195.0","task_version":"battery-v0.1"},{"rune":"B","hex":"#f73b6a7A","correct":-1,"choice":-1,"rt":-1,"accuracy":1,"outcome":"-1","keys":[],"total_keys":0,"block":2,"trial":193,"robot":4,"valence":"lose","action":"no-go","sham":0,"trial_type":"pit-trial","trial_index":207,"time_elapsed":1020514,"internal_node_id":"0.0-196.0","task_version":"battery-v0.1"},{"rune":"R","hex":"#3366ff99","correct":32,"choice":32,"rt":673.4850000066217,"accuracy":1,"outcome":"+1","keys":[2173.8949999853503],"total_keys":1,"block":2,"trial":194,"robot":1,"valence":"win","action":"go","sham":1,"trial_type":"pit-trial","trial_index":208,"time_elapsed":1023893,"internal_node_id":"0.0-197.0","task_version":"battery-v0.1"},{"rune":"K","hex":"#3366ff99","correct":-1,"choice":32,"rt":500.04500002251007,"accuracy":0,"outcome":"+1","keys":[2000.4400000034366],"total_keys":1,"block":2,"trial":195,"robot":2,"valence":"win","action":"no-go","sham":0,"trial_type":"pit-trial","trial_index":209,"time_elapsed":1027107,"internal_node_id":"0.0-198.0","task_version":"battery-v0.1"},{"rune":"T","hex":"#f73b6a7A","correct":32,"choice":-1,"rt":-1,"accuracy":0,"outcome":"-10","keys":[],"total_keys":0,"block":2,"trial":196,"robot":3,"valence":"lose","action":"go","sham":0,"trial_type":"pit-trial","trial_index":210,"time_elapsed":1031122,"internal_node_id":"0.0-199.0","task_version":"battery-v0.1"},{"rune":"R","hex":"#3366ff99","correct":32,"choice":32,"rt":618.6349999916274,"accuracy":1,"outcome":"+10","keys":[2119.8399999993853],"total_keys":1,"block":2,"trial":197,"robot":1,"valence":"win","action":"go","sham":0,"trial_type":"pit-trial","trial_index":211,"time_elapsed":1034455,"internal_node_id":"0.0-200.0","task_version":"battery-v0.1"},{"rune":"T","hex":"#f73b6a7A","correct":32,"choice":32,"rt":553.4200000111014,"accuracy":1,"outcome":"-1","keys":[2054.130000004079],"total_keys":1,"block":2,"trial":198,"robot":3,"valence":"lose","action":"go","sham":0,"trial_type":"pit-trial","trial_index":212,"time_elapsed":1037724,"internal_node_id":"0.0-201.0","task_version":"battery-v0.1"},{"rune":"B","hex":"#f73b6a7A","correct":-1,"choice":-1,"rt":-1,"accuracy":1,"outcome":"-1","keys":[],"total_keys":0,"block":2,"trial":199,"robot":4,"valence":"lose","action":"no-go","sham":0,"trial_type":"pit-trial","trial_index":213,"time_elapsed":1041740,"internal_node_id":"0.0-202.0","task_version":"battery-v0.1"},{"rune":"K","hex":"#3366ff99","correct":-1,"choice":-1,"rt":-1,"accuracy":1,"outcome":"+1","keys":[],"total_keys":0,"block":2,"trial":200,"robot":2,"valence":"win","action":"no-go","sham":1,"trial_type":"pit-trial","trial_index":214,"time_elapsed":1045746,"internal_node_id":"0.0-203.0","task_version":"battery-v0.1"},{"rune":"K","hex":"#3366ff99","correct":-1,"choice":32,"rt":495.3349999850616,"accuracy":0,"outcome":"+10","keys":[1996.404999983497],"total_keys":1,"block":2,"trial":201,"robot":2,"valence":"win","action":"no-go","sham":1,"trial_type":"pit-trial","trial_index":215,"time_elapsed":1048957,"internal_node_id":"0.0-204.0","task_version":"battery-v0.1"},{"rune":"T","hex":"#f73b6a7A","correct":32,"choice":32,"rt":796.3349999918137,"accuracy":1,"outcome":"-1","keys":[2296.694999997271],"total_keys":1,"block":2,"trial":202,"robot":3,"valence":"lose","action":"go","sham":0,"trial_type":"pit-trial","trial_index":216,"time_elapsed":1052468,"internal_node_id":"0.0-205.0","task_version":"battery-v0.1"},{"rune":"G","hex":"#f73b6a7A","correct":32,"choice":-1,"rt":-1,"accuracy":0,"outcome":"-10","keys":[],"total_keys":0,"block":2,"trial":203,"robot":3,"valence":"lose","action":"go","sham":0,"trial_type":"pit-trial","trial_index":217,"time_elapsed":1056483,"internal_node_id":"0.0-206.0","task_version":"battery-v0.1"},{"rune":"B","hex":"#f73b6a7A","correct":-1,"choice":-1,"rt":-1,"accuracy":1,"outcome":"-1","keys":[],"total_keys":0,"block":2,"trial":204,"robot":4,"valence":"lose","action":"no-go","sham":0,"trial_type":"pit-trial","trial_index":218,"time_elapsed":1060499,"internal_node_id":"0.0-207.0","task_version":"battery-v0.1"},{"rune":"K","hex":"#3366ff99","correct":-1,"choice":32,"rt":615.3950000007171,"accuracy":0,"outcome":"+1","keys":[2116.379999992205],"total_keys":1,"block":2,"trial":205,"robot":2,"valence":"win","action":"no-go","sham":0,"trial_type":"pit-trial","trial_index":219,"time_elapsed":1063828,"internal_node_id":"0.0-208.0","task_version":"battery-v0.1"},{"rune":"T","hex":"#f73b6a7A","correct":32,"choice":-1,"rt":-1,"accuracy":0,"outcome":"-10","keys":[],"total_keys":0,"block":2,"trial":206,"robot":3,"valence":"lose","action":"go","sham":0,"trial_type":"pit-trial","trial_index":220,"time_elapsed":1067834,"internal_node_id":"0.0-209.0","task_version":"battery-v0.1"},{"rune":"G","hex":"#f73b6a7A","correct":32,"choice":-1,"rt":-1,"accuracy":0,"outcome":"-1","keys":[],"total_keys":0,"block":2,"trial":207,"robot":3,"valence":"lose","action":"go","sham":1,"trial_type":"pit-trial","trial_index":221,"time_elapsed":1071849,"internal_node_id":"0.0-210.0","task_version":"battery-v0.1"},{"rune":"B","hex":"#f73b6a7A","correct":-1,"choice":-1,"rt":-1,"accuracy":1,"outcome":"-1","keys":[],"total_keys":0,"block":2,"trial":208,"robot":4,"valence":"lose","action":"no-go","sham":0,"trial_type":"pit-trial","trial_index":222,"time_elapsed":1075864,"internal_node_id":"0.0-211.0","task_version":"battery-v0.1"},{"rune":"N","hex":"#3366ff99","correct":-1,"choice":32,"rt":944.4299999740906,"accuracy":0,"outcome":"+10","keys":[2445.510000019567],"total_keys":1,"block":2,"trial":209,"robot":2,"valence":"win","action":"no-go","sham":1,"trial_type":"pit-trial","trial_index":223,"time_elapsed":1079523,"internal_node_id":"0.0-212.0","task_version":"battery-v0.1"},{"rune":"W","hex":"#f73b6a7A","correct":-1,"choice":-1,"rt":-1,"accuracy":1,"outcome":"-1","keys":[],"total_keys":0,"block":2,"trial":210,"robot":4,"valence":"lose","action":"no-go","sham":0,"trial_type":"pit-trial","trial_index":224,"time_elapsed":1083529,"internal_node_id":"0.0-213.0","task_version":"battery-v0.1"},{"rune":"T","hex":"#f73b6a7A","correct":32,"choice":32,"rt":552.9850000166334,"accuracy":1,"outcome":"-1","keys":[2053.569999989122],"total_keys":1,"block":2,"trial":211,"robot":3,"valence":"lose","action":"go","sham":0,"trial_type":"pit-trial","trial_index":225,"time_elapsed":1086796,"internal_node_id":"0.0-214.0","task_version":"battery-v0.1"},{"rune":"G","hex":"#f73b6a7A","correct":32,"choice":-1,"rt":-1,"accuracy":0,"outcome":"-10","keys":[],"total_keys":0,"block":2,"trial":212,"robot":3,"valence":"lose","action":"go","sham":0,"trial_type":"pit-trial","trial_index":226,"time_elapsed":1090803,"internal_node_id":"0.0-215.0","task_version":"battery-v0.1"},{"rune":"W","hex":"#f73b6a7A","correct":-1,"choice":-1,"rt":-1,"accuracy":1,"outcome":"-10","keys":[],"total_keys":0,"block":2,"trial":213,"robot":4,"valence":"lose","action":"no-go","sham":1,"trial_type":"pit-trial","trial_index":227,"time_elapsed":1094816,"internal_node_id":"0.0-216.0","task_version":"battery-v0.1"},{"rune":"N","hex":"#3366ff99","correct":-1,"choice":32,"rt":906.2700000067707,"accuracy":0,"outcome":"+1","keys":[2407.0300000021234],"total_keys":1,"block":2,"trial":214,"robot":2,"valence":"win","action":"no-go","sham":0,"trial_type":"pit-trial","trial_index":228,"time_elapsed":1098428,"internal_node_id":"0.0-217.0","task_version":"battery-v0.1"},{"rune":"T","hex":"#f73b6a7A","correct":32,"choice":32,"rt":437.69999998039566,"accuracy":1,"outcome":"-1","keys":[1937.8199999919161],"total_keys":1,"block":2,"trial":215,"robot":3,"valence":"lose","action":"go","sham":0,"trial_type":"pit-trial","trial_index":229,"time_elapsed":1101571,"internal_node_id":"0.0-218.0","task_version":"battery-v0.1"},{"rune":"G","hex":"#f73b6a7A","correct":32,"choice":-1,"rt":-1,"accuracy":0,"outcome":"-10","keys":[],"total_keys":0,"block":2,"trial":216,"robot":3,"valence":"lose","action":"go","sham":0,"trial_type":"pit-trial","trial_index":230,"time_elapsed":1105586,"internal_node_id":"0.0-219.0","task_version":"battery-v0.1"},{"rune":"T","hex":"#f73b6a7A","correct":32,"choice":32,"rt":554.4299999892246,"accuracy":1,"outcome":"-1","keys":[2055.4149999807123],"total_keys":1,"block":2,"trial":217,"robot":3,"valence":"lose","action":"go","sham":0,"trial_type":"pit-trial","trial_index":231,"time_elapsed":1108852,"internal_node_id":"0.0-220.0","task_version":"battery-v0.1"},{"rune":"G","hex":"#f73b6a7A","correct":32,"choice":32,"rt":404.64500000234693,"accuracy":1,"outcome":"-1","keys":[1904.884999996284],"total_keys":1,"block":2,"trial":218,"robot":3,"valence":"lose","action":"go","sham":0,"trial_type":"pit-trial","trial_index":232,"time_elapsed":1111964,"internal_node_id":"0.0-221.0","task_version":"battery-v0.1"},{"rune":"N","hex":"#3366ff99","correct":-1,"choice":-1,"rt":-1,"accuracy":1,"outcome":"+1","keys":[],"total_keys":0,"block":2,"trial":219,"robot":2,"valence":"win","action":"no-go","sham":1,"trial_type":"pit-trial","trial_index":233,"time_elapsed":1115979,"internal_node_id":"0.0-222.0","task_version":"battery-v0.1"},{"rune":"W","hex":"#f73b6a7A","correct":-1,"choice":-1,"rt":-1,"accuracy":1,"outcome":"-1","keys":[],"total_keys":0,"block":2,"trial":220,"robot":4,"valence":"lose","action":"no-go","sham":0,"trial_type":"pit-trial","trial_index":234,"time_elapsed":1119995,"internal_node_id":"0.0-223.0","task_version":"battery-v0.1"},{"rune":"G","hex":"#f73b6a7A","correct":32,"choice":32,"rt":528.8600000203587,"accuracy":1,"outcome":"-1","keys":[2030.5200000002515],"total_keys":1,"block":2,"trial":221,"robot":3,"valence":"lose","action":"go","sham":0,"trial_type":"pit-trial","trial_index":235,"time_elapsed":1123243,"internal_node_id":"0.0-224.0","task_version":"battery-v0.1"},{"rune":"T","hex":"#f73b6a7A","correct":32,"choice":32,"rt":471.2199999776203,"accuracy":1,"outcome":"-1","keys":[1971.8200000061188],"total_keys":1,"block":2,"trial":222,"robot":3,"valence":"lose","action":"go","sham":0,"trial_type":"pit-trial","trial_index":236,"time_elapsed":1126420,"internal_node_id":"0.0-225.0","task_version":"battery-v0.1"},{"rune":"W","hex":"#f73b6a7A","correct":-1,"choice":-1,"rt":-1,"accuracy":1,"outcome":"-1","keys":[],"total_keys":0,"block":2,"trial":223,"robot":4,"valence":"lose","action":"no-go","sham":0,"trial_type":"pit-trial","trial_index":237,"time_elapsed":1130431,"internal_node_id":"0.0-226.0","task_version":"battery-v0.1"},{"rune":"N","hex":"#3366ff99","correct":-1,"choice":-1,"rt":-1,"accuracy":1,"outcome":"+1","keys":[],"total_keys":0,"block":2,"trial":224,"robot":2,"valence":"win","action":"no-go","sham":1,"trial_type":"pit-trial","trial_index":238,"time_elapsed":1134444,"internal_node_id":"0.0-227.0","task_version":"battery-v0.1"},{"rune":"G","hex":"#f73b6a7A","correct":32,"choice":32,"rt":1229.075000010198,"accuracy":1,"outcome":"-1","keys":[2729.8500000033528],"total_keys":1,"block":2,"trial":225,"robot":3,"valence":"lose","action":"go","sham":0,"trial_type":"pit-trial","trial_index":239,"time_elapsed":1138387,"internal_node_id":"0.0-228.0","task_version":"battery-v0.1"},{"rune":"N","hex":"#3366ff99","correct":-1,"choice":32,"rt":1102.4099999922328,"accuracy":0,"outcome":"+10","keys":[2603.3649999881163],"total_keys":1,"block":2,"trial":226,"robot":2,"valence":"win","action":"no-go","sham":1,"trial_type":"pit-trial","trial_index":240,"time_elapsed":1142205,"internal_node_id":"0.0-229.0","task_version":"battery-v0.1"},{"rune":"T","hex":"#f73b6a7A","correct":32,"choice":32,"rt":635.2750000078231,"accuracy":1,"outcome":"-1","keys":[2136.060000018915],"total_keys":1,"block":2,"trial":227,"robot":3,"valence":"lose","action":"go","sham":0,"trial_type":"pit-trial","trial_index":241,"time_elapsed":1145554,"internal_node_id":"0.0-230.0","task_version":"battery-v0.1"},{"rune":"W","hex":"#f73b6a7A","correct":-1,"choice":-1,"rt":-1,"accuracy":1,"outcome":"-1","keys":[],"total_keys":0,"block":2,"trial":228,"robot":4,"valence":"lose","action":"no-go","sham":0,"trial_type":"pit-trial","trial_index":242,"time_elapsed":1149565,"internal_node_id":"0.0-231.0","task_version":"battery-v0.1"},{"rune":"N","hex":"#3366ff99","correct":-1,"choice":32,"rt":741.1950000096112,"accuracy":0,"outcome":"+1","keys":[2241.3700000033714],"total_keys":1,"block":2,"trial":229,"robot":2,"valence":"win","action":"no-go","sham":0,"trial_type":"pit-trial","trial_index":243,"time_elapsed":1153020,"internal_node_id":"0.0-232.0","task_version":"battery-v0.1"},{"rune":"W","hex":"#f73b6a7A","correct":-1,"choice":-1,"rt":-1,"accuracy":1,"outcome":"-1","keys":[],"total_keys":0,"block":2,"trial":230,"robot":4,"valence":"lose","action":"no-go","sham":0,"trial_type":"pit-trial","trial_index":244,"time_elapsed":1157035,"internal_node_id":"0.0-233.0","task_version":"battery-v0.1"},{"rune":"G","hex":"#f73b6a7A","correct":32,"choice":32,"rt":313.41500001144595,"accuracy":1,"outcome":"-1","keys":[1813.9950000040699],"total_keys":1,"block":2,"trial":231,"robot":3,"valence":"lose","action":"go","sham":0,"trial_type":"pit-trial","trial_index":245,"time_elapsed":1160060,"internal_node_id":"0.0-234.0","task_version":"battery-v0.1"},{"rune":"T","hex":"#f73b6a7A","correct":32,"choice":32,"rt":442.19000000157394,"accuracy":1,"outcome":"-1","keys":[1942.8550000011455],"total_keys":1,"block":2,"trial":232,"robot":3,"valence":"lose","action":"go","sham":0,"trial_type":"pit-trial","trial_index":246,"time_elapsed":1163220,"internal_node_id":"0.0-235.0","task_version":"battery-v0.1"},{"rune":"N","hex":"#3366ff99","correct":-1,"choice":32,"rt":331.46499999566004,"accuracy":0,"outcome":"+1","keys":[1831.7950000055134],"total_keys":1,"block":2,"trial":233,"robot":2,"valence":"win","action":"no-go","sham":0,"trial_type":"pit-trial","trial_index":247,"time_elapsed":1166268,"internal_node_id":"0.0-236.0","task_version":"battery-v0.1"},{"rune":"W","hex":"#f73b6a7A","correct":-1,"choice":-1,"rt":-1,"accuracy":1,"outcome":"-1","keys":[],"total_keys":0,"block":2,"trial":234,"robot":4,"valence":"lose","action":"no-go","sham":0,"trial_type":"pit-trial","trial_index":248,"time_elapsed":1170289,"internal_node_id":"0.0-237.0","task_version":"battery-v0.1"},{"rune":"G","hex":"#f73b6a7A","correct":32,"choice":32,"rt":1128.3450000046287,"accuracy":1,"outcome":"-1","keys":[2629.654999997001],"total_keys":1,"block":2,"trial":235,"robot":3,"valence":"lose","action":"go","sham":0,"trial_type":"pit-trial","trial_index":249,"time_elapsed":1174124,"internal_node_id":"0.0-238.0","task_version":"battery-v0.1"},{"rune":"T","hex":"#f73b6a7A","correct":32,"choice":32,"rt":548.3250000106636,"accuracy":1,"outcome":"-1","keys":[2049.009999987902],"total_keys":1,"block":2,"trial":236,"robot":3,"valence":"lose","action":"go","sham":0,"trial_type":"pit-trial","trial_index":250,"time_elapsed":1177386,"internal_node_id":"0.0-239.0","task_version":"battery-v0.1"},{"rune":"T","hex":"#f73b6a7A","correct":32,"choice":32,"rt":679.8100000014529,"accuracy":1,"outcome":"-1","keys":[2180.1899999845773],"total_keys":1,"block":2,"trial":237,"robot":3,"valence":"lose","action":"go","sham":0,"trial_type":"pit-trial","trial_index":251,"time_elapsed":1180780,"internal_node_id":"0.0-240.0","task_version":"battery-v0.1"},{"rune":"G","hex":"#f73b6a7A","correct":32,"choice":32,"rt":716.4550000161398,"accuracy":1,"outcome":"-1","keys":[2217.2600000048988],"total_keys":1,"block":2,"trial":238,"robot":3,"valence":"lose","action":"go","sham":0,"trial_type":"pit-trial","trial_index":252,"time_elapsed":1184211,"internal_node_id":"0.0-241.0","task_version":"battery-v0.1"},{"rune":"W","hex":"#f73b6a7A","correct":-1,"choice":-1,"rt":-1,"accuracy":1,"outcome":"-1","keys":[],"total_keys":0,"block":2,"trial":239,"robot":4,"valence":"lose","action":"no-go","sham":0,"trial_type":"pit-trial","trial_index":253,"time_elapsed":1188224,"internal_node_id":"0.0-242.0","task_version":"battery-v0.1"},{"rune":"N","hex":"#3366ff99","correct":-1,"choice":-1,"rt":-1,"accuracy":1,"outcome":"+10","keys":[],"total_keys":0,"block":2,"trial":240,"robot":2,"valence":"win","action":"no-go","sham":0,"trial_type":"pit-trial","trial_index":254,"time_elapsed":1192231,"internal_node_id":"0.0-243.0","task_version":"battery-v0.1"},{"view_history":"[{\"page_index\":0,\"viewing_time\":4421.300000016345}]","rt":4421.559999987949,"trial_type":"pit-instructions","trial_index":255,"time_elapsed":1196665,"internal_node_id":"0.0-244.0","task_version":"battery-v0.1"},{"rt":20547.17000000528,"responses":{"age":"37","gender-categorical":"Male","gender-free-response":"","ethnicity":"Not Hispanic or Latino","race":["American Indian/Alaska Native","White"],"language":"Yes","fluency":"Very well"},"survey":"demographics","trial_type":"survey-demo","trial_index":256,"time_elapsed":1217218,"internal_node_id":"0.0-245.0","task_version":"battery-v0.1"},{"rt":151049.81500000576,"responses":{"difficulty":"3","fun":"4","clarity":"5","strategy":"Tried to memorize the most common responses for each symbol.","feedback":"It often seemed riskier to attempt repairs than to ignore."},"survey":"debrief","trial_type":"survey-debrief","trial_index":257,"time_elapsed":1368274,"internal_node_id":"0.0-246.0","task_version":"battery-v0.1","interactions":"[]"}]