[{"view_history":"[{\"page_index\":0,\"viewing_time\":3526.769999996759},{\"page_index\":1,\"viewing_time\":2951.094999909401},{\"page_index\":2,\"viewing_time\":1471.7800000216812},{\"page_index\":3,\"viewing_time\":4896.275000064634},{\"page_index\":4,\"viewing_time\":2936.05999997817},{\"page_index\":5,\"viewing_time\":4016.1800000350922}]","rt":19799.995000008494,"trial_type":"pit-instructions","trial_index":0,"time_elapsed":19812,"internal_node_id":"0.0-0.0-0.0","task_version":"battery-v0.1"},{"rune":"","hex":"#FFFFF080","correct":32,"choice":-1,"rt":-1,"accuracy":0,"outcome":"+0","keys":[],"total_keys":0,"block":0,"trial_type":"pit-trial","trial_index":1,"time_elapsed":23839,"internal_node_id":"0.0-0.0-1.0-0.0","task_version":"battery-v0.1"},{"rune":"","hex":"#FFFFF080","correct":32,"choice":-1,"rt":-1,"accuracy":0,"outcome":"+0","keys":[],"total_keys":0,"block":0,"trial_type":"pit-trial","trial_index":2,"time_elapsed":27857,"internal_node_id":"0.0-0.0-1.0-0.1","task_version":"battery-v0.1"},{"rune":"","hex":"#FFFFF080","correct":32,"choice":-1,"rt":-1,"accuracy":0,"outcome":"+0","keys":[],"total_keys":0,"block":0,"trial_type":"pit-trial","trial_index":3,"time_elapsed":31862,"internal_node_id":"0.0-0.0-1.0-0.2","task_version":"battery-v0.1"},{"rune":"","hex":"#FFFFF080","correct":32,"choice":-1,"rt":-1,"accuracy":0,"outcome":"+0","keys":[],"total_keys":0,"block":0,"trial_type":"pit-trial","trial_index":4,"time_elapsed":35866,"internal_node_id":"0.0-0.0-1.0-0.3","task_version":"battery-v0.1"},{"view_history":"[{\"page_index\":0,\"viewing_time\":5835.235000005923}]","rt":5835.995000088587,"trial_type":"pit-instructions","trial_index":5,"time_elapsed":41706,"internal_node_id":"0.0-0.0-2.0","task_version":"battery-v0.1"},{"rune":"","hex":"#FFFFF080","correct":-1,"choice":-1,"rt":-1,"accuracy":1,"outcome":"+10","keys":[],"total_keys":0,"block":0,"trial_type":"pit-trial","trial_index":6,"time_elapsed":45712,"internal_node_id":"0.0-0.0-3.0-0.0","task_version":"battery-v0.1"},{"rune":"","hex":"#FFFFF080","correct":-1,"choice":-1,"rt":-1,"accuracy":1,"outcome":"+10","keys":[],"total_keys":0,"block":0,"trial_type":"pit-trial","trial_index":7,"time_elapsed":49717,"internal_node_id":"0.0-0.0-3.0-0.1","task_version":"battery-v0.1"},{"rune":"","hex":"#FFFFF080","correct":-1,"choice":-1,"rt":-1,"accuracy":1,"outcome":"+10","keys":[],"total_keys":0,"block":0,"trial_type":"pit-trial","trial_index":8,"time_elapsed":53721,"internal_node_id":"0.0-0.0-3.0-0.2","task_version":"battery-v0.1"},{"rune":"","hex":"#FFFFF080","correct":-1,"choice":-1,"rt":-1,"accuracy":1,"outcome":"+10","keys":[],"total_keys":0,"block":0,"trial_type":"pit-trial","trial_index":9,"time_elapsed":57725,"internal_node_id":"0.0-0.0-3.0-0.3","task_version":"battery-v0.1"},{"responses":["Press SPACE","Do nothing"],"num_errors":0,"rt":6618.099999963306,"trial_type":"pit-comprehension","trial_index":10,"time_elapsed":64347,"internal_node_id":"0.0-0.0-4.0","task_version":"battery-v0.1"},{"view_history":"[{\"page_index\":0,\"viewing_time\":9362.779999966733},{\"page_index\":1,\"viewing_time\":6167.875000042841},{\"page_index\":2,\"viewing_time\":5512.38500000909},{\"page_index\":3,\"viewing_time\":4279.754999908619},{\"page_index\":4,\"viewing_time\":5360.4850000701845},{\"page_index\":5,\"viewing_time\":5391.919999965467},{\"page_index\":6,\"viewing_time\":2287.6049999613315},{\"page_index\":7,\"viewing_time\":6808.079999987967},{\"page_index\":8,\"viewing_time\":3528.19000009913},{\"page_index\":9,\"viewing_time\":2856.154999928549},{\"page_index\":10,\"viewing_time\":1895.2800000552088}]","rt":53451.05499995407,"trial_type":"pit-instructions","trial_index":11,"time_elapsed":117802,"internal_node_id":"0.0-1.0-0.0","task_version":"battery-v0.1"},{"responses":["+10","-1","True","True"],"num_errors":0,"rt":21014.94999998249,"trial_type":"pit-comprehension","trial_index":12,"time_elapsed":138820,"internal_node_id":"0.0-1.0-1.0","task_version":"battery-v0.1"},{"view_history":"[{\"page_index\":0,\"viewing_time\":2881.345000001602},{\"page_index\":1,\"viewing_time\":2824.3349998956546}]","rt":5706.464999937452,"trial_type":"pit-instructions","trial_index":13,"time_elapsed":144531,"internal_node_id":"0.0-2.0","task_version":"battery-v0.1"},{"rune":"K","hex":"#3366ff99","correct":-1,"choice":32,"rt":582.7750000171363,"accuracy":0,"outcome":"+1","keys":[2083.035000017844],"total_keys":1,"block":1,"trial":1,"robot":2,"valence":"win","action":"no-go","sham":0,"trial_type":"pit-trial","trial_index":14,"time_elapsed":147821,"internal_node_id":"0.0-3.0","task_version":"battery-v0.1"},{"rune":"C","hex":"#f73b6a7A","correct":-1,"choice":32,"rt":556.9950001081452,"accuracy":0,"outcome":"-10","keys":[2057.3549999389797],"total_keys":1,"block":1,"trial":2,"robot":4,"valence":"lose","action":"no-go","sham":0,"trial_type":"pit-trial","trial_index":15,"time_elapsed":151082,"internal_node_id":"0.0-4.0","task_version":"battery-v0.1"},{"rune":"G","hex":"#3366ff99","correct":32,"choice":32,"rt":537.830000044778,"accuracy":1,"outcome":"+10","keys":[2038.3450000081211],"total_keys":1,"block":1,"trial":3,"robot":1,"valence":"win","action":"go","sham":0,"trial_type":"pit-trial","trial_index":16,"time_elapsed":154325,"internal_node_id":"0.0-5.0","task_version":"battery-v0.1"},{"rune":"I","hex":"#f73b6a7A","correct":-1,"choice":-1,"rt":-1,"accuracy":1,"outcome":"-1","keys":[],"total_keys":0,"block":1,"trial":4,"robot":4,"valence":"lose","action":"no-go","sham":0,"trial_type":"pit-trial","trial_index":17,"time_elapsed":158329,"internal_node_id":"0.0-6.0","task_version":"battery-v0.1"},{"rune":"C","hex":"#f73b6a7A","correct":-1,"choice":32,"rt":522.1049999818206,"accuracy":0,"outcome":"-10","keys":[2022.9050000198185],"total_keys":1,"block":1,"trial":5,"robot":4,"valence":"lose","action":"no-go","sham":0,"trial_type":"pit-trial","trial_index":18,"time_elapsed":161556,"internal_node_id":"0.0-7.0","task_version":"battery-v0.1"},{"rune":"K","hex":"#3366ff99","correct":-1,"choice":32,"rt":471.61999996751547,"accuracy":0,"outcome":"+1","keys":[1971.8049999792129],"total_keys":1,"block":1,"trial":6,"robot":2,"valence":"win","action":"no-go","sham":0,"trial_type":"pit-trial","trial_index":19,"time_elapsed":164732,"internal_node_id":"0.0-8.0","task_version":"battery-v0.1"},{"rune":"G","hex":"#3366ff99","correct":32,"choice":-1,"rt":-1,"accuracy":0,"outcome":"+1","keys":[],"total_keys":0,"block":1,"trial":7,"robot":1,"valence":"win","action":"go","sham":0,"trial_type":"pit-trial","trial_index":20,"time_elapsed":168736,"internal_node_id":"0.0-9.0","task_version":"battery-v0.1"},{"rune":"I","hex":"#f73b6a7A","correct":-1,"choice":-1,"rt":-1,"accuracy":1,"outcome":"-1","keys":[],"total_keys":0,"block":1,"trial":8,"robot":4,"valence":"lose","action":"no-go","sham":0,"trial_type":"pit-trial","trial_index":21,"time_elapsed":172740,"internal_node_id":"0.0-10.0","task_version":"battery-v0.1"},{"rune":"K","hex":"#3366ff99","correct":-1,"choice":32,"rt":442.26000003982335,"accuracy":0,"outcome":"+10","keys":[1943.654999951832],"total_keys":1,"block":1,"trial":9,"robot":2,"valence":"win","action":"no-go","sham":1,"trial_type":"pit-trial","trial_index":22,"time_elapsed":175888,"internal_node_id":"0.0-11.0","task_version":"battery-v0.1"},{"rune":"I","hex":"#f73b6a7A","correct":-1,"choice":-1,"rt":-1,"accuracy":1,"outcome":"-1","keys":[],"total_keys":0,"block":1,"trial":10,"robot":4,"valence":"lose","action":"no-go","sham":0,"trial_type":"pit-trial","trial_index":23,"time_elapsed":179894,"internal_node_id":"0.0-12.0","task_version":"battery-v0.1"},{"rune":"G","hex":"#3366ff99","correct":32,"choice":32,"rt":295.67499994300306,"accuracy":1,"outcome":"+10","keys":[1796.2249999400228],"total_keys":1,"block":1,"trial":11,"robot":1,"valence":"win","action":"go","sham":0,"trial_type":"pit-trial","trial_index":24,"time_elapsed":182894,"internal_node_id":"0.0-13.0","task_version":"battery-v0.1"},{"rune":"C","hex":"#f73b6a7A","correct":-1,"choice":-1,"rt":-1,"accuracy":1,"outcome":"-1","keys":[],"total_keys":0,"block":1,"trial":12,"robot":4,"valence":"lose","action":"no-go","sham":0,"trial_type":"pit-trial","trial_index":25,"time_elapsed":186899,"internal_node_id":"0.0-14.0","task_version":"battery-v0.1"},{"rune":"I","hex":"#f73b6a7A","correct":-1,"choice":-1,"rt":-1,"accuracy":1,"outcome":"-1","keys":[],"total_keys":0,"block":1,"trial":13,"robot":4,"valence":"lose","action":"no-go","sham":0,"trial_type":"pit-trial","trial_index":26,"time_elapsed":190904,"internal_node_id":"0.0-15.0","task_version":"battery-v0.1"},{"rune":"G","hex":"#3366ff99","correct":32,"choice":32,"rt":383.07500001974404,"accuracy":1,"outcome":"+10","keys":[1883.7449999991804],"total_keys":1,"block":1,"trial":14,"robot":1,"valence":"win","action":"go","sham":0,"trial_type":"pit-trial","trial_index":27,"time_elapsed":193992,"internal_node_id":"0.0-16.0","task_version":"battery-v0.1"},{"rune":"C","hex":"#f73b6a7A","correct":-1,"choice":-1,"rt":-1,"accuracy":1,"outcome":"-1","keys":[],"total_keys":0,"block":1,"trial":15,"robot":4,"valence":"lose","action":"no-go","sham":0,"trial_type":"pit-trial","trial_index":28,"time_elapsed":197997,"internal_node_id":"0.0-17.0","task_version":"battery-v0.1"},{"rune":"K","hex":"#3366ff99","correct":-1,"choice":32,"rt":466.6150000412017,"accuracy":0,"outcome":"+1","keys":[1967.4200000008568],"total_keys":1,"block":1,"trial":16,"robot":2,"valence":"win","action":"no-go","sham":0,"trial_type":"pit-trial","trial_index":29,"time_elapsed":201168,"internal_node_id":"0.0-18.0","task_version":"battery-v0.1"},{"rune":"G","hex":"#3366ff99","correct":32,"choice":32,"rt":361.35499994270504,"accuracy":1,"outcome":"+10","keys":[1861.9149998994544],"total_keys":1,"block":1,"trial":17,"robot":1,"valence":"win","action":"go","sham":0,"trial_type":"pit-trial","trial_index":30,"time_elapsed":204233,"internal_node_id":"0.0-19.0","task_version":"battery-v0.1"},{"rune":"C","hex":"#f73b6a7A","correct":-1,"choice":-1,"rt":-1,"accuracy":1,"outcome":"-1","keys":[],"total_keys":0,"block":1,"trial":18,"robot":4,"valence":"lose","action":"no-go","sham":0,"trial_type":"pit-trial","trial_index":31,"time_elapsed":208237,"internal_node_id":"0.0-20.0","task_version":"battery-v0.1"},{"rune":"K","hex":"#3366ff99","correct":-1,"choice":-1,"rt":-1,"accuracy":1,"outcome":"+1","keys":[],"total_keys":0,"block":1,"trial":19,"robot":2,"valence":"win","action":"no-go","sham":1,"trial_type":"pit-trial","trial_index":32,"time_elapsed":212242,"internal_node_id":"0.0-21.0","task_version":"battery-v0.1"},{"rune":"I","hex":"#f73b6a7A","correct":-1,"choice":-1,"rt":-1,"accuracy":1,"outcome":"-1","keys":[],"total_keys":0,"block":1,"trial":20,"robot":4,"valence":"lose","action":"no-go","sham":0,"trial_type":"pit-trial","trial_index":33,"time_elapsed":216246,"internal_node_id":"0.0-22.0","task_version":"battery-v0.1"},{"rune":"K","hex":"#3366ff99","correct":-1,"choice":-1,"rt":-1,"accuracy":1,"outcome":"+10","keys":[],"total_keys":0,"block":1,"trial":21,"robot":2,"valence":"win","action":"no-go","sham":0,"trial_type":"pit-trial","trial_index":34,"time_elapsed":220250,"internal_node_id":"0.0-23.0","task_version":"battery-v0.1"},{"rune":"C","hex":"#f73b6a7A","correct":-1,"choice":32,"rt":657.8949999529868,"accuracy":0,"outcome":"-10","keys":[2158.8850000407547],"total_keys":1,"block":1,"trial":22,"robot":4,"valence":"lose","action":"no-go","sham":0,"trial_type":"pit-trial","trial_index":35,"time_elapsed":223614,"internal_node_id":"0.0-24.0","task_version":"battery-v0.1"},{"rune":"G","hex":"#3366ff99","correct":32,"choice":32,"rt":404.94000003673136,"accuracy":1,"outcome":"+10","keys":[1905.35000001546],"total_keys":1,"block":1,"trial":23,"robot":1,"valence":"win","action":"go","sham":0,"trial_type":"pit-trial","trial_index":36,"time_elapsed":226724,"internal_node_id":"0.0-25.0","task_version":"battery-v0.1"},{"rune":"I","hex":"#f73b6a7A","correct":-1,"choice":-1,"rt":-1,"accuracy":1,"outcome":"-1","keys":[],"total_keys":0,"block":1,"trial":24,"robot":4,"valence":"lose","action":"no-go","sham":0,"trial_type":"pit-trial","trial_index":37,"time_elapsed":230728,"internal_node_id":"0.0-26.0","task_version":"battery-v0.1"},{"rune":"G","hex":"#3366ff99","correct":32,"choice":32,"rt":464.04999995138496,"accuracy":1,"outcome":"+1","keys":[1964.8550000274554],"total_keys":1,"block":1,"trial":25,"robot":1,"valence":"win","action":"go","sham":1,"trial_type":"pit-trial","trial_index":38,"time_elapsed":233897,"internal_node_id":"0.0-27.0","task_version":"battery-v0.1"},{"rune":"K","hex":"#3366ff99","correct":-1,"choice":32,"rt":443.5100000118837,"accuracy":0,"outcome":"+1","keys":[1944.334999890998],"total_keys":1,"block":1,"trial":26,"robot":2,"valence":"win","action":"no-go","sham":0,"trial_type":"pit-trial","trial_index":39,"time_elapsed":237045,"internal_node_id":"0.0-28.0","task_version":"battery-v0.1"},{"rune":"C","hex":"#f73b6a7A","correct":-1,"choice":-1,"rt":-1,"accuracy":1,"outcome":"-1","keys":[],"total_keys":0,"block":1,"trial":27,"robot":4,"valence":"lose","action":"no-go","sham":0,"trial_type":"pit-trial","trial_index":40,"time_elapsed":241050,"internal_node_id":"0.0-29.0","task_version":"battery-v0.1"},{"rune":"I","hex":"#f73b6a7A","correct":-1,"choice":-1,"rt":-1,"accuracy":1,"outcome":"-1","keys":[],"total_keys":0,"block":1,"trial":28,"robot":4,"valence":"lose","action":"no-go","sham":0,"trial_type":"pit-trial","trial_index":41,"time_elapsed":245054,"internal_node_id":"0.0-30.0","task_version":"battery-v0.1"},{"rune":"G","hex":"#3366ff99","correct":32,"choice":32,"rt":412.5449999701232,"accuracy":1,"outcome":"+10","keys":[1912.8550000023097],"total_keys":1,"block":1,"trial":29,"robot":1,"valence":"win","action":"go","sham":0,"trial_type":"pit-trial","trial_index":42,"time_elapsed":248170,"internal_node_id":"0.0-31.0","task_version":"battery-v0.1"},{"rune":"I","hex":"#f73b6a7A","correct":-1,"choice":-1,"rt":-1,"accuracy":1,"outcome":"-1","keys":[],"total_keys":0,"block":1,"trial":30,"robot":4,"valence":"lose","action":"no-go","sham":0,"trial_type":"pit-trial","trial_index":43,"time_elapsed":252175,"internal_node_id":"0.0-32.0","task_version":"battery-v0.1"},{"rune":"K","hex":"#3366ff99","correct":-1,"choice":-1,"rt":-1,"accuracy":1,"outcome":"+10","keys":[],"total_keys":0,"block":1,"trial":31,"robot":2,"valence":"win","action":"no-go","sham":0,"trial_type":"pit-trial","trial_index":44,"time_elapsed":256181,"internal_node_id":"0.0-33.0","task_version":"battery-v0.1"},{"rune":"C","hex":"#f73b6a7A","correct":-1,"choice":-1,"rt":-1,"accuracy":1,"outcome":"-1","keys":[],"total_keys":0,"block":1,"trial":32,"robot":4,"valence":"lose","action":"no-go","sham":0,"trial_type":"pit-trial","trial_index":45,"time_elapsed":260185,"internal_node_id":"0.0-34.0","task_version":"battery-v0.1"},{"rune":"G","hex":"#3366ff99","correct":32,"choice":32,"rt":417.64999995939434,"accuracy":1,"outcome":"+10","keys":[1919.7100000455976],"total_keys":1,"block":1,"trial":33,"robot":1,"valence":"win","action":"go","sham":0,"trial_type":"pit-trial","trial_index":46,"time_elapsed":263308,"internal_node_id":"0.0-35.0","task_version":"battery-v0.1"},{"rune":"K","hex":"#3366ff99","correct":-1,"choice":-1,"rt":-1,"accuracy":1,"outcome":"+10","keys":[],"total_keys":0,"block":1,"trial":34,"robot":2,"valence":"win","action":"no-go","sham":0,"trial_type":"pit-trial","trial_index":47,"time_elapsed":267314,"internal_node_id":"0.0-36.0","task_version":"battery-v0.1"},{"rune":"E","hex":"#f73b6a7A","correct":32,"choice":32,"rt":1072.9000000283122,"accuracy":1,"outcome":"-1","keys":[2574.1949999937788],"total_keys":1,"block":1,"trial":35,"robot":3,"valence":"lose","action":"go","sham":0,"trial_type":"pit-trial","trial_index":48,"time_elapsed":271092,"internal_node_id":"0.0-37.0","task_version":"battery-v0.1"},{"rune":"I","hex":"#f73b6a7A","correct":-1,"choice":-1,"rt":-1,"accuracy":1,"outcome":"-1","keys":[],"total_keys":0,"block":1,"trial":36,"robot":4,"valence":"lose","action":"no-go","sham":0,"trial_type":"pit-trial","trial_index":49,"time_elapsed":275096,"internal_node_id":"0.0-38.0","task_version":"battery-v0.1"},{"rune":"E","hex":"#f73b6a7A","correct":32,"choice":32,"rt":849.4400000199676,"accuracy":1,"outcome":"-10","keys":[2349.6349999913946],"total_keys":1,"block":1,"trial":37,"robot":3,"valence":"lose","action":"go","sham":1,"trial_type":"pit-trial","trial_index":50,"time_elapsed":278650,"internal_node_id":"0.0-39.0","task_version":"battery-v0.1"},{"rune":"K","hex":"#3366ff99","correct":-1,"choice":32,"rt":558.3349999506027,"accuracy":0,"outcome":"+1","keys":[2058.4149999776855],"total_keys":1,"block":1,"trial":38,"robot":2,"valence":"win","action":"no-go","sham":0,"trial_type":"pit-trial","trial_index":51,"time_elapsed":281913,"internal_node_id":"0.0-40.0","task_version":"battery-v0.1"},{"rune":"I","hex":"#f73b6a7A","correct":-1,"choice":-1,"rt":-1,"accuracy":1,"outcome":"-1","keys":[],"total_keys":0,"block":1,"trial":39,"robot":4,"valence":"lose","action":"no-go","sham":0,"trial_type":"pit-trial","trial_index":52,"time_elapsed":285918,"internal_node_id":"0.0-41.0","task_version":"battery-v0.1"},{"rune":"G","hex":"#3366ff99","correct":32,"choice":32,"rt":527.4249999783933,"accuracy":1,"outcome":"+10","keys":[2027.6500000618398],"total_keys":1,"block":1,"trial":40,"robot":1,"valence":"win","action":"go","sham":0,"trial_type":"pit-trial","trial_index":53,"time_elapsed":289149,"internal_node_id":"0.0-42.0","task_version":"battery-v0.1"},{"rune":"T","hex":"#3366ff99","correct":32,"choice":-1,"rt":-1,"accuracy":0,"outcome":"+1","keys":[],"total_keys":0,"block":1,"trial":41,"robot":1,"valence":"win","action":"go","sham":0,"trial_type":"pit-trial","trial_index":54,"time_elapsed":293154,"internal_node_id":"0.0-43.0","task_version":"battery-v0.1"},{"rune":"I","hex":"#f73b6a7A","correct":-1,"choice":-1,"rt":-1,"accuracy":1,"outcome":"-10","keys":[],"total_keys":0,"block":1,"trial":42,"robot":4,"valence":"lose","action":"no-go","sham":1,"trial_type":"pit-trial","trial_index":55,"time_elapsed":297160,"internal_node_id":"0.0-44.0","task_version":"battery-v0.1"},{"rune":"M","hex":"#3366ff99","correct":-1,"choice":32,"rt":628.7299999967217,"accuracy":0,"outcome":"+10","keys":[2128.9350000442937],"total_keys":1,"block":1,"trial":43,"robot":2,"valence":"win","action":"no-go","sham":1,"trial_type":"pit-trial","trial_index":56,"time_elapsed":300493,"internal_node_id":"0.0-45.0","task_version":"battery-v0.1"},{"rune":"E","hex":"#f73b6a7A","correct":32,"choice":32,"rt":827.0999999949709,"accuracy":1,"outcome":"-1","keys":[2327.85000000149],"total_keys":1,"block":1,"trial":44,"robot":3,"valence":"lose","action":"go","sham":0,"trial_type":"pit-trial","trial_index":57,"time_elapsed":304024,"internal_node_id":"0.0-46.0","task_version":"battery-v0.1"},{"rune":"T","hex":"#3366ff99","correct":32,"choice":32,"rt":695.3650000505149,"accuracy":1,"outcome":"+10","keys":[2195.4299999633804],"total_keys":1,"block":1,"trial":45,"robot":1,"valence":"win","action":"go","sham":0,"trial_type":"pit-trial","trial_index":58,"time_elapsed":307423,"internal_node_id":"0.0-47.0","task_version":"battery-v0.1"},{"rune":"M","hex":"#3366ff99","correct":-1,"choice":32,"rt":440.7750000245869,"accuracy":0,"outcome":"+1","keys":[1941.0599999828264],"total_keys":1,"block":1,"trial":46,"robot":2,"valence":"win","action":"no-go","sham":0,"trial_type":"pit-trial","trial_index":59,"time_elapsed":310568,"internal_node_id":"0.0-48.0","task_version":"battery-v0.1"},{"rune":"E","hex":"#f73b6a7A","correct":32,"choice":32,"rt":744.1749999998137,"accuracy":1,"outcome":"-1","keys":[2244.7050000773743],"total_keys":1,"block":1,"trial":47,"robot":3,"valence":"lose","action":"go","sham":0,"trial_type":"pit-trial","trial_index":60,"time_elapsed":314016,"internal_node_id":"0.0-49.0","task_version":"battery-v0.1"},{"rune":"I","hex":"#f73b6a7A","correct":-1,"choice":-1,"rt":-1,"accuracy":1,"outcome":"-1","keys":[],"total_keys":0,"block":1,"trial":48,"robot":4,"valence":"lose","action":"no-go","sham":0,"trial_type":"pit-trial","trial_index":61,"time_elapsed":318021,"internal_node_id":"0.0-50.0","task_version":"battery-v0.1"},{"rune":"T","hex":"#3366ff99","correct":32,"choice":32,"rt":539.3950000870973,"accuracy":1,"outcome":"+1","keys":[2040.7450000056997],"total_keys":1,"block":1,"trial":49,"robot":1,"valence":"win","action":"go","sham":1,"trial_type":"pit-trial","trial_index":62,"time_elapsed":321264,"internal_node_id":"0.0-51.0","task_version":"battery-v0.1"},{"rune":"R","hex":"#f73b6a7A","correct":-1,"choice":-1,"rt":-1,"accuracy":1,"outcome":"-1","keys":[],"total_keys":0,"block":1,"trial":50,"robot":4,"valence":"lose","action":"no-go","sham":0,"trial_type":"pit-trial","trial_index":63,"time_elapsed":325267,"internal_node_id":"0.0-52.0","task_version":"battery-v0.1"},{"rune":"E","hex":"#f73b6a7A","correct":32,"choice":32,"rt":724.2150000529364,"accuracy":1,"outcome":"-1","keys":[2224.8799999943003],"total_keys":1,"block":1,"trial":51,"robot":3,"valence":"lose","action":"go","sham":0,"trial_type":"pit-trial","trial_index":64,"time_elapsed":328696,"internal_node_id":"0.0-53.0","task_version":"battery-v0.1"},{"rune":"M","hex":"#3366ff99","correct":-1,"choice":32,"rt":834.6349999774247,"accuracy":0,"outcome":"+1","keys":[2335.605000029318],"total_keys":1,"block":1,"trial":52,"robot":2,"valence":"win","action":"no-go","sham":0,"trial_type":"pit-trial","trial_index":65,"time_elapsed":332235,"internal_node_id":"0.0-54.0","task_version":"battery-v0.1"},{"rune":"E","hex":"#f73b6a7A","correct":32,"choice":32,"rt":881.7450000206009,"accuracy":1,"outcome":"-1","keys":[2382.1450000396],"total_keys":1,"block":1,"trial":53,"robot":3,"valence":"lose","action":"go","sham":0,"trial_type":"pit-trial","trial_index":66,"time_elapsed":335821,"internal_node_id":"0.0-55.0","task_version":"battery-v0.1"},{"rune":"R","hex":"#f73b6a7A","correct":-1,"choice":-1,"rt":-1,"accuracy":1,"outcome":"-1","keys":[],"total_keys":0,"block":1,"trial":54,"robot":4,"valence":"lose","action":"no-go","sham":0,"trial_type":"pit-trial","trial_index":67,"time_elapsed":339825,"internal_node_id":"0.0-56.0","task_version":"battery-v0.1"},{"rune":"T","hex":"#3366ff99","correct":32,"choice":32,"rt":672.6999999955297,"accuracy":1,"outcome":"+10","keys":[2173.769999993965],"total_keys":1,"block":1,"trial":55,"robot":1,"valence":"win","action":"go","sham":0,"trial_type":"pit-trial","trial_index":68,"time_elapsed":343203,"internal_node_id":"0.0-57.0","task_version":"battery-v0.1"},{"rune":"M","hex":"#3366ff99","correct":-1,"choice":-1,"rt":-1,"accuracy":1,"outcome":"+10","keys":[],"total_keys":0,"block":1,"trial":56,"robot":2,"valence":"win","action":"no-go","sham":0,"trial_type":"pit-trial","trial_index":69,"time_elapsed":347210,"internal_node_id":"0.0-58.0","task_version":"battery-v0.1"},{"rune":"T","hex":"#3366ff99","correct":32,"choice":32,"rt":790.6700000166893,"accuracy":1,"outcome":"+1","keys":[2291.2699999287724],"total_keys":1,"block":1,"trial":57,"robot":1,"valence":"win","action":"go","sham":1,"trial_type":"pit-trial","trial_index":70,"time_elapsed":350706,"internal_node_id":"0.0-59.0","task_version":"battery-v0.1"},{"rune":"R","hex":"#f73b6a7A","correct":-1,"choice":-1,"rt":-1,"accuracy":1,"outcome":"-1","keys":[],"total_keys":0,"block":1,"trial":58,"robot":4,"valence":"lose","action":"no-go","sham":0,"trial_type":"pit-trial","trial_index":71,"time_elapsed":354711,"internal_node_id":"0.0-60.0","task_version":"battery-v0.1"},{"rune":"E","hex":"#f73b6a7A","correct":32,"choice":32,"rt":500.620000064373,"accuracy":1,"outcome":"-1","keys":[2001.685000024736],"total_keys":1,"block":1,"trial":59,"robot":3,"valence":"lose","action":"go","sham":0,"trial_type":"pit-trial","trial_index":72,"time_elapsed":357917,"internal_node_id":"0.0-61.0","task_version":"battery-v0.1"},{"rune":"M","hex":"#3366ff99","correct":-1,"choice":32,"rt":525.6799999624491,"accuracy":0,"outcome":"+1","keys":[2025.774999987334],"total_keys":1,"block":1,"trial":60,"robot":2,"valence":"win","action":"no-go","sham":0,"trial_type":"pit-trial","trial_index":73,"time_elapsed":361146,"internal_node_id":"0.0-62.0","task_version":"battery-v0.1"},{"rune":"T","hex":"#3366ff99","correct":32,"choice":32,"rt":522.5400000344962,"accuracy":1,"outcome":"+10","keys":[2023.6250000307336],"total_keys":1,"block":1,"trial":61,"robot":1,"valence":"win","action":"go","sham":0,"trial_type":"pit-trial","trial_index":74,"time_elapsed":364373,"internal_node_id":"0.0-63.0","task_version":"battery-v0.1"},{"rune":"E","hex":"#f73b6a7A","correct":32,"choice":-1,"rt":-1,"accuracy":0,"outcome":"-1","keys":[],"total_keys":0,"block":1,"trial":62,"robot":3,"valence":"lose","action":"go","sham":1,"trial_type":"pit-trial","trial_index":75,"time_elapsed":368377,"internal_node_id":"0.0-64.0","task_version":"battery-v0.1"},{"rune":"R","hex":"#f73b6a7A","correct":-1,"choice":32,"rt":801.3650000793859,"accuracy":0,"outcome":"-10","keys":[2302.244999911636],"total_keys":1,"block":1,"trial":63,"robot":4,"valence":"lose","action":"no-go","sham":0,"trial_type":"pit-trial","trial_index":76,"time_elapsed":371883,"internal_node_id":"0.0-65.0","task_version":"battery-v0.1"},{"rune":"M","hex":"#3366ff99","correct":-1,"choice":32,"rt":432.2099999990314,"accuracy":0,"outcome":"+1","keys":[1932.3599999770522],"total_keys":1,"block":1,"trial":64,"robot":2,"valence":"win","action":"no-go","sham":0,"trial_type":"pit-trial","trial_index":77,"time_elapsed":375019,"internal_node_id":"0.0-66.0","task_version":"battery-v0.1"},{"rune":"M","hex":"#3366ff99","correct":-1,"choice":-1,"rt":-1,"accuracy":1,"outcome":"+10","keys":[],"total_keys":0,"block":1,"trial":65,"robot":2,"valence":"win","action":"no-go","sham":0,"trial_type":"pit-trial","trial_index":78,"time_elapsed":379024,"internal_node_id":"0.0-67.0","task_version":"battery-v0.1"},{"rune":"R","hex":"#f73b6a7A","correct":-1,"choice":-1,"rt":-1,"accuracy":1,"outcome":"-10","keys":[],"total_keys":0,"block":1,"trial":66,"robot":4,"valence":"lose","action":"no-go","sham":1,"trial_type":"pit-trial","trial_index":79,"time_elapsed":383030,"internal_node_id":"0.0-68.0","task_version":"battery-v0.1"},{"rune":"E","hex":"#f73b6a7A","correct":32,"choice":32,"rt":1054.6150000300258,"accuracy":1,"outcome":"-1","keys":[2554.9999999348074],"total_keys":1,"block":1,"trial":67,"robot":3,"valence":"lose","action":"go","sham":0,"trial_type":"pit-trial","trial_index":80,"time_elapsed":386789,"internal_node_id":"0.0-69.0","task_version":"battery-v0.1"},{"rune":"T","hex":"#3366ff99","correct":32,"choice":-1,"rt":-1,"accuracy":0,"outcome":"+1","keys":[],"total_keys":0,"block":1,"trial":68,"robot":1,"valence":"win","action":"go","sham":0,"trial_type":"pit-trial","trial_index":81,"time_elapsed":390794,"internal_node_id":"0.0-70.0","task_version":"battery-v0.1"},{"rune":"E","hex":"#f73b6a7A","correct":32,"choice":32,"rt":608.2500000484288,"accuracy":1,"outcome":"-1","keys":[2109.0450000483543],"total_keys":1,"block":1,"trial":69,"robot":3,"valence":"lose","action":"go","sham":0,"trial_type":"pit-trial","trial_index":82,"time_elapsed":394107,"internal_node_id":"0.0-71.0","task_version":"battery-v0.1"},{"rune":"R","hex":"#f73b6a7A","correct":-1,"choice":32,"rt":572.0450000371784,"accuracy":0,"outcome":"-10","keys":[2072.764999931678],"total_keys":1,"block":1,"trial":70,"robot":4,"valence":"lose","action":"no-go","sham":0,"trial_type":"pit-trial","trial_index":83,"time_elapsed":397383,"internal_node_id":"0.0-72.0","task_version":"battery-v0.1"},{"rune":"M","hex":"#3366ff99","correct":-1,"choice":32,"rt":468.7749999575317,"accuracy":0,"outcome":"+1","keys":[1969.10999994725],"total_keys":1,"block":1,"trial":71,"robot":2,"valence":"win","action":"no-go","sham":0,"trial_type":"pit-trial","trial_index":84,"time_elapsed":400556,"internal_node_id":"0.0-73.0","task_version":"battery-v0.1"},{"rune":"T","hex":"#3366ff99","correct":32,"choice":32,"rt":599.9449999071658,"accuracy":1,"outcome":"+10","keys":[2100.4900000989437],"total_keys":1,"block":1,"trial":72,"robot":1,"valence":"win","action":"go","sham":0,"trial_type":"pit-trial","trial_index":85,"time_elapsed":403860,"internal_node_id":"0.0-74.0","task_version":"battery-v0.1"},{"rune":"Y","hex":"#f73b6a7A","correct":32,"choice":-1,"rt":-1,"accuracy":0,"outcome":"-10","keys":[],"total_keys":0,"block":1,"trial":73,"robot":3,"valence":"lose","action":"go","sham":0,"trial_type":"pit-trial","trial_index":86,"time_elapsed":407864,"internal_node_id":"0.0-75.0","task_version":"battery-v0.1"},{"rune":"M","hex":"#3366ff99","correct":-1,"choice":32,"rt":578.7149999523535,"accuracy":0,"outcome":"+1","keys":[2079.0999999735504],"total_keys":1,"block":1,"trial":74,"robot":2,"valence":"win","action":"no-go","sham":0,"trial_type":"pit-trial","trial_index":87,"time_elapsed":411147,"internal_node_id":"0.0-76.0","task_version":"battery-v0.1"},{"rune":"Z","hex":"#3366ff99","correct":32,"choice":32,"rt":784.7900000633672,"accuracy":1,"outcome":"+10","keys":[2285.0849999813363],"total_keys":1,"block":1,"trial":75,"robot":1,"valence":"win","action":"go","sham":0,"trial_type":"pit-trial","trial_index":88,"time_elapsed":414636,"internal_node_id":"0.0-77.0","task_version":"battery-v0.1"},{"rune":"R","hex":"#f73b6a7A","correct":-1,"choice":32,"rt":642.8399999858811,"accuracy":0,"outcome":"-10","keys":[2143.500000005588],"total_keys":1,"block":1,"trial":76,"robot":4,"valence":"lose","action":"no-go","sham":0,"trial_type":"pit-trial","trial_index":89,"time_elapsed":417983,"internal_node_id":"0.0-78.0","task_version":"battery-v0.1"},{"rune":"M","hex":"#3366ff99","correct":-1,"choice":-1,"rt":-1,"accuracy":1,"outcome":"+10","keys":[],"total_keys":0,"block":1,"trial":77,"robot":2,"valence":"win","action":"no-go","sham":0,"trial_type":"pit-trial","trial_index":90,"time_elapsed":421988,"internal_node_id":"0.0-79.0","task_version":"battery-v0.1"},{"rune":"R","hex":"#f73b6a7A","correct":-1,"choice":-1,"rt":-1,"accuracy":1,"outcome":"-1","keys":[],"total_keys":0,"block":1,"trial":78,"robot":4,"valence":"lose","action":"no-go","sham":0,"trial_type":"pit-trial","trial_index":91,"time_elapsed":425993,"internal_node_id":"0.0-80.0","task_version":"battery-v0.1"},{"rune":"Z","hex":"#3366ff99","correct":32,"choice":32,"rt":776.2349999975413,"accuracy":1,"outcome":"+10","keys":[2277.215000009164],"total_keys":1,"block":1,"trial":79,"robot":1,"valence":"win","action":"go","sham":0,"trial_type":"pit-trial","trial_index":92,"time_elapsed":429475,"internal_node_id":"0.0-81.0","task_version":"battery-v0.1"},{"rune":"Y","hex":"#f73b6a7A","correct":32,"choice":32,"rt":1052.4150000419468,"accuracy":1,"outcome":"-1","keys":[2553.6400000564754],"total_keys":1,"block":1,"trial":80,"robot":3,"valence":"lose","action":"go","sham":0,"trial_type":"pit-trial","trial_index":93,"time_elapsed":433232,"internal_node_id":"0.0-82.0","task_version":"battery-v0.1"},{"rune":"M","hex":"#3366ff99","correct":-1,"choice":32,"rt":376.01500004529953,"accuracy":0,"outcome":"+1","keys":[1877.0950000034645],"total_keys":1,"block":1,"trial":81,"robot":2,"valence":"win","action":"no-go","sham":0,"trial_type":"pit-trial","trial_index":94,"time_elapsed":436314,"internal_node_id":"0.0-83.0","task_version":"battery-v0.1"},{"rune":"Y","hex":"#f73b6a7A","correct":32,"choice":32,"rt":723.9299999782816,"accuracy":1,"outcome":"-10","keys":[2224.129999987781],"total_keys":1,"block":1,"trial":82,"robot":3,"valence":"lose","action":"go","sham":1,"trial_type":"pit-trial","trial_index":95,"time_elapsed":439746,"internal_node_id":"0.0-84.0","task_version":"battery-v0.1"},{"rune":"R","hex":"#f73b6a7A","correct":-1,"choice":-1,"rt":-1,"accuracy":1,"outcome":"-1","keys":[],"total_keys":0,"block":1,"trial":83,"robot":4,"valence":"lose","action":"no-go","sham":0,"trial_type":"pit-trial","trial_index":96,"time_elapsed":443750,"internal_node_id":"0.0-85.0","task_version":"battery-v0.1"},{"rune":"Z","hex":"#3366ff99","correct":32,"choice":32,"rt":525.5950000137091,"accuracy":1,"outcome":"+10","keys":[2026.9149999367073],"total_keys":1,"block":1,"trial":84,"robot":1,"valence":"win","action":"go","sham":0,"trial_type":"pit-trial","trial_index":97,"time_elapsed":446980,"internal_node_id":"0.0-86.0","task_version":"battery-v0.1"},{"rune":"R","hex":"#f73b6a7A","correct":-1,"choice":-1,"rt":-1,"accuracy":1,"outcome":"-1","keys":[],"total_keys":0,"block":1,"trial":85,"robot":4,"valence":"lose","action":"no-go","sham":0,"trial_type":"pit-trial","trial_index":98,"time_elapsed":450986,"internal_node_id":"0.0-87.0","task_version":"battery-v0.1"},{"rune":"Z","hex":"#3366ff99","correct":32,"choice":32,"rt":774.974999949336,"accuracy":1,"outcome":"+10","keys":[2275.840000016615],"total_keys":1,"block":1,"trial":86,"robot":1,"valence":"win","action":"go","sham":0,"trial_type":"pit-trial","trial_index":99,"time_elapsed":454466,"internal_node_id":"0.0-88.0","task_version":"battery-v0.1"},{"rune":"M","hex":"#3366ff99","correct":-1,"choice":-1,"rt":-1,"accuracy":1,"outcome":"+10","keys":[],"total_keys":0,"block":1,"trial":87,"robot":2,"valence":"win","action":"no-go","sham":0,"trial_type":"pit-trial","trial_index":100,"time_elapsed":458472,"internal_node_id":"0.0-89.0","task_version":"battery-v0.1"},{"rune":"Y","hex":"#f73b6a7A","correct":32,"choice":-1,"rt":-1,"accuracy":0,"outcome":"-10","keys":[],"total_keys":0,"block":1,"trial":88,"robot":3,"valence":"lose","action":"go","sham":0,"trial_type":"pit-trial","trial_index":101,"time_elapsed":462476,"internal_node_id":"0.0-90.0","task_version":"battery-v0.1"},{"rune":"V","hex":"#f73b6a7A","correct":32,"choice":32,"rt":484.7850000951439,"accuracy":1,"outcome":"-1","keys":[1985.4999999515712],"total_keys":1,"block":1,"trial":89,"robot":3,"valence":"lose","action":"go","sham":0,"trial_type":"pit-trial","trial_index":102,"time_elapsed":465665,"internal_node_id":"0.0-91.0","task_version":"battery-v0.1"},{"rune":"Y","hex":"#f73b6a7A","correct":32,"choice":-1,"rt":-1,"accuracy":0,"outcome":"-10","keys":[2932.675000047311],"total_keys":1,"block":1,"trial":90,"robot":3,"valence":"lose","action":"go","sham":0,"trial_type":"pit-trial","trial_index":103,"time_elapsed":469670,"internal_node_id":"0.0-92.0","task_version":"battery-v0.1"},{"rune":"S","hex":"#3366ff99","correct":-1,"choice":-1,"rt":-1,"accuracy":1,"outcome":"+10","keys":[],"total_keys":0,"block":1,"trial":91,"robot":2,"valence":"win","action":"no-go","sham":0,"trial_type":"pit-trial","trial_index":104,"time_elapsed":473675,"internal_node_id":"0.0-93.0","task_version":"battery-v0.1"},{"rune":"Z","hex":"#3366ff99","correct":32,"choice":32,"rt":675.1800000201911,"accuracy":1,"outcome":"+10","keys":[2176.0250000515953],"total_keys":1,"block":1,"trial":92,"robot":1,"valence":"win","action":"go","sham":0,"trial_type":"pit-trial","trial_index":105,"time_elapsed":477055,"internal_node_id":"0.0-94.0","task_version":"battery-v0.1"},{"rune":"V","hex":"#f73b6a7A","correct":32,"choice":-1,"rt":-1,"accuracy":0,"outcome":"-10","keys":[],"total_keys":0,"block":1,"trial":93,"robot":3,"valence":"lose","action":"go","sham":0,"trial_type":"pit-trial","trial_index":106,"time_elapsed":481059,"internal_node_id":"0.0-95.0","task_version":"battery-v0.1"},{"rune":"Y","hex":"#f73b6a7A","correct":32,"choice":32,"rt":377.09999992512167,"accuracy":1,"outcome":"-1","keys":[1877.184999990277],"total_keys":1,"block":1,"trial":94,"robot":3,"valence":"lose","action":"go","sham":0,"trial_type":"pit-trial","trial_index":107,"time_elapsed":484141,"internal_node_id":"0.0-96.0","task_version":"battery-v0.1"},{"rune":"S","hex":"#3366ff99","correct":-1,"choice":32,"rt":956.2300000106916,"accuracy":0,"outcome":"+1","keys":[2456.954999943264],"total_keys":1,"block":1,"trial":95,"robot":2,"valence":"win","action":"no-go","sham":0,"trial_type":"pit-trial","trial_index":108,"time_elapsed":487803,"internal_node_id":"0.0-97.0","task_version":"battery-v0.1"},{"rune":"Z","hex":"#3366ff99","correct":32,"choice":32,"rt":458.96499999798834,"accuracy":1,"outcome":"+10","keys":[1960.4449999751523],"total_keys":1,"block":1,"trial":96,"robot":1,"valence":"win","action":"go","sham":0,"trial_type":"pit-trial","trial_index":109,"time_elapsed":490967,"internal_node_id":"0.0-98.0","task_version":"battery-v0.1"},{"rune":"Z","hex":"#3366ff99","correct":32,"choice":-1,"rt":-1,"accuracy":0,"outcome":"+1","keys":[],"total_keys":0,"block":1,"trial":97,"robot":1,"valence":"win","action":"go","sham":0,"trial_type":"pit-trial","trial_index":110,"time_elapsed":494973,"internal_node_id":"0.0-99.0","task_version":"battery-v0.1"},{"rune":"S","hex":"#3366ff99","correct":-1,"choice":32,"rt":584.8450000630692,"accuracy":0,"outcome":"+1","keys":[1038.2000000681728,2085.330000030808],"total_keys":2,"block":1,"trial":98,"robot":2,"valence":"win","action":"no-go","sham":0,"trial_type":"pit-trial","trial_index":111,"time_elapsed":498260,"internal_node_id":"0.0-100.0","task_version":"battery-v0.1"},{"rune":"V","hex":"#f73b6a7A","correct":32,"choice":32,"rt":705.599999986589,"accuracy":1,"outcome":"-1","keys":[2206.635000067763],"total_keys":1,"block":1,"trial":99,"robot":3,"valence":"lose","action":"go","sham":0,"trial_type":"pit-trial","trial_index":112,"time_elapsed":501670,"internal_node_id":"0.0-101.0","task_version":"battery-v0.1"},{"rune":"Y","hex":"#f73b6a7A","correct":32,"choice":32,"rt":872.2299999790266,"accuracy":1,"outcome":"-10","keys":[2372.3549999995157],"total_keys":1,"block":1,"trial":100,"robot":3,"valence":"lose","action":"go","sham":1,"trial_type":"pit-trial","trial_index":113,"time_elapsed":505246,"internal_node_id":"0.0-102.0","task_version":"battery-v0.1"},{"rune":"Z","hex":"#3366ff99","correct":32,"choice":32,"rt":538.5900000110269,"accuracy":1,"outcome":"+10","keys":[2039.504999993369],"total_keys":1,"block":1,"trial":101,"robot":1,"valence":"win","action":"go","sham":0,"trial_type":"pit-trial","trial_index":114,"time_elapsed":508489,"internal_node_id":"0.0-103.0","task_version":"battery-v0.1"},{"rune":"V","hex":"#f73b6a7A","correct":32,"choice":-1,"rt":-1,"accuracy":0,"outcome":"-10","keys":[],"total_keys":0,"block":1,"trial":102,"robot":3,"valence":"lose","action":"go","sham":0,"trial_type":"pit-trial","trial_index":115,"time_elapsed":512494,"internal_node_id":"0.0-104.0","task_version":"battery-v0.1"},{"rune":"Y","hex":"#f73b6a7A","correct":32,"choice":32,"rt":372.08999996073544,"accuracy":1,"outcome":"-10","keys":[1872.2100000595674],"total_keys":1,"block":1,"trial":103,"robot":3,"valence":"lose","action":"go","sham":1,"trial_type":"pit-trial","trial_index":116,"time_elapsed":515570,"internal_node_id":"0.0-105.0","task_version":"battery-v0.1"},{"rune":"S","hex":"#3366ff99","correct":-1,"choice":-1,"rt":-1,"accuracy":1,"outcome":"+1","keys":[],"total_keys":0,"block":1,"trial":104,"robot":2,"valence":"win","action":"no-go","sham":1,"trial_type":"pit-trial","trial_index":117,"time_elapsed":519574,"internal_node_id":"0.0-106.0","task_version":"battery-v0.1"},{"rune":"Z","hex":"#3366ff99","correct":32,"choice":32,"rt":553.029999951832,"accuracy":1,"outcome":"+10","keys":[2053.965000086464],"total_keys":1,"block":1,"trial":105,"robot":1,"valence":"win","action":"go","sham":0,"trial_type":"pit-trial","trial_index":118,"time_elapsed":522833,"internal_node_id":"0.0-107.0","task_version":"battery-v0.1"},{"rune":"S","hex":"#3366ff99","correct":-1,"choice":32,"rt":510.1400000276044,"accuracy":0,"outcome":"+1","keys":[2010.4450000217184],"total_keys":1,"block":1,"trial":106,"robot":2,"valence":"win","action":"no-go","sham":0,"trial_type":"pit-trial","trial_index":119,"time_elapsed":526047,"internal_node_id":"0.0-108.0","task_version":"battery-v0.1"},{"rune":"V","hex":"#f73b6a7A","correct":32,"choice":32,"rt":740.5349999899045,"accuracy":1,"outcome":"-1","keys":[2240.669999970123],"total_keys":1,"block":1,"trial":107,"robot":3,"valence":"lose","action":"go","sham":0,"trial_type":"pit-trial","trial_index":120,"time_elapsed":529492,"internal_node_id":"0.0-109.0","task_version":"battery-v0.1"},{"rune":"Y","hex":"#f73b6a7A","correct":32,"choice":32,"rt":396.72499999869615,"accuracy":1,"outcome":"-1","keys":[1897.2300000023097],"total_keys":1,"block":1,"trial":108,"robot":3,"valence":"lose","action":"go","sham":0,"trial_type":"pit-trial","trial_index":121,"time_elapsed":532593,"internal_node_id":"0.0-110.0","task_version":"battery-v0.1"},{"rune":"Z","hex":"#3366ff99","correct":32,"choice":32,"rt":552.0049999468029,"accuracy":1,"outcome":"+1","keys":[2052.4350000778213],"total_keys":1,"block":1,"trial":109,"robot":1,"valence":"win","action":"go","sham":1,"trial_type":"pit-trial","trial_index":122,"time_elapsed":535849,"internal_node_id":"0.0-111.0","task_version":"battery-v0.1"},{"rune":"Y","hex":"#f73b6a7A","correct":32,"choice":32,"rt":788.8100000564009,"accuracy":1,"outcome":"-10","keys":[2289.985000039451],"total_keys":1,"block":1,"trial":110,"robot":3,"valence":"lose","action":"go","sham":1,"trial_type":"pit-trial","trial_index":123,"time_elapsed":539344,"internal_node_id":"0.0-112.0","task_version":"battery-v0.1"},{"rune":"S","hex":"#3366ff99","correct":-1,"choice":32,"rt":574.7349999146536,"accuracy":0,"outcome":"+1","keys":[2075.290000066161],"total_keys":1,"block":1,"trial":111,"robot":2,"valence":"win","action":"no-go","sham":0,"trial_type":"pit-trial","trial_index":124,"time_elapsed":542623,"internal_node_id":"0.0-113.0","task_version":"battery-v0.1"},{"rune":"V","hex":"#f73b6a7A","correct":32,"choice":-1,"rt":-1,"accuracy":0,"outcome":"-10","keys":[],"total_keys":0,"block":1,"trial":112,"robot":3,"valence":"lose","action":"go","sham":0,"trial_type":"pit-trial","trial_index":125,"time_elapsed":546626,"internal_node_id":"0.0-114.0","task_version":"battery-v0.1"},{"rune":"Y","hex":"#f73b6a7A","correct":32,"choice":32,"rt":457.17499998863786,"accuracy":1,"outcome":"-1","keys":[1958.0599999753758],"total_keys":1,"block":1,"trial":113,"robot":3,"valence":"lose","action":"go","sham":0,"trial_type":"pit-trial","trial_index":126,"time_elapsed":549788,"internal_node_id":"0.0-115.0","task_version":"battery-v0.1"},{"rune":"Z","hex":"#3366ff99","correct":32,"choice":32,"rt":489.960000035353,"accuracy":1,"outcome":"+10","keys":[1991.9600000139326],"total_keys":1,"block":1,"trial":114,"robot":1,"valence":"win","action":"go","sham":0,"trial_type":"pit-trial","trial_index":127,"time_elapsed":552984,"internal_node_id":"0.0-116.0","task_version":"battery-v0.1"},{"rune":"V","hex":"#f73b6a7A","correct":32,"choice":32,"rt":482.4550000485033,"accuracy":1,"outcome":"-1","keys":[1983.2900000037625],"total_keys":1,"block":1,"trial":115,"robot":3,"valence":"lose","action":"go","sham":0,"trial_type":"pit-trial","trial_index":128,"time_elapsed":556172,"internal_node_id":"0.0-117.0","task_version":"battery-v0.1"},{"rune":"S","hex":"#3366ff99","correct":-1,"choice":32,"rt":378.6599999293685,"accuracy":0,"outcome":"+1","keys":[1879.3249999871477],"total_keys":1,"block":1,"trial":116,"robot":2,"valence":"win","action":"no-go","sham":0,"trial_type":"pit-trial","trial_index":129,"time_elapsed":559256,"internal_node_id":"0.0-118.0","task_version":"battery-v0.1"},{"rune":"S","hex":"#3366ff99","correct":-1,"choice":-1,"rt":-1,"accuracy":1,"outcome":"+10","keys":[],"total_keys":0,"block":1,"trial":117,"robot":2,"valence":"win","action":"no-go","sham":0,"trial_type":"pit-trial","trial_index":130,"time_elapsed":563260,"internal_node_id":"0.0-119.0","task_version":"battery-v0.1"},{"rune":"V","hex":"#f73b6a7A","correct":32,"choice":32,"rt":616.5700000710785,"accuracy":1,"outcome":"-1","keys":[2117.6899999845773],"total_keys":1,"block":1,"trial":118,"robot":3,"valence":"lose","action":"go","sham":0,"trial_type":"pit-trial","trial_index":131,"time_elapsed":566582,"internal_node_id":"0.0-120.0","task_version":"battery-v0.1"},{"rune":"Y","hex":"#f73b6a7A","correct":32,"choice":32,"rt":544.0249999519438,"accuracy":1,"outcome":"-10","keys":[2044.9299999745563],"total_keys":1,"block":1,"trial":119,"robot":3,"valence":"lose","action":"go","sham":1,"trial_type":"pit-trial","trial_index":132,"time_elapsed":569831,"internal_node_id":"0.0-121.0","task_version":"battery-v0.1"},{"rune":"Z","hex":"#3366ff99","correct":32,"choice":32,"rt":480.69500003475696,"accuracy":1,"outcome":"+10","keys":[1981.3200000207871],"total_keys":1,"block":1,"trial":120,"robot":1,"valence":"win","action":"go","sham":0,"trial_type":"pit-trial","trial_index":133,"time_elapsed":573017,"internal_node_id":"0.0-122.0","task_version":"battery-v0.1"},{"view_history":"[{\"page_index\":0,\"viewing_time\":67084.87499994226},{\"page_index\":1,\"viewing_time\":2719.799999962561}]","rt":69805.384999956,"trial_type":"pit-instructions","trial_index":134,"time_elapsed":642823,"internal_node_id":"0.0-123.0","task_version":"battery-v0.1"},{"rune":"W","hex":"#3366ff99","correct":32,"choice":32,"rt":641.0899999318644,"accuracy":1,"outcome":"+10","keys":[2141.1199999274686],"total_keys":1,"block":2,"trial":121,"robot":1,"valence":"win","action":"go","sham":0,"trial_type":"pit-trial","trial_index":135,"time_elapsed":646170,"internal_node_id":"0.0-124.0","task_version":"battery-v0.1"},{"rune":"J","hex":"#3366ff99","correct":-1,"choice":-1,"rt":-1,"accuracy":1,"outcome":"+1","keys":[],"total_keys":0,"block":2,"trial":122,"robot":2,"valence":"win","action":"no-go","sham":1,"trial_type":"pit-trial","trial_index":136,"time_elapsed":650175,"internal_node_id":"0.0-125.0","task_version":"battery-v0.1"},{"rune":"Q","hex":"#3366ff99","correct":32,"choice":32,"rt":471.87500004656613,"accuracy":1,"outcome":"+1","keys":[1972.9550000047311],"total_keys":1,"block":2,"trial":123,"robot":1,"valence":"win","action":"go","sham":1,"trial_type":"pit-trial","trial_index":137,"time_elapsed":653352,"internal_node_id":"0.0-126.0","task_version":"battery-v0.1"},{"rune":"N","hex":"#f73b6a7A","correct":-1,"choice":-1,"rt":-1,"accuracy":1,"outcome":"-1","keys":[],"total_keys":0,"block":2,"trial":124,"robot":4,"valence":"lose","action":"no-go","sham":0,"trial_type":"pit-trial","trial_index":138,"time_elapsed":657357,"internal_node_id":"0.0-127.0","task_version":"battery-v0.1"},{"rune":"J","hex":"#3366ff99","correct":-1,"choice":32,"rt":758.3599999779835,"accuracy":0,"outcome":"+1","keys":[2260.2399999741465],"total_keys":1,"block":2,"trial":125,"robot":2,"valence":"win","action":"no-go","sham":0,"trial_type":"pit-trial","trial_index":139,"time_elapsed":660821,"internal_node_id":"0.0-128.0","task_version":"battery-v0.1"},{"rune":"N","hex":"#f73b6a7A","correct":-1,"choice":32,"rt":547.3099999362603,"accuracy":0,"outcome":"-10","keys":[2047.5249999435619],"total_keys":1,"block":2,"trial":126,"robot":4,"valence":"lose","action":"no-go","sham":0,"trial_type":"pit-trial","trial_index":140,"time_elapsed":664073,"internal_node_id":"0.0-129.0","task_version":"battery-v0.1"},{"rune":"W","hex":"#3366ff99","correct":32,"choice":-1,"rt":-1,"accuracy":0,"outcome":"+1","keys":[],"total_keys":0,"block":2,"trial":127,"robot":1,"valence":"win","action":"go","sham":0,"trial_type":"pit-trial","trial_index":141,"time_elapsed":668077,"internal_node_id":"0.0-130.0","task_version":"battery-v0.1"},{"rune":"Q","hex":"#3366ff99","correct":32,"choice":32,"rt":430.5150000145659,"accuracy":1,"outcome":"+10","keys":[1931.2100000679493],"total_keys":1,"block":2,"trial":128,"robot":1,"valence":"win","action":"go","sham":0,"trial_type":"pit-trial","trial_index":142,"time_elapsed":671211,"internal_node_id":"0.0-131.0","task_version":"battery-v0.1"},{"rune":"Q","hex":"#3366ff99","correct":32,"choice":32,"rt":414.30000006221235,"accuracy":1,"outcome":"+1","keys":[1914.6900000050664],"total_keys":1,"block":2,"trial":129,"robot":1,"valence":"win","action":"go","sham":1,"trial_type":"pit-trial","trial_index":143,"time_elapsed":674330,"internal_node_id":"0.0-132.0","task_version":"battery-v0.1"},{"rune":"N","hex":"#f73b6a7A","correct":-1,"choice":32,"rt":505.9700000565499,"accuracy":0,"outcome":"-1","keys":[2006.7699999781325],"total_keys":1,"block":2,"trial":130,"robot":4,"valence":"lose","action":"no-go","sham":1,"trial_type":"pit-trial","trial_index":144,"time_elapsed":677540,"internal_node_id":"0.0-133.0","task_version":"battery-v0.1"},{"rune":"J","hex":"#3366ff99","correct":-1,"choice":32,"rt":368.10500000137836,"accuracy":0,"outcome":"+1","keys":[1868.640000000596],"total_keys":1,"block":2,"trial":131,"robot":2,"valence":"win","action":"no-go","sham":0,"trial_type":"pit-trial","trial_index":145,"time_elapsed":680612,"internal_node_id":"0.0-134.0","task_version":"battery-v0.1"},{"rune":"W","hex":"#3366ff99","correct":32,"choice":-1,"rt":-1,"accuracy":0,"outcome":"+1","keys":[],"total_keys":0,"block":2,"trial":132,"robot":1,"valence":"win","action":"go","sham":0,"trial_type":"pit-trial","trial_index":146,"time_elapsed":684619,"internal_node_id":"0.0-135.0","task_version":"battery-v0.1"},{"rune":"N","hex":"#f73b6a7A","correct":-1,"choice":32,"rt":460.0850000279024,"accuracy":0,"outcome":"-10","keys":[1962.0199999772012],"total_keys":1,"block":2,"trial":133,"robot":4,"valence":"lose","action":"no-go","sham":0,"trial_type":"pit-trial","trial_index":147,"time_elapsed":687784,"internal_node_id":"0.0-136.0","task_version":"battery-v0.1"},{"rune":"Q","hex":"#3366ff99","correct":32,"choice":32,"rt":697.7350000524893,"accuracy":1,"outcome":"+10","keys":[2198.7200001021847],"total_keys":1,"block":2,"trial":134,"robot":1,"valence":"win","action":"go","sham":0,"trial_type":"pit-trial","trial_index":148,"time_elapsed":691186,"internal_node_id":"0.0-137.0","task_version":"battery-v0.1"},{"rune":"J","hex":"#3366ff99","correct":-1,"choice":32,"rt":478.1199999852106,"accuracy":0,"outcome":"+1","keys":[1978.3500001067296],"total_keys":1,"block":2,"trial":135,"robot":2,"valence":"win","action":"no-go","sham":0,"trial_type":"pit-trial","trial_index":149,"time_elapsed":694369,"internal_node_id":"0.0-138.0","task_version":"battery-v0.1"},{"rune":"W","hex":"#3366ff99","correct":32,"choice":32,"rt":629.2799999937415,"accuracy":1,"outcome":"+10","keys":[2129.6350000193343],"total_keys":1,"block":2,"trial":136,"robot":1,"valence":"win","action":"go","sham":0,"trial_type":"pit-trial","trial_index":150,"time_elapsed":697702,"internal_node_id":"0.0-139.0","task_version":"battery-v0.1"},{"rune":"J","hex":"#3366ff99","correct":-1,"choice":32,"rt":661.5150000434369,"accuracy":0,"outcome":"+10","keys":[2162.49500005506],"total_keys":1,"block":2,"trial":137,"robot":2,"valence":"win","action":"no-go","sham":1,"trial_type":"pit-trial","trial_index":151,"time_elapsed":701068,"internal_node_id":"0.0-140.0","task_version":"battery-v0.1"},{"rune":"Q","hex":"#3366ff99","correct":32,"choice":32,"rt":665.2000000467524,"accuracy":1,"outcome":"+10","keys":[2165.3149999910966],"total_keys":1,"block":2,"trial":138,"robot":1,"valence":"win","action":"go","sham":0,"trial_type":"pit-trial","trial_index":152,"time_elapsed":704437,"internal_node_id":"0.0-141.0","task_version":"battery-v0.1"},{"rune":"W","hex":"#3366ff99","correct":32,"choice":32,"rt":311.14000000525266,"accuracy":1,"outcome":"+10","keys":[1811.3400000147521],"total_keys":1,"block":2,"trial":139,"robot":1,"valence":"win","action":"go","sham":0,"trial_type":"pit-trial","trial_index":153,"time_elapsed":707452,"internal_node_id":"0.0-142.0","task_version":"battery-v0.1"},{"rune":"N","hex":"#f73b6a7A","correct":-1,"choice":-1,"rt":-1,"accuracy":1,"outcome":"-1","keys":[],"total_keys":0,"block":2,"trial":140,"robot":4,"valence":"lose","action":"no-go","sham":0,"trial_type":"pit-trial","trial_index":154,"time_elapsed":711456,"internal_node_id":"0.0-143.0","task_version":"battery-v0.1"},{"rune":"Q","hex":"#3366ff99","correct":32,"choice":32,"rt":345.3649999573827,"accuracy":1,"outcome":"+10","keys":[1846.4900000253692],"total_keys":1,"block":2,"trial":141,"robot":1,"valence":"win","action":"go","sham":0,"trial_type":"pit-trial","trial_index":155,"time_elapsed":714508,"internal_node_id":"0.0-144.0","task_version":"battery-v0.1"},{"rune":"J","hex":"#3366ff99","correct":-1,"choice":32,"rt":359.775000018999,"accuracy":0,"outcome":"+1","keys":[1860.46500003431],"total_keys":1,"block":2,"trial":142,"robot":2,"valence":"win","action":"no-go","sham":0,"trial_type":"pit-trial","trial_index":156,"time_elapsed":717572,"internal_node_id":"0.0-145.0","task_version":"battery-v0.1"},{"rune":"N","hex":"#f73b6a7A","correct":-1,"choice":-1,"rt":-1,"accuracy":1,"outcome":"-1","keys":[],"total_keys":0,"block":2,"trial":143,"robot":4,"valence":"lose","action":"no-go","sham":0,"trial_type":"pit-trial","trial_index":157,"time_elapsed":721577,"internal_node_id":"0.0-146.0","task_version":"battery-v0.1"},{"rune":"W","hex":"#3366ff99","correct":32,"choice":32,"rt":674.6649999404326,"accuracy":1,"outcome":"+10","keys":[2175.775000010617],"total_keys":1,"block":2,"trial":144,"robot":1,"valence":"win","action":"go","sham":0,"trial_type":"pit-trial","trial_index":158,"time_elapsed":724957,"internal_node_id":"0.0-147.0","task_version":"battery-v0.1"},{"rune":"J","hex":"#3366ff99","correct":-1,"choice":32,"rt":474.4099999079481,"accuracy":0,"outcome":"+1","keys":[1975.9049999993294],"total_keys":1,"block":2,"trial":145,"robot":2,"valence":"win","action":"no-go","sham":0,"trial_type":"pit-trial","trial_index":159,"time_elapsed":728137,"internal_node_id":"0.0-148.0","task_version":"battery-v0.1"},{"rune":"N","hex":"#f73b6a7A","correct":-1,"choice":-1,"rt":-1,"accuracy":1,"outcome":"-1","keys":[],"total_keys":0,"block":2,"trial":146,"robot":4,"valence":"lose","action":"no-go","sham":0,"trial_type":"pit-trial","trial_index":160,"time_elapsed":732143,"internal_node_id":"0.0-149.0","task_version":"battery-v0.1"},{"rune":"Q","hex":"#3366ff99","correct":32,"choice":32,"rt":774.5750000467524,"accuracy":1,"outcome":"+10","keys":[2275.3149999771267],"total_keys":1,"block":2,"trial":147,"robot":1,"valence":"win","action":"go","sham":0,"trial_type":"pit-trial","trial_index":161,"time_elapsed":735622,"internal_node_id":"0.0-150.0","task_version":"battery-v0.1"},{"rune":"W","hex":"#3366ff99","correct":32,"choice":32,"rt":494.17499999981374,"accuracy":1,"outcome":"+10","keys":[1995.1550000114366],"total_keys":1,"block":2,"trial":148,"robot":1,"valence":"win","action":"go","sham":0,"trial_type":"pit-trial","trial_index":162,"time_elapsed":738822,"internal_node_id":"0.0-151.0","task_version":"battery-v0.1"},{"rune":"W","hex":"#3366ff99","correct":32,"choice":32,"rt":427.78999998699874,"accuracy":1,"outcome":"+1","keys":[1928.55499999132],"total_keys":1,"block":2,"trial":149,"robot":1,"valence":"win","action":"go","sham":1,"trial_type":"pit-trial","trial_index":163,"time_elapsed":741955,"internal_node_id":"0.0-152.0","task_version":"battery-v0.1"},{"rune":"Q","hex":"#3366ff99","correct":32,"choice":32,"rt":637.9750000778586,"accuracy":1,"outcome":"+10","keys":[2138.935000053607],"total_keys":1,"block":2,"trial":150,"robot":1,"valence":"win","action":"go","sham":0,"trial_type":"pit-trial","trial_index":164,"time_elapsed":745298,"internal_node_id":"0.0-153.0","task_version":"battery-v0.1"},{"rune":"N","hex":"#f73b6a7A","correct":-1,"choice":-1,"rt":-1,"accuracy":1,"outcome":"-10","keys":[],"total_keys":0,"block":2,"trial":151,"robot":4,"valence":"lose","action":"no-go","sham":1,"trial_type":"pit-trial","trial_index":165,"time_elapsed":749302,"internal_node_id":"0.0-154.0","task_version":"battery-v0.1"},{"rune":"J","hex":"#3366ff99","correct":-1,"choice":32,"rt":371.9450000207871,"accuracy":0,"outcome":"+1","keys":[1873.2399999862537],"total_keys":1,"block":2,"trial":152,"robot":2,"valence":"win","action":"no-go","sham":0,"trial_type":"pit-trial","trial_index":166,"time_elapsed":752379,"internal_node_id":"0.0-155.0","task_version":"battery-v0.1"},{"rune":"N","hex":"#f73b6a7A","correct":-1,"choice":32,"rt":618.4449999127537,"accuracy":0,"outcome":"-10","keys":[2118.4399999910966],"total_keys":1,"block":2,"trial":153,"robot":4,"valence":"lose","action":"no-go","sham":0,"trial_type":"pit-trial","trial_index":167,"time_elapsed":755701,"internal_node_id":"0.0-156.0","task_version":"battery-v0.1"},{"rune":"J","hex":"#3366ff99","correct":-1,"choice":32,"rt":431.0350000159815,"accuracy":0,"outcome":"+1","keys":[1931.2599999830127],"total_keys":1,"block":2,"trial":154,"robot":2,"valence":"win","action":"no-go","sham":0,"trial_type":"pit-trial","trial_index":168,"time_elapsed":758837,"internal_node_id":"0.0-157.0","task_version":"battery-v0.1"},{"rune":"B","hex":"#3366ff99","correct":32,"choice":-1,"rt":-1,"accuracy":0,"outcome":"+1","keys":[],"total_keys":0,"block":2,"trial":155,"robot":1,"valence":"win","action":"go","sham":0,"trial_type":"pit-trial","trial_index":169,"time_elapsed":762841,"internal_node_id":"0.0-158.0","task_version":"battery-v0.1"},{"rune":"W","hex":"#3366ff99","correct":32,"choice":32,"rt":481.49000003468245,"accuracy":1,"outcome":"+10","keys":[1981.694999965839],"total_keys":1,"block":2,"trial":156,"robot":1,"valence":"win","action":"go","sham":0,"trial_type":"pit-trial","trial_index":170,"time_elapsed":766026,"internal_node_id":"0.0-159.0","task_version":"battery-v0.1"},{"rune":"W","hex":"#3366ff99","correct":32,"choice":32,"rt":453.7699999054894,"accuracy":1,"outcome":"+1","keys":[1955.409999936819],"total_keys":1,"block":2,"trial":157,"robot":1,"valence":"win","action":"go","sham":1,"trial_type":"pit-trial","trial_index":171,"time_elapsed":769185,"internal_node_id":"0.0-160.0","task_version":"battery-v0.1"},{"rune":"B","hex":"#3366ff99","correct":32,"choice":32,"rt":538.6050000088289,"accuracy":1,"outcome":"+10","keys":[2039.4000000087544],"total_keys":1,"block":2,"trial":158,"robot":1,"valence":"win","action":"go","sham":0,"trial_type":"pit-trial","trial_index":172,"time_elapsed":772428,"internal_node_id":"0.0-161.0","task_version":"battery-v0.1"},{"rune":"N","hex":"#f73b6a7A","correct":-1,"choice":-1,"rt":-1,"accuracy":1,"outcome":"-10","keys":[],"total_keys":0,"block":2,"trial":159,"robot":4,"valence":"lose","action":"no-go","sham":1,"trial_type":"pit-trial","trial_index":173,"time_elapsed":776432,"internal_node_id":"0.0-162.0","task_version":"battery-v0.1"},{"rune":"J","hex":"#3366ff99","correct":-1,"choice":32,"rt":361.84999998658895,"accuracy":0,"outcome":"+1","keys":[1862.3749999096617],"total_keys":1,"block":2,"trial":160,"robot":2,"valence":"win","action":"no-go","sham":0,"trial_type":"pit-trial","trial_index":174,"time_elapsed":779499,"internal_node_id":"0.0-163.0","task_version":"battery-v0.1"},{"rune":"L","hex":"#f73b6a7A","correct":32,"choice":-1,"rt":-1,"accuracy":0,"outcome":"-10","keys":[],"total_keys":0,"block":2,"trial":161,"robot":3,"valence":"lose","action":"go","sham":0,"trial_type":"pit-trial","trial_index":175,"time_elapsed":783504,"internal_node_id":"0.0-164.0","task_version":"battery-v0.1"},{"rune":"J","hex":"#3366ff99","correct":-1,"choice":32,"rt":824.0249999798834,"accuracy":0,"outcome":"+1","keys":[2325.1150000141934],"total_keys":1,"block":2,"trial":162,"robot":2,"valence":"win","action":"no-go","sham":0,"trial_type":"pit-trial","trial_index":176,"time_elapsed":787033,"internal_node_id":"0.0-165.0","task_version":"battery-v0.1"},{"rune":"D","hex":"#f73b6a7A","correct":-1,"choice":32,"rt":878.9899999974295,"accuracy":0,"outcome":"-10","keys":[2379.1150000179186],"total_keys":1,"block":2,"trial":163,"robot":4,"valence":"lose","action":"no-go","sham":0,"trial_type":"pit-trial","trial_index":177,"time_elapsed":790616,"internal_node_id":"0.0-166.0","task_version":"battery-v0.1"},{"rune":"B","hex":"#3366ff99","correct":32,"choice":32,"rt":666.5199999697506,"accuracy":1,"outcome":"+10","keys":[2167.2600000165403],"total_keys":1,"block":2,"trial":164,"robot":1,"valence":"win","action":"go","sham":0,"trial_type":"pit-trial","trial_index":178,"time_elapsed":793987,"internal_node_id":"0.0-167.0","task_version":"battery-v0.1"},{"rune":"J","hex":"#3366ff99","correct":-1,"choice":-1,"rt":-1,"accuracy":1,"outcome":"+10","keys":[],"total_keys":0,"block":2,"trial":165,"robot":2,"valence":"win","action":"no-go","sham":0,"trial_type":"pit-trial","trial_index":179,"time_elapsed":797993,"internal_node_id":"0.0-168.0","task_version":"battery-v0.1"},{"rune":"B","hex":"#3366ff99","correct":32,"choice":32,"rt":590.9550000214949,"accuracy":1,"outcome":"+10","keys":[2091.1049999995157],"total_keys":1,"block":2,"trial":166,"robot":1,"valence":"win","action":"go","sham":0,"trial_type":"pit-trial","trial_index":180,"time_elapsed":801288,"internal_node_id":"0.0-169.0","task_version":"battery-v0.1"},{"rune":"L","hex":"#f73b6a7A","correct":32,"choice":32,"rt":306.6050000488758,"accuracy":1,"outcome":"-1","keys":[1807.410000008531],"total_keys":1,"block":2,"trial":167,"robot":3,"valence":"lose","action":"go","sham":0,"trial_type":"pit-trial","trial_index":181,"time_elapsed":804302,"internal_node_id":"0.0-170.0","task_version":"battery-v0.1"},{"rune":"D","hex":"#f73b6a7A","correct":-1,"choice":-1,"rt":-1,"accuracy":1,"outcome":"-10","keys":[],"total_keys":0,"block":2,"trial":168,"robot":4,"valence":"lose","action":"no-go","sham":1,"trial_type":"pit-trial","trial_index":182,"time_elapsed":808306,"internal_node_id":"0.0-171.0","task_version":"battery-v0.1"},{"rune":"L","hex":"#f73b6a7A","correct":32,"choice":32,"rt":654.839999973774,"accuracy":1,"outcome":"-1","keys":[2155.989999999292],"total_keys":1,"block":2,"trial":169,"robot":3,"valence":"lose","action":"go","sham":0,"trial_type":"pit-trial","trial_index":183,"time_elapsed":811666,"internal_node_id":"0.0-172.0","task_version":"battery-v0.1"},{"rune":"D","hex":"#f73b6a7A","correct":-1,"choice":32,"rt":335.8449999941513,"accuracy":0,"outcome":"-10","keys":[1836.6450000321493],"total_keys":1,"block":2,"trial":170,"robot":4,"valence":"lose","action":"no-go","sham":0,"trial_type":"pit-trial","trial_index":184,"time_elapsed":814705,"internal_node_id":"0.0-173.0","task_version":"battery-v0.1"},{"rune":"B","hex":"#3366ff99","correct":32,"choice":32,"rt":831.9199999095872,"accuracy":1,"outcome":"+10","keys":[2332.829999970272],"total_keys":1,"block":2,"trial":171,"robot":1,"valence":"win","action":"go","sham":0,"trial_type":"pit-trial","trial_index":185,"time_elapsed":818241,"internal_node_id":"0.0-174.0","task_version":"battery-v0.1"},{"rune":"F","hex":"#3366ff99","correct":-1,"choice":-1,"rt":-1,"accuracy":1,"outcome":"+10","keys":[],"total_keys":0,"block":2,"trial":172,"robot":2,"valence":"win","action":"no-go","sham":0,"trial_type":"pit-trial","trial_index":186,"time_elapsed":822246,"internal_node_id":"0.0-175.0","task_version":"battery-v0.1"},{"rune":"F","hex":"#3366ff99","correct":-1,"choice":-1,"rt":-1,"accuracy":1,"outcome":"+10","keys":[],"total_keys":0,"block":2,"trial":173,"robot":2,"valence":"win","action":"no-go","sham":0,"trial_type":"pit-trial","trial_index":187,"time_elapsed":826251,"internal_node_id":"0.0-176.0","task_version":"battery-v0.1"},{"rune":"D","hex":"#f73b6a7A","correct":-1,"choice":32,"rt":352.40500001236796,"accuracy":0,"outcome":"-10","keys":[1852.6500000152737],"total_keys":1,"block":2,"trial":174,"robot":4,"valence":"lose","action":"no-go","sham":0,"trial_type":"pit-trial","trial_index":188,"time_elapsed":829307,"internal_node_id":"0.0-177.0","task_version":"battery-v0.1"},{"rune":"B","hex":"#3366ff99","correct":32,"choice":32,"rt":472.6049999007955,"accuracy":1,"outcome":"+10","keys":[1972.6800000062212],"total_keys":1,"block":2,"trial":175,"robot":1,"valence":"win","action":"go","sham":0,"trial_type":"pit-trial","trial_index":189,"time_elapsed":832483,"internal_node_id":"0.0-178.0","task_version":"battery-v0.1"},{"rune":"L","hex":"#f73b6a7A","correct":32,"choice":32,"rt":643.6049999902025,"accuracy":1,"outcome":"-1","keys":[2143.995000049472],"total_keys":1,"block":2,"trial":176,"robot":3,"valence":"lose","action":"go","sham":0,"trial_type":"pit-trial","trial_index":190,"time_elapsed":835832,"internal_node_id":"0.0-179.0","task_version":"battery-v0.1"},{"rune":"L","hex":"#f73b6a7A","correct":32,"choice":32,"rt":434.040000080131,"accuracy":1,"outcome":"-1","keys":[1934.2849999666214],"total_keys":1,"block":2,"trial":177,"robot":3,"valence":"lose","action":"go","sham":0,"trial_type":"pit-trial","trial_index":191,"time_elapsed":838971,"internal_node_id":"0.0-180.0","task_version":"battery-v0.1"},{"rune":"F","hex":"#3366ff99","correct":-1,"choice":-1,"rt":-1,"accuracy":1,"outcome":"+10","keys":[],"total_keys":0,"block":2,"trial":178,"robot":2,"valence":"win","action":"no-go","sham":0,"trial_type":"pit-trial","trial_index":192,"time_elapsed":842977,"internal_node_id":"0.0-181.0","task_version":"battery-v0.1"},{"rune":"D","hex":"#f73b6a7A","correct":-1,"choice":-1,"rt":-1,"accuracy":1,"outcome":"-1","keys":[],"total_keys":0,"block":2,"trial":179,"robot":4,"valence":"lose","action":"no-go","sham":0,"trial_type":"pit-trial","trial_index":193,"time_elapsed":846982,"internal_node_id":"0.0-182.0","task_version":"battery-v0.1"},{"rune":"B","hex":"#3366ff99","correct":32,"choice":32,"rt":489.9699999950826,"accuracy":1,"outcome":"+1","keys":[1990.0899999774992],"total_keys":1,"block":2,"trial":180,"robot":1,"valence":"win","action":"go","sham":1,"trial_type":"pit-trial","trial_index":194,"time_elapsed":850176,"internal_node_id":"0.0-183.0","task_version":"battery-v0.1"},{"rune":"D","hex":"#f73b6a7A","correct":-1,"choice":-1,"rt":-1,"accuracy":1,"outcome":"-1","keys":[],"total_keys":0,"block":2,"trial":181,"robot":4,"valence":"lose","action":"no-go","sham":0,"trial_type":"pit-trial","trial_index":195,"time_elapsed":854180,"internal_node_id":"0.0-184.0","task_version":"battery-v0.1"},{"rune":"B","hex":"#3366ff99","correct":32,"choice":32,"rt":503.58000001870096,"accuracy":1,"outcome":"+10","keys":[2003.7799999117851],"total_keys":1,"block":2,"trial":182,"robot":1,"valence":"win","action":"go","sham":0,"trial_type":"pit-trial","trial_index":196,"time_elapsed":857388,"internal_node_id":"0.0-185.0","task_version":"battery-v0.1"},{"rune":"L","hex":"#f73b6a7A","correct":32,"choice":32,"rt":529.6550000784919,"accuracy":1,"outcome":"-1","keys":[2030.239999992773],"total_keys":1,"block":2,"trial":183,"robot":3,"valence":"lose","action":"go","sham":0,"trial_type":"pit-trial","trial_index":197,"time_elapsed":860622,"internal_node_id":"0.0-186.0","task_version":"battery-v0.1"},{"rune":"F","hex":"#3366ff99","correct":-1,"choice":-1,"rt":-1,"accuracy":1,"outcome":"+10","keys":[],"total_keys":0,"block":2,"trial":184,"robot":2,"valence":"win","action":"no-go","sham":0,"trial_type":"pit-trial","trial_index":198,"time_elapsed":864627,"internal_node_id":"0.0-187.0","task_version":"battery-v0.1"},{"rune":"B","hex":"#3366ff99","correct":32,"choice":32,"rt":437.8500001039356,"accuracy":1,"outcome":"+1","keys":[1937.9450000124052],"total_keys":1,"block":2,"trial":185,"robot":1,"valence":"win","action":"go","sham":1,"trial_type":"pit-trial","trial_index":199,"time_elapsed":867769,"internal_node_id":"0.0-188.0","task_version":"battery-v0.1"},{"rune":"L","hex":"#f73b6a7A","correct":32,"choice":32,"rt":569.9000000022352,"accuracy":1,"outcome":"-1","keys":[2070.449999999255],"total_keys":1,"block":2,"trial":186,"robot":3,"valence":"lose","action":"go","sham":0,"trial_type":"pit-trial","trial_index":200,"time_elapsed":871043,"internal_node_id":"0.0-189.0","task_version":"battery-v0.1"},{"rune":"F","hex":"#3366ff99","correct":-1,"choice":32,"rt":449.6999999973923,"accuracy":0,"outcome":"+1","keys":[1950.5250001093373],"total_keys":1,"block":2,"trial":187,"robot":2,"valence":"win","action":"no-go","sham":0,"trial_type":"pit-trial","trial_index":201,"time_elapsed":874197,"internal_node_id":"0.0-190.0","task_version":"battery-v0.1"},{"rune":"D","hex":"#f73b6a7A","correct":-1,"choice":-1,"rt":-1,"accuracy":1,"outcome":"-1","keys":[],"total_keys":0,"block":2,"trial":188,"robot":4,"valence":"lose","action":"no-go","sham":0,"trial_type":"pit-trial","trial_index":202,"time_elapsed":878202,"internal_node_id":"0.0-191.0","task_version":"battery-v0.1"},{"rune":"L","hex":"#f73b6a7A","correct":32,"choice":32,"rt":444.2500000586733,"accuracy":1,"outcome":"-1","keys":[1944.3800000008196],"total_keys":1,"block":2,"trial":189,"robot":3,"valence":"lose","action":"go","sham":0,"trial_type":"pit-trial","trial_index":203,"time_elapsed":881350,"internal_node_id":"0.0-192.0","task_version":"battery-v0.1"},{"rune":"F","hex":"#3366ff99","correct":-1,"choice":32,"rt":586.3649999955669,"accuracy":0,"outcome":"+1","keys":[2086.765000014566],"total_keys":1,"block":2,"trial":190,"robot":2,"valence":"win","action":"no-go","sham":0,"trial_type":"pit-trial","trial_index":204,"time_elapsed":884640,"internal_node_id":"0.0-193.0","task_version":"battery-v0.1"},{"rune":"B","hex":"#3366ff99","correct":32,"choice":32,"rt":325.15000004787,"accuracy":1,"outcome":"+10","keys":[1825.9100000141189],"total_keys":1,"block":2,"trial":191,"robot":1,"valence":"win","action":"go","sham":0,"trial_type":"pit-trial","trial_index":205,"time_elapsed":887670,"internal_node_id":"0.0-194.0","task_version":"battery-v0.1"},{"rune":"D","hex":"#f73b6a7A","correct":-1,"choice":32,"rt":379.6550000552088,"accuracy":0,"outcome":"-10","keys":[1880.3949999855831],"total_keys":1,"block":2,"trial":192,"robot":4,"valence":"lose","action":"no-go","sham":0,"trial_type":"pit-trial","trial_index":206,"time_elapsed":890754,"internal_node_id":"0.0-195.0","task_version":"battery-v0.1"},{"rune":"D","hex":"#f73b6a7A","correct":-1,"choice":-1,"rt":-1,"accuracy":1,"outcome":"-1","keys":[],"total_keys":0,"block":2,"trial":193,"robot":4,"valence":"lose","action":"no-go","sham":0,"trial_type":"pit-trial","trial_index":207,"time_elapsed":894759,"internal_node_id":"0.0-196.0","task_version":"battery-v0.1"},{"rune":"F","hex":"#3366ff99","correct":-1,"choice":32,"rt":609.3550000805408,"accuracy":0,"outcome":"+1","keys":[2109.870000043884],"total_keys":1,"block":2,"trial":194,"robot":2,"valence":"win","action":"no-go","sham":0,"trial_type":"pit-trial","trial_index":208,"time_elapsed":898073,"internal_node_id":"0.0-197.0","task_version":"battery-v0.1"},{"rune":"B","hex":"#3366ff99","correct":32,"choice":32,"rt":391.30000001750886,"accuracy":1,"outcome":"+10","keys":[1892.0850000577047],"total_keys":1,"block":2,"trial":195,"robot":1,"valence":"win","action":"go","sham":0,"trial_type":"pit-trial","trial_index":209,"time_elapsed":901168,"internal_node_id":"0.0-198.0","task_version":"battery-v0.1"},{"rune":"P","hex":"#f73b6a7A","correct":32,"choice":-1,"rt":-1,"accuracy":0,"outcome":"-10","keys":[],"total_keys":0,"block":2,"trial":196,"robot":3,"valence":"lose","action":"go","sham":0,"trial_type":"pit-trial","trial_index":210,"time_elapsed":905173,"internal_node_id":"0.0-199.0","task_version":"battery-v0.1"},{"rune":"P","hex":"#f73b6a7A","correct":32,"choice":32,"rt":361.82499991264194,"accuracy":1,"outcome":"-10","keys":[1861.9949999265373],"total_keys":1,"block":2,"trial":197,"robot":3,"valence":"lose","action":"go","sham":1,"trial_type":"pit-trial","trial_index":211,"time_elapsed":908239,"internal_node_id":"0.0-200.0","task_version":"battery-v0.1"},{"rune":"B","hex":"#3366ff99","correct":32,"choice":32,"rt":417.01500001363456,"accuracy":1,"outcome":"+1","keys":[1918.8800000119954],"total_keys":1,"block":2,"trial":198,"robot":1,"valence":"win","action":"go","sham":1,"trial_type":"pit-trial","trial_index":212,"time_elapsed":911362,"internal_node_id":"0.0-201.0","task_version":"battery-v0.1"},{"rune":"D","hex":"#f73b6a7A","correct":-1,"choice":32,"rt":666.2999999243766,"accuracy":0,"outcome":"-10","keys":[2166.744999936782],"total_keys":1,"block":2,"trial":199,"robot":4,"valence":"lose","action":"no-go","sham":0,"trial_type":"pit-trial","trial_index":213,"time_elapsed":914732,"internal_node_id":"0.0-202.0","task_version":"battery-v0.1"},{"rune":"F","hex":"#3366ff99","correct":-1,"choice":32,"rt":521.2449999526143,"accuracy":0,"outcome":"+1","keys":[2023.0699999956414],"total_keys":1,"block":2,"trial":200,"robot":2,"valence":"win","action":"no-go","sham":0,"trial_type":"pit-trial","trial_index":214,"time_elapsed":917960,"internal_node_id":"0.0-203.0","task_version":"battery-v0.1"},{"rune":"P","hex":"#f73b6a7A","correct":32,"choice":32,"rt":665.0000000372529,"accuracy":1,"outcome":"-1","keys":[2166.8949999148026],"total_keys":1,"block":2,"trial":201,"robot":3,"valence":"lose","action":"go","sham":0,"trial_type":"pit-trial","trial_index":215,"time_elapsed":921332,"internal_node_id":"0.0-204.0","task_version":"battery-v0.1"},{"rune":"D","hex":"#f73b6a7A","correct":-1,"choice":-1,"rt":-1,"accuracy":1,"outcome":"-1","keys":[],"total_keys":0,"block":2,"trial":202,"robot":4,"valence":"lose","action":"no-go","sham":0,"trial_type":"pit-trial","trial_index":216,"time_elapsed":925336,"internal_node_id":"0.0-205.0","task_version":"battery-v0.1"},{"rune":"X","hex":"#f73b6a7A","correct":32,"choice":32,"rt":529.8900000052527,"accuracy":1,"outcome":"-1","keys":[2031.3950000563636],"total_keys":1,"block":2,"trial":203,"robot":3,"valence":"lose","action":"go","sham":0,"trial_type":"pit-trial","trial_index":217,"time_elapsed":928572,"internal_node_id":"0.0-206.0","task_version":"battery-v0.1"},{"rune":"F","hex":"#3366ff99","correct":-1,"choice":32,"rt":364.03499997686595,"accuracy":0,"outcome":"+1","keys":[1864.4449999555945],"total_keys":1,"block":2,"trial":204,"robot":2,"valence":"win","action":"no-go","sham":0,"trial_type":"pit-trial","trial_index":218,"time_elapsed":931640,"internal_node_id":"0.0-207.0","task_version":"battery-v0.1"},{"rune":"P","hex":"#f73b6a7A","correct":32,"choice":32,"rt":846.4649999514222,"accuracy":1,"outcome":"-1","keys":[2347.6749999681488],"total_keys":1,"block":2,"trial":205,"robot":3,"valence":"lose","action":"go","sham":0,"trial_type":"pit-trial","trial_index":219,"time_elapsed":935192,"internal_node_id":"0.0-208.0","task_version":"battery-v0.1"},{"rune":"D","hex":"#f73b6a7A","correct":-1,"choice":-1,"rt":-1,"accuracy":1,"outcome":"-1","keys":[],"total_keys":0,"block":2,"trial":206,"robot":4,"valence":"lose","action":"no-go","sham":0,"trial_type":"pit-trial","trial_index":220,"time_elapsed":939198,"internal_node_id":"0.0-209.0","task_version":"battery-v0.1"},{"rune":"X","hex":"#f73b6a7A","correct":32,"choice":32,"rt":836.2700000870973,"accuracy":1,"outcome":"-1","keys":[2336.4000000292435],"total_keys":1,"block":2,"trial":207,"robot":3,"valence":"lose","action":"go","sham":0,"trial_type":"pit-trial","trial_index":221,"time_elapsed":942737,"internal_node_id":"0.0-210.0","task_version":"battery-v0.1"},{"rune":"F","hex":"#3366ff99","correct":-1,"choice":32,"rt":530.254999990575,"accuracy":0,"outcome":"+10","keys":[2031.6550000570714],"total_keys":1,"block":2,"trial":208,"robot":2,"valence":"win","action":"no-go","sham":1,"trial_type":"pit-trial","trial_index":222,"time_elapsed":945974,"internal_node_id":"0.0-211.0","task_version":"battery-v0.1"},{"rune":"P","hex":"#f73b6a7A","correct":32,"choice":32,"rt":608.7050000205636,"accuracy":1,"outcome":"-1","keys":[2108.8999999919906],"total_keys":1,"block":2,"trial":209,"robot":3,"valence":"lose","action":"go","sham":0,"trial_type":"pit-trial","trial_index":223,"time_elapsed":949287,"internal_node_id":"0.0-212.0","task_version":"battery-v0.1"},{"rune":"U","hex":"#f73b6a7A","correct":-1,"choice":32,"rt":753.8550000172108,"accuracy":0,"outcome":"-10","keys":[2254.4400000479072],"total_keys":1,"block":2,"trial":210,"robot":4,"valence":"lose","action":"no-go","sham":0,"trial_type":"pit-trial","trial_index":224,"time_elapsed":952746,"internal_node_id":"0.0-213.0","task_version":"battery-v0.1"},{"rune":"H","hex":"#3366ff99","correct":-1,"choice":32,"rt":657.6649999478832,"accuracy":0,"outcome":"+1","keys":[2158.0400000093505],"total_keys":1,"block":2,"trial":211,"robot":2,"valence":"win","action":"no-go","sham":0,"trial_type":"pit-trial","trial_index":225,"time_elapsed":956107,"internal_node_id":"0.0-214.0","task_version":"battery-v0.1"},{"rune":"X","hex":"#f73b6a7A","correct":32,"choice":32,"rt":510.0150000071153,"accuracy":1,"outcome":"-1","keys":[2010.8200000831857],"total_keys":1,"block":2,"trial":212,"robot":3,"valence":"lose","action":"go","sham":0,"trial_type":"pit-trial","trial_index":226,"time_elapsed":959322,"internal_node_id":"0.0-215.0","task_version":"battery-v0.1"},{"rune":"U","hex":"#f73b6a7A","correct":-1,"choice":-1,"rt":-1,"accuracy":1,"outcome":"-10","keys":[],"total_keys":0,"block":2,"trial":213,"robot":4,"valence":"lose","action":"no-go","sham":1,"trial_type":"pit-trial","trial_index":227,"time_elapsed":963327,"internal_node_id":"0.0-216.0","task_version":"battery-v0.1"},{"rune":"H","hex":"#3366ff99","correct":-1,"choice":32,"rt":939.57499996759,"accuracy":0,"outcome":"+10","keys":[2440.1350000407547],"total_keys":1,"block":2,"trial":214,"robot":2,"valence":"win","action":"no-go","sham":1,"trial_type":"pit-trial","trial_index":228,"time_elapsed":966971,"internal_node_id":"0.0-217.0","task_version":"battery-v0.1"},{"rune":"X","hex":"#f73b6a7A","correct":32,"choice":32,"rt":543.1500000413507,"accuracy":1,"outcome":"-1","keys":[2043.889999971725],"total_keys":1,"block":2,"trial":215,"robot":3,"valence":"lose","action":"go","sham":0,"trial_type":"pit-trial","trial_index":229,"time_elapsed":970218,"internal_node_id":"0.0-218.0","task_version":"battery-v0.1"},{"rune":"P","hex":"#f73b6a7A","correct":32,"choice":32,"rt":364.5050000632182,"accuracy":1,"outcome":"-1","keys":[1865.6900000059977],"total_keys":1,"block":2,"trial":216,"robot":3,"valence":"lose","action":"go","sham":0,"trial_type":"pit-trial","trial_index":230,"time_elapsed":973288,"internal_node_id":"0.0-219.0","task_version":"battery-v0.1"},{"rune":"U","hex":"#f73b6a7A","correct":-1,"choice":32,"rt":534.0250000590459,"accuracy":0,"outcome":"-10","keys":[2034.6199999330565],"total_keys":1,"block":2,"trial":217,"robot":4,"valence":"lose","action":"no-go","sham":0,"trial_type":"pit-trial","trial_index":231,"time_elapsed":976526,"internal_node_id":"0.0-220.0","task_version":"battery-v0.1"},{"rune":"X","hex":"#f73b6a7A","correct":32,"choice":32,"rt":691.3600000552833,"accuracy":1,"outcome":"-10","keys":[2191.4600000018254],"total_keys":1,"block":2,"trial":218,"robot":3,"valence":"lose","action":"go","sham":1,"trial_type":"pit-trial","trial_index":232,"time_elapsed":979922,"internal_node_id":"0.0-221.0","task_version":"battery-v0.1"},{"rune":"H","hex":"#3366ff99","correct":-1,"choice":32,"rt":671.7799999751151,"accuracy":0,"outcome":"+10","keys":[2171.9450000673532],"total_keys":1,"block":2,"trial":219,"robot":2,"valence":"win","action":"no-go","sham":1,"trial_type":"pit-trial","trial_index":233,"time_elapsed":983298,"internal_node_id":"0.0-222.0","task_version":"battery-v0.1"},{"rune":"P","hex":"#f73b6a7A","correct":32,"choice":-1,"rt":-1,"accuracy":0,"outcome":"-1","keys":[],"total_keys":0,"block":2,"trial":220,"robot":3,"valence":"lose","action":"go","sham":1,"trial_type":"pit-trial","trial_index":234,"time_elapsed":987303,"internal_node_id":"0.0-223.0","task_version":"battery-v0.1"},{"rune":"H","hex":"#3366ff99","correct":-1,"choice":32,"rt":461.7900000885129,"accuracy":0,"outcome":"+1","keys":[1962.015000055544],"total_keys":1,"block":2,"trial":221,"robot":2,"valence":"win","action":"no-go","sham":0,"trial_type":"pit-trial","trial_index":235,"time_elapsed":990469,"internal_node_id":"0.0-224.0","task_version":"battery-v0.1"},{"rune":"X","hex":"#f73b6a7A","correct":32,"choice":32,"rt":638.660000055097,"accuracy":1,"outcome":"-1","keys":[2139.199999975972],"total_keys":1,"block":2,"trial":222,"robot":3,"valence":"lose","action":"go","sham":0,"trial_type":"pit-trial","trial_index":236,"time_elapsed":993812,"internal_node_id":"0.0-225.0","task_version":"battery-v0.1"},{"rune":"U","hex":"#f73b6a7A","correct":-1,"choice":32,"rt":609.6050000051036,"accuracy":0,"outcome":"-10","keys":[2111.0249999910593],"total_keys":1,"block":2,"trial":223,"robot":4,"valence":"lose","action":"no-go","sham":0,"trial_type":"pit-trial","trial_index":237,"time_elapsed":997126,"internal_node_id":"0.0-226.0","task_version":"battery-v0.1"},{"rune":"P","hex":"#f73b6a7A","correct":32,"choice":-1,"rt":-1,"accuracy":0,"outcome":"-10","keys":[],"total_keys":0,"block":2,"trial":224,"robot":3,"valence":"lose","action":"go","sham":0,"trial_type":"pit-trial","trial_index":238,"time_elapsed":1001130,"internal_node_id":"0.0-227.0","task_version":"battery-v0.1"},{"rune":"U","hex":"#f73b6a7A","correct":-1,"choice":32,"rt":488.30500000622123,"accuracy":0,"outcome":"-10","keys":[1988.965000025928],"total_keys":1,"block":2,"trial":225,"robot":4,"valence":"lose","action":"no-go","sham":0,"trial_type":"pit-trial","trial_index":239,"time_elapsed":1004323,"internal_node_id":"0.0-228.0","task_version":"battery-v0.1"},{"rune":"P","hex":"#f73b6a7A","correct":32,"choice":-1,"rt":-1,"accuracy":0,"outcome":"-1","keys":[],"total_keys":0,"block":2,"trial":226,"robot":3,"valence":"lose","action":"go","sham":1,"trial_type":"pit-trial","trial_index":240,"time_elapsed":1008327,"internal_node_id":"0.0-229.0","task_version":"battery-v0.1"},{"rune":"X","hex":"#f73b6a7A","correct":32,"choice":-1,"rt":-1,"accuracy":0,"outcome":"-1","keys":[],"total_keys":0,"block":2,"trial":227,"robot":3,"valence":"lose","action":"go","sham":1,"trial_type":"pit-trial","trial_index":241,"time_elapsed":1012331,"internal_node_id":"0.0-230.0","task_version":"battery-v0.1"},{"rune":"H","hex":"#3366ff99","correct":-1,"choice":-1,"rt":-1,"accuracy":1,"outcome":"+10","keys":[],"total_keys":0,"block":2,"trial":228,"robot":2,"valence":"win","action":"no-go","sham":0,"trial_type":"pit-trial","trial_index":242,"time_elapsed":1016335,"internal_node_id":"0.0-231.0","task_version":"battery-v0.1"},{"rune":"U","hex":"#f73b6a7A","correct":-1,"choice":32,"rt":722.9299999307841,"accuracy":0,"outcome":"-10","keys":[2223.6399999819696],"total_keys":1,"block":2,"trial":229,"robot":4,"valence":"lose","action":"no-go","sham":0,"trial_type":"pit-trial","trial_index":243,"time_elapsed":1019762,"internal_node_id":"0.0-232.0","task_version":"battery-v0.1"},{"rune":"X","hex":"#f73b6a7A","correct":32,"choice":-1,"rt":-1,"accuracy":0,"outcome":"-1","keys":[],"total_keys":0,"block":2,"trial":230,"robot":3,"valence":"lose","action":"go","sham":1,"trial_type":"pit-trial","trial_index":244,"time_elapsed":1023767,"internal_node_id":"0.0-233.0","task_version":"battery-v0.1"},{"rune":"P","hex":"#f73b6a7A","correct":32,"choice":-1,"rt":-1,"accuracy":0,"outcome":"-1","keys":[],"total_keys":0,"block":2,"trial":231,"robot":3,"valence":"lose","action":"go","sham":1,"trial_type":"pit-trial","trial_index":245,"time_elapsed":1027771,"internal_node_id":"0.0-234.0","task_version":"battery-v0.1"},{"rune":"H","hex":"#3366ff99","correct":-1,"choice":32,"rt":415.7949999207631,"accuracy":0,"outcome":"+1","keys":[1915.9199999412522],"total_keys":1,"block":2,"trial":232,"robot":2,"valence":"win","action":"no-go","sham":0,"trial_type":"pit-trial","trial_index":246,"time_elapsed":1030890,"internal_node_id":"0.0-235.0","task_version":"battery-v0.1"},{"rune":"P","hex":"#f73b6a7A","correct":32,"choice":-1,"rt":-1,"accuracy":0,"outcome":"-10","keys":[],"total_keys":0,"block":2,"trial":233,"robot":3,"valence":"lose","action":"go","sham":0,"trial_type":"pit-trial","trial_index":247,"time_elapsed":1034895,"internal_node_id":"0.0-236.0","task_version":"battery-v0.1"},{"rune":"H","hex":"#3366ff99","correct":-1,"choice":32,"rt":498.18500003311783,"accuracy":0,"outcome":"+1","keys":[1998.894999967888],"total_keys":1,"block":2,"trial":234,"robot":2,"valence":"win","action":"no-go","sham":0,"trial_type":"pit-trial","trial_index":248,"time_elapsed":1038098,"internal_node_id":"0.0-237.0","task_version":"battery-v0.1"},{"rune":"U","hex":"#f73b6a7A","correct":-1,"choice":32,"rt":598.8650000654161,"accuracy":0,"outcome":"-10","keys":[2099.9249999877065],"total_keys":1,"block":2,"trial":235,"robot":4,"valence":"lose","action":"no-go","sham":0,"trial_type":"pit-trial","trial_index":249,"time_elapsed":1041402,"internal_node_id":"0.0-238.0","task_version":"battery-v0.1"},{"rune":"X","hex":"#f73b6a7A","correct":32,"choice":-1,"rt":-1,"accuracy":0,"outcome":"-10","keys":[],"total_keys":0,"block":2,"trial":236,"robot":3,"valence":"lose","action":"go","sham":0,"trial_type":"pit-trial","trial_index":250,"time_elapsed":1045418,"internal_node_id":"0.0-239.0","task_version":"battery-v0.1"},{"rune":"U","hex":"#f73b6a7A","correct":-1,"choice":32,"rt":372.97500006388873,"accuracy":0,"outcome":"-10","keys":[1874.1699999663979],"total_keys":1,"block":2,"trial":237,"robot":4,"valence":"lose","action":"no-go","sham":0,"trial_type":"pit-trial","trial_index":251,"time_elapsed":1048496,"internal_node_id":"0.0-240.0","task_version":"battery-v0.1"},{"rune":"H","hex":"#3366ff99","correct":-1,"choice":32,"rt":356.88500001560897,"accuracy":0,"outcome":"+1","keys":[1857.369999983348],"total_keys":1,"block":2,"trial":238,"robot":2,"valence":"win","action":"no-go","sham":0,"trial_type":"pit-trial","trial_index":252,"time_elapsed":1051557,"internal_node_id":"0.0-241.0","task_version":"battery-v0.1"},{"rune":"X","hex":"#f73b6a7A","correct":32,"choice":-1,"rt":-1,"accuracy":0,"outcome":"-10","keys":[],"total_keys":0,"block":2,"trial":239,"robot":3,"valence":"lose","action":"go","sham":0,"trial_type":"pit-trial","trial_index":253,"time_elapsed":1055563,"internal_node_id":"0.0-242.0","task_version":"battery-v0.1"},{"rune":"P","hex":"#f73b6a7A","correct":32,"choice":32,"rt":384.13999998010695,"accuracy":1,"outcome":"-1","keys":[1885.0300000049174],"total_keys":1,"block":2,"trial":240,"robot":3,"valence":"lose","action":"go","sham":0,"trial_type":"pit-trial","trial_index":254,"time_elapsed":1058653,"internal_node_id":"0.0-243.0","task_version":"battery-v0.1"},{"view_history":"[{\"page_index\":0,\"viewing_time\":1875.4650000482798}]","rt":1875.840000109747,"trial_type":"pit-instructions","trial_index":255,"time_elapsed":1060531,"internal_node_id":"0.0-244.0","task_version":"battery-v0.1"},{"rt":10450.715000042692,"responses":{"age":"35","gender-categorical":"Female","gender-free-response":"","ethnicity":"Hispanic or Latino","race":["White"],"language":"Yes","fluency":"Very well"},"survey":"demographics","trial_type":"survey-demo","trial_index":256,"time_elapsed":1070984,"internal_node_id":"0.0-245.0","task_version":"battery-v0.1"},{"rt":27354.204999981448,"responses":{"difficulty":"5","fun":"4","clarity":"5","strategy":"Tried to memorize what letters were to hit or not hit","feedback":""},"survey":"debrief","trial_type":"survey-debrief","trial_index":257,"time_elapsed":1098341,"internal_node_id":"0.0-246.0","task_version":"battery-v0.1","interactions":"[{\"event\":\"blur\",\"trial\":0,\"time\":209},{\"event\":\"focus\",\"trial\":0,\"time\":1282}]"}]