[{"view_history":"[{\"page_index\":0,\"viewing_time\":16083.669999999984},{\"page_index\":1,\"viewing_time\":13935.220000001209},{\"page_index\":2,\"viewing_time\":4927.899999998772},{\"page_index\":3,\"viewing_time\":12967.8100000001},{\"page_index\":4,\"viewing_time\":25352.0550000012},{\"page_index\":5,\"viewing_time\":7519.794999998339}]","rt":80787.61000000122,"trial_type":"pit-instructions","trial_index":0,"time_elapsed":80805,"internal_node_id":"0.0-0.0-0.0","task_version":"battery-v0.1"},{"rune":"","hex":"#FFFFF080","correct":32,"choice":32,"rt":603.7249999990308,"accuracy":1,"outcome":"+10","keys":[2106.004999999641],"total_keys":1,"block":0,"trial_type":"pit-trial","trial_index":1,"time_elapsed":84116,"internal_node_id":"0.0-0.0-1.0-0.0","task_version":"battery-v0.1"},{"rune":"","hex":"#FFFFF080","correct":32,"choice":32,"rt":1063.3899999993446,"accuracy":1,"outcome":"+10","keys":[2564.2599999991944],"total_keys":1,"block":0,"trial_type":"pit-trial","trial_index":2,"time_elapsed":87887,"internal_node_id":"0.0-0.0-1.0-0.1","task_version":"battery-v0.1"},{"rune":"","hex":"#FFFFF080","correct":32,"choice":32,"rt":477.66500000034284,"accuracy":1,"outcome":"+10","keys":[1978.900000000067],"total_keys":1,"block":0,"trial_type":"pit-trial","trial_index":3,"time_elapsed":91070,"internal_node_id":"0.0-0.0-1.0-0.2","task_version":"battery-v0.1"},{"rune":"","hex":"#FFFFF080","correct":32,"choice":32,"rt":715.0149999997666,"accuracy":1,"outcome":"+10","keys":[2215.07500000007],"total_keys":1,"block":0,"trial_type":"pit-trial","trial_index":4,"time_elapsed":94492,"internal_node_id":"0.0-0.0-1.0-0.3","task_version":"battery-v0.1"},{"view_history":"[{\"page_index\":0,\"viewing_time\":5707.054999998945}]","rt":5707.539999999426,"trial_type":"pit-instructions","trial_index":5,"time_elapsed":100204,"internal_node_id":"0.0-0.0-2.0","task_version":"battery-v0.1"},{"rune":"","hex":"#FFFFF080","correct":-1,"choice":-1,"rt":-1,"accuracy":1,"outcome":"+10","keys":[],"total_keys":0,"block":0,"trial_type":"pit-trial","trial_index":6,"time_elapsed":104210,"internal_node_id":"0.0-0.0-3.0-0.0","task_version":"battery-v0.1"},{"rune":"","hex":"#FFFFF080","correct":-1,"choice":-1,"rt":-1,"accuracy":1,"outcome":"+10","keys":[],"total_keys":0,"block":0,"trial_type":"pit-trial","trial_index":7,"time_elapsed":108217,"internal_node_id":"0.0-0.0-3.0-0.1","task_version":"battery-v0.1"},{"rune":"","hex":"#FFFFF080","correct":-1,"choice":-1,"rt":-1,"accuracy":1,"outcome":"+10","keys":[],"total_keys":0,"block":0,"trial_type":"pit-trial","trial_index":8,"time_elapsed":112223,"internal_node_id":"0.0-0.0-3.0-0.2","task_version":"battery-v0.1"},{"rune":"","hex":"#FFFFF080","correct":-1,"choice":-1,"rt":-1,"accuracy":1,"outcome":"+10","keys":[],"total_keys":0,"block":0,"trial_type":"pit-trial","trial_index":9,"time_elapsed":116227,"internal_node_id":"0.0-0.0-3.0-0.3","task_version":"battery-v0.1"},{"responses":["Press SPACE","Do nothing"],"num_errors":0,"rt":11523.965000000317,"trial_type":"pit-comprehension","trial_index":10,"time_elapsed":127758,"internal_node_id":"0.0-0.0-4.0","task_version":"battery-v0.1"},{"view_history":"[{\"page_index\":0,\"viewing_time\":5531.790000000925},{\"page_index\":1,\"viewing_time\":10791.885000000533},{\"page_index\":2,\"viewing_time\":5903.894999999466},{\"page_index\":3,\"viewing_time\":6143.974999999045},{\"page_index\":4,\"viewing_time\":6352.500000000873},{\"page_index\":5,\"viewing_time\":38574.699999999226},{\"page_index\":6,\"viewing_time\":10416.210000001214},{\"page_index\":7,\"viewing_time\":8311.854999999923},{\"page_index\":8,\"viewing_time\":23943.764999999985},{\"page_index\":9,\"viewing_time\":5127.884999999893},{\"page_index\":10,\"viewing_time\":3863.919999999751}]","rt":124963.01500000119,"trial_type":"pit-instructions","trial_index":11,"time_elapsed":252730,"internal_node_id":"0.0-1.0-0.0","task_version":"battery-v0.1"},{"responses":["+10","+10","True","True"],"num_errors":1,"rt":33813.06999999832,"trial_type":"pit-comprehension","trial_index":12,"time_elapsed":286546,"internal_node_id":"0.0-1.0-1.0","task_version":"battery-v0.1"},{"view_history":"[{\"page_index\":0,\"viewing_time\":3910.729999999632},{\"page_index\":1,\"viewing_time\":4384.029999999213},{\"page_index\":2,\"viewing_time\":4127.865000000398},{\"page_index\":3,\"viewing_time\":4127.829999999434},{\"page_index\":4,\"viewing_time\":2920.055000000517},{\"page_index\":5,\"viewing_time\":7759.770000000601},{\"page_index\":6,\"viewing_time\":25799.839999999676},{\"page_index\":7,\"viewing_time\":5223.969999999099},{\"page_index\":8,\"viewing_time\":5079.975000000559},{\"page_index\":9,\"viewing_time\":8111.629999999423},{\"page_index\":10,\"viewing_time\":2052.01500000112}]","rt":73498.42999999964,"trial_type":"pit-instructions","trial_index":13,"time_elapsed":360053,"internal_node_id":"0.0-1.1-0.1","task_version":"battery-v0.1"},{"responses":["+10","-1","True","True"],"num_errors":0,"rt":20319.99999999971,"trial_type":"pit-comprehension","trial_index":14,"time_elapsed":380378,"internal_node_id":"0.0-1.1-1.1","task_version":"battery-v0.1"},{"view_history":"[{\"page_index\":0,\"viewing_time\":11617.12000000081},{\"page_index\":1,\"viewing_time\":7343.7899999989895}]","rt":18961.375000000815,"trial_type":"pit-instructions","trial_index":15,"time_elapsed":399344,"internal_node_id":"0.0-2.0","task_version":"battery-v0.1"},{"rune":"U","hex":"#3366ff99","correct":32,"choice":32,"rt":594.7150000011316,"accuracy":1,"outcome":"+10","keys":[2096.2949999993434],"total_keys":1,"block":1,"trial":1,"robot":1,"valence":"win","action":"go","sham":0,"trial_type":"pit-trial","trial_index":16,"time_elapsed":402646,"internal_node_id":"0.0-3.0","task_version":"battery-v0.1"},{"rune":"P","hex":"#3366ff99","correct":-1,"choice":32,"rt":673.080000000482,"accuracy":0,"outcome":"+1","keys":[2174.009999998787],"total_keys":1,"block":1,"trial":2,"robot":2,"valence":"win","action":"no-go","sham":0,"trial_type":"pit-trial","trial_index":17,"time_elapsed":406025,"internal_node_id":"0.0-4.0","task_version":"battery-v0.1"},{"rune":"G","hex":"#f73b6a7A","correct":-1,"choice":32,"rt":892.2249999996275,"accuracy":0,"outcome":"-10","keys":[2392.635000000184],"total_keys":1,"block":1,"trial":3,"robot":4,"valence":"lose","action":"no-go","sham":0,"trial_type":"pit-trial","trial_index":18,"time_elapsed":409622,"internal_node_id":"0.0-5.0","task_version":"battery-v0.1"},{"rune":"Q","hex":"#3366ff99","correct":32,"choice":32,"rt":761.7050000008312,"accuracy":1,"outcome":"+10","keys":[2263.409999999567],"total_keys":1,"block":1,"trial":4,"robot":1,"valence":"win","action":"go","sham":0,"trial_type":"pit-trial","trial_index":19,"time_elapsed":413091,"internal_node_id":"0.0-6.0","task_version":"battery-v0.1"},{"rune":"Q","hex":"#3366ff99","correct":32,"choice":32,"rt":671.1649999997462,"accuracy":1,"outcome":"+10","keys":[2172.124999999127],"total_keys":1,"block":1,"trial":5,"robot":1,"valence":"win","action":"go","sham":0,"trial_type":"pit-trial","trial_index":20,"time_elapsed":416466,"internal_node_id":"0.0-7.0","task_version":"battery-v0.1"},{"rune":"G","hex":"#f73b6a7A","correct":-1,"choice":-1,"rt":-1,"accuracy":1,"outcome":"-1","keys":[],"total_keys":0,"block":1,"trial":6,"robot":4,"valence":"lose","action":"no-go","sham":0,"trial_type":"pit-trial","trial_index":21,"time_elapsed":420472,"internal_node_id":"0.0-8.0","task_version":"battery-v0.1"},{"rune":"U","hex":"#3366ff99","correct":32,"choice":32,"rt":679.6250000006985,"accuracy":1,"outcome":"+10","keys":[2180.3650000001653],"total_keys":1,"block":1,"trial":7,"robot":1,"valence":"win","action":"go","sham":0,"trial_type":"pit-trial","trial_index":22,"time_elapsed":423857,"internal_node_id":"0.0-9.0","task_version":"battery-v0.1"},{"rune":"P","hex":"#3366ff99","correct":-1,"choice":32,"rt":734.1950000009383,"accuracy":0,"outcome":"+1","keys":[2234.590000000084],"total_keys":1,"block":1,"trial":8,"robot":2,"valence":"win","action":"no-go","sham":0,"trial_type":"pit-trial","trial_index":23,"time_elapsed":427295,"internal_node_id":"0.0-10.0","task_version":"battery-v0.1"},{"rune":"Q","hex":"#3366ff99","correct":32,"choice":-1,"rt":-1,"accuracy":0,"outcome":"+10","keys":[],"total_keys":0,"block":1,"trial":9,"robot":1,"valence":"win","action":"go","sham":1,"trial_type":"pit-trial","trial_index":24,"time_elapsed":431301,"internal_node_id":"0.0-11.0","task_version":"battery-v0.1"},{"rune":"G","hex":"#f73b6a7A","correct":-1,"choice":32,"rt":1153.655000000028,"accuracy":0,"outcome":"-1","keys":[2654.1199999991804],"total_keys":1,"block":1,"trial":10,"robot":4,"valence":"lose","action":"no-go","sham":1,"trial_type":"pit-trial","trial_index":25,"time_elapsed":435162,"internal_node_id":"0.0-12.0","task_version":"battery-v0.1"},{"rune":"U","hex":"#3366ff99","correct":32,"choice":32,"rt":1144.650000000198,"accuracy":1,"outcome":"+1","keys":[2646.6099999998114],"total_keys":1,"block":1,"trial":11,"robot":1,"valence":"win","action":"go","sham":1,"trial_type":"pit-trial","trial_index":26,"time_elapsed":439013,"internal_node_id":"0.0-13.0","task_version":"battery-v0.1"},{"rune":"P","hex":"#3366ff99","correct":-1,"choice":32,"rt":910.7249999997439,"accuracy":0,"outcome":"+1","keys":[2411.210000000254],"total_keys":1,"block":1,"trial":12,"robot":2,"valence":"win","action":"no-go","sham":0,"trial_type":"pit-trial","trial_index":27,"time_elapsed":442628,"internal_node_id":"0.0-14.0","task_version":"battery-v0.1"},{"rune":"G","hex":"#f73b6a7A","correct":-1,"choice":32,"rt":1027.444999999716,"accuracy":0,"outcome":"-1","keys":[2528.3749999998836],"total_keys":1,"block":1,"trial":13,"robot":4,"valence":"lose","action":"no-go","sham":1,"trial_type":"pit-trial","trial_index":28,"time_elapsed":446362,"internal_node_id":"0.0-15.0","task_version":"battery-v0.1"},{"rune":"U","hex":"#3366ff99","correct":32,"choice":-1,"rt":-1,"accuracy":0,"outcome":"+1","keys":[],"total_keys":0,"block":1,"trial":14,"robot":1,"valence":"win","action":"go","sham":0,"trial_type":"pit-trial","trial_index":29,"time_elapsed":450368,"internal_node_id":"0.0-16.0","task_version":"battery-v0.1"},{"rune":"Q","hex":"#3366ff99","correct":32,"choice":32,"rt":1121.6249999997672,"accuracy":1,"outcome":"+10","keys":[2622.199999999779],"total_keys":1,"block":1,"trial":15,"robot":1,"valence":"win","action":"go","sham":0,"trial_type":"pit-trial","trial_index":30,"time_elapsed":454196,"internal_node_id":"0.0-17.0","task_version":"battery-v0.1"},{"rune":"P","hex":"#3366ff99","correct":-1,"choice":-1,"rt":-1,"accuracy":1,"outcome":"+10","keys":[],"total_keys":0,"block":1,"trial":16,"robot":2,"valence":"win","action":"no-go","sham":0,"trial_type":"pit-trial","trial_index":31,"time_elapsed":458216,"internal_node_id":"0.0-18.0","task_version":"battery-v0.1"},{"rune":"G","hex":"#f73b6a7A","correct":-1,"choice":-1,"rt":-1,"accuracy":1,"outcome":"-1","keys":[],"total_keys":0,"block":1,"trial":17,"robot":4,"valence":"lose","action":"no-go","sham":0,"trial_type":"pit-trial","trial_index":32,"time_elapsed":462223,"internal_node_id":"0.0-19.0","task_version":"battery-v0.1"},{"rune":"U","hex":"#3366ff99","correct":32,"choice":32,"rt":987.2599999998347,"accuracy":1,"outcome":"+10","keys":[2488.1599999989267],"total_keys":1,"block":1,"trial":18,"robot":1,"valence":"win","action":"go","sham":0,"trial_type":"pit-trial","trial_index":33,"time_elapsed":465916,"internal_node_id":"0.0-20.0","task_version":"battery-v0.1"},{"rune":"P","hex":"#3366ff99","correct":-1,"choice":-1,"rt":-1,"accuracy":1,"outcome":"+10","keys":[],"total_keys":0,"block":1,"trial":19,"robot":2,"valence":"win","action":"no-go","sham":0,"trial_type":"pit-trial","trial_index":34,"time_elapsed":469921,"internal_node_id":"0.0-21.0","task_version":"battery-v0.1"},{"rune":"Q","hex":"#3366ff99","correct":32,"choice":32,"rt":972.8349999986822,"accuracy":1,"outcome":"+1","keys":[2474.4549999995506],"total_keys":1,"block":1,"trial":20,"robot":1,"valence":"win","action":"go","sham":1,"trial_type":"pit-trial","trial_index":35,"time_elapsed":473601,"internal_node_id":"0.0-22.0","task_version":"battery-v0.1"},{"rune":"G","hex":"#f73b6a7A","correct":-1,"choice":-1,"rt":-1,"accuracy":1,"outcome":"-10","keys":[],"total_keys":0,"block":1,"trial":21,"robot":4,"valence":"lose","action":"no-go","sham":1,"trial_type":"pit-trial","trial_index":36,"time_elapsed":477607,"internal_node_id":"0.0-23.0","task_version":"battery-v0.1"},{"rune":"U","hex":"#3366ff99","correct":32,"choice":-1,"rt":-1,"accuracy":0,"outcome":"+1","keys":[],"total_keys":0,"block":1,"trial":22,"robot":1,"valence":"win","action":"go","sham":0,"trial_type":"pit-trial","trial_index":37,"time_elapsed":481612,"internal_node_id":"0.0-24.0","task_version":"battery-v0.1"},{"rune":"P","hex":"#3366ff99","correct":-1,"choice":32,"rt":898.6800000002258,"accuracy":0,"outcome":"+1","keys":[2401.475000000559],"total_keys":1,"block":1,"trial":23,"robot":2,"valence":"win","action":"no-go","sham":0,"trial_type":"pit-trial","trial_index":38,"time_elapsed":485217,"internal_node_id":"0.0-25.0","task_version":"battery-v0.1"},{"rune":"Q","hex":"#3366ff99","correct":32,"choice":32,"rt":855.9999999997672,"accuracy":1,"outcome":"+10","keys":[2356.879999999306],"total_keys":1,"block":1,"trial":24,"robot":1,"valence":"win","action":"go","sham":0,"trial_type":"pit-trial","trial_index":39,"time_elapsed":488781,"internal_node_id":"0.0-26.0","task_version":"battery-v0.1"},{"rune":"Q","hex":"#3366ff99","correct":32,"choice":-1,"rt":-1,"accuracy":0,"outcome":"+1","keys":[],"total_keys":0,"block":1,"trial":25,"robot":1,"valence":"win","action":"go","sham":0,"trial_type":"pit-trial","trial_index":40,"time_elapsed":492801,"internal_node_id":"0.0-27.0","task_version":"battery-v0.1"},{"rune":"G","hex":"#f73b6a7A","correct":-1,"choice":32,"rt":1218.305000000284,"accuracy":0,"outcome":"-10","keys":[2719.2149999991525],"total_keys":1,"block":1,"trial":26,"robot":4,"valence":"lose","action":"no-go","sham":0,"trial_type":"pit-trial","trial_index":41,"time_elapsed":496725,"internal_node_id":"0.0-28.0","task_version":"battery-v0.1"},{"rune":"U","hex":"#3366ff99","correct":32,"choice":32,"rt":655.0050000005285,"accuracy":1,"outcome":"+10","keys":[2155.26999999932],"total_keys":1,"block":1,"trial":27,"robot":1,"valence":"win","action":"go","sham":0,"trial_type":"pit-trial","trial_index":42,"time_elapsed":500085,"internal_node_id":"0.0-29.0","task_version":"battery-v0.1"},{"rune":"P","hex":"#3366ff99","correct":-1,"choice":32,"rt":560.3599999995204,"accuracy":0,"outcome":"+1","keys":[2060.6650000009104],"total_keys":1,"block":1,"trial":28,"robot":2,"valence":"win","action":"no-go","sham":0,"trial_type":"pit-trial","trial_index":43,"time_elapsed":503352,"internal_node_id":"0.0-30.0","task_version":"battery-v0.1"},{"rune":"Q","hex":"#3366ff99","correct":32,"choice":32,"rt":672.4049999993294,"accuracy":1,"outcome":"+10","keys":[2173.7400000002235],"total_keys":1,"block":1,"trial":29,"robot":1,"valence":"win","action":"go","sham":0,"trial_type":"pit-trial","trial_index":44,"time_elapsed":506732,"internal_node_id":"0.0-31.0","task_version":"battery-v0.1"},{"rune":"P","hex":"#3366ff99","correct":-1,"choice":-1,"rt":-1,"accuracy":1,"outcome":"+1","keys":[],"total_keys":0,"block":1,"trial":30,"robot":2,"valence":"win","action":"no-go","sham":1,"trial_type":"pit-trial","trial_index":45,"time_elapsed":510743,"internal_node_id":"0.0-32.0","task_version":"battery-v0.1"},{"rune":"G","hex":"#f73b6a7A","correct":-1,"choice":-1,"rt":-1,"accuracy":1,"outcome":"-1","keys":[78.48000000009779],"total_keys":1,"block":1,"trial":31,"robot":4,"valence":"lose","action":"no-go","sham":0,"trial_type":"pit-trial","trial_index":46,"time_elapsed":514748,"internal_node_id":"0.0-33.0","task_version":"battery-v0.1"},{"rune":"U","hex":"#3366ff99","correct":32,"choice":32,"rt":407.1399999993737,"accuracy":1,"outcome":"+10","keys":[1909.02000000095],"total_keys":1,"block":1,"trial":32,"robot":1,"valence":"win","action":"go","sham":0,"trial_type":"pit-trial","trial_index":47,"time_elapsed":517863,"internal_node_id":"0.0-34.0","task_version":"battery-v0.1"},{"rune":"U","hex":"#3366ff99","correct":32,"choice":32,"rt":527.5799999999581,"accuracy":1,"outcome":"+10","keys":[2029.264999999199],"total_keys":1,"block":1,"trial":33,"robot":1,"valence":"win","action":"go","sham":0,"trial_type":"pit-trial","trial_index":48,"time_elapsed":521099,"internal_node_id":"0.0-35.0","task_version":"battery-v0.1"},{"rune":"P","hex":"#3366ff99","correct":-1,"choice":32,"rt":774.9699999985751,"accuracy":0,"outcome":"+1","keys":[2276.5199999994365],"total_keys":1,"block":1,"trial":34,"robot":2,"valence":"win","action":"no-go","sham":0,"trial_type":"pit-trial","trial_index":49,"time_elapsed":524581,"internal_node_id":"0.0-36.0","task_version":"battery-v0.1"},{"rune":"J","hex":"#3366ff99","correct":32,"choice":-1,"rt":-1,"accuracy":0,"outcome":"+1","keys":[],"total_keys":0,"block":1,"trial":35,"robot":1,"valence":"win","action":"go","sham":0,"trial_type":"pit-trial","trial_index":50,"time_elapsed":528587,"internal_node_id":"0.0-37.0","task_version":"battery-v0.1"},{"rune":"G","hex":"#f73b6a7A","correct":-1,"choice":-1,"rt":-1,"accuracy":1,"outcome":"-1","keys":[],"total_keys":0,"block":1,"trial":36,"robot":4,"valence":"lose","action":"no-go","sham":0,"trial_type":"pit-trial","trial_index":51,"time_elapsed":532592,"internal_node_id":"0.0-38.0","task_version":"battery-v0.1"},{"rune":"J","hex":"#3366ff99","correct":32,"choice":32,"rt":510.2650000008289,"accuracy":1,"outcome":"+1","keys":[2011.0449999993434],"total_keys":1,"block":1,"trial":37,"robot":1,"valence":"win","action":"go","sham":1,"trial_type":"pit-trial","trial_index":52,"time_elapsed":535808,"internal_node_id":"0.0-39.0","task_version":"battery-v0.1"},{"rune":"G","hex":"#f73b6a7A","correct":-1,"choice":-1,"rt":-1,"accuracy":1,"outcome":"-1","keys":[],"total_keys":0,"block":1,"trial":38,"robot":4,"valence":"lose","action":"no-go","sham":0,"trial_type":"pit-trial","trial_index":53,"time_elapsed":539813,"internal_node_id":"0.0-40.0","task_version":"battery-v0.1"},{"rune":"U","hex":"#3366ff99","correct":32,"choice":32,"rt":402.6300000004703,"accuracy":1,"outcome":"+10","keys":[1903.2700000007171],"total_keys":1,"block":1,"trial":39,"robot":1,"valence":"win","action":"go","sham":0,"trial_type":"pit-trial","trial_index":54,"time_elapsed":542920,"internal_node_id":"0.0-41.0","task_version":"battery-v0.1"},{"rune":"P","hex":"#3366ff99","correct":-1,"choice":32,"rt":1127.8299999994924,"accuracy":0,"outcome":"+10","keys":[2628.67499999993],"total_keys":1,"block":1,"trial":40,"robot":2,"valence":"win","action":"no-go","sham":1,"trial_type":"pit-trial","trial_index":55,"time_elapsed":546754,"internal_node_id":"0.0-42.0","task_version":"battery-v0.1"},{"rune":"T","hex":"#f73b6a7A","correct":-1,"choice":32,"rt":759.6100000010338,"accuracy":0,"outcome":"-10","keys":[2261.86500000034],"total_keys":1,"block":1,"trial":41,"robot":4,"valence":"lose","action":"no-go","sham":0,"trial_type":"pit-trial","trial_index":56,"time_elapsed":550221,"internal_node_id":"0.0-43.0","task_version":"battery-v0.1"},{"rune":"P","hex":"#3366ff99","correct":-1,"choice":32,"rt":986.0600000028498,"accuracy":0,"outcome":"+1","keys":[2486.5499999996973],"total_keys":1,"block":1,"trial":42,"robot":2,"valence":"win","action":"no-go","sham":0,"trial_type":"pit-trial","trial_index":57,"time_elapsed":553913,"internal_node_id":"0.0-44.0","task_version":"battery-v0.1"},{"rune":"J","hex":"#3366ff99","correct":32,"choice":32,"rt":709.8399999995017,"accuracy":1,"outcome":"+10","keys":[2209.9049999996787],"total_keys":1,"block":1,"trial":43,"robot":1,"valence":"win","action":"go","sham":0,"trial_type":"pit-trial","trial_index":58,"time_elapsed":557328,"internal_node_id":"0.0-45.0","task_version":"battery-v0.1"},{"rune":"L","hex":"#f73b6a7A","correct":32,"choice":32,"rt":648.5500000016764,"accuracy":1,"outcome":"-1","keys":[2151.450000001234],"total_keys":1,"block":1,"trial":44,"robot":3,"valence":"lose","action":"go","sham":0,"trial_type":"pit-trial","trial_index":59,"time_elapsed":560684,"internal_node_id":"0.0-46.0","task_version":"battery-v0.1"},{"rune":"J","hex":"#3366ff99","correct":32,"choice":32,"rt":744.2950000003912,"accuracy":1,"outcome":"+10","keys":[2245.455000000191],"total_keys":1,"block":1,"trial":45,"robot":1,"valence":"win","action":"go","sham":0,"trial_type":"pit-trial","trial_index":60,"time_elapsed":564135,"internal_node_id":"0.0-47.0","task_version":"battery-v0.1"},{"rune":"T","hex":"#f73b6a7A","correct":-1,"choice":32,"rt":837.4850000001024,"accuracy":0,"outcome":"-10","keys":[2338.154999997583],"total_keys":1,"block":1,"trial":46,"robot":4,"valence":"lose","action":"no-go","sham":0,"trial_type":"pit-trial","trial_index":61,"time_elapsed":567677,"internal_node_id":"0.0-48.0","task_version":"battery-v0.1"},{"rune":"P","hex":"#3366ff99","correct":-1,"choice":32,"rt":802.0649999998277,"accuracy":0,"outcome":"+10","keys":[2302.104999998817],"total_keys":1,"block":1,"trial":47,"robot":2,"valence":"win","action":"no-go","sham":1,"trial_type":"pit-trial","trial_index":62,"time_elapsed":571184,"internal_node_id":"0.0-49.0","task_version":"battery-v0.1"},{"rune":"L","hex":"#f73b6a7A","correct":32,"choice":-1,"rt":-1,"accuracy":0,"outcome":"-10","keys":[],"total_keys":0,"block":1,"trial":48,"robot":3,"valence":"lose","action":"go","sham":0,"trial_type":"pit-trial","trial_index":63,"time_elapsed":575190,"internal_node_id":"0.0-50.0","task_version":"battery-v0.1"},{"rune":"J","hex":"#3366ff99","correct":32,"choice":32,"rt":441.9999999990687,"accuracy":1,"outcome":"+10","keys":[1942.560000003199],"total_keys":1,"block":1,"trial":49,"robot":1,"valence":"win","action":"go","sham":0,"trial_type":"pit-trial","trial_index":64,"time_elapsed":578338,"internal_node_id":"0.0-51.0","task_version":"battery-v0.1"},{"rune":"H","hex":"#3366ff99","correct":-1,"choice":-1,"rt":-1,"accuracy":1,"outcome":"+1","keys":[],"total_keys":0,"block":1,"trial":50,"robot":2,"valence":"win","action":"no-go","sham":1,"trial_type":"pit-trial","trial_index":65,"time_elapsed":582343,"internal_node_id":"0.0-52.0","task_version":"battery-v0.1"},{"rune":"T","hex":"#f73b6a7A","correct":-1,"choice":-1,"rt":-1,"accuracy":1,"outcome":"-1","keys":[],"total_keys":0,"block":1,"trial":51,"robot":4,"valence":"lose","action":"no-go","sham":0,"trial_type":"pit-trial","trial_index":66,"time_elapsed":586350,"internal_node_id":"0.0-53.0","task_version":"battery-v0.1"},{"rune":"L","hex":"#f73b6a7A","correct":32,"choice":32,"rt":834.35499999905,"accuracy":1,"outcome":"-10","keys":[2335.8850000003586],"total_keys":1,"block":1,"trial":52,"robot":3,"valence":"lose","action":"go","sham":1,"trial_type":"pit-trial","trial_index":67,"time_elapsed":589891,"internal_node_id":"0.0-54.0","task_version":"battery-v0.1"},{"rune":"T","hex":"#f73b6a7A","correct":-1,"choice":-1,"rt":-1,"accuracy":1,"outcome":"-1","keys":[],"total_keys":0,"block":1,"trial":53,"robot":4,"valence":"lose","action":"no-go","sham":0,"trial_type":"pit-trial","trial_index":68,"time_elapsed":593897,"internal_node_id":"0.0-55.0","task_version":"battery-v0.1"},{"rune":"L","hex":"#f73b6a7A","correct":32,"choice":32,"rt":1020.254999999539,"accuracy":1,"outcome":"-1","keys":[2520.8800000000047],"total_keys":1,"block":1,"trial":54,"robot":3,"valence":"lose","action":"go","sham":0,"trial_type":"pit-trial","trial_index":69,"time_elapsed":597626,"internal_node_id":"0.0-56.0","task_version":"battery-v0.1"},{"rune":"J","hex":"#3366ff99","correct":32,"choice":32,"rt":651.9599999992643,"accuracy":1,"outcome":"+10","keys":[2152.12000000244],"total_keys":1,"block":1,"trial":55,"robot":1,"valence":"win","action":"go","sham":0,"trial_type":"pit-trial","trial_index":70,"time_elapsed":600981,"internal_node_id":"0.0-57.0","task_version":"battery-v0.1"},{"rune":"H","hex":"#3366ff99","correct":-1,"choice":32,"rt":553.2749999983935,"accuracy":0,"outcome":"+1","keys":[2054.519999997923],"total_keys":1,"block":1,"trial":56,"robot":2,"valence":"win","action":"no-go","sham":0,"trial_type":"pit-trial","trial_index":71,"time_elapsed":604240,"internal_node_id":"0.0-58.0","task_version":"battery-v0.1"},{"rune":"H","hex":"#3366ff99","correct":-1,"choice":-1,"rt":-1,"accuracy":1,"outcome":"+10","keys":[2988.5450000001583],"total_keys":1,"block":1,"trial":57,"robot":2,"valence":"win","action":"no-go","sham":0,"trial_type":"pit-trial","trial_index":72,"time_elapsed":608245,"internal_node_id":"0.0-59.0","task_version":"battery-v0.1"},{"rune":"J","hex":"#3366ff99","correct":32,"choice":32,"rt":735.0750000005355,"accuracy":1,"outcome":"+10","keys":[2235.1699999999255],"total_keys":1,"block":1,"trial":58,"robot":1,"valence":"win","action":"go","sham":0,"trial_type":"pit-trial","trial_index":73,"time_elapsed":611687,"internal_node_id":"0.0-60.0","task_version":"battery-v0.1"},{"rune":"T","hex":"#f73b6a7A","correct":-1,"choice":32,"rt":357.76500000059605,"accuracy":0,"outcome":"-10","keys":[1858.3649999963818],"total_keys":1,"block":1,"trial":59,"robot":4,"valence":"lose","action":"no-go","sham":0,"trial_type":"pit-trial","trial_index":74,"time_elapsed":614750,"internal_node_id":"0.0-61.0","task_version":"battery-v0.1"},{"rune":"L","hex":"#f73b6a7A","correct":32,"choice":-1,"rt":-1,"accuracy":0,"outcome":"-1","keys":[],"total_keys":0,"block":1,"trial":60,"robot":3,"valence":"lose","action":"go","sham":1,"trial_type":"pit-trial","trial_index":75,"time_elapsed":618757,"internal_node_id":"0.0-62.0","task_version":"battery-v0.1"},{"rune":"J","hex":"#3366ff99","correct":32,"choice":-1,"rt":-1,"accuracy":0,"outcome":"+10","keys":[],"total_keys":0,"block":1,"trial":61,"robot":1,"valence":"win","action":"go","sham":1,"trial_type":"pit-trial","trial_index":76,"time_elapsed":622763,"internal_node_id":"0.0-63.0","task_version":"battery-v0.1"},{"rune":"T","hex":"#f73b6a7A","correct":-1,"choice":-1,"rt":-1,"accuracy":1,"outcome":"-1","keys":[],"total_keys":0,"block":1,"trial":62,"robot":4,"valence":"lose","action":"no-go","sham":0,"trial_type":"pit-trial","trial_index":77,"time_elapsed":626768,"internal_node_id":"0.0-64.0","task_version":"battery-v0.1"},{"rune":"L","hex":"#f73b6a7A","correct":32,"choice":-1,"rt":-1,"accuracy":0,"outcome":"-10","keys":[],"total_keys":0,"block":1,"trial":63,"robot":3,"valence":"lose","action":"go","sham":0,"trial_type":"pit-trial","trial_index":78,"time_elapsed":630773,"internal_node_id":"0.0-65.0","task_version":"battery-v0.1"},{"rune":"H","hex":"#3366ff99","correct":-1,"choice":32,"rt":558.1749999983003,"accuracy":0,"outcome":"+1","keys":[2059.0400000001537],"total_keys":1,"block":1,"trial":64,"robot":2,"valence":"win","action":"no-go","sham":0,"trial_type":"pit-trial","trial_index":79,"time_elapsed":634036,"internal_node_id":"0.0-66.0","task_version":"battery-v0.1"},{"rune":"L","hex":"#f73b6a7A","correct":32,"choice":-1,"rt":-1,"accuracy":0,"outcome":"-1","keys":[],"total_keys":0,"block":1,"trial":65,"robot":3,"valence":"lose","action":"go","sham":1,"trial_type":"pit-trial","trial_index":80,"time_elapsed":638041,"internal_node_id":"0.0-67.0","task_version":"battery-v0.1"},{"rune":"J","hex":"#3366ff99","correct":32,"choice":32,"rt":384.2399999994086,"accuracy":1,"outcome":"+10","keys":[1885.115000000922],"total_keys":1,"block":1,"trial":66,"robot":1,"valence":"win","action":"go","sham":0,"trial_type":"pit-trial","trial_index":81,"time_elapsed":641132,"internal_node_id":"0.0-68.0","task_version":"battery-v0.1"},{"rune":"T","hex":"#f73b6a7A","correct":-1,"choice":-1,"rt":-1,"accuracy":1,"outcome":"-1","keys":[],"total_keys":0,"block":1,"trial":67,"robot":4,"valence":"lose","action":"no-go","sham":0,"trial_type":"pit-trial","trial_index":82,"time_elapsed":645137,"internal_node_id":"0.0-69.0","task_version":"battery-v0.1"},{"rune":"H","hex":"#3366ff99","correct":-1,"choice":32,"rt":78.14000000141095,"accuracy":0,"outcome":"+10","keys":[1584.9449999986682],"total_keys":1,"block":1,"trial":68,"robot":2,"valence":"win","action":"no-go","sham":1,"trial_type":"pit-trial","trial_index":83,"time_elapsed":647927,"internal_node_id":"0.0-70.0","task_version":"battery-v0.1"},{"rune":"T","hex":"#f73b6a7A","correct":-1,"choice":-1,"rt":-1,"accuracy":1,"outcome":"-1","keys":[],"total_keys":0,"block":1,"trial":69,"robot":4,"valence":"lose","action":"no-go","sham":0,"trial_type":"pit-trial","trial_index":84,"time_elapsed":651933,"internal_node_id":"0.0-71.0","task_version":"battery-v0.1"},{"rune":"J","hex":"#3366ff99","correct":32,"choice":32,"rt":538.7449999980163,"accuracy":1,"outcome":"+10","keys":[2040.615000001737],"total_keys":1,"block":1,"trial":70,"robot":1,"valence":"win","action":"go","sham":0,"trial_type":"pit-trial","trial_index":85,"time_elapsed":655178,"internal_node_id":"0.0-72.0","task_version":"battery-v0.1"},{"rune":"L","hex":"#f73b6a7A","correct":32,"choice":-1,"rt":-1,"accuracy":0,"outcome":"-10","keys":[3049.6800000001676],"total_keys":1,"block":1,"trial":71,"robot":3,"valence":"lose","action":"go","sham":0,"trial_type":"pit-trial","trial_index":86,"time_elapsed":659185,"internal_node_id":"0.0-73.0","task_version":"battery-v0.1"},{"rune":"H","hex":"#3366ff99","correct":-1,"choice":32,"rt":829.1800000006333,"accuracy":0,"outcome":"+10","keys":[2329.795000001439],"total_keys":1,"block":1,"trial":72,"robot":2,"valence":"win","action":"no-go","sham":1,"trial_type":"pit-trial","trial_index":87,"time_elapsed":662726,"internal_node_id":"0.0-74.0","task_version":"battery-v0.1"},{"rune":"H","hex":"#3366ff99","correct":-1,"choice":-1,"rt":-1,"accuracy":1,"outcome":"+10","keys":[2886.1999999971595],"total_keys":1,"block":1,"trial":73,"robot":2,"valence":"win","action":"no-go","sham":0,"trial_type":"pit-trial","trial_index":88,"time_elapsed":666732,"internal_node_id":"0.0-75.0","task_version":"battery-v0.1"},{"rune":"N","hex":"#f73b6a7A","correct":32,"choice":-1,"rt":-1,"accuracy":0,"outcome":"-1","keys":[],"total_keys":0,"block":1,"trial":74,"robot":3,"valence":"lose","action":"go","sham":1,"trial_type":"pit-trial","trial_index":89,"time_elapsed":670739,"internal_node_id":"0.0-76.0","task_version":"battery-v0.1"},{"rune":"T","hex":"#f73b6a7A","correct":-1,"choice":32,"rt":985.1999999991385,"accuracy":0,"outcome":"-10","keys":[2486.590000000433],"total_keys":1,"block":1,"trial":75,"robot":4,"valence":"lose","action":"no-go","sham":0,"trial_type":"pit-trial","trial_index":90,"time_elapsed":674430,"internal_node_id":"0.0-77.0","task_version":"battery-v0.1"},{"rune":"J","hex":"#3366ff99","correct":32,"choice":32,"rt":647.8949999982724,"accuracy":1,"outcome":"+10","keys":[2148.0950000004377],"total_keys":1,"block":1,"trial":76,"robot":1,"valence":"win","action":"go","sham":0,"trial_type":"pit-trial","trial_index":91,"time_elapsed":677783,"internal_node_id":"0.0-78.0","task_version":"battery-v0.1"},{"rune":"T","hex":"#f73b6a7A","correct":-1,"choice":-1,"rt":-1,"accuracy":1,"outcome":"-1","keys":[],"total_keys":0,"block":1,"trial":77,"robot":4,"valence":"lose","action":"no-go","sham":0,"trial_type":"pit-trial","trial_index":92,"time_elapsed":681792,"internal_node_id":"0.0-79.0","task_version":"battery-v0.1"},{"rune":"J","hex":"#3366ff99","correct":32,"choice":32,"rt":701.5900000005495,"accuracy":1,"outcome":"+10","keys":[2203.639999999781],"total_keys":1,"block":1,"trial":78,"robot":1,"valence":"win","action":"go","sham":0,"trial_type":"pit-trial","trial_index":93,"time_elapsed":685200,"internal_node_id":"0.0-80.0","task_version":"battery-v0.1"},{"rune":"H","hex":"#3366ff99","correct":-1,"choice":32,"rt":723.7500000010477,"accuracy":0,"outcome":"+1","keys":[2224.569999998552],"total_keys":1,"block":1,"trial":79,"robot":2,"valence":"win","action":"no-go","sham":0,"trial_type":"pit-trial","trial_index":94,"time_elapsed":688629,"internal_node_id":"0.0-81.0","task_version":"battery-v0.1"},{"rune":"N","hex":"#f73b6a7A","correct":32,"choice":-1,"rt":-1,"accuracy":0,"outcome":"-10","keys":[],"total_keys":0,"block":1,"trial":80,"robot":3,"valence":"lose","action":"go","sham":0,"trial_type":"pit-trial","trial_index":95,"time_elapsed":692634,"internal_node_id":"0.0-82.0","task_version":"battery-v0.1"},{"rune":"H","hex":"#3366ff99","correct":-1,"choice":32,"rt":707.3950000012992,"accuracy":0,"outcome":"+1","keys":[2208.3199999978533],"total_keys":1,"block":1,"trial":81,"robot":2,"valence":"win","action":"no-go","sham":0,"trial_type":"pit-trial","trial_index":96,"time_elapsed":696047,"internal_node_id":"0.0-83.0","task_version":"battery-v0.1"},{"rune":"N","hex":"#f73b6a7A","correct":32,"choice":-1,"rt":-1,"accuracy":0,"outcome":"-1","keys":[2815.105000001495],"total_keys":1,"block":1,"trial":82,"robot":3,"valence":"lose","action":"go","sham":1,"trial_type":"pit-trial","trial_index":97,"time_elapsed":700054,"internal_node_id":"0.0-84.0","task_version":"battery-v0.1"},{"rune":"X","hex":"#f73b6a7A","correct":32,"choice":32,"rt":872.2049999997253,"accuracy":1,"outcome":"-1","keys":[2373.864999997779],"total_keys":1,"block":1,"trial":83,"robot":3,"valence":"lose","action":"go","sham":0,"trial_type":"pit-trial","trial_index":98,"time_elapsed":703631,"internal_node_id":"0.0-85.0","task_version":"battery-v0.1"},{"rune":"T","hex":"#f73b6a7A","correct":-1,"choice":32,"rt":922.9649999979883,"accuracy":0,"outcome":"-10","keys":[2423.1799999979557],"total_keys":1,"block":1,"trial":84,"robot":4,"valence":"lose","action":"no-go","sham":0,"trial_type":"pit-trial","trial_index":99,"time_elapsed":707260,"internal_node_id":"0.0-86.0","task_version":"battery-v0.1"},{"rune":"T","hex":"#f73b6a7A","correct":-1,"choice":32,"rt":1135.135000000475,"accuracy":0,"outcome":"-10","keys":[2636.1749999996973],"total_keys":1,"block":1,"trial":85,"robot":4,"valence":"lose","action":"no-go","sham":0,"trial_type":"pit-trial","trial_index":100,"time_elapsed":711101,"internal_node_id":"0.0-87.0","task_version":"battery-v0.1"},{"rune":"H","hex":"#3366ff99","correct":-1,"choice":32,"rt":742.0749999982072,"accuracy":0,"outcome":"+1","keys":[2242.180000001099],"total_keys":1,"block":1,"trial":86,"robot":2,"valence":"win","action":"no-go","sham":0,"trial_type":"pit-trial","trial_index":101,"time_elapsed":714548,"internal_node_id":"0.0-88.0","task_version":"battery-v0.1"},{"rune":"X","hex":"#f73b6a7A","correct":32,"choice":32,"rt":1175.905000000028,"accuracy":1,"outcome":"-10","keys":[2675.955000002403],"total_keys":1,"block":1,"trial":87,"robot":3,"valence":"lose","action":"go","sham":1,"trial_type":"pit-trial","trial_index":102,"time_elapsed":718427,"internal_node_id":"0.0-89.0","task_version":"battery-v0.1"},{"rune":"N","hex":"#f73b6a7A","correct":32,"choice":-1,"rt":-1,"accuracy":0,"outcome":"-1","keys":[],"total_keys":0,"block":1,"trial":88,"robot":3,"valence":"lose","action":"go","sham":1,"trial_type":"pit-trial","trial_index":103,"time_elapsed":722433,"internal_node_id":"0.0-90.0","task_version":"battery-v0.1"},{"rune":"D","hex":"#f73b6a7A","correct":-1,"choice":-1,"rt":-1,"accuracy":1,"outcome":"-1","keys":[],"total_keys":0,"block":1,"trial":89,"robot":4,"valence":"lose","action":"no-go","sham":0,"trial_type":"pit-trial","trial_index":104,"time_elapsed":726438,"internal_node_id":"0.0-91.0","task_version":"battery-v0.1"},{"rune":"W","hex":"#3366ff99","correct":-1,"choice":32,"rt":673.3499999972992,"accuracy":0,"outcome":"+1","keys":[2173.3600000006845],"total_keys":1,"block":1,"trial":90,"robot":2,"valence":"win","action":"no-go","sham":0,"trial_type":"pit-trial","trial_index":105,"time_elapsed":729816,"internal_node_id":"0.0-92.0","task_version":"battery-v0.1"},{"rune":"X","hex":"#f73b6a7A","correct":32,"choice":-1,"rt":-1,"accuracy":0,"outcome":"-10","keys":[],"total_keys":0,"block":1,"trial":91,"robot":3,"valence":"lose","action":"go","sham":0,"trial_type":"pit-trial","trial_index":106,"time_elapsed":733823,"internal_node_id":"0.0-93.0","task_version":"battery-v0.1"},{"rune":"N","hex":"#f73b6a7A","correct":32,"choice":32,"rt":729.525000002468,"accuracy":1,"outcome":"-1","keys":[2230.2999999992317],"total_keys":1,"block":1,"trial":92,"robot":3,"valence":"lose","action":"go","sham":0,"trial_type":"pit-trial","trial_index":107,"time_elapsed":737258,"internal_node_id":"0.0-94.0","task_version":"battery-v0.1"},{"rune":"W","hex":"#3366ff99","correct":-1,"choice":32,"rt":523.4049999999115,"accuracy":0,"outcome":"+1","keys":[2024.374999997206],"total_keys":1,"block":1,"trial":93,"robot":2,"valence":"win","action":"no-go","sham":0,"trial_type":"pit-trial","trial_index":108,"time_elapsed":740487,"internal_node_id":"0.0-95.0","task_version":"battery-v0.1"},{"rune":"X","hex":"#f73b6a7A","correct":32,"choice":-1,"rt":-1,"accuracy":0,"outcome":"-10","keys":[],"total_keys":0,"block":1,"trial":94,"robot":3,"valence":"lose","action":"go","sham":0,"trial_type":"pit-trial","trial_index":109,"time_elapsed":744505,"internal_node_id":"0.0-96.0","task_version":"battery-v0.1"},{"rune":"N","hex":"#f73b6a7A","correct":32,"choice":-1,"rt":-1,"accuracy":0,"outcome":"-10","keys":[],"total_keys":0,"block":1,"trial":95,"robot":3,"valence":"lose","action":"go","sham":0,"trial_type":"pit-trial","trial_index":110,"time_elapsed":748512,"internal_node_id":"0.0-97.0","task_version":"battery-v0.1"},{"rune":"D","hex":"#f73b6a7A","correct":-1,"choice":32,"rt":868.9400000002934,"accuracy":0,"outcome":"-10","keys":[2369.7399999982445],"total_keys":1,"block":1,"trial":96,"robot":4,"valence":"lose","action":"no-go","sham":0,"trial_type":"pit-trial","trial_index":111,"time_elapsed":752086,"internal_node_id":"0.0-98.0","task_version":"battery-v0.1"},{"rune":"X","hex":"#f73b6a7A","correct":32,"choice":-1,"rt":-1,"accuracy":0,"outcome":"-10","keys":[],"total_keys":0,"block":1,"trial":97,"robot":3,"valence":"lose","action":"go","sham":0,"trial_type":"pit-trial","trial_index":112,"time_elapsed":756091,"internal_node_id":"0.0-99.0","task_version":"battery-v0.1"},{"rune":"D","hex":"#f73b6a7A","correct":-1,"choice":32,"rt":540.6050000019604,"accuracy":0,"outcome":"-1","keys":[2040.6550000007264],"total_keys":1,"block":1,"trial":98,"robot":4,"valence":"lose","action":"no-go","sham":1,"trial_type":"pit-trial","trial_index":113,"time_elapsed":759337,"internal_node_id":"0.0-100.0","task_version":"battery-v0.1"},{"rune":"W","hex":"#3366ff99","correct":-1,"choice":32,"rt":791.634999997681,"accuracy":0,"outcome":"+1","keys":[2292.539999998524],"total_keys":1,"block":1,"trial":99,"robot":2,"valence":"win","action":"no-go","sham":0,"trial_type":"pit-trial","trial_index":114,"time_elapsed":762835,"internal_node_id":"0.0-101.0","task_version":"battery-v0.1"},{"rune":"N","hex":"#f73b6a7A","correct":32,"choice":32,"rt":875.4499999996042,"accuracy":1,"outcome":"-10","keys":[2376.714999998454],"total_keys":1,"block":1,"trial":100,"robot":3,"valence":"lose","action":"go","sham":1,"trial_type":"pit-trial","trial_index":115,"time_elapsed":766418,"internal_node_id":"0.0-102.0","task_version":"battery-v0.1"},{"rune":"D","hex":"#f73b6a7A","correct":-1,"choice":-1,"rt":-1,"accuracy":1,"outcome":"-1","keys":[],"total_keys":0,"block":1,"trial":101,"robot":4,"valence":"lose","action":"no-go","sham":0,"trial_type":"pit-trial","trial_index":116,"time_elapsed":770422,"internal_node_id":"0.0-103.0","task_version":"battery-v0.1"},{"rune":"N","hex":"#f73b6a7A","correct":32,"choice":32,"rt":651.8299999989104,"accuracy":1,"outcome":"-1","keys":[2152.055000002263],"total_keys":1,"block":1,"trial":102,"robot":3,"valence":"lose","action":"go","sham":0,"trial_type":"pit-trial","trial_index":117,"time_elapsed":773780,"internal_node_id":"0.0-104.0","task_version":"battery-v0.1"},{"rune":"X","hex":"#f73b6a7A","correct":32,"choice":32,"rt":836.4849999998696,"accuracy":1,"outcome":"-1","keys":[2338.035000000731],"total_keys":1,"block":1,"trial":103,"robot":3,"valence":"lose","action":"go","sham":0,"trial_type":"pit-trial","trial_index":118,"time_elapsed":777328,"internal_node_id":"0.0-105.0","task_version":"battery-v0.1"},{"rune":"W","hex":"#3366ff99","correct":-1,"choice":32,"rt":717.7549999979092,"accuracy":0,"outcome":"+1","keys":[2221.4099999982864],"total_keys":1,"block":1,"trial":104,"robot":2,"valence":"win","action":"no-go","sham":0,"trial_type":"pit-trial","trial_index":119,"time_elapsed":780754,"internal_node_id":"0.0-106.0","task_version":"battery-v0.1"},{"rune":"D","hex":"#f73b6a7A","correct":-1,"choice":32,"rt":795.7800000003772,"accuracy":0,"outcome":"-1","keys":[2296.889999997802],"total_keys":1,"block":1,"trial":105,"robot":4,"valence":"lose","action":"no-go","sham":1,"trial_type":"pit-trial","trial_index":120,"time_elapsed":784256,"internal_node_id":"0.0-107.0","task_version":"battery-v0.1"},{"rune":"N","hex":"#f73b6a7A","correct":32,"choice":-1,"rt":-1,"accuracy":0,"outcome":"-10","keys":[],"total_keys":0,"block":1,"trial":106,"robot":3,"valence":"lose","action":"go","sham":0,"trial_type":"pit-trial","trial_index":121,"time_elapsed":788262,"internal_node_id":"0.0-108.0","task_version":"battery-v0.1"},{"rune":"X","hex":"#f73b6a7A","correct":32,"choice":-1,"rt":-1,"accuracy":0,"outcome":"-10","keys":[2873.0649999997113],"total_keys":1,"block":1,"trial":107,"robot":3,"valence":"lose","action":"go","sham":0,"trial_type":"pit-trial","trial_index":122,"time_elapsed":792267,"internal_node_id":"0.0-109.0","task_version":"battery-v0.1"},{"rune":"W","hex":"#3366ff99","correct":-1,"choice":-1,"rt":-1,"accuracy":1,"outcome":"+10","keys":[],"total_keys":0,"block":1,"trial":108,"robot":2,"valence":"win","action":"no-go","sham":0,"trial_type":"pit-trial","trial_index":123,"time_elapsed":796274,"internal_node_id":"0.0-110.0","task_version":"battery-v0.1"},{"rune":"D","hex":"#f73b6a7A","correct":-1,"choice":-1,"rt":-1,"accuracy":1,"outcome":"-1","keys":[],"total_keys":0,"block":1,"trial":109,"robot":4,"valence":"lose","action":"no-go","sham":0,"trial_type":"pit-trial","trial_index":124,"time_elapsed":800279,"internal_node_id":"0.0-111.0","task_version":"battery-v0.1"},{"rune":"W","hex":"#3366ff99","correct":-1,"choice":-1,"rt":-1,"accuracy":1,"outcome":"+1","keys":[],"total_keys":0,"block":1,"trial":110,"robot":2,"valence":"win","action":"no-go","sham":1,"trial_type":"pit-trial","trial_index":125,"time_elapsed":804294,"internal_node_id":"0.0-112.0","task_version":"battery-v0.1"},{"rune":"X","hex":"#f73b6a7A","correct":32,"choice":-1,"rt":-1,"accuracy":0,"outcome":"-1","keys":[],"total_keys":0,"block":1,"trial":111,"robot":3,"valence":"lose","action":"go","sham":1,"trial_type":"pit-trial","trial_index":126,"time_elapsed":808301,"internal_node_id":"0.0-113.0","task_version":"battery-v0.1"},{"rune":"N","hex":"#f73b6a7A","correct":32,"choice":32,"rt":798.9099999977043,"accuracy":1,"outcome":"-10","keys":[2300.82499999844],"total_keys":1,"block":1,"trial":112,"robot":3,"valence":"lose","action":"go","sham":1,"trial_type":"pit-trial","trial_index":127,"time_elapsed":811806,"internal_node_id":"0.0-114.0","task_version":"battery-v0.1"},{"rune":"D","hex":"#f73b6a7A","correct":-1,"choice":-1,"rt":-1,"accuracy":1,"outcome":"-1","keys":[2842.4599999998463],"total_keys":1,"block":1,"trial":113,"robot":4,"valence":"lose","action":"no-go","sham":0,"trial_type":"pit-trial","trial_index":128,"time_elapsed":815811,"internal_node_id":"0.0-115.0","task_version":"battery-v0.1"},{"rune":"W","hex":"#3366ff99","correct":-1,"choice":32,"rt":862.7950000009732,"accuracy":0,"outcome":"+1","keys":[2363.084999997169],"total_keys":1,"block":1,"trial":114,"robot":2,"valence":"win","action":"no-go","sham":0,"trial_type":"pit-trial","trial_index":129,"time_elapsed":819382,"internal_node_id":"0.0-116.0","task_version":"battery-v0.1"},{"rune":"X","hex":"#f73b6a7A","correct":32,"choice":-1,"rt":-1,"accuracy":0,"outcome":"-10","keys":[],"total_keys":0,"block":1,"trial":115,"robot":3,"valence":"lose","action":"go","sham":0,"trial_type":"pit-trial","trial_index":130,"time_elapsed":823391,"internal_node_id":"0.0-117.0","task_version":"battery-v0.1"},{"rune":"N","hex":"#f73b6a7A","correct":32,"choice":-1,"rt":-1,"accuracy":0,"outcome":"-10","keys":[],"total_keys":0,"block":1,"trial":116,"robot":3,"valence":"lose","action":"go","sham":0,"trial_type":"pit-trial","trial_index":131,"time_elapsed":827396,"internal_node_id":"0.0-118.0","task_version":"battery-v0.1"},{"rune":"N","hex":"#f73b6a7A","correct":32,"choice":32,"rt":906.9349999991246,"accuracy":1,"outcome":"-10","keys":[2407.4250000012107],"total_keys":1,"block":1,"trial":117,"robot":3,"valence":"lose","action":"go","sham":1,"trial_type":"pit-trial","trial_index":132,"time_elapsed":831008,"internal_node_id":"0.0-119.0","task_version":"battery-v0.1"},{"rune":"W","hex":"#3366ff99","correct":-1,"choice":32,"rt":835.4099999996834,"accuracy":0,"outcome":"+1","keys":[2335.779999997583],"total_keys":1,"block":1,"trial":118,"robot":2,"valence":"win","action":"no-go","sham":0,"trial_type":"pit-trial","trial_index":133,"time_elapsed":834546,"internal_node_id":"0.0-120.0","task_version":"battery-v0.1"},{"rune":"D","hex":"#f73b6a7A","correct":-1,"choice":-1,"rt":-1,"accuracy":1,"outcome":"-1","keys":[],"total_keys":0,"block":1,"trial":119,"robot":4,"valence":"lose","action":"no-go","sham":0,"trial_type":"pit-trial","trial_index":134,"time_elapsed":838552,"internal_node_id":"0.0-121.0","task_version":"battery-v0.1"},{"rune":"X","hex":"#f73b6a7A","correct":32,"choice":-1,"rt":-1,"accuracy":0,"outcome":"-1","keys":[],"total_keys":0,"block":1,"trial":120,"robot":3,"valence":"lose","action":"go","sham":1,"trial_type":"pit-trial","trial_index":135,"time_elapsed":842557,"internal_node_id":"0.0-122.0","task_version":"battery-v0.1"},{"view_history":"[{\"page_index\":0,\"viewing_time\":32557.29000000062},{\"page_index\":1,\"viewing_time\":6291.639999999432}]","rt":38849.46000000124,"trial_type":"pit-instructions","trial_index":136,"time_elapsed":881410,"internal_node_id":"0.0-123.0","task_version":"battery-v0.1"},{"rune":"S","hex":"#f73b6a7A","correct":-1,"choice":-1,"rt":-1,"accuracy":1,"outcome":"-1","keys":[],"total_keys":0,"block":2,"trial":121,"robot":4,"valence":"lose","action":"no-go","sham":0,"trial_type":"pit-trial","trial_index":137,"time_elapsed":885417,"internal_node_id":"0.0-124.0","task_version":"battery-v0.1"},{"rune":"C","hex":"#3366ff99","correct":32,"choice":-1,"rt":-1,"accuracy":0,"outcome":"+10","keys":[],"total_keys":0,"block":2,"trial":122,"robot":1,"valence":"win","action":"go","sham":1,"trial_type":"pit-trial","trial_index":138,"time_elapsed":889422,"internal_node_id":"0.0-125.0","task_version":"battery-v0.1"},{"rune":"Y","hex":"#f73b6a7A","correct":-1,"choice":32,"rt":909.6149999968475,"accuracy":0,"outcome":"-10","keys":[2409.8049999992363],"total_keys":1,"block":2,"trial":123,"robot":4,"valence":"lose","action":"no-go","sham":0,"trial_type":"pit-trial","trial_index":139,"time_elapsed":893036,"internal_node_id":"0.0-126.0","task_version":"battery-v0.1"},{"rune":"F","hex":"#3366ff99","correct":-1,"choice":-1,"rt":-1,"accuracy":1,"outcome":"+1","keys":[],"total_keys":0,"block":2,"trial":124,"robot":2,"valence":"win","action":"no-go","sham":1,"trial_type":"pit-trial","trial_index":140,"time_elapsed":897041,"internal_node_id":"0.0-127.0","task_version":"battery-v0.1"},{"rune":"F","hex":"#3366ff99","correct":-1,"choice":32,"rt":572.2100000020582,"accuracy":0,"outcome":"+1","keys":[2072.4150000023656],"total_keys":1,"block":2,"trial":125,"robot":2,"valence":"win","action":"no-go","sham":0,"trial_type":"pit-trial","trial_index":141,"time_elapsed":900317,"internal_node_id":"0.0-128.0","task_version":"battery-v0.1"},{"rune":"S","hex":"#f73b6a7A","correct":-1,"choice":-1,"rt":-1,"accuracy":1,"outcome":"-1","keys":[],"total_keys":0,"block":2,"trial":126,"robot":4,"valence":"lose","action":"no-go","sham":0,"trial_type":"pit-trial","trial_index":142,"time_elapsed":904321,"internal_node_id":"0.0-129.0","task_version":"battery-v0.1"},{"rune":"Y","hex":"#f73b6a7A","correct":-1,"choice":32,"rt":543.4299999978393,"accuracy":0,"outcome":"-10","keys":[2043.5199999992037],"total_keys":1,"block":2,"trial":127,"robot":4,"valence":"lose","action":"no-go","sham":0,"trial_type":"pit-trial","trial_index":143,"time_elapsed":907569,"internal_node_id":"0.0-130.0","task_version":"battery-v0.1"},{"rune":"C","hex":"#3366ff99","correct":32,"choice":-1,"rt":-1,"accuracy":0,"outcome":"+1","keys":[],"total_keys":0,"block":2,"trial":128,"robot":1,"valence":"win","action":"go","sham":0,"trial_type":"pit-trial","trial_index":144,"time_elapsed":911578,"internal_node_id":"0.0-131.0","task_version":"battery-v0.1"},{"rune":"F","hex":"#3366ff99","correct":-1,"choice":32,"rt":650.144999999553,"accuracy":0,"outcome":"+1","keys":[2152.040000000852],"total_keys":1,"block":2,"trial":129,"robot":2,"valence":"win","action":"no-go","sham":0,"trial_type":"pit-trial","trial_index":145,"time_elapsed":914938,"internal_node_id":"0.0-132.0","task_version":"battery-v0.1"},{"rune":"S","hex":"#f73b6a7A","correct":-1,"choice":32,"rt":926.034999996773,"accuracy":0,"outcome":"-10","keys":[2426.7200000031153],"total_keys":1,"block":2,"trial":130,"robot":4,"valence":"lose","action":"no-go","sham":0,"trial_type":"pit-trial","trial_index":146,"time_elapsed":918570,"internal_node_id":"0.0-133.0","task_version":"battery-v0.1"},{"rune":"C","hex":"#3366ff99","correct":32,"choice":-1,"rt":-1,"accuracy":0,"outcome":"+1","keys":[],"total_keys":0,"block":2,"trial":131,"robot":1,"valence":"win","action":"go","sham":0,"trial_type":"pit-trial","trial_index":147,"time_elapsed":922575,"internal_node_id":"0.0-134.0","task_version":"battery-v0.1"},{"rune":"Y","hex":"#f73b6a7A","correct":-1,"choice":-1,"rt":-1,"accuracy":1,"outcome":"-10","keys":[],"total_keys":0,"block":2,"trial":132,"robot":4,"valence":"lose","action":"no-go","sham":1,"trial_type":"pit-trial","trial_index":148,"time_elapsed":926580,"internal_node_id":"0.0-135.0","task_version":"battery-v0.1"},{"rune":"S","hex":"#f73b6a7A","correct":-1,"choice":32,"rt":1202.349999999511,"accuracy":0,"outcome":"-10","keys":[2703.2150000013644],"total_keys":1,"block":2,"trial":133,"robot":4,"valence":"lose","action":"no-go","sham":0,"trial_type":"pit-trial","trial_index":149,"time_elapsed":930488,"internal_node_id":"0.0-136.0","task_version":"battery-v0.1"},{"rune":"Y","hex":"#f73b6a7A","correct":-1,"choice":32,"rt":1274.5099999993108,"accuracy":0,"outcome":"-10","keys":[2775.955000001006],"total_keys":1,"block":2,"trial":134,"robot":4,"valence":"lose","action":"no-go","sham":0,"trial_type":"pit-trial","trial_index":150,"time_elapsed":934467,"internal_node_id":"0.0-137.0","task_version":"battery-v0.1"},{"rune":"C","hex":"#3366ff99","correct":32,"choice":32,"rt":443.1399999994319,"accuracy":1,"outcome":"+1","keys":[1944.6549999993294],"total_keys":1,"block":2,"trial":135,"robot":1,"valence":"win","action":"go","sham":1,"trial_type":"pit-trial","trial_index":151,"time_elapsed":937616,"internal_node_id":"0.0-138.0","task_version":"battery-v0.1"},{"rune":"F","hex":"#3366ff99","correct":-1,"choice":32,"rt":726.8149999981979,"accuracy":0,"outcome":"+1","keys":[2228.2500000001164],"total_keys":1,"block":2,"trial":136,"robot":2,"valence":"win","action":"no-go","sham":0,"trial_type":"pit-trial","trial_index":152,"time_elapsed":941048,"internal_node_id":"0.0-139.0","task_version":"battery-v0.1"},{"rune":"F","hex":"#3366ff99","correct":-1,"choice":-1,"rt":-1,"accuracy":1,"outcome":"+10","keys":[],"total_keys":0,"block":2,"trial":137,"robot":2,"valence":"win","action":"no-go","sham":0,"trial_type":"pit-trial","trial_index":153,"time_elapsed":945055,"internal_node_id":"0.0-140.0","task_version":"battery-v0.1"},{"rune":"C","hex":"#3366ff99","correct":32,"choice":32,"rt":950.4000000015367,"accuracy":1,"outcome":"+10","keys":[2451.020000000368],"total_keys":1,"block":2,"trial":138,"robot":1,"valence":"win","action":"go","sham":0,"trial_type":"pit-trial","trial_index":154,"time_elapsed":948712,"internal_node_id":"0.0-141.0","task_version":"battery-v0.1"},{"rune":"Y","hex":"#f73b6a7A","correct":-1,"choice":32,"rt":770.9699999977602,"accuracy":0,"outcome":"-10","keys":[2271.789999998873],"total_keys":1,"block":2,"trial":139,"robot":4,"valence":"lose","action":"no-go","sham":0,"trial_type":"pit-trial","trial_index":155,"time_elapsed":952187,"internal_node_id":"0.0-142.0","task_version":"battery-v0.1"},{"rune":"S","hex":"#f73b6a7A","correct":-1,"choice":-1,"rt":-1,"accuracy":1,"outcome":"-1","keys":[2992.309999997844],"total_keys":1,"block":2,"trial":140,"robot":4,"valence":"lose","action":"no-go","sham":0,"trial_type":"pit-trial","trial_index":156,"time_elapsed":956194,"internal_node_id":"0.0-143.0","task_version":"battery-v0.1"},{"rune":"S","hex":"#f73b6a7A","correct":-1,"choice":-1,"rt":-1,"accuracy":1,"outcome":"-1","keys":[],"total_keys":0,"block":2,"trial":141,"robot":4,"valence":"lose","action":"no-go","sham":0,"trial_type":"pit-trial","trial_index":157,"time_elapsed":960200,"internal_node_id":"0.0-144.0","task_version":"battery-v0.1"},{"rune":"F","hex":"#3366ff99","correct":-1,"choice":32,"rt":777.1249999968568,"accuracy":0,"outcome":"+1","keys":[2278.519999999902],"total_keys":1,"block":2,"trial":142,"robot":2,"valence":"win","action":"no-go","sham":0,"trial_type":"pit-trial","trial_index":158,"time_elapsed":963684,"internal_node_id":"0.0-145.0","task_version":"battery-v0.1"},{"rune":"C","hex":"#3366ff99","correct":32,"choice":32,"rt":715.6799999974901,"accuracy":1,"outcome":"+10","keys":[2216.6600000018952],"total_keys":1,"block":2,"trial":143,"robot":1,"valence":"win","action":"go","sham":0,"trial_type":"pit-trial","trial_index":159,"time_elapsed":967105,"internal_node_id":"0.0-146.0","task_version":"battery-v0.1"},{"rune":"Y","hex":"#f73b6a7A","correct":-1,"choice":-1,"rt":-1,"accuracy":1,"outcome":"-1","keys":[],"total_keys":0,"block":2,"trial":144,"robot":4,"valence":"lose","action":"no-go","sham":0,"trial_type":"pit-trial","trial_index":160,"time_elapsed":971110,"internal_node_id":"0.0-147.0","task_version":"battery-v0.1"},{"rune":"F","hex":"#3366ff99","correct":-1,"choice":-1,"rt":-1,"accuracy":1,"outcome":"+10","keys":[],"total_keys":0,"block":2,"trial":145,"robot":2,"valence":"win","action":"no-go","sham":0,"trial_type":"pit-trial","trial_index":161,"time_elapsed":975123,"internal_node_id":"0.0-148.0","task_version":"battery-v0.1"},{"rune":"Y","hex":"#f73b6a7A","correct":-1,"choice":-1,"rt":-1,"accuracy":1,"outcome":"-1","keys":[],"total_keys":0,"block":2,"trial":146,"robot":4,"valence":"lose","action":"no-go","sham":0,"trial_type":"pit-trial","trial_index":162,"time_elapsed":979128,"internal_node_id":"0.0-149.0","task_version":"battery-v0.1"},{"rune":"S","hex":"#f73b6a7A","correct":-1,"choice":32,"rt":1103.7449999967357,"accuracy":0,"outcome":"-10","keys":[2603.8349999979837],"total_keys":1,"block":2,"trial":147,"robot":4,"valence":"lose","action":"no-go","sham":0,"trial_type":"pit-trial","trial_index":163,"time_elapsed":982936,"internal_node_id":"0.0-150.0","task_version":"battery-v0.1"},{"rune":"C","hex":"#3366ff99","correct":32,"choice":32,"rt":901.3100000011036,"accuracy":1,"outcome":"+1","keys":[2402.5500000024913],"total_keys":1,"block":2,"trial":148,"robot":1,"valence":"win","action":"go","sham":1,"trial_type":"pit-trial","trial_index":164,"time_elapsed":986544,"internal_node_id":"0.0-151.0","task_version":"battery-v0.1"},{"rune":"F","hex":"#3366ff99","correct":-1,"choice":-1,"rt":-1,"accuracy":1,"outcome":"+10","keys":[3457.4549999997253],"total_keys":1,"block":2,"trial":149,"robot":2,"valence":"win","action":"no-go","sham":0,"trial_type":"pit-trial","trial_index":165,"time_elapsed":990550,"internal_node_id":"0.0-152.0","task_version":"battery-v0.1"},{"rune":"S","hex":"#f73b6a7A","correct":-1,"choice":-1,"rt":-1,"accuracy":1,"outcome":"-1","keys":[],"total_keys":0,"block":2,"trial":150,"robot":4,"valence":"lose","action":"no-go","sham":0,"trial_type":"pit-trial","trial_index":166,"time_elapsed":994556,"internal_node_id":"0.0-153.0","task_version":"battery-v0.1"},{"rune":"C","hex":"#3366ff99","correct":32,"choice":32,"rt":433.78999999922235,"accuracy":1,"outcome":"+10","keys":[1934.3100000005215],"total_keys":1,"block":2,"trial":151,"robot":1,"valence":"win","action":"go","sham":0,"trial_type":"pit-trial","trial_index":167,"time_elapsed":997695,"internal_node_id":"0.0-154.0","task_version":"battery-v0.1"},{"rune":"Y","hex":"#f73b6a7A","correct":-1,"choice":-1,"rt":-1,"accuracy":1,"outcome":"-1","keys":[],"total_keys":0,"block":2,"trial":152,"robot":4,"valence":"lose","action":"no-go","sham":0,"trial_type":"pit-trial","trial_index":168,"time_elapsed":1001701,"internal_node_id":"0.0-155.0","task_version":"battery-v0.1"},{"rune":"C","hex":"#3366ff99","correct":32,"choice":-1,"rt":-1,"accuracy":0,"outcome":"+1","keys":[2834.9249999991152],"total_keys":1,"block":2,"trial":153,"robot":1,"valence":"win","action":"go","sham":0,"trial_type":"pit-trial","trial_index":169,"time_elapsed":1005706,"internal_node_id":"0.0-156.0","task_version":"battery-v0.1"},{"rune":"K","hex":"#f73b6a7A","correct":32,"choice":-1,"rt":-1,"accuracy":0,"outcome":"-10","keys":[],"total_keys":0,"block":2,"trial":154,"robot":3,"valence":"lose","action":"go","sham":0,"trial_type":"pit-trial","trial_index":170,"time_elapsed":1009713,"internal_node_id":"0.0-157.0","task_version":"battery-v0.1"},{"rune":"Y","hex":"#f73b6a7A","correct":-1,"choice":32,"rt":1170.8799999977928,"accuracy":0,"outcome":"-10","keys":[2671.17500000319],"total_keys":1,"block":2,"trial":155,"robot":4,"valence":"lose","action":"no-go","sham":0,"trial_type":"pit-trial","trial_index":171,"time_elapsed":1013603,"internal_node_id":"0.0-158.0","task_version":"battery-v0.1"},{"rune":"F","hex":"#3366ff99","correct":-1,"choice":32,"rt":793.760000000475,"accuracy":0,"outcome":"+1","keys":[2294.479999996838],"total_keys":1,"block":2,"trial":156,"robot":2,"valence":"win","action":"no-go","sham":0,"trial_type":"pit-trial","trial_index":172,"time_elapsed":1017102,"internal_node_id":"0.0-159.0","task_version":"battery-v0.1"},{"rune":"K","hex":"#f73b6a7A","correct":32,"choice":32,"rt":587.9249999998137,"accuracy":1,"outcome":"-10","keys":[2088.3649999996414],"total_keys":1,"block":2,"trial":157,"robot":3,"valence":"lose","action":"go","sham":1,"trial_type":"pit-trial","trial_index":173,"time_elapsed":1020396,"internal_node_id":"0.0-160.0","task_version":"battery-v0.1"},{"rune":"C","hex":"#3366ff99","correct":32,"choice":32,"rt":852.1750000000466,"accuracy":1,"outcome":"+10","keys":[2352.3150000000605],"total_keys":1,"block":2,"trial":158,"robot":1,"valence":"win","action":"go","sham":0,"trial_type":"pit-trial","trial_index":174,"time_elapsed":1023953,"internal_node_id":"0.0-161.0","task_version":"battery-v0.1"},{"rune":"F","hex":"#3366ff99","correct":-1,"choice":-1,"rt":-1,"accuracy":1,"outcome":"+10","keys":[],"total_keys":0,"block":2,"trial":159,"robot":2,"valence":"win","action":"no-go","sham":0,"trial_type":"pit-trial","trial_index":175,"time_elapsed":1027958,"internal_node_id":"0.0-162.0","task_version":"battery-v0.1"},{"rune":"Y","hex":"#f73b6a7A","correct":-1,"choice":-1,"rt":-1,"accuracy":1,"outcome":"-1","keys":[],"total_keys":0,"block":2,"trial":160,"robot":4,"valence":"lose","action":"no-go","sham":0,"trial_type":"pit-trial","trial_index":176,"time_elapsed":1031964,"internal_node_id":"0.0-163.0","task_version":"battery-v0.1"},{"rune":"Y","hex":"#f73b6a7A","correct":-1,"choice":-1,"rt":-1,"accuracy":1,"outcome":"-1","keys":[],"total_keys":0,"block":2,"trial":161,"robot":4,"valence":"lose","action":"no-go","sham":0,"trial_type":"pit-trial","trial_index":177,"time_elapsed":1035969,"internal_node_id":"0.0-164.0","task_version":"battery-v0.1"},{"rune":"K","hex":"#f73b6a7A","correct":32,"choice":-1,"rt":-1,"accuracy":0,"outcome":"-10","keys":[],"total_keys":0,"block":2,"trial":162,"robot":3,"valence":"lose","action":"go","sham":0,"trial_type":"pit-trial","trial_index":178,"time_elapsed":1039975,"internal_node_id":"0.0-165.0","task_version":"battery-v0.1"},{"rune":"B","hex":"#3366ff99","correct":-1,"choice":32,"rt":676.9099999984028,"accuracy":0,"outcome":"+1","keys":[2177.0850000029895],"total_keys":1,"block":2,"trial":163,"robot":2,"valence":"win","action":"no-go","sham":0,"trial_type":"pit-trial","trial_index":179,"time_elapsed":1043357,"internal_node_id":"0.0-166.0","task_version":"battery-v0.1"},{"rune":"R","hex":"#3366ff99","correct":32,"choice":-1,"rt":-1,"accuracy":0,"outcome":"+10","keys":[],"total_keys":0,"block":2,"trial":164,"robot":1,"valence":"win","action":"go","sham":1,"trial_type":"pit-trial","trial_index":180,"time_elapsed":1047362,"internal_node_id":"0.0-167.0","task_version":"battery-v0.1"},{"rune":"Y","hex":"#f73b6a7A","correct":-1,"choice":-1,"rt":-1,"accuracy":1,"outcome":"-1","keys":[],"total_keys":0,"block":2,"trial":165,"robot":4,"valence":"lose","action":"no-go","sham":0,"trial_type":"pit-trial","trial_index":181,"time_elapsed":1051370,"internal_node_id":"0.0-168.0","task_version":"battery-v0.1"},{"rune":"B","hex":"#3366ff99","correct":-1,"choice":32,"rt":881.4349999991246,"accuracy":0,"outcome":"+1","keys":[2381.8650000030175],"total_keys":1,"block":2,"trial":166,"robot":2,"valence":"win","action":"no-go","sham":0,"trial_type":"pit-trial","trial_index":182,"time_elapsed":1054957,"internal_node_id":"0.0-169.0","task_version":"battery-v0.1"},{"rune":"R","hex":"#3366ff99","correct":32,"choice":-1,"rt":-1,"accuracy":0,"outcome":"+1","keys":[],"total_keys":0,"block":2,"trial":167,"robot":1,"valence":"win","action":"go","sham":0,"trial_type":"pit-trial","trial_index":183,"time_elapsed":1058963,"internal_node_id":"0.0-170.0","task_version":"battery-v0.1"},{"rune":"K","hex":"#f73b6a7A","correct":32,"choice":-1,"rt":-1,"accuracy":0,"outcome":"-10","keys":[],"total_keys":0,"block":2,"trial":168,"robot":3,"valence":"lose","action":"go","sham":0,"trial_type":"pit-trial","trial_index":184,"time_elapsed":1062967,"internal_node_id":"0.0-171.0","task_version":"battery-v0.1"},{"rune":"K","hex":"#f73b6a7A","correct":32,"choice":-1,"rt":-1,"accuracy":0,"outcome":"-10","keys":[],"total_keys":0,"block":2,"trial":169,"robot":3,"valence":"lose","action":"go","sham":0,"trial_type":"pit-trial","trial_index":185,"time_elapsed":1066972,"internal_node_id":"0.0-172.0","task_version":"battery-v0.1"},{"rune":"R","hex":"#3366ff99","correct":32,"choice":32,"rt":610.4950000008103,"accuracy":1,"outcome":"+10","keys":[2110.894999998156],"total_keys":1,"block":2,"trial":170,"robot":1,"valence":"win","action":"go","sham":0,"trial_type":"pit-trial","trial_index":186,"time_elapsed":1070288,"internal_node_id":"0.0-173.0","task_version":"battery-v0.1"},{"rune":"V","hex":"#f73b6a7A","correct":-1,"choice":32,"rt":999.1300000001211,"accuracy":0,"outcome":"-10","keys":[2499.285000001546],"total_keys":1,"block":2,"trial":171,"robot":4,"valence":"lose","action":"no-go","sham":0,"trial_type":"pit-trial","trial_index":187,"time_elapsed":1073992,"internal_node_id":"0.0-174.0","task_version":"battery-v0.1"},{"rune":"B","hex":"#3366ff99","correct":-1,"choice":32,"rt":671.560000002617,"accuracy":0,"outcome":"+1","keys":[2172.3750000020955],"total_keys":1,"block":2,"trial":172,"robot":2,"valence":"win","action":"no-go","sham":0,"trial_type":"pit-trial","trial_index":188,"time_elapsed":1077369,"internal_node_id":"0.0-175.0","task_version":"battery-v0.1"},{"rune":"R","hex":"#3366ff99","correct":32,"choice":-1,"rt":-1,"accuracy":0,"outcome":"+1","keys":[],"total_keys":0,"block":2,"trial":173,"robot":1,"valence":"win","action":"go","sham":0,"trial_type":"pit-trial","trial_index":189,"time_elapsed":1081374,"internal_node_id":"0.0-176.0","task_version":"battery-v0.1"},{"rune":"B","hex":"#3366ff99","correct":-1,"choice":-1,"rt":-1,"accuracy":1,"outcome":"+10","keys":[],"total_keys":0,"block":2,"trial":174,"robot":2,"valence":"win","action":"no-go","sham":0,"trial_type":"pit-trial","trial_index":190,"time_elapsed":1085381,"internal_node_id":"0.0-177.0","task_version":"battery-v0.1"},{"rune":"V","hex":"#f73b6a7A","correct":-1,"choice":32,"rt":912.0849999999627,"accuracy":0,"outcome":"-10","keys":[2413.0649999969173],"total_keys":1,"block":2,"trial":175,"robot":4,"valence":"lose","action":"no-go","sham":0,"trial_type":"pit-trial","trial_index":191,"time_elapsed":1088999,"internal_node_id":"0.0-178.0","task_version":"battery-v0.1"},{"rune":"K","hex":"#f73b6a7A","correct":32,"choice":32,"rt":785.0499999986496,"accuracy":1,"outcome":"-10","keys":[2287.019999999553],"total_keys":1,"block":2,"trial":176,"robot":3,"valence":"lose","action":"go","sham":1,"trial_type":"pit-trial","trial_index":192,"time_elapsed":1092491,"internal_node_id":"0.0-179.0","task_version":"battery-v0.1"},{"rune":"V","hex":"#f73b6a7A","correct":-1,"choice":-1,"rt":-1,"accuracy":1,"outcome":"-1","keys":[],"total_keys":0,"block":2,"trial":177,"robot":4,"valence":"lose","action":"no-go","sham":0,"trial_type":"pit-trial","trial_index":193,"time_elapsed":1096510,"internal_node_id":"0.0-180.0","task_version":"battery-v0.1"},{"rune":"R","hex":"#3366ff99","correct":32,"choice":32,"rt":852.419999999227,"accuracy":1,"outcome":"+10","keys":[2353.720000002766],"total_keys":1,"block":2,"trial":178,"robot":1,"valence":"win","action":"go","sham":0,"trial_type":"pit-trial","trial_index":194,"time_elapsed":1100068,"internal_node_id":"0.0-181.0","task_version":"battery-v0.1"},{"rune":"B","hex":"#3366ff99","correct":-1,"choice":-1,"rt":-1,"accuracy":1,"outcome":"+10","keys":[],"total_keys":0,"block":2,"trial":179,"robot":2,"valence":"win","action":"no-go","sham":0,"trial_type":"pit-trial","trial_index":195,"time_elapsed":1104073,"internal_node_id":"0.0-182.0","task_version":"battery-v0.1"},{"rune":"K","hex":"#f73b6a7A","correct":32,"choice":32,"rt":1173.315000000177,"accuracy":1,"outcome":"-1","keys":[2673.9250000028405],"total_keys":1,"block":2,"trial":180,"robot":3,"valence":"lose","action":"go","sham":0,"trial_type":"pit-trial","trial_index":196,"time_elapsed":1107951,"internal_node_id":"0.0-183.0","task_version":"battery-v0.1"},{"rune":"R","hex":"#3366ff99","correct":32,"choice":-1,"rt":-1,"accuracy":0,"outcome":"+1","keys":[],"total_keys":0,"block":2,"trial":181,"robot":1,"valence":"win","action":"go","sham":0,"trial_type":"pit-trial","trial_index":197,"time_elapsed":1111957,"internal_node_id":"0.0-184.0","task_version":"battery-v0.1"},{"rune":"K","hex":"#f73b6a7A","correct":32,"choice":32,"rt":438.49500000220723,"accuracy":1,"outcome":"-1","keys":[1939.174999999581],"total_keys":1,"block":2,"trial":182,"robot":3,"valence":"lose","action":"go","sham":0,"trial_type":"pit-trial","trial_index":198,"time_elapsed":1115101,"internal_node_id":"0.0-185.0","task_version":"battery-v0.1"},{"rune":"B","hex":"#3366ff99","correct":-1,"choice":32,"rt":772.1999999994878,"accuracy":0,"outcome":"+1","keys":[2273.2450000003446],"total_keys":1,"block":2,"trial":183,"robot":2,"valence":"win","action":"no-go","sham":0,"trial_type":"pit-trial","trial_index":199,"time_elapsed":1118580,"internal_node_id":"0.0-186.0","task_version":"battery-v0.1"},{"rune":"V","hex":"#f73b6a7A","correct":-1,"choice":-1,"rt":-1,"accuracy":1,"outcome":"-1","keys":[],"total_keys":0,"block":2,"trial":184,"robot":4,"valence":"lose","action":"no-go","sham":0,"trial_type":"pit-trial","trial_index":200,"time_elapsed":1122585,"internal_node_id":"0.0-187.0","task_version":"battery-v0.1"},{"rune":"B","hex":"#3366ff99","correct":-1,"choice":32,"rt":759.095000001369,"accuracy":0,"outcome":"+1","keys":[2260.3149999994785],"total_keys":1,"block":2,"trial":185,"robot":2,"valence":"win","action":"no-go","sham":0,"trial_type":"pit-trial","trial_index":201,"time_elapsed":1126048,"internal_node_id":"0.0-188.0","task_version":"battery-v0.1"},{"rune":"K","hex":"#f73b6a7A","correct":32,"choice":32,"rt":1011.6649999981746,"accuracy":1,"outcome":"-1","keys":[2512.894999999786],"total_keys":1,"block":2,"trial":186,"robot":3,"valence":"lose","action":"go","sham":0,"trial_type":"pit-trial","trial_index":202,"time_elapsed":1129767,"internal_node_id":"0.0-189.0","task_version":"battery-v0.1"},{"rune":"V","hex":"#f73b6a7A","correct":-1,"choice":-1,"rt":-1,"accuracy":1,"outcome":"-10","keys":[],"total_keys":0,"block":2,"trial":187,"robot":4,"valence":"lose","action":"no-go","sham":1,"trial_type":"pit-trial","trial_index":203,"time_elapsed":1133773,"internal_node_id":"0.0-190.0","task_version":"battery-v0.1"},{"rune":"R","hex":"#3366ff99","correct":32,"choice":-1,"rt":-1,"accuracy":0,"outcome":"+1","keys":[],"total_keys":0,"block":2,"trial":188,"robot":1,"valence":"win","action":"go","sham":0,"trial_type":"pit-trial","trial_index":204,"time_elapsed":1137777,"internal_node_id":"0.0-191.0","task_version":"battery-v0.1"},{"rune":"V","hex":"#f73b6a7A","correct":-1,"choice":32,"rt":693.9799999999814,"accuracy":0,"outcome":"-10","keys":[2194.9700000004377],"total_keys":1,"block":2,"trial":189,"robot":4,"valence":"lose","action":"no-go","sham":0,"trial_type":"pit-trial","trial_index":205,"time_elapsed":1141176,"internal_node_id":"0.0-192.0","task_version":"battery-v0.1"},{"rune":"B","hex":"#3366ff99","correct":-1,"choice":-1,"rt":-1,"accuracy":1,"outcome":"+10","keys":[],"total_keys":0,"block":2,"trial":190,"robot":2,"valence":"win","action":"no-go","sham":0,"trial_type":"pit-trial","trial_index":206,"time_elapsed":1145182,"internal_node_id":"0.0-193.0","task_version":"battery-v0.1"},{"rune":"K","hex":"#f73b6a7A","correct":32,"choice":-1,"rt":-1,"accuracy":0,"outcome":"-10","keys":[],"total_keys":0,"block":2,"trial":191,"robot":3,"valence":"lose","action":"go","sham":0,"trial_type":"pit-trial","trial_index":207,"time_elapsed":1149187,"internal_node_id":"0.0-194.0","task_version":"battery-v0.1"},{"rune":"R","hex":"#3366ff99","correct":32,"choice":32,"rt":625.4100000006147,"accuracy":1,"outcome":"+1","keys":[2126.765000000829],"total_keys":1,"block":2,"trial":192,"robot":1,"valence":"win","action":"go","sham":1,"trial_type":"pit-trial","trial_index":208,"time_elapsed":1152519,"internal_node_id":"0.0-195.0","task_version":"battery-v0.1"},{"rune":"V","hex":"#f73b6a7A","correct":-1,"choice":32,"rt":638.8550000009127,"accuracy":0,"outcome":"-1","keys":[2138.8800000022165],"total_keys":1,"block":2,"trial":193,"robot":4,"valence":"lose","action":"no-go","sham":1,"trial_type":"pit-trial","trial_index":209,"time_elapsed":1155863,"internal_node_id":"0.0-196.0","task_version":"battery-v0.1"},{"rune":"B","hex":"#3366ff99","correct":-1,"choice":32,"rt":749.7049999984447,"accuracy":0,"outcome":"+1","keys":[2250.175000000978],"total_keys":1,"block":2,"trial":194,"robot":2,"valence":"win","action":"no-go","sham":0,"trial_type":"pit-trial","trial_index":210,"time_elapsed":1159319,"internal_node_id":"0.0-197.0","task_version":"battery-v0.1"},{"rune":"Z","hex":"#f73b6a7A","correct":32,"choice":32,"rt":976.9850000010338,"accuracy":1,"outcome":"-1","keys":[2477.930000000866],"total_keys":1,"block":2,"trial":195,"robot":3,"valence":"lose","action":"go","sham":0,"trial_type":"pit-trial","trial_index":211,"time_elapsed":1163002,"internal_node_id":"0.0-198.0","task_version":"battery-v0.1"},{"rune":"E","hex":"#3366ff99","correct":32,"choice":-1,"rt":-1,"accuracy":0,"outcome":"+10","keys":[],"total_keys":0,"block":2,"trial":196,"robot":1,"valence":"win","action":"go","sham":1,"trial_type":"pit-trial","trial_index":212,"time_elapsed":1167012,"internal_node_id":"0.0-199.0","task_version":"battery-v0.1"},{"rune":"V","hex":"#f73b6a7A","correct":-1,"choice":32,"rt":780.1650000002701,"accuracy":0,"outcome":"-10","keys":[2280.9049999995623],"total_keys":1,"block":2,"trial":197,"robot":4,"valence":"lose","action":"no-go","sham":0,"trial_type":"pit-trial","trial_index":213,"time_elapsed":1170498,"internal_node_id":"0.0-200.0","task_version":"battery-v0.1"},{"rune":"B","hex":"#3366ff99","correct":-1,"choice":-1,"rt":-1,"accuracy":1,"outcome":"+10","keys":[],"total_keys":0,"block":2,"trial":198,"robot":2,"valence":"win","action":"no-go","sham":0,"trial_type":"pit-trial","trial_index":214,"time_elapsed":1174504,"internal_node_id":"0.0-201.0","task_version":"battery-v0.1"},{"rune":"E","hex":"#3366ff99","correct":32,"choice":-1,"rt":-1,"accuracy":0,"outcome":"+1","keys":[],"total_keys":0,"block":2,"trial":199,"robot":1,"valence":"win","action":"go","sham":0,"trial_type":"pit-trial","trial_index":215,"time_elapsed":1178510,"internal_node_id":"0.0-202.0","task_version":"battery-v0.1"},{"rune":"Z","hex":"#f73b6a7A","correct":32,"choice":-1,"rt":-1,"accuracy":0,"outcome":"-10","keys":[],"total_keys":0,"block":2,"trial":200,"robot":3,"valence":"lose","action":"go","sham":0,"trial_type":"pit-trial","trial_index":216,"time_elapsed":1182527,"internal_node_id":"0.0-203.0","task_version":"battery-v0.1"},{"rune":"V","hex":"#f73b6a7A","correct":-1,"choice":-1,"rt":-1,"accuracy":1,"outcome":"-1","keys":[],"total_keys":0,"block":2,"trial":201,"robot":4,"valence":"lose","action":"no-go","sham":0,"trial_type":"pit-trial","trial_index":217,"time_elapsed":1186535,"internal_node_id":"0.0-204.0","task_version":"battery-v0.1"},{"rune":"E","hex":"#3366ff99","correct":32,"choice":32,"rt":549.8950000000186,"accuracy":1,"outcome":"+10","keys":[2050.439999999013],"total_keys":1,"block":2,"trial":202,"robot":1,"valence":"win","action":"go","sham":0,"trial_type":"pit-trial","trial_index":218,"time_elapsed":1189791,"internal_node_id":"0.0-205.0","task_version":"battery-v0.1"},{"rune":"Z","hex":"#f73b6a7A","correct":32,"choice":-1,"rt":-1,"accuracy":0,"outcome":"-10","keys":[],"total_keys":0,"block":2,"trial":203,"robot":3,"valence":"lose","action":"go","sham":0,"trial_type":"pit-trial","trial_index":219,"time_elapsed":1193795,"internal_node_id":"0.0-206.0","task_version":"battery-v0.1"},{"rune":"B","hex":"#3366ff99","correct":-1,"choice":-1,"rt":-1,"accuracy":1,"outcome":"+10","keys":[],"total_keys":0,"block":2,"trial":204,"robot":2,"valence":"win","action":"no-go","sham":0,"trial_type":"pit-trial","trial_index":220,"time_elapsed":1197801,"internal_node_id":"0.0-207.0","task_version":"battery-v0.1"},{"rune":"E","hex":"#3366ff99","correct":32,"choice":-1,"rt":-1,"accuracy":0,"outcome":"+1","keys":[],"total_keys":0,"block":2,"trial":205,"robot":1,"valence":"win","action":"go","sham":0,"trial_type":"pit-trial","trial_index":221,"time_elapsed":1201809,"internal_node_id":"0.0-208.0","task_version":"battery-v0.1"},{"rune":"V","hex":"#f73b6a7A","correct":-1,"choice":-1,"rt":-1,"accuracy":1,"outcome":"-1","keys":[],"total_keys":0,"block":2,"trial":206,"robot":4,"valence":"lose","action":"no-go","sham":0,"trial_type":"pit-trial","trial_index":222,"time_elapsed":1205814,"internal_node_id":"0.0-209.0","task_version":"battery-v0.1"},{"rune":"B","hex":"#3366ff99","correct":-1,"choice":32,"rt":419.17500000284053,"accuracy":0,"outcome":"+1","keys":[1920.2949999999255],"total_keys":1,"block":2,"trial":207,"robot":2,"valence":"win","action":"no-go","sham":0,"trial_type":"pit-trial","trial_index":223,"time_elapsed":1208939,"internal_node_id":"0.0-210.0","task_version":"battery-v0.1"},{"rune":"Z","hex":"#f73b6a7A","correct":32,"choice":-1,"rt":-1,"accuracy":0,"outcome":"-10","keys":[],"total_keys":0,"block":2,"trial":208,"robot":3,"valence":"lose","action":"go","sham":0,"trial_type":"pit-trial","trial_index":224,"time_elapsed":1212943,"internal_node_id":"0.0-211.0","task_version":"battery-v0.1"},{"rune":"I","hex":"#f73b6a7A","correct":32,"choice":-1,"rt":-1,"accuracy":0,"outcome":"-1","keys":[],"total_keys":0,"block":2,"trial":209,"robot":3,"valence":"lose","action":"go","sham":1,"trial_type":"pit-trial","trial_index":225,"time_elapsed":1216949,"internal_node_id":"0.0-212.0","task_version":"battery-v0.1"},{"rune":"E","hex":"#3366ff99","correct":32,"choice":32,"rt":634.5399999991059,"accuracy":1,"outcome":"+10","keys":[2135.5750000001863],"total_keys":1,"block":2,"trial":210,"robot":1,"valence":"win","action":"go","sham":0,"trial_type":"pit-trial","trial_index":226,"time_elapsed":1220291,"internal_node_id":"0.0-213.0","task_version":"battery-v0.1"},{"rune":"M","hex":"#3366ff99","correct":-1,"choice":32,"rt":672.6550000021234,"accuracy":0,"outcome":"+1","keys":[2173.8199999998324],"total_keys":1,"block":2,"trial":211,"robot":2,"valence":"win","action":"no-go","sham":0,"trial_type":"pit-trial","trial_index":227,"time_elapsed":1223670,"internal_node_id":"0.0-214.0","task_version":"battery-v0.1"},{"rune":"Z","hex":"#f73b6a7A","correct":32,"choice":32,"rt":1178.3299999986775,"accuracy":1,"outcome":"-1","keys":[2679.4950000003446],"total_keys":1,"block":2,"trial":212,"robot":3,"valence":"lose","action":"go","sham":0,"trial_type":"pit-trial","trial_index":228,"time_elapsed":1227555,"internal_node_id":"0.0-215.0","task_version":"battery-v0.1"},{"rune":"M","hex":"#3366ff99","correct":-1,"choice":-1,"rt":-1,"accuracy":1,"outcome":"+10","keys":[],"total_keys":0,"block":2,"trial":213,"robot":2,"valence":"win","action":"no-go","sham":0,"trial_type":"pit-trial","trial_index":229,"time_elapsed":1231560,"internal_node_id":"0.0-216.0","task_version":"battery-v0.1"},{"rune":"I","hex":"#f73b6a7A","correct":32,"choice":-1,"rt":-1,"accuracy":0,"outcome":"-10","keys":[],"total_keys":0,"block":2,"trial":214,"robot":3,"valence":"lose","action":"go","sham":0,"trial_type":"pit-trial","trial_index":230,"time_elapsed":1235571,"internal_node_id":"0.0-217.0","task_version":"battery-v0.1"},{"rune":"Z","hex":"#f73b6a7A","correct":32,"choice":-1,"rt":-1,"accuracy":0,"outcome":"-10","keys":[],"total_keys":0,"block":2,"trial":215,"robot":3,"valence":"lose","action":"go","sham":0,"trial_type":"pit-trial","trial_index":231,"time_elapsed":1239577,"internal_node_id":"0.0-218.0","task_version":"battery-v0.1"},{"rune":"E","hex":"#3366ff99","correct":32,"choice":-1,"rt":-1,"accuracy":0,"outcome":"+10","keys":[],"total_keys":0,"block":2,"trial":216,"robot":1,"valence":"win","action":"go","sham":1,"trial_type":"pit-trial","trial_index":232,"time_elapsed":1243584,"internal_node_id":"0.0-219.0","task_version":"battery-v0.1"},{"rune":"M","hex":"#3366ff99","correct":-1,"choice":-1,"rt":-1,"accuracy":1,"outcome":"+10","keys":[],"total_keys":0,"block":2,"trial":217,"robot":2,"valence":"win","action":"no-go","sham":0,"trial_type":"pit-trial","trial_index":233,"time_elapsed":1247590,"internal_node_id":"0.0-220.0","task_version":"battery-v0.1"},{"rune":"Z","hex":"#f73b6a7A","correct":32,"choice":32,"rt":700.0250000017695,"accuracy":1,"outcome":"-1","keys":[2200.8249999999534],"total_keys":1,"block":2,"trial":218,"robot":3,"valence":"lose","action":"go","sham":0,"trial_type":"pit-trial","trial_index":234,"time_elapsed":1250996,"internal_node_id":"0.0-221.0","task_version":"battery-v0.1"},{"rune":"I","hex":"#f73b6a7A","correct":32,"choice":-1,"rt":-1,"accuracy":0,"outcome":"-1","keys":[],"total_keys":0,"block":2,"trial":219,"robot":3,"valence":"lose","action":"go","sham":1,"trial_type":"pit-trial","trial_index":235,"time_elapsed":1255002,"internal_node_id":"0.0-222.0","task_version":"battery-v0.1"},{"rune":"E","hex":"#3366ff99","correct":32,"choice":32,"rt":1018.4200000003912,"accuracy":1,"outcome":"+10","keys":[2519.0749999999534],"total_keys":1,"block":2,"trial":220,"robot":1,"valence":"win","action":"go","sham":0,"trial_type":"pit-trial","trial_index":236,"time_elapsed":1258727,"internal_node_id":"0.0-223.0","task_version":"battery-v0.1"},{"rune":"E","hex":"#3366ff99","correct":32,"choice":-1,"rt":-1,"accuracy":0,"outcome":"+1","keys":[],"total_keys":0,"block":2,"trial":221,"robot":1,"valence":"win","action":"go","sham":0,"trial_type":"pit-trial","trial_index":237,"time_elapsed":1262732,"internal_node_id":"0.0-224.0","task_version":"battery-v0.1"},{"rune":"M","hex":"#3366ff99","correct":-1,"choice":32,"rt":986.3749999967404,"accuracy":0,"outcome":"+1","keys":[2486.9099999996834],"total_keys":1,"block":2,"trial":222,"robot":2,"valence":"win","action":"no-go","sham":0,"trial_type":"pit-trial","trial_index":238,"time_elapsed":1266424,"internal_node_id":"0.0-225.0","task_version":"battery-v0.1"},{"rune":"I","hex":"#f73b6a7A","correct":32,"choice":32,"rt":1256.5200000025798,"accuracy":1,"outcome":"-1","keys":[2757.669999998994],"total_keys":1,"block":2,"trial":223,"robot":3,"valence":"lose","action":"go","sham":0,"trial_type":"pit-trial","trial_index":239,"time_elapsed":1270386,"internal_node_id":"0.0-226.0","task_version":"battery-v0.1"},{"rune":"Z","hex":"#f73b6a7A","correct":32,"choice":-1,"rt":-1,"accuracy":0,"outcome":"-10","keys":[],"total_keys":0,"block":2,"trial":224,"robot":3,"valence":"lose","action":"go","sham":0,"trial_type":"pit-trial","trial_index":240,"time_elapsed":1274391,"internal_node_id":"0.0-227.0","task_version":"battery-v0.1"},{"rune":"E","hex":"#3366ff99","correct":32,"choice":32,"rt":947.0799999982119,"accuracy":1,"outcome":"+10","keys":[2448.0649999969173],"total_keys":1,"block":2,"trial":225,"robot":1,"valence":"win","action":"go","sham":0,"trial_type":"pit-trial","trial_index":241,"time_elapsed":1278044,"internal_node_id":"0.0-228.0","task_version":"battery-v0.1"},{"rune":"I","hex":"#f73b6a7A","correct":32,"choice":-1,"rt":-1,"accuracy":0,"outcome":"-10","keys":[],"total_keys":0,"block":2,"trial":226,"robot":3,"valence":"lose","action":"go","sham":0,"trial_type":"pit-trial","trial_index":242,"time_elapsed":1282049,"internal_node_id":"0.0-229.0","task_version":"battery-v0.1"},{"rune":"M","hex":"#3366ff99","correct":-1,"choice":32,"rt":597.9650000007823,"accuracy":0,"outcome":"+10","keys":[2098.834999997169],"total_keys":1,"block":2,"trial":227,"robot":2,"valence":"win","action":"no-go","sham":1,"trial_type":"pit-trial","trial_index":243,"time_elapsed":1285352,"internal_node_id":"0.0-230.0","task_version":"battery-v0.1"},{"rune":"Z","hex":"#f73b6a7A","correct":32,"choice":-1,"rt":-1,"accuracy":0,"outcome":"-10","keys":[2890.1299999998882],"total_keys":1,"block":2,"trial":228,"robot":3,"valence":"lose","action":"go","sham":0,"trial_type":"pit-trial","trial_index":244,"time_elapsed":1289357,"internal_node_id":"0.0-231.0","task_version":"battery-v0.1"},{"rune":"E","hex":"#3366ff99","correct":32,"choice":-1,"rt":-1,"accuracy":0,"outcome":"+1","keys":[],"total_keys":0,"block":2,"trial":229,"robot":1,"valence":"win","action":"go","sham":0,"trial_type":"pit-trial","trial_index":245,"time_elapsed":1293364,"internal_node_id":"0.0-232.0","task_version":"battery-v0.1"},{"rune":"I","hex":"#f73b6a7A","correct":32,"choice":32,"rt":550.3749999988358,"accuracy":1,"outcome":"-10","keys":[2050.7650000001304],"total_keys":1,"block":2,"trial":230,"robot":3,"valence":"lose","action":"go","sham":1,"trial_type":"pit-trial","trial_index":246,"time_elapsed":1296622,"internal_node_id":"0.0-233.0","task_version":"battery-v0.1"},{"rune":"M","hex":"#3366ff99","correct":-1,"choice":32,"rt":663.0349999978207,"accuracy":0,"outcome":"+1","keys":[2164.0599999993574],"total_keys":1,"block":2,"trial":231,"robot":2,"valence":"win","action":"no-go","sham":0,"trial_type":"pit-trial","trial_index":247,"time_elapsed":1299995,"internal_node_id":"0.0-234.0","task_version":"battery-v0.1"},{"rune":"Z","hex":"#f73b6a7A","correct":32,"choice":32,"rt":553.2200000016019,"accuracy":1,"outcome":"-1","keys":[2056.010000000242],"total_keys":1,"block":2,"trial":232,"robot":3,"valence":"lose","action":"go","sham":0,"trial_type":"pit-trial","trial_index":248,"time_elapsed":1303255,"internal_node_id":"0.0-235.0","task_version":"battery-v0.1"},{"rune":"I","hex":"#f73b6a7A","correct":32,"choice":32,"rt":906.2000000013504,"accuracy":1,"outcome":"-1","keys":[2408.3449999997392],"total_keys":1,"block":2,"trial":233,"robot":3,"valence":"lose","action":"go","sham":0,"trial_type":"pit-trial","trial_index":249,"time_elapsed":1306870,"internal_node_id":"0.0-236.0","task_version":"battery-v0.1"},{"rune":"E","hex":"#3366ff99","correct":32,"choice":-1,"rt":-1,"accuracy":0,"outcome":"+1","keys":[],"total_keys":0,"block":2,"trial":234,"robot":1,"valence":"win","action":"go","sham":0,"trial_type":"pit-trial","trial_index":250,"time_elapsed":1310876,"internal_node_id":"0.0-237.0","task_version":"battery-v0.1"},{"rune":"Z","hex":"#f73b6a7A","correct":32,"choice":-1,"rt":-1,"accuracy":0,"outcome":"-1","keys":[],"total_keys":0,"block":2,"trial":235,"robot":3,"valence":"lose","action":"go","sham":1,"trial_type":"pit-trial","trial_index":251,"time_elapsed":1314881,"internal_node_id":"0.0-238.0","task_version":"battery-v0.1"},{"rune":"M","hex":"#3366ff99","correct":-1,"choice":-1,"rt":-1,"accuracy":1,"outcome":"+10","keys":[],"total_keys":0,"block":2,"trial":236,"robot":2,"valence":"win","action":"no-go","sham":0,"trial_type":"pit-trial","trial_index":252,"time_elapsed":1318887,"internal_node_id":"0.0-239.0","task_version":"battery-v0.1"},{"rune":"Z","hex":"#f73b6a7A","correct":32,"choice":-1,"rt":-1,"accuracy":0,"outcome":"-10","keys":[],"total_keys":0,"block":2,"trial":237,"robot":3,"valence":"lose","action":"go","sham":0,"trial_type":"pit-trial","trial_index":253,"time_elapsed":1322892,"internal_node_id":"0.0-240.0","task_version":"battery-v0.1"},{"rune":"I","hex":"#f73b6a7A","correct":32,"choice":-1,"rt":-1,"accuracy":0,"outcome":"-10","keys":[],"total_keys":0,"block":2,"trial":238,"robot":3,"valence":"lose","action":"go","sham":0,"trial_type":"pit-trial","trial_index":254,"time_elapsed":1326899,"internal_node_id":"0.0-241.0","task_version":"battery-v0.1"},{"rune":"M","hex":"#3366ff99","correct":-1,"choice":-1,"rt":-1,"accuracy":1,"outcome":"+10","keys":[],"total_keys":0,"block":2,"trial":239,"robot":2,"valence":"win","action":"no-go","sham":0,"trial_type":"pit-trial","trial_index":255,"time_elapsed":1330905,"internal_node_id":"0.0-242.0","task_version":"battery-v0.1"},{"rune":"E","hex":"#3366ff99","correct":32,"choice":-1,"rt":-1,"accuracy":0,"outcome":"+1","keys":[],"total_keys":0,"block":2,"trial":240,"robot":1,"valence":"win","action":"go","sham":0,"trial_type":"pit-trial","trial_index":256,"time_elapsed":1334911,"internal_node_id":"0.0-243.0","task_version":"battery-v0.1"},{"view_history":"[{\"page_index\":0,\"viewing_time\":2721.385000000708}]","rt":2721.850000001723,"trial_type":"pit-instructions","trial_index":257,"time_elapsed":1337636,"internal_node_id":"0.0-244.0","task_version":"battery-v0.1"},{"rt":29293.634999998147,"responses":{"age":"31","gender-categorical":"Male","gender-free-response":"","ethnicity":"Not Hispanic or Latino","race":["Black or African American"],"language":"Yes","fluency":"Very well"},"survey":"demographics","trial_type":"survey-demo","trial_index":258,"time_elapsed":1366934,"internal_node_id":"0.0-245.0","task_version":"battery-v0.1"},{"rt":73417.38500000071,"responses":{"difficulty":"2","fun":"4","clarity":"5","strategy":"i tried to use the letters on the robot","feedback":"nope"},"survey":"debrief","trial_type":"survey-debrief","trial_index":259,"time_elapsed":1440358,"internal_node_id":"0.0-246.0","task_version":"battery-v0.1","interactions":"[{\"event\":\"blur\",\"trial\":0,\"time\":5471},{\"event\":\"focus\",\"trial\":0,\"time\":7841}]"}]