[{"view_history":"[{\"page_index\":0,\"viewing_time\":20225.030000001425},{\"page_index\":1,\"viewing_time\":3352.035000003525},{\"page_index\":2,\"viewing_time\":1816.144999989774},{\"page_index\":3,\"viewing_time\":3088.6350000073435},{\"page_index\":4,\"viewing_time\":4408.515000002808},{\"page_index\":5,\"viewing_time\":4320.5049999960465}]","rt":37211.85500000138,"trial_type":"pit-instructions","trial_index":0,"time_elapsed":37245,"internal_node_id":"0.0-0.0-0.0","task_version":"battery-v0.1"},{"rune":"","hex":"#FFFFF080","correct":32,"choice":32,"rt":468.8600000081351,"accuracy":1,"outcome":"+10","keys":[1969.5150000043213],"total_keys":1,"block":0,"trial_type":"pit-trial","trial_index":1,"time_elapsed":40419,"internal_node_id":"0.0-0.0-1.0-0.0","task_version":"battery-v0.1"},{"rune":"","hex":"#FFFFF080","correct":32,"choice":-1,"rt":-1,"accuracy":0,"outcome":"+0","keys":[1411.2900000036461],"total_keys":1,"block":0,"trial_type":"pit-trial","trial_index":2,"time_elapsed":44425,"internal_node_id":"0.0-0.0-1.0-0.1","task_version":"battery-v0.1"},{"rune":"","hex":"#FFFFF080","correct":32,"choice":-1,"rt":-1,"accuracy":0,"outcome":"+0","keys":[],"total_keys":0,"block":0,"trial_type":"pit-trial","trial_index":3,"time_elapsed":48431,"internal_node_id":"0.0-0.0-1.0-0.2","task_version":"battery-v0.1"},{"rune":"","hex":"#FFFFF080","correct":32,"choice":32,"rt":554.1949999897042,"accuracy":1,"outcome":"+10","keys":[2055.980000004638],"total_keys":1,"block":0,"trial_type":"pit-trial","trial_index":4,"time_elapsed":51691,"internal_node_id":"0.0-0.0-1.0-0.3","task_version":"battery-v0.1"},{"view_history":"[{\"page_index\":0,\"viewing_time\":3551.919999998063}]","rt":3552.240000004531,"trial_type":"pit-instructions","trial_index":5,"time_elapsed":55246,"internal_node_id":"0.0-0.0-2.0","task_version":"battery-v0.1"},{"rune":"","hex":"#FFFFF080","correct":-1,"choice":-1,"rt":-1,"accuracy":1,"outcome":"+10","keys":[],"total_keys":0,"block":0,"trial_type":"pit-trial","trial_index":6,"time_elapsed":59252,"internal_node_id":"0.0-0.0-3.0-0.0","task_version":"battery-v0.1"},{"rune":"","hex":"#FFFFF080","correct":-1,"choice":-1,"rt":-1,"accuracy":1,"outcome":"+10","keys":[],"total_keys":0,"block":0,"trial_type":"pit-trial","trial_index":7,"time_elapsed":63257,"internal_node_id":"0.0-0.0-3.0-0.1","task_version":"battery-v0.1"},{"rune":"","hex":"#FFFFF080","correct":-1,"choice":-1,"rt":-1,"accuracy":1,"outcome":"+10","keys":[],"total_keys":0,"block":0,"trial_type":"pit-trial","trial_index":8,"time_elapsed":67262,"internal_node_id":"0.0-0.0-3.0-0.2","task_version":"battery-v0.1"},{"rune":"","hex":"#FFFFF080","correct":-1,"choice":-1,"rt":-1,"accuracy":1,"outcome":"+10","keys":[],"total_keys":0,"block":0,"trial_type":"pit-trial","trial_index":9,"time_elapsed":71268,"internal_node_id":"0.0-0.0-3.0-0.3","task_version":"battery-v0.1"},{"responses":["Press SPACE","Do nothing"],"num_errors":0,"rt":5305.674999995972,"trial_type":"pit-comprehension","trial_index":10,"time_elapsed":76578,"internal_node_id":"0.0-0.0-4.0","task_version":"battery-v0.1"},{"view_history":"[{\"page_index\":0,\"viewing_time\":10418.170000004466},{\"page_index\":1,\"viewing_time\":4208.329999994021},{\"page_index\":2,\"viewing_time\":2904.5750000077533},{\"page_index\":3,\"viewing_time\":2952.1049999893876},{\"page_index\":4,\"viewing_time\":2984.4600000069477},{\"page_index\":5,\"viewing_time\":5584.694999997737},{\"page_index\":6,\"viewing_time\":5320.814999999129},{\"page_index\":7,\"viewing_time\":3456.365000005462},{\"page_index\":8,\"viewing_time\":2920.2949999889825},{\"page_index\":9,\"viewing_time\":1800.150000010035},{\"page_index\":10,\"viewing_time\":1312.275000003865}]","rt":43862.584999995306,"trial_type":"pit-instructions","trial_index":11,"time_elapsed":120447,"internal_node_id":"0.0-1.0-0.0","task_version":"battery-v0.1"},{"responses":["+10","+10","True","True"],"num_errors":1,"rt":30776.46999999706,"trial_type":"pit-comprehension","trial_index":12,"time_elapsed":151228,"internal_node_id":"0.0-1.0-1.0","task_version":"battery-v0.1"},{"view_history":"[{\"page_index\":0,\"viewing_time\":2369.1749999998137},{\"page_index\":1,\"viewing_time\":919.8500000056811},{\"page_index\":2,\"viewing_time\":528.039999990142},{\"page_index\":3,\"viewing_time\":576.2050000048475},{\"page_index\":4,\"viewing_time\":879.9850000068545},{\"page_index\":5,\"viewing_time\":4288.589999996475},{\"page_index\":6,\"viewing_time\":2616.309999997611},{\"page_index\":7,\"viewing_time\":600.189999997383},{\"page_index\":8,\"viewing_time\":400.0450000021374},{\"page_index\":9,\"viewing_time\":416.0050000064075},{\"page_index\":10,\"viewing_time\":392.0499999949243}]","rt":13986.774999997579,"trial_type":"pit-instructions","trial_index":13,"time_elapsed":165221,"internal_node_id":"0.0-1.1-0.1","task_version":"battery-v0.1"},{"responses":["+10","-1","True","True"],"num_errors":0,"rt":5149.390000005951,"trial_type":"pit-comprehension","trial_index":14,"time_elapsed":170374,"internal_node_id":"0.0-1.1-1.1","task_version":"battery-v0.1"},{"view_history":"[{\"page_index\":0,\"viewing_time\":1154.0850000019418},{\"page_index\":1,\"viewing_time\":201785.6349999929}]","rt":202940.0900000037,"trial_type":"pit-instructions","trial_index":15,"time_elapsed":373320,"internal_node_id":"0.0-2.0","task_version":"battery-v0.1"},{"rune":"T","hex":"#f73b6a7A","correct":-1,"choice":-1,"rt":-1,"accuracy":1,"outcome":"-1","keys":[],"total_keys":0,"block":1,"trial":1,"robot":4,"valence":"lose","action":"no-go","sham":0,"trial_type":"pit-trial","trial_index":16,"time_elapsed":377327,"internal_node_id":"0.0-3.0","task_version":"battery-v0.1"},{"rune":"R","hex":"#3366ff99","correct":32,"choice":32,"rt":684.7100000013597,"accuracy":1,"outcome":"+10","keys":[2185.5450000002747],"total_keys":1,"block":1,"trial":2,"robot":1,"valence":"win","action":"go","sham":0,"trial_type":"pit-trial","trial_index":17,"time_elapsed":380716,"internal_node_id":"0.0-4.0","task_version":"battery-v0.1"},{"rune":"H","hex":"#3366ff99","correct":-1,"choice":-1,"rt":-1,"accuracy":1,"outcome":"+10","keys":[],"total_keys":0,"block":1,"trial":3,"robot":2,"valence":"win","action":"no-go","sham":0,"trial_type":"pit-trial","trial_index":18,"time_elapsed":384720,"internal_node_id":"0.0-5.0","task_version":"battery-v0.1"},{"rune":"F","hex":"#3366ff99","correct":32,"choice":32,"rt":586.9549999915762,"accuracy":1,"outcome":"+10","keys":[2088.0449999967823],"total_keys":1,"block":1,"trial":4,"robot":1,"valence":"win","action":"go","sham":0,"trial_type":"pit-trial","trial_index":19,"time_elapsed":388012,"internal_node_id":"0.0-6.0","task_version":"battery-v0.1"},{"rune":"H","hex":"#3366ff99","correct":-1,"choice":-1,"rt":-1,"accuracy":1,"outcome":"+10","keys":[],"total_keys":0,"block":1,"trial":5,"robot":2,"valence":"win","action":"no-go","sham":0,"trial_type":"pit-trial","trial_index":20,"time_elapsed":392016,"internal_node_id":"0.0-7.0","task_version":"battery-v0.1"},{"rune":"F","hex":"#3366ff99","correct":32,"choice":32,"rt":524.0899999917019,"accuracy":1,"outcome":"+10","keys":[2024.4050000037532],"total_keys":1,"block":1,"trial":6,"robot":1,"valence":"win","action":"go","sham":0,"trial_type":"pit-trial","trial_index":21,"time_elapsed":395245,"internal_node_id":"0.0-8.0","task_version":"battery-v0.1"},{"rune":"R","hex":"#3366ff99","correct":32,"choice":32,"rt":447.0550000114599,"accuracy":1,"outcome":"+10","keys":[1947.554999991553],"total_keys":1,"block":1,"trial":7,"robot":1,"valence":"win","action":"go","sham":0,"trial_type":"pit-trial","trial_index":22,"time_elapsed":398397,"internal_node_id":"0.0-9.0","task_version":"battery-v0.1"},{"rune":"T","hex":"#f73b6a7A","correct":-1,"choice":-1,"rt":-1,"accuracy":1,"outcome":"-10","keys":[],"total_keys":0,"block":1,"trial":8,"robot":4,"valence":"lose","action":"no-go","sham":1,"trial_type":"pit-trial","trial_index":23,"time_elapsed":402402,"internal_node_id":"0.0-10.0","task_version":"battery-v0.1"},{"rune":"H","hex":"#3366ff99","correct":-1,"choice":32,"rt":713.9500000048429,"accuracy":0,"outcome":"+1","keys":[2214.690000007977],"total_keys":1,"block":1,"trial":9,"robot":2,"valence":"win","action":"no-go","sham":0,"trial_type":"pit-trial","trial_index":24,"time_elapsed":405820,"internal_node_id":"0.0-11.0","task_version":"battery-v0.1"},{"rune":"T","hex":"#f73b6a7A","correct":-1,"choice":32,"rt":535.8899999991991,"accuracy":0,"outcome":"-10","keys":[2036.0700000019278],"total_keys":1,"block":1,"trial":10,"robot":4,"valence":"lose","action":"no-go","sham":0,"trial_type":"pit-trial","trial_index":25,"time_elapsed":409061,"internal_node_id":"0.0-12.0","task_version":"battery-v0.1"},{"rune":"F","hex":"#3366ff99","correct":32,"choice":32,"rt":397.7900000027148,"accuracy":1,"outcome":"+10","keys":[1899.3699999991804],"total_keys":1,"block":1,"trial":11,"robot":1,"valence":"win","action":"go","sham":0,"trial_type":"pit-trial","trial_index":26,"time_elapsed":412165,"internal_node_id":"0.0-13.0","task_version":"battery-v0.1"},{"rune":"R","hex":"#3366ff99","correct":32,"choice":32,"rt":414.7649999940768,"accuracy":1,"outcome":"+10","keys":[1915.1750000019092],"total_keys":1,"block":1,"trial":12,"robot":1,"valence":"win","action":"go","sham":0,"trial_type":"pit-trial","trial_index":27,"time_elapsed":415284,"internal_node_id":"0.0-14.0","task_version":"battery-v0.1"},{"rune":"R","hex":"#3366ff99","correct":32,"choice":32,"rt":439.27000000257976,"accuracy":1,"outcome":"+10","keys":[1939.4000000029337],"total_keys":1,"block":1,"trial":13,"robot":1,"valence":"win","action":"go","sham":0,"trial_type":"pit-trial","trial_index":28,"time_elapsed":418428,"internal_node_id":"0.0-15.0","task_version":"battery-v0.1"},{"rune":"T","hex":"#f73b6a7A","correct":-1,"choice":-1,"rt":-1,"accuracy":1,"outcome":"-10","keys":[],"total_keys":0,"block":1,"trial":14,"robot":4,"valence":"lose","action":"no-go","sham":1,"trial_type":"pit-trial","trial_index":29,"time_elapsed":422432,"internal_node_id":"0.0-16.0","task_version":"battery-v0.1"},{"rune":"H","hex":"#3366ff99","correct":-1,"choice":-1,"rt":-1,"accuracy":1,"outcome":"+10","keys":[],"total_keys":0,"block":1,"trial":15,"robot":2,"valence":"win","action":"no-go","sham":0,"trial_type":"pit-trial","trial_index":30,"time_elapsed":426438,"internal_node_id":"0.0-17.0","task_version":"battery-v0.1"},{"rune":"F","hex":"#3366ff99","correct":32,"choice":32,"rt":437.6850000116974,"accuracy":1,"outcome":"+10","keys":[1938.8700000126846],"total_keys":1,"block":1,"trial":16,"robot":1,"valence":"win","action":"go","sham":0,"trial_type":"pit-trial","trial_index":31,"time_elapsed":429581,"internal_node_id":"0.0-18.0","task_version":"battery-v0.1"},{"rune":"F","hex":"#3366ff99","correct":32,"choice":32,"rt":463.05999999458436,"accuracy":1,"outcome":"+10","keys":[1963.8249999989057],"total_keys":1,"block":1,"trial":17,"robot":1,"valence":"win","action":"go","sham":0,"trial_type":"pit-trial","trial_index":32,"time_elapsed":432748,"internal_node_id":"0.0-19.0","task_version":"battery-v0.1"},{"rune":"T","hex":"#f73b6a7A","correct":-1,"choice":-1,"rt":-1,"accuracy":1,"outcome":"-1","keys":[],"total_keys":0,"block":1,"trial":18,"robot":4,"valence":"lose","action":"no-go","sham":0,"trial_type":"pit-trial","trial_index":33,"time_elapsed":436753,"internal_node_id":"0.0-20.0","task_version":"battery-v0.1"},{"rune":"R","hex":"#3366ff99","correct":32,"choice":32,"rt":370.72999999509193,"accuracy":1,"outcome":"+10","keys":[1871.5549999906216],"total_keys":1,"block":1,"trial":19,"robot":1,"valence":"win","action":"go","sham":0,"trial_type":"pit-trial","trial_index":34,"time_elapsed":439829,"internal_node_id":"0.0-21.0","task_version":"battery-v0.1"},{"rune":"H","hex":"#3366ff99","correct":-1,"choice":-1,"rt":-1,"accuracy":1,"outcome":"+10","keys":[],"total_keys":0,"block":1,"trial":20,"robot":2,"valence":"win","action":"no-go","sham":0,"trial_type":"pit-trial","trial_index":35,"time_elapsed":443832,"internal_node_id":"0.0-22.0","task_version":"battery-v0.1"},{"rune":"F","hex":"#3366ff99","correct":32,"choice":32,"rt":523.5749999992549,"accuracy":1,"outcome":"+10","keys":[2024.13499999966],"total_keys":1,"block":1,"trial":21,"robot":1,"valence":"win","action":"go","sham":0,"trial_type":"pit-trial","trial_index":36,"time_elapsed":447060,"internal_node_id":"0.0-23.0","task_version":"battery-v0.1"},{"rune":"R","hex":"#3366ff99","correct":32,"choice":32,"rt":415.5999999929918,"accuracy":1,"outcome":"+10","keys":[1915.98000000522],"total_keys":1,"block":1,"trial":22,"robot":1,"valence":"win","action":"go","sham":0,"trial_type":"pit-trial","trial_index":37,"time_elapsed":450180,"internal_node_id":"0.0-24.0","task_version":"battery-v0.1"},{"rune":"H","hex":"#3366ff99","correct":-1,"choice":-1,"rt":-1,"accuracy":1,"outcome":"+10","keys":[],"total_keys":0,"block":1,"trial":23,"robot":2,"valence":"win","action":"no-go","sham":0,"trial_type":"pit-trial","trial_index":38,"time_elapsed":454185,"internal_node_id":"0.0-25.0","task_version":"battery-v0.1"},{"rune":"T","hex":"#f73b6a7A","correct":-1,"choice":-1,"rt":-1,"accuracy":1,"outcome":"-10","keys":[],"total_keys":0,"block":1,"trial":24,"robot":4,"valence":"lose","action":"no-go","sham":1,"trial_type":"pit-trial","trial_index":39,"time_elapsed":458190,"internal_node_id":"0.0-26.0","task_version":"battery-v0.1"},{"rune":"F","hex":"#3366ff99","correct":32,"choice":32,"rt":437.48999999661464,"accuracy":1,"outcome":"+10","keys":[1938.095000004978],"total_keys":1,"block":1,"trial":25,"robot":1,"valence":"win","action":"go","sham":0,"trial_type":"pit-trial","trial_index":40,"time_elapsed":461332,"internal_node_id":"0.0-27.0","task_version":"battery-v0.1"},{"rune":"H","hex":"#3366ff99","correct":-1,"choice":-1,"rt":-1,"accuracy":1,"outcome":"+10","keys":[],"total_keys":0,"block":1,"trial":26,"robot":2,"valence":"win","action":"no-go","sham":0,"trial_type":"pit-trial","trial_index":41,"time_elapsed":465336,"internal_node_id":"0.0-28.0","task_version":"battery-v0.1"},{"rune":"R","hex":"#3366ff99","correct":32,"choice":32,"rt":329.8499999946216,"accuracy":1,"outcome":"+1","keys":[1831.0550000023795],"total_keys":1,"block":1,"trial":27,"robot":1,"valence":"win","action":"go","sham":1,"trial_type":"pit-trial","trial_index":42,"time_elapsed":468374,"internal_node_id":"0.0-29.0","task_version":"battery-v0.1"},{"rune":"T","hex":"#f73b6a7A","correct":-1,"choice":-1,"rt":-1,"accuracy":1,"outcome":"-1","keys":[],"total_keys":0,"block":1,"trial":28,"robot":4,"valence":"lose","action":"no-go","sham":0,"trial_type":"pit-trial","trial_index":43,"time_elapsed":472379,"internal_node_id":"0.0-30.0","task_version":"battery-v0.1"},{"rune":"R","hex":"#3366ff99","correct":32,"choice":32,"rt":832.6750000123866,"accuracy":1,"outcome":"+10","keys":[2333.249999996042],"total_keys":1,"block":1,"trial":29,"robot":1,"valence":"win","action":"go","sham":0,"trial_type":"pit-trial","trial_index":44,"time_elapsed":475917,"internal_node_id":"0.0-31.0","task_version":"battery-v0.1"},{"rune":"H","hex":"#3366ff99","correct":-1,"choice":-1,"rt":-1,"accuracy":1,"outcome":"+10","keys":[],"total_keys":0,"block":1,"trial":30,"robot":2,"valence":"win","action":"no-go","sham":0,"trial_type":"pit-trial","trial_index":45,"time_elapsed":479923,"internal_node_id":"0.0-32.0","task_version":"battery-v0.1"},{"rune":"F","hex":"#3366ff99","correct":32,"choice":32,"rt":375.3149999974994,"accuracy":1,"outcome":"+1","keys":[1877.2750000061933],"total_keys":1,"block":1,"trial":31,"robot":1,"valence":"win","action":"go","sham":1,"trial_type":"pit-trial","trial_index":46,"time_elapsed":483005,"internal_node_id":"0.0-33.0","task_version":"battery-v0.1"},{"rune":"T","hex":"#f73b6a7A","correct":-1,"choice":-1,"rt":-1,"accuracy":1,"outcome":"-1","keys":[],"total_keys":0,"block":1,"trial":32,"robot":4,"valence":"lose","action":"no-go","sham":0,"trial_type":"pit-trial","trial_index":47,"time_elapsed":487011,"internal_node_id":"0.0-34.0","task_version":"battery-v0.1"},{"rune":"T","hex":"#f73b6a7A","correct":-1,"choice":-1,"rt":-1,"accuracy":1,"outcome":"-1","keys":[],"total_keys":0,"block":1,"trial":33,"robot":4,"valence":"lose","action":"no-go","sham":0,"trial_type":"pit-trial","trial_index":48,"time_elapsed":491016,"internal_node_id":"0.0-35.0","task_version":"battery-v0.1"},{"rune":"F","hex":"#3366ff99","correct":32,"choice":32,"rt":363.5250000079395,"accuracy":1,"outcome":"+10","keys":[1863.6350000015227],"total_keys":1,"block":1,"trial":34,"robot":1,"valence":"win","action":"go","sham":0,"trial_type":"pit-trial","trial_index":49,"time_elapsed":494084,"internal_node_id":"0.0-36.0","task_version":"battery-v0.1"},{"rune":"H","hex":"#3366ff99","correct":-1,"choice":-1,"rt":-1,"accuracy":1,"outcome":"+10","keys":[],"total_keys":0,"block":1,"trial":35,"robot":2,"valence":"win","action":"no-go","sham":0,"trial_type":"pit-trial","trial_index":50,"time_elapsed":498090,"internal_node_id":"0.0-37.0","task_version":"battery-v0.1"},{"rune":"L","hex":"#3366ff99","correct":32,"choice":-1,"rt":-1,"accuracy":0,"outcome":"+1","keys":[],"total_keys":0,"block":1,"trial":36,"robot":1,"valence":"win","action":"go","sham":0,"trial_type":"pit-trial","trial_index":51,"time_elapsed":502095,"internal_node_id":"0.0-38.0","task_version":"battery-v0.1"},{"rune":"H","hex":"#3366ff99","correct":-1,"choice":-1,"rt":-1,"accuracy":1,"outcome":"+10","keys":[],"total_keys":0,"block":1,"trial":37,"robot":2,"valence":"win","action":"no-go","sham":0,"trial_type":"pit-trial","trial_index":52,"time_elapsed":506100,"internal_node_id":"0.0-39.0","task_version":"battery-v0.1"},{"rune":"F","hex":"#3366ff99","correct":32,"choice":32,"rt":400.2699999982724,"accuracy":1,"outcome":"+1","keys":[1900.5100000067614],"total_keys":1,"block":1,"trial":38,"robot":1,"valence":"win","action":"go","sham":1,"trial_type":"pit-trial","trial_index":53,"time_elapsed":509205,"internal_node_id":"0.0-40.0","task_version":"battery-v0.1"},{"rune":"L","hex":"#3366ff99","correct":32,"choice":32,"rt":647.1799999999348,"accuracy":1,"outcome":"+10","keys":[2147.3100000002887],"total_keys":1,"block":1,"trial":39,"robot":1,"valence":"win","action":"go","sham":0,"trial_type":"pit-trial","trial_index":54,"time_elapsed":512556,"internal_node_id":"0.0-41.0","task_version":"battery-v0.1"},{"rune":"T","hex":"#f73b6a7A","correct":-1,"choice":-1,"rt":-1,"accuracy":1,"outcome":"-1","keys":[],"total_keys":0,"block":1,"trial":40,"robot":4,"valence":"lose","action":"no-go","sham":0,"trial_type":"pit-trial","trial_index":55,"time_elapsed":516560,"internal_node_id":"0.0-42.0","task_version":"battery-v0.1"},{"rune":"L","hex":"#3366ff99","correct":32,"choice":32,"rt":387.41500000469387,"accuracy":1,"outcome":"+10","keys":[1887.7400000055786],"total_keys":1,"block":1,"trial":41,"robot":1,"valence":"win","action":"go","sham":0,"trial_type":"pit-trial","trial_index":56,"time_elapsed":519653,"internal_node_id":"0.0-43.0","task_version":"battery-v0.1"},{"rune":"I","hex":"#f73b6a7A","correct":32,"choice":-1,"rt":-1,"accuracy":0,"outcome":"-10","keys":[],"total_keys":0,"block":1,"trial":42,"robot":3,"valence":"lose","action":"go","sham":0,"trial_type":"pit-trial","trial_index":57,"time_elapsed":523659,"internal_node_id":"0.0-44.0","task_version":"battery-v0.1"},{"rune":"H","hex":"#3366ff99","correct":-1,"choice":-1,"rt":-1,"accuracy":1,"outcome":"+10","keys":[],"total_keys":0,"block":1,"trial":43,"robot":2,"valence":"win","action":"no-go","sham":0,"trial_type":"pit-trial","trial_index":58,"time_elapsed":527664,"internal_node_id":"0.0-45.0","task_version":"battery-v0.1"},{"rune":"M","hex":"#f73b6a7A","correct":-1,"choice":-1,"rt":-1,"accuracy":1,"outcome":"-1","keys":[],"total_keys":0,"block":1,"trial":44,"robot":4,"valence":"lose","action":"no-go","sham":0,"trial_type":"pit-trial","trial_index":59,"time_elapsed":531669,"internal_node_id":"0.0-46.0","task_version":"battery-v0.1"},{"rune":"I","hex":"#f73b6a7A","correct":32,"choice":-1,"rt":-1,"accuracy":0,"outcome":"-10","keys":[],"total_keys":0,"block":1,"trial":45,"robot":3,"valence":"lose","action":"go","sham":0,"trial_type":"pit-trial","trial_index":60,"time_elapsed":535673,"internal_node_id":"0.0-47.0","task_version":"battery-v0.1"},{"rune":"M","hex":"#f73b6a7A","correct":-1,"choice":-1,"rt":-1,"accuracy":1,"outcome":"-1","keys":[],"total_keys":0,"block":1,"trial":46,"robot":4,"valence":"lose","action":"no-go","sham":0,"trial_type":"pit-trial","trial_index":61,"time_elapsed":539678,"internal_node_id":"0.0-48.0","task_version":"battery-v0.1"},{"rune":"L","hex":"#3366ff99","correct":32,"choice":32,"rt":373.71499999426305,"accuracy":1,"outcome":"+1","keys":[1873.844999994617],"total_keys":1,"block":1,"trial":47,"robot":1,"valence":"win","action":"go","sham":1,"trial_type":"pit-trial","trial_index":62,"time_elapsed":542756,"internal_node_id":"0.0-49.0","task_version":"battery-v0.1"},{"rune":"H","hex":"#3366ff99","correct":-1,"choice":-1,"rt":-1,"accuracy":1,"outcome":"+10","keys":[],"total_keys":0,"block":1,"trial":48,"robot":2,"valence":"win","action":"no-go","sham":0,"trial_type":"pit-trial","trial_index":63,"time_elapsed":546761,"internal_node_id":"0.0-50.0","task_version":"battery-v0.1"},{"rune":"I","hex":"#f73b6a7A","correct":32,"choice":32,"rt":458.4000000031665,"accuracy":1,"outcome":"-10","keys":[1959.2149999953108],"total_keys":1,"block":1,"trial":49,"robot":3,"valence":"lose","action":"go","sham":1,"trial_type":"pit-trial","trial_index":64,"time_elapsed":549924,"internal_node_id":"0.0-51.0","task_version":"battery-v0.1"},{"rune":"Z","hex":"#3366ff99","correct":-1,"choice":-1,"rt":-1,"accuracy":1,"outcome":"+10","keys":[],"total_keys":0,"block":1,"trial":50,"robot":2,"valence":"win","action":"no-go","sham":0,"trial_type":"pit-trial","trial_index":65,"time_elapsed":553930,"internal_node_id":"0.0-52.0","task_version":"battery-v0.1"},{"rune":"L","hex":"#3366ff99","correct":32,"choice":32,"rt":427.0549999928335,"accuracy":1,"outcome":"+10","keys":[1927.1549999975832],"total_keys":1,"block":1,"trial":51,"robot":1,"valence":"win","action":"go","sham":0,"trial_type":"pit-trial","trial_index":66,"time_elapsed":557061,"internal_node_id":"0.0-53.0","task_version":"battery-v0.1"},{"rune":"M","hex":"#f73b6a7A","correct":-1,"choice":-1,"rt":-1,"accuracy":1,"outcome":"-1","keys":[],"total_keys":0,"block":1,"trial":52,"robot":4,"valence":"lose","action":"no-go","sham":0,"trial_type":"pit-trial","trial_index":67,"time_elapsed":561066,"internal_node_id":"0.0-54.0","task_version":"battery-v0.1"},{"rune":"L","hex":"#3366ff99","correct":32,"choice":32,"rt":346.25999999116175,"accuracy":1,"outcome":"+10","keys":[1846.5649999998277],"total_keys":1,"block":1,"trial":53,"robot":1,"valence":"win","action":"go","sham":0,"trial_type":"pit-trial","trial_index":68,"time_elapsed":564117,"internal_node_id":"0.0-55.0","task_version":"battery-v0.1"},{"rune":"I","hex":"#f73b6a7A","correct":32,"choice":-1,"rt":-1,"accuracy":0,"outcome":"-10","keys":[],"total_keys":0,"block":1,"trial":54,"robot":3,"valence":"lose","action":"go","sham":0,"trial_type":"pit-trial","trial_index":69,"time_elapsed":568122,"internal_node_id":"0.0-56.0","task_version":"battery-v0.1"},{"rune":"Z","hex":"#3366ff99","correct":-1,"choice":-1,"rt":-1,"accuracy":1,"outcome":"+1","keys":[],"total_keys":0,"block":1,"trial":55,"robot":2,"valence":"win","action":"no-go","sham":1,"trial_type":"pit-trial","trial_index":70,"time_elapsed":572128,"internal_node_id":"0.0-57.0","task_version":"battery-v0.1"},{"rune":"M","hex":"#f73b6a7A","correct":-1,"choice":-1,"rt":-1,"accuracy":1,"outcome":"-1","keys":[],"total_keys":0,"block":1,"trial":56,"robot":4,"valence":"lose","action":"no-go","sham":0,"trial_type":"pit-trial","trial_index":71,"time_elapsed":576134,"internal_node_id":"0.0-58.0","task_version":"battery-v0.1"},{"rune":"L","hex":"#3366ff99","correct":32,"choice":32,"rt":390.76500000373926,"accuracy":1,"outcome":"+1","keys":[1891.2549999949988],"total_keys":1,"block":1,"trial":57,"robot":1,"valence":"win","action":"go","sham":1,"trial_type":"pit-trial","trial_index":72,"time_elapsed":579229,"internal_node_id":"0.0-59.0","task_version":"battery-v0.1"},{"rune":"M","hex":"#f73b6a7A","correct":-1,"choice":-1,"rt":-1,"accuracy":1,"outcome":"-1","keys":[],"total_keys":0,"block":1,"trial":58,"robot":4,"valence":"lose","action":"no-go","sham":0,"trial_type":"pit-trial","trial_index":73,"time_elapsed":583235,"internal_node_id":"0.0-60.0","task_version":"battery-v0.1"},{"rune":"I","hex":"#f73b6a7A","correct":32,"choice":32,"rt":496.97000000742264,"accuracy":1,"outcome":"-10","keys":[1997.8699999919627],"total_keys":1,"block":1,"trial":59,"robot":3,"valence":"lose","action":"go","sham":1,"trial_type":"pit-trial","trial_index":74,"time_elapsed":586438,"internal_node_id":"0.0-61.0","task_version":"battery-v0.1"},{"rune":"Z","hex":"#3366ff99","correct":-1,"choice":32,"rt":551.034999996773,"accuracy":0,"outcome":"+1","keys":[2051.2500000040745],"total_keys":1,"block":1,"trial":60,"robot":2,"valence":"win","action":"no-go","sham":0,"trial_type":"pit-trial","trial_index":75,"time_elapsed":589693,"internal_node_id":"0.0-62.0","task_version":"battery-v0.1"},{"rune":"L","hex":"#3366ff99","correct":32,"choice":32,"rt":278.48500000254717,"accuracy":1,"outcome":"+10","keys":[1780.1350000081584],"total_keys":1,"block":1,"trial":61,"robot":1,"valence":"win","action":"go","sham":0,"trial_type":"pit-trial","trial_index":76,"time_elapsed":592677,"internal_node_id":"0.0-63.0","task_version":"battery-v0.1"},{"rune":"I","hex":"#f73b6a7A","correct":32,"choice":32,"rt":423.86500000429805,"accuracy":1,"outcome":"-10","keys":[1924.220000000787],"total_keys":1,"block":1,"trial":62,"robot":3,"valence":"lose","action":"go","sham":1,"trial_type":"pit-trial","trial_index":77,"time_elapsed":595806,"internal_node_id":"0.0-64.0","task_version":"battery-v0.1"},{"rune":"Z","hex":"#3366ff99","correct":-1,"choice":32,"rt":493.64000000059605,"accuracy":0,"outcome":"+1","keys":[1995.3050000040093],"total_keys":1,"block":1,"trial":63,"robot":2,"valence":"win","action":"no-go","sham":0,"trial_type":"pit-trial","trial_index":78,"time_elapsed":599005,"internal_node_id":"0.0-65.0","task_version":"battery-v0.1"},{"rune":"M","hex":"#f73b6a7A","correct":-1,"choice":-1,"rt":-1,"accuracy":1,"outcome":"-1","keys":[],"total_keys":0,"block":1,"trial":64,"robot":4,"valence":"lose","action":"no-go","sham":0,"trial_type":"pit-trial","trial_index":79,"time_elapsed":603010,"internal_node_id":"0.0-66.0","task_version":"battery-v0.1"},{"rune":"M","hex":"#f73b6a7A","correct":-1,"choice":-1,"rt":-1,"accuracy":1,"outcome":"-10","keys":[],"total_keys":0,"block":1,"trial":65,"robot":4,"valence":"lose","action":"no-go","sham":1,"trial_type":"pit-trial","trial_index":80,"time_elapsed":607016,"internal_node_id":"0.0-67.0","task_version":"battery-v0.1"},{"rune":"L","hex":"#3366ff99","correct":32,"choice":32,"rt":324.43000000785105,"accuracy":1,"outcome":"+10","keys":[1825.4249999881722],"total_keys":1,"block":1,"trial":66,"robot":1,"valence":"win","action":"go","sham":0,"trial_type":"pit-trial","trial_index":81,"time_elapsed":610045,"internal_node_id":"0.0-68.0","task_version":"battery-v0.1"},{"rune":"Z","hex":"#3366ff99","correct":-1,"choice":-1,"rt":-1,"accuracy":1,"outcome":"+10","keys":[],"total_keys":0,"block":1,"trial":67,"robot":2,"valence":"win","action":"no-go","sham":0,"trial_type":"pit-trial","trial_index":82,"time_elapsed":614049,"internal_node_id":"0.0-69.0","task_version":"battery-v0.1"},{"rune":"I","hex":"#f73b6a7A","correct":32,"choice":-1,"rt":-1,"accuracy":0,"outcome":"-10","keys":[],"total_keys":0,"block":1,"trial":68,"robot":3,"valence":"lose","action":"go","sham":0,"trial_type":"pit-trial","trial_index":83,"time_elapsed":618055,"internal_node_id":"0.0-70.0","task_version":"battery-v0.1"},{"rune":"Z","hex":"#3366ff99","correct":-1,"choice":-1,"rt":-1,"accuracy":1,"outcome":"+10","keys":[],"total_keys":0,"block":1,"trial":69,"robot":2,"valence":"win","action":"no-go","sham":0,"trial_type":"pit-trial","trial_index":84,"time_elapsed":622060,"internal_node_id":"0.0-71.0","task_version":"battery-v0.1"},{"rune":"M","hex":"#f73b6a7A","correct":-1,"choice":-1,"rt":-1,"accuracy":1,"outcome":"-1","keys":[],"total_keys":0,"block":1,"trial":70,"robot":4,"valence":"lose","action":"no-go","sham":0,"trial_type":"pit-trial","trial_index":85,"time_elapsed":626065,"internal_node_id":"0.0-72.0","task_version":"battery-v0.1"},{"rune":"I","hex":"#f73b6a7A","correct":32,"choice":-1,"rt":-1,"accuracy":0,"outcome":"-10","keys":[],"total_keys":0,"block":1,"trial":71,"robot":3,"valence":"lose","action":"go","sham":0,"trial_type":"pit-trial","trial_index":86,"time_elapsed":630070,"internal_node_id":"0.0-73.0","task_version":"battery-v0.1"},{"rune":"L","hex":"#3366ff99","correct":32,"choice":32,"rt":398.66999999503605,"accuracy":1,"outcome":"+1","keys":[1898.9000000001397],"total_keys":1,"block":1,"trial":72,"robot":1,"valence":"win","action":"go","sham":1,"trial_type":"pit-trial","trial_index":87,"time_elapsed":633174,"internal_node_id":"0.0-74.0","task_version":"battery-v0.1"},{"rune":"M","hex":"#f73b6a7A","correct":-1,"choice":-1,"rt":-1,"accuracy":1,"outcome":"-1","keys":[],"total_keys":0,"block":1,"trial":73,"robot":4,"valence":"lose","action":"no-go","sham":0,"trial_type":"pit-trial","trial_index":88,"time_elapsed":637180,"internal_node_id":"0.0-75.0","task_version":"battery-v0.1"},{"rune":"J","hex":"#f73b6a7A","correct":32,"choice":-1,"rt":-1,"accuracy":0,"outcome":"-10","keys":[],"total_keys":0,"block":1,"trial":74,"robot":3,"valence":"lose","action":"go","sham":0,"trial_type":"pit-trial","trial_index":89,"time_elapsed":641186,"internal_node_id":"0.0-76.0","task_version":"battery-v0.1"},{"rune":"L","hex":"#3366ff99","correct":32,"choice":32,"rt":466.05499999714084,"accuracy":1,"outcome":"+10","keys":[1966.7950000002747],"total_keys":1,"block":1,"trial":75,"robot":1,"valence":"win","action":"go","sham":0,"trial_type":"pit-trial","trial_index":90,"time_elapsed":644357,"internal_node_id":"0.0-77.0","task_version":"battery-v0.1"},{"rune":"Z","hex":"#3366ff99","correct":-1,"choice":-1,"rt":-1,"accuracy":1,"outcome":"+10","keys":[],"total_keys":0,"block":1,"trial":76,"robot":2,"valence":"win","action":"no-go","sham":0,"trial_type":"pit-trial","trial_index":91,"time_elapsed":648361,"internal_node_id":"0.0-78.0","task_version":"battery-v0.1"},{"rune":"J","hex":"#f73b6a7A","correct":32,"choice":-1,"rt":-1,"accuracy":0,"outcome":"-10","keys":[],"total_keys":0,"block":1,"trial":77,"robot":3,"valence":"lose","action":"go","sham":0,"trial_type":"pit-trial","trial_index":92,"time_elapsed":652366,"internal_node_id":"0.0-79.0","task_version":"battery-v0.1"},{"rune":"L","hex":"#3366ff99","correct":32,"choice":32,"rt":420.8599999983562,"accuracy":1,"outcome":"+10","keys":[1922.725000011269],"total_keys":1,"block":1,"trial":78,"robot":1,"valence":"win","action":"go","sham":0,"trial_type":"pit-trial","trial_index":93,"time_elapsed":655494,"internal_node_id":"0.0-80.0","task_version":"battery-v0.1"},{"rune":"Z","hex":"#3366ff99","correct":-1,"choice":-1,"rt":-1,"accuracy":1,"outcome":"+10","keys":[],"total_keys":0,"block":1,"trial":79,"robot":2,"valence":"win","action":"no-go","sham":0,"trial_type":"pit-trial","trial_index":94,"time_elapsed":659499,"internal_node_id":"0.0-81.0","task_version":"battery-v0.1"},{"rune":"M","hex":"#f73b6a7A","correct":-1,"choice":-1,"rt":-1,"accuracy":1,"outcome":"-1","keys":[],"total_keys":0,"block":1,"trial":80,"robot":4,"valence":"lose","action":"no-go","sham":0,"trial_type":"pit-trial","trial_index":95,"time_elapsed":663505,"internal_node_id":"0.0-82.0","task_version":"battery-v0.1"},{"rune":"Z","hex":"#3366ff99","correct":-1,"choice":-1,"rt":-1,"accuracy":1,"outcome":"+10","keys":[],"total_keys":0,"block":1,"trial":81,"robot":2,"valence":"win","action":"no-go","sham":0,"trial_type":"pit-trial","trial_index":96,"time_elapsed":667509,"internal_node_id":"0.0-83.0","task_version":"battery-v0.1"},{"rune":"N","hex":"#f73b6a7A","correct":32,"choice":-1,"rt":-1,"accuracy":0,"outcome":"-1","keys":[],"total_keys":0,"block":1,"trial":82,"robot":3,"valence":"lose","action":"go","sham":1,"trial_type":"pit-trial","trial_index":97,"time_elapsed":671515,"internal_node_id":"0.0-84.0","task_version":"battery-v0.1"},{"rune":"J","hex":"#f73b6a7A","correct":32,"choice":32,"rt":425.3900000039721,"accuracy":1,"outcome":"-1","keys":[1925.7399999914924],"total_keys":1,"block":1,"trial":83,"robot":3,"valence":"lose","action":"go","sham":0,"trial_type":"pit-trial","trial_index":98,"time_elapsed":674646,"internal_node_id":"0.0-85.0","task_version":"battery-v0.1"},{"rune":"M","hex":"#f73b6a7A","correct":-1,"choice":-1,"rt":-1,"accuracy":1,"outcome":"-1","keys":[],"total_keys":0,"block":1,"trial":84,"robot":4,"valence":"lose","action":"no-go","sham":0,"trial_type":"pit-trial","trial_index":99,"time_elapsed":678652,"internal_node_id":"0.0-86.0","task_version":"battery-v0.1"},{"rune":"Z","hex":"#3366ff99","correct":-1,"choice":-1,"rt":-1,"accuracy":1,"outcome":"+10","keys":[],"total_keys":0,"block":1,"trial":85,"robot":2,"valence":"win","action":"no-go","sham":0,"trial_type":"pit-trial","trial_index":100,"time_elapsed":682656,"internal_node_id":"0.0-87.0","task_version":"battery-v0.1"},{"rune":"J","hex":"#f73b6a7A","correct":32,"choice":32,"rt":404.64999999676365,"accuracy":1,"outcome":"-1","keys":[1904.7300000092946],"total_keys":1,"block":1,"trial":86,"robot":3,"valence":"lose","action":"go","sham":0,"trial_type":"pit-trial","trial_index":101,"time_elapsed":685765,"internal_node_id":"0.0-88.0","task_version":"battery-v0.1"},{"rune":"M","hex":"#f73b6a7A","correct":-1,"choice":-1,"rt":-1,"accuracy":1,"outcome":"-1","keys":[],"total_keys":0,"block":1,"trial":87,"robot":4,"valence":"lose","action":"no-go","sham":0,"trial_type":"pit-trial","trial_index":102,"time_elapsed":689770,"internal_node_id":"0.0-89.0","task_version":"battery-v0.1"},{"rune":"N","hex":"#f73b6a7A","correct":32,"choice":-1,"rt":-1,"accuracy":0,"outcome":"-1","keys":[],"total_keys":0,"block":1,"trial":88,"robot":3,"valence":"lose","action":"go","sham":1,"trial_type":"pit-trial","trial_index":103,"time_elapsed":693774,"internal_node_id":"0.0-90.0","task_version":"battery-v0.1"},{"rune":"Q","hex":"#3366ff99","correct":-1,"choice":-1,"rt":-1,"accuracy":1,"outcome":"+10","keys":[],"total_keys":0,"block":1,"trial":89,"robot":2,"valence":"win","action":"no-go","sham":0,"trial_type":"pit-trial","trial_index":104,"time_elapsed":697779,"internal_node_id":"0.0-91.0","task_version":"battery-v0.1"},{"rune":"D","hex":"#f73b6a7A","correct":-1,"choice":-1,"rt":-1,"accuracy":1,"outcome":"-1","keys":[],"total_keys":0,"block":1,"trial":90,"robot":4,"valence":"lose","action":"no-go","sham":0,"trial_type":"pit-trial","trial_index":105,"time_elapsed":701784,"internal_node_id":"0.0-92.0","task_version":"battery-v0.1"},{"rune":"N","hex":"#f73b6a7A","correct":32,"choice":-1,"rt":-1,"accuracy":0,"outcome":"-10","keys":[],"total_keys":0,"block":1,"trial":91,"robot":3,"valence":"lose","action":"go","sham":0,"trial_type":"pit-trial","trial_index":106,"time_elapsed":705788,"internal_node_id":"0.0-93.0","task_version":"battery-v0.1"},{"rune":"J","hex":"#f73b6a7A","correct":32,"choice":32,"rt":328.78500000515487,"accuracy":1,"outcome":"-1","keys":[1828.865000003134],"total_keys":1,"block":1,"trial":92,"robot":3,"valence":"lose","action":"go","sham":0,"trial_type":"pit-trial","trial_index":107,"time_elapsed":708821,"internal_node_id":"0.0-94.0","task_version":"battery-v0.1"},{"rune":"Q","hex":"#3366ff99","correct":-1,"choice":-1,"rt":-1,"accuracy":1,"outcome":"+1","keys":[],"total_keys":0,"block":1,"trial":93,"robot":2,"valence":"win","action":"no-go","sham":1,"trial_type":"pit-trial","trial_index":108,"time_elapsed":712827,"internal_node_id":"0.0-95.0","task_version":"battery-v0.1"},{"rune":"N","hex":"#f73b6a7A","correct":32,"choice":-1,"rt":-1,"accuracy":0,"outcome":"-10","keys":[],"total_keys":0,"block":1,"trial":94,"robot":3,"valence":"lose","action":"go","sham":0,"trial_type":"pit-trial","trial_index":109,"time_elapsed":716833,"internal_node_id":"0.0-96.0","task_version":"battery-v0.1"},{"rune":"D","hex":"#f73b6a7A","correct":-1,"choice":-1,"rt":-1,"accuracy":1,"outcome":"-1","keys":[],"total_keys":0,"block":1,"trial":95,"robot":4,"valence":"lose","action":"no-go","sham":0,"trial_type":"pit-trial","trial_index":110,"time_elapsed":720838,"internal_node_id":"0.0-97.0","task_version":"battery-v0.1"},{"rune":"J","hex":"#f73b6a7A","correct":32,"choice":32,"rt":349.18499999912456,"accuracy":1,"outcome":"-1","keys":[1850.559999991674],"total_keys":1,"block":1,"trial":96,"robot":3,"valence":"lose","action":"go","sham":0,"trial_type":"pit-trial","trial_index":111,"time_elapsed":723893,"internal_node_id":"0.0-98.0","task_version":"battery-v0.1"},{"rune":"N","hex":"#f73b6a7A","correct":32,"choice":-1,"rt":-1,"accuracy":0,"outcome":"-10","keys":[],"total_keys":0,"block":1,"trial":97,"robot":3,"valence":"lose","action":"go","sham":0,"trial_type":"pit-trial","trial_index":112,"time_elapsed":727898,"internal_node_id":"0.0-99.0","task_version":"battery-v0.1"},{"rune":"J","hex":"#f73b6a7A","correct":32,"choice":32,"rt":352.74000000208616,"accuracy":1,"outcome":"-1","keys":[1853.8100000005215],"total_keys":1,"block":1,"trial":98,"robot":3,"valence":"lose","action":"go","sham":0,"trial_type":"pit-trial","trial_index":113,"time_elapsed":730958,"internal_node_id":"0.0-100.0","task_version":"battery-v0.1"},{"rune":"Q","hex":"#3366ff99","correct":-1,"choice":32,"rt":446.41000000410713,"accuracy":0,"outcome":"+1","keys":[1946.9949999911478],"total_keys":1,"block":1,"trial":99,"robot":2,"valence":"win","action":"no-go","sham":0,"trial_type":"pit-trial","trial_index":114,"time_elapsed":734110,"internal_node_id":"0.0-101.0","task_version":"battery-v0.1"},{"rune":"D","hex":"#f73b6a7A","correct":-1,"choice":-1,"rt":-1,"accuracy":1,"outcome":"-1","keys":[],"total_keys":0,"block":1,"trial":100,"robot":4,"valence":"lose","action":"no-go","sham":0,"trial_type":"pit-trial","trial_index":115,"time_elapsed":738115,"internal_node_id":"0.0-102.0","task_version":"battery-v0.1"},{"rune":"Q","hex":"#3366ff99","correct":-1,"choice":-1,"rt":-1,"accuracy":1,"outcome":"+10","keys":[],"total_keys":0,"block":1,"trial":101,"robot":2,"valence":"win","action":"no-go","sham":0,"trial_type":"pit-trial","trial_index":116,"time_elapsed":742121,"internal_node_id":"0.0-103.0","task_version":"battery-v0.1"},{"rune":"D","hex":"#f73b6a7A","correct":-1,"choice":-1,"rt":-1,"accuracy":1,"outcome":"-1","keys":[],"total_keys":0,"block":1,"trial":102,"robot":4,"valence":"lose","action":"no-go","sham":0,"trial_type":"pit-trial","trial_index":117,"time_elapsed":746126,"internal_node_id":"0.0-104.0","task_version":"battery-v0.1"},{"rune":"J","hex":"#f73b6a7A","correct":32,"choice":32,"rt":350.7899999967776,"accuracy":1,"outcome":"-1","keys":[1850.8849999925587],"total_keys":1,"block":1,"trial":103,"robot":3,"valence":"lose","action":"go","sham":0,"trial_type":"pit-trial","trial_index":118,"time_elapsed":749180,"internal_node_id":"0.0-105.0","task_version":"battery-v0.1"},{"rune":"N","hex":"#f73b6a7A","correct":32,"choice":-1,"rt":-1,"accuracy":0,"outcome":"-10","keys":[],"total_keys":0,"block":1,"trial":104,"robot":3,"valence":"lose","action":"go","sham":0,"trial_type":"pit-trial","trial_index":119,"time_elapsed":753186,"internal_node_id":"0.0-106.0","task_version":"battery-v0.1"},{"rune":"D","hex":"#f73b6a7A","correct":-1,"choice":-1,"rt":-1,"accuracy":1,"outcome":"-10","keys":[],"total_keys":0,"block":1,"trial":105,"robot":4,"valence":"lose","action":"no-go","sham":1,"trial_type":"pit-trial","trial_index":120,"time_elapsed":757192,"internal_node_id":"0.0-107.0","task_version":"battery-v0.1"},{"rune":"Q","hex":"#3366ff99","correct":-1,"choice":-1,"rt":-1,"accuracy":1,"outcome":"+10","keys":[],"total_keys":0,"block":1,"trial":106,"robot":2,"valence":"win","action":"no-go","sham":0,"trial_type":"pit-trial","trial_index":121,"time_elapsed":761197,"internal_node_id":"0.0-108.0","task_version":"battery-v0.1"},{"rune":"N","hex":"#f73b6a7A","correct":32,"choice":-1,"rt":-1,"accuracy":0,"outcome":"-10","keys":[],"total_keys":0,"block":1,"trial":107,"robot":3,"valence":"lose","action":"go","sham":0,"trial_type":"pit-trial","trial_index":122,"time_elapsed":765202,"internal_node_id":"0.0-109.0","task_version":"battery-v0.1"},{"rune":"J","hex":"#f73b6a7A","correct":32,"choice":32,"rt":553.925000000163,"accuracy":1,"outcome":"-1","keys":[2054.520000005141],"total_keys":1,"block":1,"trial":108,"robot":3,"valence":"lose","action":"go","sham":0,"trial_type":"pit-trial","trial_index":123,"time_elapsed":768461,"internal_node_id":"0.0-110.0","task_version":"battery-v0.1"},{"rune":"Q","hex":"#3366ff99","correct":-1,"choice":32,"rt":559.1649999987567,"accuracy":0,"outcome":"+1","keys":[2059.5699999976205],"total_keys":1,"block":1,"trial":109,"robot":2,"valence":"win","action":"no-go","sham":0,"trial_type":"pit-trial","trial_index":124,"time_elapsed":771725,"internal_node_id":"0.0-111.0","task_version":"battery-v0.1"},{"rune":"D","hex":"#f73b6a7A","correct":-1,"choice":-1,"rt":-1,"accuracy":1,"outcome":"-1","keys":[],"total_keys":0,"block":1,"trial":110,"robot":4,"valence":"lose","action":"no-go","sham":0,"trial_type":"pit-trial","trial_index":125,"time_elapsed":775731,"internal_node_id":"0.0-112.0","task_version":"battery-v0.1"},{"rune":"J","hex":"#f73b6a7A","correct":32,"choice":32,"rt":369.73500000021886,"accuracy":1,"outcome":"-1","keys":[1869.9599999963539],"total_keys":1,"block":1,"trial":111,"robot":3,"valence":"lose","action":"go","sham":0,"trial_type":"pit-trial","trial_index":126,"time_elapsed":778806,"internal_node_id":"0.0-113.0","task_version":"battery-v0.1"},{"rune":"N","hex":"#f73b6a7A","correct":32,"choice":-1,"rt":-1,"accuracy":0,"outcome":"-1","keys":[],"total_keys":0,"block":1,"trial":112,"robot":3,"valence":"lose","action":"go","sham":1,"trial_type":"pit-trial","trial_index":127,"time_elapsed":782811,"internal_node_id":"0.0-114.0","task_version":"battery-v0.1"},{"rune":"N","hex":"#f73b6a7A","correct":32,"choice":-1,"rt":-1,"accuracy":0,"outcome":"-1","keys":[],"total_keys":0,"block":1,"trial":113,"robot":3,"valence":"lose","action":"go","sham":1,"trial_type":"pit-trial","trial_index":128,"time_elapsed":786817,"internal_node_id":"0.0-115.0","task_version":"battery-v0.1"},{"rune":"J","hex":"#f73b6a7A","correct":32,"choice":32,"rt":419.7499999863794,"accuracy":1,"outcome":"-1","keys":[1920.2399999921909],"total_keys":1,"block":1,"trial":114,"robot":3,"valence":"lose","action":"go","sham":0,"trial_type":"pit-trial","trial_index":129,"time_elapsed":789941,"internal_node_id":"0.0-116.0","task_version":"battery-v0.1"},{"rune":"D","hex":"#f73b6a7A","correct":-1,"choice":-1,"rt":-1,"accuracy":1,"outcome":"-1","keys":[],"total_keys":0,"block":1,"trial":115,"robot":4,"valence":"lose","action":"no-go","sham":0,"trial_type":"pit-trial","trial_index":130,"time_elapsed":793946,"internal_node_id":"0.0-117.0","task_version":"battery-v0.1"},{"rune":"Q","hex":"#3366ff99","correct":-1,"choice":-1,"rt":-1,"accuracy":1,"outcome":"+10","keys":[],"total_keys":0,"block":1,"trial":116,"robot":2,"valence":"win","action":"no-go","sham":0,"trial_type":"pit-trial","trial_index":131,"time_elapsed":797952,"internal_node_id":"0.0-118.0","task_version":"battery-v0.1"},{"rune":"Q","hex":"#3366ff99","correct":-1,"choice":-1,"rt":-1,"accuracy":1,"outcome":"+10","keys":[],"total_keys":0,"block":1,"trial":117,"robot":2,"valence":"win","action":"no-go","sham":0,"trial_type":"pit-trial","trial_index":132,"time_elapsed":801957,"internal_node_id":"0.0-119.0","task_version":"battery-v0.1"},{"rune":"J","hex":"#f73b6a7A","correct":32,"choice":32,"rt":391.34000000194646,"accuracy":1,"outcome":"-10","keys":[1892.4600000027567],"total_keys":1,"block":1,"trial":118,"robot":3,"valence":"lose","action":"go","sham":1,"trial_type":"pit-trial","trial_index":133,"time_elapsed":805054,"internal_node_id":"0.0-120.0","task_version":"battery-v0.1"},{"rune":"N","hex":"#f73b6a7A","correct":32,"choice":-1,"rt":-1,"accuracy":0,"outcome":"-10","keys":[],"total_keys":0,"block":1,"trial":119,"robot":3,"valence":"lose","action":"go","sham":0,"trial_type":"pit-trial","trial_index":134,"time_elapsed":809059,"internal_node_id":"0.0-121.0","task_version":"battery-v0.1"},{"rune":"D","hex":"#f73b6a7A","correct":-1,"choice":32,"rt":729.0749999956461,"accuracy":0,"outcome":"-10","keys":[2230.0600000016857],"total_keys":1,"block":1,"trial":120,"robot":4,"valence":"lose","action":"no-go","sham":0,"trial_type":"pit-trial","trial_index":135,"time_elapsed":812494,"internal_node_id":"0.0-122.0","task_version":"battery-v0.1"},{"view_history":"[{\"page_index\":0,\"viewing_time\":43659.70499999821},{\"page_index\":1,\"viewing_time\":2192.1200000069803}]","rt":45852.23499999847,"trial_type":"pit-instructions","trial_index":136,"time_elapsed":858349,"internal_node_id":"0.0-123.0","task_version":"battery-v0.1"},{"rune":"P","hex":"#f73b6a7A","correct":-1,"choice":-1,"rt":-1,"accuracy":1,"outcome":"-1","keys":[],"total_keys":0,"block":2,"trial":121,"robot":4,"valence":"lose","action":"no-go","sham":0,"trial_type":"pit-trial","trial_index":137,"time_elapsed":862357,"internal_node_id":"0.0-124.0","task_version":"battery-v0.1"},{"rune":"V","hex":"#3366ff99","correct":-1,"choice":-1,"rt":-1,"accuracy":1,"outcome":"+10","keys":[],"total_keys":0,"block":2,"trial":122,"robot":2,"valence":"win","action":"no-go","sham":0,"trial_type":"pit-trial","trial_index":138,"time_elapsed":866363,"internal_node_id":"0.0-125.0","task_version":"battery-v0.1"},{"rune":"K","hex":"#f73b6a7A","correct":-1,"choice":-1,"rt":-1,"accuracy":1,"outcome":"-1","keys":[],"total_keys":0,"block":2,"trial":123,"robot":4,"valence":"lose","action":"no-go","sham":0,"trial_type":"pit-trial","trial_index":139,"time_elapsed":870368,"internal_node_id":"0.0-126.0","task_version":"battery-v0.1"},{"rune":"W","hex":"#3366ff99","correct":32,"choice":-1,"rt":-1,"accuracy":0,"outcome":"+1","keys":[],"total_keys":0,"block":2,"trial":124,"robot":1,"valence":"win","action":"go","sham":0,"trial_type":"pit-trial","trial_index":140,"time_elapsed":874373,"internal_node_id":"0.0-127.0","task_version":"battery-v0.1"},{"rune":"K","hex":"#f73b6a7A","correct":-1,"choice":-1,"rt":-1,"accuracy":1,"outcome":"-1","keys":[],"total_keys":0,"block":2,"trial":125,"robot":4,"valence":"lose","action":"no-go","sham":0,"trial_type":"pit-trial","trial_index":141,"time_elapsed":878378,"internal_node_id":"0.0-128.0","task_version":"battery-v0.1"},{"rune":"P","hex":"#f73b6a7A","correct":-1,"choice":-1,"rt":-1,"accuracy":1,"outcome":"-1","keys":[],"total_keys":0,"block":2,"trial":126,"robot":4,"valence":"lose","action":"no-go","sham":0,"trial_type":"pit-trial","trial_index":142,"time_elapsed":882383,"internal_node_id":"0.0-129.0","task_version":"battery-v0.1"},{"rune":"V","hex":"#3366ff99","correct":-1,"choice":32,"rt":1061.9600000063656,"accuracy":0,"outcome":"+1","keys":[2562.6849999971455],"total_keys":1,"block":2,"trial":127,"robot":2,"valence":"win","action":"no-go","sham":0,"trial_type":"pit-trial","trial_index":143,"time_elapsed":886149,"internal_node_id":"0.0-130.0","task_version":"battery-v0.1"},{"rune":"W","hex":"#3366ff99","correct":32,"choice":32,"rt":375.86499999451917,"accuracy":1,"outcome":"+10","keys":[1875.9200000058627],"total_keys":1,"block":2,"trial":128,"robot":1,"valence":"win","action":"go","sham":0,"trial_type":"pit-trial","trial_index":144,"time_elapsed":889230,"internal_node_id":"0.0-131.0","task_version":"battery-v0.1"},{"rune":"W","hex":"#3366ff99","correct":32,"choice":32,"rt":438.6499999964144,"accuracy":1,"outcome":"+1","keys":[1939.0950000088196],"total_keys":1,"block":2,"trial":129,"robot":1,"valence":"win","action":"go","sham":1,"trial_type":"pit-trial","trial_index":145,"time_elapsed":892373,"internal_node_id":"0.0-132.0","task_version":"battery-v0.1"},{"rune":"V","hex":"#3366ff99","correct":-1,"choice":-1,"rt":-1,"accuracy":1,"outcome":"+10","keys":[],"total_keys":0,"block":2,"trial":130,"robot":2,"valence":"win","action":"no-go","sham":0,"trial_type":"pit-trial","trial_index":146,"time_elapsed":896377,"internal_node_id":"0.0-133.0","task_version":"battery-v0.1"},{"rune":"P","hex":"#f73b6a7A","correct":-1,"choice":-1,"rt":-1,"accuracy":1,"outcome":"-1","keys":[],"total_keys":0,"block":2,"trial":131,"robot":4,"valence":"lose","action":"no-go","sham":0,"trial_type":"pit-trial","trial_index":147,"time_elapsed":900382,"internal_node_id":"0.0-134.0","task_version":"battery-v0.1"},{"rune":"K","hex":"#f73b6a7A","correct":-1,"choice":32,"rt":662.8900000068825,"accuracy":0,"outcome":"-1","keys":[2163.269999990007],"total_keys":1,"block":2,"trial":132,"robot":4,"valence":"lose","action":"no-go","sham":1,"trial_type":"pit-trial","trial_index":148,"time_elapsed":903749,"internal_node_id":"0.0-135.0","task_version":"battery-v0.1"},{"rune":"W","hex":"#3366ff99","correct":32,"choice":32,"rt":703.7799999961862,"accuracy":1,"outcome":"+10","keys":[2204.2749999964144],"total_keys":1,"block":2,"trial":133,"robot":1,"valence":"win","action":"go","sham":0,"trial_type":"pit-trial","trial_index":149,"time_elapsed":907157,"internal_node_id":"0.0-136.0","task_version":"battery-v0.1"},{"rune":"V","hex":"#3366ff99","correct":-1,"choice":-1,"rt":-1,"accuracy":1,"outcome":"+10","keys":[],"total_keys":0,"block":2,"trial":134,"robot":2,"valence":"win","action":"no-go","sham":0,"trial_type":"pit-trial","trial_index":150,"time_elapsed":911163,"internal_node_id":"0.0-137.0","task_version":"battery-v0.1"},{"rune":"K","hex":"#f73b6a7A","correct":-1,"choice":-1,"rt":-1,"accuracy":1,"outcome":"-1","keys":[],"total_keys":0,"block":2,"trial":135,"robot":4,"valence":"lose","action":"no-go","sham":0,"trial_type":"pit-trial","trial_index":151,"time_elapsed":915170,"internal_node_id":"0.0-138.0","task_version":"battery-v0.1"},{"rune":"P","hex":"#f73b6a7A","correct":-1,"choice":-1,"rt":-1,"accuracy":1,"outcome":"-1","keys":[],"total_keys":0,"block":2,"trial":136,"robot":4,"valence":"lose","action":"no-go","sham":0,"trial_type":"pit-trial","trial_index":152,"time_elapsed":919175,"internal_node_id":"0.0-139.0","task_version":"battery-v0.1"},{"rune":"K","hex":"#f73b6a7A","correct":-1,"choice":-1,"rt":-1,"accuracy":1,"outcome":"-1","keys":[],"total_keys":0,"block":2,"trial":137,"robot":4,"valence":"lose","action":"no-go","sham":0,"trial_type":"pit-trial","trial_index":153,"time_elapsed":923178,"internal_node_id":"0.0-140.0","task_version":"battery-v0.1"},{"rune":"W","hex":"#3366ff99","correct":32,"choice":32,"rt":273.92500000132713,"accuracy":1,"outcome":"+10","keys":[1774.4999999995343],"total_keys":1,"block":2,"trial":138,"robot":1,"valence":"win","action":"go","sham":0,"trial_type":"pit-trial","trial_index":154,"time_elapsed":926157,"internal_node_id":"0.0-141.0","task_version":"battery-v0.1"},{"rune":"P","hex":"#f73b6a7A","correct":-1,"choice":-1,"rt":-1,"accuracy":1,"outcome":"-1","keys":[],"total_keys":0,"block":2,"trial":139,"robot":4,"valence":"lose","action":"no-go","sham":0,"trial_type":"pit-trial","trial_index":155,"time_elapsed":930162,"internal_node_id":"0.0-142.0","task_version":"battery-v0.1"},{"rune":"V","hex":"#3366ff99","correct":-1,"choice":-1,"rt":-1,"accuracy":1,"outcome":"+10","keys":[],"total_keys":0,"block":2,"trial":140,"robot":2,"valence":"win","action":"no-go","sham":0,"trial_type":"pit-trial","trial_index":156,"time_elapsed":934166,"internal_node_id":"0.0-143.0","task_version":"battery-v0.1"},{"rune":"W","hex":"#3366ff99","correct":32,"choice":32,"rt":278.36999999999534,"accuracy":1,"outcome":"+10","keys":[1778.5900000017136],"total_keys":1,"block":2,"trial":141,"robot":1,"valence":"win","action":"go","sham":0,"trial_type":"pit-trial","trial_index":157,"time_elapsed":937148,"internal_node_id":"0.0-144.0","task_version":"battery-v0.1"},{"rune":"K","hex":"#f73b6a7A","correct":-1,"choice":-1,"rt":-1,"accuracy":1,"outcome":"-10","keys":[],"total_keys":0,"block":2,"trial":142,"robot":4,"valence":"lose","action":"no-go","sham":1,"trial_type":"pit-trial","trial_index":158,"time_elapsed":941153,"internal_node_id":"0.0-145.0","task_version":"battery-v0.1"},{"rune":"V","hex":"#3366ff99","correct":-1,"choice":-1,"rt":-1,"accuracy":1,"outcome":"+1","keys":[],"total_keys":0,"block":2,"trial":143,"robot":2,"valence":"win","action":"no-go","sham":1,"trial_type":"pit-trial","trial_index":159,"time_elapsed":945158,"internal_node_id":"0.0-146.0","task_version":"battery-v0.1"},{"rune":"P","hex":"#f73b6a7A","correct":-1,"choice":-1,"rt":-1,"accuracy":1,"outcome":"-1","keys":[],"total_keys":0,"block":2,"trial":144,"robot":4,"valence":"lose","action":"no-go","sham":0,"trial_type":"pit-trial","trial_index":160,"time_elapsed":949165,"internal_node_id":"0.0-147.0","task_version":"battery-v0.1"},{"rune":"W","hex":"#3366ff99","correct":32,"choice":32,"rt":398.975000003702,"accuracy":1,"outcome":"+10","keys":[1900.4100000020117],"total_keys":1,"block":2,"trial":145,"robot":1,"valence":"win","action":"go","sham":0,"trial_type":"pit-trial","trial_index":161,"time_elapsed":952269,"internal_node_id":"0.0-148.0","task_version":"battery-v0.1"},{"rune":"V","hex":"#3366ff99","correct":-1,"choice":-1,"rt":-1,"accuracy":1,"outcome":"+10","keys":[],"total_keys":0,"block":2,"trial":146,"robot":2,"valence":"win","action":"no-go","sham":0,"trial_type":"pit-trial","trial_index":162,"time_elapsed":956273,"internal_node_id":"0.0-149.0","task_version":"battery-v0.1"},{"rune":"P","hex":"#f73b6a7A","correct":-1,"choice":-1,"rt":-1,"accuracy":1,"outcome":"-1","keys":[],"total_keys":0,"block":2,"trial":147,"robot":4,"valence":"lose","action":"no-go","sham":0,"trial_type":"pit-trial","trial_index":163,"time_elapsed":960278,"internal_node_id":"0.0-150.0","task_version":"battery-v0.1"},{"rune":"K","hex":"#f73b6a7A","correct":-1,"choice":-1,"rt":-1,"accuracy":1,"outcome":"-10","keys":[],"total_keys":0,"block":2,"trial":148,"robot":4,"valence":"lose","action":"no-go","sham":1,"trial_type":"pit-trial","trial_index":164,"time_elapsed":964283,"internal_node_id":"0.0-151.0","task_version":"battery-v0.1"},{"rune":"P","hex":"#f73b6a7A","correct":-1,"choice":-1,"rt":-1,"accuracy":1,"outcome":"-10","keys":[],"total_keys":0,"block":2,"trial":149,"robot":4,"valence":"lose","action":"no-go","sham":1,"trial_type":"pit-trial","trial_index":165,"time_elapsed":968288,"internal_node_id":"0.0-152.0","task_version":"battery-v0.1"},{"rune":"V","hex":"#3366ff99","correct":-1,"choice":-1,"rt":-1,"accuracy":1,"outcome":"+10","keys":[],"total_keys":0,"block":2,"trial":150,"robot":2,"valence":"win","action":"no-go","sham":0,"trial_type":"pit-trial","trial_index":166,"time_elapsed":972293,"internal_node_id":"0.0-153.0","task_version":"battery-v0.1"},{"rune":"W","hex":"#3366ff99","correct":32,"choice":32,"rt":270.6049999978859,"accuracy":1,"outcome":"+10","keys":[1771.4100000011967],"total_keys":1,"block":2,"trial":151,"robot":1,"valence":"win","action":"go","sham":0,"trial_type":"pit-trial","trial_index":167,"time_elapsed":975269,"internal_node_id":"0.0-154.0","task_version":"battery-v0.1"},{"rune":"K","hex":"#f73b6a7A","correct":-1,"choice":-1,"rt":-1,"accuracy":1,"outcome":"-1","keys":[],"total_keys":0,"block":2,"trial":152,"robot":4,"valence":"lose","action":"no-go","sham":0,"trial_type":"pit-trial","trial_index":168,"time_elapsed":979274,"internal_node_id":"0.0-155.0","task_version":"battery-v0.1"},{"rune":"V","hex":"#3366ff99","correct":-1,"choice":-1,"rt":-1,"accuracy":1,"outcome":"+10","keys":[],"total_keys":0,"block":2,"trial":153,"robot":2,"valence":"win","action":"no-go","sham":0,"trial_type":"pit-trial","trial_index":169,"time_elapsed":983279,"internal_node_id":"0.0-156.0","task_version":"battery-v0.1"},{"rune":"P","hex":"#f73b6a7A","correct":-1,"choice":-1,"rt":-1,"accuracy":1,"outcome":"-1","keys":[],"total_keys":0,"block":2,"trial":154,"robot":4,"valence":"lose","action":"no-go","sham":0,"trial_type":"pit-trial","trial_index":170,"time_elapsed":987284,"internal_node_id":"0.0-157.0","task_version":"battery-v0.1"},{"rune":"W","hex":"#3366ff99","correct":32,"choice":32,"rt":272.15499999874737,"accuracy":1,"outcome":"+1","keys":[1772.6500000135275],"total_keys":1,"block":2,"trial":155,"robot":1,"valence":"win","action":"go","sham":1,"trial_type":"pit-trial","trial_index":171,"time_elapsed":990261,"internal_node_id":"0.0-158.0","task_version":"battery-v0.1"},{"rune":"S","hex":"#f73b6a7A","correct":32,"choice":-1,"rt":-1,"accuracy":0,"outcome":"-1","keys":[],"total_keys":0,"block":2,"trial":156,"robot":3,"valence":"lose","action":"go","sham":1,"trial_type":"pit-trial","trial_index":172,"time_elapsed":994267,"internal_node_id":"0.0-159.0","task_version":"battery-v0.1"},{"rune":"P","hex":"#f73b6a7A","correct":-1,"choice":-1,"rt":-1,"accuracy":1,"outcome":"-1","keys":[],"total_keys":0,"block":2,"trial":157,"robot":4,"valence":"lose","action":"no-go","sham":0,"trial_type":"pit-trial","trial_index":173,"time_elapsed":998272,"internal_node_id":"0.0-160.0","task_version":"battery-v0.1"},{"rune":"W","hex":"#3366ff99","correct":32,"choice":32,"rt":364.47500000940636,"accuracy":1,"outcome":"+10","keys":[1864.914999998291],"total_keys":1,"block":2,"trial":158,"robot":1,"valence":"win","action":"go","sham":0,"trial_type":"pit-trial","trial_index":174,"time_elapsed":1001341,"internal_node_id":"0.0-161.0","task_version":"battery-v0.1"},{"rune":"V","hex":"#3366ff99","correct":-1,"choice":-1,"rt":-1,"accuracy":1,"outcome":"+10","keys":[],"total_keys":0,"block":2,"trial":159,"robot":2,"valence":"win","action":"no-go","sham":0,"trial_type":"pit-trial","trial_index":175,"time_elapsed":1005346,"internal_node_id":"0.0-162.0","task_version":"battery-v0.1"},{"rune":"S","hex":"#f73b6a7A","correct":32,"choice":-1,"rt":-1,"accuracy":0,"outcome":"-1","keys":[],"total_keys":0,"block":2,"trial":160,"robot":3,"valence":"lose","action":"go","sham":1,"trial_type":"pit-trial","trial_index":176,"time_elapsed":1009351,"internal_node_id":"0.0-163.0","task_version":"battery-v0.1"},{"rune":"P","hex":"#f73b6a7A","correct":-1,"choice":-1,"rt":-1,"accuracy":1,"outcome":"-1","keys":[],"total_keys":0,"block":2,"trial":161,"robot":4,"valence":"lose","action":"no-go","sham":0,"trial_type":"pit-trial","trial_index":177,"time_elapsed":1013356,"internal_node_id":"0.0-164.0","task_version":"battery-v0.1"},{"rune":"X","hex":"#3366ff99","correct":-1,"choice":-1,"rt":-1,"accuracy":1,"outcome":"+1","keys":[],"total_keys":0,"block":2,"trial":162,"robot":2,"valence":"win","action":"no-go","sham":1,"trial_type":"pit-trial","trial_index":178,"time_elapsed":1017360,"internal_node_id":"0.0-165.0","task_version":"battery-v0.1"},{"rune":"S","hex":"#f73b6a7A","correct":32,"choice":-1,"rt":-1,"accuracy":0,"outcome":"-10","keys":[],"total_keys":0,"block":2,"trial":163,"robot":3,"valence":"lose","action":"go","sham":0,"trial_type":"pit-trial","trial_index":179,"time_elapsed":1021366,"internal_node_id":"0.0-166.0","task_version":"battery-v0.1"},{"rune":"U","hex":"#3366ff99","correct":32,"choice":-1,"rt":-1,"accuracy":0,"outcome":"+1","keys":[],"total_keys":0,"block":2,"trial":164,"robot":1,"valence":"win","action":"go","sham":0,"trial_type":"pit-trial","trial_index":180,"time_elapsed":1025371,"internal_node_id":"0.0-167.0","task_version":"battery-v0.1"},{"rune":"P","hex":"#f73b6a7A","correct":-1,"choice":-1,"rt":-1,"accuracy":1,"outcome":"-10","keys":[],"total_keys":0,"block":2,"trial":165,"robot":4,"valence":"lose","action":"no-go","sham":1,"trial_type":"pit-trial","trial_index":181,"time_elapsed":1029377,"internal_node_id":"0.0-168.0","task_version":"battery-v0.1"},{"rune":"U","hex":"#3366ff99","correct":32,"choice":32,"rt":586.2049999996088,"accuracy":1,"outcome":"+1","keys":[2087.790000005043],"total_keys":1,"block":2,"trial":166,"robot":1,"valence":"win","action":"go","sham":1,"trial_type":"pit-trial","trial_index":182,"time_elapsed":1032669,"internal_node_id":"0.0-169.0","task_version":"battery-v0.1"},{"rune":"S","hex":"#f73b6a7A","correct":32,"choice":-1,"rt":-1,"accuracy":0,"outcome":"-1","keys":[],"total_keys":0,"block":2,"trial":167,"robot":3,"valence":"lose","action":"go","sham":1,"trial_type":"pit-trial","trial_index":183,"time_elapsed":1036674,"internal_node_id":"0.0-170.0","task_version":"battery-v0.1"},{"rune":"X","hex":"#3366ff99","correct":-1,"choice":32,"rt":538.5850000020582,"accuracy":0,"outcome":"+1","keys":[2039.1050000034738],"total_keys":1,"block":2,"trial":168,"robot":2,"valence":"win","action":"no-go","sham":0,"trial_type":"pit-trial","trial_index":184,"time_elapsed":1039918,"internal_node_id":"0.0-171.0","task_version":"battery-v0.1"},{"rune":"S","hex":"#f73b6a7A","correct":32,"choice":-1,"rt":-1,"accuracy":0,"outcome":"-10","keys":[],"total_keys":0,"block":2,"trial":169,"robot":3,"valence":"lose","action":"go","sham":0,"trial_type":"pit-trial","trial_index":185,"time_elapsed":1043923,"internal_node_id":"0.0-172.0","task_version":"battery-v0.1"},{"rune":"U","hex":"#3366ff99","correct":32,"choice":32,"rt":705.7599999970989,"accuracy":1,"outcome":"+10","keys":[2206.335000009858],"total_keys":1,"block":2,"trial":170,"robot":1,"valence":"win","action":"go","sham":0,"trial_type":"pit-trial","trial_index":186,"time_elapsed":1047334,"internal_node_id":"0.0-173.0","task_version":"battery-v0.1"},{"rune":"X","hex":"#3366ff99","correct":-1,"choice":32,"rt":711.5900000061374,"accuracy":0,"outcome":"+10","keys":[2211.6649999953806],"total_keys":1,"block":2,"trial":171,"robot":2,"valence":"win","action":"no-go","sham":1,"trial_type":"pit-trial","trial_index":187,"time_elapsed":1050750,"internal_node_id":"0.0-174.0","task_version":"battery-v0.1"},{"rune":"C","hex":"#f73b6a7A","correct":-1,"choice":-1,"rt":-1,"accuracy":1,"outcome":"-1","keys":[],"total_keys":0,"block":2,"trial":172,"robot":4,"valence":"lose","action":"no-go","sham":0,"trial_type":"pit-trial","trial_index":188,"time_elapsed":1054754,"internal_node_id":"0.0-175.0","task_version":"battery-v0.1"},{"rune":"C","hex":"#f73b6a7A","correct":-1,"choice":-1,"rt":-1,"accuracy":1,"outcome":"-1","keys":[],"total_keys":0,"block":2,"trial":173,"robot":4,"valence":"lose","action":"no-go","sham":0,"trial_type":"pit-trial","trial_index":189,"time_elapsed":1058758,"internal_node_id":"0.0-176.0","task_version":"battery-v0.1"},{"rune":"S","hex":"#f73b6a7A","correct":32,"choice":-1,"rt":-1,"accuracy":0,"outcome":"-10","keys":[],"total_keys":0,"block":2,"trial":174,"robot":3,"valence":"lose","action":"go","sham":0,"trial_type":"pit-trial","trial_index":190,"time_elapsed":1062763,"internal_node_id":"0.0-177.0","task_version":"battery-v0.1"},{"rune":"X","hex":"#3366ff99","correct":-1,"choice":32,"rt":713.3949999988545,"accuracy":0,"outcome":"+1","keys":[2214.240000001155],"total_keys":1,"block":2,"trial":175,"robot":2,"valence":"win","action":"no-go","sham":0,"trial_type":"pit-trial","trial_index":191,"time_elapsed":1066182,"internal_node_id":"0.0-178.0","task_version":"battery-v0.1"},{"rune":"U","hex":"#3366ff99","correct":32,"choice":32,"rt":575.5600000121631,"accuracy":1,"outcome":"+10","keys":[2075.7449999947567],"total_keys":1,"block":2,"trial":176,"robot":1,"valence":"win","action":"go","sham":0,"trial_type":"pit-trial","trial_index":192,"time_elapsed":1069462,"internal_node_id":"0.0-179.0","task_version":"battery-v0.1"},{"rune":"S","hex":"#f73b6a7A","correct":32,"choice":-1,"rt":-1,"accuracy":0,"outcome":"-10","keys":[],"total_keys":0,"block":2,"trial":177,"robot":3,"valence":"lose","action":"go","sham":0,"trial_type":"pit-trial","trial_index":193,"time_elapsed":1073467,"internal_node_id":"0.0-180.0","task_version":"battery-v0.1"},{"rune":"C","hex":"#f73b6a7A","correct":-1,"choice":-1,"rt":-1,"accuracy":1,"outcome":"-1","keys":[],"total_keys":0,"block":2,"trial":178,"robot":4,"valence":"lose","action":"no-go","sham":0,"trial_type":"pit-trial","trial_index":194,"time_elapsed":1077472,"internal_node_id":"0.0-181.0","task_version":"battery-v0.1"},{"rune":"X","hex":"#3366ff99","correct":-1,"choice":32,"rt":573.539999997709,"accuracy":0,"outcome":"+1","keys":[2073.705000002403],"total_keys":1,"block":2,"trial":179,"robot":2,"valence":"win","action":"no-go","sham":0,"trial_type":"pit-trial","trial_index":195,"time_elapsed":1080750,"internal_node_id":"0.0-182.0","task_version":"battery-v0.1"},{"rune":"U","hex":"#3366ff99","correct":32,"choice":32,"rt":374.4849999931175,"accuracy":1,"outcome":"+10","keys":[1875.2800000074785],"total_keys":1,"block":2,"trial":180,"robot":1,"valence":"win","action":"go","sham":0,"trial_type":"pit-trial","trial_index":196,"time_elapsed":1083829,"internal_node_id":"0.0-183.0","task_version":"battery-v0.1"},{"rune":"U","hex":"#3366ff99","correct":32,"choice":32,"rt":399.43000000482425,"accuracy":1,"outcome":"+10","keys":[1900.045000002021],"total_keys":1,"block":2,"trial":181,"robot":1,"valence":"win","action":"go","sham":0,"trial_type":"pit-trial","trial_index":197,"time_elapsed":1086934,"internal_node_id":"0.0-184.0","task_version":"battery-v0.1"},{"rune":"C","hex":"#f73b6a7A","correct":-1,"choice":-1,"rt":-1,"accuracy":1,"outcome":"-1","keys":[],"total_keys":0,"block":2,"trial":182,"robot":4,"valence":"lose","action":"no-go","sham":0,"trial_type":"pit-trial","trial_index":198,"time_elapsed":1090939,"internal_node_id":"0.0-185.0","task_version":"battery-v0.1"},{"rune":"S","hex":"#f73b6a7A","correct":32,"choice":-1,"rt":-1,"accuracy":0,"outcome":"-10","keys":[],"total_keys":0,"block":2,"trial":183,"robot":3,"valence":"lose","action":"go","sham":0,"trial_type":"pit-trial","trial_index":199,"time_elapsed":1094944,"internal_node_id":"0.0-186.0","task_version":"battery-v0.1"},{"rune":"X","hex":"#3366ff99","correct":-1,"choice":32,"rt":413.03499999060296,"accuracy":0,"outcome":"+1","keys":[1913.6149999976624],"total_keys":1,"block":2,"trial":184,"robot":2,"valence":"win","action":"no-go","sham":0,"trial_type":"pit-trial","trial_index":200,"time_elapsed":1098062,"internal_node_id":"0.0-187.0","task_version":"battery-v0.1"},{"rune":"X","hex":"#3366ff99","correct":-1,"choice":32,"rt":358.60500000137836,"accuracy":0,"outcome":"+10","keys":[1859.375],"total_keys":1,"block":2,"trial":185,"robot":2,"valence":"win","action":"no-go","sham":1,"trial_type":"pit-trial","trial_index":201,"time_elapsed":1101127,"internal_node_id":"0.0-188.0","task_version":"battery-v0.1"},{"rune":"U","hex":"#3366ff99","correct":32,"choice":32,"rt":430.2250000038184,"accuracy":1,"outcome":"+10","keys":[1930.810000005411],"total_keys":1,"block":2,"trial":186,"robot":1,"valence":"win","action":"go","sham":0,"trial_type":"pit-trial","trial_index":202,"time_elapsed":1104262,"internal_node_id":"0.0-189.0","task_version":"battery-v0.1"},{"rune":"S","hex":"#f73b6a7A","correct":32,"choice":-1,"rt":-1,"accuracy":0,"outcome":"-10","keys":[],"total_keys":0,"block":2,"trial":187,"robot":3,"valence":"lose","action":"go","sham":0,"trial_type":"pit-trial","trial_index":203,"time_elapsed":1108266,"internal_node_id":"0.0-190.0","task_version":"battery-v0.1"},{"rune":"C","hex":"#f73b6a7A","correct":-1,"choice":-1,"rt":-1,"accuracy":1,"outcome":"-1","keys":[],"total_keys":0,"block":2,"trial":188,"robot":4,"valence":"lose","action":"no-go","sham":0,"trial_type":"pit-trial","trial_index":204,"time_elapsed":1112271,"internal_node_id":"0.0-191.0","task_version":"battery-v0.1"},{"rune":"C","hex":"#f73b6a7A","correct":-1,"choice":-1,"rt":-1,"accuracy":1,"outcome":"-10","keys":[],"total_keys":0,"block":2,"trial":189,"robot":4,"valence":"lose","action":"no-go","sham":1,"trial_type":"pit-trial","trial_index":205,"time_elapsed":1116276,"internal_node_id":"0.0-192.0","task_version":"battery-v0.1"},{"rune":"U","hex":"#3366ff99","correct":32,"choice":32,"rt":472.87000001221895,"accuracy":1,"outcome":"+10","keys":[1973.3999999882653],"total_keys":1,"block":2,"trial":190,"robot":1,"valence":"win","action":"go","sham":0,"trial_type":"pit-trial","trial_index":206,"time_elapsed":1119454,"internal_node_id":"0.0-193.0","task_version":"battery-v0.1"},{"rune":"X","hex":"#3366ff99","correct":-1,"choice":32,"rt":303.995000009425,"accuracy":0,"outcome":"+1","keys":[1804.1499999961816],"total_keys":1,"block":2,"trial":191,"robot":2,"valence":"win","action":"no-go","sham":0,"trial_type":"pit-trial","trial_index":207,"time_elapsed":1122462,"internal_node_id":"0.0-194.0","task_version":"battery-v0.1"},{"rune":"S","hex":"#f73b6a7A","correct":32,"choice":-1,"rt":-1,"accuracy":0,"outcome":"-10","keys":[],"total_keys":0,"block":2,"trial":192,"robot":3,"valence":"lose","action":"go","sham":0,"trial_type":"pit-trial","trial_index":208,"time_elapsed":1126467,"internal_node_id":"0.0-195.0","task_version":"battery-v0.1"},{"rune":"B","hex":"#f73b6a7A","correct":32,"choice":32,"rt":768.6700000048149,"accuracy":1,"outcome":"-10","keys":[2270.380000001751],"total_keys":1,"block":2,"trial":193,"robot":3,"valence":"lose","action":"go","sham":1,"trial_type":"pit-trial","trial_index":209,"time_elapsed":1129942,"internal_node_id":"0.0-196.0","task_version":"battery-v0.1"},{"rune":"C","hex":"#f73b6a7A","correct":-1,"choice":-1,"rt":-1,"accuracy":1,"outcome":"-1","keys":[],"total_keys":0,"block":2,"trial":194,"robot":4,"valence":"lose","action":"no-go","sham":0,"trial_type":"pit-trial","trial_index":210,"time_elapsed":1133947,"internal_node_id":"0.0-197.0","task_version":"battery-v0.1"},{"rune":"Y","hex":"#3366ff99","correct":32,"choice":32,"rt":418.1749999988824,"accuracy":1,"outcome":"+10","keys":[1918.8850000065286],"total_keys":1,"block":2,"trial":195,"robot":1,"valence":"win","action":"go","sham":0,"trial_type":"pit-trial","trial_index":211,"time_elapsed":1137069,"internal_node_id":"0.0-198.0","task_version":"battery-v0.1"},{"rune":"X","hex":"#3366ff99","correct":-1,"choice":32,"rt":392.1050000062678,"accuracy":0,"outcome":"+10","keys":[1892.4750000005588],"total_keys":1,"block":2,"trial":196,"robot":2,"valence":"win","action":"no-go","sham":1,"trial_type":"pit-trial","trial_index":212,"time_elapsed":1140166,"internal_node_id":"0.0-199.0","task_version":"battery-v0.1"},{"rune":"C","hex":"#f73b6a7A","correct":-1,"choice":-1,"rt":-1,"accuracy":1,"outcome":"-1","keys":[],"total_keys":0,"block":2,"trial":197,"robot":4,"valence":"lose","action":"no-go","sham":0,"trial_type":"pit-trial","trial_index":213,"time_elapsed":1144171,"internal_node_id":"0.0-200.0","task_version":"battery-v0.1"},{"rune":"X","hex":"#3366ff99","correct":-1,"choice":32,"rt":482.0949999995064,"accuracy":0,"outcome":"+10","keys":[1982.680000001099],"total_keys":1,"block":2,"trial":198,"robot":2,"valence":"win","action":"no-go","sham":1,"trial_type":"pit-trial","trial_index":214,"time_elapsed":1147359,"internal_node_id":"0.0-201.0","task_version":"battery-v0.1"},{"rune":"B","hex":"#f73b6a7A","correct":32,"choice":-1,"rt":-1,"accuracy":0,"outcome":"-10","keys":[],"total_keys":0,"block":2,"trial":199,"robot":3,"valence":"lose","action":"go","sham":0,"trial_type":"pit-trial","trial_index":215,"time_elapsed":1151364,"internal_node_id":"0.0-202.0","task_version":"battery-v0.1"},{"rune":"Y","hex":"#3366ff99","correct":32,"choice":32,"rt":497.4850000143051,"accuracy":1,"outcome":"+10","keys":[1997.4999999976717],"total_keys":1,"block":2,"trial":200,"robot":1,"valence":"win","action":"go","sham":0,"trial_type":"pit-trial","trial_index":216,"time_elapsed":1154566,"internal_node_id":"0.0-203.0","task_version":"battery-v0.1"},{"rune":"X","hex":"#3366ff99","correct":-1,"choice":32,"rt":534.2799999925774,"accuracy":0,"outcome":"+1","keys":[2035.4349999977276],"total_keys":1,"block":2,"trial":201,"robot":2,"valence":"win","action":"no-go","sham":0,"trial_type":"pit-trial","trial_index":217,"time_elapsed":1157806,"internal_node_id":"0.0-204.0","task_version":"battery-v0.1"},{"rune":"Y","hex":"#3366ff99","correct":32,"choice":32,"rt":463.5899999993853,"accuracy":1,"outcome":"+1","keys":[1964.4199999894481],"total_keys":1,"block":2,"trial":202,"robot":1,"valence":"win","action":"go","sham":1,"trial_type":"pit-trial","trial_index":218,"time_elapsed":1160975,"internal_node_id":"0.0-205.0","task_version":"battery-v0.1"},{"rune":"B","hex":"#f73b6a7A","correct":32,"choice":32,"rt":702.9099999926984,"accuracy":1,"outcome":"-1","keys":[2203.835000007646],"total_keys":1,"block":2,"trial":203,"robot":3,"valence":"lose","action":"go","sham":0,"trial_type":"pit-trial","trial_index":219,"time_elapsed":1164382,"internal_node_id":"0.0-206.0","task_version":"battery-v0.1"},{"rune":"C","hex":"#f73b6a7A","correct":-1,"choice":-1,"rt":-1,"accuracy":1,"outcome":"-1","keys":[],"total_keys":0,"block":2,"trial":204,"robot":4,"valence":"lose","action":"no-go","sham":0,"trial_type":"pit-trial","trial_index":220,"time_elapsed":1168388,"internal_node_id":"0.0-207.0","task_version":"battery-v0.1"},{"rune":"C","hex":"#f73b6a7A","correct":-1,"choice":-1,"rt":-1,"accuracy":1,"outcome":"-1","keys":[],"total_keys":0,"block":2,"trial":205,"robot":4,"valence":"lose","action":"no-go","sham":0,"trial_type":"pit-trial","trial_index":221,"time_elapsed":1172392,"internal_node_id":"0.0-208.0","task_version":"battery-v0.1"},{"rune":"B","hex":"#f73b6a7A","correct":32,"choice":-1,"rt":-1,"accuracy":0,"outcome":"-1","keys":[],"total_keys":0,"block":2,"trial":206,"robot":3,"valence":"lose","action":"go","sham":1,"trial_type":"pit-trial","trial_index":222,"time_elapsed":1176398,"internal_node_id":"0.0-209.0","task_version":"battery-v0.1"},{"rune":"Y","hex":"#3366ff99","correct":32,"choice":32,"rt":719.6399999957066,"accuracy":1,"outcome":"+10","keys":[2219.989999997895],"total_keys":1,"block":2,"trial":207,"robot":1,"valence":"win","action":"go","sham":0,"trial_type":"pit-trial","trial_index":223,"time_elapsed":1179822,"internal_node_id":"0.0-210.0","task_version":"battery-v0.1"},{"rune":"X","hex":"#3366ff99","correct":-1,"choice":32,"rt":416.12999999779277,"accuracy":0,"outcome":"+1","keys":[1916.1800000001676],"total_keys":1,"block":2,"trial":208,"robot":2,"valence":"win","action":"no-go","sham":0,"trial_type":"pit-trial","trial_index":224,"time_elapsed":1182942,"internal_node_id":"0.0-211.0","task_version":"battery-v0.1"},{"rune":"B","hex":"#f73b6a7A","correct":32,"choice":-1,"rt":-1,"accuracy":0,"outcome":"-10","keys":[],"total_keys":0,"block":2,"trial":209,"robot":3,"valence":"lose","action":"go","sham":0,"trial_type":"pit-trial","trial_index":225,"time_elapsed":1186947,"internal_node_id":"0.0-212.0","task_version":"battery-v0.1"},{"rune":"G","hex":"#3366ff99","correct":-1,"choice":32,"rt":562.4850000021979,"accuracy":0,"outcome":"+10","keys":[2063.2049999986775],"total_keys":1,"block":2,"trial":210,"robot":2,"valence":"win","action":"no-go","sham":1,"trial_type":"pit-trial","trial_index":226,"time_elapsed":1190214,"internal_node_id":"0.0-213.0","task_version":"battery-v0.1"},{"rune":"E","hex":"#f73b6a7A","correct":32,"choice":-1,"rt":-1,"accuracy":0,"outcome":"-10","keys":[],"total_keys":0,"block":2,"trial":211,"robot":3,"valence":"lose","action":"go","sham":0,"trial_type":"pit-trial","trial_index":227,"time_elapsed":1194218,"internal_node_id":"0.0-214.0","task_version":"battery-v0.1"},{"rune":"Y","hex":"#3366ff99","correct":32,"choice":32,"rt":450.8650000060443,"accuracy":1,"outcome":"+10","keys":[1951.6350000048988],"total_keys":1,"block":2,"trial":212,"robot":1,"valence":"win","action":"go","sham":0,"trial_type":"pit-trial","trial_index":228,"time_elapsed":1197374,"internal_node_id":"0.0-215.0","task_version":"battery-v0.1"},{"rune":"G","hex":"#3366ff99","correct":-1,"choice":32,"rt":336.47499998891726,"accuracy":0,"outcome":"+1","keys":[1836.560000010766],"total_keys":1,"block":2,"trial":213,"robot":2,"valence":"win","action":"no-go","sham":0,"trial_type":"pit-trial","trial_index":229,"time_elapsed":1200414,"internal_node_id":"0.0-216.0","task_version":"battery-v0.1"},{"rune":"Y","hex":"#3366ff99","correct":32,"choice":32,"rt":247.77499999618158,"accuracy":1,"outcome":"+10","keys":[1747.95000000461],"total_keys":1,"block":2,"trial":214,"robot":1,"valence":"win","action":"go","sham":0,"trial_type":"pit-trial","trial_index":230,"time_elapsed":1203366,"internal_node_id":"0.0-217.0","task_version":"battery-v0.1"},{"rune":"B","hex":"#f73b6a7A","correct":32,"choice":32,"rt":1184.22999999905,"accuracy":1,"outcome":"-1","keys":[2684.3550000051036],"total_keys":1,"block":2,"trial":215,"robot":3,"valence":"lose","action":"go","sham":0,"trial_type":"pit-trial","trial_index":231,"time_elapsed":1207255,"internal_node_id":"0.0-218.0","task_version":"battery-v0.1"},{"rune":"E","hex":"#f73b6a7A","correct":32,"choice":-1,"rt":-1,"accuracy":0,"outcome":"-1","keys":[],"total_keys":0,"block":2,"trial":216,"robot":3,"valence":"lose","action":"go","sham":1,"trial_type":"pit-trial","trial_index":232,"time_elapsed":1211260,"internal_node_id":"0.0-219.0","task_version":"battery-v0.1"},{"rune":"E","hex":"#f73b6a7A","correct":32,"choice":-1,"rt":-1,"accuracy":0,"outcome":"-10","keys":[],"total_keys":0,"block":2,"trial":217,"robot":3,"valence":"lose","action":"go","sham":0,"trial_type":"pit-trial","trial_index":233,"time_elapsed":1215265,"internal_node_id":"0.0-220.0","task_version":"battery-v0.1"},{"rune":"G","hex":"#3366ff99","correct":-1,"choice":32,"rt":435.27000000164844,"accuracy":0,"outcome":"+1","keys":[1936.8249999971595],"total_keys":1,"block":2,"trial":218,"robot":2,"valence":"win","action":"no-go","sham":0,"trial_type":"pit-trial","trial_index":234,"time_elapsed":1218406,"internal_node_id":"0.0-221.0","task_version":"battery-v0.1"},{"rune":"B","hex":"#f73b6a7A","correct":32,"choice":32,"rt":799.4150000012014,"accuracy":1,"outcome":"-1","keys":[2300.264999998035],"total_keys":1,"block":2,"trial":219,"robot":3,"valence":"lose","action":"go","sham":0,"trial_type":"pit-trial","trial_index":235,"time_elapsed":1221912,"internal_node_id":"0.0-222.0","task_version":"battery-v0.1"},{"rune":"Y","hex":"#3366ff99","correct":32,"choice":32,"rt":389.6249999960419,"accuracy":1,"outcome":"+1","keys":[1890.4649999896064],"total_keys":1,"block":2,"trial":220,"robot":1,"valence":"win","action":"go","sham":1,"trial_type":"pit-trial","trial_index":236,"time_elapsed":1225007,"internal_node_id":"0.0-223.0","task_version":"battery-v0.1"},{"rune":"G","hex":"#3366ff99","correct":-1,"choice":32,"rt":406.22000000439584,"accuracy":0,"outcome":"+10","keys":[1906.6699999966659],"total_keys":1,"block":2,"trial":221,"robot":2,"valence":"win","action":"no-go","sham":1,"trial_type":"pit-trial","trial_index":237,"time_elapsed":1228118,"internal_node_id":"0.0-224.0","task_version":"battery-v0.1"},{"rune":"E","hex":"#f73b6a7A","correct":32,"choice":-1,"rt":-1,"accuracy":0,"outcome":"-10","keys":[],"total_keys":0,"block":2,"trial":222,"robot":3,"valence":"lose","action":"go","sham":0,"trial_type":"pit-trial","trial_index":238,"time_elapsed":1232123,"internal_node_id":"0.0-225.0","task_version":"battery-v0.1"},{"rune":"B","hex":"#f73b6a7A","correct":32,"choice":32,"rt":226.34999999706633,"accuracy":1,"outcome":"-1","keys":[1727.3450000064913,2135.275000007823],"total_keys":2,"block":2,"trial":223,"robot":3,"valence":"lose","action":"go","sham":0,"trial_type":"pit-trial","trial_index":239,"time_elapsed":1235054,"internal_node_id":"0.0-226.0","task_version":"battery-v0.1"},{"rune":"Y","hex":"#3366ff99","correct":32,"choice":32,"rt":199.26999999722466,"accuracy":1,"outcome":"+10","keys":[1700.3450000048615,2028.2900000021327,2260.345000002533],"total_keys":3,"block":2,"trial":224,"robot":1,"valence":"win","action":"go","sham":0,"trial_type":"pit-trial","trial_index":240,"time_elapsed":1237958,"internal_node_id":"0.0-227.0","task_version":"battery-v0.1"},{"rune":"Y","hex":"#3366ff99","correct":32,"choice":32,"rt":55.875000005355105,"accuracy":1,"outcome":"+10","keys":[820.529999997234,1084.6999999920372,1324.4949999933597,1556.440000000177,1788.6049999941606,2076.4799999888055],"total_keys":6,"block":2,"trial":225,"robot":1,"valence":"win","action":"go","sham":0,"trial_type":"pit-trial","trial_index":241,"time_elapsed":1240718,"internal_node_id":"0.0-228.0","task_version":"battery-v0.1"},{"rune":"B","hex":"#f73b6a7A","correct":32,"choice":32,"rt":62.40500000445172,"accuracy":1,"outcome":"-1","keys":[1315.969999996014,1564.0249999994412,1827.990000005113,2051.959999996936],"total_keys":4,"block":2,"trial":226,"robot":3,"valence":"lose","action":"go","sham":0,"trial_type":"pit-trial","trial_index":242,"time_elapsed":1243486,"internal_node_id":"0.0-229.0","task_version":"battery-v0.1"},{"rune":"G","hex":"#3366ff99","correct":-1,"choice":32,"rt":159.95499999565072,"accuracy":0,"outcome":"+10","keys":[620.9250000100583,900.4300000085495,1172.3550000023097,1428.3850000062957,1660.385000010021,1876.4099999968894,2188.350000011269,2804.425000009127],"total_keys":8,"block":2,"trial":227,"robot":2,"valence":"win","action":"no-go","sham":1,"trial_type":"pit-trial","trial_index":243,"time_elapsed":1246351,"internal_node_id":"0.0-230.0","task_version":"battery-v0.1"},{"rune":"E","hex":"#f73b6a7A","correct":32,"choice":32,"rt":142.30000000679865,"accuracy":1,"outcome":"-10","keys":[267.4949999926612,554.9500000050757,770.9650000031106,986.9800000013784,1187.1200000022072,1403.0749999945983,1642.9499999938998,1866.8199999956414,2066.850000002887],"total_keys":9,"block":2,"trial":228,"robot":3,"valence":"lose","action":"go","sham":1,"trial_type":"pit-trial","trial_index":244,"time_elapsed":1249199,"internal_node_id":"0.0-231.0","task_version":"battery-v0.1"},{"rune":"B","hex":"#f73b6a7A","correct":32,"choice":32,"rt":278.46000000135973,"accuracy":1,"outcome":"-1","keys":[1498.9000000059605,1778.7700000044424],"total_keys":2,"block":2,"trial":229,"robot":3,"valence":"lose","action":"go","sham":0,"trial_type":"pit-trial","trial_index":245,"time_elapsed":1252182,"internal_node_id":"0.0-232.0","task_version":"battery-v0.1"},{"rune":"E","hex":"#f73b6a7A","correct":32,"choice":32,"rt":167.40500000002794,"accuracy":1,"outcome":"-1","keys":[1412.1399999856949,1668.3549999869429,1908.129999996163],"total_keys":3,"block":2,"trial":230,"robot":3,"valence":"lose","action":"go","sham":0,"trial_type":"pit-trial","trial_index":246,"time_elapsed":1255054,"internal_node_id":"0.0-233.0","task_version":"battery-v0.1"},{"rune":"Y","hex":"#3366ff99","correct":32,"choice":32,"rt":64.37000000709668,"accuracy":1,"outcome":"+10","keys":[820.2449999952223,1116.2550000008196,1348.1800000008661,1564.384999990696,1788.2399999944028],"total_keys":5,"block":2,"trial":231,"robot":1,"valence":"win","action":"go","sham":0,"trial_type":"pit-trial","trial_index":247,"time_elapsed":1257822,"internal_node_id":"0.0-234.0","task_version":"battery-v0.1"},{"rune":"G","hex":"#3366ff99","correct":-1,"choice":32,"rt":31.159999998752028,"accuracy":0,"outcome":"+10","keys":[1003.8599999970756,1291.5599999977276,1531.59499999322,1747.5949999934528],"total_keys":4,"block":2,"trial":232,"robot":2,"valence":"win","action":"no-go","sham":1,"trial_type":"pit-trial","trial_index":248,"time_elapsed":1260558,"internal_node_id":"0.0-235.0","task_version":"battery-v0.1"},{"rune":"Y","hex":"#3366ff99","correct":32,"choice":32,"rt":8.014999999431893,"accuracy":1,"outcome":"+10","keys":[676.3299999875017,956.2000000006519,1260.1599999908358,1508.3049999957439,1732.1999999985565,1908.1799999985378,2236.21999999159],"total_keys":7,"block":2,"trial":233,"robot":1,"valence":"win","action":"go","sham":0,"trial_type":"pit-trial","trial_index":249,"time_elapsed":1263271,"internal_node_id":"0.0-236.0","task_version":"battery-v0.1"},{"rune":"G","hex":"#3366ff99","correct":-1,"choice":32,"rt":70.81999999354593,"accuracy":0,"outcome":"+10","keys":[322.7449999975506,618.8350000008941,850.7849999875762,1082.7349999889266,1330.7050000000745,1570.924999992596,1794.9949999891687],"total_keys":7,"block":2,"trial":234,"robot":2,"valence":"win","action":"no-go","sham":1,"trial_type":"pit-trial","trial_index":250,"time_elapsed":1266046,"internal_node_id":"0.0-237.0","task_version":"battery-v0.1"},{"rune":"E","hex":"#f73b6a7A","correct":32,"choice":32,"rt":175.71999999927357,"accuracy":1,"outcome":"-1","keys":[1131.9450000009965,1435.924999997951,1675.9749999910127,1867.9249999986496,2091.97500000312],"total_keys":5,"block":2,"trial":235,"robot":3,"valence":"lose","action":"go","sham":0,"trial_type":"pit-trial","trial_index":251,"time_elapsed":1268926,"internal_node_id":"0.0-238.0","task_version":"battery-v0.1"},{"rune":"B","hex":"#f73b6a7A","correct":32,"choice":32,"rt":127.19499999354593,"accuracy":1,"outcome":"-1","keys":[867.9399999964517,1139.7350000042934,1379.8800000075717,1627.6950000028592,1859.8300000012387],"total_keys":5,"block":2,"trial":236,"robot":3,"valence":"lose","action":"go","sham":0,"trial_type":"pit-trial","trial_index":252,"time_elapsed":1271758,"internal_node_id":"0.0-239.0","task_version":"battery-v0.1"},{"rune":"E","hex":"#f73b6a7A","correct":32,"choice":32,"rt":199.68499999959022,"accuracy":1,"outcome":"-1","keys":[132.1499999903608,411.98499999870546,676.0450000001583,916.0899999986868,1203.9549999900628,1459.9549999984447,1699.8899999889545,1915.8649999881163],"total_keys":8,"block":2,"trial":237,"robot":3,"valence":"lose","action":"go","sham":0,"trial_type":"pit-trial","trial_index":253,"time_elapsed":1274662,"internal_node_id":"0.0-240.0","task_version":"battery-v0.1"},{"rune":"Y","hex":"#3366ff99","correct":32,"choice":32,"rt":134.87500000349246,"accuracy":1,"outcome":"+10","keys":[780.2450000017416,1060.0500000000466,1356.2699999893084,1636.1550000002608,1876.0899999905378],"total_keys":5,"block":2,"trial":238,"robot":1,"valence":"win","action":"go","sham":0,"trial_type":"pit-trial","trial_index":254,"time_elapsed":1277502,"internal_node_id":"0.0-241.0","task_version":"battery-v0.1"},{"rune":"B","hex":"#f73b6a7A","correct":32,"choice":32,"rt":128.12999999755993,"accuracy":1,"outcome":"-10","keys":[444.139999992447,724.1950000026263,988.1849999949336,1348.389999999199,1628.2599999979138,1852.0600000047125],"total_keys":6,"block":2,"trial":239,"robot":3,"valence":"lose","action":"go","sham":1,"trial_type":"pit-trial","trial_index":255,"time_elapsed":1280334,"internal_node_id":"0.0-242.0","task_version":"battery-v0.1"},{"rune":"G","hex":"#3366ff99","correct":-1,"choice":32,"rt":191.52500000200234,"accuracy":0,"outcome":"+1","keys":[659.8050000029616,931.8349999957718,1195.9150000039954,1451.8600000010338,1691.965000005439],"total_keys":5,"block":2,"trial":240,"robot":2,"valence":"win","action":"no-go","sham":0,"trial_type":"pit-trial","trial_index":256,"time_elapsed":1283230,"internal_node_id":"0.0-243.0","task_version":"battery-v0.1"},{"view_history":"[{\"page_index\":0,\"viewing_time\":1425.1850000000559}]","rt":1425.5300000077114,"trial_type":"pit-instructions","trial_index":257,"time_elapsed":1284659,"internal_node_id":"0.0-244.0","task_version":"battery-v0.1"},{"rt":9381.850000005215,"responses":{"age":"33","gender-categorical":"Male","gender-free-response":"","ethnicity":"Not Hispanic or Latino","race":["White"],"language":"Yes","fluency":"Very well"},"survey":"demographics","trial_type":"survey-demo","trial_index":258,"time_elapsed":1294046,"internal_node_id":"0.0-245.0","task_version":"battery-v0.1"},{"rt":10300.449999995297,"responses":{"difficulty":"4","fun":"3","clarity":"5","strategy":"no","feedback":"no"},"survey":"debrief","trial_type":"survey-debrief","trial_index":259,"time_elapsed":1304350,"internal_node_id":"0.0-246.0","task_version":"battery-v0.1","interactions":"[{\"event\":\"blur\",\"trial\":0,\"time\":13330},{\"event\":\"focus\",\"trial\":0,\"time\":19247},{\"event\":\"blur\",\"trial\":3,\"time\":48221},{\"event\":\"focus\",\"trial\":4,\"time\":50022},{\"event\":\"blur\",\"trial\":11,\"time\":79497},{\"event\":\"focus\",\"trial\":11,\"time\":85404},{\"event\":\"blur\",\"trial\":15,\"time\":176134},{\"event\":\"focus\",\"trial\":15,\"time\":372029},{\"event\":\"blur\",\"trial\":36,\"time\":443953},{\"event\":\"focus\",\"trial\":36,\"time\":444826},{\"event\":\"blur\",\"trial\":36,\"time\":446544},{\"event\":\"focus\",\"trial\":37,\"time\":447961},{\"event\":\"blur\",\"trial\":39,\"time\":457314},{\"event\":\"focus\",\"trial\":40,\"time\":458892},{\"event\":\"blur\",\"trial\":40,\"time\":460730},{\"event\":\"focus\",\"trial\":41,\"time\":462124},{\"event\":\"blur\",\"trial\":41,\"time\":464715},{\"event\":\"focus\",\"trial\":42,\"time\":466205},{\"event\":\"blur\",\"trial\":42,\"time\":468267},{\"event\":\"focus\",\"trial\":43,\"time\":469141},{\"event\":\"blur\",\"trial\":43,\"time\":471940},{\"event\":\"focus\",\"trial\":44,\"time\":472894},{\"event\":\"blur\",\"trial\":44,\"time\":475484},{\"event\":\"focus\",\"trial\":45,\"time\":476926},{\"event\":\"blur\",\"trial\":45,\"time\":479428},{\"event\":\"focus\",\"trial\":46,\"time\":481086},{\"event\":\"blur\",\"trial\":46,\"time\":482629},{\"event\":\"focus\",\"trial\":47,\"time\":483791},{\"event\":\"blur\",\"trial\":47,\"time\":486118},{\"event\":\"focus\",\"trial\":48,\"time\":487559},{\"event\":\"blur\",\"trial\":135,\"time\":809635},{\"event\":\"focus\",\"trial\":135,\"time\":811073},{\"event\":\"blur\",\"trial\":135,\"time\":812135},{\"event\":\"focus\",\"trial\":136,\"time\":814664},{\"event\":\"blur\",\"trial\":136,\"time\":815880},{\"event\":\"focus\",\"trial\":136,\"time\":817501},{\"event\":\"blur\",\"trial\":136,\"time\":818392},{\"event\":\"focus\",\"trial\":136,\"time\":854439},{\"event\":\"blur\",\"trial\":142,\"time\":879290},{\"event\":\"focus\",\"trial\":142,\"time\":880553},{\"event\":\"blur\",\"trial\":142,\"time\":881856},{\"event\":\"focus\",\"trial\":143,\"time\":882760},{\"event\":\"blur\",\"trial\":144,\"time\":888785},{\"event\":\"focus\",\"trial\":145,\"time\":890731},{\"event\":\"blur\",\"trial\":146,\"time\":892513},{\"event\":\"focus\",\"trial\":146,\"time\":894035},{\"event\":\"blur\",\"trial\":146,\"time\":896082},{\"event\":\"focus\",\"trial\":147,\"time\":897179},{\"event\":\"blur\",\"trial\":152,\"time\":918652},{\"event\":\"focus\",\"trial\":153,\"time\":920190},{\"event\":\"blur\",\"trial\":157,\"time\":936478},{\"event\":\"focus\",\"trial\":158,\"time\":937817},{\"event\":\"blur\",\"trial\":159,\"time\":944479},{\"event\":\"focus\",\"trial\":160,\"time\":946001},{\"event\":\"blur\",\"trial\":160,\"time\":948808},{\"event\":\"focus\",\"trial\":161,\"time\":949730},{\"event\":\"blur\",\"trial\":165,\"time\":968099},{\"event\":\"focus\",\"trial\":166,\"time\":969284},{\"event\":\"blur\",\"trial\":167,\"time\":972395},{\"event\":\"focus\",\"trial\":167,\"time\":973054},{\"event\":\"blur\",\"trial\":167,\"time\":975091},{\"event\":\"focus\",\"trial\":168,\"time\":976125},{\"event\":\"blur\",\"trial\":168,\"time\":977571},{\"event\":\"focus\",\"trial\":169,\"time\":980070},{\"event\":\"blur\",\"trial\":180,\"time\":1022493},{\"event\":\"focus\",\"trial\":180,\"time\":1023995},{\"event\":\"blur\",\"trial\":180,\"time\":1024810},{\"event\":\"focus\",\"trial\":181,\"time\":1026873},{\"event\":\"blur\",\"trial\":183,\"time\":1032683},{\"event\":\"focus\",\"trial\":183,\"time\":1034156},{\"event\":\"blur\",\"trial\":183,\"time\":1036075},{\"event\":\"focus\",\"trial\":184,\"time\":1037621},{\"event\":\"blur\",\"trial\":184,\"time\":1039612},{\"event\":\"focus\",\"trial\":185,\"time\":1041046},{\"event\":\"blur\",\"trial\":185,\"time\":1042764},{\"event\":\"focus\",\"trial\":186,\"time\":1045462},{\"event\":\"blur\",\"trial\":186,\"time\":1047109},{\"event\":\"focus\",\"trial\":187,\"time\":1048942},{\"event\":\"blur\",\"trial\":187,\"time\":1050157},{\"event\":\"focus\",\"trial\":188,\"time\":1052071},{\"event\":\"blur\",\"trial\":188,\"time\":1054301},{\"event\":\"focus\",\"trial\":189,\"time\":1056175},{\"event\":\"blur\",\"trial\":189,\"time\":1058382},{\"event\":\"focus\",\"trial\":190,\"time\":1059608},{\"event\":\"blur\",\"trial\":190,\"time\":1062374},{\"event\":\"focus\",\"trial\":191,\"time\":1064344},{\"event\":\"blur\",\"trial\":191,\"time\":1065839},{\"event\":\"focus\",\"trial\":192,\"time\":1067721},{\"event\":\"blur\",\"trial\":192,\"time\":1068935},{\"event\":\"focus\",\"trial\":193,\"time\":1071049},{\"event\":\"blur\",\"trial\":205,\"time\":1115774},{\"event\":\"focus\",\"trial\":206,\"time\":1117335},{\"event\":\"blur\",\"trial\":214,\"time\":1144718},{\"event\":\"focus\",\"trial\":214,\"time\":1145475},{\"event\":\"blur\",\"trial\":214,\"time\":1146850},{\"event\":\"focus\",\"trial\":215,\"time\":1147804},{\"event\":\"blur\",\"trial\":217,\"time\":1157459},{\"event\":\"focus\",\"trial\":218,\"time\":1159013},{\"event\":\"blur\",\"trial\":218,\"time\":1160467},{\"event\":\"focus\",\"trial\":219,\"time\":1161942},{\"event\":\"blur\",\"trial\":219,\"time\":1164132},{\"event\":\"focus\",\"trial\":220,\"time\":1165398},{\"event\":\"blur\",\"trial\":220,\"time\":1166596},{\"event\":\"focus\",\"trial\":221,\"time\":1169183},{\"event\":\"blur\",\"trial\":224,\"time\":1182398},{\"event\":\"focus\",\"trial\":225,\"time\":1183744},{\"event\":\"blur\",\"trial\":233,\"time\":1214978},{\"event\":\"focus\",\"trial\":234,\"time\":1216036}]"}]