[{"view_history":"[{\"page_index\":0,\"viewing_time\":46381.21999998111},{\"page_index\":1,\"viewing_time\":90599.50500002014},{\"page_index\":2,\"viewing_time\":6615.885000006529},{\"page_index\":3,\"viewing_time\":42116.204999998445},{\"page_index\":4,\"viewing_time\":5139.219999982743},{\"page_index\":5,\"viewing_time\":6212.495000014314}]","rt":197066.20499998098,"trial_type":"pit-instructions","trial_index":0,"time_elapsed":197078,"internal_node_id":"0.0-0.0-0.0","task_version":"battery-v0.1"},{"rune":"","hex":"#FFFFF080","correct":32,"choice":32,"rt":384.43499998538755,"accuracy":1,"outcome":"+10","keys":[1074.51000000583,1884.6149999881163],"total_keys":2,"block":0,"trial_type":"pit-trial","trial_index":1,"time_elapsed":200170,"internal_node_id":"0.0-0.0-1.0-0.0","task_version":"battery-v0.1"},{"rune":"","hex":"#FFFFF080","correct":32,"choice":32,"rt":135.32000000122935,"accuracy":1,"outcome":"+10","keys":[1636.209999996936],"total_keys":1,"block":0,"trial_type":"pit-trial","trial_index":2,"time_elapsed":203017,"internal_node_id":"0.0-0.0-1.0-0.1","task_version":"battery-v0.1"},{"rune":"","hex":"#FFFFF080","correct":32,"choice":32,"rt":472.99500001827255,"accuracy":1,"outcome":"+10","keys":[1974.9049999809358],"total_keys":1,"block":0,"trial_type":"pit-trial","trial_index":3,"time_elapsed":206195,"internal_node_id":"0.0-0.0-1.0-0.2","task_version":"battery-v0.1"},{"rune":"","hex":"#FFFFF080","correct":32,"choice":32,"rt":304.13999999291264,"accuracy":1,"outcome":"+10","keys":[1804.550000000745],"total_keys":1,"block":0,"trial_type":"pit-trial","trial_index":4,"time_elapsed":209209,"internal_node_id":"0.0-0.0-1.0-0.3","task_version":"battery-v0.1"},{"view_history":"[{\"page_index\":0,\"viewing_time\":4429.850000014994}]","rt":4430.59999999241,"trial_type":"pit-instructions","trial_index":5,"time_elapsed":213644,"internal_node_id":"0.0-0.0-2.0","task_version":"battery-v0.1"},{"rune":"","hex":"#FFFFF080","correct":-1,"choice":-1,"rt":-1,"accuracy":1,"outcome":"+10","keys":[],"total_keys":0,"block":0,"trial_type":"pit-trial","trial_index":6,"time_elapsed":217659,"internal_node_id":"0.0-0.0-3.0-0.0","task_version":"battery-v0.1"},{"rune":"","hex":"#FFFFF080","correct":-1,"choice":-1,"rt":-1,"accuracy":1,"outcome":"+10","keys":[],"total_keys":0,"block":0,"trial_type":"pit-trial","trial_index":7,"time_elapsed":221668,"internal_node_id":"0.0-0.0-3.0-0.1","task_version":"battery-v0.1"},{"rune":"","hex":"#FFFFF080","correct":-1,"choice":-1,"rt":-1,"accuracy":1,"outcome":"+10","keys":[],"total_keys":0,"block":0,"trial_type":"pit-trial","trial_index":8,"time_elapsed":225674,"internal_node_id":"0.0-0.0-3.0-0.2","task_version":"battery-v0.1"},{"rune":"","hex":"#FFFFF080","correct":-1,"choice":-1,"rt":-1,"accuracy":1,"outcome":"+10","keys":[],"total_keys":0,"block":0,"trial_type":"pit-trial","trial_index":9,"time_elapsed":229689,"internal_node_id":"0.0-0.0-3.0-0.3","task_version":"battery-v0.1"},{"responses":["Press SPACE","Do nothing"],"num_errors":0,"rt":6747.7599999983795,"trial_type":"pit-comprehension","trial_index":10,"time_elapsed":236441,"internal_node_id":"0.0-0.0-4.0","task_version":"battery-v0.1"},{"view_history":"[{\"page_index\":0,\"viewing_time\":26959.145000000717},{\"page_index\":1,\"viewing_time\":5881.280000001425},{\"page_index\":2,\"viewing_time\":15687.615000002552},{\"page_index\":3,\"viewing_time\":4008.640000014566},{\"page_index\":4,\"viewing_time\":4803.499999979977},{\"page_index\":5,\"viewing_time\":10000.115000002552},{\"page_index\":6,\"viewing_time\":219411.2299999979},{\"page_index\":7,\"viewing_time\":5335.930000001099},{\"page_index\":8,\"viewing_time\":3804.2399999976624},{\"page_index\":9,\"viewing_time\":2408.51500001736},{\"page_index\":10,\"viewing_time\":2287.574999994831}]","rt":300588.65499999956,"trial_type":"pit-instructions","trial_index":11,"time_elapsed":537040,"internal_node_id":"0.0-1.0-0.0","task_version":"battery-v0.1"},{"responses":["+10","-1","True","True"],"num_errors":0,"rt":15160.949999990407,"trial_type":"pit-comprehension","trial_index":12,"time_elapsed":552205,"internal_node_id":"0.0-1.0-1.0","task_version":"battery-v0.1"},{"view_history":"[{\"page_index\":0,\"viewing_time\":55461.825000005774},{\"page_index\":1,\"viewing_time\":2734.1599999926984}]","rt":58196.670000004815,"trial_type":"pit-instructions","trial_index":13,"time_elapsed":610406,"internal_node_id":"0.0-2.0","task_version":"battery-v0.1"},{"rune":"K","hex":"#f73b6a7A","correct":-1,"choice":-1,"rt":-1,"accuracy":1,"outcome":"-1","keys":[],"total_keys":0,"block":1,"trial":1,"robot":4,"valence":"lose","action":"no-go","sham":0,"trial_type":"pit-trial","trial_index":14,"time_elapsed":614418,"internal_node_id":"0.0-3.0","task_version":"battery-v0.1"},{"rune":"I","hex":"#f73b6a7A","correct":-1,"choice":32,"rt":578.6350000125822,"accuracy":0,"outcome":"-1","keys":[2078.89500001329],"total_keys":1,"block":1,"trial":2,"robot":4,"valence":"lose","action":"no-go","sham":1,"trial_type":"pit-trial","trial_index":15,"time_elapsed":617702,"internal_node_id":"0.0-4.0","task_version":"battery-v0.1"},{"rune":"D","hex":"#3366ff99","correct":32,"choice":32,"rt":296.05000000447035,"accuracy":1,"outcome":"+10","keys":[1798.4249999863096],"total_keys":1,"block":1,"trial":3,"robot":1,"valence":"win","action":"go","sham":0,"trial_type":"pit-trial","trial_index":16,"time_elapsed":620710,"internal_node_id":"0.0-5.0","task_version":"battery-v0.1"},{"rune":"J","hex":"#3366ff99","correct":-1,"choice":32,"rt":404.8250000050757,"accuracy":0,"outcome":"+1","keys":[1905.6250000139698],"total_keys":1,"block":1,"trial":4,"robot":2,"valence":"win","action":"no-go","sham":0,"trial_type":"pit-trial","trial_index":17,"time_elapsed":623819,"internal_node_id":"0.0-6.0","task_version":"battery-v0.1"},{"rune":"K","hex":"#f73b6a7A","correct":-1,"choice":32,"rt":583.5000000079162,"accuracy":0,"outcome":"-1","keys":[2084.535000001779],"total_keys":1,"block":1,"trial":5,"robot":4,"valence":"lose","action":"no-go","sham":1,"trial_type":"pit-trial","trial_index":18,"time_elapsed":627110,"internal_node_id":"0.0-7.0","task_version":"battery-v0.1"},{"rune":"J","hex":"#3366ff99","correct":-1,"choice":32,"rt":356.5050000033807,"accuracy":0,"outcome":"+1","keys":[1857.8750000160653],"total_keys":1,"block":1,"trial":6,"robot":2,"valence":"win","action":"no-go","sham":0,"trial_type":"pit-trial","trial_index":19,"time_elapsed":630179,"internal_node_id":"0.0-8.0","task_version":"battery-v0.1"},{"rune":"D","hex":"#3366ff99","correct":32,"choice":32,"rt":447.7199999964796,"accuracy":1,"outcome":"+10","keys":[1948.9749999775086],"total_keys":1,"block":1,"trial":7,"robot":1,"valence":"win","action":"go","sham":0,"trial_type":"pit-trial","trial_index":20,"time_elapsed":633340,"internal_node_id":"0.0-9.0","task_version":"battery-v0.1"},{"rune":"I","hex":"#f73b6a7A","correct":-1,"choice":-1,"rt":-1,"accuracy":1,"outcome":"-1","keys":[],"total_keys":0,"block":1,"trial":8,"robot":4,"valence":"lose","action":"no-go","sham":0,"trial_type":"pit-trial","trial_index":21,"time_elapsed":637354,"internal_node_id":"0.0-10.0","task_version":"battery-v0.1"},{"rune":"D","hex":"#3366ff99","correct":32,"choice":32,"rt":431.47000001044944,"accuracy":1,"outcome":"+10","keys":[1932.6550000114366],"total_keys":1,"block":1,"trial":9,"robot":1,"valence":"win","action":"go","sham":0,"trial_type":"pit-trial","trial_index":22,"time_elapsed":640492,"internal_node_id":"0.0-11.0","task_version":"battery-v0.1"},{"rune":"I","hex":"#f73b6a7A","correct":-1,"choice":-1,"rt":-1,"accuracy":1,"outcome":"-1","keys":[],"total_keys":0,"block":1,"trial":10,"robot":4,"valence":"lose","action":"no-go","sham":0,"trial_type":"pit-trial","trial_index":23,"time_elapsed":644504,"internal_node_id":"0.0-12.0","task_version":"battery-v0.1"},{"rune":"K","hex":"#f73b6a7A","correct":-1,"choice":32,"rt":801.355000003241,"accuracy":0,"outcome":"-10","keys":[2302.4199999927077],"total_keys":1,"block":1,"trial":11,"robot":4,"valence":"lose","action":"no-go","sham":0,"trial_type":"pit-trial","trial_index":24,"time_elapsed":648018,"internal_node_id":"0.0-13.0","task_version":"battery-v0.1"},{"rune":"J","hex":"#3366ff99","correct":-1,"choice":32,"rt":340.66999997594394,"accuracy":0,"outcome":"+10","keys":[1841.809999983525],"total_keys":1,"block":1,"trial":12,"robot":2,"valence":"win","action":"no-go","sham":1,"trial_type":"pit-trial","trial_index":25,"time_elapsed":651068,"internal_node_id":"0.0-14.0","task_version":"battery-v0.1"},{"rune":"D","hex":"#3366ff99","correct":32,"choice":32,"rt":378.28500001342036,"accuracy":1,"outcome":"+1","keys":[1879.7099999792408],"total_keys":1,"block":1,"trial":13,"robot":1,"valence":"win","action":"go","sham":1,"trial_type":"pit-trial","trial_index":26,"time_elapsed":654157,"internal_node_id":"0.0-15.0","task_version":"battery-v0.1"},{"rune":"K","hex":"#f73b6a7A","correct":-1,"choice":-1,"rt":-1,"accuracy":1,"outcome":"-1","keys":[],"total_keys":0,"block":1,"trial":14,"robot":4,"valence":"lose","action":"no-go","sham":0,"trial_type":"pit-trial","trial_index":27,"time_elapsed":658176,"internal_node_id":"0.0-16.0","task_version":"battery-v0.1"},{"rune":"J","hex":"#3366ff99","correct":-1,"choice":32,"rt":380.37999998778105,"accuracy":0,"outcome":"+1","keys":[1882.2700000018813],"total_keys":1,"block":1,"trial":15,"robot":2,"valence":"win","action":"no-go","sham":0,"trial_type":"pit-trial","trial_index":28,"time_elapsed":661263,"internal_node_id":"0.0-17.0","task_version":"battery-v0.1"},{"rune":"I","hex":"#f73b6a7A","correct":-1,"choice":-1,"rt":-1,"accuracy":1,"outcome":"-1","keys":[],"total_keys":0,"block":1,"trial":16,"robot":4,"valence":"lose","action":"no-go","sham":0,"trial_type":"pit-trial","trial_index":29,"time_elapsed":665272,"internal_node_id":"0.0-18.0","task_version":"battery-v0.1"},{"rune":"I","hex":"#f73b6a7A","correct":-1,"choice":-1,"rt":-1,"accuracy":1,"outcome":"-10","keys":[],"total_keys":0,"block":1,"trial":17,"robot":4,"valence":"lose","action":"no-go","sham":1,"trial_type":"pit-trial","trial_index":30,"time_elapsed":669291,"internal_node_id":"0.0-19.0","task_version":"battery-v0.1"},{"rune":"K","hex":"#f73b6a7A","correct":-1,"choice":-1,"rt":-1,"accuracy":1,"outcome":"-1","keys":[],"total_keys":0,"block":1,"trial":18,"robot":4,"valence":"lose","action":"no-go","sham":0,"trial_type":"pit-trial","trial_index":31,"time_elapsed":673302,"internal_node_id":"0.0-20.0","task_version":"battery-v0.1"},{"rune":"D","hex":"#3366ff99","correct":32,"choice":32,"rt":381.19499999447726,"accuracy":1,"outcome":"+10","keys":[1882.614999980433],"total_keys":1,"block":1,"trial":19,"robot":1,"valence":"win","action":"go","sham":0,"trial_type":"pit-trial","trial_index":32,"time_elapsed":676396,"internal_node_id":"0.0-21.0","task_version":"battery-v0.1"},{"rune":"J","hex":"#3366ff99","correct":-1,"choice":32,"rt":392.69000000786036,"accuracy":0,"outcome":"+1","keys":[1892.7099999855272],"total_keys":1,"block":1,"trial":20,"robot":2,"valence":"win","action":"no-go","sham":0,"trial_type":"pit-trial","trial_index":33,"time_elapsed":679494,"internal_node_id":"0.0-22.0","task_version":"battery-v0.1"},{"rune":"I","hex":"#f73b6a7A","correct":-1,"choice":32,"rt":291.7149999993853,"accuracy":0,"outcome":"-10","keys":[1792.3500000033528],"total_keys":1,"block":1,"trial":21,"robot":4,"valence":"lose","action":"no-go","sham":0,"trial_type":"pit-trial","trial_index":34,"time_elapsed":682495,"internal_node_id":"0.0-23.0","task_version":"battery-v0.1"},{"rune":"K","hex":"#f73b6a7A","correct":-1,"choice":32,"rt":593.9349999825936,"accuracy":0,"outcome":"-1","keys":[2095.304999995278],"total_keys":1,"block":1,"trial":22,"robot":4,"valence":"lose","action":"no-go","sham":1,"trial_type":"pit-trial","trial_index":35,"time_elapsed":685796,"internal_node_id":"0.0-24.0","task_version":"battery-v0.1"},{"rune":"J","hex":"#3366ff99","correct":-1,"choice":32,"rt":427.66499999561347,"accuracy":0,"outcome":"+10","keys":[1929.2800000112038],"total_keys":1,"block":1,"trial":23,"robot":2,"valence":"win","action":"no-go","sham":1,"trial_type":"pit-trial","trial_index":36,"time_elapsed":688934,"internal_node_id":"0.0-25.0","task_version":"battery-v0.1"},{"rune":"D","hex":"#3366ff99","correct":32,"choice":32,"rt":287.88000001804903,"accuracy":1,"outcome":"+10","keys":[1790.0949999748264],"total_keys":1,"block":1,"trial":24,"robot":1,"valence":"win","action":"go","sham":0,"trial_type":"pit-trial","trial_index":37,"time_elapsed":691934,"internal_node_id":"0.0-26.0","task_version":"battery-v0.1"},{"rune":"J","hex":"#3366ff99","correct":-1,"choice":32,"rt":327.9599999950733,"accuracy":0,"outcome":"+1","keys":[1828.3850000007078],"total_keys":1,"block":1,"trial":25,"robot":2,"valence":"win","action":"no-go","sham":0,"trial_type":"pit-trial","trial_index":38,"time_elapsed":694971,"internal_node_id":"0.0-27.0","task_version":"battery-v0.1"},{"rune":"K","hex":"#f73b6a7A","correct":-1,"choice":-1,"rt":-1,"accuracy":1,"outcome":"-1","keys":[],"total_keys":0,"block":1,"trial":26,"robot":4,"valence":"lose","action":"no-go","sham":0,"trial_type":"pit-trial","trial_index":39,"time_elapsed":698980,"internal_node_id":"0.0-28.0","task_version":"battery-v0.1"},{"rune":"I","hex":"#f73b6a7A","correct":-1,"choice":-1,"rt":-1,"accuracy":1,"outcome":"-1","keys":[],"total_keys":0,"block":1,"trial":27,"robot":4,"valence":"lose","action":"no-go","sham":0,"trial_type":"pit-trial","trial_index":40,"time_elapsed":702988,"internal_node_id":"0.0-29.0","task_version":"battery-v0.1"},{"rune":"D","hex":"#3366ff99","correct":32,"choice":32,"rt":478.0849999806378,"accuracy":1,"outcome":"+10","keys":[1979.4249999977183],"total_keys":1,"block":1,"trial":28,"robot":1,"valence":"win","action":"go","sham":0,"trial_type":"pit-trial","trial_index":41,"time_elapsed":706172,"internal_node_id":"0.0-30.0","task_version":"battery-v0.1"},{"rune":"D","hex":"#3366ff99","correct":32,"choice":-1,"rt":-1,"accuracy":0,"outcome":"+1","keys":[],"total_keys":0,"block":1,"trial":29,"robot":1,"valence":"win","action":"go","sham":0,"trial_type":"pit-trial","trial_index":42,"time_elapsed":710192,"internal_node_id":"0.0-31.0","task_version":"battery-v0.1"},{"rune":"J","hex":"#3366ff99","correct":-1,"choice":32,"rt":343.3399999921676,"accuracy":0,"outcome":"+1","keys":[1844.6050000202376],"total_keys":1,"block":1,"trial":30,"robot":2,"valence":"win","action":"no-go","sham":0,"trial_type":"pit-trial","trial_index":43,"time_elapsed":713247,"internal_node_id":"0.0-32.0","task_version":"battery-v0.1"},{"rune":"K","hex":"#f73b6a7A","correct":-1,"choice":-1,"rt":-1,"accuracy":1,"outcome":"-1","keys":[],"total_keys":0,"block":1,"trial":31,"robot":4,"valence":"lose","action":"no-go","sham":0,"trial_type":"pit-trial","trial_index":44,"time_elapsed":717264,"internal_node_id":"0.0-33.0","task_version":"battery-v0.1"},{"rune":"I","hex":"#f73b6a7A","correct":-1,"choice":-1,"rt":-1,"accuracy":1,"outcome":"-1","keys":[],"total_keys":0,"block":1,"trial":32,"robot":4,"valence":"lose","action":"no-go","sham":0,"trial_type":"pit-trial","trial_index":45,"time_elapsed":721277,"internal_node_id":"0.0-34.0","task_version":"battery-v0.1"},{"rune":"K","hex":"#f73b6a7A","correct":-1,"choice":-1,"rt":-1,"accuracy":1,"outcome":"-10","keys":[],"total_keys":0,"block":1,"trial":33,"robot":4,"valence":"lose","action":"no-go","sham":1,"trial_type":"pit-trial","trial_index":46,"time_elapsed":725289,"internal_node_id":"0.0-35.0","task_version":"battery-v0.1"},{"rune":"D","hex":"#3366ff99","correct":32,"choice":32,"rt":284.7300000139512,"accuracy":1,"outcome":"+1","keys":[1785.6249999895226],"total_keys":1,"block":1,"trial":34,"robot":1,"valence":"win","action":"go","sham":1,"trial_type":"pit-trial","trial_index":47,"time_elapsed":728276,"internal_node_id":"0.0-36.0","task_version":"battery-v0.1"},{"rune":"J","hex":"#3366ff99","correct":-1,"choice":32,"rt":292.170000000624,"accuracy":0,"outcome":"+10","keys":[1793.294999981299],"total_keys":1,"block":1,"trial":35,"robot":2,"valence":"win","action":"no-go","sham":1,"trial_type":"pit-trial","trial_index":48,"time_elapsed":731275,"internal_node_id":"0.0-37.0","task_version":"battery-v0.1"},{"rune":"T","hex":"#f73b6a7A","correct":32,"choice":32,"rt":888.1399999954738,"accuracy":1,"outcome":"-10","keys":[2389.5699999993667],"total_keys":1,"block":1,"trial":36,"robot":3,"valence":"lose","action":"go","sham":1,"trial_type":"pit-trial","trial_index":49,"time_elapsed":734871,"internal_node_id":"0.0-38.0","task_version":"battery-v0.1"},{"rune":"D","hex":"#3366ff99","correct":32,"choice":32,"rt":294.80500001227483,"accuracy":1,"outcome":"+10","keys":[1796.2549999938346],"total_keys":1,"block":1,"trial":37,"robot":1,"valence":"win","action":"go","sham":0,"trial_type":"pit-trial","trial_index":50,"time_elapsed":737879,"internal_node_id":"0.0-39.0","task_version":"battery-v0.1"},{"rune":"J","hex":"#3366ff99","correct":-1,"choice":32,"rt":413.14499999862164,"accuracy":0,"outcome":"+1","keys":[1913.7850000115577],"total_keys":1,"block":1,"trial":38,"robot":2,"valence":"win","action":"no-go","sham":0,"trial_type":"pit-trial","trial_index":51,"time_elapsed":741000,"internal_node_id":"0.0-40.0","task_version":"battery-v0.1"},{"rune":"T","hex":"#f73b6a7A","correct":32,"choice":-1,"rt":-1,"accuracy":0,"outcome":"-10","keys":[],"total_keys":0,"block":1,"trial":39,"robot":3,"valence":"lose","action":"go","sham":0,"trial_type":"pit-trial","trial_index":52,"time_elapsed":745012,"internal_node_id":"0.0-41.0","task_version":"battery-v0.1"},{"rune":"K","hex":"#f73b6a7A","correct":-1,"choice":-1,"rt":-1,"accuracy":1,"outcome":"-1","keys":[],"total_keys":0,"block":1,"trial":40,"robot":4,"valence":"lose","action":"no-go","sham":0,"trial_type":"pit-trial","trial_index":53,"time_elapsed":749032,"internal_node_id":"0.0-42.0","task_version":"battery-v0.1"},{"rune":"Y","hex":"#3366ff99","correct":32,"choice":32,"rt":264.435000019148,"accuracy":1,"outcome":"+10","keys":[1764.7100000176579],"total_keys":1,"block":1,"trial":41,"robot":1,"valence":"win","action":"go","sham":0,"trial_type":"pit-trial","trial_index":54,"time_elapsed":752002,"internal_node_id":"0.0-43.0","task_version":"battery-v0.1"},{"rune":"F","hex":"#3366ff99","correct":-1,"choice":32,"rt":377.8949999832548,"accuracy":0,"outcome":"+1","keys":[1878.8800000038464],"total_keys":1,"block":1,"trial":42,"robot":2,"valence":"win","action":"no-go","sham":0,"trial_type":"pit-trial","trial_index":55,"time_elapsed":755088,"internal_node_id":"0.0-44.0","task_version":"battery-v0.1"},{"rune":"T","hex":"#f73b6a7A","correct":32,"choice":32,"rt":1105.3649999957997,"accuracy":1,"outcome":"-1","keys":[2606.1899999913294],"total_keys":1,"block":1,"trial":43,"robot":3,"valence":"lose","action":"go","sham":0,"trial_type":"pit-trial","trial_index":56,"time_elapsed":758905,"internal_node_id":"0.0-45.0","task_version":"battery-v0.1"},{"rune":"K","hex":"#f73b6a7A","correct":-1,"choice":-1,"rt":-1,"accuracy":1,"outcome":"-10","keys":[],"total_keys":0,"block":1,"trial":44,"robot":4,"valence":"lose","action":"no-go","sham":1,"trial_type":"pit-trial","trial_index":57,"time_elapsed":762912,"internal_node_id":"0.0-46.0","task_version":"battery-v0.1"},{"rune":"F","hex":"#3366ff99","correct":-1,"choice":32,"rt":407.0649999775924,"accuracy":0,"outcome":"+1","keys":[1907.5700000103097],"total_keys":1,"block":1,"trial":45,"robot":2,"valence":"win","action":"no-go","sham":0,"trial_type":"pit-trial","trial_index":58,"time_elapsed":766027,"internal_node_id":"0.0-47.0","task_version":"battery-v0.1"},{"rune":"Y","hex":"#3366ff99","correct":32,"choice":32,"rt":384.33999998960644,"accuracy":1,"outcome":"+1","keys":[1885.5749999929685],"total_keys":1,"block":1,"trial":46,"robot":1,"valence":"win","action":"go","sham":1,"trial_type":"pit-trial","trial_index":59,"time_elapsed":769126,"internal_node_id":"0.0-48.0","task_version":"battery-v0.1"},{"rune":"K","hex":"#f73b6a7A","correct":-1,"choice":32,"rt":378.8099999947008,"accuracy":0,"outcome":"-10","keys":[1879.4449999986682],"total_keys":1,"block":1,"trial":47,"robot":4,"valence":"lose","action":"no-go","sham":0,"trial_type":"pit-trial","trial_index":60,"time_elapsed":772213,"internal_node_id":"0.0-49.0","task_version":"battery-v0.1"},{"rune":"T","hex":"#f73b6a7A","correct":32,"choice":32,"rt":316.25000000349246,"accuracy":1,"outcome":"-1","keys":[1817.525000020396],"total_keys":1,"block":1,"trial":48,"robot":3,"valence":"lose","action":"go","sham":0,"trial_type":"pit-trial","trial_index":61,"time_elapsed":775238,"internal_node_id":"0.0-50.0","task_version":"battery-v0.1"},{"rune":"G","hex":"#f73b6a7A","correct":-1,"choice":32,"rt":303.16499999025837,"accuracy":0,"outcome":"-10","keys":[1805.2700000116602],"total_keys":1,"block":1,"trial":49,"robot":4,"valence":"lose","action":"no-go","sham":0,"trial_type":"pit-trial","trial_index":62,"time_elapsed":778248,"internal_node_id":"0.0-51.0","task_version":"battery-v0.1"},{"rune":"Y","hex":"#3366ff99","correct":32,"choice":32,"rt":739.7599999967497,"accuracy":1,"outcome":"+10","keys":[2241.4200000057463],"total_keys":1,"block":1,"trial":50,"robot":1,"valence":"win","action":"go","sham":0,"trial_type":"pit-trial","trial_index":63,"time_elapsed":781694,"internal_node_id":"0.0-52.0","task_version":"battery-v0.1"},{"rune":"F","hex":"#3366ff99","correct":-1,"choice":32,"rt":352.6049999927636,"accuracy":0,"outcome":"+1","keys":[1853.770000016084],"total_keys":1,"block":1,"trial":51,"robot":2,"valence":"win","action":"no-go","sham":0,"trial_type":"pit-trial","trial_index":64,"time_elapsed":784757,"internal_node_id":"0.0-53.0","task_version":"battery-v0.1"},{"rune":"T","hex":"#f73b6a7A","correct":32,"choice":-1,"rt":-1,"accuracy":0,"outcome":"-1","keys":[],"total_keys":0,"block":1,"trial":52,"robot":3,"valence":"lose","action":"go","sham":1,"trial_type":"pit-trial","trial_index":65,"time_elapsed":788767,"internal_node_id":"0.0-54.0","task_version":"battery-v0.1"},{"rune":"Y","hex":"#3366ff99","correct":32,"choice":32,"rt":466.5050000185147,"accuracy":1,"outcome":"+10","keys":[1966.8750000128057],"total_keys":1,"block":1,"trial":53,"robot":1,"valence":"win","action":"go","sham":0,"trial_type":"pit-trial","trial_index":66,"time_elapsed":791944,"internal_node_id":"0.0-55.0","task_version":"battery-v0.1"},{"rune":"G","hex":"#f73b6a7A","correct":-1,"choice":-1,"rt":-1,"accuracy":1,"outcome":"-1","keys":[],"total_keys":0,"block":1,"trial":54,"robot":4,"valence":"lose","action":"no-go","sham":0,"trial_type":"pit-trial","trial_index":67,"time_elapsed":795957,"internal_node_id":"0.0-56.0","task_version":"battery-v0.1"},{"rune":"F","hex":"#3366ff99","correct":-1,"choice":32,"rt":386.46999999764375,"accuracy":0,"outcome":"+10","keys":[1890.8549999759998],"total_keys":1,"block":1,"trial":55,"robot":2,"valence":"win","action":"no-go","sham":1,"trial_type":"pit-trial","trial_index":68,"time_elapsed":799055,"internal_node_id":"0.0-57.0","task_version":"battery-v0.1"},{"rune":"T","hex":"#f73b6a7A","correct":32,"choice":-1,"rt":-1,"accuracy":0,"outcome":"-10","keys":[],"total_keys":0,"block":1,"trial":56,"robot":3,"valence":"lose","action":"go","sham":0,"trial_type":"pit-trial","trial_index":69,"time_elapsed":803070,"internal_node_id":"0.0-58.0","task_version":"battery-v0.1"},{"rune":"Y","hex":"#3366ff99","correct":32,"choice":32,"rt":566.7450000182725,"accuracy":1,"outcome":"+1","keys":[2067.399999999907],"total_keys":1,"block":1,"trial":57,"robot":1,"valence":"win","action":"go","sham":1,"trial_type":"pit-trial","trial_index":70,"time_elapsed":806344,"internal_node_id":"0.0-59.0","task_version":"battery-v0.1"},{"rune":"G","hex":"#f73b6a7A","correct":-1,"choice":32,"rt":451.18999999249354,"accuracy":0,"outcome":"-10","keys":[1952.625000005355],"total_keys":1,"block":1,"trial":58,"robot":4,"valence":"lose","action":"no-go","sham":0,"trial_type":"pit-trial","trial_index":71,"time_elapsed":809505,"internal_node_id":"0.0-60.0","task_version":"battery-v0.1"},{"rune":"F","hex":"#3366ff99","correct":-1,"choice":32,"rt":224.419999984093,"accuracy":0,"outcome":"+10","keys":[1724.629999982426],"total_keys":1,"block":1,"trial":59,"robot":2,"valence":"win","action":"no-go","sham":1,"trial_type":"pit-trial","trial_index":72,"time_elapsed":812442,"internal_node_id":"0.0-61.0","task_version":"battery-v0.1"},{"rune":"T","hex":"#f73b6a7A","correct":32,"choice":32,"rt":285.53999998257495,"accuracy":1,"outcome":"-10","keys":[1786.7499999993015],"total_keys":1,"block":1,"trial":60,"robot":3,"valence":"lose","action":"go","sham":1,"trial_type":"pit-trial","trial_index":73,"time_elapsed":815436,"internal_node_id":"0.0-62.0","task_version":"battery-v0.1"},{"rune":"F","hex":"#3366ff99","correct":-1,"choice":32,"rt":141.11999998567626,"accuracy":0,"outcome":"+1","keys":[1642.2650000022259],"total_keys":1,"block":1,"trial":61,"robot":2,"valence":"win","action":"no-go","sham":0,"trial_type":"pit-trial","trial_index":74,"time_elapsed":818283,"internal_node_id":"0.0-63.0","task_version":"battery-v0.1"},{"rune":"Y","hex":"#3366ff99","correct":32,"choice":32,"rt":322.0100000035018,"accuracy":1,"outcome":"+10","keys":[1822.889999981271],"total_keys":1,"block":1,"trial":62,"robot":1,"valence":"win","action":"go","sham":0,"trial_type":"pit-trial","trial_index":75,"time_elapsed":821316,"internal_node_id":"0.0-64.0","task_version":"battery-v0.1"},{"rune":"T","hex":"#f73b6a7A","correct":32,"choice":32,"rt":664.9299999990035,"accuracy":1,"outcome":"-1","keys":[2165.210000006482],"total_keys":1,"block":1,"trial":63,"robot":3,"valence":"lose","action":"go","sham":0,"trial_type":"pit-trial","trial_index":76,"time_elapsed":824693,"internal_node_id":"0.0-65.0","task_version":"battery-v0.1"},{"rune":"G","hex":"#f73b6a7A","correct":-1,"choice":-1,"rt":-1,"accuracy":1,"outcome":"-1","keys":[],"total_keys":0,"block":1,"trial":64,"robot":4,"valence":"lose","action":"no-go","sham":0,"trial_type":"pit-trial","trial_index":77,"time_elapsed":828707,"internal_node_id":"0.0-66.0","task_version":"battery-v0.1"},{"rune":"Y","hex":"#3366ff99","correct":32,"choice":32,"rt":474.5650000113528,"accuracy":1,"outcome":"+10","keys":[1978.674999991199],"total_keys":1,"block":1,"trial":65,"robot":1,"valence":"win","action":"go","sham":0,"trial_type":"pit-trial","trial_index":78,"time_elapsed":831897,"internal_node_id":"0.0-67.0","task_version":"battery-v0.1"},{"rune":"F","hex":"#3366ff99","correct":-1,"choice":32,"rt":375.369999994291,"accuracy":0,"outcome":"+1","keys":[1877.0999999833293],"total_keys":1,"block":1,"trial":66,"robot":2,"valence":"win","action":"no-go","sham":0,"trial_type":"pit-trial","trial_index":79,"time_elapsed":834979,"internal_node_id":"0.0-68.0","task_version":"battery-v0.1"},{"rune":"T","hex":"#f73b6a7A","correct":32,"choice":32,"rt":618.304999981774,"accuracy":1,"outcome":"-10","keys":[2126.585000019986],"total_keys":1,"block":1,"trial":67,"robot":3,"valence":"lose","action":"go","sham":1,"trial_type":"pit-trial","trial_index":80,"time_elapsed":838316,"internal_node_id":"0.0-69.0","task_version":"battery-v0.1"},{"rune":"G","hex":"#f73b6a7A","correct":-1,"choice":32,"rt":185.2249999938067,"accuracy":0,"outcome":"-10","keys":[1686.2050000054296],"total_keys":1,"block":1,"trial":68,"robot":4,"valence":"lose","action":"no-go","sham":0,"trial_type":"pit-trial","trial_index":81,"time_elapsed":841214,"internal_node_id":"0.0-70.0","task_version":"battery-v0.1"},{"rune":"T","hex":"#f73b6a7A","correct":32,"choice":-1,"rt":-1,"accuracy":0,"outcome":"-10","keys":[],"total_keys":0,"block":1,"trial":69,"robot":3,"valence":"lose","action":"go","sham":0,"trial_type":"pit-trial","trial_index":82,"time_elapsed":845230,"internal_node_id":"0.0-71.0","task_version":"battery-v0.1"},{"rune":"F","hex":"#3366ff99","correct":-1,"choice":32,"rt":435.6299999926705,"accuracy":0,"outcome":"+1","keys":[1937.065000005532],"total_keys":1,"block":1,"trial":70,"robot":2,"valence":"win","action":"no-go","sham":0,"trial_type":"pit-trial","trial_index":83,"time_elapsed":848379,"internal_node_id":"0.0-72.0","task_version":"battery-v0.1"},{"rune":"Y","hex":"#3366ff99","correct":32,"choice":32,"rt":246.7600000090897,"accuracy":1,"outcome":"+10","keys":[1748.1499999994412],"total_keys":1,"block":1,"trial":71,"robot":1,"valence":"win","action":"go","sham":0,"trial_type":"pit-trial","trial_index":84,"time_elapsed":851337,"internal_node_id":"0.0-73.0","task_version":"battery-v0.1"},{"rune":"G","hex":"#f73b6a7A","correct":-1,"choice":-1,"rt":-1,"accuracy":1,"outcome":"-1","keys":[],"total_keys":0,"block":1,"trial":72,"robot":4,"valence":"lose","action":"no-go","sham":0,"trial_type":"pit-trial","trial_index":85,"time_elapsed":855348,"internal_node_id":"0.0-74.0","task_version":"battery-v0.1"},{"rune":"B","hex":"#f73b6a7A","correct":32,"choice":-1,"rt":-1,"accuracy":0,"outcome":"-10","keys":[],"total_keys":0,"block":1,"trial":73,"robot":3,"valence":"lose","action":"go","sham":0,"trial_type":"pit-trial","trial_index":86,"time_elapsed":859357,"internal_node_id":"0.0-75.0","task_version":"battery-v0.1"},{"rune":"X","hex":"#3366ff99","correct":32,"choice":32,"rt":339.3099999811966,"accuracy":1,"outcome":"+1","keys":[1839.7100000001956],"total_keys":1,"block":1,"trial":74,"robot":1,"valence":"win","action":"go","sham":1,"trial_type":"pit-trial","trial_index":87,"time_elapsed":862407,"internal_node_id":"0.0-76.0","task_version":"battery-v0.1"},{"rune":"F","hex":"#3366ff99","correct":-1,"choice":32,"rt":386.2150000059046,"accuracy":0,"outcome":"+1","keys":[1889.4850000215229],"total_keys":1,"block":1,"trial":75,"robot":2,"valence":"win","action":"no-go","sham":0,"trial_type":"pit-trial","trial_index":88,"time_elapsed":865503,"internal_node_id":"0.0-77.0","task_version":"battery-v0.1"},{"rune":"G","hex":"#f73b6a7A","correct":-1,"choice":-1,"rt":-1,"accuracy":1,"outcome":"-1","keys":[],"total_keys":0,"block":1,"trial":76,"robot":4,"valence":"lose","action":"no-go","sham":0,"trial_type":"pit-trial","trial_index":89,"time_elapsed":869518,"internal_node_id":"0.0-78.0","task_version":"battery-v0.1"},{"rune":"X","hex":"#3366ff99","correct":32,"choice":32,"rt":532.4850000033621,"accuracy":1,"outcome":"+1","keys":[2033.2200000120793],"total_keys":1,"block":1,"trial":77,"robot":1,"valence":"win","action":"go","sham":1,"trial_type":"pit-trial","trial_index":90,"time_elapsed":872757,"internal_node_id":"0.0-79.0","task_version":"battery-v0.1"},{"rune":"B","hex":"#f73b6a7A","correct":32,"choice":-1,"rt":-1,"accuracy":0,"outcome":"-1","keys":[],"total_keys":0,"block":1,"trial":78,"robot":3,"valence":"lose","action":"go","sham":1,"trial_type":"pit-trial","trial_index":91,"time_elapsed":876767,"internal_node_id":"0.0-80.0","task_version":"battery-v0.1"},{"rune":"G","hex":"#f73b6a7A","correct":-1,"choice":32,"rt":752.5700000114739,"accuracy":0,"outcome":"-10","keys":[2253.4750000049826],"total_keys":1,"block":1,"trial":79,"robot":4,"valence":"lose","action":"no-go","sham":0,"trial_type":"pit-trial","trial_index":92,"time_elapsed":880228,"internal_node_id":"0.0-81.0","task_version":"battery-v0.1"},{"rune":"F","hex":"#3366ff99","correct":-1,"choice":32,"rt":397.9600000020582,"accuracy":0,"outcome":"+1","keys":[1898.2899999828078],"total_keys":1,"block":1,"trial":80,"robot":2,"valence":"win","action":"no-go","sham":0,"trial_type":"pit-trial","trial_index":93,"time_elapsed":883337,"internal_node_id":"0.0-82.0","task_version":"battery-v0.1"},{"rune":"G","hex":"#f73b6a7A","correct":-1,"choice":-1,"rt":-1,"accuracy":1,"outcome":"-1","keys":[],"total_keys":0,"block":1,"trial":81,"robot":4,"valence":"lose","action":"no-go","sham":0,"trial_type":"pit-trial","trial_index":94,"time_elapsed":887345,"internal_node_id":"0.0-83.0","task_version":"battery-v0.1"},{"rune":"F","hex":"#3366ff99","correct":-1,"choice":32,"rt":277.0400000154041,"accuracy":0,"outcome":"+1","keys":[1778.294999996433],"total_keys":1,"block":1,"trial":82,"robot":2,"valence":"win","action":"no-go","sham":0,"trial_type":"pit-trial","trial_index":95,"time_elapsed":890335,"internal_node_id":"0.0-84.0","task_version":"battery-v0.1"},{"rune":"X","hex":"#3366ff99","correct":32,"choice":32,"rt":642.0600000128616,"accuracy":1,"outcome":"+10","keys":[2142.7200000034645],"total_keys":1,"block":1,"trial":83,"robot":1,"valence":"win","action":"go","sham":0,"trial_type":"pit-trial","trial_index":96,"time_elapsed":893685,"internal_node_id":"0.0-85.0","task_version":"battery-v0.1"},{"rune":"B","hex":"#f73b6a7A","correct":32,"choice":-1,"rt":-1,"accuracy":0,"outcome":"-10","keys":[],"total_keys":0,"block":1,"trial":84,"robot":3,"valence":"lose","action":"go","sham":0,"trial_type":"pit-trial","trial_index":97,"time_elapsed":897701,"internal_node_id":"0.0-86.0","task_version":"battery-v0.1"},{"rune":"F","hex":"#3366ff99","correct":-1,"choice":32,"rt":474.675000004936,"accuracy":0,"outcome":"+10","keys":[1976.0950000199955],"total_keys":1,"block":1,"trial":85,"robot":2,"valence":"win","action":"no-go","sham":1,"trial_type":"pit-trial","trial_index":98,"time_elapsed":900888,"internal_node_id":"0.0-87.0","task_version":"battery-v0.1"},{"rune":"X","hex":"#3366ff99","correct":32,"choice":32,"rt":636.9249999988824,"accuracy":1,"outcome":"+10","keys":[2138.8350000197534],"total_keys":1,"block":1,"trial":86,"robot":1,"valence":"win","action":"go","sham":0,"trial_type":"pit-trial","trial_index":99,"time_elapsed":904235,"internal_node_id":"0.0-88.0","task_version":"battery-v0.1"},{"rune":"B","hex":"#f73b6a7A","correct":32,"choice":-1,"rt":-1,"accuracy":0,"outcome":"-10","keys":[],"total_keys":0,"block":1,"trial":87,"robot":3,"valence":"lose","action":"go","sham":0,"trial_type":"pit-trial","trial_index":100,"time_elapsed":908249,"internal_node_id":"0.0-89.0","task_version":"battery-v0.1"},{"rune":"G","hex":"#f73b6a7A","correct":-1,"choice":32,"rt":485.99000001559034,"accuracy":0,"outcome":"-1","keys":[1987.2699999832548],"total_keys":1,"block":1,"trial":88,"robot":4,"valence":"lose","action":"no-go","sham":1,"trial_type":"pit-trial","trial_index":101,"time_elapsed":911443,"internal_node_id":"0.0-90.0","task_version":"battery-v0.1"},{"rune":"B","hex":"#f73b6a7A","correct":32,"choice":-1,"rt":-1,"accuracy":0,"outcome":"-10","keys":[],"total_keys":0,"block":1,"trial":89,"robot":3,"valence":"lose","action":"go","sham":0,"trial_type":"pit-trial","trial_index":102,"time_elapsed":915458,"internal_node_id":"0.0-91.0","task_version":"battery-v0.1"},{"rune":"W","hex":"#f73b6a7A","correct":32,"choice":-1,"rt":-1,"accuracy":0,"outcome":"-1","keys":[],"total_keys":0,"block":1,"trial":90,"robot":3,"valence":"lose","action":"go","sham":1,"trial_type":"pit-trial","trial_index":103,"time_elapsed":919471,"internal_node_id":"0.0-92.0","task_version":"battery-v0.1"},{"rune":"X","hex":"#3366ff99","correct":32,"choice":32,"rt":805.8749999909196,"accuracy":1,"outcome":"+10","keys":[2307.295000005979],"total_keys":1,"block":1,"trial":91,"robot":1,"valence":"win","action":"go","sham":0,"trial_type":"pit-trial","trial_index":104,"time_elapsed":922982,"internal_node_id":"0.0-93.0","task_version":"battery-v0.1"},{"rune":"U","hex":"#3366ff99","correct":-1,"choice":-1,"rt":-1,"accuracy":1,"outcome":"+1","keys":[],"total_keys":0,"block":1,"trial":92,"robot":2,"valence":"win","action":"no-go","sham":1,"trial_type":"pit-trial","trial_index":105,"time_elapsed":926989,"internal_node_id":"0.0-94.0","task_version":"battery-v0.1"},{"rune":"X","hex":"#3366ff99","correct":32,"choice":32,"rt":772.4199999938719,"accuracy":1,"outcome":"+10","keys":[2273.2950000208803],"total_keys":1,"block":1,"trial":93,"robot":1,"valence":"win","action":"go","sham":0,"trial_type":"pit-trial","trial_index":106,"time_elapsed":930473,"internal_node_id":"0.0-95.0","task_version":"battery-v0.1"},{"rune":"B","hex":"#f73b6a7A","correct":32,"choice":32,"rt":1002.7400000253692,"accuracy":1,"outcome":"-1","keys":[2503.820000012638],"total_keys":1,"block":1,"trial":94,"robot":3,"valence":"lose","action":"go","sham":0,"trial_type":"pit-trial","trial_index":107,"time_elapsed":934186,"internal_node_id":"0.0-96.0","task_version":"battery-v0.1"},{"rune":"U","hex":"#3366ff99","correct":-1,"choice":32,"rt":543.5699999798089,"accuracy":0,"outcome":"+1","keys":[2044.7850000055041],"total_keys":1,"block":1,"trial":95,"robot":2,"valence":"win","action":"no-go","sham":0,"trial_type":"pit-trial","trial_index":108,"time_elapsed":937436,"internal_node_id":"0.0-97.0","task_version":"battery-v0.1"},{"rune":"W","hex":"#f73b6a7A","correct":32,"choice":-1,"rt":-1,"accuracy":0,"outcome":"-10","keys":[3733.4150000242516],"total_keys":1,"block":1,"trial":96,"robot":3,"valence":"lose","action":"go","sham":0,"trial_type":"pit-trial","trial_index":109,"time_elapsed":941449,"internal_node_id":"0.0-98.0","task_version":"battery-v0.1"},{"rune":"X","hex":"#3366ff99","correct":32,"choice":32,"rt":385.2400000032503,"accuracy":1,"outcome":"+1","keys":[1886.1550000146963],"total_keys":1,"block":1,"trial":97,"robot":1,"valence":"win","action":"go","sham":1,"trial_type":"pit-trial","trial_index":110,"time_elapsed":944540,"internal_node_id":"0.0-99.0","task_version":"battery-v0.1"},{"rune":"U","hex":"#3366ff99","correct":-1,"choice":32,"rt":899.9049999983981,"accuracy":0,"outcome":"+1","keys":[2400.2249999903142],"total_keys":1,"block":1,"trial":98,"robot":2,"valence":"win","action":"no-go","sham":0,"trial_type":"pit-trial","trial_index":111,"time_elapsed":948148,"internal_node_id":"0.0-100.0","task_version":"battery-v0.1"},{"rune":"W","hex":"#f73b6a7A","correct":32,"choice":32,"rt":750.995000009425,"accuracy":1,"outcome":"-1","keys":[2252.6749999960884],"total_keys":1,"block":1,"trial":99,"robot":3,"valence":"lose","action":"go","sham":0,"trial_type":"pit-trial","trial_index":112,"time_elapsed":951605,"internal_node_id":"0.0-101.0","task_version":"battery-v0.1"},{"rune":"B","hex":"#f73b6a7A","correct":32,"choice":-1,"rt":-1,"accuracy":0,"outcome":"-10","keys":[],"total_keys":0,"block":1,"trial":100,"robot":3,"valence":"lose","action":"go","sham":0,"trial_type":"pit-trial","trial_index":113,"time_elapsed":955615,"internal_node_id":"0.0-102.0","task_version":"battery-v0.1"},{"rune":"B","hex":"#f73b6a7A","correct":32,"choice":32,"rt":689.7300000127871,"accuracy":1,"outcome":"-1","keys":[2190.709999995306],"total_keys":1,"block":1,"trial":101,"robot":3,"valence":"lose","action":"go","sham":0,"trial_type":"pit-trial","trial_index":114,"time_elapsed":959011,"internal_node_id":"0.0-103.0","task_version":"battery-v0.1"},{"rune":"W","hex":"#f73b6a7A","correct":32,"choice":32,"rt":567.3750000132713,"accuracy":1,"outcome":"-1","keys":[2067.9649999947287],"total_keys":1,"block":1,"trial":102,"robot":3,"valence":"lose","action":"go","sham":0,"trial_type":"pit-trial","trial_index":115,"time_elapsed":962290,"internal_node_id":"0.0-104.0","task_version":"battery-v0.1"},{"rune":"U","hex":"#3366ff99","correct":-1,"choice":32,"rt":397.07999999518506,"accuracy":0,"outcome":"+10","keys":[1898.700000019744],"total_keys":1,"block":1,"trial":103,"robot":2,"valence":"win","action":"no-go","sham":1,"trial_type":"pit-trial","trial_index":116,"time_elapsed":965395,"internal_node_id":"0.0-105.0","task_version":"battery-v0.1"},{"rune":"X","hex":"#3366ff99","correct":32,"choice":-1,"rt":-1,"accuracy":0,"outcome":"+1","keys":[3264.3150000076275],"total_keys":1,"block":1,"trial":104,"robot":1,"valence":"win","action":"go","sham":0,"trial_type":"pit-trial","trial_index":117,"time_elapsed":969408,"internal_node_id":"0.0-106.0","task_version":"battery-v0.1"},{"rune":"X","hex":"#3366ff99","correct":32,"choice":32,"rt":431.0199999890756,"accuracy":1,"outcome":"+10","keys":[1932.3800000129268],"total_keys":1,"block":1,"trial":105,"robot":1,"valence":"win","action":"go","sham":0,"trial_type":"pit-trial","trial_index":118,"time_elapsed":972550,"internal_node_id":"0.0-107.0","task_version":"battery-v0.1"},{"rune":"W","hex":"#f73b6a7A","correct":32,"choice":32,"rt":619.1950000065845,"accuracy":1,"outcome":"-1","keys":[2120.405000023311],"total_keys":1,"block":1,"trial":106,"robot":3,"valence":"lose","action":"go","sham":0,"trial_type":"pit-trial","trial_index":119,"time_elapsed":975881,"internal_node_id":"0.0-108.0","task_version":"battery-v0.1"},{"rune":"U","hex":"#3366ff99","correct":-1,"choice":32,"rt":457.15000000200234,"accuracy":0,"outcome":"+10","keys":[1957.8749999927823],"total_keys":1,"block":1,"trial":107,"robot":2,"valence":"win","action":"no-go","sham":1,"trial_type":"pit-trial","trial_index":120,"time_elapsed":979045,"internal_node_id":"0.0-109.0","task_version":"battery-v0.1"},{"rune":"B","hex":"#f73b6a7A","correct":32,"choice":32,"rt":712.6299999945331,"accuracy":1,"outcome":"-10","keys":[2213.965000002645],"total_keys":1,"block":1,"trial":108,"robot":3,"valence":"lose","action":"go","sham":1,"trial_type":"pit-trial","trial_index":121,"time_elapsed":982471,"internal_node_id":"0.0-110.0","task_version":"battery-v0.1"},{"rune":"W","hex":"#f73b6a7A","correct":32,"choice":-1,"rt":-1,"accuracy":0,"outcome":"-10","keys":[],"total_keys":0,"block":1,"trial":109,"robot":3,"valence":"lose","action":"go","sham":0,"trial_type":"pit-trial","trial_index":122,"time_elapsed":986486,"internal_node_id":"0.0-111.0","task_version":"battery-v0.1"},{"rune":"U","hex":"#3366ff99","correct":-1,"choice":32,"rt":375.89500000467524,"accuracy":0,"outcome":"+10","keys":[1877.0200000144541],"total_keys":1,"block":1,"trial":110,"robot":2,"valence":"win","action":"no-go","sham":1,"trial_type":"pit-trial","trial_index":123,"time_elapsed":989575,"internal_node_id":"0.0-112.0","task_version":"battery-v0.1"},{"rune":"X","hex":"#3366ff99","correct":32,"choice":32,"rt":219.47999999974854,"accuracy":1,"outcome":"+10","keys":[1721.8200000061188],"total_keys":1,"block":1,"trial":111,"robot":1,"valence":"win","action":"go","sham":0,"trial_type":"pit-trial","trial_index":124,"time_elapsed":992503,"internal_node_id":"0.0-113.0","task_version":"battery-v0.1"},{"rune":"B","hex":"#f73b6a7A","correct":32,"choice":32,"rt":576.2900000263471,"accuracy":1,"outcome":"-10","keys":[2077.404999989085],"total_keys":1,"block":1,"trial":112,"robot":3,"valence":"lose","action":"go","sham":1,"trial_type":"pit-trial","trial_index":125,"time_elapsed":995790,"internal_node_id":"0.0-114.0","task_version":"battery-v0.1"},{"rune":"W","hex":"#f73b6a7A","correct":32,"choice":32,"rt":1174.8850000149105,"accuracy":1,"outcome":"-10","keys":[2675.4049999872223],"total_keys":1,"block":1,"trial":113,"robot":3,"valence":"lose","action":"go","sham":1,"trial_type":"pit-trial","trial_index":126,"time_elapsed":999671,"internal_node_id":"0.0-115.0","task_version":"battery-v0.1"},{"rune":"B","hex":"#f73b6a7A","correct":32,"choice":32,"rt":542.4800000037067,"accuracy":1,"outcome":"-1","keys":[2045.0849999906495],"total_keys":1,"block":1,"trial":114,"robot":3,"valence":"lose","action":"go","sham":0,"trial_type":"pit-trial","trial_index":127,"time_elapsed":1002921,"internal_node_id":"0.0-116.0","task_version":"battery-v0.1"},{"rune":"U","hex":"#3366ff99","correct":-1,"choice":32,"rt":511.52500000898726,"accuracy":0,"outcome":"+10","keys":[2012.8199999744538],"total_keys":1,"block":1,"trial":115,"robot":2,"valence":"win","action":"no-go","sham":1,"trial_type":"pit-trial","trial_index":128,"time_elapsed":1006141,"internal_node_id":"0.0-117.0","task_version":"battery-v0.1"},{"rune":"X","hex":"#3366ff99","correct":32,"choice":32,"rt":195.28499999432825,"accuracy":1,"outcome":"+10","keys":[1696.6650000249501],"total_keys":1,"block":1,"trial":116,"robot":1,"valence":"win","action":"go","sham":0,"trial_type":"pit-trial","trial_index":129,"time_elapsed":1009049,"internal_node_id":"0.0-118.0","task_version":"battery-v0.1"},{"rune":"B","hex":"#f73b6a7A","correct":32,"choice":-1,"rt":-1,"accuracy":0,"outcome":"-1","keys":[],"total_keys":0,"block":1,"trial":117,"robot":3,"valence":"lose","action":"go","sham":1,"trial_type":"pit-trial","trial_index":130,"time_elapsed":1013065,"internal_node_id":"0.0-119.0","task_version":"battery-v0.1"},{"rune":"W","hex":"#f73b6a7A","correct":32,"choice":32,"rt":345.44499998446554,"accuracy":1,"outcome":"-1","keys":[1847.0699999888893],"total_keys":1,"block":1,"trial":118,"robot":3,"valence":"lose","action":"go","sham":0,"trial_type":"pit-trial","trial_index":131,"time_elapsed":1016117,"internal_node_id":"0.0-120.0","task_version":"battery-v0.1"},{"rune":"U","hex":"#3366ff99","correct":-1,"choice":32,"rt":552.2749999945518,"accuracy":0,"outcome":"+1","keys":[2053.680000011809],"total_keys":1,"block":1,"trial":119,"robot":2,"valence":"win","action":"no-go","sham":0,"trial_type":"pit-trial","trial_index":132,"time_elapsed":1019377,"internal_node_id":"0.0-121.0","task_version":"battery-v0.1"},{"rune":"X","hex":"#3366ff99","correct":32,"choice":-1,"rt":-1,"accuracy":0,"outcome":"+10","keys":[],"total_keys":0,"block":1,"trial":120,"robot":1,"valence":"win","action":"go","sham":1,"trial_type":"pit-trial","trial_index":133,"time_elapsed":1023386,"internal_node_id":"0.0-122.0","task_version":"battery-v0.1"},{"view_history":"[{\"page_index\":0,\"viewing_time\":87723.41000000597},{\"page_index\":1,\"viewing_time\":41583.80500000203}]","rt":129308.01000000793,"trial_type":"pit-instructions","trial_index":134,"time_elapsed":1152694,"internal_node_id":"0.0-123.0","task_version":"battery-v0.1"},{"rune":"V","hex":"#3366ff99","correct":32,"choice":32,"rt":407.4850000033621,"accuracy":1,"outcome":"+10","keys":[1910.824999999022],"total_keys":1,"block":2,"trial":121,"robot":1,"valence":"win","action":"go","sham":0,"trial_type":"pit-trial","trial_index":135,"time_elapsed":1155811,"internal_node_id":"0.0-124.0","task_version":"battery-v0.1"},{"rune":"M","hex":"#f73b6a7A","correct":-1,"choice":32,"rt":588.9850000094157,"accuracy":0,"outcome":"-10","keys":[2089.0200000139885],"total_keys":1,"block":2,"trial":122,"robot":4,"valence":"lose","action":"no-go","sham":0,"trial_type":"pit-trial","trial_index":136,"time_elapsed":1159112,"internal_node_id":"0.0-125.0","task_version":"battery-v0.1"},{"rune":"N","hex":"#3366ff99","correct":32,"choice":32,"rt":265.7400000025518,"accuracy":1,"outcome":"+10","keys":[1767.424999998184],"total_keys":1,"block":2,"trial":123,"robot":1,"valence":"win","action":"go","sham":0,"trial_type":"pit-trial","trial_index":137,"time_elapsed":1162084,"internal_node_id":"0.0-126.0","task_version":"battery-v0.1"},{"rune":"E","hex":"#3366ff99","correct":-1,"choice":32,"rt":428.6949999805074,"accuracy":0,"outcome":"+1","keys":[1930.289999989327],"total_keys":1,"block":2,"trial":124,"robot":2,"valence":"win","action":"no-go","sham":0,"trial_type":"pit-trial","trial_index":138,"time_elapsed":1165220,"internal_node_id":"0.0-127.0","task_version":"battery-v0.1"},{"rune":"E","hex":"#3366ff99","correct":-1,"choice":-1,"rt":-1,"accuracy":1,"outcome":"+10","keys":[],"total_keys":0,"block":2,"trial":125,"robot":2,"valence":"win","action":"no-go","sham":0,"trial_type":"pit-trial","trial_index":139,"time_elapsed":1169229,"internal_node_id":"0.0-128.0","task_version":"battery-v0.1"},{"rune":"N","hex":"#3366ff99","correct":32,"choice":32,"rt":653.1749999849126,"accuracy":1,"outcome":"+10","keys":[2153.9800000027753],"total_keys":1,"block":2,"trial":126,"robot":1,"valence":"win","action":"go","sham":0,"trial_type":"pit-trial","trial_index":140,"time_elapsed":1172591,"internal_node_id":"0.0-129.0","task_version":"battery-v0.1"},{"rune":"M","hex":"#f73b6a7A","correct":-1,"choice":32,"rt":879.5550000213552,"accuracy":0,"outcome":"-1","keys":[2379.8399999795947],"total_keys":1,"block":2,"trial":127,"robot":4,"valence":"lose","action":"no-go","sham":1,"trial_type":"pit-trial","trial_index":141,"time_elapsed":1176179,"internal_node_id":"0.0-130.0","task_version":"battery-v0.1"},{"rune":"V","hex":"#3366ff99","correct":32,"choice":32,"rt":673.624999995809,"accuracy":1,"outcome":"+10","keys":[2175.505000021076],"total_keys":1,"block":2,"trial":128,"robot":1,"valence":"win","action":"go","sham":0,"trial_type":"pit-trial","trial_index":142,"time_elapsed":1179560,"internal_node_id":"0.0-131.0","task_version":"battery-v0.1"},{"rune":"N","hex":"#3366ff99","correct":32,"choice":32,"rt":326.57999999355525,"accuracy":1,"outcome":"+10","keys":[1827.7750000124797],"total_keys":1,"block":2,"trial":129,"robot":1,"valence":"win","action":"go","sham":0,"trial_type":"pit-trial","trial_index":143,"time_elapsed":1182598,"internal_node_id":"0.0-132.0","task_version":"battery-v0.1"},{"rune":"V","hex":"#3366ff99","correct":32,"choice":32,"rt":422.019999998156,"accuracy":1,"outcome":"+1","keys":[1923.769999993965],"total_keys":1,"block":2,"trial":130,"robot":1,"valence":"win","action":"go","sham":1,"trial_type":"pit-trial","trial_index":144,"time_elapsed":1185734,"internal_node_id":"0.0-133.0","task_version":"battery-v0.1"},{"rune":"M","hex":"#f73b6a7A","correct":-1,"choice":32,"rt":531.779999990249,"accuracy":0,"outcome":"-10","keys":[2032.7349999861326],"total_keys":1,"block":2,"trial":131,"robot":4,"valence":"lose","action":"no-go","sham":0,"trial_type":"pit-trial","trial_index":145,"time_elapsed":1188978,"internal_node_id":"0.0-134.0","task_version":"battery-v0.1"},{"rune":"E","hex":"#3366ff99","correct":-1,"choice":32,"rt":324.350000009872,"accuracy":0,"outcome":"+1","keys":[1825.6249999976717],"total_keys":1,"block":2,"trial":132,"robot":2,"valence":"win","action":"no-go","sham":0,"trial_type":"pit-trial","trial_index":146,"time_elapsed":1192014,"internal_node_id":"0.0-135.0","task_version":"battery-v0.1"},{"rune":"N","hex":"#3366ff99","correct":32,"choice":32,"rt":368.49999998230487,"accuracy":1,"outcome":"+1","keys":[1869.6899999922607],"total_keys":1,"block":2,"trial":133,"robot":1,"valence":"win","action":"go","sham":1,"trial_type":"pit-trial","trial_index":147,"time_elapsed":1195093,"internal_node_id":"0.0-136.0","task_version":"battery-v0.1"},{"rune":"E","hex":"#3366ff99","correct":-1,"choice":32,"rt":529.1700000234414,"accuracy":0,"outcome":"+1","keys":[2030.6100000161678],"total_keys":1,"block":2,"trial":134,"robot":2,"valence":"win","action":"no-go","sham":0,"trial_type":"pit-trial","trial_index":148,"time_elapsed":1198333,"internal_node_id":"0.0-137.0","task_version":"battery-v0.1"},{"rune":"M","hex":"#f73b6a7A","correct":-1,"choice":-1,"rt":-1,"accuracy":1,"outcome":"-1","keys":[],"total_keys":0,"block":2,"trial":135,"robot":4,"valence":"lose","action":"no-go","sham":0,"trial_type":"pit-trial","trial_index":149,"time_elapsed":1202340,"internal_node_id":"0.0-138.0","task_version":"battery-v0.1"},{"rune":"V","hex":"#3366ff99","correct":32,"choice":32,"rt":668.1249999965075,"accuracy":1,"outcome":"+10","keys":[2168.3699999994133],"total_keys":1,"block":2,"trial":136,"robot":1,"valence":"win","action":"go","sham":0,"trial_type":"pit-trial","trial_index":150,"time_elapsed":1205718,"internal_node_id":"0.0-139.0","task_version":"battery-v0.1"},{"rune":"E","hex":"#3366ff99","correct":-1,"choice":32,"rt":594.3149999948218,"accuracy":0,"outcome":"+1","keys":[2095.4900000069756],"total_keys":1,"block":2,"trial":137,"robot":2,"valence":"win","action":"no-go","sham":0,"trial_type":"pit-trial","trial_index":151,"time_elapsed":1209024,"internal_node_id":"0.0-140.0","task_version":"battery-v0.1"},{"rune":"V","hex":"#3366ff99","correct":32,"choice":32,"rt":508.3549999981187,"accuracy":1,"outcome":"+1","keys":[2009.5149999833666],"total_keys":1,"block":2,"trial":138,"robot":1,"valence":"win","action":"go","sham":1,"trial_type":"pit-trial","trial_index":152,"time_elapsed":1212242,"internal_node_id":"0.0-141.0","task_version":"battery-v0.1"},{"rune":"M","hex":"#f73b6a7A","correct":-1,"choice":-1,"rt":-1,"accuracy":1,"outcome":"-10","keys":[],"total_keys":0,"block":2,"trial":139,"robot":4,"valence":"lose","action":"no-go","sham":1,"trial_type":"pit-trial","trial_index":153,"time_elapsed":1216258,"internal_node_id":"0.0-142.0","task_version":"battery-v0.1"},{"rune":"N","hex":"#3366ff99","correct":32,"choice":32,"rt":308.36499997531064,"accuracy":1,"outcome":"+1","keys":[1809.20500002685],"total_keys":1,"block":2,"trial":140,"robot":1,"valence":"win","action":"go","sham":1,"trial_type":"pit-trial","trial_index":154,"time_elapsed":1219273,"internal_node_id":"0.0-143.0","task_version":"battery-v0.1"},{"rune":"V","hex":"#3366ff99","correct":32,"choice":-1,"rt":-1,"accuracy":0,"outcome":"+1","keys":[],"total_keys":0,"block":2,"trial":141,"robot":1,"valence":"win","action":"go","sham":0,"trial_type":"pit-trial","trial_index":155,"time_elapsed":1223280,"internal_node_id":"0.0-144.0","task_version":"battery-v0.1"},{"rune":"N","hex":"#3366ff99","correct":32,"choice":32,"rt":580.11500001885,"accuracy":1,"outcome":"+10","keys":[2082.074999983888],"total_keys":1,"block":2,"trial":142,"robot":1,"valence":"win","action":"go","sham":0,"trial_type":"pit-trial","trial_index":156,"time_elapsed":1226566,"internal_node_id":"0.0-145.0","task_version":"battery-v0.1"},{"rune":"M","hex":"#f73b6a7A","correct":-1,"choice":32,"rt":889.259999996284,"accuracy":0,"outcome":"-10","keys":[2390.12999998522],"total_keys":1,"block":2,"trial":143,"robot":4,"valence":"lose","action":"no-go","sham":0,"trial_type":"pit-trial","trial_index":157,"time_elapsed":1230169,"internal_node_id":"0.0-146.0","task_version":"battery-v0.1"},{"rune":"E","hex":"#3366ff99","correct":-1,"choice":32,"rt":487.154999980703,"accuracy":0,"outcome":"+1","keys":[1988.4950000268873],"total_keys":1,"block":2,"trial":144,"robot":2,"valence":"win","action":"no-go","sham":0,"trial_type":"pit-trial","trial_index":158,"time_elapsed":1233365,"internal_node_id":"0.0-147.0","task_version":"battery-v0.1"},{"rune":"N","hex":"#3366ff99","correct":32,"choice":32,"rt":695.8050000248477,"accuracy":1,"outcome":"+10","keys":[2196.39999998617],"total_keys":1,"block":2,"trial":145,"robot":1,"valence":"win","action":"go","sham":0,"trial_type":"pit-trial","trial_index":159,"time_elapsed":1236771,"internal_node_id":"0.0-148.0","task_version":"battery-v0.1"},{"rune":"V","hex":"#3366ff99","correct":32,"choice":32,"rt":428.909999987809,"accuracy":1,"outcome":"+10","keys":[1930.339999991702],"total_keys":1,"block":2,"trial":146,"robot":1,"valence":"win","action":"go","sham":0,"trial_type":"pit-trial","trial_index":160,"time_elapsed":1239910,"internal_node_id":"0.0-149.0","task_version":"battery-v0.1"},{"rune":"E","hex":"#3366ff99","correct":-1,"choice":32,"rt":551.8299999821465,"accuracy":0,"outcome":"+1","keys":[2052.83000000054],"total_keys":1,"block":2,"trial":147,"robot":2,"valence":"win","action":"no-go","sham":0,"trial_type":"pit-trial","trial_index":161,"time_elapsed":1243171,"internal_node_id":"0.0-150.0","task_version":"battery-v0.1"},{"rune":"M","hex":"#f73b6a7A","correct":-1,"choice":-1,"rt":-1,"accuracy":1,"outcome":"-1","keys":[],"total_keys":0,"block":2,"trial":148,"robot":4,"valence":"lose","action":"no-go","sham":0,"trial_type":"pit-trial","trial_index":162,"time_elapsed":1247185,"internal_node_id":"0.0-151.0","task_version":"battery-v0.1"},{"rune":"E","hex":"#3366ff99","correct":-1,"choice":-1,"rt":-1,"accuracy":1,"outcome":"+10","keys":[],"total_keys":0,"block":2,"trial":149,"robot":2,"valence":"win","action":"no-go","sham":0,"trial_type":"pit-trial","trial_index":163,"time_elapsed":1251199,"internal_node_id":"0.0-152.0","task_version":"battery-v0.1"},{"rune":"V","hex":"#3366ff99","correct":32,"choice":32,"rt":455.389999988256,"accuracy":1,"outcome":"+10","keys":[1955.8949999918696],"total_keys":1,"block":2,"trial":150,"robot":1,"valence":"win","action":"go","sham":0,"trial_type":"pit-trial","trial_index":164,"time_elapsed":1254362,"internal_node_id":"0.0-153.0","task_version":"battery-v0.1"},{"rune":"M","hex":"#f73b6a7A","correct":-1,"choice":32,"rt":689.6950000082143,"accuracy":0,"outcome":"-10","keys":[2190.6399999861605],"total_keys":1,"block":2,"trial":151,"robot":4,"valence":"lose","action":"no-go","sham":0,"trial_type":"pit-trial","trial_index":165,"time_elapsed":1257759,"internal_node_id":"0.0-154.0","task_version":"battery-v0.1"},{"rune":"N","hex":"#3366ff99","correct":32,"choice":32,"rt":388.21499998448417,"accuracy":1,"outcome":"+10","keys":[1889.6200000017416],"total_keys":1,"block":2,"trial":152,"robot":1,"valence":"win","action":"go","sham":0,"trial_type":"pit-trial","trial_index":166,"time_elapsed":1260860,"internal_node_id":"0.0-155.0","task_version":"battery-v0.1"},{"rune":"M","hex":"#f73b6a7A","correct":-1,"choice":-1,"rt":-1,"accuracy":1,"outcome":"-1","keys":[],"total_keys":0,"block":2,"trial":153,"robot":4,"valence":"lose","action":"no-go","sham":0,"trial_type":"pit-trial","trial_index":167,"time_elapsed":1264872,"internal_node_id":"0.0-156.0","task_version":"battery-v0.1"},{"rune":"E","hex":"#3366ff99","correct":-1,"choice":32,"rt":665.0649999792222,"accuracy":0,"outcome":"+1","keys":[2165.2999999932945],"total_keys":1,"block":2,"trial":154,"robot":2,"valence":"win","action":"no-go","sham":0,"trial_type":"pit-trial","trial_index":168,"time_elapsed":1268244,"internal_node_id":"0.0-157.0","task_version":"battery-v0.1"},{"rune":"V","hex":"#3366ff99","correct":32,"choice":32,"rt":506.88000000081956,"accuracy":1,"outcome":"+10","keys":[2007.3900000134017],"total_keys":1,"block":2,"trial":155,"robot":1,"valence":"win","action":"go","sham":0,"trial_type":"pit-trial","trial_index":169,"time_elapsed":1271459,"internal_node_id":"0.0-158.0","task_version":"battery-v0.1"},{"rune":"L","hex":"#3366ff99","correct":32,"choice":32,"rt":530.0149999966379,"accuracy":1,"outcome":"+10","keys":[2031.4149999758229],"total_keys":1,"block":2,"trial":156,"robot":1,"valence":"win","action":"go","sham":0,"trial_type":"pit-trial","trial_index":170,"time_elapsed":1274696,"internal_node_id":"0.0-159.0","task_version":"battery-v0.1"},{"rune":"M","hex":"#f73b6a7A","correct":-1,"choice":-1,"rt":-1,"accuracy":1,"outcome":"-1","keys":[],"total_keys":0,"block":2,"trial":157,"robot":4,"valence":"lose","action":"no-go","sham":0,"trial_type":"pit-trial","trial_index":171,"time_elapsed":1278709,"internal_node_id":"0.0-160.0","task_version":"battery-v0.1"},{"rune":"V","hex":"#3366ff99","correct":32,"choice":32,"rt":445.37999999010935,"accuracy":1,"outcome":"+10","keys":[1945.9449999849312],"total_keys":1,"block":2,"trial":158,"robot":1,"valence":"win","action":"go","sham":0,"trial_type":"pit-trial","trial_index":172,"time_elapsed":1281863,"internal_node_id":"0.0-161.0","task_version":"battery-v0.1"},{"rune":"L","hex":"#3366ff99","correct":32,"choice":32,"rt":384.3150000029709,"accuracy":1,"outcome":"+10","keys":[1885.6249999953434],"total_keys":1,"block":2,"trial":159,"robot":1,"valence":"win","action":"go","sham":0,"trial_type":"pit-trial","trial_index":173,"time_elapsed":1284960,"internal_node_id":"0.0-162.0","task_version":"battery-v0.1"},{"rune":"E","hex":"#3366ff99","correct":-1,"choice":-1,"rt":-1,"accuracy":1,"outcome":"+1","keys":[],"total_keys":0,"block":2,"trial":160,"robot":2,"valence":"win","action":"no-go","sham":1,"trial_type":"pit-trial","trial_index":174,"time_elapsed":1288967,"internal_node_id":"0.0-163.0","task_version":"battery-v0.1"},{"rune":"L","hex":"#3366ff99","correct":32,"choice":32,"rt":521.2049999972805,"accuracy":1,"outcome":"+1","keys":[2026.8899999791756],"total_keys":1,"block":2,"trial":161,"robot":1,"valence":"win","action":"go","sham":1,"trial_type":"pit-trial","trial_index":175,"time_elapsed":1292200,"internal_node_id":"0.0-164.0","task_version":"battery-v0.1"},{"rune":"C","hex":"#f73b6a7A","correct":32,"choice":32,"rt":823.8299999793526,"accuracy":1,"outcome":"-1","keys":[2324.545000010403],"total_keys":1,"block":2,"trial":162,"robot":3,"valence":"lose","action":"go","sham":0,"trial_type":"pit-trial","trial_index":176,"time_elapsed":1295734,"internal_node_id":"0.0-165.0","task_version":"battery-v0.1"},{"rune":"Q","hex":"#f73b6a7A","correct":-1,"choice":32,"rt":873.5900000028778,"accuracy":0,"outcome":"-10","keys":[2374.7850000218023],"total_keys":1,"block":2,"trial":163,"robot":4,"valence":"lose","action":"no-go","sham":0,"trial_type":"pit-trial","trial_index":177,"time_elapsed":1299319,"internal_node_id":"0.0-166.0","task_version":"battery-v0.1"},{"rune":"E","hex":"#3366ff99","correct":-1,"choice":32,"rt":601.9199999864213,"accuracy":0,"outcome":"+1","keys":[2103.3799999859184],"total_keys":1,"block":2,"trial":164,"robot":2,"valence":"win","action":"no-go","sham":0,"trial_type":"pit-trial","trial_index":178,"time_elapsed":1302629,"internal_node_id":"0.0-167.0","task_version":"battery-v0.1"},{"rune":"E","hex":"#3366ff99","correct":-1,"choice":32,"rt":592.2100000025239,"accuracy":0,"outcome":"+10","keys":[2093.3700000168756],"total_keys":1,"block":2,"trial":165,"robot":2,"valence":"win","action":"no-go","sham":1,"trial_type":"pit-trial","trial_index":179,"time_elapsed":1305933,"internal_node_id":"0.0-168.0","task_version":"battery-v0.1"},{"rune":"L","hex":"#3366ff99","correct":32,"choice":32,"rt":588.1349999981467,"accuracy":1,"outcome":"+10","keys":[2088.2149999961257],"total_keys":1,"block":2,"trial":166,"robot":1,"valence":"win","action":"go","sham":0,"trial_type":"pit-trial","trial_index":180,"time_elapsed":1309229,"internal_node_id":"0.0-169.0","task_version":"battery-v0.1"},{"rune":"Q","hex":"#f73b6a7A","correct":-1,"choice":-1,"rt":-1,"accuracy":1,"outcome":"-1","keys":[],"total_keys":0,"block":2,"trial":167,"robot":4,"valence":"lose","action":"no-go","sham":0,"trial_type":"pit-trial","trial_index":181,"time_elapsed":1313238,"internal_node_id":"0.0-170.0","task_version":"battery-v0.1"},{"rune":"C","hex":"#f73b6a7A","correct":32,"choice":32,"rt":395.8450000209268,"accuracy":1,"outcome":"-1","keys":[1898.07500000461],"total_keys":1,"block":2,"trial":168,"robot":3,"valence":"lose","action":"go","sham":0,"trial_type":"pit-trial","trial_index":182,"time_elapsed":1316347,"internal_node_id":"0.0-171.0","task_version":"battery-v0.1"},{"rune":"L","hex":"#3366ff99","correct":32,"choice":32,"rt":532.1600000024773,"accuracy":1,"outcome":"+10","keys":[2033.030000020517],"total_keys":1,"block":2,"trial":169,"robot":1,"valence":"win","action":"go","sham":0,"trial_type":"pit-trial","trial_index":183,"time_elapsed":1319591,"internal_node_id":"0.0-172.0","task_version":"battery-v0.1"},{"rune":"P","hex":"#3366ff99","correct":-1,"choice":32,"rt":451.99000000138767,"accuracy":0,"outcome":"+1","keys":[1952.9050000128336],"total_keys":1,"block":2,"trial":170,"robot":2,"valence":"win","action":"no-go","sham":0,"trial_type":"pit-trial","trial_index":184,"time_elapsed":1322750,"internal_node_id":"0.0-173.0","task_version":"battery-v0.1"},{"rune":"Q","hex":"#f73b6a7A","correct":-1,"choice":-1,"rt":-1,"accuracy":1,"outcome":"-1","keys":[],"total_keys":0,"block":2,"trial":171,"robot":4,"valence":"lose","action":"no-go","sham":0,"trial_type":"pit-trial","trial_index":185,"time_elapsed":1326759,"internal_node_id":"0.0-174.0","task_version":"battery-v0.1"},{"rune":"C","hex":"#f73b6a7A","correct":32,"choice":32,"rt":384.19000001158565,"accuracy":1,"outcome":"-1","keys":[1885.2000000188127],"total_keys":1,"block":2,"trial":172,"robot":3,"valence":"lose","action":"go","sham":0,"trial_type":"pit-trial","trial_index":186,"time_elapsed":1329851,"internal_node_id":"0.0-175.0","task_version":"battery-v0.1"},{"rune":"C","hex":"#f73b6a7A","correct":32,"choice":32,"rt":826.0949999967124,"accuracy":1,"outcome":"-10","keys":[2326.824999996461],"total_keys":1,"block":2,"trial":173,"robot":3,"valence":"lose","action":"go","sham":1,"trial_type":"pit-trial","trial_index":187,"time_elapsed":1333389,"internal_node_id":"0.0-176.0","task_version":"battery-v0.1"},{"rune":"P","hex":"#3366ff99","correct":-1,"choice":32,"rt":506.33999999263324,"accuracy":0,"outcome":"+1","keys":[2007.4099999910686],"total_keys":1,"block":2,"trial":174,"robot":2,"valence":"win","action":"no-go","sham":0,"trial_type":"pit-trial","trial_index":188,"time_elapsed":1336605,"internal_node_id":"0.0-177.0","task_version":"battery-v0.1"},{"rune":"L","hex":"#3366ff99","correct":32,"choice":32,"rt":685.2000000071712,"accuracy":1,"outcome":"+10","keys":[2186.7499999934807],"total_keys":1,"block":2,"trial":175,"robot":1,"valence":"win","action":"go","sham":0,"trial_type":"pit-trial","trial_index":189,"time_elapsed":1339998,"internal_node_id":"0.0-178.0","task_version":"battery-v0.1"},{"rune":"Q","hex":"#f73b6a7A","correct":-1,"choice":32,"rt":666.6299999924377,"accuracy":0,"outcome":"-10","keys":[2167.58999999729],"total_keys":1,"block":2,"trial":176,"robot":4,"valence":"lose","action":"no-go","sham":0,"trial_type":"pit-trial","trial_index":190,"time_elapsed":1343378,"internal_node_id":"0.0-179.0","task_version":"battery-v0.1"},{"rune":"P","hex":"#3366ff99","correct":-1,"choice":32,"rt":585.0150000187568,"accuracy":0,"outcome":"+1","keys":[2086.094999976922],"total_keys":1,"block":2,"trial":177,"robot":2,"valence":"win","action":"no-go","sham":0,"trial_type":"pit-trial","trial_index":191,"time_elapsed":1346670,"internal_node_id":"0.0-180.0","task_version":"battery-v0.1"},{"rune":"Q","hex":"#f73b6a7A","correct":-1,"choice":-1,"rt":-1,"accuracy":1,"outcome":"-1","keys":[],"total_keys":0,"block":2,"trial":178,"robot":4,"valence":"lose","action":"no-go","sham":0,"trial_type":"pit-trial","trial_index":192,"time_elapsed":1350687,"internal_node_id":"0.0-181.0","task_version":"battery-v0.1"},{"rune":"L","hex":"#3366ff99","correct":32,"choice":32,"rt":860.9299999952782,"accuracy":1,"outcome":"+10","keys":[2362.1799999964423],"total_keys":1,"block":2,"trial":179,"robot":1,"valence":"win","action":"go","sham":0,"trial_type":"pit-trial","trial_index":193,"time_elapsed":1354255,"internal_node_id":"0.0-182.0","task_version":"battery-v0.1"},{"rune":"C","hex":"#f73b6a7A","correct":32,"choice":32,"rt":828.6450000014156,"accuracy":1,"outcome":"-1","keys":[2328.8400000019465],"total_keys":1,"block":2,"trial":180,"robot":3,"valence":"lose","action":"go","sham":0,"trial_type":"pit-trial","trial_index":194,"time_elapsed":1357789,"internal_node_id":"0.0-183.0","task_version":"battery-v0.1"},{"rune":"C","hex":"#f73b6a7A","correct":32,"choice":32,"rt":588.9550000138115,"accuracy":1,"outcome":"-10","keys":[2089.4250000128523],"total_keys":1,"block":2,"trial":181,"robot":3,"valence":"lose","action":"go","sham":1,"trial_type":"pit-trial","trial_index":195,"time_elapsed":1361082,"internal_node_id":"0.0-184.0","task_version":"battery-v0.1"},{"rune":"Q","hex":"#f73b6a7A","correct":-1,"choice":32,"rt":1031.0750000062399,"accuracy":0,"outcome":"-10","keys":[2531.6900000034366],"total_keys":1,"block":2,"trial":182,"robot":4,"valence":"lose","action":"no-go","sham":0,"trial_type":"pit-trial","trial_index":196,"time_elapsed":1364824,"internal_node_id":"0.0-185.0","task_version":"battery-v0.1"},{"rune":"L","hex":"#3366ff99","correct":32,"choice":32,"rt":155.77499999199063,"accuracy":1,"outcome":"+10","keys":[1658.274999994319],"total_keys":1,"block":2,"trial":183,"robot":1,"valence":"win","action":"go","sham":0,"trial_type":"pit-trial","trial_index":197,"time_elapsed":1367692,"internal_node_id":"0.0-186.0","task_version":"battery-v0.1"},{"rune":"P","hex":"#3366ff99","correct":-1,"choice":-1,"rt":-1,"accuracy":1,"outcome":"+1","keys":[3746.6350000177044],"total_keys":1,"block":2,"trial":184,"robot":2,"valence":"win","action":"no-go","sham":1,"trial_type":"pit-trial","trial_index":198,"time_elapsed":1371705,"internal_node_id":"0.0-187.0","task_version":"battery-v0.1"},{"rune":"C","hex":"#f73b6a7A","correct":32,"choice":-1,"rt":-1,"accuracy":0,"outcome":"-10","keys":[],"total_keys":0,"block":2,"trial":185,"robot":3,"valence":"lose","action":"go","sham":0,"trial_type":"pit-trial","trial_index":199,"time_elapsed":1375720,"internal_node_id":"0.0-188.0","task_version":"battery-v0.1"},{"rune":"P","hex":"#3366ff99","correct":-1,"choice":32,"rt":593.6250000086147,"accuracy":0,"outcome":"+1","keys":[2096.464999980526],"total_keys":1,"block":2,"trial":186,"robot":2,"valence":"win","action":"no-go","sham":0,"trial_type":"pit-trial","trial_index":200,"time_elapsed":1379027,"internal_node_id":"0.0-189.0","task_version":"battery-v0.1"},{"rune":"Q","hex":"#f73b6a7A","correct":-1,"choice":32,"rt":941.5000000153668,"accuracy":0,"outcome":"-1","keys":[2443.009999988135],"total_keys":1,"block":2,"trial":187,"robot":4,"valence":"lose","action":"no-go","sham":1,"trial_type":"pit-trial","trial_index":201,"time_elapsed":1382677,"internal_node_id":"0.0-190.0","task_version":"battery-v0.1"},{"rune":"L","hex":"#3366ff99","correct":32,"choice":32,"rt":475.99999999511056,"accuracy":1,"outcome":"+10","keys":[1977.6750000019092],"total_keys":1,"block":2,"trial":188,"robot":1,"valence":"win","action":"go","sham":0,"trial_type":"pit-trial","trial_index":202,"time_elapsed":1385861,"internal_node_id":"0.0-191.0","task_version":"battery-v0.1"},{"rune":"Q","hex":"#f73b6a7A","correct":-1,"choice":32,"rt":603.335000021616,"accuracy":0,"outcome":"-10","keys":[2104.330000001937],"total_keys":1,"block":2,"trial":189,"robot":4,"valence":"lose","action":"no-go","sham":0,"trial_type":"pit-trial","trial_index":203,"time_elapsed":1389173,"internal_node_id":"0.0-192.0","task_version":"battery-v0.1"},{"rune":"C","hex":"#f73b6a7A","correct":32,"choice":32,"rt":536.5199999941979,"accuracy":1,"outcome":"-1","keys":[2037.4599999922793],"total_keys":1,"block":2,"trial":190,"robot":3,"valence":"lose","action":"go","sham":0,"trial_type":"pit-trial","trial_index":204,"time_elapsed":1392414,"internal_node_id":"0.0-193.0","task_version":"battery-v0.1"},{"rune":"L","hex":"#3366ff99","correct":32,"choice":32,"rt":436.87999999383464,"accuracy":1,"outcome":"+1","keys":[1941.9049999851268],"total_keys":1,"block":2,"trial":191,"robot":1,"valence":"win","action":"go","sham":1,"trial_type":"pit-trial","trial_index":205,"time_elapsed":1395565,"internal_node_id":"0.0-194.0","task_version":"battery-v0.1"},{"rune":"P","hex":"#3366ff99","correct":-1,"choice":32,"rt":325.0750000006519,"accuracy":0,"outcome":"+1","keys":[1825.8050000004005],"total_keys":1,"block":2,"trial":192,"robot":2,"valence":"win","action":"no-go","sham":0,"trial_type":"pit-trial","trial_index":206,"time_elapsed":1398604,"internal_node_id":"0.0-195.0","task_version":"battery-v0.1"},{"rune":"S","hex":"#f73b6a7A","correct":32,"choice":-1,"rt":-1,"accuracy":0,"outcome":"-10","keys":[],"total_keys":0,"block":2,"trial":193,"robot":3,"valence":"lose","action":"go","sham":0,"trial_type":"pit-trial","trial_index":207,"time_elapsed":1402611,"internal_node_id":"0.0-196.0","task_version":"battery-v0.1"},{"rune":"Q","hex":"#f73b6a7A","correct":-1,"choice":32,"rt":1153.6399999749847,"accuracy":0,"outcome":"-10","keys":[2655.6649999984074],"total_keys":1,"block":2,"trial":194,"robot":4,"valence":"lose","action":"no-go","sham":0,"trial_type":"pit-trial","trial_index":208,"time_elapsed":1406472,"internal_node_id":"0.0-197.0","task_version":"battery-v0.1"},{"rune":"L","hex":"#3366ff99","correct":32,"choice":32,"rt":422.4650000105612,"accuracy":1,"outcome":"+10","keys":[1922.5699999951757],"total_keys":1,"block":2,"trial":195,"robot":1,"valence":"win","action":"go","sham":0,"trial_type":"pit-trial","trial_index":209,"time_elapsed":1409607,"internal_node_id":"0.0-198.0","task_version":"battery-v0.1"},{"rune":"P","hex":"#3366ff99","correct":-1,"choice":-1,"rt":-1,"accuracy":1,"outcome":"+10","keys":[],"total_keys":0,"block":2,"trial":196,"robot":2,"valence":"win","action":"no-go","sham":0,"trial_type":"pit-trial","trial_index":210,"time_elapsed":1413620,"internal_node_id":"0.0-199.0","task_version":"battery-v0.1"},{"rune":"L","hex":"#3366ff99","correct":32,"choice":32,"rt":542.7600000111852,"accuracy":1,"outcome":"+1","keys":[2043.5399999842048],"total_keys":1,"block":2,"trial":197,"robot":1,"valence":"win","action":"go","sham":1,"trial_type":"pit-trial","trial_index":211,"time_elapsed":1416876,"internal_node_id":"0.0-200.0","task_version":"battery-v0.1"},{"rune":"Q","hex":"#f73b6a7A","correct":-1,"choice":32,"rt":1290.9700000018347,"accuracy":0,"outcome":"-10","keys":[2792.5349999859463],"total_keys":1,"block":2,"trial":198,"robot":4,"valence":"lose","action":"no-go","sham":0,"trial_type":"pit-trial","trial_index":212,"time_elapsed":1420880,"internal_node_id":"0.0-201.0","task_version":"battery-v0.1"},{"rune":"P","hex":"#3366ff99","correct":-1,"choice":-1,"rt":-1,"accuracy":1,"outcome":"+10","keys":[],"total_keys":0,"block":2,"trial":199,"robot":2,"valence":"win","action":"no-go","sham":0,"trial_type":"pit-trial","trial_index":213,"time_elapsed":1424898,"internal_node_id":"0.0-202.0","task_version":"battery-v0.1"},{"rune":"S","hex":"#f73b6a7A","correct":32,"choice":-1,"rt":-1,"accuracy":0,"outcome":"-10","keys":[],"total_keys":0,"block":2,"trial":200,"robot":3,"valence":"lose","action":"go","sham":0,"trial_type":"pit-trial","trial_index":214,"time_elapsed":1428908,"internal_node_id":"0.0-203.0","task_version":"battery-v0.1"},{"rune":"P","hex":"#3366ff99","correct":-1,"choice":32,"rt":1145.1299999898765,"accuracy":0,"outcome":"+10","keys":[2645.6299999845214,3583.5249999945518],"total_keys":2,"block":2,"trial":201,"robot":2,"valence":"win","action":"no-go","sham":1,"trial_type":"pit-trial","trial_index":215,"time_elapsed":1432763,"internal_node_id":"0.0-204.0","task_version":"battery-v0.1"},{"rune":"R","hex":"#f73b6a7A","correct":32,"choice":-1,"rt":-1,"accuracy":0,"outcome":"-10","keys":[],"total_keys":0,"block":2,"trial":202,"robot":3,"valence":"lose","action":"go","sham":0,"trial_type":"pit-trial","trial_index":216,"time_elapsed":1436776,"internal_node_id":"0.0-205.0","task_version":"battery-v0.1"},{"rune":"Q","hex":"#f73b6a7A","correct":-1,"choice":-1,"rt":-1,"accuracy":1,"outcome":"-10","keys":[],"total_keys":0,"block":2,"trial":203,"robot":4,"valence":"lose","action":"no-go","sham":1,"trial_type":"pit-trial","trial_index":217,"time_elapsed":1440793,"internal_node_id":"0.0-206.0","task_version":"battery-v0.1"},{"rune":"S","hex":"#f73b6a7A","correct":32,"choice":32,"rt":775.355000019772,"accuracy":1,"outcome":"-1","keys":[2275.855000014417],"total_keys":1,"block":2,"trial":204,"robot":3,"valence":"lose","action":"go","sham":0,"trial_type":"pit-trial","trial_index":218,"time_elapsed":1444275,"internal_node_id":"0.0-207.0","task_version":"battery-v0.1"},{"rune":"S","hex":"#f73b6a7A","correct":32,"choice":32,"rt":861.2399999983609,"accuracy":1,"outcome":"-1","keys":[2362.7350000024308],"total_keys":1,"block":2,"trial":205,"robot":3,"valence":"lose","action":"go","sham":0,"trial_type":"pit-trial","trial_index":219,"time_elapsed":1447847,"internal_node_id":"0.0-208.0","task_version":"battery-v0.1"},{"rune":"Q","hex":"#f73b6a7A","correct":-1,"choice":-1,"rt":-1,"accuracy":1,"outcome":"-10","keys":[],"total_keys":0,"block":2,"trial":206,"robot":4,"valence":"lose","action":"no-go","sham":1,"trial_type":"pit-trial","trial_index":220,"time_elapsed":1451862,"internal_node_id":"0.0-209.0","task_version":"battery-v0.1"},{"rune":"R","hex":"#f73b6a7A","correct":32,"choice":32,"rt":809.9999999976717,"accuracy":1,"outcome":"-1","keys":[2310.8500000089407],"total_keys":1,"block":2,"trial":207,"robot":3,"valence":"lose","action":"go","sham":0,"trial_type":"pit-trial","trial_index":221,"time_elapsed":1455382,"internal_node_id":"0.0-210.0","task_version":"battery-v0.1"},{"rune":"P","hex":"#3366ff99","correct":-1,"choice":32,"rt":1079.410000005737,"accuracy":0,"outcome":"+1","keys":[2580.4899999930058],"total_keys":1,"block":2,"trial":208,"robot":2,"valence":"win","action":"no-go","sham":0,"trial_type":"pit-trial","trial_index":222,"time_elapsed":1459172,"internal_node_id":"0.0-211.0","task_version":"battery-v0.1"},{"rune":"H","hex":"#f73b6a7A","correct":-1,"choice":-1,"rt":-1,"accuracy":1,"outcome":"-1","keys":[],"total_keys":0,"block":2,"trial":209,"robot":4,"valence":"lose","action":"no-go","sham":0,"trial_type":"pit-trial","trial_index":223,"time_elapsed":1463182,"internal_node_id":"0.0-212.0","task_version":"battery-v0.1"},{"rune":"S","hex":"#f73b6a7A","correct":32,"choice":32,"rt":785.2450000063982,"accuracy":1,"outcome":"-1","keys":[2285.4699999734294],"total_keys":1,"block":2,"trial":210,"robot":3,"valence":"lose","action":"go","sham":0,"trial_type":"pit-trial","trial_index":224,"time_elapsed":1466675,"internal_node_id":"0.0-213.0","task_version":"battery-v0.1"},{"rune":"R","hex":"#f73b6a7A","correct":32,"choice":32,"rt":1290.019999985816,"accuracy":1,"outcome":"-10","keys":[2792.7199999976438],"total_keys":1,"block":2,"trial":211,"robot":3,"valence":"lose","action":"go","sham":1,"trial_type":"pit-trial","trial_index":225,"time_elapsed":1470675,"internal_node_id":"0.0-214.0","task_version":"battery-v0.1"},{"rune":"Z","hex":"#3366ff99","correct":-1,"choice":32,"rt":684.4599999894854,"accuracy":0,"outcome":"+1","keys":[2192.379999993136],"total_keys":1,"block":2,"trial":212,"robot":2,"valence":"win","action":"no-go","sham":0,"trial_type":"pit-trial","trial_index":226,"time_elapsed":1474070,"internal_node_id":"0.0-215.0","task_version":"battery-v0.1"},{"rune":"R","hex":"#f73b6a7A","correct":32,"choice":32,"rt":867.5400000065565,"accuracy":1,"outcome":"-1","keys":[2367.9249999986496],"total_keys":1,"block":2,"trial":213,"robot":3,"valence":"lose","action":"go","sham":0,"trial_type":"pit-trial","trial_index":227,"time_elapsed":1477649,"internal_node_id":"0.0-216.0","task_version":"battery-v0.1"},{"rune":"S","hex":"#f73b6a7A","correct":32,"choice":32,"rt":582.3400000226684,"accuracy":1,"outcome":"-10","keys":[2088.0600000091363],"total_keys":1,"block":2,"trial":214,"robot":3,"valence":"lose","action":"go","sham":1,"trial_type":"pit-trial","trial_index":228,"time_elapsed":1480941,"internal_node_id":"0.0-217.0","task_version":"battery-v0.1"},{"rune":"Z","hex":"#3366ff99","correct":-1,"choice":-1,"rt":-1,"accuracy":1,"outcome":"+10","keys":[2955.630000011297],"total_keys":1,"block":2,"trial":215,"robot":2,"valence":"win","action":"no-go","sham":0,"trial_type":"pit-trial","trial_index":229,"time_elapsed":1484953,"internal_node_id":"0.0-218.0","task_version":"battery-v0.1"},{"rune":"H","hex":"#f73b6a7A","correct":-1,"choice":-1,"rt":-1,"accuracy":1,"outcome":"-1","keys":[],"total_keys":0,"block":2,"trial":216,"robot":4,"valence":"lose","action":"no-go","sham":0,"trial_type":"pit-trial","trial_index":230,"time_elapsed":1488961,"internal_node_id":"0.0-219.0","task_version":"battery-v0.1"},{"rune":"H","hex":"#f73b6a7A","correct":-1,"choice":-1,"rt":-1,"accuracy":1,"outcome":"-10","keys":[],"total_keys":0,"block":2,"trial":217,"robot":4,"valence":"lose","action":"no-go","sham":1,"trial_type":"pit-trial","trial_index":231,"time_elapsed":1492978,"internal_node_id":"0.0-220.0","task_version":"battery-v0.1"},{"rune":"Z","hex":"#3366ff99","correct":-1,"choice":32,"rt":502.12000001920387,"accuracy":0,"outcome":"+1","keys":[2003.5250000073574],"total_keys":1,"block":2,"trial":218,"robot":2,"valence":"win","action":"no-go","sham":0,"trial_type":"pit-trial","trial_index":232,"time_elapsed":1496186,"internal_node_id":"0.0-221.0","task_version":"battery-v0.1"},{"rune":"S","hex":"#f73b6a7A","correct":32,"choice":32,"rt":657.5549999834038,"accuracy":1,"outcome":"-10","keys":[2158.804999984568],"total_keys":1,"block":2,"trial":219,"robot":3,"valence":"lose","action":"go","sham":1,"trial_type":"pit-trial","trial_index":233,"time_elapsed":1499554,"internal_node_id":"0.0-222.0","task_version":"battery-v0.1"},{"rune":"R","hex":"#f73b6a7A","correct":32,"choice":-1,"rt":-1,"accuracy":0,"outcome":"-10","keys":[],"total_keys":0,"block":2,"trial":220,"robot":3,"valence":"lose","action":"go","sham":0,"trial_type":"pit-trial","trial_index":234,"time_elapsed":1503564,"internal_node_id":"0.0-223.0","task_version":"battery-v0.1"},{"rune":"H","hex":"#f73b6a7A","correct":-1,"choice":32,"rt":950.0750000006519,"accuracy":0,"outcome":"-10","keys":[2450.8849999983795],"total_keys":1,"block":2,"trial":221,"robot":4,"valence":"lose","action":"no-go","sham":0,"trial_type":"pit-trial","trial_index":235,"time_elapsed":1507224,"internal_node_id":"0.0-224.0","task_version":"battery-v0.1"},{"rune":"R","hex":"#f73b6a7A","correct":32,"choice":32,"rt":854.9399999901652,"accuracy":1,"outcome":"-1","keys":[2355.780000012601],"total_keys":1,"block":2,"trial":222,"robot":3,"valence":"lose","action":"go","sham":0,"trial_type":"pit-trial","trial_index":236,"time_elapsed":1510785,"internal_node_id":"0.0-225.0","task_version":"battery-v0.1"},{"rune":"S","hex":"#f73b6a7A","correct":32,"choice":32,"rt":648.2750000141095,"accuracy":1,"outcome":"-1","keys":[2148.7450000131503],"total_keys":1,"block":2,"trial":223,"robot":3,"valence":"lose","action":"go","sham":0,"trial_type":"pit-trial","trial_index":237,"time_elapsed":1514146,"internal_node_id":"0.0-226.0","task_version":"battery-v0.1"},{"rune":"Z","hex":"#3366ff99","correct":-1,"choice":32,"rt":782.0999999821652,"accuracy":0,"outcome":"+10","keys":[2282.5249999877997],"total_keys":1,"block":2,"trial":224,"robot":2,"valence":"win","action":"no-go","sham":1,"trial_type":"pit-trial","trial_index":238,"time_elapsed":1517637,"internal_node_id":"0.0-227.0","task_version":"battery-v0.1"},{"rune":"H","hex":"#f73b6a7A","correct":-1,"choice":-1,"rt":-1,"accuracy":1,"outcome":"-1","keys":[],"total_keys":0,"block":2,"trial":225,"robot":4,"valence":"lose","action":"no-go","sham":0,"trial_type":"pit-trial","trial_index":239,"time_elapsed":1521649,"internal_node_id":"0.0-228.0","task_version":"battery-v0.1"},{"rune":"Z","hex":"#3366ff99","correct":-1,"choice":32,"rt":452.0349999947939,"accuracy":0,"outcome":"+1","keys":[1953.1300000089686],"total_keys":1,"block":2,"trial":226,"robot":2,"valence":"win","action":"no-go","sham":0,"trial_type":"pit-trial","trial_index":240,"time_elapsed":1524812,"internal_node_id":"0.0-229.0","task_version":"battery-v0.1"},{"rune":"R","hex":"#f73b6a7A","correct":32,"choice":32,"rt":800.794999988284,"accuracy":1,"outcome":"-1","keys":[2301.0099999955855],"total_keys":1,"block":2,"trial":227,"robot":3,"valence":"lose","action":"go","sham":0,"trial_type":"pit-trial","trial_index":241,"time_elapsed":1528322,"internal_node_id":"0.0-230.0","task_version":"battery-v0.1"},{"rune":"S","hex":"#f73b6a7A","correct":32,"choice":32,"rt":1119.6250000211876,"accuracy":1,"outcome":"-1","keys":[2620.3549999918323],"total_keys":1,"block":2,"trial":228,"robot":3,"valence":"lose","action":"go","sham":0,"trial_type":"pit-trial","trial_index":242,"time_elapsed":1532158,"internal_node_id":"0.0-231.0","task_version":"battery-v0.1"},{"rune":"Z","hex":"#3366ff99","correct":-1,"choice":32,"rt":358.0599999986589,"accuracy":0,"outcome":"+1","keys":[1859.2650000064168],"total_keys":1,"block":2,"trial":229,"robot":2,"valence":"win","action":"no-go","sham":0,"trial_type":"pit-trial","trial_index":243,"time_elapsed":1535226,"internal_node_id":"0.0-232.0","task_version":"battery-v0.1"},{"rune":"S","hex":"#f73b6a7A","correct":32,"choice":32,"rt":834.6799999999348,"accuracy":1,"outcome":"-10","keys":[2336.1450000084005],"total_keys":1,"block":2,"trial":230,"robot":3,"valence":"lose","action":"go","sham":1,"trial_type":"pit-trial","trial_index":244,"time_elapsed":1538770,"internal_node_id":"0.0-233.0","task_version":"battery-v0.1"},{"rune":"H","hex":"#f73b6a7A","correct":-1,"choice":-1,"rt":-1,"accuracy":1,"outcome":"-1","keys":[],"total_keys":0,"block":2,"trial":231,"robot":4,"valence":"lose","action":"no-go","sham":0,"trial_type":"pit-trial","trial_index":245,"time_elapsed":1542782,"internal_node_id":"0.0-234.0","task_version":"battery-v0.1"},{"rune":"R","hex":"#f73b6a7A","correct":32,"choice":-1,"rt":-1,"accuracy":0,"outcome":"-10","keys":[3351.090000011027],"total_keys":1,"block":2,"trial":232,"robot":3,"valence":"lose","action":"go","sham":0,"trial_type":"pit-trial","trial_index":246,"time_elapsed":1546793,"internal_node_id":"0.0-235.0","task_version":"battery-v0.1"},{"rune":"H","hex":"#f73b6a7A","correct":-1,"choice":32,"rt":511.56499999342486,"accuracy":0,"outcome":"-1","keys":[2012.78000001912],"total_keys":1,"block":2,"trial":233,"robot":4,"valence":"lose","action":"no-go","sham":1,"trial_type":"pit-trial","trial_index":247,"time_elapsed":1550012,"internal_node_id":"0.0-236.0","task_version":"battery-v0.1"},{"rune":"Z","hex":"#3366ff99","correct":-1,"choice":32,"rt":441.85999999172054,"accuracy":0,"outcome":"+1","keys":[1943.5899999807589],"total_keys":1,"block":2,"trial":234,"robot":2,"valence":"win","action":"no-go","sham":0,"trial_type":"pit-trial","trial_index":248,"time_elapsed":1553165,"internal_node_id":"0.0-237.0","task_version":"battery-v0.1"},{"rune":"R","hex":"#f73b6a7A","correct":32,"choice":-1,"rt":-1,"accuracy":0,"outcome":"-10","keys":[],"total_keys":0,"block":2,"trial":235,"robot":3,"valence":"lose","action":"go","sham":0,"trial_type":"pit-trial","trial_index":249,"time_elapsed":1557182,"internal_node_id":"0.0-238.0","task_version":"battery-v0.1"},{"rune":"S","hex":"#f73b6a7A","correct":32,"choice":32,"rt":371.23499999870546,"accuracy":1,"outcome":"-1","keys":[1872.4400000064634],"total_keys":1,"block":2,"trial":236,"robot":3,"valence":"lose","action":"go","sham":0,"trial_type":"pit-trial","trial_index":250,"time_elapsed":1560262,"internal_node_id":"0.0-239.0","task_version":"battery-v0.1"},{"rune":"S","hex":"#f73b6a7A","correct":32,"choice":32,"rt":425.1199999998789,"accuracy":1,"outcome":"-1","keys":[1926.2450000096578],"total_keys":1,"block":2,"trial":237,"robot":3,"valence":"lose","action":"go","sham":0,"trial_type":"pit-trial","trial_index":251,"time_elapsed":1563395,"internal_node_id":"0.0-240.0","task_version":"battery-v0.1"},{"rune":"R","hex":"#f73b6a7A","correct":32,"choice":32,"rt":252.41999997524545,"accuracy":1,"outcome":"-1","keys":[1752.5150000001304],"total_keys":1,"block":2,"trial":238,"robot":3,"valence":"lose","action":"go","sham":0,"trial_type":"pit-trial","trial_index":252,"time_elapsed":1566354,"internal_node_id":"0.0-241.0","task_version":"battery-v0.1"},{"rune":"Z","hex":"#3366ff99","correct":-1,"choice":32,"rt":355.47999999835156,"accuracy":0,"outcome":"+1","keys":[1856.869999988703],"total_keys":1,"block":2,"trial":239,"robot":2,"valence":"win","action":"no-go","sham":0,"trial_type":"pit-trial","trial_index":253,"time_elapsed":1569419,"internal_node_id":"0.0-242.0","task_version":"battery-v0.1"},{"rune":"H","hex":"#f73b6a7A","correct":-1,"choice":-1,"rt":-1,"accuracy":1,"outcome":"-1","keys":[],"total_keys":0,"block":2,"trial":240,"robot":4,"valence":"lose","action":"no-go","sham":0,"trial_type":"pit-trial","trial_index":254,"time_elapsed":1573438,"internal_node_id":"0.0-243.0","task_version":"battery-v0.1"},{"view_history":"[{\"page_index\":0,\"viewing_time\":3049.4099999777973}]","rt":3050.185000000056,"trial_type":"pit-instructions","trial_index":255,"time_elapsed":1576491,"internal_node_id":"0.0-244.0","task_version":"battery-v0.1"},{"rt":11755.560000019614,"responses":{"age":"39","gender-categorical":"Female","gender-free-response":"","ethnicity":"Not Hispanic or Latino","race":["White"],"language":"Yes","fluency":"Very well"},"survey":"demographics","trial_type":"survey-demo","trial_index":256,"time_elapsed":1588251,"internal_node_id":"0.0-245.0","task_version":"battery-v0.1"},{"rt":45954.249999980675,"responses":{"difficulty":"1","fun":"3","clarity":"5","strategy":"I tried to keep up with what I was supposed to be repairing as far as letters and colors went","feedback":"I did horrible at this "},"survey":"debrief","trial_type":"survey-debrief","trial_index":257,"time_elapsed":1634207,"internal_node_id":"0.0-246.0","task_version":"battery-v0.1","interactions":"[{\"event\":\"focus\",\"trial\":0,\"time\":21234}]"}]