[{"view_history":"[{\"page_index\":0,\"viewing_time\":1927.49499999627},{\"page_index\":1,\"viewing_time\":1407.1900000126334},{\"page_index\":2,\"viewing_time\":1006.8150000006426},{\"page_index\":3,\"viewing_time\":1987.524999989546},{\"page_index\":4,\"viewing_time\":3117.2550000046613},{\"page_index\":5,\"viewing_time\":2111.7799999919953}]","rt":11560.07999999565,"trial_type":"pit-instructions","trial_index":0,"time_elapsed":11573,"internal_node_id":"0.0-0.0-0.0","task_version":"battery-v0.1"},{"rune":"","hex":"#FFFFF080","correct":32,"choice":-1,"rt":-1,"accuracy":0,"outcome":"+0","keys":[],"total_keys":0,"block":0,"trial_type":"pit-trial","trial_index":1,"time_elapsed":15591,"internal_node_id":"0.0-0.0-1.0-0.0","task_version":"battery-v0.1"},{"rune":"","hex":"#FFFFF080","correct":32,"choice":-1,"rt":-1,"accuracy":0,"outcome":"+0","keys":[],"total_keys":0,"block":0,"trial_type":"pit-trial","trial_index":2,"time_elapsed":19600,"internal_node_id":"0.0-0.0-1.0-0.1","task_version":"battery-v0.1"},{"rune":"","hex":"#FFFFF080","correct":32,"choice":32,"rt":884.8100000031991,"accuracy":1,"outcome":"+10","keys":[2389.905000003637],"total_keys":1,"block":0,"trial_type":"pit-trial","trial_index":3,"time_elapsed":23208,"internal_node_id":"0.0-0.0-1.0-0.2","task_version":"battery-v0.1"},{"rune":"","hex":"#FFFFF080","correct":32,"choice":32,"rt":456.87500000349246,"accuracy":1,"outcome":"+10","keys":[1957.429999994929],"total_keys":1,"block":0,"trial_type":"pit-trial","trial_index":4,"time_elapsed":26380,"internal_node_id":"0.0-0.0-1.0-0.3","task_version":"battery-v0.1"},{"view_history":"[{\"page_index\":0,\"viewing_time\":6089.3749999959255}]","rt":6090.110000004643,"trial_type":"pit-instructions","trial_index":5,"time_elapsed":32472,"internal_node_id":"0.0-0.0-2.0","task_version":"battery-v0.1"},{"rune":"","hex":"#FFFFF080","correct":-1,"choice":-1,"rt":-1,"accuracy":1,"outcome":"+10","keys":[],"total_keys":0,"block":0,"trial_type":"pit-trial","trial_index":6,"time_elapsed":36497,"internal_node_id":"0.0-0.0-3.0-0.0","task_version":"battery-v0.1"},{"rune":"","hex":"#FFFFF080","correct":-1,"choice":-1,"rt":-1,"accuracy":1,"outcome":"+10","keys":[],"total_keys":0,"block":0,"trial_type":"pit-trial","trial_index":7,"time_elapsed":40505,"internal_node_id":"0.0-0.0-3.0-0.1","task_version":"battery-v0.1"},{"rune":"","hex":"#FFFFF080","correct":-1,"choice":-1,"rt":-1,"accuracy":1,"outcome":"+10","keys":[],"total_keys":0,"block":0,"trial_type":"pit-trial","trial_index":8,"time_elapsed":44516,"internal_node_id":"0.0-0.0-3.0-0.2","task_version":"battery-v0.1"},{"rune":"","hex":"#FFFFF080","correct":-1,"choice":-1,"rt":-1,"accuracy":1,"outcome":"+10","keys":[],"total_keys":0,"block":0,"trial_type":"pit-trial","trial_index":9,"time_elapsed":48528,"internal_node_id":"0.0-0.0-3.0-0.3","task_version":"battery-v0.1"},{"responses":["Press SPACE","Do nothing"],"num_errors":0,"rt":107488.54500000016,"trial_type":"pit-comprehension","trial_index":10,"time_elapsed":156015,"internal_node_id":"0.0-0.0-4.0","task_version":"battery-v0.1"},{"view_history":"[{\"page_index\":0,\"viewing_time\":3677.8550000017276},{\"page_index\":1,\"viewing_time\":3301.000000006752},{\"page_index\":2,\"viewing_time\":3060.0349999876926},{\"page_index\":3,\"viewing_time\":5962.370000008377},{\"page_index\":4,\"viewing_time\":2063.515000001644},{\"page_index\":5,\"viewing_time\":2303.8349999987986},{\"page_index\":6,\"viewing_time\":2844.7250000026543},{\"page_index\":7,\"viewing_time\":2510.0249999959487},{\"page_index\":8,\"viewing_time\":1780.9149999957299},{\"page_index\":9,\"viewing_time\":1548.8299999997253},{\"page_index\":10,\"viewing_time\":1578.1149999966146}]","rt":30632.039999996778,"trial_type":"pit-instructions","trial_index":11,"time_elapsed":186653,"internal_node_id":"0.0-1.0-0.0","task_version":"battery-v0.1"},{"responses":["+10","+1","True","True"],"num_errors":1,"rt":13592.424999995274,"trial_type":"pit-comprehension","trial_index":12,"time_elapsed":200250,"internal_node_id":"0.0-1.0-1.0","task_version":"battery-v0.1"},{"view_history":"[{\"page_index\":0,\"viewing_time\":2143.24000000488},{\"page_index\":1,\"viewing_time\":1562.3800000030315},{\"page_index\":2,\"viewing_time\":18231.434999994235},{\"page_index\":3,\"viewing_time\":1339.0050000016345},{\"page_index\":4,\"viewing_time\":924.364999998943},{\"page_index\":5,\"viewing_time\":5011.704999997164},{\"page_index\":6,\"viewing_time\":3927.0249999972293},{\"page_index\":7,\"viewing_time\":611.0650000046007},{\"page_index\":8,\"viewing_time\":603.0849999951897},{\"page_index\":9,\"viewing_time\":501.99000000429805},{\"page_index\":10,\"viewing_time\":489.4849999982398}]","rt":35345.375000004424,"trial_type":"pit-instructions","trial_index":13,"time_elapsed":235606,"internal_node_id":"0.0-1.1-0.1","task_version":"battery-v0.1"},{"responses":["+10","-1","True","True"],"num_errors":0,"rt":116960.51000000443,"trial_type":"pit-comprehension","trial_index":14,"time_elapsed":352572,"internal_node_id":"0.0-1.1-1.1","task_version":"battery-v0.1"},{"view_history":"[{\"page_index\":0,\"viewing_time\":1598.2249999942724},{\"page_index\":1,\"viewing_time\":1583.615000010468}]","rt":3182.505000004312,"trial_type":"pit-instructions","trial_index":15,"time_elapsed":355763,"internal_node_id":"0.0-2.0","task_version":"battery-v0.1"},{"rune":"Z","hex":"#f73b6a7A","correct":-1,"choice":32,"rt":702.7500000112923,"accuracy":0,"outcome":"-10","keys":[2206.195000006119],"total_keys":1,"block":1,"trial":1,"robot":4,"valence":"lose","action":"no-go","sham":0,"trial_type":"pit-trial","trial_index":16,"time_elapsed":359178,"internal_node_id":"0.0-3.0","task_version":"battery-v0.1"},{"rune":"V","hex":"#3366ff99","correct":-1,"choice":32,"rt":429.41500000597443,"accuracy":0,"outcome":"+1","keys":[1930.0550000043586],"total_keys":1,"block":1,"trial":2,"robot":2,"valence":"win","action":"no-go","sham":0,"trial_type":"pit-trial","trial_index":17,"time_elapsed":362317,"internal_node_id":"0.0-4.0","task_version":"battery-v0.1"},{"rune":"G","hex":"#f73b6a7A","correct":-1,"choice":32,"rt":659.9949999945238,"accuracy":0,"outcome":"-10","keys":[2161.0250000085216],"total_keys":1,"block":1,"trial":3,"robot":4,"valence":"lose","action":"no-go","sham":0,"trial_type":"pit-trial","trial_index":18,"time_elapsed":365685,"internal_node_id":"0.0-5.0","task_version":"battery-v0.1"},{"rune":"J","hex":"#3366ff99","correct":32,"choice":32,"rt":584.2200000042794,"accuracy":1,"outcome":"+1","keys":[2091.2649999954738],"total_keys":1,"block":1,"trial":4,"robot":1,"valence":"win","action":"go","sham":1,"trial_type":"pit-trial","trial_index":19,"time_elapsed":368983,"internal_node_id":"0.0-6.0","task_version":"battery-v0.1"},{"rune":"G","hex":"#f73b6a7A","correct":-1,"choice":-1,"rt":-1,"accuracy":1,"outcome":"-1","keys":[],"total_keys":0,"block":1,"trial":5,"robot":4,"valence":"lose","action":"no-go","sham":0,"trial_type":"pit-trial","trial_index":20,"time_elapsed":372993,"internal_node_id":"0.0-7.0","task_version":"battery-v0.1"},{"rune":"Z","hex":"#f73b6a7A","correct":-1,"choice":32,"rt":523.0899999878602,"accuracy":0,"outcome":"-10","keys":[2030.5200000002515],"total_keys":1,"block":1,"trial":6,"robot":4,"valence":"lose","action":"no-go","sham":0,"trial_type":"pit-trial","trial_index":21,"time_elapsed":376233,"internal_node_id":"0.0-8.0","task_version":"battery-v0.1"},{"rune":"V","hex":"#3366ff99","correct":-1,"choice":32,"rt":591.8149999924935,"accuracy":0,"outcome":"+1","keys":[2094.0649999974994],"total_keys":1,"block":1,"trial":7,"robot":2,"valence":"win","action":"no-go","sham":0,"trial_type":"pit-trial","trial_index":22,"time_elapsed":379532,"internal_node_id":"0.0-9.0","task_version":"battery-v0.1"},{"rune":"J","hex":"#3366ff99","correct":32,"choice":32,"rt":395.21000000240747,"accuracy":1,"outcome":"+10","keys":[1896.2549999996554],"total_keys":1,"block":1,"trial":8,"robot":1,"valence":"win","action":"go","sham":0,"trial_type":"pit-trial","trial_index":23,"time_elapsed":382631,"internal_node_id":"0.0-10.0","task_version":"battery-v0.1"},{"rune":"G","hex":"#f73b6a7A","correct":-1,"choice":-1,"rt":-1,"accuracy":1,"outcome":"-1","keys":[],"total_keys":0,"block":1,"trial":9,"robot":4,"valence":"lose","action":"no-go","sham":0,"trial_type":"pit-trial","trial_index":24,"time_elapsed":386650,"internal_node_id":"0.0-11.0","task_version":"battery-v0.1"},{"rune":"V","hex":"#3366ff99","correct":-1,"choice":-1,"rt":-1,"accuracy":1,"outcome":"+10","keys":[3482.285000005504],"total_keys":1,"block":1,"trial":10,"robot":2,"valence":"win","action":"no-go","sham":0,"trial_type":"pit-trial","trial_index":25,"time_elapsed":390665,"internal_node_id":"0.0-12.0","task_version":"battery-v0.1"},{"rune":"J","hex":"#3366ff99","correct":32,"choice":-1,"rt":-1,"accuracy":0,"outcome":"+1","keys":[3925.024999989546],"total_keys":1,"block":1,"trial":11,"robot":1,"valence":"win","action":"go","sham":0,"trial_type":"pit-trial","trial_index":26,"time_elapsed":394683,"internal_node_id":"0.0-13.0","task_version":"battery-v0.1"},{"rune":"Z","hex":"#f73b6a7A","correct":-1,"choice":-1,"rt":-1,"accuracy":1,"outcome":"-1","keys":[],"total_keys":0,"block":1,"trial":12,"robot":4,"valence":"lose","action":"no-go","sham":0,"trial_type":"pit-trial","trial_index":27,"time_elapsed":398697,"internal_node_id":"0.0-14.0","task_version":"battery-v0.1"},{"rune":"Z","hex":"#f73b6a7A","correct":-1,"choice":32,"rt":923.2600000104867,"accuracy":0,"outcome":"-10","keys":[2428.8850000011735],"total_keys":1,"block":1,"trial":13,"robot":4,"valence":"lose","action":"no-go","sham":0,"trial_type":"pit-trial","trial_index":28,"time_elapsed":402329,"internal_node_id":"0.0-15.0","task_version":"battery-v0.1"},{"rune":"G","hex":"#f73b6a7A","correct":-1,"choice":-1,"rt":-1,"accuracy":1,"outcome":"-1","keys":[],"total_keys":0,"block":1,"trial":14,"robot":4,"valence":"lose","action":"no-go","sham":0,"trial_type":"pit-trial","trial_index":29,"time_elapsed":406340,"internal_node_id":"0.0-16.0","task_version":"battery-v0.1"},{"rune":"V","hex":"#3366ff99","correct":-1,"choice":32,"rt":569.725000008475,"accuracy":0,"outcome":"+1","keys":[2070.095000002766],"total_keys":1,"block":1,"trial":15,"robot":2,"valence":"win","action":"no-go","sham":0,"trial_type":"pit-trial","trial_index":30,"time_elapsed":409619,"internal_node_id":"0.0-17.0","task_version":"battery-v0.1"},{"rune":"J","hex":"#3366ff99","correct":32,"choice":-1,"rt":-1,"accuracy":0,"outcome":"+1","keys":[3554.730000003474,4001.7700000025798],"total_keys":2,"block":1,"trial":16,"robot":1,"valence":"win","action":"go","sham":0,"trial_type":"pit-trial","trial_index":31,"time_elapsed":413631,"internal_node_id":"0.0-18.0","task_version":"battery-v0.1"},{"rune":"V","hex":"#3366ff99","correct":-1,"choice":32,"rt":603.59499999322,"accuracy":0,"outcome":"+1","keys":[2113.7149999995017],"total_keys":1,"block":1,"trial":17,"robot":2,"valence":"win","action":"no-go","sham":0,"trial_type":"pit-trial","trial_index":32,"time_elapsed":416950,"internal_node_id":"0.0-19.0","task_version":"battery-v0.1"},{"rune":"J","hex":"#3366ff99","correct":32,"choice":32,"rt":569.9049999966519,"accuracy":1,"outcome":"+1","keys":[2073.0449999973644],"total_keys":1,"block":1,"trial":18,"robot":1,"valence":"win","action":"go","sham":1,"trial_type":"pit-trial","trial_index":33,"time_elapsed":420241,"internal_node_id":"0.0-20.0","task_version":"battery-v0.1"},{"rune":"G","hex":"#f73b6a7A","correct":-1,"choice":-1,"rt":-1,"accuracy":1,"outcome":"-1","keys":[],"total_keys":0,"block":1,"trial":19,"robot":4,"valence":"lose","action":"no-go","sham":0,"trial_type":"pit-trial","trial_index":34,"time_elapsed":424262,"internal_node_id":"0.0-21.0","task_version":"battery-v0.1"},{"rune":"Z","hex":"#f73b6a7A","correct":-1,"choice":32,"rt":552.1300000109477,"accuracy":0,"outcome":"-10","keys":[2054.1400000074646],"total_keys":1,"block":1,"trial":20,"robot":4,"valence":"lose","action":"no-go","sham":0,"trial_type":"pit-trial","trial_index":35,"time_elapsed":427534,"internal_node_id":"0.0-22.0","task_version":"battery-v0.1"},{"rune":"G","hex":"#f73b6a7A","correct":-1,"choice":32,"rt":732.4249999946915,"accuracy":0,"outcome":"-10","keys":[2234.215000004042],"total_keys":1,"block":1,"trial":21,"robot":4,"valence":"lose","action":"no-go","sham":0,"trial_type":"pit-trial","trial_index":36,"time_elapsed":430975,"internal_node_id":"0.0-23.0","task_version":"battery-v0.1"},{"rune":"Z","hex":"#f73b6a7A","correct":-1,"choice":-1,"rt":-1,"accuracy":1,"outcome":"-1","keys":[],"total_keys":0,"block":1,"trial":22,"robot":4,"valence":"lose","action":"no-go","sham":0,"trial_type":"pit-trial","trial_index":37,"time_elapsed":434990,"internal_node_id":"0.0-24.0","task_version":"battery-v0.1"},{"rune":"J","hex":"#3366ff99","correct":32,"choice":32,"rt":294.32500000984874,"accuracy":1,"outcome":"+1","keys":[1797.695000001113],"total_keys":1,"block":1,"trial":23,"robot":1,"valence":"win","action":"go","sham":1,"trial_type":"pit-trial","trial_index":38,"time_elapsed":437997,"internal_node_id":"0.0-25.0","task_version":"battery-v0.1"},{"rune":"V","hex":"#3366ff99","correct":-1,"choice":32,"rt":586.3850000023376,"accuracy":0,"outcome":"+1","keys":[2087.3799999972107],"total_keys":1,"block":1,"trial":24,"robot":2,"valence":"win","action":"no-go","sham":0,"trial_type":"pit-trial","trial_index":39,"time_elapsed":441293,"internal_node_id":"0.0-26.0","task_version":"battery-v0.1"},{"rune":"Z","hex":"#f73b6a7A","correct":-1,"choice":32,"rt":21.674999996321276,"accuracy":0,"outcome":"-1","keys":[1523.4500000078697],"total_keys":1,"block":1,"trial":25,"robot":4,"valence":"lose","action":"no-go","sham":1,"trial_type":"pit-trial","trial_index":40,"time_elapsed":444024,"internal_node_id":"0.0-27.0","task_version":"battery-v0.1"},{"rune":"J","hex":"#3366ff99","correct":32,"choice":32,"rt":405.6449999916367,"accuracy":1,"outcome":"+10","keys":[1906.474999996135,2131.77999999607],"total_keys":2,"block":1,"trial":26,"robot":1,"valence":"win","action":"go","sham":0,"trial_type":"pit-trial","trial_index":41,"time_elapsed":447142,"internal_node_id":"0.0-28.0","task_version":"battery-v0.1"},{"rune":"V","hex":"#3366ff99","correct":-1,"choice":32,"rt":387.41499999014195,"accuracy":0,"outcome":"+10","keys":[1895.2799999970011],"total_keys":1,"block":1,"trial":27,"robot":2,"valence":"win","action":"no-go","sham":1,"trial_type":"pit-trial","trial_index":42,"time_elapsed":450247,"internal_node_id":"0.0-29.0","task_version":"battery-v0.1"},{"rune":"G","hex":"#f73b6a7A","correct":-1,"choice":-1,"rt":-1,"accuracy":1,"outcome":"-10","keys":[],"total_keys":0,"block":1,"trial":28,"robot":4,"valence":"lose","action":"no-go","sham":1,"trial_type":"pit-trial","trial_index":43,"time_elapsed":454257,"internal_node_id":"0.0-30.0","task_version":"battery-v0.1"},{"rune":"J","hex":"#3366ff99","correct":32,"choice":32,"rt":360.3049999946961,"accuracy":1,"outcome":"+1","keys":[1866.104999993695],"total_keys":1,"block":1,"trial":29,"robot":1,"valence":"win","action":"go","sham":1,"trial_type":"pit-trial","trial_index":44,"time_elapsed":457327,"internal_node_id":"0.0-31.0","task_version":"battery-v0.1"},{"rune":"G","hex":"#f73b6a7A","correct":-1,"choice":32,"rt":849.4400000054156,"accuracy":0,"outcome":"-1","keys":[2349.9449999944773],"total_keys":1,"block":1,"trial":30,"robot":4,"valence":"lose","action":"no-go","sham":1,"trial_type":"pit-trial","trial_index":45,"time_elapsed":460885,"internal_node_id":"0.0-32.0","task_version":"battery-v0.1"},{"rune":"V","hex":"#3366ff99","correct":-1,"choice":32,"rt":409.8399999929825,"accuracy":0,"outcome":"+10","keys":[1913.6650000000373],"total_keys":1,"block":1,"trial":31,"robot":2,"valence":"win","action":"no-go","sham":1,"trial_type":"pit-trial","trial_index":46,"time_elapsed":464006,"internal_node_id":"0.0-33.0","task_version":"battery-v0.1"},{"rune":"Z","hex":"#f73b6a7A","correct":-1,"choice":32,"rt":622.334999992745,"accuracy":0,"outcome":"-10","keys":[2125.17499999376],"total_keys":1,"block":1,"trial":32,"robot":4,"valence":"lose","action":"no-go","sham":0,"trial_type":"pit-trial","trial_index":47,"time_elapsed":467340,"internal_node_id":"0.0-34.0","task_version":"battery-v0.1"},{"rune":"V","hex":"#3366ff99","correct":-1,"choice":-1,"rt":-1,"accuracy":1,"outcome":"+1","keys":[3492.150000005495],"total_keys":1,"block":1,"trial":33,"robot":2,"valence":"win","action":"no-go","sham":1,"trial_type":"pit-trial","trial_index":48,"time_elapsed":471356,"internal_node_id":"0.0-35.0","task_version":"battery-v0.1"},{"rune":"Q","hex":"#f73b6a7A","correct":32,"choice":-1,"rt":-1,"accuracy":0,"outcome":"-10","keys":[3412.595000001602],"total_keys":1,"block":1,"trial":34,"robot":3,"valence":"lose","action":"go","sham":0,"trial_type":"pit-trial","trial_index":49,"time_elapsed":475377,"internal_node_id":"0.0-36.0","task_version":"battery-v0.1"},{"rune":"J","hex":"#3366ff99","correct":32,"choice":32,"rt":538.6549999966519,"accuracy":1,"outcome":"+10","keys":[2046.2899999984074],"total_keys":1,"block":1,"trial":35,"robot":1,"valence":"win","action":"go","sham":0,"trial_type":"pit-trial","trial_index":50,"time_elapsed":478632,"internal_node_id":"0.0-37.0","task_version":"battery-v0.1"},{"rune":"G","hex":"#f73b6a7A","correct":-1,"choice":-1,"rt":-1,"accuracy":1,"outcome":"-1","keys":[],"total_keys":0,"block":1,"trial":36,"robot":4,"valence":"lose","action":"no-go","sham":0,"trial_type":"pit-trial","trial_index":51,"time_elapsed":482652,"internal_node_id":"0.0-38.0","task_version":"battery-v0.1"},{"rune":"J","hex":"#3366ff99","correct":32,"choice":32,"rt":323.4399999928428,"accuracy":1,"outcome":"+1","keys":[1829.1349999926751],"total_keys":1,"block":1,"trial":37,"robot":1,"valence":"win","action":"go","sham":1,"trial_type":"pit-trial","trial_index":52,"time_elapsed":485689,"internal_node_id":"0.0-39.0","task_version":"battery-v0.1"},{"rune":"G","hex":"#f73b6a7A","correct":-1,"choice":-1,"rt":-1,"accuracy":1,"outcome":"-1","keys":[],"total_keys":0,"block":1,"trial":38,"robot":4,"valence":"lose","action":"no-go","sham":0,"trial_type":"pit-trial","trial_index":53,"time_elapsed":489699,"internal_node_id":"0.0-40.0","task_version":"battery-v0.1"},{"rune":"V","hex":"#3366ff99","correct":-1,"choice":32,"rt":335.1649999967776,"accuracy":0,"outcome":"+10","keys":[1841.1749999941094],"total_keys":1,"block":1,"trial":39,"robot":2,"valence":"win","action":"no-go","sham":1,"trial_type":"pit-trial","trial_index":54,"time_elapsed":492747,"internal_node_id":"0.0-41.0","task_version":"battery-v0.1"},{"rune":"Q","hex":"#f73b6a7A","correct":32,"choice":32,"rt":756.905000002007,"accuracy":1,"outcome":"-1","keys":[2262.5799999950686],"total_keys":1,"block":1,"trial":40,"robot":3,"valence":"lose","action":"go","sham":0,"trial_type":"pit-trial","trial_index":55,"time_elapsed":496217,"internal_node_id":"0.0-42.0","task_version":"battery-v0.1"},{"rune":"G","hex":"#f73b6a7A","correct":-1,"choice":32,"rt":593.204999997397,"accuracy":0,"outcome":"-10","keys":[2093.3599999989383],"total_keys":1,"block":1,"trial":41,"robot":4,"valence":"lose","action":"no-go","sham":0,"trial_type":"pit-trial","trial_index":56,"time_elapsed":499515,"internal_node_id":"0.0-43.0","task_version":"battery-v0.1"},{"rune":"F","hex":"#3366ff99","correct":-1,"choice":32,"rt":322.6950000098441,"accuracy":0,"outcome":"+1","keys":[1829.1600000084145],"total_keys":1,"block":1,"trial":42,"robot":2,"valence":"win","action":"no-go","sham":0,"trial_type":"pit-trial","trial_index":57,"time_elapsed":502548,"internal_node_id":"0.0-44.0","task_version":"battery-v0.1"},{"rune":"Q","hex":"#f73b6a7A","correct":32,"choice":32,"rt":410.5300000082934,"accuracy":1,"outcome":"-1","keys":[1911.565000002156],"total_keys":1,"block":1,"trial":43,"robot":3,"valence":"lose","action":"go","sham":0,"trial_type":"pit-trial","trial_index":58,"time_elapsed":505663,"internal_node_id":"0.0-45.0","task_version":"battery-v0.1"},{"rune":"R","hex":"#3366ff99","correct":32,"choice":32,"rt":832.044999988284,"accuracy":1,"outcome":"+10","keys":[2332.204999998794],"total_keys":1,"block":1,"trial":44,"robot":1,"valence":"win","action":"go","sham":0,"trial_type":"pit-trial","trial_index":59,"time_elapsed":509203,"internal_node_id":"0.0-46.0","task_version":"battery-v0.1"},{"rune":"F","hex":"#3366ff99","correct":-1,"choice":32,"rt":941.7350000003353,"accuracy":0,"outcome":"+1","keys":[2447.010000003502],"total_keys":1,"block":1,"trial":45,"robot":2,"valence":"win","action":"no-go","sham":0,"trial_type":"pit-trial","trial_index":60,"time_elapsed":512863,"internal_node_id":"0.0-47.0","task_version":"battery-v0.1"},{"rune":"R","hex":"#3366ff99","correct":32,"choice":32,"rt":639.4199999922421,"accuracy":1,"outcome":"+10","keys":[2140.320000005886],"total_keys":1,"block":1,"trial":46,"robot":1,"valence":"win","action":"go","sham":0,"trial_type":"pit-trial","trial_index":61,"time_elapsed":516213,"internal_node_id":"0.0-48.0","task_version":"battery-v0.1"},{"rune":"Q","hex":"#f73b6a7A","correct":32,"choice":32,"rt":326.4600000111386,"accuracy":1,"outcome":"-10","keys":[1833.939999996801],"total_keys":1,"block":1,"trial":47,"robot":3,"valence":"lose","action":"go","sham":1,"trial_type":"pit-trial","trial_index":62,"time_elapsed":519254,"internal_node_id":"0.0-49.0","task_version":"battery-v0.1"},{"rune":"G","hex":"#f73b6a7A","correct":-1,"choice":32,"rt":1198.7149999913527,"accuracy":0,"outcome":"-1","keys":[1230.8300000004238,2701.2650000106078],"total_keys":2,"block":1,"trial":48,"robot":4,"valence":"lose","action":"no-go","sham":1,"trial_type":"pit-trial","trial_index":63,"time_elapsed":523162,"internal_node_id":"0.0-50.0","task_version":"battery-v0.1"},{"rune":"Q","hex":"#f73b6a7A","correct":32,"choice":32,"rt":341.0699999949429,"accuracy":1,"outcome":"-1","keys":[1841.3650000002235],"total_keys":1,"block":1,"trial":49,"robot":3,"valence":"lose","action":"go","sham":0,"trial_type":"pit-trial","trial_index":64,"time_elapsed":526214,"internal_node_id":"0.0-51.0","task_version":"battery-v0.1"},{"rune":"F","hex":"#3366ff99","correct":-1,"choice":32,"rt":341.0450000083074,"accuracy":0,"outcome":"+1","keys":[1841.3299999956507],"total_keys":1,"block":1,"trial":50,"robot":2,"valence":"win","action":"no-go","sham":0,"trial_type":"pit-trial","trial_index":65,"time_elapsed":529259,"internal_node_id":"0.0-52.0","task_version":"battery-v0.1"},{"rune":"C","hex":"#f73b6a7A","correct":-1,"choice":32,"rt":521.9050000014249,"accuracy":0,"outcome":"-10","keys":[2022.354999993695],"total_keys":1,"block":1,"trial":51,"robot":4,"valence":"lose","action":"no-go","sham":0,"trial_type":"pit-trial","trial_index":66,"time_elapsed":532490,"internal_node_id":"0.0-53.0","task_version":"battery-v0.1"},{"rune":"R","hex":"#3366ff99","correct":32,"choice":32,"rt":226.84500001196284,"accuracy":1,"outcome":"+10","keys":[1731.6950000094948],"total_keys":1,"block":1,"trial":52,"robot":1,"valence":"win","action":"go","sham":0,"trial_type":"pit-trial","trial_index":67,"time_elapsed":535430,"internal_node_id":"0.0-54.0","task_version":"battery-v0.1"},{"rune":"C","hex":"#f73b6a7A","correct":-1,"choice":32,"rt":565.0100000057137,"accuracy":0,"outcome":"-10","keys":[2068.0949999950826],"total_keys":1,"block":1,"trial":53,"robot":4,"valence":"lose","action":"no-go","sham":0,"trial_type":"pit-trial","trial_index":68,"time_elapsed":538710,"internal_node_id":"0.0-55.0","task_version":"battery-v0.1"},{"rune":"F","hex":"#3366ff99","correct":-1,"choice":32,"rt":49.58999999507796,"accuracy":0,"outcome":"+1","keys":[1553.059999991092],"total_keys":1,"block":1,"trial":54,"robot":2,"valence":"win","action":"no-go","sham":0,"trial_type":"pit-trial","trial_index":69,"time_elapsed":541470,"internal_node_id":"0.0-56.0","task_version":"battery-v0.1"},{"rune":"Q","hex":"#f73b6a7A","correct":32,"choice":-1,"rt":-1,"accuracy":0,"outcome":"-10","keys":[],"total_keys":0,"block":1,"trial":55,"robot":3,"valence":"lose","action":"go","sham":0,"trial_type":"pit-trial","trial_index":70,"time_elapsed":545484,"internal_node_id":"0.0-57.0","task_version":"battery-v0.1"},{"rune":"R","hex":"#3366ff99","correct":32,"choice":-1,"rt":-1,"accuracy":0,"outcome":"+1","keys":[],"total_keys":0,"block":1,"trial":56,"robot":1,"valence":"win","action":"go","sham":0,"trial_type":"pit-trial","trial_index":71,"time_elapsed":549493,"internal_node_id":"0.0-58.0","task_version":"battery-v0.1"},{"rune":"Q","hex":"#f73b6a7A","correct":32,"choice":32,"rt":324.43499998771586,"accuracy":1,"outcome":"-1","keys":[261.7400000017369,744.8200000071665,1051.4450000046054,1827.0400000037625],"total_keys":4,"block":1,"trial":57,"robot":3,"valence":"lose","action":"go","sham":0,"trial_type":"pit-trial","trial_index":72,"time_elapsed":552536,"internal_node_id":"0.0-59.0","task_version":"battery-v0.1"},{"rune":"F","hex":"#3366ff99","correct":-1,"choice":32,"rt":1036.3599999982398,"accuracy":0,"outcome":"+1","keys":[1495.759999990696,2542.424999992363],"total_keys":2,"block":1,"trial":58,"robot":2,"valence":"win","action":"no-go","sham":0,"trial_type":"pit-trial","trial_index":73,"time_elapsed":556287,"internal_node_id":"0.0-60.0","task_version":"battery-v0.1"},{"rune":"C","hex":"#f73b6a7A","correct":-1,"choice":32,"rt":69.40999999642372,"accuracy":0,"outcome":"-10","keys":[1571.8550000019604],"total_keys":1,"block":1,"trial":59,"robot":4,"valence":"lose","action":"no-go","sham":0,"trial_type":"pit-trial","trial_index":74,"time_elapsed":559078,"internal_node_id":"0.0-61.0","task_version":"battery-v0.1"},{"rune":"R","hex":"#3366ff99","correct":32,"choice":32,"rt":453.98999999451917,"accuracy":1,"outcome":"+10","keys":[1954.7400000010384],"total_keys":1,"block":1,"trial":60,"robot":1,"valence":"win","action":"go","sham":0,"trial_type":"pit-trial","trial_index":75,"time_elapsed":562238,"internal_node_id":"0.0-62.0","task_version":"battery-v0.1"},{"rune":"R","hex":"#3366ff99","correct":32,"choice":32,"rt":413.6349999898812,"accuracy":1,"outcome":"+10","keys":[1915.3450000012526],"total_keys":1,"block":1,"trial":61,"robot":1,"valence":"win","action":"go","sham":0,"trial_type":"pit-trial","trial_index":76,"time_elapsed":565360,"internal_node_id":"0.0-63.0","task_version":"battery-v0.1"},{"rune":"C","hex":"#f73b6a7A","correct":-1,"choice":32,"rt":426.4249999978347,"accuracy":0,"outcome":"-10","keys":[1930.6999999971595],"total_keys":1,"block":1,"trial":62,"robot":4,"valence":"lose","action":"no-go","sham":0,"trial_type":"pit-trial","trial_index":77,"time_elapsed":568495,"internal_node_id":"0.0-64.0","task_version":"battery-v0.1"},{"rune":"Q","hex":"#f73b6a7A","correct":32,"choice":32,"rt":530.3699999931268,"accuracy":1,"outcome":"-10","keys":[2031.4199999993434],"total_keys":1,"block":1,"trial":63,"robot":3,"valence":"lose","action":"go","sham":1,"trial_type":"pit-trial","trial_index":78,"time_elapsed":571737,"internal_node_id":"0.0-65.0","task_version":"battery-v0.1"},{"rune":"F","hex":"#3366ff99","correct":-1,"choice":32,"rt":557.2249999968335,"accuracy":0,"outcome":"+1","keys":[2058.9900000049965],"total_keys":1,"block":1,"trial":64,"robot":2,"valence":"win","action":"no-go","sham":0,"trial_type":"pit-trial","trial_index":79,"time_elapsed":575006,"internal_node_id":"0.0-66.0","task_version":"battery-v0.1"},{"rune":"Q","hex":"#f73b6a7A","correct":32,"choice":32,"rt":405.13499999360647,"accuracy":1,"outcome":"-1","keys":[1910.5799999961164],"total_keys":1,"block":1,"trial":65,"robot":3,"valence":"lose","action":"go","sham":0,"trial_type":"pit-trial","trial_index":80,"time_elapsed":578136,"internal_node_id":"0.0-67.0","task_version":"battery-v0.1"},{"rune":"F","hex":"#3366ff99","correct":-1,"choice":32,"rt":613.7349999917205,"accuracy":0,"outcome":"+10","keys":[2114.0849999937927],"total_keys":1,"block":1,"trial":66,"robot":2,"valence":"win","action":"no-go","sham":1,"trial_type":"pit-trial","trial_index":81,"time_elapsed":581463,"internal_node_id":"0.0-68.0","task_version":"battery-v0.1"},{"rune":"C","hex":"#f73b6a7A","correct":-1,"choice":-1,"rt":-1,"accuracy":1,"outcome":"-1","keys":[3557.0500000030734],"total_keys":1,"block":1,"trial":67,"robot":4,"valence":"lose","action":"no-go","sham":0,"trial_type":"pit-trial","trial_index":82,"time_elapsed":585484,"internal_node_id":"0.0-69.0","task_version":"battery-v0.1"},{"rune":"R","hex":"#3366ff99","correct":32,"choice":32,"rt":275.76499999850057,"accuracy":1,"outcome":"+10","keys":[1098.8200000138022,1379.2050000047311,1782.6350000104867],"total_keys":3,"block":1,"trial":68,"robot":1,"valence":"win","action":"go","sham":0,"trial_type":"pit-trial","trial_index":83,"time_elapsed":588477,"internal_node_id":"0.0-70.0","task_version":"battery-v0.1"},{"rune":"R","hex":"#3366ff99","correct":32,"choice":32,"rt":152.49500000209082,"accuracy":1,"outcome":"+10","keys":[1101.3349999993807,1376.5199999907054,1653.6049999995157],"total_keys":3,"block":1,"trial":69,"robot":1,"valence":"win","action":"go","sham":0,"trial_type":"pit-trial","trial_index":84,"time_elapsed":591342,"internal_node_id":"0.0-71.0","task_version":"battery-v0.1"},{"rune":"Q","hex":"#f73b6a7A","correct":32,"choice":32,"rt":496.6100000019651,"accuracy":1,"outcome":"-10","keys":[1996.7599999945378],"total_keys":1,"block":1,"trial":70,"robot":3,"valence":"lose","action":"go","sham":1,"trial_type":"pit-trial","trial_index":85,"time_elapsed":594546,"internal_node_id":"0.0-72.0","task_version":"battery-v0.1"},{"rune":"F","hex":"#3366ff99","correct":-1,"choice":32,"rt":482.75000001012813,"accuracy":0,"outcome":"+1","keys":[1984.4100000045728],"total_keys":1,"block":1,"trial":71,"robot":2,"valence":"win","action":"no-go","sham":0,"trial_type":"pit-trial","trial_index":86,"time_elapsed":597739,"internal_node_id":"0.0-73.0","task_version":"battery-v0.1"},{"rune":"C","hex":"#f73b6a7A","correct":-1,"choice":32,"rt":530.4049999976996,"accuracy":0,"outcome":"-10","keys":[2038.0249999871012],"total_keys":1,"block":1,"trial":72,"robot":4,"valence":"lose","action":"no-go","sham":0,"trial_type":"pit-trial","trial_index":87,"time_elapsed":600988,"internal_node_id":"0.0-74.0","task_version":"battery-v0.1"},{"rune":"Y","hex":"#3366ff99","correct":32,"choice":-1,"rt":-1,"accuracy":0,"outcome":"+1","keys":[3744.3599999969592],"total_keys":1,"block":1,"trial":73,"robot":1,"valence":"win","action":"go","sham":0,"trial_type":"pit-trial","trial_index":88,"time_elapsed":605003,"internal_node_id":"0.0-75.0","task_version":"battery-v0.1"},{"rune":"C","hex":"#f73b6a7A","correct":-1,"choice":32,"rt":924.9850000051083,"accuracy":0,"outcome":"-10","keys":[2429.2350000032457],"total_keys":1,"block":1,"trial":74,"robot":4,"valence":"lose","action":"no-go","sham":0,"trial_type":"pit-trial","trial_index":89,"time_elapsed":608643,"internal_node_id":"0.0-76.0","task_version":"battery-v0.1"},{"rune":"F","hex":"#3366ff99","correct":-1,"choice":32,"rt":447.8300000046147,"accuracy":0,"outcome":"+1","keys":[1402.4650000064867,1954.9350000015693,2329.2400000063935],"total_keys":3,"block":1,"trial":75,"robot":2,"valence":"win","action":"no-go","sham":0,"trial_type":"pit-trial","trial_index":90,"time_elapsed":611803,"internal_node_id":"0.0-77.0","task_version":"battery-v0.1"},{"rune":"N","hex":"#f73b6a7A","correct":32,"choice":32,"rt":69.30999999167398,"accuracy":1,"outcome":"-1","keys":[832.7649999991991,1231.7849999963073,1569.984999994631],"total_keys":3,"block":1,"trial":76,"robot":3,"valence":"lose","action":"go","sham":0,"trial_type":"pit-trial","trial_index":91,"time_elapsed":614582,"internal_node_id":"0.0-78.0","task_version":"battery-v0.1"},{"rune":"N","hex":"#f73b6a7A","correct":32,"choice":32,"rt":134.13000000582542,"accuracy":1,"outcome":"-1","keys":[1644.3550000112737],"total_keys":1,"block":1,"trial":77,"robot":3,"valence":"lose","action":"go","sham":0,"trial_type":"pit-trial","trial_index":92,"time_elapsed":617431,"internal_node_id":"0.0-79.0","task_version":"battery-v0.1"},{"rune":"Y","hex":"#3366ff99","correct":32,"choice":32,"rt":363.07000000670087,"accuracy":1,"outcome":"+10","keys":[1871.3000000134343],"total_keys":1,"block":1,"trial":78,"robot":1,"valence":"win","action":"go","sham":0,"trial_type":"pit-trial","trial_index":93,"time_elapsed":620513,"internal_node_id":"0.0-80.0","task_version":"battery-v0.1"},{"rune":"C","hex":"#f73b6a7A","correct":-1,"choice":32,"rt":408.8249999913387,"accuracy":0,"outcome":"-10","keys":[2224.994999996852],"total_keys":1,"block":1,"trial":79,"robot":4,"valence":"lose","action":"no-go","sham":0,"trial_type":"pit-trial","trial_index":94,"time_elapsed":623951,"internal_node_id":"0.0-81.0","task_version":"battery-v0.1"},{"rune":"F","hex":"#3366ff99","correct":-1,"choice":32,"rt":267.7550000080373,"accuracy":0,"outcome":"+1","keys":[1768.499999991036],"total_keys":1,"block":1,"trial":80,"robot":2,"valence":"win","action":"no-go","sham":0,"trial_type":"pit-trial","trial_index":95,"time_elapsed":626924,"internal_node_id":"0.0-82.0","task_version":"battery-v0.1"},{"rune":"F","hex":"#3366ff99","correct":-1,"choice":32,"rt":389.63000000512693,"accuracy":0,"outcome":"+10","keys":[1892.9800000041723],"total_keys":1,"block":1,"trial":81,"robot":2,"valence":"win","action":"no-go","sham":1,"trial_type":"pit-trial","trial_index":96,"time_elapsed":630027,"internal_node_id":"0.0-83.0","task_version":"battery-v0.1"},{"rune":"C","hex":"#f73b6a7A","correct":-1,"choice":-1,"rt":-1,"accuracy":1,"outcome":"-10","keys":[],"total_keys":0,"block":1,"trial":82,"robot":4,"valence":"lose","action":"no-go","sham":1,"trial_type":"pit-trial","trial_index":97,"time_elapsed":634047,"internal_node_id":"0.0-84.0","task_version":"battery-v0.1"},{"rune":"N","hex":"#f73b6a7A","correct":32,"choice":-1,"rt":-1,"accuracy":0,"outcome":"-10","keys":[],"total_keys":0,"block":1,"trial":83,"robot":3,"valence":"lose","action":"go","sham":0,"trial_type":"pit-trial","trial_index":98,"time_elapsed":639455,"internal_node_id":"0.0-85.0","task_version":"battery-v0.1"},{"rune":"Y","hex":"#3366ff99","correct":32,"choice":32,"rt":211.18500000739004,"accuracy":1,"outcome":"+10","keys":[1034.075000003213,1335.4449999897042,1713.4450000012293],"total_keys":3,"block":1,"trial":84,"robot":1,"valence":"win","action":"go","sham":0,"trial_type":"pit-trial","trial_index":99,"time_elapsed":642377,"internal_node_id":"0.0-86.0","task_version":"battery-v0.1"},{"rune":"Y","hex":"#3366ff99","correct":32,"choice":-1,"rt":-1,"accuracy":0,"outcome":"+1","keys":[2953.3749999973224],"total_keys":1,"block":1,"trial":85,"robot":1,"valence":"win","action":"go","sham":0,"trial_type":"pit-trial","trial_index":100,"time_elapsed":646405,"internal_node_id":"0.0-87.0","task_version":"battery-v0.1"},{"rune":"N","hex":"#f73b6a7A","correct":32,"choice":32,"rt":707.2100000077626,"accuracy":1,"outcome":"-1","keys":[2208.700000002864],"total_keys":1,"block":1,"trial":86,"robot":3,"valence":"lose","action":"go","sham":0,"trial_type":"pit-trial","trial_index":101,"time_elapsed":649831,"internal_node_id":"0.0-88.0","task_version":"battery-v0.1"},{"rune":"F","hex":"#3366ff99","correct":-1,"choice":32,"rt":923.1350000045495,"accuracy":0,"outcome":"+1","keys":[1237.9999999975553,2424.2249999952037,2849.224999998114],"total_keys":3,"block":1,"trial":87,"robot":2,"valence":"win","action":"no-go","sham":0,"trial_type":"pit-trial","trial_index":102,"time_elapsed":653465,"internal_node_id":"0.0-89.0","task_version":"battery-v0.1"},{"rune":"C","hex":"#f73b6a7A","correct":-1,"choice":-1,"rt":-1,"accuracy":1,"outcome":"-1","keys":[1329.4500000047265,3569.904999996652],"total_keys":2,"block":1,"trial":88,"robot":4,"valence":"lose","action":"no-go","sham":0,"trial_type":"pit-trial","trial_index":103,"time_elapsed":657488,"internal_node_id":"0.0-90.0","task_version":"battery-v0.1"},{"rune":"N","hex":"#f73b6a7A","correct":32,"choice":32,"rt":85.74500000395346,"accuracy":1,"outcome":"-1","keys":[1063.4849999914877,1590.2749999950174],"total_keys":2,"block":1,"trial":89,"robot":3,"valence":"lose","action":"go","sham":0,"trial_type":"pit-trial","trial_index":104,"time_elapsed":660286,"internal_node_id":"0.0-91.0","task_version":"battery-v0.1"},{"rune":"K","hex":"#3366ff99","correct":-1,"choice":32,"rt":332.5449999974808,"accuracy":0,"outcome":"+1","keys":[1839.7150000091642],"total_keys":1,"block":1,"trial":90,"robot":2,"valence":"win","action":"no-go","sham":0,"trial_type":"pit-trial","trial_index":105,"time_elapsed":663335,"internal_node_id":"0.0-92.0","task_version":"battery-v0.1"},{"rune":"Y","hex":"#3366ff99","correct":32,"choice":32,"rt":755.78000000678,"accuracy":1,"outcome":"+10","keys":[2257.1750000061],"total_keys":1,"block":1,"trial":91,"robot":1,"valence":"win","action":"go","sham":0,"trial_type":"pit-trial","trial_index":106,"time_elapsed":666802,"internal_node_id":"0.0-93.0","task_version":"battery-v0.1"},{"rune":"I","hex":"#f73b6a7A","correct":32,"choice":32,"rt":320.56500000180677,"accuracy":1,"outcome":"-10","keys":[1821.0849999886705],"total_keys":1,"block":1,"trial":92,"robot":3,"valence":"lose","action":"go","sham":1,"trial_type":"pit-trial","trial_index":107,"time_elapsed":669835,"internal_node_id":"0.0-94.0","task_version":"battery-v0.1"},{"rune":"N","hex":"#f73b6a7A","correct":32,"choice":-1,"rt":-1,"accuracy":0,"outcome":"-10","keys":[1321.1999999912223,3038.8099999981932],"total_keys":2,"block":1,"trial":93,"robot":3,"valence":"lose","action":"go","sham":0,"trial_type":"pit-trial","trial_index":108,"time_elapsed":673845,"internal_node_id":"0.0-95.0","task_version":"battery-v0.1"},{"rune":"K","hex":"#3366ff99","correct":-1,"choice":32,"rt":857.270000007702,"accuracy":0,"outcome":"+10","keys":[1015.8649999939371,2358.249999990221],"total_keys":2,"block":1,"trial":94,"robot":2,"valence":"win","action":"no-go","sham":1,"trial_type":"pit-trial","trial_index":109,"time_elapsed":677415,"internal_node_id":"0.0-96.0","task_version":"battery-v0.1"},{"rune":"I","hex":"#f73b6a7A","correct":32,"choice":32,"rt":627.3349999974016,"accuracy":1,"outcome":"-10","keys":[944.6250000037253,1454.2400000063935,2133.910000004107],"total_keys":3,"block":1,"trial":95,"robot":3,"valence":"lose","action":"go","sham":1,"trial_type":"pit-trial","trial_index":110,"time_elapsed":680753,"internal_node_id":"0.0-97.0","task_version":"battery-v0.1"},{"rune":"Y","hex":"#3366ff99","correct":32,"choice":32,"rt":109.5050000003539,"accuracy":1,"outcome":"+10","keys":[1610.449999992852],"total_keys":1,"block":1,"trial":96,"robot":1,"valence":"win","action":"go","sham":0,"trial_type":"pit-trial","trial_index":111,"time_elapsed":683571,"internal_node_id":"0.0-98.0","task_version":"battery-v0.1"},{"rune":"I","hex":"#f73b6a7A","correct":32,"choice":32,"rt":43.18999999668449,"accuracy":1,"outcome":"-1","keys":[1547.3999999958323],"total_keys":1,"block":1,"trial":97,"robot":3,"valence":"lose","action":"go","sham":0,"trial_type":"pit-trial","trial_index":112,"time_elapsed":686336,"internal_node_id":"0.0-99.0","task_version":"battery-v0.1"},{"rune":"N","hex":"#f73b6a7A","correct":32,"choice":32,"rt":808.2750000030501,"accuracy":1,"outcome":"-1","keys":[2315.7700000010664],"total_keys":1,"block":1,"trial":98,"robot":3,"valence":"lose","action":"go","sham":0,"trial_type":"pit-trial","trial_index":113,"time_elapsed":689857,"internal_node_id":"0.0-100.0","task_version":"battery-v0.1"},{"rune":"K","hex":"#3366ff99","correct":-1,"choice":32,"rt":564.4999999931315,"accuracy":0,"outcome":"+1","keys":[2066.6000000055647],"total_keys":1,"block":1,"trial":99,"robot":2,"valence":"win","action":"no-go","sham":0,"trial_type":"pit-trial","trial_index":114,"time_elapsed":693128,"internal_node_id":"0.0-101.0","task_version":"battery-v0.1"},{"rune":"Y","hex":"#3366ff99","correct":32,"choice":32,"rt":511.2050000025192,"accuracy":1,"outcome":"+10","keys":[2014.06999999017],"total_keys":1,"block":1,"trial":100,"robot":1,"valence":"win","action":"go","sham":0,"trial_type":"pit-trial","trial_index":115,"time_elapsed":696353,"internal_node_id":"0.0-102.0","task_version":"battery-v0.1"},{"rune":"K","hex":"#3366ff99","correct":-1,"choice":32,"rt":678.5950000048615,"accuracy":0,"outcome":"+1","keys":[2179.6100000065053],"total_keys":1,"block":1,"trial":101,"robot":2,"valence":"win","action":"no-go","sham":0,"trial_type":"pit-trial","trial_index":116,"time_elapsed":699742,"internal_node_id":"0.0-103.0","task_version":"battery-v0.1"},{"rune":"I","hex":"#f73b6a7A","correct":32,"choice":32,"rt":602.759999994305,"accuracy":1,"outcome":"-1","keys":[2108.0199999996694],"total_keys":1,"block":1,"trial":102,"robot":3,"valence":"lose","action":"go","sham":0,"trial_type":"pit-trial","trial_index":117,"time_elapsed":703056,"internal_node_id":"0.0-104.0","task_version":"battery-v0.1"},{"rune":"Y","hex":"#3366ff99","correct":32,"choice":32,"rt":342.59499999461696,"accuracy":1,"outcome":"+10","keys":[1846.6150000022026],"total_keys":1,"block":1,"trial":103,"robot":1,"valence":"win","action":"go","sham":0,"trial_type":"pit-trial","trial_index":118,"time_elapsed":706112,"internal_node_id":"0.0-105.0","task_version":"battery-v0.1"},{"rune":"N","hex":"#f73b6a7A","correct":32,"choice":32,"rt":720.484999998007,"accuracy":1,"outcome":"-1","keys":[1458.7749999918742,2228.0249999894295],"total_keys":2,"block":1,"trial":104,"robot":3,"valence":"lose","action":"go","sham":0,"trial_type":"pit-trial","trial_index":119,"time_elapsed":709556,"internal_node_id":"0.0-106.0","task_version":"battery-v0.1"},{"rune":"K","hex":"#3366ff99","correct":-1,"choice":32,"rt":7.705000010901131,"accuracy":0,"outcome":"+1","keys":[1512.5549999938812],"total_keys":1,"block":1,"trial":105,"robot":2,"valence":"win","action":"no-go","sham":0,"trial_type":"pit-trial","trial_index":120,"time_elapsed":712272,"internal_node_id":"0.0-107.0","task_version":"battery-v0.1"},{"rune":"I","hex":"#f73b6a7A","correct":32,"choice":32,"rt":16.0500000056345,"accuracy":1,"outcome":"-1","keys":[1519.0349999902537],"total_keys":1,"block":1,"trial":106,"robot":3,"valence":"lose","action":"go","sham":0,"trial_type":"pit-trial","trial_index":121,"time_elapsed":715000,"internal_node_id":"0.0-108.0","task_version":"battery-v0.1"},{"rune":"Y","hex":"#3366ff99","correct":32,"choice":32,"rt":765.2700000035111,"accuracy":1,"outcome":"+10","keys":[1066.080000004149,1434.9650000076508,2265.4699999984587],"total_keys":3,"block":1,"trial":107,"robot":1,"valence":"win","action":"go","sham":0,"trial_type":"pit-trial","trial_index":122,"time_elapsed":718472,"internal_node_id":"0.0-109.0","task_version":"battery-v0.1"},{"rune":"N","hex":"#f73b6a7A","correct":32,"choice":32,"rt":319.09500001347624,"accuracy":1,"outcome":"-1","keys":[1821.750000002794],"total_keys":1,"block":1,"trial":108,"robot":3,"valence":"lose","action":"go","sham":0,"trial_type":"pit-trial","trial_index":123,"time_elapsed":721500,"internal_node_id":"0.0-110.0","task_version":"battery-v0.1"},{"rune":"I","hex":"#f73b6a7A","correct":32,"choice":32,"rt":35.58500000508502,"accuracy":1,"outcome":"-1","keys":[1541.5650000068126],"total_keys":1,"block":1,"trial":109,"robot":3,"valence":"lose","action":"go","sham":0,"trial_type":"pit-trial","trial_index":124,"time_elapsed":724251,"internal_node_id":"0.0-111.0","task_version":"battery-v0.1"},{"rune":"K","hex":"#3366ff99","correct":-1,"choice":32,"rt":201.3299999962328,"accuracy":0,"outcome":"+1","keys":[1204.0049999923212,1703.1149999966146],"total_keys":2,"block":1,"trial":110,"robot":2,"valence":"win","action":"no-go","sham":0,"trial_type":"pit-trial","trial_index":125,"time_elapsed":727160,"internal_node_id":"0.0-112.0","task_version":"battery-v0.1"},{"rune":"Y","hex":"#3366ff99","correct":32,"choice":32,"rt":81.92500000586733,"accuracy":1,"outcome":"+10","keys":[1582.9249999951571],"total_keys":1,"block":1,"trial":111,"robot":1,"valence":"win","action":"go","sham":0,"trial_type":"pit-trial","trial_index":126,"time_elapsed":729949,"internal_node_id":"0.0-113.0","task_version":"battery-v0.1"},{"rune":"N","hex":"#f73b6a7A","correct":32,"choice":32,"rt":259.66999999945983,"accuracy":1,"outcome":"-1","keys":[1760.1200000062818],"total_keys":1,"block":1,"trial":112,"robot":3,"valence":"lose","action":"go","sham":0,"trial_type":"pit-trial","trial_index":127,"time_elapsed":732912,"internal_node_id":"0.0-114.0","task_version":"battery-v0.1"},{"rune":"Y","hex":"#3366ff99","correct":32,"choice":32,"rt":736.3200000108918,"accuracy":1,"outcome":"+10","keys":[776.9649999972899,1315.9000000014203,2236.394999999902],"total_keys":3,"block":1,"trial":113,"robot":1,"valence":"win","action":"go","sham":0,"trial_type":"pit-trial","trial_index":128,"time_elapsed":736354,"internal_node_id":"0.0-115.0","task_version":"battery-v0.1"},{"rune":"K","hex":"#3366ff99","correct":-1,"choice":32,"rt":662.1749999903841,"accuracy":0,"outcome":"+1","keys":[1404.2849999968894,2164.8299999942537],"total_keys":2,"block":1,"trial":114,"robot":2,"valence":"win","action":"no-go","sham":0,"trial_type":"pit-trial","trial_index":129,"time_elapsed":739727,"internal_node_id":"0.0-116.0","task_version":"battery-v0.1"},{"rune":"I","hex":"#f73b6a7A","correct":32,"choice":32,"rt":25.569999997969717,"accuracy":1,"outcome":"-10","keys":[1148.944999993546,1530.7749999919906,2425.874999986263],"total_keys":3,"block":1,"trial":115,"robot":3,"valence":"lose","action":"go","sham":1,"trial_type":"pit-trial","trial_index":130,"time_elapsed":742462,"internal_node_id":"0.0-117.0","task_version":"battery-v0.1"},{"rune":"N","hex":"#f73b6a7A","correct":32,"choice":32,"rt":547.1250000118744,"accuracy":1,"outcome":"-1","keys":[1221.5699999942444,2051.5400000003865],"total_keys":2,"block":1,"trial":116,"robot":3,"valence":"lose","action":"go","sham":0,"trial_type":"pit-trial","trial_index":131,"time_elapsed":745718,"internal_node_id":"0.0-118.0","task_version":"battery-v0.1"},{"rune":"K","hex":"#3366ff99","correct":-1,"choice":32,"rt":490.32500000612345,"accuracy":0,"outcome":"+1","keys":[608.1600000034086,1155.670000007376,1996.3350000034552],"total_keys":3,"block":1,"trial":117,"robot":2,"valence":"win","action":"no-go","sham":0,"trial_type":"pit-trial","trial_index":132,"time_elapsed":748921,"internal_node_id":"0.0-119.0","task_version":"battery-v0.1"},{"rune":"N","hex":"#f73b6a7A","correct":32,"choice":32,"rt":349.09499999776017,"accuracy":1,"outcome":"-1","keys":[1853.3650000026682],"total_keys":1,"block":1,"trial":118,"robot":3,"valence":"lose","action":"go","sham":0,"trial_type":"pit-trial","trial_index":133,"time_elapsed":751982,"internal_node_id":"0.0-120.0","task_version":"battery-v0.1"},{"rune":"I","hex":"#f73b6a7A","correct":32,"choice":32,"rt":275.8949999988545,"accuracy":1,"outcome":"-1","keys":[1777.9399999999441],"total_keys":1,"block":1,"trial":119,"robot":3,"valence":"lose","action":"go","sham":0,"trial_type":"pit-trial","trial_index":134,"time_elapsed":754971,"internal_node_id":"0.0-121.0","task_version":"battery-v0.1"},{"rune":"Y","hex":"#3366ff99","correct":32,"choice":32,"rt":121.27499999769498,"accuracy":1,"outcome":"+10","keys":[1623.185000004014],"total_keys":1,"block":1,"trial":120,"robot":1,"valence":"win","action":"go","sham":0,"trial_type":"pit-trial","trial_index":135,"time_elapsed":757805,"internal_node_id":"0.0-122.0","task_version":"battery-v0.1"},{"view_history":"[{\"page_index\":0,\"viewing_time\":1777.4350000108825},{\"page_index\":1,\"viewing_time\":1158.2849999977043}]","rt":2936.470000000554,"trial_type":"pit-instructions","trial_index":136,"time_elapsed":760743,"internal_node_id":"0.0-123.0","task_version":"battery-v0.1"},{"rune":"S","hex":"#3366ff99","correct":32,"choice":32,"rt":245.7799999974668,"accuracy":1,"outcome":"+1","keys":[1746.1550000007264],"total_keys":1,"block":2,"trial":121,"robot":1,"valence":"win","action":"go","sham":1,"trial_type":"pit-trial","trial_index":137,"time_elapsed":763705,"internal_node_id":"0.0-124.0","task_version":"battery-v0.1"},{"rune":"B","hex":"#3366ff99","correct":-1,"choice":32,"rt":158.899999994901,"accuracy":0,"outcome":"+1","keys":[1662.03000000678],"total_keys":1,"block":2,"trial":122,"robot":2,"valence":"win","action":"no-go","sham":0,"trial_type":"pit-trial","trial_index":138,"time_elapsed":766574,"internal_node_id":"0.0-125.0","task_version":"battery-v0.1"},{"rune":"W","hex":"#f73b6a7A","correct":-1,"choice":32,"rt":383.4050000004936,"accuracy":0,"outcome":"-10","keys":[1892.7899999980582],"total_keys":1,"block":2,"trial":123,"robot":4,"valence":"lose","action":"no-go","sham":0,"trial_type":"pit-trial","trial_index":139,"time_elapsed":769673,"internal_node_id":"0.0-126.0","task_version":"battery-v0.1"},{"rune":"L","hex":"#3366ff99","correct":32,"choice":32,"rt":203.57500000682194,"accuracy":1,"outcome":"+10","keys":[1706.8299999955343],"total_keys":1,"block":2,"trial":124,"robot":1,"valence":"win","action":"go","sham":0,"trial_type":"pit-trial","trial_index":140,"time_elapsed":772584,"internal_node_id":"0.0-127.0","task_version":"battery-v0.1"},{"rune":"S","hex":"#3366ff99","correct":32,"choice":32,"rt":407.77499999967404,"accuracy":1,"outcome":"+10","keys":[1908.5349999950267],"total_keys":1,"block":2,"trial":125,"robot":1,"valence":"win","action":"go","sham":0,"trial_type":"pit-trial","trial_index":141,"time_elapsed":775695,"internal_node_id":"0.0-128.0","task_version":"battery-v0.1"},{"rune":"L","hex":"#3366ff99","correct":32,"choice":32,"rt":313.58000000182074,"accuracy":1,"outcome":"+10","keys":[1813.6749999976018],"total_keys":1,"block":2,"trial":126,"robot":1,"valence":"win","action":"go","sham":0,"trial_type":"pit-trial","trial_index":142,"time_elapsed":778715,"internal_node_id":"0.0-129.0","task_version":"battery-v0.1"},{"rune":"B","hex":"#3366ff99","correct":-1,"choice":32,"rt":299.9699999927543,"accuracy":0,"outcome":"+1","keys":[1807.0299999963026],"total_keys":1,"block":2,"trial":127,"robot":2,"valence":"win","action":"no-go","sham":0,"trial_type":"pit-trial","trial_index":143,"time_elapsed":781726,"internal_node_id":"0.0-130.0","task_version":"battery-v0.1"},{"rune":"W","hex":"#f73b6a7A","correct":-1,"choice":-1,"rt":-1,"accuracy":1,"outcome":"-1","keys":[],"total_keys":0,"block":2,"trial":128,"robot":4,"valence":"lose","action":"no-go","sham":0,"trial_type":"pit-trial","trial_index":144,"time_elapsed":785740,"internal_node_id":"0.0-131.0","task_version":"battery-v0.1"},{"rune":"W","hex":"#f73b6a7A","correct":-1,"choice":32,"rt":435.9499999991385,"accuracy":0,"outcome":"-1","keys":[1939.1450000111945],"total_keys":1,"block":2,"trial":129,"robot":4,"valence":"lose","action":"no-go","sham":1,"trial_type":"pit-trial","trial_index":145,"time_elapsed":788886,"internal_node_id":"0.0-132.0","task_version":"battery-v0.1"},{"rune":"S","hex":"#3366ff99","correct":32,"choice":32,"rt":552.0699999906356,"accuracy":1,"outcome":"+10","keys":[2054.1549999907147],"total_keys":1,"block":2,"trial":130,"robot":1,"valence":"win","action":"go","sham":0,"trial_type":"pit-trial","trial_index":146,"time_elapsed":792145,"internal_node_id":"0.0-133.0","task_version":"battery-v0.1"},{"rune":"B","hex":"#3366ff99","correct":-1,"choice":32,"rt":302.0600000018021,"accuracy":0,"outcome":"+1","keys":[1806.510000009439],"total_keys":1,"block":2,"trial":131,"robot":2,"valence":"win","action":"no-go","sham":0,"trial_type":"pit-trial","trial_index":147,"time_elapsed":795160,"internal_node_id":"0.0-134.0","task_version":"battery-v0.1"},{"rune":"L","hex":"#3366ff99","correct":32,"choice":32,"rt":194.6099999913713,"accuracy":1,"outcome":"+1","keys":[1696.9699999899603],"total_keys":1,"block":2,"trial":132,"robot":1,"valence":"win","action":"go","sham":1,"trial_type":"pit-trial","trial_index":148,"time_elapsed":798062,"internal_node_id":"0.0-135.0","task_version":"battery-v0.1"},{"rune":"S","hex":"#3366ff99","correct":32,"choice":32,"rt":552.4250000016764,"accuracy":1,"outcome":"+1","keys":[1069.5399999967776,1371.6699999931734,2058.4600000001956],"total_keys":3,"block":2,"trial":133,"robot":1,"valence":"win","action":"go","sham":1,"trial_type":"pit-trial","trial_index":149,"time_elapsed":801327,"internal_node_id":"0.0-136.0","task_version":"battery-v0.1"},{"rune":"B","hex":"#3366ff99","correct":-1,"choice":-1,"rt":-1,"accuracy":1,"outcome":"+10","keys":[946.235000010347,1195.22500000312,1441.240000000107,3432.3500000027707],"total_keys":4,"block":2,"trial":134,"robot":2,"valence":"win","action":"no-go","sham":0,"trial_type":"pit-trial","trial_index":150,"time_elapsed":805355,"internal_node_id":"0.0-137.0","task_version":"battery-v0.1"},{"rune":"W","hex":"#f73b6a7A","correct":-1,"choice":32,"rt":603.5449999908451,"accuracy":0,"outcome":"-10","keys":[1388.7249999970663,2104.5200000080513],"total_keys":2,"block":2,"trial":135,"robot":4,"valence":"lose","action":"no-go","sham":0,"trial_type":"pit-trial","trial_index":151,"time_elapsed":808665,"internal_node_id":"0.0-138.0","task_version":"battery-v0.1"},{"rune":"L","hex":"#3366ff99","correct":32,"choice":32,"rt":145.42500000970904,"accuracy":1,"outcome":"+10","keys":[1651.160000008531],"total_keys":1,"block":2,"trial":136,"robot":1,"valence":"win","action":"go","sham":0,"trial_type":"pit-trial","trial_index":152,"time_elapsed":811525,"internal_node_id":"0.0-139.0","task_version":"battery-v0.1"},{"rune":"B","hex":"#3366ff99","correct":-1,"choice":32,"rt":279.5249999908265,"accuracy":0,"outcome":"+1","keys":[1783.1200000073295],"total_keys":1,"block":2,"trial":137,"robot":2,"valence":"win","action":"no-go","sham":0,"trial_type":"pit-trial","trial_index":153,"time_elapsed":814516,"internal_node_id":"0.0-140.0","task_version":"battery-v0.1"},{"rune":"S","hex":"#3366ff99","correct":32,"choice":32,"rt":395.9000000031665,"accuracy":1,"outcome":"+10","keys":[1896.7650000122376],"total_keys":1,"block":2,"trial":138,"robot":1,"valence":"win","action":"go","sham":0,"trial_type":"pit-trial","trial_index":154,"time_elapsed":817620,"internal_node_id":"0.0-141.0","task_version":"battery-v0.1"},{"rune":"W","hex":"#f73b6a7A","correct":-1,"choice":-1,"rt":-1,"accuracy":1,"outcome":"-1","keys":[],"total_keys":0,"block":2,"trial":139,"robot":4,"valence":"lose","action":"no-go","sham":0,"trial_type":"pit-trial","trial_index":155,"time_elapsed":821630,"internal_node_id":"0.0-142.0","task_version":"battery-v0.1"},{"rune":"L","hex":"#3366ff99","correct":32,"choice":32,"rt":209.69000000332016,"accuracy":1,"outcome":"+10","keys":[1714.9099999951432],"total_keys":1,"block":2,"trial":140,"robot":1,"valence":"win","action":"go","sham":0,"trial_type":"pit-trial","trial_index":156,"time_elapsed":824550,"internal_node_id":"0.0-143.0","task_version":"battery-v0.1"},{"rune":"B","hex":"#3366ff99","correct":-1,"choice":32,"rt":318.80499998806044,"accuracy":0,"outcome":"+1","keys":[1823.5299999942072],"total_keys":1,"block":2,"trial":141,"robot":2,"valence":"win","action":"no-go","sham":0,"trial_type":"pit-trial","trial_index":157,"time_elapsed":827586,"internal_node_id":"0.0-144.0","task_version":"battery-v0.1"},{"rune":"L","hex":"#3366ff99","correct":32,"choice":32,"rt":323.7150000059046,"accuracy":1,"outcome":"+10","keys":[1823.7650000082795],"total_keys":1,"block":2,"trial":142,"robot":1,"valence":"win","action":"go","sham":0,"trial_type":"pit-trial","trial_index":158,"time_elapsed":830617,"internal_node_id":"0.0-145.0","task_version":"battery-v0.1"},{"rune":"S","hex":"#3366ff99","correct":32,"choice":32,"rt":479.3950000021141,"accuracy":1,"outcome":"+10","keys":[1987.6400000066496],"total_keys":1,"block":2,"trial":143,"robot":1,"valence":"win","action":"go","sham":0,"trial_type":"pit-trial","trial_index":159,"time_elapsed":833816,"internal_node_id":"0.0-146.0","task_version":"battery-v0.1"},{"rune":"W","hex":"#f73b6a7A","correct":-1,"choice":-1,"rt":-1,"accuracy":1,"outcome":"-1","keys":[1437.369999999646],"total_keys":1,"block":2,"trial":144,"robot":4,"valence":"lose","action":"no-go","sham":0,"trial_type":"pit-trial","trial_index":160,"time_elapsed":837825,"internal_node_id":"0.0-147.0","task_version":"battery-v0.1"},{"rune":"L","hex":"#3366ff99","correct":32,"choice":32,"rt":551.6000000061467,"accuracy":1,"outcome":"+1","keys":[253.46999999601394,1329.4949999981327,2052.0099999994272],"total_keys":3,"block":2,"trial":145,"robot":1,"valence":"win","action":"go","sham":1,"trial_type":"pit-trial","trial_index":161,"time_elapsed":841084,"internal_node_id":"0.0-148.0","task_version":"battery-v0.1"},{"rune":"S","hex":"#3366ff99","correct":32,"choice":32,"rt":143.6400000093272,"accuracy":1,"outcome":"+10","keys":[1646.69499998854],"total_keys":1,"block":2,"trial":146,"robot":1,"valence":"win","action":"go","sham":0,"trial_type":"pit-trial","trial_index":162,"time_elapsed":843937,"internal_node_id":"0.0-149.0","task_version":"battery-v0.1"},{"rune":"B","hex":"#3366ff99","correct":-1,"choice":32,"rt":460.1550000079442,"accuracy":0,"outcome":"+1","keys":[1966.455000001588],"total_keys":1,"block":2,"trial":147,"robot":2,"valence":"win","action":"no-go","sham":0,"trial_type":"pit-trial","trial_index":163,"time_elapsed":847109,"internal_node_id":"0.0-150.0","task_version":"battery-v0.1"},{"rune":"W","hex":"#f73b6a7A","correct":-1,"choice":32,"rt":414.08999999111984,"accuracy":0,"outcome":"-1","keys":[1300.2449999912642,1915.3599999990547],"total_keys":2,"block":2,"trial":148,"robot":4,"valence":"lose","action":"no-go","sham":1,"trial_type":"pit-trial","trial_index":164,"time_elapsed":850229,"internal_node_id":"0.0-151.0","task_version":"battery-v0.1"},{"rune":"W","hex":"#f73b6a7A","correct":-1,"choice":32,"rt":546.8350000010105,"accuracy":0,"outcome":"-10","keys":[2049.799999993411],"total_keys":1,"block":2,"trial":149,"robot":4,"valence":"lose","action":"no-go","sham":0,"trial_type":"pit-trial","trial_index":165,"time_elapsed":853486,"internal_node_id":"0.0-152.0","task_version":"battery-v0.1"},{"rune":"L","hex":"#3366ff99","correct":32,"choice":32,"rt":155.15500000037719,"accuracy":1,"outcome":"+10","keys":[1658.1349999905797],"total_keys":1,"block":2,"trial":150,"robot":1,"valence":"win","action":"go","sham":0,"trial_type":"pit-trial","trial_index":166,"time_elapsed":856348,"internal_node_id":"0.0-153.0","task_version":"battery-v0.1"},{"rune":"S","hex":"#3366ff99","correct":32,"choice":32,"rt":268.29999999608845,"accuracy":1,"outcome":"+10","keys":[1772.274999995716],"total_keys":1,"block":2,"trial":151,"robot":1,"valence":"win","action":"go","sham":0,"trial_type":"pit-trial","trial_index":167,"time_elapsed":859330,"internal_node_id":"0.0-154.0","task_version":"battery-v0.1"},{"rune":"B","hex":"#3366ff99","correct":-1,"choice":32,"rt":197.3149999976158,"accuracy":0,"outcome":"+1","keys":[1700.475000005099],"total_keys":1,"block":2,"trial":152,"robot":2,"valence":"win","action":"no-go","sham":0,"trial_type":"pit-trial","trial_index":168,"time_elapsed":862240,"internal_node_id":"0.0-155.0","task_version":"battery-v0.1"},{"rune":"S","hex":"#3366ff99","correct":32,"choice":32,"rt":246.02999999478925,"accuracy":1,"outcome":"+10","keys":[1746.5349999984028],"total_keys":1,"block":2,"trial":153,"robot":1,"valence":"win","action":"go","sham":0,"trial_type":"pit-trial","trial_index":169,"time_elapsed":865200,"internal_node_id":"0.0-156.0","task_version":"battery-v0.1"},{"rune":"W","hex":"#f73b6a7A","correct":-1,"choice":-1,"rt":-1,"accuracy":1,"outcome":"-1","keys":[1196.9349999999395,3014.5899999915855],"total_keys":2,"block":2,"trial":154,"robot":4,"valence":"lose","action":"no-go","sham":0,"trial_type":"pit-trial","trial_index":170,"time_elapsed":869216,"internal_node_id":"0.0-157.0","task_version":"battery-v0.1"},{"rune":"B","hex":"#3366ff99","correct":-1,"choice":32,"rt":540.9300000028452,"accuracy":0,"outcome":"+1","keys":[1158.3399999944959,2046.4300000021467],"total_keys":2,"block":2,"trial":155,"robot":2,"valence":"win","action":"no-go","sham":0,"trial_type":"pit-trial","trial_index":171,"time_elapsed":872468,"internal_node_id":"0.0-158.0","task_version":"battery-v0.1"},{"rune":"M","hex":"#3366ff99","correct":32,"choice":32,"rt":526.5700000018114,"accuracy":1,"outcome":"+10","keys":[1348.199999993085,2027.105000001029],"total_keys":2,"block":2,"trial":156,"robot":1,"valence":"win","action":"go","sham":0,"trial_type":"pit-trial","trial_index":172,"time_elapsed":875708,"internal_node_id":"0.0-159.0","task_version":"battery-v0.1"},{"rune":"S","hex":"#3366ff99","correct":32,"choice":32,"rt":397.22500000789296,"accuracy":1,"outcome":"+1","keys":[1903.9600000105565],"total_keys":1,"block":2,"trial":157,"robot":1,"valence":"win","action":"go","sham":1,"trial_type":"pit-trial","trial_index":173,"time_elapsed":878822,"internal_node_id":"0.0-160.0","task_version":"battery-v0.1"},{"rune":"W","hex":"#f73b6a7A","correct":-1,"choice":-1,"rt":-1,"accuracy":1,"outcome":"-1","keys":[2809.8100000061095],"total_keys":1,"block":2,"trial":158,"robot":4,"valence":"lose","action":"no-go","sham":0,"trial_type":"pit-trial","trial_index":174,"time_elapsed":882833,"internal_node_id":"0.0-161.0","task_version":"battery-v0.1"},{"rune":"B","hex":"#3366ff99","correct":-1,"choice":32,"rt":849.5599999878323,"accuracy":0,"outcome":"+1","keys":[2355.8300000004238],"total_keys":1,"block":2,"trial":159,"robot":2,"valence":"win","action":"no-go","sham":0,"trial_type":"pit-trial","trial_index":175,"time_elapsed":886396,"internal_node_id":"0.0-162.0","task_version":"battery-v0.1"},{"rune":"M","hex":"#3366ff99","correct":32,"choice":32,"rt":185.09500000800472,"accuracy":1,"outcome":"+10","keys":[1206.7349999997532,1690.2899999986403],"total_keys":2,"block":2,"trial":160,"robot":1,"valence":"win","action":"go","sham":0,"trial_type":"pit-trial","trial_index":176,"time_elapsed":889290,"internal_node_id":"0.0-163.0","task_version":"battery-v0.1"},{"rune":"B","hex":"#3366ff99","correct":-1,"choice":32,"rt":134.00000000547152,"accuracy":0,"outcome":"+1","keys":[1639.3600000010338],"total_keys":1,"block":2,"trial":161,"robot":2,"valence":"win","action":"no-go","sham":0,"trial_type":"pit-trial","trial_index":177,"time_elapsed":892136,"internal_node_id":"0.0-164.0","task_version":"battery-v0.1"},{"rune":"H","hex":"#f73b6a7A","correct":32,"choice":32,"rt":477.53499999816995,"accuracy":1,"outcome":"-1","keys":[1980.4999999905704],"total_keys":1,"block":2,"trial":162,"robot":3,"valence":"lose","action":"go","sham":0,"trial_type":"pit-trial","trial_index":178,"time_elapsed":895327,"internal_node_id":"0.0-165.0","task_version":"battery-v0.1"},{"rune":"M","hex":"#3366ff99","correct":32,"choice":32,"rt":28.724999996484257,"accuracy":1,"outcome":"+10","keys":[1536.4450000051875],"total_keys":1,"block":2,"trial":163,"robot":1,"valence":"win","action":"go","sham":0,"trial_type":"pit-trial","trial_index":179,"time_elapsed":898069,"internal_node_id":"0.0-166.0","task_version":"battery-v0.1"},{"rune":"D","hex":"#f73b6a7A","correct":-1,"choice":32,"rt":310.7049999962328,"accuracy":0,"outcome":"-10","keys":[1818.8200000004144],"total_keys":1,"block":2,"trial":164,"robot":4,"valence":"lose","action":"no-go","sham":0,"trial_type":"pit-trial","trial_index":180,"time_elapsed":901095,"internal_node_id":"0.0-167.0","task_version":"battery-v0.1"},{"rune":"B","hex":"#3366ff99","correct":-1,"choice":32,"rt":435.74500000977423,"accuracy":0,"outcome":"+1","keys":[1234.5600000116974,1937.0550000021467],"total_keys":2,"block":2,"trial":165,"robot":2,"valence":"win","action":"no-go","sham":0,"trial_type":"pit-trial","trial_index":181,"time_elapsed":904242,"internal_node_id":"0.0-168.0","task_version":"battery-v0.1"},{"rune":"H","hex":"#f73b6a7A","correct":32,"choice":32,"rt":394.4200000114506,"accuracy":1,"outcome":"-1","keys":[1473.9600000029895,1895.6150000012713],"total_keys":2,"block":2,"trial":166,"robot":3,"valence":"lose","action":"go","sham":0,"trial_type":"pit-trial","trial_index":182,"time_elapsed":907343,"internal_node_id":"0.0-169.0","task_version":"battery-v0.1"},{"rune":"M","hex":"#3366ff99","correct":32,"choice":32,"rt":585.5949999968288,"accuracy":1,"outcome":"+1","keys":[1445.8550000126706,2093.554999999469],"total_keys":2,"block":2,"trial":167,"robot":1,"valence":"win","action":"go","sham":1,"trial_type":"pit-trial","trial_index":183,"time_elapsed":910645,"internal_node_id":"0.0-170.0","task_version":"battery-v0.1"},{"rune":"D","hex":"#f73b6a7A","correct":-1,"choice":32,"rt":156.635000006645,"accuracy":0,"outcome":"-1","keys":[1661.340000006021],"total_keys":1,"block":2,"trial":168,"robot":4,"valence":"lose","action":"no-go","sham":1,"trial_type":"pit-trial","trial_index":184,"time_elapsed":913516,"internal_node_id":"0.0-171.0","task_version":"battery-v0.1"},{"rune":"M","hex":"#3366ff99","correct":32,"choice":32,"rt":117.16500000329688,"accuracy":1,"outcome":"+10","keys":[326.20999999926426,1617.2949999890989],"total_keys":2,"block":2,"trial":169,"robot":1,"valence":"win","action":"go","sham":0,"trial_type":"pit-trial","trial_index":185,"time_elapsed":916341,"internal_node_id":"0.0-172.0","task_version":"battery-v0.1"},{"rune":"D","hex":"#f73b6a7A","correct":-1,"choice":32,"rt":310.7049999962328,"accuracy":0,"outcome":"-10","keys":[1814.0000000130385],"total_keys":1,"block":2,"trial":170,"robot":4,"valence":"lose","action":"no-go","sham":0,"trial_type":"pit-trial","trial_index":186,"time_elapsed":919364,"internal_node_id":"0.0-173.0","task_version":"battery-v0.1"},{"rune":"U","hex":"#3366ff99","correct":-1,"choice":32,"rt":201.69499999610707,"accuracy":0,"outcome":"+1","keys":[1708.520000000135],"total_keys":1,"block":2,"trial":171,"robot":2,"valence":"win","action":"no-go","sham":0,"trial_type":"pit-trial","trial_index":187,"time_elapsed":922283,"internal_node_id":"0.0-174.0","task_version":"battery-v0.1"},{"rune":"H","hex":"#f73b6a7A","correct":32,"choice":32,"rt":295.53499999747146,"accuracy":1,"outcome":"-1","keys":[1799.6750000020256,2751.910000006319],"total_keys":2,"block":2,"trial":172,"robot":3,"valence":"lose","action":"go","sham":0,"trial_type":"pit-trial","trial_index":188,"time_elapsed":925293,"internal_node_id":"0.0-175.0","task_version":"battery-v0.1"},{"rune":"H","hex":"#f73b6a7A","correct":32,"choice":32,"rt":247.19500000355765,"accuracy":1,"outcome":"-1","keys":[1240.5350000044564,1755.4399999935413],"total_keys":2,"block":2,"trial":173,"robot":3,"valence":"lose","action":"go","sham":0,"trial_type":"pit-trial","trial_index":189,"time_elapsed":928251,"internal_node_id":"0.0-176.0","task_version":"battery-v0.1"},{"rune":"D","hex":"#f73b6a7A","correct":-1,"choice":32,"rt":334.7650000068825,"accuracy":0,"outcome":"-10","keys":[1844.0699999919161],"total_keys":1,"block":2,"trial":174,"robot":4,"valence":"lose","action":"no-go","sham":0,"trial_type":"pit-trial","trial_index":190,"time_elapsed":931304,"internal_node_id":"0.0-177.0","task_version":"battery-v0.1"},{"rune":"M","hex":"#3366ff99","correct":32,"choice":32,"rt":503.46999999601394,"accuracy":1,"outcome":"+10","keys":[1376.5350000030594,2008.2950000069104],"total_keys":2,"block":2,"trial":175,"robot":1,"valence":"win","action":"go","sham":0,"trial_type":"pit-trial","trial_index":191,"time_elapsed":934523,"internal_node_id":"0.0-178.0","task_version":"battery-v0.1"},{"rune":"U","hex":"#3366ff99","correct":-1,"choice":32,"rt":466.2250000110362,"accuracy":0,"outcome":"+1","keys":[1967.2350000037113],"total_keys":1,"block":2,"trial":176,"robot":2,"valence":"win","action":"no-go","sham":0,"trial_type":"pit-trial","trial_index":192,"time_elapsed":937701,"internal_node_id":"0.0-179.0","task_version":"battery-v0.1"},{"rune":"D","hex":"#f73b6a7A","correct":-1,"choice":32,"rt":214.7700000059558,"accuracy":0,"outcome":"-10","keys":[1715.5150000035064,2160.845000005793],"total_keys":2,"block":2,"trial":177,"robot":4,"valence":"lose","action":"no-go","sham":0,"trial_type":"pit-trial","trial_index":193,"time_elapsed":940624,"internal_node_id":"0.0-180.0","task_version":"battery-v0.1"},{"rune":"H","hex":"#f73b6a7A","correct":32,"choice":32,"rt":287.4350000056438,"accuracy":1,"outcome":"-1","keys":[1791.7000000015832],"total_keys":1,"block":2,"trial":178,"robot":3,"valence":"lose","action":"go","sham":0,"trial_type":"pit-trial","trial_index":194,"time_elapsed":943626,"internal_node_id":"0.0-181.0","task_version":"battery-v0.1"},{"rune":"M","hex":"#3366ff99","correct":32,"choice":32,"rt":158.53000000061002,"accuracy":1,"outcome":"+10","keys":[1243.3949999976903,1658.6500000121305],"total_keys":2,"block":2,"trial":179,"robot":1,"valence":"win","action":"go","sham":0,"trial_type":"pit-trial","trial_index":195,"time_elapsed":946490,"internal_node_id":"0.0-182.0","task_version":"battery-v0.1"},{"rune":"U","hex":"#3366ff99","correct":-1,"choice":32,"rt":138.6050000000978,"accuracy":0,"outcome":"+1","keys":[1641.6549999994459],"total_keys":1,"block":2,"trial":180,"robot":2,"valence":"win","action":"no-go","sham":0,"trial_type":"pit-trial","trial_index":196,"time_elapsed":949338,"internal_node_id":"0.0-183.0","task_version":"battery-v0.1"},{"rune":"D","hex":"#f73b6a7A","correct":-1,"choice":32,"rt":1241.3850000011735,"accuracy":0,"outcome":"-10","keys":[1308.5250000003725,2743.2449999905657],"total_keys":2,"block":2,"trial":181,"robot":4,"valence":"lose","action":"no-go","sham":0,"trial_type":"pit-trial","trial_index":197,"time_elapsed":953293,"internal_node_id":"0.0-184.0","task_version":"battery-v0.1"},{"rune":"U","hex":"#3366ff99","correct":-1,"choice":32,"rt":455.44999999401625,"accuracy":0,"outcome":"+1","keys":[1962.1100000076694],"total_keys":1,"block":2,"trial":182,"robot":2,"valence":"win","action":"no-go","sham":0,"trial_type":"pit-trial","trial_index":198,"time_elapsed":956463,"internal_node_id":"0.0-185.0","task_version":"battery-v0.1"},{"rune":"H","hex":"#f73b6a7A","correct":32,"choice":32,"rt":562.8999999898952,"accuracy":1,"outcome":"-1","keys":[380.8500000013737,1195.3599999978906,2069.790000008652],"total_keys":3,"block":2,"trial":183,"robot":3,"valence":"lose","action":"go","sham":0,"trial_type":"pit-trial","trial_index":199,"time_elapsed":959739,"internal_node_id":"0.0-186.0","task_version":"battery-v0.1"},{"rune":"M","hex":"#3366ff99","correct":32,"choice":32,"rt":263.9800000033574,"accuracy":1,"outcome":"+10","keys":[1303.4849999967264,1768.4799999988172],"total_keys":2,"block":2,"trial":184,"robot":1,"valence":"win","action":"go","sham":0,"trial_type":"pit-trial","trial_index":200,"time_elapsed":962715,"internal_node_id":"0.0-187.0","task_version":"battery-v0.1"},{"rune":"H","hex":"#f73b6a7A","correct":32,"choice":32,"rt":455.53999999538064,"accuracy":1,"outcome":"-1","keys":[1955.8450000040466,2502.2900000039954],"total_keys":2,"block":2,"trial":185,"robot":3,"valence":"lose","action":"go","sham":0,"trial_type":"pit-trial","trial_index":201,"time_elapsed":965875,"internal_node_id":"0.0-188.0","task_version":"battery-v0.1"},{"rune":"U","hex":"#3366ff99","correct":-1,"choice":32,"rt":203.82000000972766,"accuracy":0,"outcome":"+10","keys":[1705.0400000007357],"total_keys":1,"block":2,"trial":186,"robot":2,"valence":"win","action":"no-go","sham":1,"trial_type":"pit-trial","trial_index":202,"time_elapsed":968790,"internal_node_id":"0.0-189.0","task_version":"battery-v0.1"},{"rune":"D","hex":"#f73b6a7A","correct":-1,"choice":32,"rt":331.8049999943469,"accuracy":0,"outcome":"-1","keys":[1832.1600000053877],"total_keys":1,"block":2,"trial":187,"robot":4,"valence":"lose","action":"no-go","sham":1,"trial_type":"pit-trial","trial_index":203,"time_elapsed":971830,"internal_node_id":"0.0-190.0","task_version":"battery-v0.1"},{"rune":"M","hex":"#3366ff99","correct":32,"choice":32,"rt":302.479999998468,"accuracy":1,"outcome":"+10","keys":[1807.1950000012293],"total_keys":1,"block":2,"trial":188,"robot":1,"valence":"win","action":"go","sham":0,"trial_type":"pit-trial","trial_index":204,"time_elapsed":974848,"internal_node_id":"0.0-191.0","task_version":"battery-v0.1"},{"rune":"M","hex":"#3366ff99","correct":32,"choice":32,"rt":343.51999999489635,"accuracy":1,"outcome":"+10","keys":[1844.2900000081863],"total_keys":1,"block":2,"trial":189,"robot":1,"valence":"win","action":"go","sham":0,"trial_type":"pit-trial","trial_index":205,"time_elapsed":977900,"internal_node_id":"0.0-192.0","task_version":"battery-v0.1"},{"rune":"H","hex":"#f73b6a7A","correct":32,"choice":32,"rt":382.6249999983702,"accuracy":1,"outcome":"-10","keys":[1890.5049999884795],"total_keys":1,"block":2,"trial":190,"robot":3,"valence":"lose","action":"go","sham":1,"trial_type":"pit-trial","trial_index":206,"time_elapsed":980997,"internal_node_id":"0.0-193.0","task_version":"battery-v0.1"},{"rune":"D","hex":"#f73b6a7A","correct":-1,"choice":32,"rt":311.9650000007823,"accuracy":0,"outcome":"-10","keys":[1822.1100000082515],"total_keys":1,"block":2,"trial":191,"robot":4,"valence":"lose","action":"no-go","sham":0,"trial_type":"pit-trial","trial_index":207,"time_elapsed":984030,"internal_node_id":"0.0-194.0","task_version":"battery-v0.1"},{"rune":"U","hex":"#3366ff99","correct":-1,"choice":32,"rt":415.3999999980442,"accuracy":0,"outcome":"+1","keys":[1922.2149999986868],"total_keys":1,"block":2,"trial":192,"robot":2,"valence":"win","action":"no-go","sham":0,"trial_type":"pit-trial","trial_index":208,"time_elapsed":987157,"internal_node_id":"0.0-195.0","task_version":"battery-v0.1"},{"rune":"M","hex":"#3366ff99","correct":32,"choice":32,"rt":176.20499999611638,"accuracy":1,"outcome":"+1","keys":[1683.2999999896856],"total_keys":1,"block":2,"trial":193,"robot":1,"valence":"win","action":"go","sham":1,"trial_type":"pit-trial","trial_index":209,"time_elapsed":990045,"internal_node_id":"0.0-196.0","task_version":"battery-v0.1"},{"rune":"U","hex":"#3366ff99","correct":-1,"choice":32,"rt":115.97500000789296,"accuracy":0,"outcome":"+1","keys":[1328.5699999978533,1618.6799999995856],"total_keys":2,"block":2,"trial":194,"robot":2,"valence":"win","action":"no-go","sham":0,"trial_type":"pit-trial","trial_index":210,"time_elapsed":992870,"internal_node_id":"0.0-197.0","task_version":"battery-v0.1"},{"rune":"T","hex":"#f73b6a7A","correct":32,"choice":32,"rt":134.87500000337604,"accuracy":1,"outcome":"-1","keys":[1335.7499999983702,1641.8050000065705],"total_keys":2,"block":2,"trial":195,"robot":3,"valence":"lose","action":"go","sham":0,"trial_type":"pit-trial","trial_index":211,"time_elapsed":995720,"internal_node_id":"0.0-198.0","task_version":"battery-v0.1"},{"rune":"D","hex":"#f73b6a7A","correct":-1,"choice":32,"rt":159.94499999214895,"accuracy":0,"outcome":"-10","keys":[1099.9250000022585,1333.8300000032177,1502.3950000031618,1662.450000003446,1912.2950000019046,2648.5499999980675],"total_keys":6,"block":2,"trial":196,"robot":4,"valence":"lose","action":"no-go","sham":0,"trial_type":"pit-trial","trial_index":212,"time_elapsed":998590,"internal_node_id":"0.0-199.0","task_version":"battery-v0.1"},{"rune":"D","hex":"#f73b6a7A","correct":-1,"choice":32,"rt":258.32500000251457,"accuracy":0,"outcome":"-10","keys":[1759.460000001127],"total_keys":1,"block":2,"trial":197,"robot":4,"valence":"lose","action":"no-go","sham":0,"trial_type":"pit-trial","trial_index":213,"time_elapsed":1001562,"internal_node_id":"0.0-200.0","task_version":"battery-v0.1"},{"rune":"T","hex":"#f73b6a7A","correct":32,"choice":-1,"rt":-1,"accuracy":0,"outcome":"-10","keys":[4228.015000000596],"total_keys":1,"block":2,"trial":198,"robot":3,"valence":"lose","action":"go","sham":0,"trial_type":"pit-trial","trial_index":214,"time_elapsed":1005866,"internal_node_id":"0.0-201.0","task_version":"battery-v0.1"},{"rune":"U","hex":"#3366ff99","correct":-1,"choice":32,"rt":1.3699999981326982,"accuracy":0,"outcome":"+1","keys":[1505.380000002333,1929.8150000104215],"total_keys":2,"block":2,"trial":199,"robot":2,"valence":"win","action":"no-go","sham":0,"trial_type":"pit-trial","trial_index":215,"time_elapsed":1008578,"internal_node_id":"0.0-202.0","task_version":"battery-v0.1"},{"rune":"M","hex":"#3366ff99","correct":32,"choice":-1,"rt":-1,"accuracy":0,"outcome":"+1","keys":[],"total_keys":0,"block":2,"trial":200,"robot":1,"valence":"win","action":"go","sham":0,"trial_type":"pit-trial","trial_index":216,"time_elapsed":1013737,"internal_node_id":"0.0-203.0","task_version":"battery-v0.1"},{"rune":"P","hex":"#f73b6a7A","correct":32,"choice":-1,"rt":-1,"accuracy":0,"outcome":"-10","keys":[],"total_keys":0,"block":2,"trial":201,"robot":3,"valence":"lose","action":"go","sham":0,"trial_type":"pit-trial","trial_index":217,"time_elapsed":1018746,"internal_node_id":"0.0-204.0","task_version":"battery-v0.1"},{"rune":"D","hex":"#f73b6a7A","correct":-1,"choice":-1,"rt":-1,"accuracy":1,"outcome":"-1","keys":[],"total_keys":0,"block":2,"trial":202,"robot":4,"valence":"lose","action":"no-go","sham":0,"trial_type":"pit-trial","trial_index":218,"time_elapsed":1023736,"internal_node_id":"0.0-205.0","task_version":"battery-v0.1"},{"rune":"U","hex":"#3366ff99","correct":-1,"choice":-1,"rt":-1,"accuracy":1,"outcome":"+10","keys":[],"total_keys":0,"block":2,"trial":203,"robot":2,"valence":"win","action":"no-go","sham":0,"trial_type":"pit-trial","trial_index":219,"time_elapsed":1028735,"internal_node_id":"0.0-206.0","task_version":"battery-v0.1"},{"rune":"T","hex":"#f73b6a7A","correct":32,"choice":-1,"rt":-1,"accuracy":0,"outcome":"-10","keys":[],"total_keys":0,"block":2,"trial":204,"robot":3,"valence":"lose","action":"go","sham":0,"trial_type":"pit-trial","trial_index":220,"time_elapsed":1033740,"internal_node_id":"0.0-207.0","task_version":"battery-v0.1"},{"rune":"D","hex":"#f73b6a7A","correct":-1,"choice":-1,"rt":-1,"accuracy":1,"outcome":"-1","keys":[3449.5650000026217,3867.4150000006193],"total_keys":2,"block":2,"trial":205,"robot":4,"valence":"lose","action":"no-go","sham":0,"trial_type":"pit-trial","trial_index":221,"time_elapsed":1037751,"internal_node_id":"0.0-208.0","task_version":"battery-v0.1"},{"rune":"T","hex":"#f73b6a7A","correct":32,"choice":32,"rt":86.02000000246335,"accuracy":1,"outcome":"-10","keys":[1590.8349999954225],"total_keys":1,"block":2,"trial":206,"robot":3,"valence":"lose","action":"go","sham":1,"trial_type":"pit-trial","trial_index":222,"time_elapsed":1040549,"internal_node_id":"0.0-209.0","task_version":"battery-v0.1"},{"rune":"P","hex":"#f73b6a7A","correct":32,"choice":32,"rt":130.2399999985937,"accuracy":1,"outcome":"-1","keys":[1632.5850000139326],"total_keys":1,"block":2,"trial":207,"robot":3,"valence":"lose","action":"go","sham":0,"trial_type":"pit-trial","trial_index":223,"time_elapsed":1043393,"internal_node_id":"0.0-210.0","task_version":"battery-v0.1"},{"rune":"U","hex":"#3366ff99","correct":-1,"choice":32,"rt":524.6149999875342,"accuracy":0,"outcome":"+1","keys":[1498.4150000091176,2032.375000009779],"total_keys":2,"block":2,"trial":208,"robot":2,"valence":"win","action":"no-go","sham":0,"trial_type":"pit-trial","trial_index":224,"time_elapsed":1046635,"internal_node_id":"0.0-211.0","task_version":"battery-v0.1"},{"rune":"X","hex":"#f73b6a7A","correct":-1,"choice":-1,"rt":-1,"accuracy":1,"outcome":"-1","keys":[],"total_keys":0,"block":2,"trial":209,"robot":4,"valence":"lose","action":"no-go","sham":0,"trial_type":"pit-trial","trial_index":225,"time_elapsed":1050651,"internal_node_id":"0.0-212.0","task_version":"battery-v0.1"},{"rune":"E","hex":"#3366ff99","correct":-1,"choice":32,"rt":252.354999989504,"accuracy":0,"outcome":"+1","keys":[1498.5349999915343,1756.0149999917485],"total_keys":2,"block":2,"trial":210,"robot":2,"valence":"win","action":"no-go","sham":0,"trial_type":"pit-trial","trial_index":226,"time_elapsed":1053611,"internal_node_id":"0.0-213.0","task_version":"battery-v0.1"},{"rune":"T","hex":"#f73b6a7A","correct":32,"choice":32,"rt":531.6900000034366,"accuracy":1,"outcome":"-1","keys":[1018.6299999912735,1505.324999990873,2037.0899999979883],"total_keys":3,"block":2,"trial":211,"robot":3,"valence":"lose","action":"go","sham":0,"trial_type":"pit-trial","trial_index":227,"time_elapsed":1056861,"internal_node_id":"0.0-214.0","task_version":"battery-v0.1"},{"rune":"P","hex":"#f73b6a7A","correct":32,"choice":32,"rt":255.49499999033287,"accuracy":1,"outcome":"-1","keys":[1761.9849999900907],"total_keys":1,"block":2,"trial":212,"robot":3,"valence":"lose","action":"go","sham":0,"trial_type":"pit-trial","trial_index":228,"time_elapsed":1059831,"internal_node_id":"0.0-215.0","task_version":"battery-v0.1"},{"rune":"T","hex":"#f73b6a7A","correct":32,"choice":32,"rt":210.2149999991525,"accuracy":1,"outcome":"-1","keys":[1287.2749999950174,1714.8449999948498],"total_keys":2,"block":2,"trial":213,"robot":3,"valence":"lose","action":"go","sham":0,"trial_type":"pit-trial","trial_index":229,"time_elapsed":1062753,"internal_node_id":"0.0-216.0","task_version":"battery-v0.1"},{"rune":"E","hex":"#3366ff99","correct":-1,"choice":32,"rt":397.2000000067055,"accuracy":0,"outcome":"+1","keys":[1903.9900000062771],"total_keys":1,"block":2,"trial":214,"robot":2,"valence":"win","action":"no-go","sham":0,"trial_type":"pit-trial","trial_index":230,"time_elapsed":1065868,"internal_node_id":"0.0-217.0","task_version":"battery-v0.1"},{"rune":"P","hex":"#f73b6a7A","correct":32,"choice":32,"rt":56.26500000664964,"accuracy":1,"outcome":"-1","keys":[1556.709999989951],"total_keys":1,"block":2,"trial":215,"robot":3,"valence":"lose","action":"go","sham":0,"trial_type":"pit-trial","trial_index":231,"time_elapsed":1068634,"internal_node_id":"0.0-218.0","task_version":"battery-v0.1"},{"rune":"X","hex":"#f73b6a7A","correct":-1,"choice":-1,"rt":-1,"accuracy":1,"outcome":"-1","keys":[],"total_keys":0,"block":2,"trial":216,"robot":4,"valence":"lose","action":"no-go","sham":0,"trial_type":"pit-trial","trial_index":232,"time_elapsed":1073744,"internal_node_id":"0.0-219.0","task_version":"battery-v0.1"},{"rune":"E","hex":"#3366ff99","correct":-1,"choice":32,"rt":352.14499999722466,"accuracy":0,"outcome":"+1","keys":[596.6399999887217,1452.6150000018533,1854.0450000001583],"total_keys":3,"block":2,"trial":217,"robot":2,"valence":"win","action":"no-go","sham":0,"trial_type":"pit-trial","trial_index":233,"time_elapsed":1076806,"internal_node_id":"0.0-220.0","task_version":"battery-v0.1"},{"rune":"T","hex":"#f73b6a7A","correct":32,"choice":32,"rt":79.50999999581836,"accuracy":1,"outcome":"-1","keys":[1584.7400000055786,2241.945000001462],"total_keys":2,"block":2,"trial":218,"robot":3,"valence":"lose","action":"go","sham":0,"trial_type":"pit-trial","trial_index":234,"time_elapsed":1079600,"internal_node_id":"0.0-221.0","task_version":"battery-v0.1"},{"rune":"P","hex":"#f73b6a7A","correct":32,"choice":32,"rt":333.74499999615364,"accuracy":1,"outcome":"-1","keys":[966.3799999980256,1452.3800000024494,1838.4700000023004],"total_keys":3,"block":2,"trial":219,"robot":3,"valence":"lose","action":"go","sham":0,"trial_type":"pit-trial","trial_index":235,"time_elapsed":1082644,"internal_node_id":"0.0-222.0","task_version":"battery-v0.1"},{"rune":"X","hex":"#f73b6a7A","correct":-1,"choice":32,"rt":229.30500000086613,"accuracy":0,"outcome":"-10","keys":[1730.1900000022724],"total_keys":1,"block":2,"trial":220,"robot":4,"valence":"lose","action":"no-go","sham":0,"trial_type":"pit-trial","trial_index":236,"time_elapsed":1085586,"internal_node_id":"0.0-223.0","task_version":"battery-v0.1"},{"rune":"E","hex":"#3366ff99","correct":-1,"choice":32,"rt":901.280000005383,"accuracy":0,"outcome":"+1","keys":[2403.1450000039767],"total_keys":1,"block":2,"trial":221,"robot":2,"valence":"win","action":"no-go","sham":0,"trial_type":"pit-trial","trial_index":237,"time_elapsed":1089199,"internal_node_id":"0.0-224.0","task_version":"battery-v0.1"},{"rune":"T","hex":"#f73b6a7A","correct":32,"choice":-1,"rt":-1,"accuracy":0,"outcome":"-10","keys":[],"total_keys":0,"block":2,"trial":222,"robot":3,"valence":"lose","action":"go","sham":0,"trial_type":"pit-trial","trial_index":238,"time_elapsed":1093211,"internal_node_id":"0.0-225.0","task_version":"battery-v0.1"},{"rune":"P","hex":"#f73b6a7A","correct":32,"choice":32,"rt":207.8699999982491,"accuracy":1,"outcome":"-1","keys":[1187.814999997383,1711.3299999907613],"total_keys":2,"block":2,"trial":223,"robot":3,"valence":"lose","action":"go","sham":0,"trial_type":"pit-trial","trial_index":239,"time_elapsed":1096126,"internal_node_id":"0.0-226.0","task_version":"battery-v0.1"},{"rune":"X","hex":"#f73b6a7A","correct":-1,"choice":32,"rt":82.84499999741092,"accuracy":0,"outcome":"-10","keys":[920.0299999939743,1583.4849999954458],"total_keys":2,"block":2,"trial":224,"robot":4,"valence":"lose","action":"no-go","sham":0,"trial_type":"pit-trial","trial_index":240,"time_elapsed":1098914,"internal_node_id":"0.0-227.0","task_version":"battery-v0.1"},{"rune":"X","hex":"#f73b6a7A","correct":-1,"choice":-1,"rt":-1,"accuracy":1,"outcome":"-1","keys":[],"total_keys":0,"block":2,"trial":225,"robot":4,"valence":"lose","action":"no-go","sham":0,"trial_type":"pit-trial","trial_index":241,"time_elapsed":1102921,"internal_node_id":"0.0-228.0","task_version":"battery-v0.1"},{"rune":"E","hex":"#3366ff99","correct":-1,"choice":32,"rt":342.48500000080094,"accuracy":0,"outcome":"+1","keys":[1843.1249999995343],"total_keys":1,"block":2,"trial":226,"robot":2,"valence":"win","action":"no-go","sham":0,"trial_type":"pit-trial","trial_index":242,"time_elapsed":1105973,"internal_node_id":"0.0-229.0","task_version":"battery-v0.1"},{"rune":"P","hex":"#f73b6a7A","correct":32,"choice":-1,"rt":-1,"accuracy":0,"outcome":"-10","keys":[],"total_keys":0,"block":2,"trial":227,"robot":3,"valence":"lose","action":"go","sham":0,"trial_type":"pit-trial","trial_index":243,"time_elapsed":1109983,"internal_node_id":"0.0-230.0","task_version":"battery-v0.1"},{"rune":"T","hex":"#f73b6a7A","correct":32,"choice":32,"rt":497.95499999891035,"accuracy":1,"outcome":"-1","keys":[2001.4299999894574],"total_keys":1,"block":2,"trial":228,"robot":3,"valence":"lose","action":"go","sham":0,"trial_type":"pit-trial","trial_index":244,"time_elapsed":1113188,"internal_node_id":"0.0-231.0","task_version":"battery-v0.1"},{"rune":"E","hex":"#3366ff99","correct":-1,"choice":32,"rt":490.3550000016112,"accuracy":0,"outcome":"+1","keys":[1993.3949999976903],"total_keys":1,"block":2,"trial":229,"robot":2,"valence":"win","action":"no-go","sham":0,"trial_type":"pit-trial","trial_index":245,"time_elapsed":1116391,"internal_node_id":"0.0-232.0","task_version":"battery-v0.1"},{"rune":"P","hex":"#f73b6a7A","correct":32,"choice":32,"rt":379.2899999972433,"accuracy":1,"outcome":"-1","keys":[1881.8849999953527],"total_keys":1,"block":2,"trial":230,"robot":3,"valence":"lose","action":"go","sham":0,"trial_type":"pit-trial","trial_index":246,"time_elapsed":1119477,"internal_node_id":"0.0-233.0","task_version":"battery-v0.1"},{"rune":"T","hex":"#f73b6a7A","correct":32,"choice":32,"rt":345.75999999651685,"accuracy":1,"outcome":"-1","keys":[1852.3399999975227],"total_keys":1,"block":2,"trial":231,"robot":3,"valence":"lose","action":"go","sham":0,"trial_type":"pit-trial","trial_index":247,"time_elapsed":1122535,"internal_node_id":"0.0-234.0","task_version":"battery-v0.1"},{"rune":"X","hex":"#f73b6a7A","correct":-1,"choice":-1,"rt":-1,"accuracy":1,"outcome":"-1","keys":[],"total_keys":0,"block":2,"trial":232,"robot":4,"valence":"lose","action":"no-go","sham":0,"trial_type":"pit-trial","trial_index":248,"time_elapsed":1126554,"internal_node_id":"0.0-235.0","task_version":"battery-v0.1"},{"rune":"X","hex":"#f73b6a7A","correct":-1,"choice":32,"rt":891.1249999946449,"accuracy":0,"outcome":"-1","keys":[2394.9500000015832],"total_keys":1,"block":2,"trial":233,"robot":4,"valence":"lose","action":"no-go","sham":1,"trial_type":"pit-trial","trial_index":249,"time_elapsed":1130162,"internal_node_id":"0.0-236.0","task_version":"battery-v0.1"},{"rune":"E","hex":"#3366ff99","correct":-1,"choice":32,"rt":620.4099999887403,"accuracy":0,"outcome":"+1","keys":[2126.1099999975413],"total_keys":1,"block":2,"trial":234,"robot":2,"valence":"win","action":"no-go","sham":0,"trial_type":"pit-trial","trial_index":250,"time_elapsed":1133497,"internal_node_id":"0.0-237.0","task_version":"battery-v0.1"},{"rune":"P","hex":"#f73b6a7A","correct":32,"choice":32,"rt":85.86000000638887,"accuracy":1,"outcome":"-1","keys":[1588.1499999959487],"total_keys":1,"block":2,"trial":235,"robot":3,"valence":"lose","action":"go","sham":0,"trial_type":"pit-trial","trial_index":251,"time_elapsed":1136289,"internal_node_id":"0.0-238.0","task_version":"battery-v0.1"},{"rune":"T","hex":"#f73b6a7A","correct":32,"choice":32,"rt":271.55999999376945,"accuracy":1,"outcome":"-1","keys":[1775.9050000021234],"total_keys":1,"block":2,"trial":236,"robot":3,"valence":"lose","action":"go","sham":0,"trial_type":"pit-trial","trial_index":252,"time_elapsed":1139276,"internal_node_id":"0.0-239.0","task_version":"battery-v0.1"},{"rune":"E","hex":"#3366ff99","correct":-1,"choice":32,"rt":312.83999999891967,"accuracy":0,"outcome":"+1","keys":[1818.5049999882467],"total_keys":1,"block":2,"trial":237,"robot":2,"valence":"win","action":"no-go","sham":0,"trial_type":"pit-trial","trial_index":253,"time_elapsed":1142300,"internal_node_id":"0.0-240.0","task_version":"battery-v0.1"},{"rune":"T","hex":"#f73b6a7A","correct":32,"choice":32,"rt":569.0250000043306,"accuracy":1,"outcome":"-1","keys":[1389.389999996405,2070.749999998836],"total_keys":2,"block":2,"trial":238,"robot":3,"valence":"lose","action":"go","sham":0,"trial_type":"pit-trial","trial_index":254,"time_elapsed":1145576,"internal_node_id":"0.0-241.0","task_version":"battery-v0.1"},{"rune":"X","hex":"#f73b6a7A","correct":-1,"choice":-1,"rt":-1,"accuracy":1,"outcome":"-1","keys":[],"total_keys":0,"block":2,"trial":239,"robot":4,"valence":"lose","action":"no-go","sham":0,"trial_type":"pit-trial","trial_index":255,"time_elapsed":1149587,"internal_node_id":"0.0-242.0","task_version":"battery-v0.1"},{"rune":"P","hex":"#f73b6a7A","correct":32,"choice":32,"rt":736.6349999939557,"accuracy":1,"outcome":"-10","keys":[2236.820000005653],"total_keys":1,"block":2,"trial":240,"robot":3,"valence":"lose","action":"go","sham":1,"trial_type":"pit-trial","trial_index":256,"time_elapsed":1153036,"internal_node_id":"0.0-243.0","task_version":"battery-v0.1"},{"view_history":"[{\"page_index\":0,\"viewing_time\":43754.815000007395}]","rt":43755.64500001189,"trial_type":"pit-instructions","trial_index":257,"time_elapsed":1196793,"internal_node_id":"0.0-244.0","task_version":"battery-v0.1"},{"rt":12939.075000002049,"responses":{"age":"27","gender-categorical":"Female","gender-free-response":"","ethnicity":"Not Hispanic or Latino","race":["White"],"language":"Yes","fluency":"Very well"},"survey":"demographics","trial_type":"survey-demo","trial_index":258,"time_elapsed":1209738,"internal_node_id":"0.0-245.0","task_version":"battery-v0.1"},{"rt":18304.105000003008,"responses":{"difficulty":"5","fun":"5","clarity":"5","strategy":"Tried to remember the letters","feedback":""},"survey":"debrief","trial_type":"survey-debrief","trial_index":259,"time_elapsed":1228047,"internal_node_id":"0.0-246.0","task_version":"battery-v0.1","interactions":"[{\"event\":\"blur\",\"trial\":56,\"time\":496634},{\"event\":\"focus\",\"trial\":56,\"time\":497589},{\"event\":\"blur\",\"trial\":94,\"time\":620729},{\"event\":\"focus\",\"trial\":94,\"time\":622333},{\"event\":\"blur\",\"trial\":98,\"time\":634685},{\"event\":\"focus\",\"trial\":99,\"time\":639461},{\"event\":\"blur\",\"trial\":147,\"time\":792234},{\"event\":\"focus\",\"trial\":147,\"time\":793518},{\"event\":\"blur\",\"trial\":188,\"time\":922305},{\"event\":\"focus\",\"trial\":188,\"time\":923566},{\"event\":\"blur\",\"trial\":214,\"time\":1001636},{\"event\":\"focus\",\"trial\":214,\"time\":1004666},{\"event\":\"blur\",\"trial\":216,\"time\":1009478},{\"event\":\"focus\",\"trial\":221,\"time\":1036091},{\"event\":\"blur\",\"trial\":232,\"time\":1069056},{\"event\":\"focus\",\"trial\":233,\"time\":1073936},{\"event\":\"blur\",\"trial\":257,\"time\":1155008},{\"event\":\"focus\",\"trial\":257,\"time\":1195359}]"}]