[{"view_history":"[{\"page_index\":0,\"viewing_time\":59289.80500000762},{\"page_index\":1,\"viewing_time\":1796.1249999934807},{\"page_index\":2,\"viewing_time\":1268.9600000157952},{\"page_index\":3,\"viewing_time\":1694.3500000052154},{\"page_index\":4,\"viewing_time\":1344.0100000007078},{\"page_index\":3,\"viewing_time\":1226.8549999571405},{\"page_index\":4,\"viewing_time\":1279.1200000210665},{\"page_index\":5,\"viewing_time\":1337.24500000244}]","rt":69241.06999998912,"trial_type":"pit-instructions","trial_index":0,"time_elapsed":69450,"internal_node_id":"0.0-0.0-0.0","task_version":"battery-v0.1"},{"rune":"","hex":"#FFFFF080","correct":32,"choice":32,"rt":1205.8149999938905,"accuracy":1,"outcome":"+10","keys":[2705.969999951776,3594.9299999629147],"total_keys":2,"block":0,"trial_type":"pit-trial","trial_index":1,"time_elapsed":73382,"internal_node_id":"0.0-0.0-1.0-0.0","task_version":"battery-v0.1"},{"rune":"","hex":"#FFFFF080","correct":32,"choice":32,"rt":852.8199999709614,"accuracy":1,"outcome":"+10","keys":[2352.729999984149],"total_keys":1,"block":0,"trial_type":"pit-trial","trial_index":2,"time_elapsed":76957,"internal_node_id":"0.0-0.0-1.0-0.1","task_version":"battery-v0.1"},{"rune":"","hex":"#FFFFF080","correct":32,"choice":32,"rt":862.3399999924004,"accuracy":1,"outcome":"+10","keys":[255.9950000140816,2362.4849999905564,3194.484999985434],"total_keys":3,"block":0,"trial_type":"pit-trial","trial_index":3,"time_elapsed":80561,"internal_node_id":"0.0-0.0-1.0-0.2","task_version":"battery-v0.1"},{"rune":"","hex":"#FFFFF080","correct":32,"choice":32,"rt":645.539999997709,"accuracy":1,"outcome":"+10","keys":[2145.840000011958,2877.5000000023283],"total_keys":2,"block":0,"trial_type":"pit-trial","trial_index":4,"time_elapsed":83931,"internal_node_id":"0.0-0.0-1.0-0.3","task_version":"battery-v0.1"},{"view_history":"[{\"page_index\":0,\"viewing_time\":2553.264999995008}]","rt":2554.4300000183284,"trial_type":"pit-instructions","trial_index":5,"time_elapsed":86504,"internal_node_id":"0.0-0.0-2.0","task_version":"battery-v0.1"},{"rune":"","hex":"#FFFFF080","correct":-1,"choice":32,"rt":575.0800000387244,"accuracy":0,"outcome":"+0","keys":[2074.5699999970384],"total_keys":1,"block":0,"trial_type":"pit-trial","trial_index":6,"time_elapsed":89814,"internal_node_id":"0.0-0.0-3.0-0.0","task_version":"battery-v0.1"},{"rune":"","hex":"#FFFFF080","correct":-1,"choice":32,"rt":875.5249999812804,"accuracy":0,"outcome":"+0","keys":[43.98000001674518,2375.6799999973737,3076.7399999895133],"total_keys":3,"block":0,"trial_type":"pit-trial","trial_index":7,"time_elapsed":93414,"internal_node_id":"0.0-0.0-3.0-0.1","task_version":"battery-v0.1"},{"rune":"","hex":"#FFFFF080","correct":-1,"choice":-1,"rt":-1,"accuracy":1,"outcome":"+10","keys":[],"total_keys":0,"block":0,"trial_type":"pit-trial","trial_index":8,"time_elapsed":97434,"internal_node_id":"0.0-0.0-3.0-0.2","task_version":"battery-v0.1"},{"rune":"","hex":"#FFFFF080","correct":-1,"choice":-1,"rt":-1,"accuracy":1,"outcome":"+10","keys":[],"total_keys":0,"block":0,"trial_type":"pit-trial","trial_index":9,"time_elapsed":101469,"internal_node_id":"0.0-0.0-3.0-0.3","task_version":"battery-v0.1"},{"responses":["Press SPACE","Do nothing"],"num_errors":0,"rt":6131.630000018049,"trial_type":"pit-comprehension","trial_index":10,"time_elapsed":107632,"internal_node_id":"0.0-0.0-4.0","task_version":"battery-v0.1"},{"view_history":"[{\"page_index\":0,\"viewing_time\":3475.8249999722466},{\"page_index\":1,\"viewing_time\":2706.55500004068},{\"page_index\":2,\"viewing_time\":1496.2349999696016},{\"page_index\":3,\"viewing_time\":1672.2700000391342},{\"page_index\":4,\"viewing_time\":2319.474999967497},{\"page_index\":5,\"viewing_time\":2182.150000007823},{\"page_index\":6,\"viewing_time\":4743.814999994356},{\"page_index\":7,\"viewing_time\":2343.3899999945424},{\"page_index\":8,\"viewing_time\":1923.2550000306219},{\"page_index\":7,\"viewing_time\":3798.49999997532},{\"page_index\":8,\"viewing_time\":2036.3300000317395},{\"page_index\":9,\"viewing_time\":1857.3349999496713},{\"page_index\":10,\"viewing_time\":1634.215000027325}]","rt":32194.264999998268,"trial_type":"pit-instructions","trial_index":11,"time_elapsed":139865,"internal_node_id":"0.0-1.0-0.0","task_version":"battery-v0.1"},{"responses":["+10","-1","True","True"],"num_errors":0,"rt":8443.234999955166,"trial_type":"pit-comprehension","trial_index":12,"time_elapsed":148338,"internal_node_id":"0.0-1.0-1.0","task_version":"battery-v0.1"},{"view_history":"[{\"page_index\":0,\"viewing_time\":1474.2299999925308},{\"page_index\":1,\"viewing_time\":2491.7249999707565}]","rt":3968.094999960158,"trial_type":"pit-instructions","trial_index":13,"time_elapsed":152335,"internal_node_id":"0.0-2.0","task_version":"battery-v0.1"},{"rune":"N","hex":"#3366ff99","correct":-1,"choice":32,"rt":489.1250000218861,"accuracy":0,"outcome":"+1","keys":[1989.5499999984168],"total_keys":1,"block":1,"trial":1,"robot":2,"valence":"win","action":"no-go","sham":0,"trial_type":"pit-trial","trial_index":14,"time_elapsed":155564,"internal_node_id":"0.0-3.0","task_version":"battery-v0.1"},{"rune":"J","hex":"#3366ff99","correct":32,"choice":32,"rt":1052.6149999932386,"accuracy":1,"outcome":"+10","keys":[2552.6800000225194],"total_keys":1,"block":1,"trial":2,"robot":1,"valence":"win","action":"go","sham":0,"trial_type":"pit-trial","trial_index":15,"time_elapsed":159346,"internal_node_id":"0.0-4.0","task_version":"battery-v0.1"},{"rune":"V","hex":"#f73b6a7A","correct":-1,"choice":-1,"rt":-1,"accuracy":1,"outcome":"-1","keys":[],"total_keys":0,"block":1,"trial":3,"robot":4,"valence":"lose","action":"no-go","sham":0,"trial_type":"pit-trial","trial_index":16,"time_elapsed":163368,"internal_node_id":"0.0-5.0","task_version":"battery-v0.1"},{"rune":"S","hex":"#f73b6a7A","correct":-1,"choice":32,"rt":747.4050000309944,"accuracy":0,"outcome":"-10","keys":[2247.5500000291504],"total_keys":1,"block":1,"trial":4,"robot":4,"valence":"lose","action":"no-go","sham":0,"trial_type":"pit-trial","trial_index":17,"time_elapsed":166836,"internal_node_id":"0.0-6.0","task_version":"battery-v0.1"},{"rune":"V","hex":"#f73b6a7A","correct":-1,"choice":-1,"rt":-1,"accuracy":1,"outcome":"-1","keys":[],"total_keys":0,"block":1,"trial":5,"robot":4,"valence":"lose","action":"no-go","sham":0,"trial_type":"pit-trial","trial_index":18,"time_elapsed":170859,"internal_node_id":"0.0-7.0","task_version":"battery-v0.1"},{"rune":"N","hex":"#3366ff99","correct":-1,"choice":32,"rt":40.594999969471246,"accuracy":0,"outcome":"+1","keys":[1541.01000004448],"total_keys":1,"block":1,"trial":6,"robot":2,"valence":"win","action":"no-go","sham":0,"trial_type":"pit-trial","trial_index":19,"time_elapsed":173625,"internal_node_id":"0.0-8.0","task_version":"battery-v0.1"},{"rune":"S","hex":"#f73b6a7A","correct":-1,"choice":-1,"rt":-1,"accuracy":1,"outcome":"-1","keys":[],"total_keys":0,"block":1,"trial":7,"robot":4,"valence":"lose","action":"no-go","sham":0,"trial_type":"pit-trial","trial_index":20,"time_elapsed":177652,"internal_node_id":"0.0-9.0","task_version":"battery-v0.1"},{"rune":"J","hex":"#3366ff99","correct":32,"choice":32,"rt":527.8700000490062,"accuracy":1,"outcome":"+10","keys":[2029.3850000016391],"total_keys":1,"block":1,"trial":8,"robot":1,"valence":"win","action":"go","sham":0,"trial_type":"pit-trial","trial_index":21,"time_elapsed":180913,"internal_node_id":"0.0-10.0","task_version":"battery-v0.1"},{"rune":"N","hex":"#3366ff99","correct":-1,"choice":32,"rt":537.2349999961443,"accuracy":0,"outcome":"+1","keys":[2037.4900000169873],"total_keys":1,"block":1,"trial":9,"robot":2,"valence":"win","action":"no-go","sham":0,"trial_type":"pit-trial","trial_index":22,"time_elapsed":184174,"internal_node_id":"0.0-11.0","task_version":"battery-v0.1"},{"rune":"J","hex":"#3366ff99","correct":32,"choice":32,"rt":396.2850000243634,"accuracy":1,"outcome":"+10","keys":[1896.6650000074878],"total_keys":1,"block":1,"trial":10,"robot":1,"valence":"win","action":"go","sham":0,"trial_type":"pit-trial","trial_index":23,"time_elapsed":187290,"internal_node_id":"0.0-12.0","task_version":"battery-v0.1"},{"rune":"S","hex":"#f73b6a7A","correct":-1,"choice":-1,"rt":-1,"accuracy":1,"outcome":"-1","keys":[],"total_keys":0,"block":1,"trial":11,"robot":4,"valence":"lose","action":"no-go","sham":0,"trial_type":"pit-trial","trial_index":24,"time_elapsed":191316,"internal_node_id":"0.0-13.0","task_version":"battery-v0.1"},{"rune":"V","hex":"#f73b6a7A","correct":-1,"choice":-1,"rt":-1,"accuracy":1,"outcome":"-1","keys":[],"total_keys":0,"block":1,"trial":12,"robot":4,"valence":"lose","action":"no-go","sham":0,"trial_type":"pit-trial","trial_index":25,"time_elapsed":195351,"internal_node_id":"0.0-14.0","task_version":"battery-v0.1"},{"rune":"S","hex":"#f73b6a7A","correct":-1,"choice":-1,"rt":-1,"accuracy":1,"outcome":"-1","keys":[],"total_keys":0,"block":1,"trial":13,"robot":4,"valence":"lose","action":"no-go","sham":0,"trial_type":"pit-trial","trial_index":26,"time_elapsed":199384,"internal_node_id":"0.0-15.0","task_version":"battery-v0.1"},{"rune":"N","hex":"#3366ff99","correct":-1,"choice":32,"rt":367.885000014212,"accuracy":0,"outcome":"+1","keys":[1868.2649999973364],"total_keys":1,"block":1,"trial":14,"robot":2,"valence":"win","action":"no-go","sham":0,"trial_type":"pit-trial","trial_index":27,"time_elapsed":202480,"internal_node_id":"0.0-16.0","task_version":"battery-v0.1"},{"rune":"J","hex":"#3366ff99","correct":32,"choice":32,"rt":595.9199999924749,"accuracy":1,"outcome":"+10","keys":[2095.9750000038184],"total_keys":1,"block":1,"trial":15,"robot":1,"valence":"win","action":"go","sham":0,"trial_type":"pit-trial","trial_index":28,"time_elapsed":205803,"internal_node_id":"0.0-17.0","task_version":"battery-v0.1"},{"rune":"V","hex":"#f73b6a7A","correct":-1,"choice":-1,"rt":-1,"accuracy":1,"outcome":"-1","keys":[],"total_keys":0,"block":1,"trial":16,"robot":4,"valence":"lose","action":"no-go","sham":0,"trial_type":"pit-trial","trial_index":29,"time_elapsed":209830,"internal_node_id":"0.0-18.0","task_version":"battery-v0.1"},{"rune":"V","hex":"#f73b6a7A","correct":-1,"choice":-1,"rt":-1,"accuracy":1,"outcome":"-1","keys":[],"total_keys":0,"block":1,"trial":17,"robot":4,"valence":"lose","action":"no-go","sham":0,"trial_type":"pit-trial","trial_index":30,"time_elapsed":213856,"internal_node_id":"0.0-19.0","task_version":"battery-v0.1"},{"rune":"J","hex":"#3366ff99","correct":32,"choice":32,"rt":325.51500003319234,"accuracy":1,"outcome":"+10","keys":[1825.5900000222027],"total_keys":1,"block":1,"trial":18,"robot":1,"valence":"win","action":"go","sham":0,"trial_type":"pit-trial","trial_index":31,"time_elapsed":216910,"internal_node_id":"0.0-20.0","task_version":"battery-v0.1"},{"rune":"S","hex":"#f73b6a7A","correct":-1,"choice":-1,"rt":-1,"accuracy":1,"outcome":"-1","keys":[],"total_keys":0,"block":1,"trial":19,"robot":4,"valence":"lose","action":"no-go","sham":0,"trial_type":"pit-trial","trial_index":32,"time_elapsed":220933,"internal_node_id":"0.0-21.0","task_version":"battery-v0.1"},{"rune":"N","hex":"#3366ff99","correct":-1,"choice":32,"rt":502.4200000334531,"accuracy":0,"outcome":"+1","keys":[2002.4799999664538],"total_keys":1,"block":1,"trial":20,"robot":2,"valence":"win","action":"no-go","sham":0,"trial_type":"pit-trial","trial_index":33,"time_elapsed":224158,"internal_node_id":"0.0-22.0","task_version":"battery-v0.1"},{"rune":"N","hex":"#3366ff99","correct":-1,"choice":32,"rt":370.4200000502169,"accuracy":0,"outcome":"+10","keys":[1871.0950000095181],"total_keys":1,"block":1,"trial":21,"robot":2,"valence":"win","action":"no-go","sham":1,"trial_type":"pit-trial","trial_index":34,"time_elapsed":227253,"internal_node_id":"0.0-23.0","task_version":"battery-v0.1"},{"rune":"J","hex":"#3366ff99","correct":32,"choice":32,"rt":384.1400000383146,"accuracy":1,"outcome":"+10","keys":[1884.6299999859184],"total_keys":1,"block":1,"trial":22,"robot":1,"valence":"win","action":"go","sham":0,"trial_type":"pit-trial","trial_index":35,"time_elapsed":230363,"internal_node_id":"0.0-24.0","task_version":"battery-v0.1"},{"rune":"S","hex":"#f73b6a7A","correct":-1,"choice":-1,"rt":-1,"accuracy":1,"outcome":"-10","keys":[],"total_keys":0,"block":1,"trial":23,"robot":4,"valence":"lose","action":"no-go","sham":1,"trial_type":"pit-trial","trial_index":36,"time_elapsed":234389,"internal_node_id":"0.0-25.0","task_version":"battery-v0.1"},{"rune":"V","hex":"#f73b6a7A","correct":-1,"choice":-1,"rt":-1,"accuracy":1,"outcome":"-1","keys":[],"total_keys":0,"block":1,"trial":24,"robot":4,"valence":"lose","action":"no-go","sham":0,"trial_type":"pit-trial","trial_index":37,"time_elapsed":238417,"internal_node_id":"0.0-26.0","task_version":"battery-v0.1"},{"rune":"N","hex":"#3366ff99","correct":-1,"choice":32,"rt":534.3250000150874,"accuracy":0,"outcome":"+1","keys":[2034.6549999667332],"total_keys":1,"block":1,"trial":25,"robot":2,"valence":"win","action":"no-go","sham":0,"trial_type":"pit-trial","trial_index":38,"time_elapsed":241676,"internal_node_id":"0.0-27.0","task_version":"battery-v0.1"},{"rune":"V","hex":"#f73b6a7A","correct":-1,"choice":-1,"rt":-1,"accuracy":1,"outcome":"-10","keys":[3588.705000001937],"total_keys":1,"block":1,"trial":26,"robot":4,"valence":"lose","action":"no-go","sham":1,"trial_type":"pit-trial","trial_index":39,"time_elapsed":245702,"internal_node_id":"0.0-28.0","task_version":"battery-v0.1"},{"rune":"S","hex":"#f73b6a7A","correct":-1,"choice":32,"rt":425.6450000102632,"accuracy":0,"outcome":"-10","keys":[1926.0149999754503],"total_keys":1,"block":1,"trial":27,"robot":4,"valence":"lose","action":"no-go","sham":0,"trial_type":"pit-trial","trial_index":40,"time_elapsed":248854,"internal_node_id":"0.0-29.0","task_version":"battery-v0.1"},{"rune":"J","hex":"#3366ff99","correct":32,"choice":32,"rt":371.8700000317767,"accuracy":1,"outcome":"+10","keys":[1871.9899999559857],"total_keys":1,"block":1,"trial":28,"robot":1,"valence":"win","action":"go","sham":0,"trial_type":"pit-trial","trial_index":41,"time_elapsed":251952,"internal_node_id":"0.0-30.0","task_version":"battery-v0.1"},{"rune":"J","hex":"#3366ff99","correct":32,"choice":32,"rt":381.3450000016019,"accuracy":1,"outcome":"+10","keys":[1883.7700000149198],"total_keys":1,"block":1,"trial":29,"robot":1,"valence":"win","action":"go","sham":0,"trial_type":"pit-trial","trial_index":42,"time_elapsed":255062,"internal_node_id":"0.0-31.0","task_version":"battery-v0.1"},{"rune":"N","hex":"#3366ff99","correct":-1,"choice":32,"rt":868.6199999647215,"accuracy":0,"outcome":"+10","keys":[2370.259999996051,2398.769999970682],"total_keys":2,"block":1,"trial":30,"robot":2,"valence":"win","action":"no-go","sham":1,"trial_type":"pit-trial","trial_index":43,"time_elapsed":258659,"internal_node_id":"0.0-32.0","task_version":"battery-v0.1"},{"rune":"V","hex":"#f73b6a7A","correct":-1,"choice":32,"rt":954.3000000412576,"accuracy":0,"outcome":"-1","keys":[2454.444999981206],"total_keys":1,"block":1,"trial":31,"robot":4,"valence":"lose","action":"no-go","sham":1,"trial_type":"pit-trial","trial_index":44,"time_elapsed":262337,"internal_node_id":"0.0-33.0","task_version":"battery-v0.1"},{"rune":"S","hex":"#f73b6a7A","correct":-1,"choice":32,"rt":461.745000036899,"accuracy":0,"outcome":"-1","keys":[1964.3899999791756],"total_keys":1,"block":1,"trial":32,"robot":4,"valence":"lose","action":"no-go","sham":1,"trial_type":"pit-trial","trial_index":45,"time_elapsed":265522,"internal_node_id":"0.0-34.0","task_version":"battery-v0.1"},{"rune":"W","hex":"#f73b6a7A","correct":32,"choice":32,"rt":714.23500002129,"accuracy":1,"outcome":"-1","keys":[2215.295000001788],"total_keys":1,"block":1,"trial":33,"robot":3,"valence":"lose","action":"go","sham":0,"trial_type":"pit-trial","trial_index":46,"time_elapsed":268965,"internal_node_id":"0.0-35.0","task_version":"battery-v0.1"},{"rune":"J","hex":"#3366ff99","correct":32,"choice":32,"rt":472.7349999593571,"accuracy":1,"outcome":"+10","keys":[1972.7699999930337],"total_keys":1,"block":1,"trial":34,"robot":1,"valence":"win","action":"go","sham":0,"trial_type":"pit-trial","trial_index":47,"time_elapsed":272169,"internal_node_id":"0.0-36.0","task_version":"battery-v0.1"},{"rune":"V","hex":"#f73b6a7A","correct":-1,"choice":32,"rt":686.1299999873154,"accuracy":0,"outcome":"-10","keys":[2186.630000011064],"total_keys":1,"block":1,"trial":35,"robot":4,"valence":"lose","action":"no-go","sham":0,"trial_type":"pit-trial","trial_index":48,"time_elapsed":275586,"internal_node_id":"0.0-37.0","task_version":"battery-v0.1"},{"rune":"N","hex":"#3366ff99","correct":-1,"choice":32,"rt":373.554999998305,"accuracy":0,"outcome":"+1","keys":[1874.5899999630637],"total_keys":1,"block":1,"trial":36,"robot":2,"valence":"win","action":"no-go","sham":0,"trial_type":"pit-trial","trial_index":49,"time_elapsed":278683,"internal_node_id":"0.0-38.0","task_version":"battery-v0.1"},{"rune":"W","hex":"#f73b6a7A","correct":32,"choice":32,"rt":587.5000000232831,"accuracy":1,"outcome":"-1","keys":[2091.2999999709427],"total_keys":1,"block":1,"trial":37,"robot":3,"valence":"lose","action":"go","sham":0,"trial_type":"pit-trial","trial_index":50,"time_elapsed":281995,"internal_node_id":"0.0-39.0","task_version":"battery-v0.1"},{"rune":"J","hex":"#3366ff99","correct":32,"choice":32,"rt":577.0699999993667,"accuracy":1,"outcome":"+1","keys":[2079.1299999691546],"total_keys":1,"block":1,"trial":38,"robot":1,"valence":"win","action":"go","sham":1,"trial_type":"pit-trial","trial_index":51,"time_elapsed":285301,"internal_node_id":"0.0-40.0","task_version":"battery-v0.1"},{"rune":"V","hex":"#f73b6a7A","correct":-1,"choice":32,"rt":699.2000000318512,"accuracy":0,"outcome":"-10","keys":[2200.1649999874644],"total_keys":1,"block":1,"trial":39,"robot":4,"valence":"lose","action":"no-go","sham":0,"trial_type":"pit-trial","trial_index":52,"time_elapsed":288727,"internal_node_id":"0.0-41.0","task_version":"battery-v0.1"},{"rune":"N","hex":"#3366ff99","correct":-1,"choice":32,"rt":418.58500003581867,"accuracy":0,"outcome":"+1","keys":[1918.6599999666214],"total_keys":1,"block":1,"trial":40,"robot":2,"valence":"win","action":"no-go","sham":0,"trial_type":"pit-trial","trial_index":53,"time_elapsed":291872,"internal_node_id":"0.0-42.0","task_version":"battery-v0.1"},{"rune":"I","hex":"#3366ff99","correct":-1,"choice":32,"rt":406.3200000091456,"accuracy":0,"outcome":"+1","keys":[1906.284999975469],"total_keys":1,"block":1,"trial":41,"robot":2,"valence":"win","action":"no-go","sham":0,"trial_type":"pit-trial","trial_index":54,"time_elapsed":295011,"internal_node_id":"0.0-43.0","task_version":"battery-v0.1"},{"rune":"P","hex":"#3366ff99","correct":32,"choice":-1,"rt":-1,"accuracy":0,"outcome":"+1","keys":[],"total_keys":0,"block":1,"trial":42,"robot":1,"valence":"win","action":"go","sham":0,"trial_type":"pit-trial","trial_index":55,"time_elapsed":299039,"internal_node_id":"0.0-44.0","task_version":"battery-v0.1"},{"rune":"V","hex":"#f73b6a7A","correct":-1,"choice":32,"rt":790.694999974221,"accuracy":0,"outcome":"-10","keys":[2292.6600000355393],"total_keys":1,"block":1,"trial":43,"robot":4,"valence":"lose","action":"no-go","sham":0,"trial_type":"pit-trial","trial_index":56,"time_elapsed":302566,"internal_node_id":"0.0-45.0","task_version":"battery-v0.1"},{"rune":"W","hex":"#f73b6a7A","correct":32,"choice":-1,"rt":-1,"accuracy":0,"outcome":"-10","keys":[],"total_keys":0,"block":1,"trial":44,"robot":3,"valence":"lose","action":"go","sham":0,"trial_type":"pit-trial","trial_index":57,"time_elapsed":306592,"internal_node_id":"0.0-46.0","task_version":"battery-v0.1"},{"rune":"W","hex":"#f73b6a7A","correct":32,"choice":32,"rt":827.1950000198558,"accuracy":1,"outcome":"-10","keys":[2327.935000008438],"total_keys":1,"block":1,"trial":45,"robot":3,"valence":"lose","action":"go","sham":1,"trial_type":"pit-trial","trial_index":58,"time_elapsed":310142,"internal_node_id":"0.0-47.0","task_version":"battery-v0.1"},{"rune":"P","hex":"#3366ff99","correct":32,"choice":32,"rt":587.0200000354089,"accuracy":1,"outcome":"+10","keys":[2087.684999976773],"total_keys":1,"block":1,"trial":46,"robot":1,"valence":"win","action":"go","sham":0,"trial_type":"pit-trial","trial_index":59,"time_elapsed":313454,"internal_node_id":"0.0-48.0","task_version":"battery-v0.1"},{"rune":"I","hex":"#3366ff99","correct":-1,"choice":-1,"rt":-1,"accuracy":1,"outcome":"+10","keys":[],"total_keys":0,"block":1,"trial":47,"robot":2,"valence":"win","action":"no-go","sham":0,"trial_type":"pit-trial","trial_index":60,"time_elapsed":317478,"internal_node_id":"0.0-49.0","task_version":"battery-v0.1"},{"rune":"V","hex":"#f73b6a7A","correct":-1,"choice":32,"rt":714.3849999993108,"accuracy":0,"outcome":"-10","keys":[2216.6549999965355],"total_keys":1,"block":1,"trial":48,"robot":4,"valence":"lose","action":"no-go","sham":0,"trial_type":"pit-trial","trial_index":61,"time_elapsed":320919,"internal_node_id":"0.0-50.0","task_version":"battery-v0.1"},{"rune":"P","hex":"#3366ff99","correct":32,"choice":32,"rt":589.1299999784678,"accuracy":1,"outcome":"+1","keys":[2090.830000001006],"total_keys":1,"block":1,"trial":49,"robot":1,"valence":"win","action":"go","sham":1,"trial_type":"pit-trial","trial_index":62,"time_elapsed":324233,"internal_node_id":"0.0-51.0","task_version":"battery-v0.1"},{"rune":"W","hex":"#f73b6a7A","correct":32,"choice":32,"rt":794.9149999767542,"accuracy":1,"outcome":"-1","keys":[2295.0999999884516],"total_keys":1,"block":1,"trial":50,"robot":3,"valence":"lose","action":"go","sham":0,"trial_type":"pit-trial","trial_index":63,"time_elapsed":327767,"internal_node_id":"0.0-52.0","task_version":"battery-v0.1"},{"rune":"G","hex":"#f73b6a7A","correct":-1,"choice":32,"rt":1169.400000013411,"accuracy":0,"outcome":"-10","keys":[2678.169999970123],"total_keys":1,"block":1,"trial":51,"robot":4,"valence":"lose","action":"no-go","sham":0,"trial_type":"pit-trial","trial_index":64,"time_elapsed":331679,"internal_node_id":"0.0-53.0","task_version":"battery-v0.1"},{"rune":"I","hex":"#3366ff99","correct":-1,"choice":-1,"rt":-1,"accuracy":1,"outcome":"+10","keys":[],"total_keys":0,"block":1,"trial":52,"robot":2,"valence":"win","action":"no-go","sham":0,"trial_type":"pit-trial","trial_index":65,"time_elapsed":335713,"internal_node_id":"0.0-54.0","task_version":"battery-v0.1"},{"rune":"P","hex":"#3366ff99","correct":32,"choice":-1,"rt":-1,"accuracy":0,"outcome":"+1","keys":[],"total_keys":0,"block":1,"trial":53,"robot":1,"valence":"win","action":"go","sham":0,"trial_type":"pit-trial","trial_index":66,"time_elapsed":339736,"internal_node_id":"0.0-55.0","task_version":"battery-v0.1"},{"rune":"G","hex":"#f73b6a7A","correct":-1,"choice":32,"rt":926.2250000028871,"accuracy":0,"outcome":"-10","keys":[2427.490000030957],"total_keys":1,"block":1,"trial":54,"robot":4,"valence":"lose","action":"no-go","sham":0,"trial_type":"pit-trial","trial_index":67,"time_elapsed":343398,"internal_node_id":"0.0-56.0","task_version":"battery-v0.1"},{"rune":"W","hex":"#f73b6a7A","correct":32,"choice":-1,"rt":-1,"accuracy":0,"outcome":"-10","keys":[],"total_keys":0,"block":1,"trial":55,"robot":3,"valence":"lose","action":"go","sham":0,"trial_type":"pit-trial","trial_index":68,"time_elapsed":347419,"internal_node_id":"0.0-57.0","task_version":"battery-v0.1"},{"rune":"I","hex":"#3366ff99","correct":-1,"choice":32,"rt":529.5649999752641,"accuracy":0,"outcome":"+1","keys":[2029.8000000184402],"total_keys":1,"block":1,"trial":56,"robot":2,"valence":"win","action":"no-go","sham":0,"trial_type":"pit-trial","trial_index":69,"time_elapsed":350673,"internal_node_id":"0.0-58.0","task_version":"battery-v0.1"},{"rune":"P","hex":"#3366ff99","correct":32,"choice":-1,"rt":-1,"accuracy":0,"outcome":"+1","keys":[],"total_keys":0,"block":1,"trial":57,"robot":1,"valence":"win","action":"go","sham":0,"trial_type":"pit-trial","trial_index":70,"time_elapsed":354698,"internal_node_id":"0.0-59.0","task_version":"battery-v0.1"},{"rune":"I","hex":"#3366ff99","correct":-1,"choice":-1,"rt":-1,"accuracy":1,"outcome":"+10","keys":[],"total_keys":0,"block":1,"trial":58,"robot":2,"valence":"win","action":"no-go","sham":0,"trial_type":"pit-trial","trial_index":71,"time_elapsed":358723,"internal_node_id":"0.0-60.0","task_version":"battery-v0.1"},{"rune":"G","hex":"#f73b6a7A","correct":-1,"choice":-1,"rt":-1,"accuracy":1,"outcome":"-10","keys":[],"total_keys":0,"block":1,"trial":59,"robot":4,"valence":"lose","action":"no-go","sham":1,"trial_type":"pit-trial","trial_index":72,"time_elapsed":362750,"internal_node_id":"0.0-61.0","task_version":"battery-v0.1"},{"rune":"W","hex":"#f73b6a7A","correct":32,"choice":-1,"rt":-1,"accuracy":0,"outcome":"-1","keys":[],"total_keys":0,"block":1,"trial":60,"robot":3,"valence":"lose","action":"go","sham":1,"trial_type":"pit-trial","trial_index":73,"time_elapsed":366776,"internal_node_id":"0.0-62.0","task_version":"battery-v0.1"},{"rune":"W","hex":"#f73b6a7A","correct":32,"choice":-1,"rt":-1,"accuracy":0,"outcome":"-10","keys":[],"total_keys":0,"block":1,"trial":61,"robot":3,"valence":"lose","action":"go","sham":0,"trial_type":"pit-trial","trial_index":74,"time_elapsed":370801,"internal_node_id":"0.0-63.0","task_version":"battery-v0.1"},{"rune":"I","hex":"#3366ff99","correct":-1,"choice":32,"rt":738.3699999772944,"accuracy":0,"outcome":"+1","keys":[2238.4650000021793],"total_keys":1,"block":1,"trial":62,"robot":2,"valence":"win","action":"no-go","sham":0,"trial_type":"pit-trial","trial_index":75,"time_elapsed":374265,"internal_node_id":"0.0-64.0","task_version":"battery-v0.1"},{"rune":"P","hex":"#3366ff99","correct":32,"choice":32,"rt":1235.294999962207,"accuracy":1,"outcome":"+10","keys":[2735.660000005737],"total_keys":1,"block":1,"trial":63,"robot":1,"valence":"win","action":"go","sham":0,"trial_type":"pit-trial","trial_index":76,"time_elapsed":378226,"internal_node_id":"0.0-65.0","task_version":"battery-v0.1"},{"rune":"G","hex":"#f73b6a7A","correct":-1,"choice":-1,"rt":-1,"accuracy":1,"outcome":"-10","keys":[],"total_keys":0,"block":1,"trial":64,"robot":4,"valence":"lose","action":"no-go","sham":1,"trial_type":"pit-trial","trial_index":77,"time_elapsed":382262,"internal_node_id":"0.0-66.0","task_version":"battery-v0.1"},{"rune":"P","hex":"#3366ff99","correct":32,"choice":32,"rt":499.6849999879487,"accuracy":1,"outcome":"+1","keys":[2002.1950000082143],"total_keys":1,"block":1,"trial":65,"robot":1,"valence":"win","action":"go","sham":1,"trial_type":"pit-trial","trial_index":78,"time_elapsed":385486,"internal_node_id":"0.0-67.0","task_version":"battery-v0.1"},{"rune":"G","hex":"#f73b6a7A","correct":-1,"choice":-1,"rt":-1,"accuracy":1,"outcome":"-1","keys":[],"total_keys":0,"block":1,"trial":66,"robot":4,"valence":"lose","action":"no-go","sham":0,"trial_type":"pit-trial","trial_index":79,"time_elapsed":389507,"internal_node_id":"0.0-68.0","task_version":"battery-v0.1"},{"rune":"I","hex":"#3366ff99","correct":-1,"choice":32,"rt":832.0850000018254,"accuracy":0,"outcome":"+1","keys":[2333.265000022948],"total_keys":1,"block":1,"trial":67,"robot":2,"valence":"win","action":"no-go","sham":0,"trial_type":"pit-trial","trial_index":80,"time_elapsed":393067,"internal_node_id":"0.0-69.0","task_version":"battery-v0.1"},{"rune":"W","hex":"#f73b6a7A","correct":32,"choice":-1,"rt":-1,"accuracy":0,"outcome":"-10","keys":[2917.669999995269],"total_keys":1,"block":1,"trial":68,"robot":3,"valence":"lose","action":"go","sham":0,"trial_type":"pit-trial","trial_index":81,"time_elapsed":397091,"internal_node_id":"0.0-70.0","task_version":"battery-v0.1"},{"rune":"P","hex":"#3366ff99","correct":32,"choice":32,"rt":1093.2100000209175,"accuracy":1,"outcome":"+10","keys":[2593.4850000194274],"total_keys":1,"block":1,"trial":69,"robot":1,"valence":"win","action":"go","sham":0,"trial_type":"pit-trial","trial_index":82,"time_elapsed":400910,"internal_node_id":"0.0-71.0","task_version":"battery-v0.1"},{"rune":"G","hex":"#f73b6a7A","correct":-1,"choice":-1,"rt":-1,"accuracy":1,"outcome":"-1","keys":[3584.755000018049],"total_keys":1,"block":1,"trial":70,"robot":4,"valence":"lose","action":"no-go","sham":0,"trial_type":"pit-trial","trial_index":83,"time_elapsed":404937,"internal_node_id":"0.0-72.0","task_version":"battery-v0.1"},{"rune":"I","hex":"#3366ff99","correct":-1,"choice":32,"rt":653.8300000247546,"accuracy":0,"outcome":"+10","keys":[2154.5899999910034],"total_keys":1,"block":1,"trial":71,"robot":2,"valence":"win","action":"no-go","sham":1,"trial_type":"pit-trial","trial_index":84,"time_elapsed":408316,"internal_node_id":"0.0-73.0","task_version":"battery-v0.1"},{"rune":"W","hex":"#f73b6a7A","correct":32,"choice":-1,"rt":-1,"accuracy":0,"outcome":"-10","keys":[],"total_keys":0,"block":1,"trial":72,"robot":3,"valence":"lose","action":"go","sham":0,"trial_type":"pit-trial","trial_index":85,"time_elapsed":412346,"internal_node_id":"0.0-74.0","task_version":"battery-v0.1"},{"rune":"G","hex":"#f73b6a7A","correct":-1,"choice":-1,"rt":-1,"accuracy":1,"outcome":"-1","keys":[],"total_keys":0,"block":1,"trial":73,"robot":4,"valence":"lose","action":"no-go","sham":0,"trial_type":"pit-trial","trial_index":86,"time_elapsed":416372,"internal_node_id":"0.0-75.0","task_version":"battery-v0.1"},{"rune":"I","hex":"#3366ff99","correct":-1,"choice":32,"rt":966.6999999899417,"accuracy":0,"outcome":"+1","keys":[2467.590000014752],"total_keys":1,"block":1,"trial":74,"robot":2,"valence":"win","action":"no-go","sham":0,"trial_type":"pit-trial","trial_index":87,"time_elapsed":420064,"internal_node_id":"0.0-76.0","task_version":"battery-v0.1"},{"rune":"K","hex":"#f73b6a7A","correct":32,"choice":-1,"rt":-1,"accuracy":0,"outcome":"-10","keys":[],"total_keys":0,"block":1,"trial":75,"robot":3,"valence":"lose","action":"go","sham":0,"trial_type":"pit-trial","trial_index":88,"time_elapsed":424087,"internal_node_id":"0.0-77.0","task_version":"battery-v0.1"},{"rune":"X","hex":"#3366ff99","correct":32,"choice":-1,"rt":-1,"accuracy":0,"outcome":"+1","keys":[3100.8400000282563],"total_keys":1,"block":1,"trial":76,"robot":1,"valence":"win","action":"go","sham":0,"trial_type":"pit-trial","trial_index":89,"time_elapsed":428123,"internal_node_id":"0.0-78.0","task_version":"battery-v0.1"},{"rune":"G","hex":"#f73b6a7A","correct":-1,"choice":-1,"rt":-1,"accuracy":1,"outcome":"-1","keys":[],"total_keys":0,"block":1,"trial":77,"robot":4,"valence":"lose","action":"no-go","sham":0,"trial_type":"pit-trial","trial_index":90,"time_elapsed":432150,"internal_node_id":"0.0-79.0","task_version":"battery-v0.1"},{"rune":"I","hex":"#3366ff99","correct":-1,"choice":32,"rt":639.6999999997206,"accuracy":0,"outcome":"+1","keys":[2141.979999956675],"total_keys":1,"block":1,"trial":78,"robot":2,"valence":"win","action":"no-go","sham":0,"trial_type":"pit-trial","trial_index":91,"time_elapsed":435526,"internal_node_id":"0.0-80.0","task_version":"battery-v0.1"},{"rune":"X","hex":"#3366ff99","correct":32,"choice":32,"rt":1001.6000000177883,"accuracy":1,"outcome":"+10","keys":[2502.1149999811314],"total_keys":1,"block":1,"trial":79,"robot":1,"valence":"win","action":"go","sham":0,"trial_type":"pit-trial","trial_index":92,"time_elapsed":439253,"internal_node_id":"0.0-81.0","task_version":"battery-v0.1"},{"rune":"K","hex":"#f73b6a7A","correct":32,"choice":-1,"rt":-1,"accuracy":0,"outcome":"-10","keys":[],"total_keys":0,"block":1,"trial":80,"robot":3,"valence":"lose","action":"go","sham":0,"trial_type":"pit-trial","trial_index":93,"time_elapsed":443296,"internal_node_id":"0.0-82.0","task_version":"battery-v0.1"},{"rune":"K","hex":"#f73b6a7A","correct":32,"choice":-1,"rt":-1,"accuracy":0,"outcome":"-10","keys":[],"total_keys":0,"block":1,"trial":81,"robot":3,"valence":"lose","action":"go","sham":0,"trial_type":"pit-trial","trial_index":94,"time_elapsed":447318,"internal_node_id":"0.0-83.0","task_version":"battery-v0.1"},{"rune":"G","hex":"#f73b6a7A","correct":-1,"choice":-1,"rt":-1,"accuracy":1,"outcome":"-1","keys":[],"total_keys":0,"block":1,"trial":82,"robot":4,"valence":"lose","action":"no-go","sham":0,"trial_type":"pit-trial","trial_index":95,"time_elapsed":451343,"internal_node_id":"0.0-84.0","task_version":"battery-v0.1"},{"rune":"I","hex":"#3366ff99","correct":-1,"choice":-1,"rt":-1,"accuracy":1,"outcome":"+10","keys":[3322.1149999881163],"total_keys":1,"block":1,"trial":83,"robot":2,"valence":"win","action":"no-go","sham":0,"trial_type":"pit-trial","trial_index":96,"time_elapsed":455367,"internal_node_id":"0.0-85.0","task_version":"battery-v0.1"},{"rune":"X","hex":"#3366ff99","correct":32,"choice":32,"rt":1093.2499999762513,"accuracy":1,"outcome":"+10","keys":[2593.754999979865],"total_keys":1,"block":1,"trial":84,"robot":1,"valence":"win","action":"go","sham":0,"trial_type":"pit-trial","trial_index":97,"time_elapsed":459188,"internal_node_id":"0.0-86.0","task_version":"battery-v0.1"},{"rune":"I","hex":"#3366ff99","correct":-1,"choice":-1,"rt":-1,"accuracy":1,"outcome":"+10","keys":[3593.345000001136],"total_keys":1,"block":1,"trial":85,"robot":2,"valence":"win","action":"no-go","sham":0,"trial_type":"pit-trial","trial_index":98,"time_elapsed":463215,"internal_node_id":"0.0-87.0","task_version":"battery-v0.1"},{"rune":"X","hex":"#3366ff99","correct":32,"choice":32,"rt":767.4750000005588,"accuracy":1,"outcome":"+1","keys":[2267.5550000276417],"total_keys":1,"block":1,"trial":86,"robot":1,"valence":"win","action":"go","sham":1,"trial_type":"pit-trial","trial_index":99,"time_elapsed":466720,"internal_node_id":"0.0-88.0","task_version":"battery-v0.1"},{"rune":"K","hex":"#f73b6a7A","correct":32,"choice":-1,"rt":-1,"accuracy":0,"outcome":"-10","keys":[],"total_keys":0,"block":1,"trial":87,"robot":3,"valence":"lose","action":"go","sham":0,"trial_type":"pit-trial","trial_index":100,"time_elapsed":470751,"internal_node_id":"0.0-89.0","task_version":"battery-v0.1"},{"rune":"G","hex":"#f73b6a7A","correct":-1,"choice":-1,"rt":-1,"accuracy":1,"outcome":"-1","keys":[],"total_keys":0,"block":1,"trial":88,"robot":4,"valence":"lose","action":"no-go","sham":0,"trial_type":"pit-trial","trial_index":101,"time_elapsed":474792,"internal_node_id":"0.0-90.0","task_version":"battery-v0.1"},{"rune":"U","hex":"#f73b6a7A","correct":32,"choice":-1,"rt":-1,"accuracy":0,"outcome":"-1","keys":[],"total_keys":0,"block":1,"trial":89,"robot":3,"valence":"lose","action":"go","sham":1,"trial_type":"pit-trial","trial_index":102,"time_elapsed":478822,"internal_node_id":"0.0-91.0","task_version":"battery-v0.1"},{"rune":"K","hex":"#f73b6a7A","correct":32,"choice":-1,"rt":-1,"accuracy":0,"outcome":"-10","keys":[],"total_keys":0,"block":1,"trial":90,"robot":3,"valence":"lose","action":"go","sham":0,"trial_type":"pit-trial","trial_index":103,"time_elapsed":482854,"internal_node_id":"0.0-92.0","task_version":"battery-v0.1"},{"rune":"L","hex":"#3366ff99","correct":-1,"choice":32,"rt":304.2649999842979,"accuracy":0,"outcome":"+1","keys":[1805.4250000277534],"total_keys":1,"block":1,"trial":91,"robot":2,"valence":"win","action":"no-go","sham":0,"trial_type":"pit-trial","trial_index":104,"time_elapsed":485886,"internal_node_id":"0.0-93.0","task_version":"battery-v0.1"},{"rune":"X","hex":"#3366ff99","correct":32,"choice":32,"rt":778.214999998454,"accuracy":1,"outcome":"+10","keys":[2282.0650000358],"total_keys":1,"block":1,"trial":92,"robot":1,"valence":"win","action":"go","sham":0,"trial_type":"pit-trial","trial_index":105,"time_elapsed":489395,"internal_node_id":"0.0-94.0","task_version":"battery-v0.1"},{"rune":"U","hex":"#f73b6a7A","correct":32,"choice":-1,"rt":-1,"accuracy":0,"outcome":"-10","keys":[],"total_keys":0,"block":1,"trial":93,"robot":3,"valence":"lose","action":"go","sham":0,"trial_type":"pit-trial","trial_index":106,"time_elapsed":493426,"internal_node_id":"0.0-95.0","task_version":"battery-v0.1"},{"rune":"X","hex":"#3366ff99","correct":32,"choice":32,"rt":421.5250000124797,"accuracy":1,"outcome":"+1","keys":[1922.435000014957],"total_keys":1,"block":1,"trial":94,"robot":1,"valence":"win","action":"go","sham":1,"trial_type":"pit-trial","trial_index":107,"time_elapsed":496577,"internal_node_id":"0.0-96.0","task_version":"battery-v0.1"},{"rune":"L","hex":"#3366ff99","correct":-1,"choice":32,"rt":619.9699999997392,"accuracy":0,"outcome":"+1","keys":[2119.6099999942817],"total_keys":1,"block":1,"trial":95,"robot":2,"valence":"win","action":"no-go","sham":0,"trial_type":"pit-trial","trial_index":108,"time_elapsed":499923,"internal_node_id":"0.0-97.0","task_version":"battery-v0.1"},{"rune":"K","hex":"#f73b6a7A","correct":32,"choice":-1,"rt":-1,"accuracy":0,"outcome":"-10","keys":[],"total_keys":0,"block":1,"trial":96,"robot":3,"valence":"lose","action":"go","sham":0,"trial_type":"pit-trial","trial_index":109,"time_elapsed":503950,"internal_node_id":"0.0-98.0","task_version":"battery-v0.1"},{"rune":"U","hex":"#f73b6a7A","correct":32,"choice":-1,"rt":-1,"accuracy":0,"outcome":"-10","keys":[],"total_keys":0,"block":1,"trial":97,"robot":3,"valence":"lose","action":"go","sham":0,"trial_type":"pit-trial","trial_index":110,"time_elapsed":507973,"internal_node_id":"0.0-99.0","task_version":"battery-v0.1"},{"rune":"L","hex":"#3366ff99","correct":-1,"choice":32,"rt":1034.6199999912642,"accuracy":0,"outcome":"+1","keys":[2535.759999998845],"total_keys":1,"block":1,"trial":98,"robot":2,"valence":"win","action":"no-go","sham":0,"trial_type":"pit-trial","trial_index":111,"time_elapsed":511749,"internal_node_id":"0.0-100.0","task_version":"battery-v0.1"},{"rune":"X","hex":"#3366ff99","correct":32,"choice":32,"rt":1188.7699999497272,"accuracy":1,"outcome":"+10","keys":[2688.815000001341],"total_keys":1,"block":1,"trial":99,"robot":1,"valence":"win","action":"go","sham":0,"trial_type":"pit-trial","trial_index":112,"time_elapsed":515664,"internal_node_id":"0.0-101.0","task_version":"battery-v0.1"},{"rune":"K","hex":"#f73b6a7A","correct":32,"choice":-1,"rt":-1,"accuracy":0,"outcome":"-10","keys":[],"total_keys":0,"block":1,"trial":100,"robot":3,"valence":"lose","action":"go","sham":0,"trial_type":"pit-trial","trial_index":113,"time_elapsed":519691,"internal_node_id":"0.0-102.0","task_version":"battery-v0.1"},{"rune":"K","hex":"#f73b6a7A","correct":32,"choice":-1,"rt":-1,"accuracy":0,"outcome":"-10","keys":[],"total_keys":0,"block":1,"trial":101,"robot":3,"valence":"lose","action":"go","sham":0,"trial_type":"pit-trial","trial_index":114,"time_elapsed":523714,"internal_node_id":"0.0-103.0","task_version":"battery-v0.1"},{"rune":"L","hex":"#3366ff99","correct":-1,"choice":-1,"rt":-1,"accuracy":1,"outcome":"+10","keys":[],"total_keys":0,"block":1,"trial":102,"robot":2,"valence":"win","action":"no-go","sham":0,"trial_type":"pit-trial","trial_index":115,"time_elapsed":527754,"internal_node_id":"0.0-104.0","task_version":"battery-v0.1"},{"rune":"X","hex":"#3366ff99","correct":32,"choice":32,"rt":689.429999969434,"accuracy":1,"outcome":"+10","keys":[2189.7100000060163],"total_keys":1,"block":1,"trial":103,"robot":1,"valence":"win","action":"go","sham":0,"trial_type":"pit-trial","trial_index":116,"time_elapsed":531177,"internal_node_id":"0.0-105.0","task_version":"battery-v0.1"},{"rune":"U","hex":"#f73b6a7A","correct":32,"choice":-1,"rt":-1,"accuracy":0,"outcome":"-10","keys":[],"total_keys":0,"block":1,"trial":104,"robot":3,"valence":"lose","action":"go","sham":0,"trial_type":"pit-trial","trial_index":117,"time_elapsed":535197,"internal_node_id":"0.0-106.0","task_version":"battery-v0.1"},{"rune":"U","hex":"#f73b6a7A","correct":32,"choice":-1,"rt":-1,"accuracy":0,"outcome":"-10","keys":[],"total_keys":0,"block":1,"trial":105,"robot":3,"valence":"lose","action":"go","sham":0,"trial_type":"pit-trial","trial_index":118,"time_elapsed":539223,"internal_node_id":"0.0-107.0","task_version":"battery-v0.1"},{"rune":"K","hex":"#f73b6a7A","correct":32,"choice":-1,"rt":-1,"accuracy":0,"outcome":"-10","keys":[],"total_keys":0,"block":1,"trial":106,"robot":3,"valence":"lose","action":"go","sham":0,"trial_type":"pit-trial","trial_index":119,"time_elapsed":543249,"internal_node_id":"0.0-108.0","task_version":"battery-v0.1"},{"rune":"L","hex":"#3366ff99","correct":-1,"choice":32,"rt":479.9549999879673,"accuracy":0,"outcome":"+1","keys":[1980.1599999773316],"total_keys":1,"block":1,"trial":107,"robot":2,"valence":"win","action":"no-go","sham":0,"trial_type":"pit-trial","trial_index":120,"time_elapsed":546453,"internal_node_id":"0.0-109.0","task_version":"battery-v0.1"},{"rune":"X","hex":"#3366ff99","correct":32,"choice":32,"rt":1042.9299999959767,"accuracy":1,"outcome":"+1","keys":[2542.9449999937788],"total_keys":1,"block":1,"trial":108,"robot":1,"valence":"win","action":"go","sham":1,"trial_type":"pit-trial","trial_index":121,"time_elapsed":550224,"internal_node_id":"0.0-110.0","task_version":"battery-v0.1"},{"rune":"L","hex":"#3366ff99","correct":-1,"choice":32,"rt":1168.065000034403,"accuracy":0,"outcome":"+1","keys":[2668.2349999900907,2700.239999976475],"total_keys":2,"block":1,"trial":109,"robot":2,"valence":"win","action":"no-go","sham":0,"trial_type":"pit-trial","trial_index":122,"time_elapsed":554117,"internal_node_id":"0.0-111.0","task_version":"battery-v0.1"},{"rune":"K","hex":"#f73b6a7A","correct":32,"choice":-1,"rt":-1,"accuracy":0,"outcome":"-10","keys":[],"total_keys":0,"block":1,"trial":110,"robot":3,"valence":"lose","action":"go","sham":0,"trial_type":"pit-trial","trial_index":123,"time_elapsed":558143,"internal_node_id":"0.0-112.0","task_version":"battery-v0.1"},{"rune":"U","hex":"#f73b6a7A","correct":32,"choice":-1,"rt":-1,"accuracy":0,"outcome":"-10","keys":[],"total_keys":0,"block":1,"trial":111,"robot":3,"valence":"lose","action":"go","sham":0,"trial_type":"pit-trial","trial_index":124,"time_elapsed":562170,"internal_node_id":"0.0-113.0","task_version":"battery-v0.1"},{"rune":"X","hex":"#3366ff99","correct":32,"choice":-1,"rt":-1,"accuracy":0,"outcome":"+10","keys":[3231.954999966547],"total_keys":1,"block":1,"trial":112,"robot":1,"valence":"win","action":"go","sham":1,"trial_type":"pit-trial","trial_index":125,"time_elapsed":566195,"internal_node_id":"0.0-114.0","task_version":"battery-v0.1"},{"rune":"L","hex":"#3366ff99","correct":-1,"choice":-1,"rt":-1,"accuracy":1,"outcome":"+10","keys":[],"total_keys":0,"block":1,"trial":113,"robot":2,"valence":"win","action":"no-go","sham":0,"trial_type":"pit-trial","trial_index":126,"time_elapsed":570218,"internal_node_id":"0.0-115.0","task_version":"battery-v0.1"},{"rune":"K","hex":"#f73b6a7A","correct":32,"choice":32,"rt":900.4049999639392,"accuracy":1,"outcome":"-10","keys":[2401.3299999642186],"total_keys":1,"block":1,"trial":114,"robot":3,"valence":"lose","action":"go","sham":1,"trial_type":"pit-trial","trial_index":127,"time_elapsed":573840,"internal_node_id":"0.0-116.0","task_version":"battery-v0.1"},{"rune":"U","hex":"#f73b6a7A","correct":32,"choice":-1,"rt":-1,"accuracy":0,"outcome":"-10","keys":[],"total_keys":0,"block":1,"trial":115,"robot":3,"valence":"lose","action":"go","sham":0,"trial_type":"pit-trial","trial_index":128,"time_elapsed":577863,"internal_node_id":"0.0-117.0","task_version":"battery-v0.1"},{"rune":"X","hex":"#3366ff99","correct":32,"choice":-1,"rt":-1,"accuracy":0,"outcome":"+10","keys":[],"total_keys":0,"block":1,"trial":116,"robot":1,"valence":"win","action":"go","sham":1,"trial_type":"pit-trial","trial_index":129,"time_elapsed":581891,"internal_node_id":"0.0-118.0","task_version":"battery-v0.1"},{"rune":"X","hex":"#3366ff99","correct":32,"choice":32,"rt":639.5600000396371,"accuracy":1,"outcome":"+10","keys":[2140.8599999849685],"total_keys":1,"block":1,"trial":117,"robot":1,"valence":"win","action":"go","sham":0,"trial_type":"pit-trial","trial_index":130,"time_elapsed":585273,"internal_node_id":"0.0-119.0","task_version":"battery-v0.1"},{"rune":"K","hex":"#f73b6a7A","correct":32,"choice":-1,"rt":-1,"accuracy":0,"outcome":"-1","keys":[],"total_keys":0,"block":1,"trial":118,"robot":3,"valence":"lose","action":"go","sham":1,"trial_type":"pit-trial","trial_index":131,"time_elapsed":589300,"internal_node_id":"0.0-120.0","task_version":"battery-v0.1"},{"rune":"U","hex":"#f73b6a7A","correct":32,"choice":-1,"rt":-1,"accuracy":0,"outcome":"-1","keys":[],"total_keys":0,"block":1,"trial":119,"robot":3,"valence":"lose","action":"go","sham":1,"trial_type":"pit-trial","trial_index":132,"time_elapsed":593322,"internal_node_id":"0.0-121.0","task_version":"battery-v0.1"},{"rune":"L","hex":"#3366ff99","correct":-1,"choice":32,"rt":770.5999999889173,"accuracy":0,"outcome":"+10","keys":[2271.245000010822],"total_keys":1,"block":1,"trial":120,"robot":2,"valence":"win","action":"no-go","sham":1,"trial_type":"pit-trial","trial_index":133,"time_elapsed":596818,"internal_node_id":"0.0-122.0","task_version":"battery-v0.1"},{"view_history":"[{\"page_index\":0,\"viewing_time\":7510.4949999949895},{\"page_index\":1,\"viewing_time\":2885.29499998549}]","rt":10405.979999981355,"trial_type":"pit-instructions","trial_index":134,"time_elapsed":607250,"internal_node_id":"0.0-123.0","task_version":"battery-v0.1"},{"rune":"C","hex":"#3366ff99","correct":32,"choice":32,"rt":1104.3250000220723,"accuracy":1,"outcome":"+10","keys":[2605.1950000110082],"total_keys":1,"block":2,"trial":121,"robot":1,"valence":"win","action":"go","sham":0,"trial_type":"pit-trial","trial_index":135,"time_elapsed":611132,"internal_node_id":"0.0-124.0","task_version":"battery-v0.1"},{"rune":"H","hex":"#3366ff99","correct":32,"choice":-1,"rt":-1,"accuracy":0,"outcome":"+1","keys":[],"total_keys":0,"block":2,"trial":122,"robot":1,"valence":"win","action":"go","sham":0,"trial_type":"pit-trial","trial_index":136,"time_elapsed":615163,"internal_node_id":"0.0-125.0","task_version":"battery-v0.1"},{"rune":"R","hex":"#f73b6a7A","correct":-1,"choice":-1,"rt":-1,"accuracy":1,"outcome":"-1","keys":[],"total_keys":0,"block":2,"trial":123,"robot":4,"valence":"lose","action":"no-go","sham":0,"trial_type":"pit-trial","trial_index":137,"time_elapsed":619191,"internal_node_id":"0.0-126.0","task_version":"battery-v0.1"},{"rune":"Q","hex":"#3366ff99","correct":-1,"choice":-1,"rt":-1,"accuracy":1,"outcome":"+10","keys":[],"total_keys":0,"block":2,"trial":124,"robot":2,"valence":"win","action":"no-go","sham":0,"trial_type":"pit-trial","trial_index":138,"time_elapsed":623217,"internal_node_id":"0.0-127.0","task_version":"battery-v0.1"},{"rune":"H","hex":"#3366ff99","correct":32,"choice":32,"rt":1022.9949999484234,"accuracy":1,"outcome":"+1","keys":[2523.1999999959953],"total_keys":1,"block":2,"trial":125,"robot":1,"valence":"win","action":"go","sham":1,"trial_type":"pit-trial","trial_index":139,"time_elapsed":626963,"internal_node_id":"0.0-128.0","task_version":"battery-v0.1"},{"rune":"R","hex":"#f73b6a7A","correct":-1,"choice":-1,"rt":-1,"accuracy":1,"outcome":"-1","keys":[],"total_keys":0,"block":2,"trial":126,"robot":4,"valence":"lose","action":"no-go","sham":0,"trial_type":"pit-trial","trial_index":140,"time_elapsed":630988,"internal_node_id":"0.0-129.0","task_version":"battery-v0.1"},{"rune":"Q","hex":"#3366ff99","correct":-1,"choice":32,"rt":442.4049999797717,"accuracy":0,"outcome":"+1","keys":[1942.5199999823235],"total_keys":1,"block":2,"trial":127,"robot":2,"valence":"win","action":"no-go","sham":0,"trial_type":"pit-trial","trial_index":141,"time_elapsed":634155,"internal_node_id":"0.0-130.0","task_version":"battery-v0.1"},{"rune":"C","hex":"#3366ff99","correct":32,"choice":-1,"rt":-1,"accuracy":0,"outcome":"+1","keys":[2845.9100000327453],"total_keys":1,"block":2,"trial":128,"robot":1,"valence":"win","action":"go","sham":0,"trial_type":"pit-trial","trial_index":142,"time_elapsed":638186,"internal_node_id":"0.0-131.0","task_version":"battery-v0.1"},{"rune":"C","hex":"#3366ff99","correct":32,"choice":32,"rt":1039.580000040587,"accuracy":1,"outcome":"+10","keys":[2539.9900000193156],"total_keys":1,"block":2,"trial":129,"robot":1,"valence":"win","action":"go","sham":0,"trial_type":"pit-trial","trial_index":143,"time_elapsed":641952,"internal_node_id":"0.0-132.0","task_version":"battery-v0.1"},{"rune":"R","hex":"#f73b6a7A","correct":-1,"choice":-1,"rt":-1,"accuracy":1,"outcome":"-1","keys":[],"total_keys":0,"block":2,"trial":130,"robot":4,"valence":"lose","action":"no-go","sham":0,"trial_type":"pit-trial","trial_index":144,"time_elapsed":645981,"internal_node_id":"0.0-133.0","task_version":"battery-v0.1"},{"rune":"H","hex":"#3366ff99","correct":32,"choice":-1,"rt":-1,"accuracy":0,"outcome":"+1","keys":[3245.104999979958],"total_keys":1,"block":2,"trial":131,"robot":1,"valence":"win","action":"go","sham":0,"trial_type":"pit-trial","trial_index":145,"time_elapsed":650009,"internal_node_id":"0.0-134.0","task_version":"battery-v0.1"},{"rune":"Q","hex":"#3366ff99","correct":-1,"choice":32,"rt":503.8300000014715,"accuracy":0,"outcome":"+1","keys":[2004.0000000153668],"total_keys":1,"block":2,"trial":132,"robot":2,"valence":"win","action":"no-go","sham":0,"trial_type":"pit-trial","trial_index":146,"time_elapsed":653238,"internal_node_id":"0.0-135.0","task_version":"battery-v0.1"},{"rune":"H","hex":"#3366ff99","correct":32,"choice":32,"rt":651.1699999682605,"accuracy":1,"outcome":"+1","keys":[2151.389999955427],"total_keys":1,"block":2,"trial":133,"robot":1,"valence":"win","action":"go","sham":1,"trial_type":"pit-trial","trial_index":147,"time_elapsed":656615,"internal_node_id":"0.0-136.0","task_version":"battery-v0.1"},{"rune":"R","hex":"#f73b6a7A","correct":-1,"choice":32,"rt":215.1299999677576,"accuracy":0,"outcome":"-1","keys":[1715.3399999951944],"total_keys":1,"block":2,"trial":134,"robot":4,"valence":"lose","action":"no-go","sham":1,"trial_type":"pit-trial","trial_index":148,"time_elapsed":659560,"internal_node_id":"0.0-137.0","task_version":"battery-v0.1"},{"rune":"C","hex":"#3366ff99","correct":32,"choice":-1,"rt":-1,"accuracy":0,"outcome":"+10","keys":[3783.1199999782257],"total_keys":1,"block":2,"trial":135,"robot":1,"valence":"win","action":"go","sham":1,"trial_type":"pit-trial","trial_index":149,"time_elapsed":663583,"internal_node_id":"0.0-138.0","task_version":"battery-v0.1"},{"rune":"Q","hex":"#3366ff99","correct":-1,"choice":-1,"rt":-1,"accuracy":1,"outcome":"+10","keys":[],"total_keys":0,"block":2,"trial":136,"robot":2,"valence":"win","action":"no-go","sham":0,"trial_type":"pit-trial","trial_index":150,"time_elapsed":667630,"internal_node_id":"0.0-139.0","task_version":"battery-v0.1"},{"rune":"H","hex":"#3366ff99","correct":32,"choice":-1,"rt":-1,"accuracy":0,"outcome":"+10","keys":[],"total_keys":0,"block":2,"trial":137,"robot":1,"valence":"win","action":"go","sham":1,"trial_type":"pit-trial","trial_index":151,"time_elapsed":671658,"internal_node_id":"0.0-140.0","task_version":"battery-v0.1"},{"rune":"Q","hex":"#3366ff99","correct":-1,"choice":32,"rt":795.9300000220537,"accuracy":0,"outcome":"+10","keys":[2296.444999985397],"total_keys":1,"block":2,"trial":138,"robot":2,"valence":"win","action":"no-go","sham":1,"trial_type":"pit-trial","trial_index":152,"time_elapsed":675190,"internal_node_id":"0.0-141.0","task_version":"battery-v0.1"},{"rune":"R","hex":"#f73b6a7A","correct":-1,"choice":-1,"rt":-1,"accuracy":1,"outcome":"-10","keys":[3525.5350000225008],"total_keys":1,"block":2,"trial":139,"robot":4,"valence":"lose","action":"no-go","sham":1,"trial_type":"pit-trial","trial_index":153,"time_elapsed":679215,"internal_node_id":"0.0-142.0","task_version":"battery-v0.1"},{"rune":"C","hex":"#3366ff99","correct":32,"choice":-1,"rt":-1,"accuracy":0,"outcome":"+1","keys":[],"total_keys":0,"block":2,"trial":140,"robot":1,"valence":"win","action":"go","sham":0,"trial_type":"pit-trial","trial_index":154,"time_elapsed":683247,"internal_node_id":"0.0-143.0","task_version":"battery-v0.1"},{"rune":"C","hex":"#3366ff99","correct":32,"choice":32,"rt":537.5500000081956,"accuracy":1,"outcome":"+10","keys":[2037.9250000114553],"total_keys":1,"block":2,"trial":141,"robot":1,"valence":"win","action":"go","sham":0,"trial_type":"pit-trial","trial_index":155,"time_elapsed":686509,"internal_node_id":"0.0-144.0","task_version":"battery-v0.1"},{"rune":"Q","hex":"#3366ff99","correct":-1,"choice":32,"rt":1134.0999999665655,"accuracy":0,"outcome":"+1","keys":[2634.1750000137836],"total_keys":1,"block":2,"trial":142,"robot":2,"valence":"win","action":"no-go","sham":0,"trial_type":"pit-trial","trial_index":156,"time_elapsed":690372,"internal_node_id":"0.0-145.0","task_version":"battery-v0.1"},{"rune":"R","hex":"#f73b6a7A","correct":-1,"choice":-1,"rt":-1,"accuracy":1,"outcome":"-10","keys":[],"total_keys":0,"block":2,"trial":143,"robot":4,"valence":"lose","action":"no-go","sham":1,"trial_type":"pit-trial","trial_index":157,"time_elapsed":694394,"internal_node_id":"0.0-146.0","task_version":"battery-v0.1"},{"rune":"H","hex":"#3366ff99","correct":32,"choice":-1,"rt":-1,"accuracy":0,"outcome":"+10","keys":[3015.9549999516457],"total_keys":1,"block":2,"trial":144,"robot":1,"valence":"win","action":"go","sham":1,"trial_type":"pit-trial","trial_index":158,"time_elapsed":698419,"internal_node_id":"0.0-147.0","task_version":"battery-v0.1"},{"rune":"Q","hex":"#3366ff99","correct":-1,"choice":-1,"rt":-1,"accuracy":1,"outcome":"+1","keys":[],"total_keys":0,"block":2,"trial":145,"robot":2,"valence":"win","action":"no-go","sham":1,"trial_type":"pit-trial","trial_index":159,"time_elapsed":702442,"internal_node_id":"0.0-148.0","task_version":"battery-v0.1"},{"rune":"R","hex":"#f73b6a7A","correct":-1,"choice":-1,"rt":-1,"accuracy":1,"outcome":"-1","keys":[],"total_keys":0,"block":2,"trial":146,"robot":4,"valence":"lose","action":"no-go","sham":0,"trial_type":"pit-trial","trial_index":160,"time_elapsed":706474,"internal_node_id":"0.0-149.0","task_version":"battery-v0.1"},{"rune":"H","hex":"#3366ff99","correct":32,"choice":32,"rt":1117.0700000366196,"accuracy":1,"outcome":"+10","keys":[2617.160000023432],"total_keys":1,"block":2,"trial":147,"robot":1,"valence":"win","action":"go","sham":0,"trial_type":"pit-trial","trial_index":161,"time_elapsed":710318,"internal_node_id":"0.0-150.0","task_version":"battery-v0.1"},{"rune":"C","hex":"#3366ff99","correct":32,"choice":32,"rt":1138.9900000067428,"accuracy":1,"outcome":"+1","keys":[2639.2000000341795],"total_keys":1,"block":2,"trial":148,"robot":1,"valence":"win","action":"go","sham":1,"trial_type":"pit-trial","trial_index":162,"time_elapsed":714186,"internal_node_id":"0.0-151.0","task_version":"battery-v0.1"},{"rune":"H","hex":"#3366ff99","correct":32,"choice":32,"rt":567.9300000192598,"accuracy":1,"outcome":"+10","keys":[2067.909999983385],"total_keys":1,"block":2,"trial":149,"robot":1,"valence":"win","action":"go","sham":0,"trial_type":"pit-trial","trial_index":163,"time_elapsed":717482,"internal_node_id":"0.0-152.0","task_version":"battery-v0.1"},{"rune":"Q","hex":"#3366ff99","correct":-1,"choice":32,"rt":1165.114999981597,"accuracy":0,"outcome":"+1","keys":[2665.3650000225753],"total_keys":1,"block":2,"trial":150,"robot":2,"valence":"win","action":"no-go","sham":0,"trial_type":"pit-trial","trial_index":164,"time_elapsed":721372,"internal_node_id":"0.0-153.0","task_version":"battery-v0.1"},{"rune":"C","hex":"#3366ff99","correct":32,"choice":32,"rt":925.5150000099093,"accuracy":1,"outcome":"+10","keys":[2425.7000000216067],"total_keys":1,"block":2,"trial":151,"robot":1,"valence":"win","action":"go","sham":0,"trial_type":"pit-trial","trial_index":165,"time_elapsed":725021,"internal_node_id":"0.0-154.0","task_version":"battery-v0.1"},{"rune":"R","hex":"#f73b6a7A","correct":-1,"choice":-1,"rt":-1,"accuracy":1,"outcome":"-1","keys":[],"total_keys":0,"block":2,"trial":152,"robot":4,"valence":"lose","action":"no-go","sham":0,"trial_type":"pit-trial","trial_index":166,"time_elapsed":729047,"internal_node_id":"0.0-155.0","task_version":"battery-v0.1"},{"rune":"R","hex":"#f73b6a7A","correct":-1,"choice":32,"rt":1268.099999986589,"accuracy":0,"outcome":"-10","keys":[2768.1699999957345],"total_keys":1,"block":2,"trial":153,"robot":4,"valence":"lose","action":"no-go","sham":0,"trial_type":"pit-trial","trial_index":167,"time_elapsed":733040,"internal_node_id":"0.0-156.0","task_version":"battery-v0.1"},{"rune":"Q","hex":"#3366ff99","correct":-1,"choice":32,"rt":921.2399999960326,"accuracy":0,"outcome":"+1","keys":[2422.054999973625],"total_keys":1,"block":2,"trial":154,"robot":2,"valence":"win","action":"no-go","sham":0,"trial_type":"pit-trial","trial_index":168,"time_elapsed":736689,"internal_node_id":"0.0-157.0","task_version":"battery-v0.1"},{"rune":"E","hex":"#3366ff99","correct":32,"choice":32,"rt":443.14499996835366,"accuracy":1,"outcome":"+10","keys":[1943.3999999891967],"total_keys":1,"block":2,"trial":155,"robot":1,"valence":"win","action":"go","sham":0,"trial_type":"pit-trial","trial_index":169,"time_elapsed":739855,"internal_node_id":"0.0-158.0","task_version":"battery-v0.1"},{"rune":"H","hex":"#3366ff99","correct":32,"choice":32,"rt":1249.9799999641255,"accuracy":1,"outcome":"+10","keys":[2750.0500000314787,2921.4849999989383],"total_keys":2,"block":2,"trial":156,"robot":1,"valence":"win","action":"go","sham":0,"trial_type":"pit-trial","trial_index":170,"time_elapsed":743834,"internal_node_id":"0.0-159.0","task_version":"battery-v0.1"},{"rune":"R","hex":"#f73b6a7A","correct":-1,"choice":-1,"rt":-1,"accuracy":1,"outcome":"-1","keys":[],"total_keys":0,"block":2,"trial":157,"robot":4,"valence":"lose","action":"no-go","sham":0,"trial_type":"pit-trial","trial_index":171,"time_elapsed":747857,"internal_node_id":"0.0-160.0","task_version":"battery-v0.1"},{"rune":"E","hex":"#3366ff99","correct":32,"choice":32,"rt":239.30000001564622,"accuracy":1,"outcome":"+10","keys":[1749.0700000198558],"total_keys":1,"block":2,"trial":158,"robot":1,"valence":"win","action":"go","sham":0,"trial_type":"pit-trial","trial_index":172,"time_elapsed":750830,"internal_node_id":"0.0-161.0","task_version":"battery-v0.1"},{"rune":"H","hex":"#3366ff99","correct":32,"choice":-1,"rt":-1,"accuracy":0,"outcome":"+1","keys":[],"total_keys":0,"block":2,"trial":159,"robot":1,"valence":"win","action":"go","sham":0,"trial_type":"pit-trial","trial_index":173,"time_elapsed":754852,"internal_node_id":"0.0-162.0","task_version":"battery-v0.1"},{"rune":"Q","hex":"#3366ff99","correct":-1,"choice":32,"rt":328.4950000233948,"accuracy":0,"outcome":"+1","keys":[1828.6300000036135,2726.6400000080466],"total_keys":2,"block":2,"trial":160,"robot":2,"valence":"win","action":"no-go","sham":0,"trial_type":"pit-trial","trial_index":174,"time_elapsed":757911,"internal_node_id":"0.0-163.0","task_version":"battery-v0.1"},{"rune":"D","hex":"#f73b6a7A","correct":32,"choice":-1,"rt":-1,"accuracy":0,"outcome":"-10","keys":[],"total_keys":0,"block":2,"trial":161,"robot":3,"valence":"lose","action":"go","sham":0,"trial_type":"pit-trial","trial_index":175,"time_elapsed":761936,"internal_node_id":"0.0-164.0","task_version":"battery-v0.1"},{"rune":"F","hex":"#f73b6a7A","correct":-1,"choice":-1,"rt":-1,"accuracy":1,"outcome":"-1","keys":[],"total_keys":0,"block":2,"trial":162,"robot":4,"valence":"lose","action":"no-go","sham":0,"trial_type":"pit-trial","trial_index":176,"time_elapsed":765964,"internal_node_id":"0.0-165.0","task_version":"battery-v0.1"},{"rune":"Q","hex":"#3366ff99","correct":-1,"choice":32,"rt":387.17499998165295,"accuracy":0,"outcome":"+1","keys":[1887.349999975413],"total_keys":1,"block":2,"trial":163,"robot":2,"valence":"win","action":"no-go","sham":0,"trial_type":"pit-trial","trial_index":177,"time_elapsed":769078,"internal_node_id":"0.0-166.0","task_version":"battery-v0.1"},{"rune":"E","hex":"#3366ff99","correct":32,"choice":32,"rt":352.8500000247732,"accuracy":1,"outcome":"+10","keys":[1852.8800000203773],"total_keys":1,"block":2,"trial":164,"robot":1,"valence":"win","action":"go","sham":0,"trial_type":"pit-trial","trial_index":178,"time_elapsed":772162,"internal_node_id":"0.0-167.0","task_version":"battery-v0.1"},{"rune":"E","hex":"#3366ff99","correct":32,"choice":32,"rt":787.4900000169873,"accuracy":1,"outcome":"+10","keys":[2287.6300000352785],"total_keys":1,"block":2,"trial":165,"robot":1,"valence":"win","action":"go","sham":0,"trial_type":"pit-trial","trial_index":179,"time_elapsed":775672,"internal_node_id":"0.0-168.0","task_version":"battery-v0.1"},{"rune":"F","hex":"#f73b6a7A","correct":-1,"choice":-1,"rt":-1,"accuracy":1,"outcome":"-1","keys":[],"total_keys":0,"block":2,"trial":166,"robot":4,"valence":"lose","action":"no-go","sham":0,"trial_type":"pit-trial","trial_index":180,"time_elapsed":779697,"internal_node_id":"0.0-169.0","task_version":"battery-v0.1"},{"rune":"Q","hex":"#3366ff99","correct":-1,"choice":32,"rt":346.27499995986,"accuracy":0,"outcome":"+1","keys":[1846.4249999960884],"total_keys":1,"block":2,"trial":167,"robot":2,"valence":"win","action":"no-go","sham":0,"trial_type":"pit-trial","trial_index":181,"time_elapsed":782771,"internal_node_id":"0.0-170.0","task_version":"battery-v0.1"},{"rune":"D","hex":"#f73b6a7A","correct":32,"choice":-1,"rt":-1,"accuracy":0,"outcome":"-10","keys":[],"total_keys":0,"block":2,"trial":168,"robot":3,"valence":"lose","action":"go","sham":0,"trial_type":"pit-trial","trial_index":182,"time_elapsed":786799,"internal_node_id":"0.0-171.0","task_version":"battery-v0.1"},{"rune":"D","hex":"#f73b6a7A","correct":32,"choice":32,"rt":1193.6700000078417,"accuracy":1,"outcome":"-1","keys":[2693.6649999697693],"total_keys":1,"block":2,"trial":169,"robot":3,"valence":"lose","action":"go","sham":0,"trial_type":"pit-trial","trial_index":183,"time_elapsed":790718,"internal_node_id":"0.0-172.0","task_version":"battery-v0.1"},{"rune":"M","hex":"#3366ff99","correct":-1,"choice":32,"rt":343.25999999418855,"accuracy":0,"outcome":"+1","keys":[1397.5649999920279,1843.3400000212714],"total_keys":2,"block":2,"trial":170,"robot":2,"valence":"win","action":"no-go","sham":0,"trial_type":"pit-trial","trial_index":184,"time_elapsed":793787,"internal_node_id":"0.0-173.0","task_version":"battery-v0.1"},{"rune":"F","hex":"#f73b6a7A","correct":-1,"choice":-1,"rt":-1,"accuracy":1,"outcome":"-1","keys":[2808.6400000029244],"total_keys":1,"block":2,"trial":171,"robot":4,"valence":"lose","action":"no-go","sham":0,"trial_type":"pit-trial","trial_index":185,"time_elapsed":797815,"internal_node_id":"0.0-174.0","task_version":"battery-v0.1"},{"rune":"E","hex":"#3366ff99","correct":32,"choice":32,"rt":759.2299999669194,"accuracy":1,"outcome":"+10","keys":[2259.6550000016578],"total_keys":1,"block":2,"trial":172,"robot":1,"valence":"win","action":"go","sham":0,"trial_type":"pit-trial","trial_index":186,"time_elapsed":801299,"internal_node_id":"0.0-175.0","task_version":"battery-v0.1"},{"rune":"F","hex":"#f73b6a7A","correct":-1,"choice":-1,"rt":-1,"accuracy":1,"outcome":"-1","keys":[3065.1700000162236],"total_keys":1,"block":2,"trial":173,"robot":4,"valence":"lose","action":"no-go","sham":0,"trial_type":"pit-trial","trial_index":187,"time_elapsed":805336,"internal_node_id":"0.0-176.0","task_version":"battery-v0.1"},{"rune":"M","hex":"#3366ff99","correct":-1,"choice":32,"rt":102.67499997280538,"accuracy":0,"outcome":"+1","keys":[1602.6300000376068],"total_keys":1,"block":2,"trial":174,"robot":2,"valence":"win","action":"no-go","sham":0,"trial_type":"pit-trial","trial_index":188,"time_elapsed":808163,"internal_node_id":"0.0-177.0","task_version":"battery-v0.1"},{"rune":"D","hex":"#f73b6a7A","correct":32,"choice":-1,"rt":-1,"accuracy":0,"outcome":"-10","keys":[],"total_keys":0,"block":2,"trial":175,"robot":3,"valence":"lose","action":"go","sham":0,"trial_type":"pit-trial","trial_index":189,"time_elapsed":812188,"internal_node_id":"0.0-178.0","task_version":"battery-v0.1"},{"rune":"E","hex":"#3366ff99","correct":32,"choice":32,"rt":337.2150000068359,"accuracy":1,"outcome":"+1","keys":[1838.805000006687],"total_keys":1,"block":2,"trial":176,"robot":1,"valence":"win","action":"go","sham":1,"trial_type":"pit-trial","trial_index":190,"time_elapsed":815250,"internal_node_id":"0.0-179.0","task_version":"battery-v0.1"},{"rune":"D","hex":"#f73b6a7A","correct":32,"choice":32,"rt":744.4299999624491,"accuracy":1,"outcome":"-1","keys":[2250.2199999871664],"total_keys":1,"block":2,"trial":177,"robot":3,"valence":"lose","action":"go","sham":0,"trial_type":"pit-trial","trial_index":191,"time_elapsed":818753,"internal_node_id":"0.0-180.0","task_version":"battery-v0.1"},{"rune":"M","hex":"#3366ff99","correct":-1,"choice":-1,"rt":-1,"accuracy":1,"outcome":"+10","keys":[],"total_keys":0,"block":2,"trial":178,"robot":2,"valence":"win","action":"no-go","sham":0,"trial_type":"pit-trial","trial_index":192,"time_elapsed":822806,"internal_node_id":"0.0-181.0","task_version":"battery-v0.1"},{"rune":"F","hex":"#f73b6a7A","correct":-1,"choice":32,"rt":722.4449999630451,"accuracy":0,"outcome":"-10","keys":[2222.9049999732524],"total_keys":1,"block":2,"trial":179,"robot":4,"valence":"lose","action":"no-go","sham":0,"trial_type":"pit-trial","trial_index":193,"time_elapsed":826255,"internal_node_id":"0.0-182.0","task_version":"battery-v0.1"},{"rune":"E","hex":"#3366ff99","correct":32,"choice":32,"rt":767.2749999910593,"accuracy":1,"outcome":"+10","keys":[2267.3700000159442],"total_keys":1,"block":2,"trial":180,"robot":1,"valence":"win","action":"go","sham":0,"trial_type":"pit-trial","trial_index":194,"time_elapsed":829746,"internal_node_id":"0.0-183.0","task_version":"battery-v0.1"},{"rune":"F","hex":"#f73b6a7A","correct":-1,"choice":32,"rt":846.979999972973,"accuracy":0,"outcome":"-10","keys":[2347.154999966733],"total_keys":1,"block":2,"trial":181,"robot":4,"valence":"lose","action":"no-go","sham":0,"trial_type":"pit-trial","trial_index":195,"time_elapsed":833315,"internal_node_id":"0.0-184.0","task_version":"battery-v0.1"},{"rune":"E","hex":"#3366ff99","correct":32,"choice":32,"rt":809.6350000123493,"accuracy":1,"outcome":"+1","keys":[2309.799999988172],"total_keys":1,"block":2,"trial":182,"robot":1,"valence":"win","action":"go","sham":1,"trial_type":"pit-trial","trial_index":196,"time_elapsed":836848,"internal_node_id":"0.0-185.0","task_version":"battery-v0.1"},{"rune":"D","hex":"#f73b6a7A","correct":32,"choice":32,"rt":1117.6950000226498,"accuracy":1,"outcome":"-1","keys":[2617.7800000295974],"total_keys":1,"block":2,"trial":183,"robot":3,"valence":"lose","action":"go","sham":0,"trial_type":"pit-trial","trial_index":197,"time_elapsed":840696,"internal_node_id":"0.0-186.0","task_version":"battery-v0.1"},{"rune":"M","hex":"#3366ff99","correct":-1,"choice":-1,"rt":-1,"accuracy":1,"outcome":"+10","keys":[2971.5399999986403],"total_keys":1,"block":2,"trial":184,"robot":2,"valence":"win","action":"no-go","sham":0,"trial_type":"pit-trial","trial_index":198,"time_elapsed":844722,"internal_node_id":"0.0-187.0","task_version":"battery-v0.1"},{"rune":"D","hex":"#f73b6a7A","correct":32,"choice":32,"rt":481.12000001128763,"accuracy":1,"outcome":"-1","keys":[1982.6349999639206],"total_keys":1,"block":2,"trial":185,"robot":3,"valence":"lose","action":"go","sham":0,"trial_type":"pit-trial","trial_index":199,"time_elapsed":847929,"internal_node_id":"0.0-188.0","task_version":"battery-v0.1"},{"rune":"F","hex":"#f73b6a7A","correct":-1,"choice":32,"rt":783.7699999799952,"accuracy":0,"outcome":"-10","keys":[2284.125000005588],"total_keys":1,"block":2,"trial":186,"robot":4,"valence":"lose","action":"no-go","sham":0,"trial_type":"pit-trial","trial_index":200,"time_elapsed":851436,"internal_node_id":"0.0-189.0","task_version":"battery-v0.1"},{"rune":"E","hex":"#3366ff99","correct":32,"choice":32,"rt":942.0449999743141,"accuracy":1,"outcome":"+10","keys":[2442.269999999553],"total_keys":1,"block":2,"trial":187,"robot":1,"valence":"win","action":"go","sham":0,"trial_type":"pit-trial","trial_index":201,"time_elapsed":855103,"internal_node_id":"0.0-190.0","task_version":"battery-v0.1"},{"rune":"M","hex":"#3366ff99","correct":-1,"choice":32,"rt":274.2600000347011,"accuracy":0,"outcome":"+1","keys":[1774.2749999742955],"total_keys":1,"block":2,"trial":188,"robot":2,"valence":"win","action":"no-go","sham":0,"trial_type":"pit-trial","trial_index":202,"time_elapsed":858106,"internal_node_id":"0.0-191.0","task_version":"battery-v0.1"},{"rune":"E","hex":"#3366ff99","correct":32,"choice":32,"rt":99.81500002322719,"accuracy":1,"outcome":"+10","keys":[1600.7999999565072],"total_keys":1,"block":2,"trial":189,"robot":1,"valence":"win","action":"go","sham":0,"trial_type":"pit-trial","trial_index":203,"time_elapsed":860930,"internal_node_id":"0.0-192.0","task_version":"battery-v0.1"},{"rune":"D","hex":"#f73b6a7A","correct":32,"choice":-1,"rt":-1,"accuracy":0,"outcome":"-10","keys":[1304.969999997411],"total_keys":1,"block":2,"trial":190,"robot":3,"valence":"lose","action":"go","sham":0,"trial_type":"pit-trial","trial_index":204,"time_elapsed":864956,"internal_node_id":"0.0-193.0","task_version":"battery-v0.1"},{"rune":"F","hex":"#f73b6a7A","correct":-1,"choice":-1,"rt":-1,"accuracy":1,"outcome":"-1","keys":[3239.7149999742396],"total_keys":1,"block":2,"trial":191,"robot":4,"valence":"lose","action":"no-go","sham":0,"trial_type":"pit-trial","trial_index":205,"time_elapsed":868986,"internal_node_id":"0.0-194.0","task_version":"battery-v0.1"},{"rune":"M","hex":"#3366ff99","correct":-1,"choice":32,"rt":1155.045000021346,"accuracy":0,"outcome":"+1","keys":[2657.4499999987893],"total_keys":1,"block":2,"trial":192,"robot":2,"valence":"win","action":"no-go","sham":0,"trial_type":"pit-trial","trial_index":206,"time_elapsed":872866,"internal_node_id":"0.0-195.0","task_version":"battery-v0.1"},{"rune":"T","hex":"#f73b6a7A","correct":32,"choice":-1,"rt":-1,"accuracy":0,"outcome":"-1","keys":[2903.2050000387244],"total_keys":1,"block":2,"trial":193,"robot":3,"valence":"lose","action":"go","sham":1,"trial_type":"pit-trial","trial_index":207,"time_elapsed":876900,"internal_node_id":"0.0-196.0","task_version":"battery-v0.1"},{"rune":"E","hex":"#3366ff99","correct":32,"choice":32,"rt":978.3150000148453,"accuracy":1,"outcome":"+1","keys":[2478.384999965783],"total_keys":1,"block":2,"trial":194,"robot":1,"valence":"win","action":"go","sham":1,"trial_type":"pit-trial","trial_index":208,"time_elapsed":880610,"internal_node_id":"0.0-197.0","task_version":"battery-v0.1"},{"rune":"F","hex":"#f73b6a7A","correct":-1,"choice":-1,"rt":-1,"accuracy":1,"outcome":"-1","keys":[2825.2250000368804],"total_keys":1,"block":2,"trial":195,"robot":4,"valence":"lose","action":"no-go","sham":0,"trial_type":"pit-trial","trial_index":209,"time_elapsed":884633,"internal_node_id":"0.0-198.0","task_version":"battery-v0.1"},{"rune":"M","hex":"#3366ff99","correct":-1,"choice":32,"rt":354.5849999645725,"accuracy":0,"outcome":"+10","keys":[1854.9650000059046],"total_keys":1,"block":2,"trial":196,"robot":2,"valence":"win","action":"no-go","sham":1,"trial_type":"pit-trial","trial_index":210,"time_elapsed":887731,"internal_node_id":"0.0-199.0","task_version":"battery-v0.1"},{"rune":"M","hex":"#3366ff99","correct":-1,"choice":-1,"rt":-1,"accuracy":1,"outcome":"+10","keys":[],"total_keys":0,"block":2,"trial":197,"robot":2,"valence":"win","action":"no-go","sham":0,"trial_type":"pit-trial","trial_index":211,"time_elapsed":891763,"internal_node_id":"0.0-200.0","task_version":"battery-v0.1"},{"rune":"T","hex":"#f73b6a7A","correct":32,"choice":-1,"rt":-1,"accuracy":0,"outcome":"-10","keys":[],"total_keys":0,"block":2,"trial":198,"robot":3,"valence":"lose","action":"go","sham":0,"trial_type":"pit-trial","trial_index":212,"time_elapsed":895791,"internal_node_id":"0.0-201.0","task_version":"battery-v0.1"},{"rune":"F","hex":"#f73b6a7A","correct":-1,"choice":32,"rt":830.6049999664538,"accuracy":0,"outcome":"-10","keys":[2330.6899999734014],"total_keys":1,"block":2,"trial":199,"robot":4,"valence":"lose","action":"no-go","sham":0,"trial_type":"pit-trial","trial_index":213,"time_elapsed":899345,"internal_node_id":"0.0-202.0","task_version":"battery-v0.1"},{"rune":"E","hex":"#3366ff99","correct":32,"choice":-1,"rt":-1,"accuracy":0,"outcome":"+10","keys":[703.3850000007078,2863.3000000263564],"total_keys":2,"block":2,"trial":200,"robot":1,"valence":"win","action":"go","sham":1,"trial_type":"pit-trial","trial_index":214,"time_elapsed":903366,"internal_node_id":"0.0-203.0","task_version":"battery-v0.1"},{"rune":"F","hex":"#f73b6a7A","correct":-1,"choice":32,"rt":455.8149999938905,"accuracy":0,"outcome":"-10","keys":[1955.9449999942444],"total_keys":1,"block":2,"trial":201,"robot":4,"valence":"lose","action":"no-go","sham":0,"trial_type":"pit-trial","trial_index":215,"time_elapsed":906548,"internal_node_id":"0.0-204.0","task_version":"battery-v0.1"},{"rune":"M","hex":"#3366ff99","correct":-1,"choice":32,"rt":273.3599999919534,"accuracy":0,"outcome":"+1","keys":[1774.890000000596],"total_keys":1,"block":2,"trial":202,"robot":2,"valence":"win","action":"no-go","sham":0,"trial_type":"pit-trial","trial_index":216,"time_elapsed":909548,"internal_node_id":"0.0-205.0","task_version":"battery-v0.1"},{"rune":"B","hex":"#f73b6a7A","correct":32,"choice":-1,"rt":-1,"accuracy":0,"outcome":"-1","keys":[],"total_keys":0,"block":2,"trial":203,"robot":3,"valence":"lose","action":"go","sham":1,"trial_type":"pit-trial","trial_index":217,"time_elapsed":913579,"internal_node_id":"0.0-206.0","task_version":"battery-v0.1"},{"rune":"T","hex":"#f73b6a7A","correct":32,"choice":-1,"rt":-1,"accuracy":0,"outcome":"-10","keys":[],"total_keys":0,"block":2,"trial":204,"robot":3,"valence":"lose","action":"go","sham":0,"trial_type":"pit-trial","trial_index":218,"time_elapsed":917608,"internal_node_id":"0.0-207.0","task_version":"battery-v0.1"},{"rune":"T","hex":"#f73b6a7A","correct":32,"choice":32,"rt":1238.6399999959394,"accuracy":1,"outcome":"-1","keys":[2738.740000000689],"total_keys":1,"block":2,"trial":205,"robot":3,"valence":"lose","action":"go","sham":0,"trial_type":"pit-trial","trial_index":219,"time_elapsed":921573,"internal_node_id":"0.0-208.0","task_version":"battery-v0.1"},{"rune":"F","hex":"#f73b6a7A","correct":-1,"choice":32,"rt":691.0050000296906,"accuracy":0,"outcome":"-10","keys":[2191.01499998942],"total_keys":1,"block":2,"trial":206,"robot":4,"valence":"lose","action":"no-go","sham":0,"trial_type":"pit-trial","trial_index":220,"time_elapsed":924992,"internal_node_id":"0.0-209.0","task_version":"battery-v0.1"},{"rune":"M","hex":"#3366ff99","correct":-1,"choice":32,"rt":468.7600000179373,"accuracy":0,"outcome":"+1","keys":[1968.9849999849685],"total_keys":1,"block":2,"trial":207,"robot":2,"valence":"win","action":"no-go","sham":0,"trial_type":"pit-trial","trial_index":221,"time_elapsed":928187,"internal_node_id":"0.0-210.0","task_version":"battery-v0.1"},{"rune":"B","hex":"#f73b6a7A","correct":32,"choice":32,"rt":928.2600000151433,"accuracy":1,"outcome":"-1","keys":[2428.310000046622],"total_keys":1,"block":2,"trial":208,"robot":3,"valence":"lose","action":"go","sham":0,"trial_type":"pit-trial","trial_index":222,"time_elapsed":931841,"internal_node_id":"0.0-211.0","task_version":"battery-v0.1"},{"rune":"B","hex":"#f73b6a7A","correct":32,"choice":32,"rt":662.0600000023842,"accuracy":1,"outcome":"-1","keys":[2161.985000013374],"total_keys":1,"block":2,"trial":209,"robot":3,"valence":"lose","action":"go","sham":0,"trial_type":"pit-trial","trial_index":223,"time_elapsed":935222,"internal_node_id":"0.0-212.0","task_version":"battery-v0.1"},{"rune":"T","hex":"#f73b6a7A","correct":32,"choice":32,"rt":955.8950000209734,"accuracy":1,"outcome":"-10","keys":[2457.5499999918975],"total_keys":1,"block":2,"trial":210,"robot":3,"valence":"lose","action":"go","sham":1,"trial_type":"pit-trial","trial_index":224,"time_elapsed":938908,"internal_node_id":"0.0-213.0","task_version":"battery-v0.1"},{"rune":"Y","hex":"#f73b6a7A","correct":-1,"choice":32,"rt":592.4450000165962,"accuracy":0,"outcome":"-1","keys":[2092.6200000103563],"total_keys":1,"block":2,"trial":211,"robot":4,"valence":"lose","action":"no-go","sham":1,"trial_type":"pit-trial","trial_index":225,"time_elapsed":942229,"internal_node_id":"0.0-214.0","task_version":"battery-v0.1"},{"rune":"Z","hex":"#3366ff99","correct":-1,"choice":32,"rt":803.9549999521114,"accuracy":0,"outcome":"+1","keys":[2304.1599999996834],"total_keys":1,"block":2,"trial":212,"robot":2,"valence":"win","action":"no-go","sham":0,"trial_type":"pit-trial","trial_index":226,"time_elapsed":945763,"internal_node_id":"0.0-215.0","task_version":"battery-v0.1"},{"rune":"Z","hex":"#3366ff99","correct":-1,"choice":32,"rt":1013.3100000093691,"accuracy":0,"outcome":"+1","keys":[2513.3200000273064],"total_keys":1,"block":2,"trial":213,"robot":2,"valence":"win","action":"no-go","sham":0,"trial_type":"pit-trial","trial_index":227,"time_elapsed":949502,"internal_node_id":"0.0-216.0","task_version":"battery-v0.1"},{"rune":"Y","hex":"#f73b6a7A","correct":-1,"choice":32,"rt":806.1899999738671,"accuracy":0,"outcome":"-10","keys":[1374.710000003688,2306.414999999106],"total_keys":2,"block":2,"trial":214,"robot":4,"valence":"lose","action":"no-go","sham":0,"trial_type":"pit-trial","trial_index":228,"time_elapsed":953034,"internal_node_id":"0.0-217.0","task_version":"battery-v0.1"},{"rune":"B","hex":"#f73b6a7A","correct":32,"choice":32,"rt":614.0799999702722,"accuracy":1,"outcome":"-1","keys":[2114.4100000383332],"total_keys":1,"block":2,"trial":215,"robot":3,"valence":"lose","action":"go","sham":0,"trial_type":"pit-trial","trial_index":229,"time_elapsed":956384,"internal_node_id":"0.0-218.0","task_version":"battery-v0.1"},{"rune":"T","hex":"#f73b6a7A","correct":32,"choice":32,"rt":63.479999953415245,"accuracy":1,"outcome":"-1","keys":[1564.795000012964],"total_keys":1,"block":2,"trial":216,"robot":3,"valence":"lose","action":"go","sham":0,"trial_type":"pit-trial","trial_index":230,"time_elapsed":959172,"internal_node_id":"0.0-219.0","task_version":"battery-v0.1"},{"rune":"Y","hex":"#f73b6a7A","correct":-1,"choice":-1,"rt":-1,"accuracy":1,"outcome":"-1","keys":[1356.7949999705888,3049.464999989141],"total_keys":2,"block":2,"trial":217,"robot":4,"valence":"lose","action":"no-go","sham":0,"trial_type":"pit-trial","trial_index":231,"time_elapsed":963212,"internal_node_id":"0.0-220.0","task_version":"battery-v0.1"},{"rune":"T","hex":"#f73b6a7A","correct":32,"choice":32,"rt":837.340000027325,"accuracy":1,"outcome":"-1","keys":[2337.409999978263,2394.0849999780767],"total_keys":2,"block":2,"trial":218,"robot":3,"valence":"lose","action":"go","sham":0,"trial_type":"pit-trial","trial_index":232,"time_elapsed":966770,"internal_node_id":"0.0-221.0","task_version":"battery-v0.1"},{"rune":"B","hex":"#f73b6a7A","correct":32,"choice":32,"rt":568.3250000001863,"accuracy":1,"outcome":"-1","keys":[2068.474999978207],"total_keys":1,"block":2,"trial":219,"robot":3,"valence":"lose","action":"go","sham":0,"trial_type":"pit-trial","trial_index":233,"time_elapsed":970070,"internal_node_id":"0.0-222.0","task_version":"battery-v0.1"},{"rune":"Z","hex":"#3366ff99","correct":-1,"choice":32,"rt":1088.7499999953434,"accuracy":0,"outcome":"+10","keys":[1092.865000013262,2588.9399999869056],"total_keys":2,"block":2,"trial":220,"robot":2,"valence":"win","action":"no-go","sham":1,"trial_type":"pit-trial","trial_index":234,"time_elapsed":973891,"internal_node_id":"0.0-223.0","task_version":"battery-v0.1"},{"rune":"B","hex":"#f73b6a7A","correct":32,"choice":32,"rt":500.0350000336766,"accuracy":1,"outcome":"-10","keys":[2001.6250000335276],"total_keys":1,"block":2,"trial":221,"robot":3,"valence":"lose","action":"go","sham":1,"trial_type":"pit-trial","trial_index":235,"time_elapsed":977125,"internal_node_id":"0.0-224.0","task_version":"battery-v0.1"},{"rune":"T","hex":"#f73b6a7A","correct":32,"choice":32,"rt":996.5199999860488,"accuracy":1,"outcome":"-1","keys":[2496.679999982007],"total_keys":1,"block":2,"trial":222,"robot":3,"valence":"lose","action":"go","sham":0,"trial_type":"pit-trial","trial_index":236,"time_elapsed":980844,"internal_node_id":"0.0-225.0","task_version":"battery-v0.1"},{"rune":"Y","hex":"#f73b6a7A","correct":-1,"choice":32,"rt":1278.2650000299327,"accuracy":0,"outcome":"-10","keys":[2778.355000016745],"total_keys":1,"block":2,"trial":223,"robot":4,"valence":"lose","action":"no-go","sham":0,"trial_type":"pit-trial","trial_index":237,"time_elapsed":984843,"internal_node_id":"0.0-226.0","task_version":"battery-v0.1"},{"rune":"Z","hex":"#3366ff99","correct":-1,"choice":32,"rt":17.179999966174364,"accuracy":0,"outcome":"+1","keys":[1517.3349999822676],"total_keys":1,"block":2,"trial":224,"robot":2,"valence":"win","action":"no-go","sham":0,"trial_type":"pit-trial","trial_index":238,"time_elapsed":987582,"internal_node_id":"0.0-227.0","task_version":"battery-v0.1"},{"rune":"B","hex":"#f73b6a7A","correct":32,"choice":32,"rt":735.2100000134669,"accuracy":1,"outcome":"-10","keys":[2237.7850000048056],"total_keys":1,"block":2,"trial":225,"robot":3,"valence":"lose","action":"go","sham":1,"trial_type":"pit-trial","trial_index":239,"time_elapsed":991089,"internal_node_id":"0.0-228.0","task_version":"battery-v0.1"},{"rune":"Z","hex":"#3366ff99","correct":-1,"choice":32,"rt":550.4349999828264,"accuracy":0,"outcome":"+1","keys":[2050.6099999765866],"total_keys":1,"block":2,"trial":226,"robot":2,"valence":"win","action":"no-go","sham":0,"trial_type":"pit-trial","trial_index":240,"time_elapsed":994367,"internal_node_id":"0.0-229.0","task_version":"battery-v0.1"},{"rune":"Y","hex":"#f73b6a7A","correct":-1,"choice":-1,"rt":-1,"accuracy":1,"outcome":"-1","keys":[3328.9349999977276],"total_keys":1,"block":2,"trial":227,"robot":4,"valence":"lose","action":"no-go","sham":0,"trial_type":"pit-trial","trial_index":241,"time_elapsed":998413,"internal_node_id":"0.0-230.0","task_version":"battery-v0.1"},{"rune":"T","hex":"#f73b6a7A","correct":32,"choice":32,"rt":968.555000028573,"accuracy":1,"outcome":"-1","keys":[2472.0549999619834],"total_keys":1,"block":2,"trial":228,"robot":3,"valence":"lose","action":"go","sham":0,"trial_type":"pit-trial","trial_index":242,"time_elapsed":1002112,"internal_node_id":"0.0-231.0","task_version":"battery-v0.1"},{"rune":"Y","hex":"#f73b6a7A","correct":-1,"choice":32,"rt":723.534999997355,"accuracy":0,"outcome":"-10","keys":[2223.8450000295416],"total_keys":1,"block":2,"trial":229,"robot":4,"valence":"lose","action":"no-go","sham":0,"trial_type":"pit-trial","trial_index":243,"time_elapsed":1005565,"internal_node_id":"0.0-232.0","task_version":"battery-v0.1"},{"rune":"T","hex":"#f73b6a7A","correct":32,"choice":32,"rt":520.8499999716878,"accuracy":1,"outcome":"-1","keys":[2021.7500000144355],"total_keys":1,"block":2,"trial":230,"robot":3,"valence":"lose","action":"go","sham":0,"trial_type":"pit-trial","trial_index":244,"time_elapsed":1008815,"internal_node_id":"0.0-233.0","task_version":"battery-v0.1"},{"rune":"Z","hex":"#3366ff99","correct":-1,"choice":32,"rt":410.77499999664724,"accuracy":0,"outcome":"+1","keys":[1911.9500000379048],"total_keys":1,"block":2,"trial":231,"robot":2,"valence":"win","action":"no-go","sham":0,"trial_type":"pit-trial","trial_index":245,"time_elapsed":1011956,"internal_node_id":"0.0-234.0","task_version":"battery-v0.1"},{"rune":"B","hex":"#f73b6a7A","correct":32,"choice":32,"rt":1194.8950000223704,"accuracy":1,"outcome":"-1","keys":[2695.0599999981932],"total_keys":1,"block":2,"trial":232,"robot":3,"valence":"lose","action":"go","sham":0,"trial_type":"pit-trial","trial_index":246,"time_elapsed":1015878,"internal_node_id":"0.0-235.0","task_version":"battery-v0.1"},{"rune":"Z","hex":"#3366ff99","correct":-1,"choice":-1,"rt":-1,"accuracy":1,"outcome":"+1","keys":[],"total_keys":0,"block":2,"trial":233,"robot":2,"valence":"win","action":"no-go","sham":1,"trial_type":"pit-trial","trial_index":247,"time_elapsed":1019912,"internal_node_id":"0.0-236.0","task_version":"battery-v0.1"},{"rune":"T","hex":"#f73b6a7A","correct":32,"choice":32,"rt":1033.5900000063702,"accuracy":1,"outcome":"-10","keys":[2533.9099999982864],"total_keys":1,"block":2,"trial":234,"robot":3,"valence":"lose","action":"go","sham":1,"trial_type":"pit-trial","trial_index":248,"time_elapsed":1023678,"internal_node_id":"0.0-237.0","task_version":"battery-v0.1"},{"rune":"Y","hex":"#f73b6a7A","correct":-1,"choice":32,"rt":879.8599999863654,"accuracy":0,"outcome":"-10","keys":[2379.96499997098],"total_keys":1,"block":2,"trial":235,"robot":4,"valence":"lose","action":"no-go","sham":0,"trial_type":"pit-trial","trial_index":249,"time_elapsed":1027285,"internal_node_id":"0.0-238.0","task_version":"battery-v0.1"},{"rune":"B","hex":"#f73b6a7A","correct":32,"choice":32,"rt":96.07999998843297,"accuracy":1,"outcome":"-1","keys":[1024.1399999940768,1596.1649999953806],"total_keys":2,"block":2,"trial":236,"robot":3,"valence":"lose","action":"go","sham":0,"trial_type":"pit-trial","trial_index":250,"time_elapsed":1030109,"internal_node_id":"0.0-239.0","task_version":"battery-v0.1"},{"rune":"Z","hex":"#3366ff99","correct":-1,"choice":32,"rt":416.75500001292676,"accuracy":0,"outcome":"+1","keys":[1917.119999998249],"total_keys":1,"block":2,"trial":237,"robot":2,"valence":"win","action":"no-go","sham":0,"trial_type":"pit-trial","trial_index":251,"time_elapsed":1033256,"internal_node_id":"0.0-240.0","task_version":"battery-v0.1"},{"rune":"Y","hex":"#f73b6a7A","correct":-1,"choice":32,"rt":948.4449999872595,"accuracy":0,"outcome":"-10","keys":[2449.6800000197254],"total_keys":1,"block":2,"trial":238,"robot":4,"valence":"lose","action":"no-go","sham":0,"trial_type":"pit-trial","trial_index":252,"time_elapsed":1036930,"internal_node_id":"0.0-241.0","task_version":"battery-v0.1"},{"rune":"B","hex":"#f73b6a7A","correct":32,"choice":32,"rt":270.1849999721162,"accuracy":1,"outcome":"-1","keys":[1773.2349999714643],"total_keys":1,"block":2,"trial":239,"robot":3,"valence":"lose","action":"go","sham":0,"trial_type":"pit-trial","trial_index":253,"time_elapsed":1039928,"internal_node_id":"0.0-242.0","task_version":"battery-v0.1"},{"rune":"T","hex":"#f73b6a7A","correct":32,"choice":32,"rt":469.0749999717809,"accuracy":1,"outcome":"-1","keys":[1973.3099999721162],"total_keys":1,"block":2,"trial":240,"robot":3,"valence":"lose","action":"go","sham":0,"trial_type":"pit-trial","trial_index":254,"time_elapsed":1043128,"internal_node_id":"0.0-243.0","task_version":"battery-v0.1"},{"view_history":"[{\"page_index\":0,\"viewing_time\":1703.635000041686}]","rt":1705.7150000473484,"trial_type":"pit-instructions","trial_index":255,"time_elapsed":1044854,"internal_node_id":"0.0-244.0","task_version":"battery-v0.1"},{"rt":12699.364999949466,"responses":{"age":"24","gender-categorical":"Female","gender-free-response":"","ethnicity":"Not Hispanic or Latino","race":["Black or African American"],"language":"Yes","fluency":"Very well"},"survey":"demographics","trial_type":"survey-demo","trial_index":256,"time_elapsed":1057588,"internal_node_id":"0.0-245.0","task_version":"battery-v0.1"},{"rt":57934.164999984205,"responses":{"difficulty":"2","fun":"3","clarity":"5","strategy":"I tried to remember the letter on the robot and whether fixing that particular robot would have a higher point gain /loss  impact ","feedback":""},"survey":"debrief","trial_type":"survey-debrief","trial_index":257,"time_elapsed":1115549,"internal_node_id":"0.0-246.0","task_version":"battery-v0.1","interactions":"[]"}]