[{"view_history":"[{\"page_index\":0,\"viewing_time\":2060.939999995753},{\"page_index\":1,\"viewing_time\":2839.7550000227056},{\"page_index\":2,\"viewing_time\":3519.4350000238046},{\"page_index\":3,\"viewing_time\":3800.4849999560975},{\"page_index\":4,\"viewing_time\":2832.075000042096},{\"page_index\":5,\"viewing_time\":4223.7699999823235}]","rt":19277.18500001356,"trial_type":"pit-instructions","trial_index":0,"time_elapsed":19285,"internal_node_id":"0.0-0.0-0.0","task_version":"battery-v0.1"},{"rune":"","hex":"#FFFFF080","correct":32,"choice":-1,"rt":-1,"accuracy":0,"outcome":"+0","keys":[],"total_keys":0,"block":0,"trial_type":"pit-trial","trial_index":1,"time_elapsed":23289,"internal_node_id":"0.0-0.0-1.0-0.0","task_version":"battery-v0.1"},{"rune":"","hex":"#FFFFF080","correct":32,"choice":-1,"rt":-1,"accuracy":0,"outcome":"+0","keys":[],"total_keys":0,"block":0,"trial_type":"pit-trial","trial_index":2,"time_elapsed":27305,"internal_node_id":"0.0-0.0-1.0-0.1","task_version":"battery-v0.1"},{"rune":"","hex":"#FFFFF080","correct":32,"choice":-1,"rt":-1,"accuracy":0,"outcome":"+0","keys":[],"total_keys":0,"block":0,"trial_type":"pit-trial","trial_index":3,"time_elapsed":31308,"internal_node_id":"0.0-0.0-1.0-0.2","task_version":"battery-v0.1"},{"rune":"","hex":"#FFFFF080","correct":32,"choice":32,"rt":428.5000000381842,"accuracy":1,"outcome":"+10","keys":[1929.474999953527],"total_keys":1,"block":0,"trial_type":"pit-trial","trial_index":4,"time_elapsed":34440,"internal_node_id":"0.0-0.0-1.0-0.3","task_version":"battery-v0.1"},{"view_history":"[{\"page_index\":0,\"viewing_time\":3283.6649999953806}]","rt":3284.034999960568,"trial_type":"pit-instructions","trial_index":5,"time_elapsed":37725,"internal_node_id":"0.0-0.0-2.0","task_version":"battery-v0.1"},{"rune":"","hex":"#FFFFF080","correct":-1,"choice":-1,"rt":-1,"accuracy":1,"outcome":"+10","keys":[],"total_keys":0,"block":0,"trial_type":"pit-trial","trial_index":6,"time_elapsed":41728,"internal_node_id":"0.0-0.0-3.0-0.0","task_version":"battery-v0.1"},{"rune":"","hex":"#FFFFF080","correct":-1,"choice":-1,"rt":-1,"accuracy":1,"outcome":"+10","keys":[],"total_keys":0,"block":0,"trial_type":"pit-trial","trial_index":7,"time_elapsed":45732,"internal_node_id":"0.0-0.0-3.0-0.1","task_version":"battery-v0.1"},{"rune":"","hex":"#FFFFF080","correct":-1,"choice":-1,"rt":-1,"accuracy":1,"outcome":"+10","keys":[],"total_keys":0,"block":0,"trial_type":"pit-trial","trial_index":8,"time_elapsed":49735,"internal_node_id":"0.0-0.0-3.0-0.2","task_version":"battery-v0.1"},{"rune":"","hex":"#FFFFF080","correct":-1,"choice":-1,"rt":-1,"accuracy":1,"outcome":"+10","keys":[],"total_keys":0,"block":0,"trial_type":"pit-trial","trial_index":9,"time_elapsed":53739,"internal_node_id":"0.0-0.0-3.0-0.3","task_version":"battery-v0.1"},{"responses":["Press SPACE","Do nothing"],"num_errors":0,"rt":4608.085000014398,"trial_type":"pit-comprehension","trial_index":10,"time_elapsed":58349,"internal_node_id":"0.0-0.0-4.0","task_version":"battery-v0.1"},{"view_history":"[{\"page_index\":0,\"viewing_time\":4043.660000024829},{\"page_index\":1,\"viewing_time\":4743.454999988899},{\"page_index\":2,\"viewing_time\":4056.159999978263},{\"page_index\":3,\"viewing_time\":4464.5100000198},{\"page_index\":4,\"viewing_time\":3240.460000000894},{\"page_index\":5,\"viewing_time\":9263.280000013765},{\"page_index\":6,\"viewing_time\":10712.085000006482},{\"page_index\":7,\"viewing_time\":5007.774999947287},{\"page_index\":8,\"viewing_time\":3184.395000047516},{\"page_index\":9,\"viewing_time\":1944.0299999550916},{\"page_index\":10,\"viewing_time\":1400.0500000547618}]","rt":52060.21000002511,"trial_type":"pit-instructions","trial_index":11,"time_elapsed":110413,"internal_node_id":"0.0-1.0-0.0","task_version":"battery-v0.1"},{"responses":["+10","-1","True","True"],"num_errors":0,"rt":11254.099999961909,"trial_type":"pit-comprehension","trial_index":12,"time_elapsed":121669,"internal_node_id":"0.0-1.0-1.0","task_version":"battery-v0.1"},{"view_history":"[{\"page_index\":0,\"viewing_time\":1893.1549999979325},{\"page_index\":1,\"viewing_time\":3584.4900000374764}]","rt":5477.965000027325,"trial_type":"pit-instructions","trial_index":13,"time_elapsed":127150,"internal_node_id":"0.0-2.0","task_version":"battery-v0.1"},{"rune":"N","hex":"#3366ff99","correct":-1,"choice":32,"rt":1073.9600000088103,"accuracy":0,"outcome":"+1","keys":[2574.8400000156835],"total_keys":1,"block":1,"trial":1,"robot":2,"valence":"win","action":"no-go","sham":0,"trial_type":"pit-trial","trial_index":14,"time_elapsed":130929,"internal_node_id":"0.0-3.0","task_version":"battery-v0.1"},{"rune":"S","hex":"#3366ff99","correct":32,"choice":32,"rt":395.81499999621883,"accuracy":1,"outcome":"+10","keys":[1896.9749999814667],"total_keys":1,"block":1,"trial":2,"robot":1,"valence":"win","action":"go","sham":0,"trial_type":"pit-trial","trial_index":15,"time_elapsed":134028,"internal_node_id":"0.0-4.0","task_version":"battery-v0.1"},{"rune":"H","hex":"#f73b6a7A","correct":-1,"choice":32,"rt":801.7699999618344,"accuracy":0,"outcome":"-1","keys":[2302.1600000211038],"total_keys":1,"block":1,"trial":3,"robot":4,"valence":"lose","action":"no-go","sham":1,"trial_type":"pit-trial","trial_index":16,"time_elapsed":137533,"internal_node_id":"0.0-5.0","task_version":"battery-v0.1"},{"rune":"W","hex":"#f73b6a7A","correct":-1,"choice":32,"rt":612.6950000179932,"accuracy":0,"outcome":"-10","keys":[2113.6399999959394],"total_keys":1,"block":1,"trial":4,"robot":4,"valence":"lose","action":"no-go","sham":0,"trial_type":"pit-trial","trial_index":17,"time_elapsed":140850,"internal_node_id":"0.0-6.0","task_version":"battery-v0.1"},{"rune":"S","hex":"#3366ff99","correct":32,"choice":32,"rt":522.9750000289641,"accuracy":1,"outcome":"+10","keys":[2024.0950000006706],"total_keys":1,"block":1,"trial":5,"robot":1,"valence":"win","action":"go","sham":0,"trial_type":"pit-trial","trial_index":18,"time_elapsed":144076,"internal_node_id":"0.0-7.0","task_version":"battery-v0.1"},{"rune":"W","hex":"#f73b6a7A","correct":-1,"choice":32,"rt":999.2900000070222,"accuracy":0,"outcome":"-1","keys":[2499.5900000212714],"total_keys":1,"block":1,"trial":6,"robot":4,"valence":"lose","action":"no-go","sham":1,"trial_type":"pit-trial","trial_index":19,"time_elapsed":147779,"internal_node_id":"0.0-8.0","task_version":"battery-v0.1"},{"rune":"H","hex":"#f73b6a7A","correct":-1,"choice":-1,"rt":-1,"accuracy":1,"outcome":"-1","keys":[],"total_keys":0,"block":1,"trial":7,"robot":4,"valence":"lose","action":"no-go","sham":0,"trial_type":"pit-trial","trial_index":20,"time_elapsed":151781,"internal_node_id":"0.0-9.0","task_version":"battery-v0.1"},{"rune":"N","hex":"#3366ff99","correct":-1,"choice":-1,"rt":-1,"accuracy":1,"outcome":"+10","keys":[],"total_keys":0,"block":1,"trial":8,"robot":2,"valence":"win","action":"no-go","sham":0,"trial_type":"pit-trial","trial_index":21,"time_elapsed":155784,"internal_node_id":"0.0-10.0","task_version":"battery-v0.1"},{"rune":"S","hex":"#3366ff99","correct":32,"choice":32,"rt":521.2699999683537,"accuracy":1,"outcome":"+10","keys":[2021.5550000430085],"total_keys":1,"block":1,"trial":9,"robot":1,"valence":"win","action":"go","sham":0,"trial_type":"pit-trial","trial_index":22,"time_elapsed":159008,"internal_node_id":"0.0-11.0","task_version":"battery-v0.1"},{"rune":"W","hex":"#f73b6a7A","correct":-1,"choice":32,"rt":410.8600000035949,"accuracy":0,"outcome":"-10","keys":[1911.1149999662302],"total_keys":1,"block":1,"trial":10,"robot":4,"valence":"lose","action":"no-go","sham":0,"trial_type":"pit-trial","trial_index":23,"time_elapsed":162123,"internal_node_id":"0.0-12.0","task_version":"battery-v0.1"},{"rune":"H","hex":"#f73b6a7A","correct":-1,"choice":32,"rt":789.6750000072643,"accuracy":0,"outcome":"-10","keys":[2290.55499995593],"total_keys":1,"block":1,"trial":11,"robot":4,"valence":"lose","action":"no-go","sham":0,"trial_type":"pit-trial","trial_index":24,"time_elapsed":165615,"internal_node_id":"0.0-13.0","task_version":"battery-v0.1"},{"rune":"N","hex":"#3366ff99","correct":-1,"choice":-1,"rt":-1,"accuracy":1,"outcome":"+10","keys":[],"total_keys":0,"block":1,"trial":12,"robot":2,"valence":"win","action":"no-go","sham":0,"trial_type":"pit-trial","trial_index":25,"time_elapsed":169618,"internal_node_id":"0.0-14.0","task_version":"battery-v0.1"},{"rune":"W","hex":"#f73b6a7A","correct":-1,"choice":32,"rt":592.8149999817833,"accuracy":0,"outcome":"-1","keys":[2094.3349999724887],"total_keys":1,"block":1,"trial":13,"robot":4,"valence":"lose","action":"no-go","sham":1,"trial_type":"pit-trial","trial_index":26,"time_elapsed":172916,"internal_node_id":"0.0-15.0","task_version":"battery-v0.1"},{"rune":"H","hex":"#f73b6a7A","correct":-1,"choice":-1,"rt":-1,"accuracy":1,"outcome":"-1","keys":[],"total_keys":0,"block":1,"trial":14,"robot":4,"valence":"lose","action":"no-go","sham":0,"trial_type":"pit-trial","trial_index":27,"time_elapsed":176919,"internal_node_id":"0.0-16.0","task_version":"battery-v0.1"},{"rune":"N","hex":"#3366ff99","correct":-1,"choice":-1,"rt":-1,"accuracy":1,"outcome":"+10","keys":[],"total_keys":0,"block":1,"trial":15,"robot":2,"valence":"win","action":"no-go","sham":0,"trial_type":"pit-trial","trial_index":28,"time_elapsed":180922,"internal_node_id":"0.0-17.0","task_version":"battery-v0.1"},{"rune":"S","hex":"#3366ff99","correct":32,"choice":32,"rt":407.9599999822676,"accuracy":1,"outcome":"+10","keys":[1908.6549999774434],"total_keys":1,"block":1,"trial":16,"robot":1,"valence":"win","action":"go","sham":0,"trial_type":"pit-trial","trial_index":29,"time_elapsed":184032,"internal_node_id":"0.0-18.0","task_version":"battery-v0.1"},{"rune":"S","hex":"#3366ff99","correct":32,"choice":32,"rt":1112.7850000048056,"accuracy":1,"outcome":"+10","keys":[2613.2050000014715],"total_keys":1,"block":1,"trial":17,"robot":1,"valence":"win","action":"go","sham":0,"trial_type":"pit-trial","trial_index":30,"time_elapsed":187847,"internal_node_id":"0.0-19.0","task_version":"battery-v0.1"},{"rune":"H","hex":"#f73b6a7A","correct":-1,"choice":-1,"rt":-1,"accuracy":1,"outcome":"-1","keys":[],"total_keys":0,"block":1,"trial":18,"robot":4,"valence":"lose","action":"no-go","sham":0,"trial_type":"pit-trial","trial_index":31,"time_elapsed":191851,"internal_node_id":"0.0-20.0","task_version":"battery-v0.1"},{"rune":"W","hex":"#f73b6a7A","correct":-1,"choice":32,"rt":613.2050000014715,"accuracy":0,"outcome":"-10","keys":[2114.289999997709],"total_keys":1,"block":1,"trial":19,"robot":4,"valence":"lose","action":"no-go","sham":0,"trial_type":"pit-trial","trial_index":32,"time_elapsed":195168,"internal_node_id":"0.0-21.0","task_version":"battery-v0.1"},{"rune":"N","hex":"#3366ff99","correct":-1,"choice":-1,"rt":-1,"accuracy":1,"outcome":"+1","keys":[],"total_keys":0,"block":1,"trial":20,"robot":2,"valence":"win","action":"no-go","sham":1,"trial_type":"pit-trial","trial_index":33,"time_elapsed":199172,"internal_node_id":"0.0-22.0","task_version":"battery-v0.1"},{"rune":"N","hex":"#3366ff99","correct":-1,"choice":-1,"rt":-1,"accuracy":1,"outcome":"+1","keys":[],"total_keys":0,"block":1,"trial":21,"robot":2,"valence":"win","action":"no-go","sham":1,"trial_type":"pit-trial","trial_index":34,"time_elapsed":203176,"internal_node_id":"0.0-23.0","task_version":"battery-v0.1"},{"rune":"H","hex":"#f73b6a7A","correct":-1,"choice":-1,"rt":-1,"accuracy":1,"outcome":"-10","keys":[],"total_keys":0,"block":1,"trial":22,"robot":4,"valence":"lose","action":"no-go","sham":1,"trial_type":"pit-trial","trial_index":35,"time_elapsed":207179,"internal_node_id":"0.0-24.0","task_version":"battery-v0.1"},{"rune":"S","hex":"#3366ff99","correct":32,"choice":32,"rt":600.3500000224449,"accuracy":1,"outcome":"+1","keys":[2101.3999999850057],"total_keys":1,"block":1,"trial":23,"robot":1,"valence":"win","action":"go","sham":1,"trial_type":"pit-trial","trial_index":36,"time_elapsed":210483,"internal_node_id":"0.0-25.0","task_version":"battery-v0.1"},{"rune":"W","hex":"#f73b6a7A","correct":-1,"choice":32,"rt":697.3500000312924,"accuracy":0,"outcome":"-1","keys":[2198.755000019446],"total_keys":1,"block":1,"trial":24,"robot":4,"valence":"lose","action":"no-go","sham":1,"trial_type":"pit-trial","trial_index":37,"time_elapsed":213884,"internal_node_id":"0.0-26.0","task_version":"battery-v0.1"},{"rune":"W","hex":"#f73b6a7A","correct":-1,"choice":32,"rt":569.45499998983,"accuracy":0,"outcome":"-1","keys":[2070.899999991525],"total_keys":1,"block":1,"trial":25,"robot":4,"valence":"lose","action":"no-go","sham":1,"trial_type":"pit-trial","trial_index":38,"time_elapsed":217157,"internal_node_id":"0.0-27.0","task_version":"battery-v0.1"},{"rune":"N","hex":"#3366ff99","correct":-1,"choice":32,"rt":423.6500000115484,"accuracy":0,"outcome":"+1","keys":[1924.4499999913387],"total_keys":1,"block":1,"trial":26,"robot":2,"valence":"win","action":"no-go","sham":0,"trial_type":"pit-trial","trial_index":39,"time_elapsed":220284,"internal_node_id":"0.0-28.0","task_version":"battery-v0.1"},{"rune":"S","hex":"#3366ff99","correct":32,"choice":32,"rt":528.2199999783188,"accuracy":1,"outcome":"+10","keys":[2029.244999983348],"total_keys":1,"block":1,"trial":27,"robot":1,"valence":"win","action":"go","sham":0,"trial_type":"pit-trial","trial_index":40,"time_elapsed":223516,"internal_node_id":"0.0-29.0","task_version":"battery-v0.1"},{"rune":"H","hex":"#f73b6a7A","correct":-1,"choice":-1,"rt":-1,"accuracy":1,"outcome":"-1","keys":[],"total_keys":0,"block":1,"trial":28,"robot":4,"valence":"lose","action":"no-go","sham":0,"trial_type":"pit-trial","trial_index":41,"time_elapsed":227519,"internal_node_id":"0.0-30.0","task_version":"battery-v0.1"},{"rune":"N","hex":"#3366ff99","correct":-1,"choice":32,"rt":359.67999999411404,"accuracy":0,"outcome":"+1","keys":[1860.5400000233203],"total_keys":1,"block":1,"trial":29,"robot":2,"valence":"win","action":"no-go","sham":0,"trial_type":"pit-trial","trial_index":42,"time_elapsed":230582,"internal_node_id":"0.0-31.0","task_version":"battery-v0.1"},{"rune":"W","hex":"#f73b6a7A","correct":-1,"choice":32,"rt":667.81000001356,"accuracy":0,"outcome":"-10","keys":[2169.114999996964],"total_keys":1,"block":1,"trial":30,"robot":4,"valence":"lose","action":"no-go","sham":0,"trial_type":"pit-trial","trial_index":43,"time_elapsed":233953,"internal_node_id":"0.0-32.0","task_version":"battery-v0.1"},{"rune":"S","hex":"#3366ff99","correct":32,"choice":32,"rt":502.21499998588115,"accuracy":1,"outcome":"+10","keys":[2002.5799999712035],"total_keys":1,"block":1,"trial":31,"robot":1,"valence":"win","action":"go","sham":0,"trial_type":"pit-trial","trial_index":44,"time_elapsed":237158,"internal_node_id":"0.0-33.0","task_version":"battery-v0.1"},{"rune":"H","hex":"#f73b6a7A","correct":-1,"choice":32,"rt":713.1800000206567,"accuracy":0,"outcome":"-1","keys":[2214.6100000245497],"total_keys":1,"block":1,"trial":32,"robot":4,"valence":"lose","action":"no-go","sham":1,"trial_type":"pit-trial","trial_index":45,"time_elapsed":240575,"internal_node_id":"0.0-34.0","task_version":"battery-v0.1"},{"rune":"H","hex":"#f73b6a7A","correct":-1,"choice":-1,"rt":-1,"accuracy":1,"outcome":"-1","keys":[],"total_keys":0,"block":1,"trial":33,"robot":4,"valence":"lose","action":"no-go","sham":0,"trial_type":"pit-trial","trial_index":46,"time_elapsed":244579,"internal_node_id":"0.0-35.0","task_version":"battery-v0.1"},{"rune":"U","hex":"#f73b6a7A","correct":32,"choice":32,"rt":971.7449999880046,"accuracy":1,"outcome":"-1","keys":[2472.4899999564514],"total_keys":1,"block":1,"trial":34,"robot":3,"valence":"lose","action":"go","sham":0,"trial_type":"pit-trial","trial_index":47,"time_elapsed":248255,"internal_node_id":"0.0-36.0","task_version":"battery-v0.1"},{"rune":"N","hex":"#3366ff99","correct":-1,"choice":32,"rt":601.4049999648705,"accuracy":0,"outcome":"+1","keys":[2103.2849999610335],"total_keys":1,"block":1,"trial":35,"robot":2,"valence":"win","action":"no-go","sham":0,"trial_type":"pit-trial","trial_index":48,"time_elapsed":251560,"internal_node_id":"0.0-37.0","task_version":"battery-v0.1"},{"rune":"S","hex":"#3366ff99","correct":32,"choice":32,"rt":415.5299999983981,"accuracy":1,"outcome":"+1","keys":[1916.2600000272505],"total_keys":1,"block":1,"trial":36,"robot":1,"valence":"win","action":"go","sham":1,"trial_type":"pit-trial","trial_index":49,"time_elapsed":254679,"internal_node_id":"0.0-38.0","task_version":"battery-v0.1"},{"rune":"U","hex":"#f73b6a7A","correct":32,"choice":32,"rt":519.4250000058673,"accuracy":1,"outcome":"-10","keys":[2020.1699999743141],"total_keys":1,"block":1,"trial":37,"robot":3,"valence":"lose","action":"go","sham":1,"trial_type":"pit-trial","trial_index":50,"time_elapsed":257901,"internal_node_id":"0.0-39.0","task_version":"battery-v0.1"},{"rune":"S","hex":"#3366ff99","correct":32,"choice":32,"rt":553.6499999579974,"accuracy":1,"outcome":"+1","keys":[2054.539999982808],"total_keys":1,"block":1,"trial":38,"robot":1,"valence":"win","action":"go","sham":1,"trial_type":"pit-trial","trial_index":51,"time_elapsed":261158,"internal_node_id":"0.0-40.0","task_version":"battery-v0.1"},{"rune":"N","hex":"#3366ff99","correct":-1,"choice":32,"rt":1158.1250000162981,"accuracy":0,"outcome":"+10","keys":[2658.8950000004843],"total_keys":1,"block":1,"trial":39,"robot":2,"valence":"win","action":"no-go","sham":1,"trial_type":"pit-trial","trial_index":52,"time_elapsed":265019,"internal_node_id":"0.0-41.0","task_version":"battery-v0.1"},{"rune":"H","hex":"#f73b6a7A","correct":-1,"choice":32,"rt":508.5149999940768,"accuracy":0,"outcome":"-10","keys":[2008.7899999925867],"total_keys":1,"block":1,"trial":40,"robot":4,"valence":"lose","action":"no-go","sham":0,"trial_type":"pit-trial","trial_index":53,"time_elapsed":268231,"internal_node_id":"0.0-42.0","task_version":"battery-v0.1"},{"rune":"H","hex":"#f73b6a7A","correct":-1,"choice":-1,"rt":-1,"accuracy":1,"outcome":"-1","keys":[],"total_keys":0,"block":1,"trial":41,"robot":4,"valence":"lose","action":"no-go","sham":0,"trial_type":"pit-trial","trial_index":54,"time_elapsed":272235,"internal_node_id":"0.0-43.0","task_version":"battery-v0.1"},{"rune":"E","hex":"#3366ff99","correct":32,"choice":32,"rt":879.1199999977835,"accuracy":1,"outcome":"+10","keys":[2380.5100000463426],"total_keys":1,"block":1,"trial":42,"robot":1,"valence":"win","action":"go","sham":0,"trial_type":"pit-trial","trial_index":55,"time_elapsed":275818,"internal_node_id":"0.0-44.0","task_version":"battery-v0.1"},{"rune":"V","hex":"#3366ff99","correct":-1,"choice":-1,"rt":-1,"accuracy":1,"outcome":"+10","keys":[],"total_keys":0,"block":1,"trial":43,"robot":2,"valence":"win","action":"no-go","sham":0,"trial_type":"pit-trial","trial_index":56,"time_elapsed":279822,"internal_node_id":"0.0-45.0","task_version":"battery-v0.1"},{"rune":"U","hex":"#f73b6a7A","correct":32,"choice":32,"rt":772.6100000436418,"accuracy":1,"outcome":"-1","keys":[2272.9899999685585],"total_keys":1,"block":1,"trial":44,"robot":3,"valence":"lose","action":"go","sham":0,"trial_type":"pit-trial","trial_index":57,"time_elapsed":283297,"internal_node_id":"0.0-46.0","task_version":"battery-v0.1"},{"rune":"V","hex":"#3366ff99","correct":-1,"choice":32,"rt":551.8449999508448,"accuracy":0,"outcome":"+10","keys":[2053.124999976717],"total_keys":1,"block":1,"trial":45,"robot":2,"valence":"win","action":"no-go","sham":1,"trial_type":"pit-trial","trial_index":58,"time_elapsed":286553,"internal_node_id":"0.0-47.0","task_version":"battery-v0.1"},{"rune":"U","hex":"#f73b6a7A","correct":32,"choice":32,"rt":988.1949999835342,"accuracy":1,"outcome":"-10","keys":[2488.260000012815],"total_keys":1,"block":1,"trial":46,"robot":3,"valence":"lose","action":"go","sham":1,"trial_type":"pit-trial","trial_index":59,"time_elapsed":290243,"internal_node_id":"0.0-48.0","task_version":"battery-v0.1"},{"rune":"E","hex":"#3366ff99","correct":32,"choice":32,"rt":551.050000009127,"accuracy":1,"outcome":"+10","keys":[2051.2150000431575],"total_keys":1,"block":1,"trial":47,"robot":1,"valence":"win","action":"go","sham":0,"trial_type":"pit-trial","trial_index":60,"time_elapsed":293497,"internal_node_id":"0.0-49.0","task_version":"battery-v0.1"},{"rune":"H","hex":"#f73b6a7A","correct":-1,"choice":32,"rt":807.6700000092387,"accuracy":0,"outcome":"-1","keys":[2308.5100000025705],"total_keys":1,"block":1,"trial":48,"robot":4,"valence":"lose","action":"no-go","sham":1,"trial_type":"pit-trial","trial_index":61,"time_elapsed":297008,"internal_node_id":"0.0-50.0","task_version":"battery-v0.1"},{"rune":"I","hex":"#f73b6a7A","correct":-1,"choice":32,"rt":662.1000000159256,"accuracy":0,"outcome":"-10","keys":[2163.539999979548],"total_keys":1,"block":1,"trial":49,"robot":4,"valence":"lose","action":"no-go","sham":0,"trial_type":"pit-trial","trial_index":62,"time_elapsed":300374,"internal_node_id":"0.0-51.0","task_version":"battery-v0.1"},{"rune":"U","hex":"#f73b6a7A","correct":32,"choice":32,"rt":546.0900000180118,"accuracy":1,"outcome":"-1","keys":[2047.3049999563955],"total_keys":1,"block":1,"trial":50,"robot":3,"valence":"lose","action":"go","sham":0,"trial_type":"pit-trial","trial_index":63,"time_elapsed":303623,"internal_node_id":"0.0-52.0","task_version":"battery-v0.1"},{"rune":"V","hex":"#3366ff99","correct":-1,"choice":32,"rt":1077.9099999926984,"accuracy":0,"outcome":"+10","keys":[2578.6250000237487],"total_keys":1,"block":1,"trial":51,"robot":2,"valence":"win","action":"no-go","sham":1,"trial_type":"pit-trial","trial_index":64,"time_elapsed":307404,"internal_node_id":"0.0-53.0","task_version":"battery-v0.1"},{"rune":"E","hex":"#3366ff99","correct":32,"choice":32,"rt":1070.449999999255,"accuracy":1,"outcome":"+10","keys":[2571.174999990035],"total_keys":1,"block":1,"trial":52,"robot":1,"valence":"win","action":"go","sham":0,"trial_type":"pit-trial","trial_index":65,"time_elapsed":311178,"internal_node_id":"0.0-54.0","task_version":"battery-v0.1"},{"rune":"E","hex":"#3366ff99","correct":32,"choice":-1,"rt":-1,"accuracy":0,"outcome":"+1","keys":[],"total_keys":0,"block":1,"trial":53,"robot":1,"valence":"win","action":"go","sham":0,"trial_type":"pit-trial","trial_index":66,"time_elapsed":315180,"internal_node_id":"0.0-55.0","task_version":"battery-v0.1"},{"rune":"U","hex":"#f73b6a7A","correct":32,"choice":32,"rt":593.5549999703653,"accuracy":1,"outcome":"-10","keys":[2094.534999981988],"total_keys":1,"block":1,"trial":54,"robot":3,"valence":"lose","action":"go","sham":1,"trial_type":"pit-trial","trial_index":67,"time_elapsed":318478,"internal_node_id":"0.0-56.0","task_version":"battery-v0.1"},{"rune":"I","hex":"#f73b6a7A","correct":-1,"choice":32,"rt":480.6550000212155,"accuracy":0,"outcome":"-10","keys":[1982.4500000104308],"total_keys":1,"block":1,"trial":55,"robot":4,"valence":"lose","action":"no-go","sham":0,"trial_type":"pit-trial","trial_index":68,"time_elapsed":321663,"internal_node_id":"0.0-57.0","task_version":"battery-v0.1"},{"rune":"V","hex":"#3366ff99","correct":-1,"choice":32,"rt":1205.4950000019744,"accuracy":0,"outcome":"+1","keys":[2706.6200000117533],"total_keys":1,"block":1,"trial":56,"robot":2,"valence":"win","action":"no-go","sham":0,"trial_type":"pit-trial","trial_index":69,"time_elapsed":325572,"internal_node_id":"0.0-58.0","task_version":"battery-v0.1"},{"rune":"U","hex":"#f73b6a7A","correct":32,"choice":-1,"rt":-1,"accuracy":0,"outcome":"-10","keys":[],"total_keys":0,"block":1,"trial":57,"robot":3,"valence":"lose","action":"go","sham":0,"trial_type":"pit-trial","trial_index":70,"time_elapsed":329578,"internal_node_id":"0.0-59.0","task_version":"battery-v0.1"},{"rune":"V","hex":"#3366ff99","correct":-1,"choice":32,"rt":551.3950000167824,"accuracy":0,"outcome":"+1","keys":[2053.01499995403],"total_keys":1,"block":1,"trial":58,"robot":2,"valence":"win","action":"no-go","sham":0,"trial_type":"pit-trial","trial_index":71,"time_elapsed":332833,"internal_node_id":"0.0-60.0","task_version":"battery-v0.1"},{"rune":"E","hex":"#3366ff99","correct":32,"choice":32,"rt":559.5450000255369,"accuracy":1,"outcome":"+10","keys":[2060.524999978952],"total_keys":1,"block":1,"trial":59,"robot":1,"valence":"win","action":"go","sham":0,"trial_type":"pit-trial","trial_index":72,"time_elapsed":336097,"internal_node_id":"0.0-61.0","task_version":"battery-v0.1"},{"rune":"I","hex":"#f73b6a7A","correct":-1,"choice":32,"rt":586.5900000208057,"accuracy":0,"outcome":"-10","keys":[2087.485000025481],"total_keys":1,"block":1,"trial":60,"robot":4,"valence":"lose","action":"no-go","sham":0,"trial_type":"pit-trial","trial_index":73,"time_elapsed":339386,"internal_node_id":"0.0-62.0","task_version":"battery-v0.1"},{"rune":"U","hex":"#f73b6a7A","correct":32,"choice":-1,"rt":-1,"accuracy":0,"outcome":"-10","keys":[],"total_keys":0,"block":1,"trial":61,"robot":3,"valence":"lose","action":"go","sham":0,"trial_type":"pit-trial","trial_index":74,"time_elapsed":343390,"internal_node_id":"0.0-63.0","task_version":"battery-v0.1"},{"rune":"E","hex":"#3366ff99","correct":32,"choice":32,"rt":391.00999996298924,"accuracy":1,"outcome":"+10","keys":[1891.1899999948218],"total_keys":1,"block":1,"trial":62,"robot":1,"valence":"win","action":"go","sham":0,"trial_type":"pit-trial","trial_index":75,"time_elapsed":346484,"internal_node_id":"0.0-64.0","task_version":"battery-v0.1"},{"rune":"V","hex":"#3366ff99","correct":-1,"choice":32,"rt":755.3199999965727,"accuracy":0,"outcome":"+1","keys":[2255.494999990333],"total_keys":1,"block":1,"trial":63,"robot":2,"valence":"win","action":"no-go","sham":0,"trial_type":"pit-trial","trial_index":76,"time_elapsed":349941,"internal_node_id":"0.0-65.0","task_version":"battery-v0.1"},{"rune":"I","hex":"#f73b6a7A","correct":-1,"choice":-1,"rt":-1,"accuracy":1,"outcome":"-1","keys":[],"total_keys":0,"block":1,"trial":64,"robot":4,"valence":"lose","action":"no-go","sham":0,"trial_type":"pit-trial","trial_index":77,"time_elapsed":353947,"internal_node_id":"0.0-66.0","task_version":"battery-v0.1"},{"rune":"E","hex":"#3366ff99","correct":32,"choice":32,"rt":344.20499997213483,"accuracy":1,"outcome":"+10","keys":[1845.6400000141002],"total_keys":1,"block":1,"trial":65,"robot":1,"valence":"win","action":"go","sham":0,"trial_type":"pit-trial","trial_index":78,"time_elapsed":356994,"internal_node_id":"0.0-67.0","task_version":"battery-v0.1"},{"rune":"U","hex":"#f73b6a7A","correct":32,"choice":-1,"rt":-1,"accuracy":0,"outcome":"-10","keys":[],"total_keys":0,"block":1,"trial":66,"robot":3,"valence":"lose","action":"go","sham":0,"trial_type":"pit-trial","trial_index":79,"time_elapsed":360998,"internal_node_id":"0.0-68.0","task_version":"battery-v0.1"},{"rune":"I","hex":"#f73b6a7A","correct":-1,"choice":-1,"rt":-1,"accuracy":1,"outcome":"-1","keys":[],"total_keys":0,"block":1,"trial":67,"robot":4,"valence":"lose","action":"no-go","sham":0,"trial_type":"pit-trial","trial_index":80,"time_elapsed":365003,"internal_node_id":"0.0-69.0","task_version":"battery-v0.1"},{"rune":"V","hex":"#3366ff99","correct":-1,"choice":32,"rt":496.599999954924,"accuracy":0,"outcome":"+1","keys":[1997.1199999563396],"total_keys":1,"block":1,"trial":68,"robot":2,"valence":"win","action":"no-go","sham":0,"trial_type":"pit-trial","trial_index":81,"time_elapsed":368202,"internal_node_id":"0.0-70.0","task_version":"battery-v0.1"},{"rune":"E","hex":"#3366ff99","correct":32,"choice":32,"rt":383.2100000581704,"accuracy":1,"outcome":"+10","keys":[1884.574999974575],"total_keys":1,"block":1,"trial":69,"robot":1,"valence":"win","action":"go","sham":0,"trial_type":"pit-trial","trial_index":82,"time_elapsed":371289,"internal_node_id":"0.0-71.0","task_version":"battery-v0.1"},{"rune":"V","hex":"#3366ff99","correct":-1,"choice":-1,"rt":-1,"accuracy":1,"outcome":"+10","keys":[],"total_keys":0,"block":1,"trial":70,"robot":2,"valence":"win","action":"no-go","sham":0,"trial_type":"pit-trial","trial_index":83,"time_elapsed":375292,"internal_node_id":"0.0-72.0","task_version":"battery-v0.1"},{"rune":"I","hex":"#f73b6a7A","correct":-1,"choice":32,"rt":735.4949999717064,"accuracy":0,"outcome":"-10","keys":[2235.849999997299],"total_keys":1,"block":1,"trial":71,"robot":4,"valence":"lose","action":"no-go","sham":0,"trial_type":"pit-trial","trial_index":84,"time_elapsed":378730,"internal_node_id":"0.0-73.0","task_version":"battery-v0.1"},{"rune":"U","hex":"#f73b6a7A","correct":32,"choice":32,"rt":594.1299999831244,"accuracy":1,"outcome":"-10","keys":[2094.7349999914877],"total_keys":1,"block":1,"trial":72,"robot":3,"valence":"lose","action":"go","sham":1,"trial_type":"pit-trial","trial_index":85,"time_elapsed":382027,"internal_node_id":"0.0-74.0","task_version":"battery-v0.1"},{"rune":"X","hex":"#3366ff99","correct":32,"choice":32,"rt":685.9950000070967,"accuracy":1,"outcome":"+10","keys":[2186.615000013262],"total_keys":1,"block":1,"trial":73,"robot":1,"valence":"win","action":"go","sham":0,"trial_type":"pit-trial","trial_index":86,"time_elapsed":385415,"internal_node_id":"0.0-75.0","task_version":"battery-v0.1"},{"rune":"V","hex":"#3366ff99","correct":-1,"choice":-1,"rt":-1,"accuracy":1,"outcome":"+10","keys":[],"total_keys":0,"block":1,"trial":74,"robot":2,"valence":"win","action":"no-go","sham":0,"trial_type":"pit-trial","trial_index":87,"time_elapsed":389419,"internal_node_id":"0.0-76.0","task_version":"battery-v0.1"},{"rune":"I","hex":"#f73b6a7A","correct":-1,"choice":-1,"rt":-1,"accuracy":1,"outcome":"-1","keys":[],"total_keys":0,"block":1,"trial":75,"robot":4,"valence":"lose","action":"no-go","sham":0,"trial_type":"pit-trial","trial_index":88,"time_elapsed":393422,"internal_node_id":"0.0-77.0","task_version":"battery-v0.1"},{"rune":"B","hex":"#f73b6a7A","correct":32,"choice":32,"rt":686.5899999975227,"accuracy":1,"outcome":"-1","keys":[2187.069999985397],"total_keys":1,"block":1,"trial":76,"robot":3,"valence":"lose","action":"go","sham":0,"trial_type":"pit-trial","trial_index":89,"time_elapsed":396812,"internal_node_id":"0.0-78.0","task_version":"battery-v0.1"},{"rune":"B","hex":"#f73b6a7A","correct":32,"choice":32,"rt":842.2549999668263,"accuracy":1,"outcome":"-1","keys":[2342.5150000257418],"total_keys":1,"block":1,"trial":77,"robot":3,"valence":"lose","action":"go","sham":0,"trial_type":"pit-trial","trial_index":90,"time_elapsed":400358,"internal_node_id":"0.0-79.0","task_version":"battery-v0.1"},{"rune":"I","hex":"#f73b6a7A","correct":-1,"choice":32,"rt":572.2949999617413,"accuracy":0,"outcome":"-10","keys":[2072.974999959115],"total_keys":1,"block":1,"trial":78,"robot":4,"valence":"lose","action":"no-go","sham":0,"trial_type":"pit-trial","trial_index":91,"time_elapsed":403633,"internal_node_id":"0.0-80.0","task_version":"battery-v0.1"},{"rune":"X","hex":"#3366ff99","correct":32,"choice":32,"rt":463.1500000250526,"accuracy":1,"outcome":"+10","keys":[1964.5350000355393],"total_keys":1,"block":1,"trial":79,"robot":1,"valence":"win","action":"go","sham":0,"trial_type":"pit-trial","trial_index":92,"time_elapsed":406800,"internal_node_id":"0.0-81.0","task_version":"battery-v0.1"},{"rune":"V","hex":"#3366ff99","correct":-1,"choice":32,"rt":790.8750000060536,"accuracy":0,"outcome":"+1","keys":[2291.7749999905936],"total_keys":1,"block":1,"trial":80,"robot":2,"valence":"win","action":"no-go","sham":0,"trial_type":"pit-trial","trial_index":93,"time_elapsed":410294,"internal_node_id":"0.0-82.0","task_version":"battery-v0.1"},{"rune":"X","hex":"#3366ff99","correct":32,"choice":32,"rt":598.1249999604188,"accuracy":1,"outcome":"+10","keys":[2098.2350000413135],"total_keys":1,"block":1,"trial":81,"robot":1,"valence":"win","action":"go","sham":0,"trial_type":"pit-trial","trial_index":94,"time_elapsed":413595,"internal_node_id":"0.0-83.0","task_version":"battery-v0.1"},{"rune":"V","hex":"#3366ff99","correct":-1,"choice":-1,"rt":-1,"accuracy":1,"outcome":"+1","keys":[],"total_keys":0,"block":1,"trial":82,"robot":2,"valence":"win","action":"no-go","sham":1,"trial_type":"pit-trial","trial_index":95,"time_elapsed":417599,"internal_node_id":"0.0-84.0","task_version":"battery-v0.1"},{"rune":"B","hex":"#f73b6a7A","correct":32,"choice":32,"rt":728.2300000078976,"accuracy":1,"outcome":"-1","keys":[2229.090000037104],"total_keys":1,"block":1,"trial":83,"robot":3,"valence":"lose","action":"go","sham":0,"trial_type":"pit-trial","trial_index":96,"time_elapsed":421031,"internal_node_id":"0.0-85.0","task_version":"battery-v0.1"},{"rune":"I","hex":"#f73b6a7A","correct":-1,"choice":32,"rt":459.55500000854954,"accuracy":0,"outcome":"-10","keys":[1961.3249999820255],"total_keys":1,"block":1,"trial":84,"robot":4,"valence":"lose","action":"no-go","sham":0,"trial_type":"pit-trial","trial_index":97,"time_elapsed":424194,"internal_node_id":"0.0-86.0","task_version":"battery-v0.1"},{"rune":"V","hex":"#3366ff99","correct":-1,"choice":32,"rt":416.05499997967854,"accuracy":0,"outcome":"+1","keys":[1917.009999975562],"total_keys":1,"block":1,"trial":85,"robot":2,"valence":"win","action":"no-go","sham":0,"trial_type":"pit-trial","trial_index":98,"time_elapsed":427313,"internal_node_id":"0.0-87.0","task_version":"battery-v0.1"},{"rune":"I","hex":"#f73b6a7A","correct":-1,"choice":-1,"rt":-1,"accuracy":1,"outcome":"-1","keys":[],"total_keys":0,"block":1,"trial":86,"robot":4,"valence":"lose","action":"no-go","sham":0,"trial_type":"pit-trial","trial_index":99,"time_elapsed":431316,"internal_node_id":"0.0-88.0","task_version":"battery-v0.1"},{"rune":"X","hex":"#3366ff99","correct":32,"choice":32,"rt":517.5850000232458,"accuracy":1,"outcome":"+10","keys":[2017.760000017006],"total_keys":1,"block":1,"trial":87,"robot":1,"valence":"win","action":"go","sham":0,"trial_type":"pit-trial","trial_index":100,"time_elapsed":434536,"internal_node_id":"0.0-89.0","task_version":"battery-v0.1"},{"rune":"B","hex":"#f73b6a7A","correct":32,"choice":-1,"rt":-1,"accuracy":0,"outcome":"-10","keys":[],"total_keys":0,"block":1,"trial":88,"robot":3,"valence":"lose","action":"go","sham":0,"trial_type":"pit-trial","trial_index":101,"time_elapsed":438539,"internal_node_id":"0.0-90.0","task_version":"battery-v0.1"},{"rune":"X","hex":"#3366ff99","correct":32,"choice":32,"rt":695.5599999637343,"accuracy":1,"outcome":"+10","keys":[2195.705000020098],"total_keys":1,"block":1,"trial":89,"robot":1,"valence":"win","action":"go","sham":0,"trial_type":"pit-trial","trial_index":102,"time_elapsed":441937,"internal_node_id":"0.0-91.0","task_version":"battery-v0.1"},{"rune":"B","hex":"#f73b6a7A","correct":32,"choice":-1,"rt":-1,"accuracy":0,"outcome":"-10","keys":[],"total_keys":0,"block":1,"trial":90,"robot":3,"valence":"lose","action":"go","sham":0,"trial_type":"pit-trial","trial_index":103,"time_elapsed":445941,"internal_node_id":"0.0-92.0","task_version":"battery-v0.1"},{"rune":"L","hex":"#f73b6a7A","correct":32,"choice":32,"rt":633.5049999761395,"accuracy":1,"outcome":"-1","keys":[2134.1900000115857],"total_keys":1,"block":1,"trial":91,"robot":3,"valence":"lose","action":"go","sham":0,"trial_type":"pit-trial","trial_index":104,"time_elapsed":449277,"internal_node_id":"0.0-93.0","task_version":"battery-v0.1"},{"rune":"D","hex":"#3366ff99","correct":-1,"choice":32,"rt":365.53499998990446,"accuracy":0,"outcome":"+1","keys":[1866.7000000132248],"total_keys":1,"block":1,"trial":92,"robot":2,"valence":"win","action":"no-go","sham":0,"trial_type":"pit-trial","trial_index":105,"time_elapsed":452348,"internal_node_id":"0.0-94.0","task_version":"battery-v0.1"},{"rune":"B","hex":"#f73b6a7A","correct":32,"choice":32,"rt":502.1749999723397,"accuracy":1,"outcome":"-1","keys":[2003.900000010617],"total_keys":1,"block":1,"trial":93,"robot":3,"valence":"lose","action":"go","sham":0,"trial_type":"pit-trial","trial_index":106,"time_elapsed":455553,"internal_node_id":"0.0-95.0","task_version":"battery-v0.1"},{"rune":"L","hex":"#f73b6a7A","correct":32,"choice":32,"rt":495.3249999671243,"accuracy":1,"outcome":"-10","keys":[1995.7099999883212],"total_keys":1,"block":1,"trial":94,"robot":3,"valence":"lose","action":"go","sham":1,"trial_type":"pit-trial","trial_index":107,"time_elapsed":458752,"internal_node_id":"0.0-96.0","task_version":"battery-v0.1"},{"rune":"X","hex":"#3366ff99","correct":32,"choice":32,"rt":442.1699999948032,"accuracy":1,"outcome":"+10","keys":[1942.3149999929592],"total_keys":1,"block":1,"trial":95,"robot":1,"valence":"win","action":"go","sham":0,"trial_type":"pit-trial","trial_index":108,"time_elapsed":461897,"internal_node_id":"0.0-97.0","task_version":"battery-v0.1"},{"rune":"D","hex":"#3366ff99","correct":-1,"choice":32,"rt":465.1849999791011,"accuracy":0,"outcome":"+10","keys":[1966.0600000061095],"total_keys":1,"block":1,"trial":96,"robot":2,"valence":"win","action":"no-go","sham":1,"trial_type":"pit-trial","trial_index":109,"time_elapsed":465065,"internal_node_id":"0.0-98.0","task_version":"battery-v0.1"},{"rune":"B","hex":"#f73b6a7A","correct":32,"choice":32,"rt":743.4599999687634,"accuracy":1,"outcome":"-1","keys":[2243.7599999830127],"total_keys":1,"block":1,"trial":97,"robot":3,"valence":"lose","action":"go","sham":0,"trial_type":"pit-trial","trial_index":110,"time_elapsed":468511,"internal_node_id":"0.0-99.0","task_version":"battery-v0.1"},{"rune":"D","hex":"#3366ff99","correct":-1,"choice":32,"rt":573.1099999975413,"accuracy":0,"outcome":"+1","keys":[2074.8700000112876],"total_keys":1,"block":1,"trial":98,"robot":2,"valence":"win","action":"no-go","sham":0,"trial_type":"pit-trial","trial_index":111,"time_elapsed":471788,"internal_node_id":"0.0-100.0","task_version":"battery-v0.1"},{"rune":"X","hex":"#3366ff99","correct":32,"choice":32,"rt":558.7200000300072,"accuracy":1,"outcome":"+10","keys":[2059.450000000652],"total_keys":1,"block":1,"trial":99,"robot":1,"valence":"win","action":"go","sham":0,"trial_type":"pit-trial","trial_index":112,"time_elapsed":475050,"internal_node_id":"0.0-101.0","task_version":"battery-v0.1"},{"rune":"L","hex":"#f73b6a7A","correct":32,"choice":32,"rt":545.125000004191,"accuracy":1,"outcome":"-1","keys":[2045.5100000253879],"total_keys":1,"block":1,"trial":100,"robot":3,"valence":"lose","action":"go","sham":0,"trial_type":"pit-trial","trial_index":113,"time_elapsed":478298,"internal_node_id":"0.0-102.0","task_version":"battery-v0.1"},{"rune":"B","hex":"#f73b6a7A","correct":32,"choice":32,"rt":998.7700000056066,"accuracy":1,"outcome":"-1","keys":[2498.829999996815],"total_keys":1,"block":1,"trial":101,"robot":3,"valence":"lose","action":"go","sham":0,"trial_type":"pit-trial","trial_index":114,"time_elapsed":482000,"internal_node_id":"0.0-103.0","task_version":"battery-v0.1"},{"rune":"X","hex":"#3366ff99","correct":32,"choice":32,"rt":424.14999997708946,"accuracy":1,"outcome":"+10","keys":[1925.1899999799207],"total_keys":1,"block":1,"trial":102,"robot":1,"valence":"win","action":"go","sham":0,"trial_type":"pit-trial","trial_index":115,"time_elapsed":485128,"internal_node_id":"0.0-104.0","task_version":"battery-v0.1"},{"rune":"D","hex":"#3366ff99","correct":-1,"choice":32,"rt":1052.9749999986961,"accuracy":0,"outcome":"+1","keys":[2553.765000018757],"total_keys":1,"block":1,"trial":103,"robot":2,"valence":"win","action":"no-go","sham":0,"trial_type":"pit-trial","trial_index":116,"time_elapsed":488883,"internal_node_id":"0.0-105.0","task_version":"battery-v0.1"},{"rune":"L","hex":"#f73b6a7A","correct":32,"choice":32,"rt":1018.3500000275671,"accuracy":1,"outcome":"-1","keys":[2519.3750000325963],"total_keys":1,"block":1,"trial":104,"robot":3,"valence":"lose","action":"go","sham":0,"trial_type":"pit-trial","trial_index":117,"time_elapsed":492605,"internal_node_id":"0.0-106.0","task_version":"battery-v0.1"},{"rune":"B","hex":"#f73b6a7A","correct":32,"choice":32,"rt":840.5900000361726,"accuracy":1,"outcome":"-10","keys":[2340.790000045672],"total_keys":1,"block":1,"trial":105,"robot":3,"valence":"lose","action":"go","sham":1,"trial_type":"pit-trial","trial_index":118,"time_elapsed":496148,"internal_node_id":"0.0-107.0","task_version":"battery-v0.1"},{"rune":"X","hex":"#3366ff99","correct":32,"choice":32,"rt":512.8150000236928,"accuracy":1,"outcome":"+10","keys":[2013.5950000258163],"total_keys":1,"block":1,"trial":106,"robot":1,"valence":"win","action":"go","sham":0,"trial_type":"pit-trial","trial_index":119,"time_elapsed":499364,"internal_node_id":"0.0-108.0","task_version":"battery-v0.1"},{"rune":"D","hex":"#3366ff99","correct":-1,"choice":-1,"rt":-1,"accuracy":1,"outcome":"+1","keys":[],"total_keys":0,"block":1,"trial":107,"robot":2,"valence":"win","action":"no-go","sham":1,"trial_type":"pit-trial","trial_index":120,"time_elapsed":503367,"internal_node_id":"0.0-109.0","task_version":"battery-v0.1"},{"rune":"L","hex":"#f73b6a7A","correct":32,"choice":-1,"rt":-1,"accuracy":0,"outcome":"-10","keys":[],"total_keys":0,"block":1,"trial":108,"robot":3,"valence":"lose","action":"go","sham":0,"trial_type":"pit-trial","trial_index":121,"time_elapsed":507373,"internal_node_id":"0.0-110.0","task_version":"battery-v0.1"},{"rune":"L","hex":"#f73b6a7A","correct":32,"choice":-1,"rt":-1,"accuracy":0,"outcome":"-10","keys":[],"total_keys":0,"block":1,"trial":109,"robot":3,"valence":"lose","action":"go","sham":0,"trial_type":"pit-trial","trial_index":122,"time_elapsed":511377,"internal_node_id":"0.0-111.0","task_version":"battery-v0.1"},{"rune":"X","hex":"#3366ff99","correct":32,"choice":32,"rt":664.3750000512227,"accuracy":1,"outcome":"+10","keys":[2164.794999989681],"total_keys":1,"block":1,"trial":110,"robot":1,"valence":"win","action":"go","sham":0,"trial_type":"pit-trial","trial_index":123,"time_elapsed":514744,"internal_node_id":"0.0-112.0","task_version":"battery-v0.1"},{"rune":"D","hex":"#3366ff99","correct":-1,"choice":32,"rt":668.4700000332668,"accuracy":0,"outcome":"+10","keys":[2169.2649999749847],"total_keys":1,"block":1,"trial":111,"robot":2,"valence":"win","action":"no-go","sham":1,"trial_type":"pit-trial","trial_index":124,"time_elapsed":518115,"internal_node_id":"0.0-113.0","task_version":"battery-v0.1"},{"rune":"B","hex":"#f73b6a7A","correct":32,"choice":32,"rt":782.9900000360794,"accuracy":1,"outcome":"-10","keys":[2283.8450000272132],"total_keys":1,"block":1,"trial":112,"robot":3,"valence":"lose","action":"go","sham":1,"trial_type":"pit-trial","trial_index":125,"time_elapsed":521601,"internal_node_id":"0.0-114.0","task_version":"battery-v0.1"},{"rune":"X","hex":"#3366ff99","correct":32,"choice":32,"rt":746.3649999699555,"accuracy":1,"outcome":"+10","keys":[2246.6249999706633],"total_keys":1,"block":1,"trial":113,"robot":1,"valence":"win","action":"go","sham":0,"trial_type":"pit-trial","trial_index":126,"time_elapsed":525050,"internal_node_id":"0.0-115.0","task_version":"battery-v0.1"},{"rune":"D","hex":"#3366ff99","correct":-1,"choice":32,"rt":1041.3549999939278,"accuracy":0,"outcome":"+1","keys":[2542.044999951031],"total_keys":1,"block":1,"trial":114,"robot":2,"valence":"win","action":"no-go","sham":0,"trial_type":"pit-trial","trial_index":127,"time_elapsed":528794,"internal_node_id":"0.0-116.0","task_version":"battery-v0.1"},{"rune":"L","hex":"#f73b6a7A","correct":32,"choice":32,"rt":575.7899999734946,"accuracy":1,"outcome":"-1","keys":[2076.5949999913573],"total_keys":1,"block":1,"trial":115,"robot":3,"valence":"lose","action":"go","sham":0,"trial_type":"pit-trial","trial_index":128,"time_elapsed":532073,"internal_node_id":"0.0-117.0","task_version":"battery-v0.1"},{"rune":"B","hex":"#f73b6a7A","correct":32,"choice":32,"rt":675.1500000245869,"accuracy":1,"outcome":"-1","keys":[2175.740000035148],"total_keys":1,"block":1,"trial":116,"robot":3,"valence":"lose","action":"go","sham":0,"trial_type":"pit-trial","trial_index":129,"time_elapsed":535451,"internal_node_id":"0.0-118.0","task_version":"battery-v0.1"},{"rune":"D","hex":"#3366ff99","correct":-1,"choice":32,"rt":501.929999969434,"accuracy":0,"outcome":"+10","keys":[2002.5899999891408],"total_keys":1,"block":1,"trial":117,"robot":2,"valence":"win","action":"no-go","sham":1,"trial_type":"pit-trial","trial_index":130,"time_elapsed":538656,"internal_node_id":"0.0-119.0","task_version":"battery-v0.1"},{"rune":"X","hex":"#3366ff99","correct":32,"choice":32,"rt":658.3650000393391,"accuracy":1,"outcome":"+1","keys":[2158.8099999935366],"total_keys":1,"block":1,"trial":118,"robot":1,"valence":"win","action":"go","sham":1,"trial_type":"pit-trial","trial_index":131,"time_elapsed":542017,"internal_node_id":"0.0-120.0","task_version":"battery-v0.1"},{"rune":"L","hex":"#f73b6a7A","correct":32,"choice":32,"rt":688.1100000464357,"accuracy":1,"outcome":"-1","keys":[2188.1300000241026],"total_keys":1,"block":1,"trial":119,"robot":3,"valence":"lose","action":"go","sham":0,"trial_type":"pit-trial","trial_index":132,"time_elapsed":545408,"internal_node_id":"0.0-121.0","task_version":"battery-v0.1"},{"rune":"B","hex":"#f73b6a7A","correct":32,"choice":32,"rt":581.7750000278465,"accuracy":1,"outcome":"-10","keys":[2083.0650000134483],"total_keys":1,"block":1,"trial":120,"robot":3,"valence":"lose","action":"go","sham":1,"trial_type":"pit-trial","trial_index":133,"time_elapsed":548693,"internal_node_id":"0.0-122.0","task_version":"battery-v0.1"},{"view_history":"[{\"page_index\":0,\"viewing_time\":9582.070000004023},{\"page_index\":1,\"viewing_time\":1920.0699999928474}]","rt":11502.525000018068,"trial_type":"pit-instructions","trial_index":134,"time_elapsed":560197,"internal_node_id":"0.0-123.0","task_version":"battery-v0.1"},{"rune":"K","hex":"#3366ff99","correct":-1,"choice":32,"rt":451.65499998256564,"accuracy":0,"outcome":"+1","keys":[1952.6799999875948],"total_keys":1,"block":2,"trial":121,"robot":2,"valence":"win","action":"no-go","sham":0,"trial_type":"pit-trial","trial_index":135,"time_elapsed":563353,"internal_node_id":"0.0-124.0","task_version":"battery-v0.1"},{"rune":"F","hex":"#f73b6a7A","correct":-1,"choice":32,"rt":317.95999995665625,"accuracy":0,"outcome":"-10","keys":[1818.8450000016019],"total_keys":1,"block":2,"trial":122,"robot":4,"valence":"lose","action":"no-go","sham":0,"trial_type":"pit-trial","trial_index":136,"time_elapsed":566375,"internal_node_id":"0.0-125.0","task_version":"battery-v0.1"},{"rune":"J","hex":"#3366ff99","correct":32,"choice":32,"rt":387.11499999044463,"accuracy":1,"outcome":"+10","keys":[1888.0349999526516],"total_keys":1,"block":2,"trial":123,"robot":1,"valence":"win","action":"go","sham":0,"trial_type":"pit-trial","trial_index":137,"time_elapsed":569465,"internal_node_id":"0.0-126.0","task_version":"battery-v0.1"},{"rune":"G","hex":"#3366ff99","correct":32,"choice":32,"rt":362.49999998835847,"accuracy":1,"outcome":"+10","keys":[1862.9150000051595],"total_keys":1,"block":2,"trial":124,"robot":1,"valence":"win","action":"go","sham":0,"trial_type":"pit-trial","trial_index":138,"time_elapsed":572530,"internal_node_id":"0.0-127.0","task_version":"battery-v0.1"},{"rune":"K","hex":"#3366ff99","correct":-1,"choice":-1,"rt":-1,"accuracy":1,"outcome":"+10","keys":[],"total_keys":0,"block":2,"trial":125,"robot":2,"valence":"win","action":"no-go","sham":0,"trial_type":"pit-trial","trial_index":139,"time_elapsed":576532,"internal_node_id":"0.0-128.0","task_version":"battery-v0.1"},{"rune":"G","hex":"#3366ff99","correct":32,"choice":32,"rt":524.4100000127219,"accuracy":1,"outcome":"+1","keys":[2025.1350000035018],"total_keys":1,"block":2,"trial":126,"robot":1,"valence":"win","action":"go","sham":1,"trial_type":"pit-trial","trial_index":140,"time_elapsed":579759,"internal_node_id":"0.0-129.0","task_version":"battery-v0.1"},{"rune":"F","hex":"#f73b6a7A","correct":-1,"choice":-1,"rt":-1,"accuracy":1,"outcome":"-10","keys":[],"total_keys":0,"block":2,"trial":127,"robot":4,"valence":"lose","action":"no-go","sham":1,"trial_type":"pit-trial","trial_index":141,"time_elapsed":583763,"internal_node_id":"0.0-130.0","task_version":"battery-v0.1"},{"rune":"J","hex":"#3366ff99","correct":32,"choice":32,"rt":431.2349999672733,"accuracy":1,"outcome":"+10","keys":[1931.8550000316463],"total_keys":1,"block":2,"trial":128,"robot":1,"valence":"win","action":"go","sham":0,"trial_type":"pit-trial","trial_index":142,"time_elapsed":586897,"internal_node_id":"0.0-131.0","task_version":"battery-v0.1"},{"rune":"J","hex":"#3366ff99","correct":32,"choice":32,"rt":606.7000000039116,"accuracy":1,"outcome":"+10","keys":[2106.9850000203587],"total_keys":1,"block":2,"trial":129,"robot":1,"valence":"win","action":"go","sham":0,"trial_type":"pit-trial","trial_index":143,"time_elapsed":590207,"internal_node_id":"0.0-132.0","task_version":"battery-v0.1"},{"rune":"F","hex":"#f73b6a7A","correct":-1,"choice":32,"rt":506.215000001248,"accuracy":0,"outcome":"-10","keys":[2007.1699999971315],"total_keys":1,"block":2,"trial":130,"robot":4,"valence":"lose","action":"no-go","sham":0,"trial_type":"pit-trial","trial_index":144,"time_elapsed":593416,"internal_node_id":"0.0-133.0","task_version":"battery-v0.1"},{"rune":"K","hex":"#3366ff99","correct":-1,"choice":32,"rt":665.9249999793246,"accuracy":0,"outcome":"+1","keys":[2166.9550000224262],"total_keys":1,"block":2,"trial":131,"robot":2,"valence":"win","action":"no-go","sham":0,"trial_type":"pit-trial","trial_index":145,"time_elapsed":596785,"internal_node_id":"0.0-134.0","task_version":"battery-v0.1"},{"rune":"G","hex":"#3366ff99","correct":32,"choice":32,"rt":586.4949999959208,"accuracy":1,"outcome":"+10","keys":[2087.0100000174716],"total_keys":1,"block":2,"trial":132,"robot":1,"valence":"win","action":"go","sham":0,"trial_type":"pit-trial","trial_index":146,"time_elapsed":600074,"internal_node_id":"0.0-135.0","task_version":"battery-v0.1"},{"rune":"J","hex":"#3366ff99","correct":32,"choice":32,"rt":789.2400000127964,"accuracy":1,"outcome":"+1","keys":[2289.664999989327],"total_keys":1,"block":2,"trial":133,"robot":1,"valence":"win","action":"go","sham":1,"trial_type":"pit-trial","trial_index":147,"time_elapsed":603567,"internal_node_id":"0.0-136.0","task_version":"battery-v0.1"},{"rune":"K","hex":"#3366ff99","correct":-1,"choice":32,"rt":558.4549999912269,"accuracy":0,"outcome":"+1","keys":[2059.5399999874644],"total_keys":1,"block":2,"trial":134,"robot":2,"valence":"win","action":"no-go","sham":0,"trial_type":"pit-trial","trial_index":148,"time_elapsed":606828,"internal_node_id":"0.0-137.0","task_version":"battery-v0.1"},{"rune":"F","hex":"#f73b6a7A","correct":-1,"choice":32,"rt":508.4099999512546,"accuracy":0,"outcome":"-10","keys":[2009.5300000393763],"total_keys":1,"block":2,"trial":135,"robot":4,"valence":"lose","action":"no-go","sham":0,"trial_type":"pit-trial","trial_index":149,"time_elapsed":610040,"internal_node_id":"0.0-138.0","task_version":"battery-v0.1"},{"rune":"G","hex":"#3366ff99","correct":32,"choice":32,"rt":492.45499999960884,"accuracy":1,"outcome":"+1","keys":[1992.789999989327],"total_keys":1,"block":2,"trial":136,"robot":1,"valence":"win","action":"go","sham":1,"trial_type":"pit-trial","trial_index":150,"time_elapsed":613236,"internal_node_id":"0.0-139.0","task_version":"battery-v0.1"},{"rune":"F","hex":"#f73b6a7A","correct":-1,"choice":-1,"rt":-1,"accuracy":1,"outcome":"-10","keys":[],"total_keys":0,"block":2,"trial":137,"robot":4,"valence":"lose","action":"no-go","sham":1,"trial_type":"pit-trial","trial_index":151,"time_elapsed":617238,"internal_node_id":"0.0-140.0","task_version":"battery-v0.1"},{"rune":"J","hex":"#3366ff99","correct":32,"choice":32,"rt":549.5200000004843,"accuracy":1,"outcome":"+1","keys":[2050.1100000110455],"total_keys":1,"block":2,"trial":138,"robot":1,"valence":"win","action":"go","sham":1,"trial_type":"pit-trial","trial_index":152,"time_elapsed":620491,"internal_node_id":"0.0-141.0","task_version":"battery-v0.1"},{"rune":"K","hex":"#3366ff99","correct":-1,"choice":-1,"rt":-1,"accuracy":1,"outcome":"+10","keys":[],"total_keys":0,"block":2,"trial":139,"robot":2,"valence":"win","action":"no-go","sham":0,"trial_type":"pit-trial","trial_index":153,"time_elapsed":624494,"internal_node_id":"0.0-142.0","task_version":"battery-v0.1"},{"rune":"G","hex":"#3366ff99","correct":32,"choice":-1,"rt":-1,"accuracy":0,"outcome":"+10","keys":[],"total_keys":0,"block":2,"trial":140,"robot":1,"valence":"win","action":"go","sham":1,"trial_type":"pit-trial","trial_index":154,"time_elapsed":628498,"internal_node_id":"0.0-143.0","task_version":"battery-v0.1"},{"rune":"F","hex":"#f73b6a7A","correct":-1,"choice":32,"rt":528.7450000178069,"accuracy":0,"outcome":"-10","keys":[2030.2949999459088],"total_keys":1,"block":2,"trial":141,"robot":4,"valence":"lose","action":"no-go","sham":0,"trial_type":"pit-trial","trial_index":155,"time_elapsed":631731,"internal_node_id":"0.0-144.0","task_version":"battery-v0.1"},{"rune":"G","hex":"#3366ff99","correct":32,"choice":-1,"rt":-1,"accuracy":0,"outcome":"+1","keys":[],"total_keys":0,"block":2,"trial":142,"robot":1,"valence":"win","action":"go","sham":0,"trial_type":"pit-trial","trial_index":156,"time_elapsed":635734,"internal_node_id":"0.0-145.0","task_version":"battery-v0.1"},{"rune":"K","hex":"#3366ff99","correct":-1,"choice":-1,"rt":-1,"accuracy":1,"outcome":"+10","keys":[],"total_keys":0,"block":2,"trial":143,"robot":2,"valence":"win","action":"no-go","sham":0,"trial_type":"pit-trial","trial_index":157,"time_elapsed":639737,"internal_node_id":"0.0-146.0","task_version":"battery-v0.1"},{"rune":"J","hex":"#3366ff99","correct":32,"choice":32,"rt":321.2899999925867,"accuracy":1,"outcome":"+1","keys":[1822.8600000147708],"total_keys":1,"block":2,"trial":144,"robot":1,"valence":"win","action":"go","sham":1,"trial_type":"pit-trial","trial_index":158,"time_elapsed":642762,"internal_node_id":"0.0-147.0","task_version":"battery-v0.1"},{"rune":"F","hex":"#f73b6a7A","correct":-1,"choice":32,"rt":435.2400000207126,"accuracy":0,"outcome":"-10","keys":[1935.3099999716505],"total_keys":1,"block":2,"trial":145,"robot":4,"valence":"lose","action":"no-go","sham":0,"trial_type":"pit-trial","trial_index":159,"time_elapsed":645899,"internal_node_id":"0.0-148.0","task_version":"battery-v0.1"},{"rune":"G","hex":"#3366ff99","correct":32,"choice":-1,"rt":-1,"accuracy":0,"outcome":"+1","keys":[],"total_keys":0,"block":2,"trial":146,"robot":1,"valence":"win","action":"go","sham":0,"trial_type":"pit-trial","trial_index":160,"time_elapsed":649902,"internal_node_id":"0.0-149.0","task_version":"battery-v0.1"},{"rune":"K","hex":"#3366ff99","correct":-1,"choice":-1,"rt":-1,"accuracy":1,"outcome":"+10","keys":[],"total_keys":0,"block":2,"trial":147,"robot":2,"valence":"win","action":"no-go","sham":0,"trial_type":"pit-trial","trial_index":161,"time_elapsed":653906,"internal_node_id":"0.0-150.0","task_version":"battery-v0.1"},{"rune":"J","hex":"#3366ff99","correct":32,"choice":-1,"rt":-1,"accuracy":0,"outcome":"+1","keys":[3024.604999984149],"total_keys":1,"block":2,"trial":148,"robot":1,"valence":"win","action":"go","sham":0,"trial_type":"pit-trial","trial_index":162,"time_elapsed":657909,"internal_node_id":"0.0-151.0","task_version":"battery-v0.1"},{"rune":"K","hex":"#3366ff99","correct":-1,"choice":-1,"rt":-1,"accuracy":1,"outcome":"+1","keys":[],"total_keys":0,"block":2,"trial":149,"robot":2,"valence":"win","action":"no-go","sham":1,"trial_type":"pit-trial","trial_index":163,"time_elapsed":661913,"internal_node_id":"0.0-152.0","task_version":"battery-v0.1"},{"rune":"J","hex":"#3366ff99","correct":32,"choice":32,"rt":665.4599999892525,"accuracy":1,"outcome":"+10","keys":[2165.8900000038557],"total_keys":1,"block":2,"trial":150,"robot":1,"valence":"win","action":"go","sham":0,"trial_type":"pit-trial","trial_index":164,"time_elapsed":665281,"internal_node_id":"0.0-153.0","task_version":"battery-v0.1"},{"rune":"F","hex":"#f73b6a7A","correct":-1,"choice":32,"rt":668.8149999827147,"accuracy":0,"outcome":"-10","keys":[2169.5049999980256],"total_keys":1,"block":2,"trial":151,"robot":4,"valence":"lose","action":"no-go","sham":0,"trial_type":"pit-trial","trial_index":165,"time_elapsed":668653,"internal_node_id":"0.0-154.0","task_version":"battery-v0.1"},{"rune":"G","hex":"#3366ff99","correct":32,"choice":-1,"rt":-1,"accuracy":0,"outcome":"+1","keys":[],"total_keys":0,"block":2,"trial":152,"robot":1,"valence":"win","action":"go","sham":0,"trial_type":"pit-trial","trial_index":166,"time_elapsed":672656,"internal_node_id":"0.0-155.0","task_version":"battery-v0.1"},{"rune":"M","hex":"#3366ff99","correct":32,"choice":32,"rt":821.4900000020862,"accuracy":1,"outcome":"+10","keys":[2321.9549999921583],"total_keys":1,"block":2,"trial":153,"robot":1,"valence":"win","action":"go","sham":0,"trial_type":"pit-trial","trial_index":167,"time_elapsed":676181,"internal_node_id":"0.0-156.0","task_version":"battery-v0.1"},{"rune":"F","hex":"#f73b6a7A","correct":-1,"choice":-1,"rt":-1,"accuracy":1,"outcome":"-1","keys":[],"total_keys":0,"block":2,"trial":154,"robot":4,"valence":"lose","action":"no-go","sham":0,"trial_type":"pit-trial","trial_index":168,"time_elapsed":680183,"internal_node_id":"0.0-157.0","task_version":"battery-v0.1"},{"rune":"K","hex":"#3366ff99","correct":-1,"choice":32,"rt":678.1499999924563,"accuracy":0,"outcome":"+1","keys":[2179.5099999872036],"total_keys":1,"block":2,"trial":155,"robot":2,"valence":"win","action":"no-go","sham":0,"trial_type":"pit-trial","trial_index":169,"time_elapsed":683565,"internal_node_id":"0.0-158.0","task_version":"battery-v0.1"},{"rune":"G","hex":"#3366ff99","correct":32,"choice":-1,"rt":-1,"accuracy":0,"outcome":"+1","keys":[],"total_keys":0,"block":2,"trial":156,"robot":1,"valence":"win","action":"go","sham":0,"trial_type":"pit-trial","trial_index":170,"time_elapsed":687568,"internal_node_id":"0.0-159.0","task_version":"battery-v0.1"},{"rune":"M","hex":"#3366ff99","correct":32,"choice":-1,"rt":-1,"accuracy":0,"outcome":"+1","keys":[],"total_keys":0,"block":2,"trial":157,"robot":1,"valence":"win","action":"go","sham":0,"trial_type":"pit-trial","trial_index":171,"time_elapsed":691571,"internal_node_id":"0.0-160.0","task_version":"battery-v0.1"},{"rune":"K","hex":"#3366ff99","correct":-1,"choice":-1,"rt":-1,"accuracy":1,"outcome":"+10","keys":[],"total_keys":0,"block":2,"trial":158,"robot":2,"valence":"win","action":"no-go","sham":0,"trial_type":"pit-trial","trial_index":172,"time_elapsed":695575,"internal_node_id":"0.0-161.0","task_version":"battery-v0.1"},{"rune":"G","hex":"#3366ff99","correct":32,"choice":-1,"rt":-1,"accuracy":0,"outcome":"+10","keys":[],"total_keys":0,"block":2,"trial":159,"robot":1,"valence":"win","action":"go","sham":1,"trial_type":"pit-trial","trial_index":173,"time_elapsed":699578,"internal_node_id":"0.0-162.0","task_version":"battery-v0.1"},{"rune":"F","hex":"#f73b6a7A","correct":-1,"choice":32,"rt":385.39499999023974,"accuracy":0,"outcome":"-10","keys":[1886.4799999864772],"total_keys":1,"block":2,"trial":160,"robot":4,"valence":"lose","action":"no-go","sham":0,"trial_type":"pit-trial","trial_index":174,"time_elapsed":702667,"internal_node_id":"0.0-163.0","task_version":"battery-v0.1"},{"rune":"Q","hex":"#f73b6a7A","correct":-1,"choice":32,"rt":239.61499996948987,"accuracy":0,"outcome":"-10","keys":[1739.9650000152178],"total_keys":1,"block":2,"trial":161,"robot":4,"valence":"lose","action":"no-go","sham":0,"trial_type":"pit-trial","trial_index":175,"time_elapsed":705609,"internal_node_id":"0.0-164.0","task_version":"battery-v0.1"},{"rune":"K","hex":"#3366ff99","correct":-1,"choice":-1,"rt":-1,"accuracy":1,"outcome":"+10","keys":[],"total_keys":0,"block":2,"trial":162,"robot":2,"valence":"win","action":"no-go","sham":0,"trial_type":"pit-trial","trial_index":176,"time_elapsed":709612,"internal_node_id":"0.0-165.0","task_version":"battery-v0.1"},{"rune":"T","hex":"#f73b6a7A","correct":32,"choice":32,"rt":909.845000016503,"accuracy":1,"outcome":"-1","keys":[2411.5299999830313],"total_keys":1,"block":2,"trial":163,"robot":3,"valence":"lose","action":"go","sham":0,"trial_type":"pit-trial","trial_index":177,"time_elapsed":713227,"internal_node_id":"0.0-166.0","task_version":"battery-v0.1"},{"rune":"M","hex":"#3366ff99","correct":32,"choice":32,"rt":837.2150000068359,"accuracy":1,"outcome":"+10","keys":[2338.5550000239164],"total_keys":1,"block":2,"trial":164,"robot":1,"valence":"win","action":"go","sham":0,"trial_type":"pit-trial","trial_index":178,"time_elapsed":716768,"internal_node_id":"0.0-167.0","task_version":"battery-v0.1"},{"rune":"M","hex":"#3366ff99","correct":32,"choice":32,"rt":713.0850000539795,"accuracy":1,"outcome":"+10","keys":[2214.0200000139885],"total_keys":1,"block":2,"trial":165,"robot":1,"valence":"win","action":"go","sham":0,"trial_type":"pit-trial","trial_index":179,"time_elapsed":720184,"internal_node_id":"0.0-168.0","task_version":"battery-v0.1"},{"rune":"Q","hex":"#f73b6a7A","correct":-1,"choice":32,"rt":722.6200000150129,"accuracy":0,"outcome":"-10","keys":[2223.534999997355],"total_keys":1,"block":2,"trial":166,"robot":4,"valence":"lose","action":"no-go","sham":0,"trial_type":"pit-trial","trial_index":180,"time_elapsed":723609,"internal_node_id":"0.0-169.0","task_version":"battery-v0.1"},{"rune":"K","hex":"#3366ff99","correct":-1,"choice":32,"rt":34.275000041816384,"accuracy":0,"outcome":"+1","keys":[1535.570000007283],"total_keys":1,"block":2,"trial":167,"robot":2,"valence":"win","action":"no-go","sham":0,"trial_type":"pit-trial","trial_index":181,"time_elapsed":726347,"internal_node_id":"0.0-170.0","task_version":"battery-v0.1"},{"rune":"T","hex":"#f73b6a7A","correct":32,"choice":32,"rt":349.6850000228733,"accuracy":1,"outcome":"-1","keys":[1849.7650000499561],"total_keys":1,"block":2,"trial":168,"robot":3,"valence":"lose","action":"go","sham":0,"trial_type":"pit-trial","trial_index":182,"time_elapsed":729399,"internal_node_id":"0.0-171.0","task_version":"battery-v0.1"},{"rune":"P","hex":"#3366ff99","correct":-1,"choice":32,"rt":508.6449999944307,"accuracy":0,"outcome":"+1","keys":[2009.2949999962002],"total_keys":1,"block":2,"trial":169,"robot":2,"valence":"win","action":"no-go","sham":0,"trial_type":"pit-trial","trial_index":183,"time_elapsed":732610,"internal_node_id":"0.0-172.0","task_version":"battery-v0.1"},{"rune":"T","hex":"#f73b6a7A","correct":32,"choice":32,"rt":93.56499998830259,"accuracy":1,"outcome":"-10","keys":[1593.8149999710731],"total_keys":1,"block":2,"trial":170,"robot":3,"valence":"lose","action":"go","sham":1,"trial_type":"pit-trial","trial_index":184,"time_elapsed":735407,"internal_node_id":"0.0-173.0","task_version":"battery-v0.1"},{"rune":"M","hex":"#3366ff99","correct":32,"choice":32,"rt":300.0449999817647,"accuracy":1,"outcome":"+10","keys":[1800.2599999890663],"total_keys":1,"block":2,"trial":171,"robot":1,"valence":"win","action":"go","sham":0,"trial_type":"pit-trial","trial_index":185,"time_elapsed":738409,"internal_node_id":"0.0-174.0","task_version":"battery-v0.1"},{"rune":"Q","hex":"#f73b6a7A","correct":-1,"choice":-1,"rt":-1,"accuracy":1,"outcome":"-10","keys":[],"total_keys":0,"block":2,"trial":172,"robot":4,"valence":"lose","action":"no-go","sham":1,"trial_type":"pit-trial","trial_index":186,"time_elapsed":742411,"internal_node_id":"0.0-175.0","task_version":"battery-v0.1"},{"rune":"M","hex":"#3366ff99","correct":32,"choice":-1,"rt":-1,"accuracy":0,"outcome":"+1","keys":[],"total_keys":0,"block":2,"trial":173,"robot":1,"valence":"win","action":"go","sham":0,"trial_type":"pit-trial","trial_index":187,"time_elapsed":746414,"internal_node_id":"0.0-176.0","task_version":"battery-v0.1"},{"rune":"Q","hex":"#f73b6a7A","correct":-1,"choice":-1,"rt":-1,"accuracy":1,"outcome":"-1","keys":[],"total_keys":0,"block":2,"trial":174,"robot":4,"valence":"lose","action":"no-go","sham":0,"trial_type":"pit-trial","trial_index":188,"time_elapsed":750419,"internal_node_id":"0.0-177.0","task_version":"battery-v0.1"},{"rune":"T","hex":"#f73b6a7A","correct":32,"choice":32,"rt":561.4250000216998,"accuracy":1,"outcome":"-1","keys":[2062.129999976605],"total_keys":1,"block":2,"trial":175,"robot":3,"valence":"lose","action":"go","sham":0,"trial_type":"pit-trial","trial_index":189,"time_elapsed":753684,"internal_node_id":"0.0-178.0","task_version":"battery-v0.1"},{"rune":"P","hex":"#3366ff99","correct":-1,"choice":32,"rt":453.81999999517575,"accuracy":0,"outcome":"+1","keys":[1954.3849999899976],"total_keys":1,"block":2,"trial":176,"robot":2,"valence":"win","action":"no-go","sham":0,"trial_type":"pit-trial","trial_index":190,"time_elapsed":756841,"internal_node_id":"0.0-179.0","task_version":"battery-v0.1"},{"rune":"Q","hex":"#f73b6a7A","correct":-1,"choice":32,"rt":861.0500000067987,"accuracy":0,"outcome":"-10","keys":[2362.3350000125356],"total_keys":1,"block":2,"trial":177,"robot":4,"valence":"lose","action":"no-go","sham":0,"trial_type":"pit-trial","trial_index":191,"time_elapsed":760406,"internal_node_id":"0.0-180.0","task_version":"battery-v0.1"},{"rune":"T","hex":"#f73b6a7A","correct":32,"choice":32,"rt":362.2050000121817,"accuracy":1,"outcome":"-1","keys":[1430.930000031367,1862.8050000406802],"total_keys":2,"block":2,"trial":178,"robot":3,"valence":"lose","action":"go","sham":0,"trial_type":"pit-trial","trial_index":192,"time_elapsed":763472,"internal_node_id":"0.0-181.0","task_version":"battery-v0.1"},{"rune":"P","hex":"#3366ff99","correct":-1,"choice":32,"rt":10.39499999023974,"accuracy":0,"outcome":"+10","keys":[1510.4100000462495],"total_keys":1,"block":2,"trial":179,"robot":2,"valence":"win","action":"no-go","sham":1,"trial_type":"pit-trial","trial_index":193,"time_elapsed":766185,"internal_node_id":"0.0-182.0","task_version":"battery-v0.1"},{"rune":"M","hex":"#3366ff99","correct":32,"choice":32,"rt":458.6400000262074,"accuracy":1,"outcome":"+1","keys":[1959.6050000400282],"total_keys":1,"block":2,"trial":180,"robot":1,"valence":"win","action":"go","sham":1,"trial_type":"pit-trial","trial_index":194,"time_elapsed":769347,"internal_node_id":"0.0-183.0","task_version":"battery-v0.1"},{"rune":"Q","hex":"#f73b6a7A","correct":-1,"choice":-1,"rt":-1,"accuracy":1,"outcome":"-1","keys":[],"total_keys":0,"block":2,"trial":181,"robot":4,"valence":"lose","action":"no-go","sham":0,"trial_type":"pit-trial","trial_index":195,"time_elapsed":773349,"internal_node_id":"0.0-184.0","task_version":"battery-v0.1"},{"rune":"M","hex":"#3366ff99","correct":32,"choice":32,"rt":512.0999999926426,"accuracy":1,"outcome":"+10","keys":[2012.830000021495],"total_keys":1,"block":2,"trial":182,"robot":1,"valence":"win","action":"go","sham":0,"trial_type":"pit-trial","trial_index":196,"time_elapsed":776564,"internal_node_id":"0.0-185.0","task_version":"battery-v0.1"},{"rune":"T","hex":"#f73b6a7A","correct":32,"choice":-1,"rt":-1,"accuracy":0,"outcome":"-10","keys":[],"total_keys":0,"block":2,"trial":183,"robot":3,"valence":"lose","action":"go","sham":0,"trial_type":"pit-trial","trial_index":197,"time_elapsed":780567,"internal_node_id":"0.0-186.0","task_version":"battery-v0.1"},{"rune":"P","hex":"#3366ff99","correct":-1,"choice":32,"rt":368.04500001017004,"accuracy":0,"outcome":"+1","keys":[1868.460000026971],"total_keys":1,"block":2,"trial":184,"robot":2,"valence":"win","action":"no-go","sham":0,"trial_type":"pit-trial","trial_index":198,"time_elapsed":783637,"internal_node_id":"0.0-187.0","task_version":"battery-v0.1"},{"rune":"M","hex":"#3366ff99","correct":32,"choice":-1,"rt":-1,"accuracy":0,"outcome":"+1","keys":[],"total_keys":0,"block":2,"trial":185,"robot":1,"valence":"win","action":"go","sham":0,"trial_type":"pit-trial","trial_index":199,"time_elapsed":787642,"internal_node_id":"0.0-188.0","task_version":"battery-v0.1"},{"rune":"P","hex":"#3366ff99","correct":-1,"choice":32,"rt":883.9799999841489,"accuracy":0,"outcome":"+1","keys":[2384.764999966137],"total_keys":1,"block":2,"trial":186,"robot":2,"valence":"win","action":"no-go","sham":0,"trial_type":"pit-trial","trial_index":200,"time_elapsed":791229,"internal_node_id":"0.0-189.0","task_version":"battery-v0.1"},{"rune":"Q","hex":"#f73b6a7A","correct":-1,"choice":-1,"rt":-1,"accuracy":1,"outcome":"-1","keys":[],"total_keys":0,"block":2,"trial":187,"robot":4,"valence":"lose","action":"no-go","sham":0,"trial_type":"pit-trial","trial_index":201,"time_elapsed":795232,"internal_node_id":"0.0-190.0","task_version":"battery-v0.1"},{"rune":"T","hex":"#f73b6a7A","correct":32,"choice":-1,"rt":-1,"accuracy":0,"outcome":"-10","keys":[],"total_keys":0,"block":2,"trial":188,"robot":3,"valence":"lose","action":"go","sham":0,"trial_type":"pit-trial","trial_index":202,"time_elapsed":799236,"internal_node_id":"0.0-191.0","task_version":"battery-v0.1"},{"rune":"T","hex":"#f73b6a7A","correct":32,"choice":-1,"rt":-1,"accuracy":0,"outcome":"-10","keys":[],"total_keys":0,"block":2,"trial":189,"robot":3,"valence":"lose","action":"go","sham":0,"trial_type":"pit-trial","trial_index":203,"time_elapsed":803240,"internal_node_id":"0.0-192.0","task_version":"battery-v0.1"},{"rune":"P","hex":"#3366ff99","correct":-1,"choice":32,"rt":506.7849999759346,"accuracy":0,"outcome":"+1","keys":[2007.6049999915995],"total_keys":1,"block":2,"trial":190,"robot":2,"valence":"win","action":"no-go","sham":0,"trial_type":"pit-trial","trial_index":204,"time_elapsed":806450,"internal_node_id":"0.0-193.0","task_version":"battery-v0.1"},{"rune":"M","hex":"#3366ff99","correct":32,"choice":32,"rt":498.63500002538785,"accuracy":1,"outcome":"+10","keys":[1999.565000005532],"total_keys":1,"block":2,"trial":191,"robot":1,"valence":"win","action":"go","sham":0,"trial_type":"pit-trial","trial_index":205,"time_elapsed":809651,"internal_node_id":"0.0-194.0","task_version":"battery-v0.1"},{"rune":"Q","hex":"#f73b6a7A","correct":-1,"choice":32,"rt":389.92500002495944,"accuracy":0,"outcome":"-10","keys":[1890.514999977313],"total_keys":1,"block":2,"trial":192,"robot":4,"valence":"lose","action":"no-go","sham":0,"trial_type":"pit-trial","trial_index":206,"time_elapsed":812745,"internal_node_id":"0.0-195.0","task_version":"battery-v0.1"},{"rune":"P","hex":"#3366ff99","correct":-1,"choice":32,"rt":874.0349999861792,"accuracy":0,"outcome":"+1","keys":[2374.8499999637716],"total_keys":1,"block":2,"trial":193,"robot":2,"valence":"win","action":"no-go","sham":0,"trial_type":"pit-trial","trial_index":207,"time_elapsed":816322,"internal_node_id":"0.0-196.0","task_version":"battery-v0.1"},{"rune":"M","hex":"#3366ff99","correct":32,"choice":-1,"rt":-1,"accuracy":0,"outcome":"+1","keys":[],"total_keys":0,"block":2,"trial":194,"robot":1,"valence":"win","action":"go","sham":0,"trial_type":"pit-trial","trial_index":208,"time_elapsed":820326,"internal_node_id":"0.0-197.0","task_version":"battery-v0.1"},{"rune":"Q","hex":"#f73b6a7A","correct":-1,"choice":32,"rt":625.3699999651872,"accuracy":0,"outcome":"-10","keys":[2125.5349999992177],"total_keys":1,"block":2,"trial":195,"robot":4,"valence":"lose","action":"no-go","sham":0,"trial_type":"pit-trial","trial_index":209,"time_elapsed":823653,"internal_node_id":"0.0-198.0","task_version":"battery-v0.1"},{"rune":"Z","hex":"#f73b6a7A","correct":32,"choice":32,"rt":691.8099999893457,"accuracy":1,"outcome":"-1","keys":[2192.1900000306778],"total_keys":1,"block":2,"trial":196,"robot":3,"valence":"lose","action":"go","sham":0,"trial_type":"pit-trial","trial_index":210,"time_elapsed":827048,"internal_node_id":"0.0-199.0","task_version":"battery-v0.1"},{"rune":"Z","hex":"#f73b6a7A","correct":32,"choice":-1,"rt":-1,"accuracy":0,"outcome":"-10","keys":[],"total_keys":0,"block":2,"trial":197,"robot":3,"valence":"lose","action":"go","sham":0,"trial_type":"pit-trial","trial_index":211,"time_elapsed":831052,"internal_node_id":"0.0-200.0","task_version":"battery-v0.1"},{"rune":"Q","hex":"#f73b6a7A","correct":-1,"choice":32,"rt":632.6150000095367,"accuracy":0,"outcome":"-10","keys":[2132.8300000168383],"total_keys":1,"block":2,"trial":198,"robot":4,"valence":"lose","action":"no-go","sham":0,"trial_type":"pit-trial","trial_index":212,"time_elapsed":834386,"internal_node_id":"0.0-201.0","task_version":"battery-v0.1"},{"rune":"P","hex":"#3366ff99","correct":-1,"choice":32,"rt":517.5850000232458,"accuracy":0,"outcome":"+1","keys":[2018.2200000272132],"total_keys":1,"block":2,"trial":199,"robot":2,"valence":"win","action":"no-go","sham":0,"trial_type":"pit-trial","trial_index":213,"time_elapsed":837608,"internal_node_id":"0.0-202.0","task_version":"battery-v0.1"},{"rune":"M","hex":"#3366ff99","correct":32,"choice":-1,"rt":-1,"accuracy":0,"outcome":"+1","keys":[],"total_keys":0,"block":2,"trial":200,"robot":1,"valence":"win","action":"go","sham":0,"trial_type":"pit-trial","trial_index":214,"time_elapsed":841612,"internal_node_id":"0.0-203.0","task_version":"battery-v0.1"},{"rune":"Z","hex":"#f73b6a7A","correct":32,"choice":-1,"rt":-1,"accuracy":0,"outcome":"-10","keys":[],"total_keys":0,"block":2,"trial":201,"robot":3,"valence":"lose","action":"go","sham":0,"trial_type":"pit-trial","trial_index":215,"time_elapsed":845615,"internal_node_id":"0.0-204.0","task_version":"battery-v0.1"},{"rune":"Q","hex":"#f73b6a7A","correct":-1,"choice":32,"rt":299.20500004664063,"accuracy":0,"outcome":"-10","keys":[1800.2100000157952],"total_keys":1,"block":2,"trial":202,"robot":4,"valence":"lose","action":"no-go","sham":0,"trial_type":"pit-trial","trial_index":216,"time_elapsed":848617,"internal_node_id":"0.0-205.0","task_version":"battery-v0.1"},{"rune":"P","hex":"#3366ff99","correct":-1,"choice":32,"rt":419.5700000273064,"accuracy":0,"outcome":"+1","keys":[1920.2899999800138],"total_keys":1,"block":2,"trial":203,"robot":2,"valence":"win","action":"no-go","sham":0,"trial_type":"pit-trial","trial_index":217,"time_elapsed":851740,"internal_node_id":"0.0-206.0","task_version":"battery-v0.1"},{"rune":"Y","hex":"#f73b6a7A","correct":32,"choice":32,"rt":243.4650000068359,"accuracy":1,"outcome":"-1","keys":[1027.6999999769032,1744.6349999518134],"total_keys":2,"block":2,"trial":204,"robot":3,"valence":"lose","action":"go","sham":0,"trial_type":"pit-trial","trial_index":218,"time_elapsed":854688,"internal_node_id":"0.0-207.0","task_version":"battery-v0.1"},{"rune":"Q","hex":"#f73b6a7A","correct":-1,"choice":32,"rt":252.2400000016205,"accuracy":0,"outcome":"-10","keys":[1753.2200000132434],"total_keys":1,"block":2,"trial":205,"robot":4,"valence":"lose","action":"no-go","sham":0,"trial_type":"pit-trial","trial_index":219,"time_elapsed":857644,"internal_node_id":"0.0-208.0","task_version":"battery-v0.1"},{"rune":"Y","hex":"#f73b6a7A","correct":32,"choice":32,"rt":627.5100000202656,"accuracy":1,"outcome":"-1","keys":[2128.3950000070035],"total_keys":1,"block":2,"trial":206,"robot":3,"valence":"lose","action":"go","sham":0,"trial_type":"pit-trial","trial_index":220,"time_elapsed":860974,"internal_node_id":"0.0-209.0","task_version":"battery-v0.1"},{"rune":"P","hex":"#3366ff99","correct":-1,"choice":32,"rt":618.5349999577738,"accuracy":0,"outcome":"+1","keys":[2119.055000017397],"total_keys":1,"block":2,"trial":207,"robot":2,"valence":"win","action":"no-go","sham":0,"trial_type":"pit-trial","trial_index":221,"time_elapsed":864295,"internal_node_id":"0.0-210.0","task_version":"battery-v0.1"},{"rune":"Z","hex":"#f73b6a7A","correct":32,"choice":32,"rt":771.6699999873526,"accuracy":1,"outcome":"-10","keys":[2272.925000055693],"total_keys":1,"block":2,"trial":208,"robot":3,"valence":"lose","action":"go","sham":1,"trial_type":"pit-trial","trial_index":222,"time_elapsed":867770,"internal_node_id":"0.0-211.0","task_version":"battery-v0.1"},{"rune":"Y","hex":"#f73b6a7A","correct":32,"choice":-1,"rt":-1,"accuracy":0,"outcome":"-1","keys":[],"total_keys":0,"block":2,"trial":209,"robot":3,"valence":"lose","action":"go","sham":1,"trial_type":"pit-trial","trial_index":223,"time_elapsed":871773,"internal_node_id":"0.0-212.0","task_version":"battery-v0.1"},{"rune":"Z","hex":"#f73b6a7A","correct":32,"choice":-1,"rt":-1,"accuracy":0,"outcome":"-10","keys":[],"total_keys":0,"block":2,"trial":210,"robot":3,"valence":"lose","action":"go","sham":0,"trial_type":"pit-trial","trial_index":224,"time_elapsed":875777,"internal_node_id":"0.0-213.0","task_version":"battery-v0.1"},{"rune":"R","hex":"#f73b6a7A","correct":-1,"choice":32,"rt":916.6650000261143,"accuracy":0,"outcome":"-10","keys":[2418.164999980945],"total_keys":1,"block":2,"trial":211,"robot":4,"valence":"lose","action":"no-go","sham":0,"trial_type":"pit-trial","trial_index":225,"time_elapsed":879397,"internal_node_id":"0.0-214.0","task_version":"battery-v0.1"},{"rune":"C","hex":"#3366ff99","correct":-1,"choice":32,"rt":589.719999989029,"accuracy":0,"outcome":"+1","keys":[2091.039999970235],"total_keys":1,"block":2,"trial":212,"robot":2,"valence":"win","action":"no-go","sham":0,"trial_type":"pit-trial","trial_index":226,"time_elapsed":882691,"internal_node_id":"0.0-215.0","task_version":"battery-v0.1"},{"rune":"Z","hex":"#f73b6a7A","correct":32,"choice":-1,"rt":-1,"accuracy":0,"outcome":"-10","keys":[],"total_keys":0,"block":2,"trial":213,"robot":3,"valence":"lose","action":"go","sham":0,"trial_type":"pit-trial","trial_index":227,"time_elapsed":886695,"internal_node_id":"0.0-216.0","task_version":"battery-v0.1"},{"rune":"R","hex":"#f73b6a7A","correct":-1,"choice":32,"rt":830.8250000118278,"accuracy":0,"outcome":"-10","keys":[2331.2950000399724],"total_keys":1,"block":2,"trial":214,"robot":4,"valence":"lose","action":"no-go","sham":0,"trial_type":"pit-trial","trial_index":228,"time_elapsed":890229,"internal_node_id":"0.0-217.0","task_version":"battery-v0.1"},{"rune":"C","hex":"#3366ff99","correct":-1,"choice":32,"rt":303.82999998982996,"accuracy":0,"outcome":"+10","keys":[1804.4099999824539],"total_keys":1,"block":2,"trial":215,"robot":2,"valence":"win","action":"no-go","sham":1,"trial_type":"pit-trial","trial_index":229,"time_elapsed":893235,"internal_node_id":"0.0-218.0","task_version":"battery-v0.1"},{"rune":"Y","hex":"#f73b6a7A","correct":32,"choice":32,"rt":967.975000035949,"accuracy":1,"outcome":"-10","keys":[2468.040000007022],"total_keys":1,"block":2,"trial":216,"robot":3,"valence":"lose","action":"go","sham":1,"trial_type":"pit-trial","trial_index":230,"time_elapsed":896906,"internal_node_id":"0.0-219.0","task_version":"battery-v0.1"},{"rune":"Z","hex":"#f73b6a7A","correct":32,"choice":32,"rt":673.2100000372157,"accuracy":1,"outcome":"-1","keys":[2174.4249999755993],"total_keys":1,"block":2,"trial":217,"robot":3,"valence":"lose","action":"go","sham":0,"trial_type":"pit-trial","trial_index":231,"time_elapsed":900282,"internal_node_id":"0.0-220.0","task_version":"battery-v0.1"},{"rune":"Y","hex":"#f73b6a7A","correct":32,"choice":32,"rt":422.7899999823421,"accuracy":1,"outcome":"-1","keys":[1923.5999999800697],"total_keys":1,"block":2,"trial":218,"robot":3,"valence":"lose","action":"go","sham":0,"trial_type":"pit-trial","trial_index":232,"time_elapsed":903408,"internal_node_id":"0.0-221.0","task_version":"battery-v0.1"},{"rune":"R","hex":"#f73b6a7A","correct":-1,"choice":32,"rt":377.5000000023283,"accuracy":0,"outcome":"-1","keys":[1878.900000010617],"total_keys":1,"block":2,"trial":219,"robot":4,"valence":"lose","action":"no-go","sham":1,"trial_type":"pit-trial","trial_index":233,"time_elapsed":906489,"internal_node_id":"0.0-222.0","task_version":"battery-v0.1"},{"rune":"C","hex":"#3366ff99","correct":-1,"choice":-1,"rt":-1,"accuracy":1,"outcome":"+10","keys":[],"total_keys":0,"block":2,"trial":220,"robot":2,"valence":"win","action":"no-go","sham":0,"trial_type":"pit-trial","trial_index":234,"time_elapsed":910493,"internal_node_id":"0.0-223.0","task_version":"battery-v0.1"},{"rune":"C","hex":"#3366ff99","correct":-1,"choice":-1,"rt":-1,"accuracy":1,"outcome":"+10","keys":[1000.0200000358745,1461.9800000218675],"total_keys":2,"block":2,"trial":221,"robot":2,"valence":"win","action":"no-go","sham":0,"trial_type":"pit-trial","trial_index":235,"time_elapsed":914497,"internal_node_id":"0.0-224.0","task_version":"battery-v0.1"},{"rune":"R","hex":"#f73b6a7A","correct":-1,"choice":-1,"rt":-1,"accuracy":1,"outcome":"-10","keys":[3770.5900000291876],"total_keys":1,"block":2,"trial":222,"robot":4,"valence":"lose","action":"no-go","sham":1,"trial_type":"pit-trial","trial_index":236,"time_elapsed":918500,"internal_node_id":"0.0-225.0","task_version":"battery-v0.1"},{"rune":"Z","hex":"#f73b6a7A","correct":32,"choice":-1,"rt":-1,"accuracy":0,"outcome":"-1","keys":[],"total_keys":0,"block":2,"trial":223,"robot":3,"valence":"lose","action":"go","sham":1,"trial_type":"pit-trial","trial_index":237,"time_elapsed":922504,"internal_node_id":"0.0-226.0","task_version":"battery-v0.1"},{"rune":"Y","hex":"#f73b6a7A","correct":32,"choice":32,"rt":849.3750000488944,"accuracy":1,"outcome":"-1","keys":[126.74499995773658,2351.2449999689125],"total_keys":2,"block":2,"trial":224,"robot":3,"valence":"lose","action":"go","sham":0,"trial_type":"pit-trial","trial_index":238,"time_elapsed":926057,"internal_node_id":"0.0-227.0","task_version":"battery-v0.1"},{"rune":"C","hex":"#3366ff99","correct":-1,"choice":32,"rt":447.34000001335517,"accuracy":0,"outcome":"+1","keys":[1948.6899999901652],"total_keys":1,"block":2,"trial":225,"robot":2,"valence":"win","action":"no-go","sham":0,"trial_type":"pit-trial","trial_index":239,"time_elapsed":929208,"internal_node_id":"0.0-228.0","task_version":"battery-v0.1"},{"rune":"Z","hex":"#f73b6a7A","correct":32,"choice":32,"rt":551.4850000035949,"accuracy":1,"outcome":"-1","keys":[2052.7749999891967],"total_keys":1,"block":2,"trial":226,"robot":3,"valence":"lose","action":"go","sham":0,"trial_type":"pit-trial","trial_index":240,"time_elapsed":932464,"internal_node_id":"0.0-229.0","task_version":"battery-v0.1"},{"rune":"R","hex":"#f73b6a7A","correct":-1,"choice":32,"rt":679.184999957215,"accuracy":0,"outcome":"-10","keys":[2179.4600000139326],"total_keys":1,"block":2,"trial":227,"robot":4,"valence":"lose","action":"no-go","sham":0,"trial_type":"pit-trial","trial_index":241,"time_elapsed":935846,"internal_node_id":"0.0-230.0","task_version":"battery-v0.1"},{"rune":"Y","hex":"#f73b6a7A","correct":32,"choice":32,"rt":465.3299999772571,"accuracy":1,"outcome":"-1","keys":[1965.4600000358187],"total_keys":1,"block":2,"trial":228,"robot":3,"valence":"lose","action":"go","sham":0,"trial_type":"pit-trial","trial_index":242,"time_elapsed":939014,"internal_node_id":"0.0-231.0","task_version":"battery-v0.1"},{"rune":"Z","hex":"#f73b6a7A","correct":32,"choice":32,"rt":510.91999997152016,"accuracy":1,"outcome":"-1","keys":[2011.2500000395812],"total_keys":1,"block":2,"trial":229,"robot":3,"valence":"lose","action":"go","sham":0,"trial_type":"pit-trial","trial_index":243,"time_elapsed":942227,"internal_node_id":"0.0-232.0","task_version":"battery-v0.1"},{"rune":"C","hex":"#3366ff99","correct":-1,"choice":-1,"rt":-1,"accuracy":1,"outcome":"+10","keys":[],"total_keys":0,"block":2,"trial":230,"robot":2,"valence":"win","action":"no-go","sham":0,"trial_type":"pit-trial","trial_index":244,"time_elapsed":946230,"internal_node_id":"0.0-233.0","task_version":"battery-v0.1"},{"rune":"Y","hex":"#f73b6a7A","correct":32,"choice":-1,"rt":-1,"accuracy":0,"outcome":"-10","keys":[],"total_keys":0,"block":2,"trial":231,"robot":3,"valence":"lose","action":"go","sham":0,"trial_type":"pit-trial","trial_index":245,"time_elapsed":950233,"internal_node_id":"0.0-234.0","task_version":"battery-v0.1"},{"rune":"R","hex":"#f73b6a7A","correct":-1,"choice":-1,"rt":-1,"accuracy":1,"outcome":"-10","keys":[2957.1049999794923],"total_keys":1,"block":2,"trial":232,"robot":4,"valence":"lose","action":"no-go","sham":1,"trial_type":"pit-trial","trial_index":246,"time_elapsed":954236,"internal_node_id":"0.0-235.0","task_version":"battery-v0.1"},{"rune":"Z","hex":"#f73b6a7A","correct":32,"choice":32,"rt":515.1850000256673,"accuracy":1,"outcome":"-1","keys":[2015.6200000201352],"total_keys":1,"block":2,"trial":233,"robot":3,"valence":"lose","action":"go","sham":0,"trial_type":"pit-trial","trial_index":247,"time_elapsed":957453,"internal_node_id":"0.0-236.0","task_version":"battery-v0.1"},{"rune":"Y","hex":"#f73b6a7A","correct":32,"choice":32,"rt":561.2350000301376,"accuracy":1,"outcome":"-10","keys":[2062.2199999634176],"total_keys":1,"block":2,"trial":234,"robot":3,"valence":"lose","action":"go","sham":1,"trial_type":"pit-trial","trial_index":248,"time_elapsed":960717,"internal_node_id":"0.0-237.0","task_version":"battery-v0.1"},{"rune":"R","hex":"#f73b6a7A","correct":-1,"choice":32,"rt":455.6100000045262,"accuracy":0,"outcome":"-1","keys":[1957.0299999904819],"total_keys":1,"block":2,"trial":235,"robot":4,"valence":"lose","action":"no-go","sham":1,"trial_type":"pit-trial","trial_index":249,"time_elapsed":963877,"internal_node_id":"0.0-238.0","task_version":"battery-v0.1"},{"rune":"C","hex":"#3366ff99","correct":-1,"choice":32,"rt":612.7599999890663,"accuracy":0,"outcome":"+1","keys":[2113.794999953825],"total_keys":1,"block":2,"trial":236,"robot":2,"valence":"win","action":"no-go","sham":0,"trial_type":"pit-trial","trial_index":250,"time_elapsed":967193,"internal_node_id":"0.0-239.0","task_version":"battery-v0.1"},{"rune":"R","hex":"#f73b6a7A","correct":-1,"choice":-1,"rt":-1,"accuracy":1,"outcome":"-1","keys":[],"total_keys":0,"block":2,"trial":237,"robot":4,"valence":"lose","action":"no-go","sham":0,"trial_type":"pit-trial","trial_index":251,"time_elapsed":971197,"internal_node_id":"0.0-240.0","task_version":"battery-v0.1"},{"rune":"Y","hex":"#f73b6a7A","correct":32,"choice":-1,"rt":-1,"accuracy":0,"outcome":"-10","keys":[],"total_keys":0,"block":2,"trial":238,"robot":3,"valence":"lose","action":"go","sham":0,"trial_type":"pit-trial","trial_index":252,"time_elapsed":975201,"internal_node_id":"0.0-241.0","task_version":"battery-v0.1"},{"rune":"Z","hex":"#f73b6a7A","correct":32,"choice":-1,"rt":-1,"accuracy":0,"outcome":"-10","keys":[],"total_keys":0,"block":2,"trial":239,"robot":3,"valence":"lose","action":"go","sham":0,"trial_type":"pit-trial","trial_index":253,"time_elapsed":979203,"internal_node_id":"0.0-242.0","task_version":"battery-v0.1"},{"rune":"C","hex":"#3366ff99","correct":-1,"choice":32,"rt":535.8199999900535,"accuracy":0,"outcome":"+1","keys":[2036.6500000236556],"total_keys":1,"block":2,"trial":240,"robot":2,"valence":"win","action":"no-go","sham":0,"trial_type":"pit-trial","trial_index":254,"time_elapsed":982442,"internal_node_id":"0.0-243.0","task_version":"battery-v0.1"},{"view_history":"[{\"page_index\":0,\"viewing_time\":3745.7500000018626}]","rt":3746.045000036247,"trial_type":"pit-instructions","trial_index":255,"time_elapsed":986189,"internal_node_id":"0.0-244.0","task_version":"battery-v0.1"},{"rt":10749.884999997448,"responses":{"age":"45","gender-categorical":"Male","gender-free-response":"","ethnicity":"Hispanic or Latino","race":["White"],"language":"Yes","fluency":"Very well"},"survey":"demographics","trial_type":"survey-demo","trial_index":256,"time_elapsed":996941,"internal_node_id":"0.0-245.0","task_version":"battery-v0.1"},{"rt":20363.560000027064,"responses":{"difficulty":"1","fun":"4","clarity":"5","strategy":"I tried to find patterns but wasn't not able to","feedback":"no"},"survey":"debrief","trial_type":"survey-debrief","trial_index":257,"time_elapsed":1017307,"internal_node_id":"0.0-246.0","task_version":"battery-v0.1","interactions":"[]"}]