[{"view_history":"[{\"page_index\":0,\"viewing_time\":91430.87999999989},{\"page_index\":1,\"viewing_time\":1402.349999989383},{\"page_index\":2,\"viewing_time\":252542.13499999605},{\"page_index\":3,\"viewing_time\":2943.8099999679253},{\"page_index\":4,\"viewing_time\":1316.770000034012},{\"page_index\":5,\"viewing_time\":1509.0399999753572}]","rt":351146.00999996765,"trial_type":"pit-instructions","trial_index":0,"time_elapsed":351157,"internal_node_id":"0.0-0.0-0.0","task_version":"battery-v0.1"},{"rune":"","hex":"#FFFFF080","correct":32,"choice":32,"rt":684.8849999951199,"accuracy":1,"outcome":"+10","keys":[2186.204999976326],"total_keys":1,"block":0,"trial_type":"pit-trial","trial_index":1,"time_elapsed":354553,"internal_node_id":"0.0-0.0-1.0-0.0","task_version":"battery-v0.1"},{"rune":"","hex":"#FFFFF080","correct":32,"choice":32,"rt":831.9649999612011,"accuracy":1,"outcome":"+10","keys":[2335.25499998359],"total_keys":1,"block":0,"trial_type":"pit-trial","trial_index":2,"time_elapsed":358093,"internal_node_id":"0.0-0.0-1.0-0.1","task_version":"battery-v0.1"},{"rune":"","hex":"#FFFFF080","correct":32,"choice":32,"rt":927.3699999903329,"accuracy":1,"outcome":"+10","keys":[2428.974999987986],"total_keys":1,"block":0,"trial_type":"pit-trial","trial_index":3,"time_elapsed":361727,"internal_node_id":"0.0-0.0-1.0-0.2","task_version":"battery-v0.1"},{"rune":"","hex":"#FFFFF080","correct":32,"choice":32,"rt":995.3349999850616,"accuracy":1,"outcome":"+10","keys":[2495.6550000351854],"total_keys":1,"block":0,"trial_type":"pit-trial","trial_index":4,"time_elapsed":365431,"internal_node_id":"0.0-0.0-1.0-0.3","task_version":"battery-v0.1"},{"view_history":"[{\"page_index\":0,\"viewing_time\":2885.729999979958}]","rt":2886.515000020154,"trial_type":"pit-instructions","trial_index":5,"time_elapsed":368322,"internal_node_id":"0.0-0.0-2.0","task_version":"battery-v0.1"},{"rune":"","hex":"#FFFFF080","correct":-1,"choice":-1,"rt":-1,"accuracy":1,"outcome":"+10","keys":[],"total_keys":0,"block":0,"trial_type":"pit-trial","trial_index":6,"time_elapsed":372333,"internal_node_id":"0.0-0.0-3.0-0.0","task_version":"battery-v0.1"},{"rune":"","hex":"#FFFFF080","correct":-1,"choice":-1,"rt":-1,"accuracy":1,"outcome":"+10","keys":[],"total_keys":0,"block":0,"trial_type":"pit-trial","trial_index":7,"time_elapsed":376344,"internal_node_id":"0.0-0.0-3.0-0.1","task_version":"battery-v0.1"},{"rune":"","hex":"#FFFFF080","correct":-1,"choice":-1,"rt":-1,"accuracy":1,"outcome":"+10","keys":[],"total_keys":0,"block":0,"trial_type":"pit-trial","trial_index":8,"time_elapsed":380355,"internal_node_id":"0.0-0.0-3.0-0.2","task_version":"battery-v0.1"},{"rune":"","hex":"#FFFFF080","correct":-1,"choice":-1,"rt":-1,"accuracy":1,"outcome":"+10","keys":[],"total_keys":0,"block":0,"trial_type":"pit-trial","trial_index":9,"time_elapsed":384366,"internal_node_id":"0.0-0.0-3.0-0.3","task_version":"battery-v0.1"},{"responses":["Press SPACE","Do nothing"],"num_errors":0,"rt":214277.96500001568,"trial_type":"pit-comprehension","trial_index":10,"time_elapsed":598643,"internal_node_id":"0.0-0.0-4.0","task_version":"battery-v0.1"},{"view_history":"[{\"page_index\":0,\"viewing_time\":564783.0649999669},{\"page_index\":1,\"viewing_time\":116701.57500001369},{\"page_index\":2,\"viewing_time\":2430.3250000230037},{\"page_index\":3,\"viewing_time\":2653.0349999666214},{\"page_index\":4,\"viewing_time\":278113.3499999996},{\"page_index\":5,\"viewing_time\":4023.3400000142865},{\"page_index\":6,\"viewing_time\":5009.7550000064075},{\"page_index\":7,\"viewing_time\":1364.8099999991246},{\"page_index\":8,\"viewing_time\":1593.8500000047497},{\"page_index\":9,\"viewing_time\":541918.1349999853},{\"page_index\":10,\"viewing_time\":1294.2799999727868}]","rt":1519885.9799999627,"trial_type":"pit-instructions","trial_index":11,"time_elapsed":2118495,"internal_node_id":"0.0-1.0-0.0","task_version":"battery-v0.1"},{"responses":["+10","-1","True","True"],"num_errors":0,"rt":10327.174999983981,"trial_type":"pit-comprehension","trial_index":12,"time_elapsed":2128827,"internal_node_id":"0.0-1.0-1.0","task_version":"battery-v0.1"},{"view_history":"[{\"page_index\":0,\"viewing_time\":1217.0949999708682},{\"page_index\":1,\"viewing_time\":1301.9050000002608}]","rt":2519.444999983534,"trial_type":"pit-instructions","trial_index":13,"time_elapsed":2131354,"internal_node_id":"0.0-2.0","task_version":"battery-v0.1"},{"rune":"B","hex":"#f73b6a7A","correct":-1,"choice":32,"rt":712.740000046324,"accuracy":0,"outcome":"-10","keys":[2212.989999970887],"total_keys":1,"block":1,"trial":1,"robot":4,"valence":"lose","action":"no-go","sham":0,"trial_type":"pit-trial","trial_index":14,"time_elapsed":2134776,"internal_node_id":"0.0-3.0","task_version":"battery-v0.1"},{"rune":"C","hex":"#f73b6a7A","correct":-1,"choice":-1,"rt":-1,"accuracy":1,"outcome":"-1","keys":[],"total_keys":0,"block":1,"trial":2,"robot":4,"valence":"lose","action":"no-go","sham":0,"trial_type":"pit-trial","trial_index":15,"time_elapsed":2138785,"internal_node_id":"0.0-4.0","task_version":"battery-v0.1"},{"rune":"Z","hex":"#3366ff99","correct":32,"choice":32,"rt":456.2349999905564,"accuracy":1,"outcome":"+10","keys":[1956.7149999784306],"total_keys":1,"block":1,"trial":3,"robot":1,"valence":"win","action":"go","sham":0,"trial_type":"pit-trial","trial_index":16,"time_elapsed":2141948,"internal_node_id":"0.0-5.0","task_version":"battery-v0.1"},{"rune":"R","hex":"#3366ff99","correct":-1,"choice":32,"rt":448.5749999876134,"accuracy":0,"outcome":"+10","keys":[1952.0449999836273],"total_keys":1,"block":1,"trial":4,"robot":2,"valence":"win","action":"no-go","sham":1,"trial_type":"pit-trial","trial_index":17,"time_elapsed":2145106,"internal_node_id":"0.0-6.0","task_version":"battery-v0.1"},{"rune":"B","hex":"#f73b6a7A","correct":-1,"choice":-1,"rt":-1,"accuracy":1,"outcome":"-1","keys":[],"total_keys":0,"block":1,"trial":5,"robot":4,"valence":"lose","action":"no-go","sham":0,"trial_type":"pit-trial","trial_index":18,"time_elapsed":2149118,"internal_node_id":"0.0-7.0","task_version":"battery-v0.1"},{"rune":"C","hex":"#f73b6a7A","correct":-1,"choice":-1,"rt":-1,"accuracy":1,"outcome":"-1","keys":[],"total_keys":0,"block":1,"trial":6,"robot":4,"valence":"lose","action":"no-go","sham":0,"trial_type":"pit-trial","trial_index":19,"time_elapsed":2153129,"internal_node_id":"0.0-8.0","task_version":"battery-v0.1"},{"rune":"Z","hex":"#3366ff99","correct":32,"choice":32,"rt":355.66999996080995,"accuracy":1,"outcome":"+10","keys":[1856.305000022985],"total_keys":1,"block":1,"trial":7,"robot":1,"valence":"win","action":"go","sham":0,"trial_type":"pit-trial","trial_index":20,"time_elapsed":2156192,"internal_node_id":"0.0-9.0","task_version":"battery-v0.1"},{"rune":"R","hex":"#3366ff99","correct":-1,"choice":32,"rt":295.5699999583885,"accuracy":0,"outcome":"+1","keys":[1797.4399999948218],"total_keys":1,"block":1,"trial":8,"robot":2,"valence":"win","action":"no-go","sham":0,"trial_type":"pit-trial","trial_index":21,"time_elapsed":2159199,"internal_node_id":"0.0-10.0","task_version":"battery-v0.1"},{"rune":"C","hex":"#f73b6a7A","correct":-1,"choice":-1,"rt":-1,"accuracy":1,"outcome":"-1","keys":[],"total_keys":0,"block":1,"trial":9,"robot":4,"valence":"lose","action":"no-go","sham":0,"trial_type":"pit-trial","trial_index":22,"time_elapsed":2163205,"internal_node_id":"0.0-11.0","task_version":"battery-v0.1"},{"rune":"R","hex":"#3366ff99","correct":-1,"choice":32,"rt":252.7049999916926,"accuracy":0,"outcome":"+1","keys":[1753.499999991618],"total_keys":1,"block":1,"trial":10,"robot":2,"valence":"win","action":"no-go","sham":0,"trial_type":"pit-trial","trial_index":23,"time_elapsed":2166166,"internal_node_id":"0.0-12.0","task_version":"battery-v0.1"},{"rune":"Z","hex":"#3366ff99","correct":32,"choice":32,"rt":569.980000029318,"accuracy":1,"outcome":"+1","keys":[2070.8250000025146],"total_keys":1,"block":1,"trial":11,"robot":1,"valence":"win","action":"go","sham":1,"trial_type":"pit-trial","trial_index":24,"time_elapsed":2169445,"internal_node_id":"0.0-13.0","task_version":"battery-v0.1"},{"rune":"B","hex":"#f73b6a7A","correct":-1,"choice":-1,"rt":-1,"accuracy":1,"outcome":"-1","keys":[],"total_keys":0,"block":1,"trial":12,"robot":4,"valence":"lose","action":"no-go","sham":0,"trial_type":"pit-trial","trial_index":25,"time_elapsed":2173457,"internal_node_id":"0.0-14.0","task_version":"battery-v0.1"},{"rune":"C","hex":"#f73b6a7A","correct":-1,"choice":-1,"rt":-1,"accuracy":1,"outcome":"-1","keys":[],"total_keys":0,"block":1,"trial":13,"robot":4,"valence":"lose","action":"no-go","sham":0,"trial_type":"pit-trial","trial_index":26,"time_elapsed":2177467,"internal_node_id":"0.0-15.0","task_version":"battery-v0.1"},{"rune":"R","hex":"#3366ff99","correct":-1,"choice":32,"rt":760.500000033062,"accuracy":0,"outcome":"+1","keys":[2261.6350000025705],"total_keys":1,"block":1,"trial":14,"robot":2,"valence":"win","action":"no-go","sham":0,"trial_type":"pit-trial","trial_index":27,"time_elapsed":2180936,"internal_node_id":"0.0-16.0","task_version":"battery-v0.1"},{"rune":"B","hex":"#f73b6a7A","correct":-1,"choice":-1,"rt":-1,"accuracy":1,"outcome":"-1","keys":[],"total_keys":0,"block":1,"trial":15,"robot":4,"valence":"lose","action":"no-go","sham":0,"trial_type":"pit-trial","trial_index":28,"time_elapsed":2184944,"internal_node_id":"0.0-17.0","task_version":"battery-v0.1"},{"rune":"Z","hex":"#3366ff99","correct":32,"choice":32,"rt":408.6750000133179,"accuracy":1,"outcome":"+10","keys":[1908.9749999693595],"total_keys":1,"block":1,"trial":16,"robot":1,"valence":"win","action":"go","sham":0,"trial_type":"pit-trial","trial_index":29,"time_elapsed":2188062,"internal_node_id":"0.0-18.0","task_version":"battery-v0.1"},{"rune":"B","hex":"#f73b6a7A","correct":-1,"choice":-1,"rt":-1,"accuracy":1,"outcome":"-1","keys":[],"total_keys":0,"block":1,"trial":17,"robot":4,"valence":"lose","action":"no-go","sham":0,"trial_type":"pit-trial","trial_index":30,"time_elapsed":2192075,"internal_node_id":"0.0-19.0","task_version":"battery-v0.1"},{"rune":"R","hex":"#3366ff99","correct":-1,"choice":32,"rt":311.5749999997206,"accuracy":0,"outcome":"+1","keys":[1819.5000000414439],"total_keys":1,"block":1,"trial":18,"robot":2,"valence":"win","action":"no-go","sham":0,"trial_type":"pit-trial","trial_index":31,"time_elapsed":2195100,"internal_node_id":"0.0-20.0","task_version":"battery-v0.1"},{"rune":"C","hex":"#f73b6a7A","correct":-1,"choice":-1,"rt":-1,"accuracy":1,"outcome":"-1","keys":[],"total_keys":0,"block":1,"trial":19,"robot":4,"valence":"lose","action":"no-go","sham":0,"trial_type":"pit-trial","trial_index":32,"time_elapsed":2199111,"internal_node_id":"0.0-21.0","task_version":"battery-v0.1"},{"rune":"Z","hex":"#3366ff99","correct":32,"choice":32,"rt":381.4500000444241,"accuracy":1,"outcome":"+10","keys":[1882.625000027474],"total_keys":1,"block":1,"trial":20,"robot":1,"valence":"win","action":"go","sham":0,"trial_type":"pit-trial","trial_index":33,"time_elapsed":2202203,"internal_node_id":"0.0-22.0","task_version":"battery-v0.1"},{"rune":"C","hex":"#f73b6a7A","correct":-1,"choice":-1,"rt":-1,"accuracy":1,"outcome":"-10","keys":[],"total_keys":0,"block":1,"trial":21,"robot":4,"valence":"lose","action":"no-go","sham":1,"trial_type":"pit-trial","trial_index":34,"time_elapsed":2206213,"internal_node_id":"0.0-23.0","task_version":"battery-v0.1"},{"rune":"R","hex":"#3366ff99","correct":-1,"choice":32,"rt":363.4650000021793,"accuracy":0,"outcome":"+1","keys":[1864.484999969136],"total_keys":1,"block":1,"trial":22,"robot":2,"valence":"win","action":"no-go","sham":0,"trial_type":"pit-trial","trial_index":35,"time_elapsed":2209283,"internal_node_id":"0.0-24.0","task_version":"battery-v0.1"},{"rune":"B","hex":"#f73b6a7A","correct":-1,"choice":-1,"rt":-1,"accuracy":1,"outcome":"-1","keys":[],"total_keys":0,"block":1,"trial":23,"robot":4,"valence":"lose","action":"no-go","sham":0,"trial_type":"pit-trial","trial_index":36,"time_elapsed":2213293,"internal_node_id":"0.0-25.0","task_version":"battery-v0.1"},{"rune":"Z","hex":"#3366ff99","correct":32,"choice":32,"rt":353.47500001080334,"accuracy":1,"outcome":"+10","keys":[1853.545000019949],"total_keys":1,"block":1,"trial":24,"robot":1,"valence":"win","action":"go","sham":0,"trial_type":"pit-trial","trial_index":37,"time_elapsed":2216353,"internal_node_id":"0.0-26.0","task_version":"battery-v0.1"},{"rune":"Z","hex":"#3366ff99","correct":32,"choice":32,"rt":428.6149999825284,"accuracy":1,"outcome":"+10","keys":[1932.1700000436977],"total_keys":1,"block":1,"trial":25,"robot":1,"valence":"win","action":"go","sham":0,"trial_type":"pit-trial","trial_index":38,"time_elapsed":2219494,"internal_node_id":"0.0-27.0","task_version":"battery-v0.1"},{"rune":"C","hex":"#f73b6a7A","correct":-1,"choice":-1,"rt":-1,"accuracy":1,"outcome":"-1","keys":[],"total_keys":0,"block":1,"trial":26,"robot":4,"valence":"lose","action":"no-go","sham":0,"trial_type":"pit-trial","trial_index":39,"time_elapsed":2223505,"internal_node_id":"0.0-28.0","task_version":"battery-v0.1"},{"rune":"B","hex":"#f73b6a7A","correct":-1,"choice":-1,"rt":-1,"accuracy":1,"outcome":"-10","keys":[],"total_keys":0,"block":1,"trial":27,"robot":4,"valence":"lose","action":"no-go","sham":1,"trial_type":"pit-trial","trial_index":40,"time_elapsed":2227516,"internal_node_id":"0.0-29.0","task_version":"battery-v0.1"},{"rune":"R","hex":"#3366ff99","correct":-1,"choice":32,"rt":337.1550000156276,"accuracy":0,"outcome":"+1","keys":[1837.615000025835],"total_keys":1,"block":1,"trial":28,"robot":2,"valence":"win","action":"no-go","sham":0,"trial_type":"pit-trial","trial_index":41,"time_elapsed":2230562,"internal_node_id":"0.0-30.0","task_version":"battery-v0.1"},{"rune":"R","hex":"#3366ff99","correct":-1,"choice":32,"rt":1274.6749999932945,"accuracy":0,"outcome":"+1","keys":[2776.320000004489],"total_keys":1,"block":1,"trial":29,"robot":2,"valence":"win","action":"no-go","sham":0,"trial_type":"pit-trial","trial_index":42,"time_elapsed":2234543,"internal_node_id":"0.0-31.0","task_version":"battery-v0.1"},{"rune":"B","hex":"#f73b6a7A","correct":-1,"choice":-1,"rt":-1,"accuracy":1,"outcome":"-1","keys":[],"total_keys":0,"block":1,"trial":30,"robot":4,"valence":"lose","action":"no-go","sham":0,"trial_type":"pit-trial","trial_index":43,"time_elapsed":2238552,"internal_node_id":"0.0-32.0","task_version":"battery-v0.1"},{"rune":"C","hex":"#f73b6a7A","correct":-1,"choice":-1,"rt":-1,"accuracy":1,"outcome":"-10","keys":[],"total_keys":0,"block":1,"trial":31,"robot":4,"valence":"lose","action":"no-go","sham":1,"trial_type":"pit-trial","trial_index":44,"time_elapsed":2242559,"internal_node_id":"0.0-33.0","task_version":"battery-v0.1"},{"rune":"Z","hex":"#3366ff99","correct":32,"choice":32,"rt":1108.0699999583885,"accuracy":1,"outcome":"+1","keys":[2608.3249999792315],"total_keys":1,"block":1,"trial":32,"robot":1,"valence":"win","action":"go","sham":1,"trial_type":"pit-trial","trial_index":45,"time_elapsed":2246374,"internal_node_id":"0.0-34.0","task_version":"battery-v0.1"},{"rune":"R","hex":"#3366ff99","correct":-1,"choice":-1,"rt":-1,"accuracy":1,"outcome":"+10","keys":[3106.2399999937043,3596.4099999982864],"total_keys":2,"block":1,"trial":33,"robot":2,"valence":"win","action":"no-go","sham":0,"trial_type":"pit-trial","trial_index":46,"time_elapsed":2250384,"internal_node_id":"0.0-35.0","task_version":"battery-v0.1"},{"rune":"Z","hex":"#3366ff99","correct":32,"choice":-1,"rt":-1,"accuracy":0,"outcome":"+1","keys":[],"total_keys":0,"block":1,"trial":34,"robot":1,"valence":"win","action":"go","sham":0,"trial_type":"pit-trial","trial_index":47,"time_elapsed":2254394,"internal_node_id":"0.0-36.0","task_version":"battery-v0.1"},{"rune":"C","hex":"#f73b6a7A","correct":-1,"choice":-1,"rt":-1,"accuracy":1,"outcome":"-1","keys":[],"total_keys":0,"block":1,"trial":35,"robot":4,"valence":"lose","action":"no-go","sham":0,"trial_type":"pit-trial","trial_index":48,"time_elapsed":2258404,"internal_node_id":"0.0-37.0","task_version":"battery-v0.1"},{"rune":"F","hex":"#f73b6a7A","correct":32,"choice":-1,"rt":-1,"accuracy":0,"outcome":"-10","keys":[],"total_keys":0,"block":1,"trial":36,"robot":3,"valence":"lose","action":"go","sham":0,"trial_type":"pit-trial","trial_index":49,"time_elapsed":2262416,"internal_node_id":"0.0-38.0","task_version":"battery-v0.1"},{"rune":"C","hex":"#f73b6a7A","correct":-1,"choice":-1,"rt":-1,"accuracy":1,"outcome":"-1","keys":[],"total_keys":0,"block":1,"trial":37,"robot":4,"valence":"lose","action":"no-go","sham":0,"trial_type":"pit-trial","trial_index":50,"time_elapsed":2266425,"internal_node_id":"0.0-39.0","task_version":"battery-v0.1"},{"rune":"F","hex":"#f73b6a7A","correct":32,"choice":-1,"rt":-1,"accuracy":0,"outcome":"-10","keys":[],"total_keys":0,"block":1,"trial":38,"robot":3,"valence":"lose","action":"go","sham":0,"trial_type":"pit-trial","trial_index":51,"time_elapsed":2270432,"internal_node_id":"0.0-40.0","task_version":"battery-v0.1"},{"rune":"R","hex":"#3366ff99","correct":-1,"choice":32,"rt":505.704999959562,"accuracy":0,"outcome":"+10","keys":[2006.519999995362],"total_keys":1,"block":1,"trial":39,"robot":2,"valence":"win","action":"no-go","sham":1,"trial_type":"pit-trial","trial_index":52,"time_elapsed":2273648,"internal_node_id":"0.0-41.0","task_version":"battery-v0.1"},{"rune":"Z","hex":"#3366ff99","correct":32,"choice":32,"rt":426.58000002847984,"accuracy":1,"outcome":"+1","keys":[1928.124999976717],"total_keys":1,"block":1,"trial":40,"robot":1,"valence":"win","action":"go","sham":1,"trial_type":"pit-trial","trial_index":53,"time_elapsed":2276783,"internal_node_id":"0.0-42.0","task_version":"battery-v0.1"},{"rune":"J","hex":"#3366ff99","correct":-1,"choice":32,"rt":570.4099999857135,"accuracy":0,"outcome":"+1","keys":[2070.9500000230037],"total_keys":1,"block":1,"trial":41,"robot":2,"valence":"win","action":"no-go","sham":0,"trial_type":"pit-trial","trial_index":54,"time_elapsed":2280062,"internal_node_id":"0.0-43.0","task_version":"battery-v0.1"},{"rune":"L","hex":"#3366ff99","correct":32,"choice":32,"rt":317.9150000214577,"accuracy":1,"outcome":"+1","keys":[1818.2900000247173],"total_keys":1,"block":1,"trial":42,"robot":1,"valence":"win","action":"go","sham":1,"trial_type":"pit-trial","trial_index":55,"time_elapsed":2283089,"internal_node_id":"0.0-44.0","task_version":"battery-v0.1"},{"rune":"C","hex":"#f73b6a7A","correct":-1,"choice":-1,"rt":-1,"accuracy":1,"outcome":"-1","keys":[],"total_keys":0,"block":1,"trial":43,"robot":4,"valence":"lose","action":"no-go","sham":0,"trial_type":"pit-trial","trial_index":56,"time_elapsed":2287097,"internal_node_id":"0.0-45.0","task_version":"battery-v0.1"},{"rune":"F","hex":"#f73b6a7A","correct":32,"choice":-1,"rt":-1,"accuracy":0,"outcome":"-10","keys":[],"total_keys":0,"block":1,"trial":44,"robot":3,"valence":"lose","action":"go","sham":0,"trial_type":"pit-trial","trial_index":57,"time_elapsed":2291108,"internal_node_id":"0.0-46.0","task_version":"battery-v0.1"},{"rune":"J","hex":"#3366ff99","correct":-1,"choice":32,"rt":367.78500000946224,"accuracy":0,"outcome":"+1","keys":[1867.9449999472126],"total_keys":1,"block":1,"trial":45,"robot":2,"valence":"win","action":"no-go","sham":0,"trial_type":"pit-trial","trial_index":58,"time_elapsed":2294185,"internal_node_id":"0.0-47.0","task_version":"battery-v0.1"},{"rune":"L","hex":"#3366ff99","correct":32,"choice":32,"rt":634.9249999620952,"accuracy":1,"outcome":"+1","keys":[2137.189999979455],"total_keys":1,"block":1,"trial":46,"robot":1,"valence":"win","action":"go","sham":1,"trial_type":"pit-trial","trial_index":59,"time_elapsed":2297528,"internal_node_id":"0.0-48.0","task_version":"battery-v0.1"},{"rune":"F","hex":"#f73b6a7A","correct":32,"choice":-1,"rt":-1,"accuracy":0,"outcome":"-1","keys":[],"total_keys":0,"block":1,"trial":47,"robot":3,"valence":"lose","action":"go","sham":1,"trial_type":"pit-trial","trial_index":60,"time_elapsed":2301545,"internal_node_id":"0.0-49.0","task_version":"battery-v0.1"},{"rune":"C","hex":"#f73b6a7A","correct":-1,"choice":-1,"rt":-1,"accuracy":1,"outcome":"-1","keys":[],"total_keys":0,"block":1,"trial":48,"robot":4,"valence":"lose","action":"no-go","sham":0,"trial_type":"pit-trial","trial_index":61,"time_elapsed":2305557,"internal_node_id":"0.0-50.0","task_version":"battery-v0.1"},{"rune":"L","hex":"#3366ff99","correct":32,"choice":32,"rt":501.13000004785135,"accuracy":1,"outcome":"+10","keys":[2001.7099999822676],"total_keys":1,"block":1,"trial":49,"robot":1,"valence":"win","action":"go","sham":0,"trial_type":"pit-trial","trial_index":62,"time_elapsed":2308767,"internal_node_id":"0.0-51.0","task_version":"battery-v0.1"},{"rune":"X","hex":"#f73b6a7A","correct":-1,"choice":-1,"rt":-1,"accuracy":1,"outcome":"-10","keys":[],"total_keys":0,"block":1,"trial":50,"robot":4,"valence":"lose","action":"no-go","sham":1,"trial_type":"pit-trial","trial_index":63,"time_elapsed":2312778,"internal_node_id":"0.0-52.0","task_version":"battery-v0.1"},{"rune":"J","hex":"#3366ff99","correct":-1,"choice":32,"rt":378.9600000018254,"accuracy":0,"outcome":"+1","keys":[1880.1000000094064],"total_keys":1,"block":1,"trial":51,"robot":2,"valence":"win","action":"no-go","sham":0,"trial_type":"pit-trial","trial_index":64,"time_elapsed":2315867,"internal_node_id":"0.0-53.0","task_version":"battery-v0.1"},{"rune":"F","hex":"#f73b6a7A","correct":32,"choice":-1,"rt":-1,"accuracy":0,"outcome":"-10","keys":[],"total_keys":0,"block":1,"trial":52,"robot":3,"valence":"lose","action":"go","sham":0,"trial_type":"pit-trial","trial_index":65,"time_elapsed":2319877,"internal_node_id":"0.0-54.0","task_version":"battery-v0.1"},{"rune":"X","hex":"#f73b6a7A","correct":-1,"choice":-1,"rt":-1,"accuracy":1,"outcome":"-1","keys":[],"total_keys":0,"block":1,"trial":53,"robot":4,"valence":"lose","action":"no-go","sham":0,"trial_type":"pit-trial","trial_index":66,"time_elapsed":2323888,"internal_node_id":"0.0-55.0","task_version":"battery-v0.1"},{"rune":"F","hex":"#f73b6a7A","correct":32,"choice":-1,"rt":-1,"accuracy":0,"outcome":"-1","keys":[],"total_keys":0,"block":1,"trial":54,"robot":3,"valence":"lose","action":"go","sham":1,"trial_type":"pit-trial","trial_index":67,"time_elapsed":2327900,"internal_node_id":"0.0-56.0","task_version":"battery-v0.1"},{"rune":"L","hex":"#3366ff99","correct":32,"choice":32,"rt":358.06500003673136,"accuracy":1,"outcome":"+10","keys":[1858.9500000234693],"total_keys":1,"block":1,"trial":55,"robot":1,"valence":"win","action":"go","sham":0,"trial_type":"pit-trial","trial_index":68,"time_elapsed":2330968,"internal_node_id":"0.0-57.0","task_version":"battery-v0.1"},{"rune":"J","hex":"#3366ff99","correct":-1,"choice":32,"rt":316.17000000551343,"accuracy":0,"outcome":"+1","keys":[1817.5150000024587],"total_keys":1,"block":1,"trial":56,"robot":2,"valence":"win","action":"no-go","sham":0,"trial_type":"pit-trial","trial_index":69,"time_elapsed":2333990,"internal_node_id":"0.0-58.0","task_version":"battery-v0.1"},{"rune":"L","hex":"#3366ff99","correct":32,"choice":32,"rt":260.67499996861443,"accuracy":1,"outcome":"+10","keys":[1761.4300000132062],"total_keys":1,"block":1,"trial":57,"robot":1,"valence":"win","action":"go","sham":0,"trial_type":"pit-trial","trial_index":70,"time_elapsed":2336961,"internal_node_id":"0.0-59.0","task_version":"battery-v0.1"},{"rune":"F","hex":"#f73b6a7A","correct":32,"choice":-1,"rt":-1,"accuracy":0,"outcome":"-10","keys":[],"total_keys":0,"block":1,"trial":58,"robot":3,"valence":"lose","action":"go","sham":0,"trial_type":"pit-trial","trial_index":71,"time_elapsed":2340972,"internal_node_id":"0.0-60.0","task_version":"battery-v0.1"},{"rune":"J","hex":"#3366ff99","correct":-1,"choice":32,"rt":286.95000003790483,"accuracy":0,"outcome":"+1","keys":[1787.9550000070594],"total_keys":1,"block":1,"trial":59,"robot":2,"valence":"win","action":"no-go","sham":0,"trial_type":"pit-trial","trial_index":72,"time_elapsed":2343967,"internal_node_id":"0.0-61.0","task_version":"battery-v0.1"},{"rune":"X","hex":"#f73b6a7A","correct":-1,"choice":-1,"rt":-1,"accuracy":1,"outcome":"-1","keys":[],"total_keys":0,"block":1,"trial":60,"robot":4,"valence":"lose","action":"no-go","sham":0,"trial_type":"pit-trial","trial_index":73,"time_elapsed":2347972,"internal_node_id":"0.0-62.0","task_version":"battery-v0.1"},{"rune":"J","hex":"#3366ff99","correct":-1,"choice":32,"rt":238.35999995935708,"accuracy":0,"outcome":"+1","keys":[1738.6549999937415],"total_keys":1,"block":1,"trial":61,"robot":2,"valence":"win","action":"no-go","sham":0,"trial_type":"pit-trial","trial_index":74,"time_elapsed":2350920,"internal_node_id":"0.0-63.0","task_version":"battery-v0.1"},{"rune":"X","hex":"#f73b6a7A","correct":-1,"choice":-1,"rt":-1,"accuracy":1,"outcome":"-10","keys":[],"total_keys":0,"block":1,"trial":62,"robot":4,"valence":"lose","action":"no-go","sham":1,"trial_type":"pit-trial","trial_index":75,"time_elapsed":2354927,"internal_node_id":"0.0-64.0","task_version":"battery-v0.1"},{"rune":"L","hex":"#3366ff99","correct":32,"choice":32,"rt":395.2200000057928,"accuracy":1,"outcome":"+10","keys":[1895.7749999826774],"total_keys":1,"block":1,"trial":63,"robot":1,"valence":"win","action":"go","sham":0,"trial_type":"pit-trial","trial_index":76,"time_elapsed":2358031,"internal_node_id":"0.0-65.0","task_version":"battery-v0.1"},{"rune":"F","hex":"#f73b6a7A","correct":32,"choice":-1,"rt":-1,"accuracy":0,"outcome":"-10","keys":[],"total_keys":0,"block":1,"trial":64,"robot":3,"valence":"lose","action":"go","sham":0,"trial_type":"pit-trial","trial_index":77,"time_elapsed":2362045,"internal_node_id":"0.0-66.0","task_version":"battery-v0.1"},{"rune":"X","hex":"#f73b6a7A","correct":-1,"choice":-1,"rt":-1,"accuracy":1,"outcome":"-1","keys":[],"total_keys":0,"block":1,"trial":65,"robot":4,"valence":"lose","action":"no-go","sham":0,"trial_type":"pit-trial","trial_index":78,"time_elapsed":2366056,"internal_node_id":"0.0-67.0","task_version":"battery-v0.1"},{"rune":"J","hex":"#3366ff99","correct":-1,"choice":32,"rt":358.0599999986589,"accuracy":0,"outcome":"+1","keys":[1858.3099999814294],"total_keys":1,"block":1,"trial":66,"robot":2,"valence":"win","action":"no-go","sham":0,"trial_type":"pit-trial","trial_index":79,"time_elapsed":2369124,"internal_node_id":"0.0-68.0","task_version":"battery-v0.1"},{"rune":"F","hex":"#f73b6a7A","correct":32,"choice":-1,"rt":-1,"accuracy":0,"outcome":"-1","keys":[],"total_keys":0,"block":1,"trial":67,"robot":3,"valence":"lose","action":"go","sham":1,"trial_type":"pit-trial","trial_index":80,"time_elapsed":2373137,"internal_node_id":"0.0-69.0","task_version":"battery-v0.1"},{"rune":"L","hex":"#3366ff99","correct":32,"choice":32,"rt":398.68500002194196,"accuracy":1,"outcome":"+10","keys":[1898.780000046827],"total_keys":1,"block":1,"trial":68,"robot":1,"valence":"win","action":"go","sham":0,"trial_type":"pit-trial","trial_index":81,"time_elapsed":2376244,"internal_node_id":"0.0-70.0","task_version":"battery-v0.1"},{"rune":"X","hex":"#f73b6a7A","correct":-1,"choice":-1,"rt":-1,"accuracy":1,"outcome":"-1","keys":[],"total_keys":0,"block":1,"trial":69,"robot":4,"valence":"lose","action":"no-go","sham":0,"trial_type":"pit-trial","trial_index":82,"time_elapsed":2380255,"internal_node_id":"0.0-71.0","task_version":"battery-v0.1"},{"rune":"J","hex":"#3366ff99","correct":-1,"choice":32,"rt":250.50500000361353,"accuracy":0,"outcome":"+1","keys":[1750.6649999995716],"total_keys":1,"block":1,"trial":70,"robot":2,"valence":"win","action":"no-go","sham":0,"trial_type":"pit-trial","trial_index":83,"time_elapsed":2383215,"internal_node_id":"0.0-72.0","task_version":"battery-v0.1"},{"rune":"L","hex":"#3366ff99","correct":32,"choice":32,"rt":308.1349999993108,"accuracy":1,"outcome":"+10","keys":[1808.6100000073202],"total_keys":1,"block":1,"trial":71,"robot":1,"valence":"win","action":"go","sham":0,"trial_type":"pit-trial","trial_index":84,"time_elapsed":2386232,"internal_node_id":"0.0-73.0","task_version":"battery-v0.1"},{"rune":"F","hex":"#f73b6a7A","correct":32,"choice":-1,"rt":-1,"accuracy":0,"outcome":"-10","keys":[],"total_keys":0,"block":1,"trial":72,"robot":3,"valence":"lose","action":"go","sham":0,"trial_type":"pit-trial","trial_index":85,"time_elapsed":2390241,"internal_node_id":"0.0-74.0","task_version":"battery-v0.1"},{"rune":"X","hex":"#f73b6a7A","correct":-1,"choice":-1,"rt":-1,"accuracy":1,"outcome":"-1","keys":[],"total_keys":0,"block":1,"trial":73,"robot":4,"valence":"lose","action":"no-go","sham":0,"trial_type":"pit-trial","trial_index":86,"time_elapsed":2394248,"internal_node_id":"0.0-75.0","task_version":"battery-v0.1"},{"rune":"J","hex":"#3366ff99","correct":-1,"choice":32,"rt":472.21500001614913,"accuracy":0,"outcome":"+1","keys":[1972.5000000325963],"total_keys":1,"block":1,"trial":74,"robot":2,"valence":"win","action":"no-go","sham":0,"trial_type":"pit-trial","trial_index":87,"time_elapsed":2397444,"internal_node_id":"0.0-76.0","task_version":"battery-v0.1"},{"rune":"V","hex":"#3366ff99","correct":32,"choice":-1,"rt":-1,"accuracy":0,"outcome":"+1","keys":[],"total_keys":0,"block":1,"trial":75,"robot":1,"valence":"win","action":"go","sham":0,"trial_type":"pit-trial","trial_index":88,"time_elapsed":2401457,"internal_node_id":"0.0-77.0","task_version":"battery-v0.1"},{"rune":"E","hex":"#f73b6a7A","correct":32,"choice":-1,"rt":-1,"accuracy":0,"outcome":"-10","keys":[73.81500001065433],"total_keys":1,"block":1,"trial":76,"robot":3,"valence":"lose","action":"go","sham":0,"trial_type":"pit-trial","trial_index":89,"time_elapsed":2405473,"internal_node_id":"0.0-78.0","task_version":"battery-v0.1"},{"rune":"J","hex":"#3366ff99","correct":-1,"choice":32,"rt":344.76000000722706,"accuracy":0,"outcome":"+1","keys":[1846.064999990631],"total_keys":1,"block":1,"trial":77,"robot":2,"valence":"win","action":"no-go","sham":0,"trial_type":"pit-trial","trial_index":90,"time_elapsed":2408528,"internal_node_id":"0.0-79.0","task_version":"battery-v0.1"},{"rune":"V","hex":"#3366ff99","correct":32,"choice":32,"rt":744.0499999793246,"accuracy":1,"outcome":"+10","keys":[2245.3199999872595],"total_keys":1,"block":1,"trial":78,"robot":1,"valence":"win","action":"go","sham":0,"trial_type":"pit-trial","trial_index":91,"time_elapsed":2411982,"internal_node_id":"0.0-80.0","task_version":"battery-v0.1"},{"rune":"X","hex":"#f73b6a7A","correct":-1,"choice":-1,"rt":-1,"accuracy":1,"outcome":"-1","keys":[],"total_keys":0,"block":1,"trial":79,"robot":4,"valence":"lose","action":"no-go","sham":0,"trial_type":"pit-trial","trial_index":92,"time_elapsed":2415990,"internal_node_id":"0.0-81.0","task_version":"battery-v0.1"},{"rune":"E","hex":"#f73b6a7A","correct":32,"choice":-1,"rt":-1,"accuracy":0,"outcome":"-10","keys":[],"total_keys":0,"block":1,"trial":80,"robot":3,"valence":"lose","action":"go","sham":0,"trial_type":"pit-trial","trial_index":93,"time_elapsed":2419998,"internal_node_id":"0.0-82.0","task_version":"battery-v0.1"},{"rune":"J","hex":"#3366ff99","correct":-1,"choice":32,"rt":378.58000001870096,"accuracy":0,"outcome":"+10","keys":[1879.404999956023],"total_keys":1,"block":1,"trial":81,"robot":2,"valence":"win","action":"no-go","sham":1,"trial_type":"pit-trial","trial_index":94,"time_elapsed":2423084,"internal_node_id":"0.0-83.0","task_version":"battery-v0.1"},{"rune":"E","hex":"#f73b6a7A","correct":32,"choice":-1,"rt":-1,"accuracy":0,"outcome":"-10","keys":[],"total_keys":0,"block":1,"trial":82,"robot":3,"valence":"lose","action":"go","sham":0,"trial_type":"pit-trial","trial_index":95,"time_elapsed":2427093,"internal_node_id":"0.0-84.0","task_version":"battery-v0.1"},{"rune":"V","hex":"#3366ff99","correct":32,"choice":32,"rt":350.32999998657033,"accuracy":1,"outcome":"+10","keys":[1854.0600000414997],"total_keys":1,"block":1,"trial":83,"robot":1,"valence":"win","action":"go","sham":0,"trial_type":"pit-trial","trial_index":96,"time_elapsed":2430154,"internal_node_id":"0.0-85.0","task_version":"battery-v0.1"},{"rune":"X","hex":"#f73b6a7A","correct":-1,"choice":-1,"rt":-1,"accuracy":1,"outcome":"-1","keys":[],"total_keys":0,"block":1,"trial":84,"robot":4,"valence":"lose","action":"no-go","sham":0,"trial_type":"pit-trial","trial_index":97,"time_elapsed":2434166,"internal_node_id":"0.0-86.0","task_version":"battery-v0.1"},{"rune":"J","hex":"#3366ff99","correct":-1,"choice":32,"rt":322.5199999869801,"accuracy":0,"outcome":"+1","keys":[1823.2800000114366],"total_keys":1,"block":1,"trial":85,"robot":2,"valence":"win","action":"no-go","sham":0,"trial_type":"pit-trial","trial_index":98,"time_elapsed":2437194,"internal_node_id":"0.0-87.0","task_version":"battery-v0.1"},{"rune":"V","hex":"#3366ff99","correct":32,"choice":32,"rt":264.39999998547137,"accuracy":1,"outcome":"+10","keys":[1768.9399999799207],"total_keys":1,"block":1,"trial":86,"robot":1,"valence":"win","action":"go","sham":0,"trial_type":"pit-trial","trial_index":99,"time_elapsed":2440170,"internal_node_id":"0.0-88.0","task_version":"battery-v0.1"},{"rune":"E","hex":"#f73b6a7A","correct":32,"choice":-1,"rt":-1,"accuracy":0,"outcome":"-10","keys":[],"total_keys":0,"block":1,"trial":87,"robot":3,"valence":"lose","action":"go","sham":0,"trial_type":"pit-trial","trial_index":100,"time_elapsed":2444176,"internal_node_id":"0.0-89.0","task_version":"battery-v0.1"},{"rune":"X","hex":"#f73b6a7A","correct":-1,"choice":-1,"rt":-1,"accuracy":1,"outcome":"-10","keys":[],"total_keys":0,"block":1,"trial":88,"robot":4,"valence":"lose","action":"no-go","sham":1,"trial_type":"pit-trial","trial_index":101,"time_elapsed":2448186,"internal_node_id":"0.0-90.0","task_version":"battery-v0.1"},{"rune":"I","hex":"#3366ff99","correct":-1,"choice":32,"rt":424.3800000404008,"accuracy":0,"outcome":"+1","keys":[1924.5499999960884],"total_keys":1,"block":1,"trial":89,"robot":2,"valence":"win","action":"no-go","sham":0,"trial_type":"pit-trial","trial_index":102,"time_elapsed":2451321,"internal_node_id":"0.0-91.0","task_version":"battery-v0.1"},{"rune":"E","hex":"#f73b6a7A","correct":32,"choice":32,"rt":646.2349999928847,"accuracy":1,"outcome":"-1","keys":[2146.6549999895506],"total_keys":1,"block":1,"trial":90,"robot":3,"valence":"lose","action":"go","sham":0,"trial_type":"pit-trial","trial_index":103,"time_elapsed":2454674,"internal_node_id":"0.0-92.0","task_version":"battery-v0.1"},{"rune":"D","hex":"#f73b6a7A","correct":32,"choice":32,"rt":825.2600000123493,"accuracy":1,"outcome":"-10","keys":[2325.9699999471195],"total_keys":1,"block":1,"trial":91,"robot":3,"valence":"lose","action":"go","sham":1,"trial_type":"pit-trial","trial_index":104,"time_elapsed":2458205,"internal_node_id":"0.0-93.0","task_version":"battery-v0.1"},{"rune":"V","hex":"#3366ff99","correct":32,"choice":32,"rt":275.034999998752,"accuracy":1,"outcome":"+10","keys":[1775.5849999957718],"total_keys":1,"block":1,"trial":92,"robot":1,"valence":"win","action":"go","sham":0,"trial_type":"pit-trial","trial_index":105,"time_elapsed":2461189,"internal_node_id":"0.0-94.0","task_version":"battery-v0.1"},{"rune":"I","hex":"#3366ff99","correct":-1,"choice":32,"rt":340.1399999856949,"accuracy":0,"outcome":"+1","keys":[1840.390000026673],"total_keys":1,"block":1,"trial":93,"robot":2,"valence":"win","action":"no-go","sham":0,"trial_type":"pit-trial","trial_index":106,"time_elapsed":2464236,"internal_node_id":"0.0-95.0","task_version":"battery-v0.1"},{"rune":"D","hex":"#f73b6a7A","correct":32,"choice":-1,"rt":-1,"accuracy":0,"outcome":"-10","keys":[3590.8199999830686],"total_keys":1,"block":1,"trial":94,"robot":3,"valence":"lose","action":"go","sham":0,"trial_type":"pit-trial","trial_index":107,"time_elapsed":2468248,"internal_node_id":"0.0-96.0","task_version":"battery-v0.1"},{"rune":"V","hex":"#3366ff99","correct":32,"choice":32,"rt":472.9799999622628,"accuracy":1,"outcome":"+10","keys":[1975.8399999700487],"total_keys":1,"block":1,"trial":95,"robot":1,"valence":"win","action":"go","sham":0,"trial_type":"pit-trial","trial_index":108,"time_elapsed":2471429,"internal_node_id":"0.0-97.0","task_version":"battery-v0.1"},{"rune":"E","hex":"#f73b6a7A","correct":32,"choice":32,"rt":819.4500000099652,"accuracy":1,"outcome":"-10","keys":[2319.8800000245683],"total_keys":1,"block":1,"trial":96,"robot":3,"valence":"lose","action":"go","sham":1,"trial_type":"pit-trial","trial_index":109,"time_elapsed":2474956,"internal_node_id":"0.0-98.0","task_version":"battery-v0.1"},{"rune":"V","hex":"#3366ff99","correct":32,"choice":32,"rt":285.42999998899177,"accuracy":1,"outcome":"+10","keys":[1786.9100000243634],"total_keys":1,"block":1,"trial":97,"robot":1,"valence":"win","action":"go","sham":0,"trial_type":"pit-trial","trial_index":110,"time_elapsed":2477948,"internal_node_id":"0.0-99.0","task_version":"battery-v0.1"},{"rune":"D","hex":"#f73b6a7A","correct":32,"choice":-1,"rt":-1,"accuracy":0,"outcome":"-10","keys":[],"total_keys":0,"block":1,"trial":98,"robot":3,"valence":"lose","action":"go","sham":0,"trial_type":"pit-trial","trial_index":111,"time_elapsed":2481959,"internal_node_id":"0.0-100.0","task_version":"battery-v0.1"},{"rune":"I","hex":"#3366ff99","correct":-1,"choice":32,"rt":336.974999983795,"accuracy":0,"outcome":"+1","keys":[1837.5099999830127],"total_keys":1,"block":1,"trial":99,"robot":2,"valence":"win","action":"no-go","sham":0,"trial_type":"pit-trial","trial_index":112,"time_elapsed":2485000,"internal_node_id":"0.0-101.0","task_version":"battery-v0.1"},{"rune":"E","hex":"#f73b6a7A","correct":32,"choice":-1,"rt":-1,"accuracy":0,"outcome":"-1","keys":[],"total_keys":0,"block":1,"trial":100,"robot":3,"valence":"lose","action":"go","sham":1,"trial_type":"pit-trial","trial_index":113,"time_elapsed":2489009,"internal_node_id":"0.0-102.0","task_version":"battery-v0.1"},{"rune":"D","hex":"#f73b6a7A","correct":32,"choice":32,"rt":524.9449999537319,"accuracy":1,"outcome":"-1","keys":[2026.1850000242703],"total_keys":1,"block":1,"trial":101,"robot":3,"valence":"lose","action":"go","sham":0,"trial_type":"pit-trial","trial_index":114,"time_elapsed":2492245,"internal_node_id":"0.0-103.0","task_version":"battery-v0.1"},{"rune":"E","hex":"#f73b6a7A","correct":32,"choice":-1,"rt":-1,"accuracy":0,"outcome":"-1","keys":[],"total_keys":0,"block":1,"trial":102,"robot":3,"valence":"lose","action":"go","sham":1,"trial_type":"pit-trial","trial_index":115,"time_elapsed":2496256,"internal_node_id":"0.0-104.0","task_version":"battery-v0.1"},{"rune":"I","hex":"#3366ff99","correct":-1,"choice":32,"rt":411.9000000064261,"accuracy":0,"outcome":"+1","keys":[1912.2450000140816],"total_keys":1,"block":1,"trial":103,"robot":2,"valence":"win","action":"no-go","sham":0,"trial_type":"pit-trial","trial_index":116,"time_elapsed":2499379,"internal_node_id":"0.0-105.0","task_version":"battery-v0.1"},{"rune":"V","hex":"#3366ff99","correct":32,"choice":32,"rt":684.7199999610893,"accuracy":1,"outcome":"+10","keys":[2185.089999984484],"total_keys":1,"block":1,"trial":104,"robot":1,"valence":"win","action":"go","sham":0,"trial_type":"pit-trial","trial_index":117,"time_elapsed":2502771,"internal_node_id":"0.0-106.0","task_version":"battery-v0.1"},{"rune":"E","hex":"#f73b6a7A","correct":32,"choice":-1,"rt":-1,"accuracy":0,"outcome":"-10","keys":[],"total_keys":0,"block":1,"trial":105,"robot":3,"valence":"lose","action":"go","sham":0,"trial_type":"pit-trial","trial_index":118,"time_elapsed":2506784,"internal_node_id":"0.0-107.0","task_version":"battery-v0.1"},{"rune":"D","hex":"#f73b6a7A","correct":32,"choice":-1,"rt":-1,"accuracy":0,"outcome":"-10","keys":[],"total_keys":0,"block":1,"trial":106,"robot":3,"valence":"lose","action":"go","sham":0,"trial_type":"pit-trial","trial_index":119,"time_elapsed":2510791,"internal_node_id":"0.0-108.0","task_version":"battery-v0.1"},{"rune":"I","hex":"#3366ff99","correct":-1,"choice":32,"rt":621.2100000120699,"accuracy":0,"outcome":"+1","keys":[2122.319999965839],"total_keys":1,"block":1,"trial":107,"robot":2,"valence":"win","action":"no-go","sham":0,"trial_type":"pit-trial","trial_index":120,"time_elapsed":2514122,"internal_node_id":"0.0-109.0","task_version":"battery-v0.1"},{"rune":"V","hex":"#3366ff99","correct":32,"choice":32,"rt":353.7099999957718,"accuracy":1,"outcome":"+10","keys":[1856.7349999793805],"total_keys":1,"block":1,"trial":108,"robot":1,"valence":"win","action":"go","sham":0,"trial_type":"pit-trial","trial_index":121,"time_elapsed":2517184,"internal_node_id":"0.0-110.0","task_version":"battery-v0.1"},{"rune":"I","hex":"#3366ff99","correct":-1,"choice":32,"rt":746.5850000153296,"accuracy":0,"outcome":"+1","keys":[2248.3050000155345],"total_keys":1,"block":1,"trial":109,"robot":2,"valence":"win","action":"no-go","sham":0,"trial_type":"pit-trial","trial_index":122,"time_elapsed":2520639,"internal_node_id":"0.0-111.0","task_version":"battery-v0.1"},{"rune":"E","hex":"#f73b6a7A","correct":32,"choice":-1,"rt":-1,"accuracy":0,"outcome":"-1","keys":[],"total_keys":0,"block":1,"trial":110,"robot":3,"valence":"lose","action":"go","sham":1,"trial_type":"pit-trial","trial_index":123,"time_elapsed":2524647,"internal_node_id":"0.0-112.0","task_version":"battery-v0.1"},{"rune":"V","hex":"#3366ff99","correct":32,"choice":-1,"rt":-1,"accuracy":0,"outcome":"+10","keys":[2963.4799999766983],"total_keys":1,"block":1,"trial":111,"robot":1,"valence":"win","action":"go","sham":1,"trial_type":"pit-trial","trial_index":124,"time_elapsed":2528658,"internal_node_id":"0.0-113.0","task_version":"battery-v0.1"},{"rune":"D","hex":"#f73b6a7A","correct":32,"choice":-1,"rt":-1,"accuracy":0,"outcome":"-1","keys":[],"total_keys":0,"block":1,"trial":112,"robot":3,"valence":"lose","action":"go","sham":1,"trial_type":"pit-trial","trial_index":125,"time_elapsed":2532668,"internal_node_id":"0.0-114.0","task_version":"battery-v0.1"},{"rune":"E","hex":"#f73b6a7A","correct":32,"choice":-1,"rt":-1,"accuracy":0,"outcome":"-10","keys":[],"total_keys":0,"block":1,"trial":113,"robot":3,"valence":"lose","action":"go","sham":0,"trial_type":"pit-trial","trial_index":126,"time_elapsed":2536677,"internal_node_id":"0.0-115.0","task_version":"battery-v0.1"},{"rune":"I","hex":"#3366ff99","correct":-1,"choice":-1,"rt":-1,"accuracy":1,"outcome":"+10","keys":[],"total_keys":0,"block":1,"trial":114,"robot":2,"valence":"win","action":"no-go","sham":0,"trial_type":"pit-trial","trial_index":127,"time_elapsed":2540684,"internal_node_id":"0.0-116.0","task_version":"battery-v0.1"},{"rune":"D","hex":"#f73b6a7A","correct":32,"choice":-1,"rt":-1,"accuracy":0,"outcome":"-10","keys":[],"total_keys":0,"block":1,"trial":115,"robot":3,"valence":"lose","action":"go","sham":0,"trial_type":"pit-trial","trial_index":128,"time_elapsed":2544691,"internal_node_id":"0.0-117.0","task_version":"battery-v0.1"},{"rune":"V","hex":"#3366ff99","correct":32,"choice":32,"rt":378.92499996814877,"accuracy":1,"outcome":"+10","keys":[1879.045000008773],"total_keys":1,"block":1,"trial":116,"robot":1,"valence":"win","action":"go","sham":0,"trial_type":"pit-trial","trial_index":129,"time_elapsed":2547775,"internal_node_id":"0.0-118.0","task_version":"battery-v0.1"},{"rune":"D","hex":"#f73b6a7A","correct":32,"choice":-1,"rt":-1,"accuracy":0,"outcome":"-10","keys":[],"total_keys":0,"block":1,"trial":117,"robot":3,"valence":"lose","action":"go","sham":0,"trial_type":"pit-trial","trial_index":130,"time_elapsed":2551789,"internal_node_id":"0.0-119.0","task_version":"battery-v0.1"},{"rune":"I","hex":"#3366ff99","correct":-1,"choice":-1,"rt":-1,"accuracy":1,"outcome":"+1","keys":[],"total_keys":0,"block":1,"trial":118,"robot":2,"valence":"win","action":"no-go","sham":1,"trial_type":"pit-trial","trial_index":131,"time_elapsed":2555795,"internal_node_id":"0.0-120.0","task_version":"battery-v0.1"},{"rune":"E","hex":"#f73b6a7A","correct":32,"choice":32,"rt":668.0549999582581,"accuracy":1,"outcome":"-1","keys":[2170.5650000367314],"total_keys":1,"block":1,"trial":119,"robot":3,"valence":"lose","action":"go","sham":0,"trial_type":"pit-trial","trial_index":132,"time_elapsed":2559175,"internal_node_id":"0.0-121.0","task_version":"battery-v0.1"},{"rune":"V","hex":"#3366ff99","correct":32,"choice":32,"rt":396.8250000034459,"accuracy":1,"outcome":"+1","keys":[1897.7099999901839],"total_keys":1,"block":1,"trial":120,"robot":1,"valence":"win","action":"go","sham":1,"trial_type":"pit-trial","trial_index":133,"time_elapsed":2562280,"internal_node_id":"0.0-122.0","task_version":"battery-v0.1"},{"view_history":"[{\"page_index\":0,\"viewing_time\":227910.45499994652},{\"page_index\":1,\"viewing_time\":1108.5550000425428}]","rt":229019.76499997545,"trial_type":"pit-instructions","trial_index":134,"time_elapsed":2791296,"internal_node_id":"0.0-123.0","task_version":"battery-v0.1"},{"rune":"N","hex":"#f73b6a7A","correct":-1,"choice":-1,"rt":-1,"accuracy":1,"outcome":"-1","keys":[],"total_keys":0,"block":2,"trial":121,"robot":4,"valence":"lose","action":"no-go","sham":0,"trial_type":"pit-trial","trial_index":135,"time_elapsed":2795314,"internal_node_id":"0.0-124.0","task_version":"battery-v0.1"},{"rune":"G","hex":"#3366ff99","correct":-1,"choice":-1,"rt":-1,"accuracy":1,"outcome":"+10","keys":[3237.3999999836087],"total_keys":1,"block":2,"trial":122,"robot":2,"valence":"win","action":"no-go","sham":0,"trial_type":"pit-trial","trial_index":136,"time_elapsed":2799325,"internal_node_id":"0.0-125.0","task_version":"battery-v0.1"},{"rune":"T","hex":"#3366ff99","correct":32,"choice":32,"rt":360.19000003580004,"accuracy":1,"outcome":"+10","keys":[1860.434999980498],"total_keys":1,"block":2,"trial":123,"robot":1,"valence":"win","action":"go","sham":0,"trial_type":"pit-trial","trial_index":137,"time_elapsed":2802390,"internal_node_id":"0.0-126.0","task_version":"battery-v0.1"},{"rune":"W","hex":"#3366ff99","correct":32,"choice":32,"rt":323.65500001469627,"accuracy":1,"outcome":"+10","keys":[1824.0750000113621],"total_keys":1,"block":2,"trial":124,"robot":1,"valence":"win","action":"go","sham":0,"trial_type":"pit-trial","trial_index":138,"time_elapsed":2805420,"internal_node_id":"0.0-127.0","task_version":"battery-v0.1"},{"rune":"G","hex":"#3366ff99","correct":-1,"choice":32,"rt":316.8450000230223,"accuracy":0,"outcome":"+1","keys":[1817.3250000108965],"total_keys":1,"block":2,"trial":125,"robot":2,"valence":"win","action":"no-go","sham":0,"trial_type":"pit-trial","trial_index":139,"time_elapsed":2808442,"internal_node_id":"0.0-128.0","task_version":"battery-v0.1"},{"rune":"W","hex":"#3366ff99","correct":32,"choice":32,"rt":358.62499999348074,"accuracy":1,"outcome":"+10","keys":[1859.244999999646],"total_keys":1,"block":2,"trial":126,"robot":1,"valence":"win","action":"go","sham":0,"trial_type":"pit-trial","trial_index":140,"time_elapsed":2811507,"internal_node_id":"0.0-129.0","task_version":"battery-v0.1"},{"rune":"T","hex":"#3366ff99","correct":32,"choice":-1,"rt":-1,"accuracy":0,"outcome":"+1","keys":[],"total_keys":0,"block":2,"trial":127,"robot":1,"valence":"win","action":"go","sham":0,"trial_type":"pit-trial","trial_index":141,"time_elapsed":2815514,"internal_node_id":"0.0-130.0","task_version":"battery-v0.1"},{"rune":"N","hex":"#f73b6a7A","correct":-1,"choice":-1,"rt":-1,"accuracy":1,"outcome":"-1","keys":[],"total_keys":0,"block":2,"trial":128,"robot":4,"valence":"lose","action":"no-go","sham":0,"trial_type":"pit-trial","trial_index":142,"time_elapsed":2819525,"internal_node_id":"0.0-131.0","task_version":"battery-v0.1"},{"rune":"G","hex":"#3366ff99","correct":-1,"choice":32,"rt":710.5700000538491,"accuracy":0,"outcome":"+1","keys":[2211.554999987129],"total_keys":1,"block":2,"trial":129,"robot":2,"valence":"win","action":"no-go","sham":0,"trial_type":"pit-trial","trial_index":143,"time_elapsed":2822944,"internal_node_id":"0.0-132.0","task_version":"battery-v0.1"},{"rune":"T","hex":"#3366ff99","correct":32,"choice":32,"rt":376.21000001672655,"accuracy":1,"outcome":"+10","keys":[1876.9800000009127],"total_keys":1,"block":2,"trial":130,"robot":1,"valence":"win","action":"go","sham":0,"trial_type":"pit-trial","trial_index":144,"time_elapsed":2826026,"internal_node_id":"0.0-133.0","task_version":"battery-v0.1"},{"rune":"W","hex":"#3366ff99","correct":32,"choice":32,"rt":305.3099999669939,"accuracy":1,"outcome":"+1","keys":[1805.7849999750033],"total_keys":1,"block":2,"trial":131,"robot":1,"valence":"win","action":"go","sham":1,"trial_type":"pit-trial","trial_index":145,"time_elapsed":2829039,"internal_node_id":"0.0-134.0","task_version":"battery-v0.1"},{"rune":"N","hex":"#f73b6a7A","correct":-1,"choice":-1,"rt":-1,"accuracy":1,"outcome":"-1","keys":[],"total_keys":0,"block":2,"trial":132,"robot":4,"valence":"lose","action":"no-go","sham":0,"trial_type":"pit-trial","trial_index":146,"time_elapsed":2833051,"internal_node_id":"0.0-135.0","task_version":"battery-v0.1"},{"rune":"W","hex":"#3366ff99","correct":32,"choice":32,"rt":453.4749999875203,"accuracy":1,"outcome":"+1","keys":[1953.7500000442378],"total_keys":1,"block":2,"trial":133,"robot":1,"valence":"win","action":"go","sham":1,"trial_type":"pit-trial","trial_index":147,"time_elapsed":2836214,"internal_node_id":"0.0-136.0","task_version":"battery-v0.1"},{"rune":"N","hex":"#f73b6a7A","correct":-1,"choice":-1,"rt":-1,"accuracy":1,"outcome":"-1","keys":[],"total_keys":0,"block":2,"trial":134,"robot":4,"valence":"lose","action":"no-go","sham":0,"trial_type":"pit-trial","trial_index":148,"time_elapsed":2840226,"internal_node_id":"0.0-137.0","task_version":"battery-v0.1"},{"rune":"T","hex":"#3366ff99","correct":32,"choice":32,"rt":578.6649999790825,"accuracy":1,"outcome":"+10","keys":[2084.934999991674],"total_keys":1,"block":2,"trial":135,"robot":1,"valence":"win","action":"go","sham":0,"trial_type":"pit-trial","trial_index":149,"time_elapsed":2843519,"internal_node_id":"0.0-138.0","task_version":"battery-v0.1"},{"rune":"G","hex":"#3366ff99","correct":-1,"choice":32,"rt":290.31499999109656,"accuracy":0,"outcome":"+1","keys":[1791.2750000250526],"total_keys":1,"block":2,"trial":136,"robot":2,"valence":"win","action":"no-go","sham":0,"trial_type":"pit-trial","trial_index":150,"time_elapsed":2846517,"internal_node_id":"0.0-139.0","task_version":"battery-v0.1"},{"rune":"G","hex":"#3366ff99","correct":-1,"choice":32,"rt":251.36999995447695,"accuracy":0,"outcome":"+1","keys":[1752.2899999748915],"total_keys":1,"block":2,"trial":137,"robot":2,"valence":"win","action":"no-go","sham":0,"trial_type":"pit-trial","trial_index":151,"time_elapsed":2849481,"internal_node_id":"0.0-140.0","task_version":"battery-v0.1"},{"rune":"T","hex":"#3366ff99","correct":32,"choice":32,"rt":223.6900000134483,"accuracy":1,"outcome":"+1","keys":[1724.7349999961443],"total_keys":1,"block":2,"trial":138,"robot":1,"valence":"win","action":"go","sham":1,"trial_type":"pit-trial","trial_index":152,"time_elapsed":2852414,"internal_node_id":"0.0-141.0","task_version":"battery-v0.1"},{"rune":"W","hex":"#3366ff99","correct":32,"choice":32,"rt":252.19999998807907,"accuracy":1,"outcome":"+10","keys":[1753.4799999557436],"total_keys":1,"block":2,"trial":139,"robot":1,"valence":"win","action":"go","sham":0,"trial_type":"pit-trial","trial_index":153,"time_elapsed":2855376,"internal_node_id":"0.0-142.0","task_version":"battery-v0.1"},{"rune":"N","hex":"#f73b6a7A","correct":-1,"choice":-1,"rt":-1,"accuracy":1,"outcome":"-1","keys":[],"total_keys":0,"block":2,"trial":140,"robot":4,"valence":"lose","action":"no-go","sham":0,"trial_type":"pit-trial","trial_index":154,"time_elapsed":2859389,"internal_node_id":"0.0-143.0","task_version":"battery-v0.1"},{"rune":"T","hex":"#3366ff99","correct":32,"choice":-1,"rt":-1,"accuracy":0,"outcome":"+1","keys":[],"total_keys":0,"block":2,"trial":141,"robot":1,"valence":"win","action":"go","sham":0,"trial_type":"pit-trial","trial_index":155,"time_elapsed":2863400,"internal_node_id":"0.0-144.0","task_version":"battery-v0.1"},{"rune":"G","hex":"#3366ff99","correct":-1,"choice":32,"rt":537.9700000048615,"accuracy":0,"outcome":"+1","keys":[2049.0700000082143],"total_keys":1,"block":2,"trial":142,"robot":2,"valence":"win","action":"no-go","sham":0,"trial_type":"pit-trial","trial_index":156,"time_elapsed":2866661,"internal_node_id":"0.0-145.0","task_version":"battery-v0.1"},{"rune":"W","hex":"#3366ff99","correct":32,"choice":32,"rt":445.45499997911975,"accuracy":1,"outcome":"+1","keys":[1946.8550000456162],"total_keys":1,"block":2,"trial":143,"robot":1,"valence":"win","action":"go","sham":1,"trial_type":"pit-trial","trial_index":157,"time_elapsed":2869817,"internal_node_id":"0.0-146.0","task_version":"battery-v0.1"},{"rune":"N","hex":"#f73b6a7A","correct":-1,"choice":-1,"rt":-1,"accuracy":1,"outcome":"-1","keys":[],"total_keys":0,"block":2,"trial":144,"robot":4,"valence":"lose","action":"no-go","sham":0,"trial_type":"pit-trial","trial_index":158,"time_elapsed":2873823,"internal_node_id":"0.0-147.0","task_version":"battery-v0.1"},{"rune":"W","hex":"#3366ff99","correct":32,"choice":32,"rt":240.56500004371628,"accuracy":1,"outcome":"+10","keys":[1741.4249999565072],"total_keys":1,"block":2,"trial":145,"robot":1,"valence":"win","action":"go","sham":0,"trial_type":"pit-trial","trial_index":159,"time_elapsed":2876772,"internal_node_id":"0.0-148.0","task_version":"battery-v0.1"},{"rune":"G","hex":"#3366ff99","correct":-1,"choice":32,"rt":317.91000004159287,"accuracy":0,"outcome":"+1","keys":[1818.28000000678],"total_keys":1,"block":2,"trial":146,"robot":2,"valence":"win","action":"no-go","sham":0,"trial_type":"pit-trial","trial_index":160,"time_elapsed":2879800,"internal_node_id":"0.0-149.0","task_version":"battery-v0.1"},{"rune":"N","hex":"#f73b6a7A","correct":-1,"choice":-1,"rt":-1,"accuracy":1,"outcome":"-1","keys":[],"total_keys":0,"block":2,"trial":147,"robot":4,"valence":"lose","action":"no-go","sham":0,"trial_type":"pit-trial","trial_index":161,"time_elapsed":2883809,"internal_node_id":"0.0-150.0","task_version":"battery-v0.1"},{"rune":"T","hex":"#3366ff99","correct":32,"choice":32,"rt":431.0300000361167,"accuracy":1,"outcome":"+10","keys":[1932.0699999807402],"total_keys":1,"block":2,"trial":148,"robot":1,"valence":"win","action":"go","sham":0,"trial_type":"pit-trial","trial_index":162,"time_elapsed":2886948,"internal_node_id":"0.0-151.0","task_version":"battery-v0.1"},{"rune":"W","hex":"#3366ff99","correct":32,"choice":32,"rt":358.1399999675341,"accuracy":1,"outcome":"+10","keys":[1858.4599999594502],"total_keys":1,"block":2,"trial":149,"robot":1,"valence":"win","action":"go","sham":0,"trial_type":"pit-trial","trial_index":163,"time_elapsed":2890013,"internal_node_id":"0.0-152.0","task_version":"battery-v0.1"},{"rune":"T","hex":"#3366ff99","correct":32,"choice":32,"rt":283.05000002728775,"accuracy":1,"outcome":"+10","keys":[1783.3000000100583],"total_keys":1,"block":2,"trial":150,"robot":1,"valence":"win","action":"go","sham":0,"trial_type":"pit-trial","trial_index":164,"time_elapsed":2893003,"internal_node_id":"0.0-153.0","task_version":"battery-v0.1"},{"rune":"G","hex":"#3366ff99","correct":-1,"choice":32,"rt":278.32499996293336,"accuracy":0,"outcome":"+1","keys":[1778.8949999958277],"total_keys":1,"block":2,"trial":151,"robot":2,"valence":"win","action":"no-go","sham":0,"trial_type":"pit-trial","trial_index":165,"time_elapsed":2895988,"internal_node_id":"0.0-154.0","task_version":"battery-v0.1"},{"rune":"N","hex":"#f73b6a7A","correct":-1,"choice":-1,"rt":-1,"accuracy":1,"outcome":"-1","keys":[],"total_keys":0,"block":2,"trial":152,"robot":4,"valence":"lose","action":"no-go","sham":0,"trial_type":"pit-trial","trial_index":166,"time_elapsed":2899997,"internal_node_id":"0.0-155.0","task_version":"battery-v0.1"},{"rune":"G","hex":"#3366ff99","correct":-1,"choice":-1,"rt":-1,"accuracy":1,"outcome":"+10","keys":[],"total_keys":0,"block":2,"trial":153,"robot":2,"valence":"win","action":"no-go","sham":0,"trial_type":"pit-trial","trial_index":167,"time_elapsed":2904005,"internal_node_id":"0.0-156.0","task_version":"battery-v0.1"},{"rune":"Q","hex":"#3366ff99","correct":32,"choice":32,"rt":385.17500000307336,"accuracy":1,"outcome":"+10","keys":[1885.7399999978952],"total_keys":1,"block":2,"trial":154,"robot":1,"valence":"win","action":"go","sham":0,"trial_type":"pit-trial","trial_index":168,"time_elapsed":2907097,"internal_node_id":"0.0-157.0","task_version":"battery-v0.1"},{"rune":"N","hex":"#f73b6a7A","correct":-1,"choice":-1,"rt":-1,"accuracy":1,"outcome":"-1","keys":[],"total_keys":0,"block":2,"trial":155,"robot":4,"valence":"lose","action":"no-go","sham":0,"trial_type":"pit-trial","trial_index":169,"time_elapsed":2911109,"internal_node_id":"0.0-158.0","task_version":"battery-v0.1"},{"rune":"W","hex":"#3366ff99","correct":32,"choice":32,"rt":418.79000002518296,"accuracy":1,"outcome":"+10","keys":[1919.385000015609],"total_keys":1,"block":2,"trial":156,"robot":1,"valence":"win","action":"go","sham":0,"trial_type":"pit-trial","trial_index":170,"time_elapsed":2914235,"internal_node_id":"0.0-159.0","task_version":"battery-v0.1"},{"rune":"Q","hex":"#3366ff99","correct":32,"choice":32,"rt":680.0650000222959,"accuracy":1,"outcome":"+1","keys":[2184.1650000424124],"total_keys":1,"block":2,"trial":157,"robot":1,"valence":"win","action":"go","sham":1,"trial_type":"pit-trial","trial_index":171,"time_elapsed":2917625,"internal_node_id":"0.0-160.0","task_version":"battery-v0.1"},{"rune":"N","hex":"#f73b6a7A","correct":-1,"choice":-1,"rt":-1,"accuracy":1,"outcome":"-1","keys":[],"total_keys":0,"block":2,"trial":158,"robot":4,"valence":"lose","action":"no-go","sham":0,"trial_type":"pit-trial","trial_index":172,"time_elapsed":2921633,"internal_node_id":"0.0-161.0","task_version":"battery-v0.1"},{"rune":"W","hex":"#3366ff99","correct":32,"choice":32,"rt":326.2000000104308,"accuracy":1,"outcome":"+10","keys":[1826.5250000404194],"total_keys":1,"block":2,"trial":159,"robot":1,"valence":"win","action":"go","sham":0,"trial_type":"pit-trial","trial_index":173,"time_elapsed":2924668,"internal_node_id":"0.0-162.0","task_version":"battery-v0.1"},{"rune":"G","hex":"#3366ff99","correct":-1,"choice":32,"rt":339.71499995095655,"accuracy":0,"outcome":"+1","keys":[1839.9799999897368],"total_keys":1,"block":2,"trial":160,"robot":2,"valence":"win","action":"no-go","sham":0,"trial_type":"pit-trial","trial_index":174,"time_elapsed":2927715,"internal_node_id":"0.0-163.0","task_version":"battery-v0.1"},{"rune":"Y","hex":"#f73b6a7A","correct":32,"choice":-1,"rt":-1,"accuracy":0,"outcome":"-10","keys":[],"total_keys":0,"block":2,"trial":161,"robot":3,"valence":"lose","action":"go","sham":0,"trial_type":"pit-trial","trial_index":175,"time_elapsed":2931725,"internal_node_id":"0.0-164.0","task_version":"battery-v0.1"},{"rune":"Q","hex":"#3366ff99","correct":32,"choice":32,"rt":555.9399999910966,"accuracy":1,"outcome":"+1","keys":[2056.44499999471],"total_keys":1,"block":2,"trial":162,"robot":1,"valence":"win","action":"go","sham":1,"trial_type":"pit-trial","trial_index":176,"time_elapsed":2934986,"internal_node_id":"0.0-165.0","task_version":"battery-v0.1"},{"rune":"H","hex":"#f73b6a7A","correct":-1,"choice":-1,"rt":-1,"accuracy":1,"outcome":"-10","keys":[],"total_keys":0,"block":2,"trial":163,"robot":4,"valence":"lose","action":"no-go","sham":1,"trial_type":"pit-trial","trial_index":177,"time_elapsed":2938995,"internal_node_id":"0.0-166.0","task_version":"battery-v0.1"},{"rune":"G","hex":"#3366ff99","correct":-1,"choice":-1,"rt":-1,"accuracy":1,"outcome":"+10","keys":[],"total_keys":0,"block":2,"trial":164,"robot":2,"valence":"win","action":"no-go","sham":0,"trial_type":"pit-trial","trial_index":178,"time_elapsed":2943003,"internal_node_id":"0.0-167.0","task_version":"battery-v0.1"},{"rune":"H","hex":"#f73b6a7A","correct":-1,"choice":32,"rt":516.7099999962375,"accuracy":0,"outcome":"-1","keys":[2016.8950000079349],"total_keys":1,"block":2,"trial":165,"robot":4,"valence":"lose","action":"no-go","sham":1,"trial_type":"pit-trial","trial_index":179,"time_elapsed":2946227,"internal_node_id":"0.0-168.0","task_version":"battery-v0.1"},{"rune":"Y","hex":"#f73b6a7A","correct":32,"choice":32,"rt":491.3149999920279,"accuracy":1,"outcome":"-1","keys":[1992.6700000069104],"total_keys":1,"block":2,"trial":166,"robot":3,"valence":"lose","action":"go","sham":0,"trial_type":"pit-trial","trial_index":180,"time_elapsed":2949426,"internal_node_id":"0.0-169.0","task_version":"battery-v0.1"},{"rune":"Q","hex":"#3366ff99","correct":32,"choice":32,"rt":623.6849999986589,"accuracy":1,"outcome":"+10","keys":[2128.3849999890663],"total_keys":1,"block":2,"trial":167,"robot":1,"valence":"win","action":"go","sham":0,"trial_type":"pit-trial","trial_index":181,"time_elapsed":2952764,"internal_node_id":"0.0-170.0","task_version":"battery-v0.1"},{"rune":"G","hex":"#3366ff99","correct":-1,"choice":-1,"rt":-1,"accuracy":1,"outcome":"+1","keys":[],"total_keys":0,"block":2,"trial":168,"robot":2,"valence":"win","action":"no-go","sham":1,"trial_type":"pit-trial","trial_index":182,"time_elapsed":2956774,"internal_node_id":"0.0-171.0","task_version":"battery-v0.1"},{"rune":"Y","hex":"#f73b6a7A","correct":32,"choice":32,"rt":624.8400000040419,"accuracy":1,"outcome":"-1","keys":[2124.9400000087917],"total_keys":1,"block":2,"trial":169,"robot":3,"valence":"lose","action":"go","sham":0,"trial_type":"pit-trial","trial_index":183,"time_elapsed":2960106,"internal_node_id":"0.0-172.0","task_version":"battery-v0.1"},{"rune":"U","hex":"#3366ff99","correct":-1,"choice":-1,"rt":-1,"accuracy":1,"outcome":"+10","keys":[],"total_keys":0,"block":2,"trial":170,"robot":2,"valence":"win","action":"no-go","sham":0,"trial_type":"pit-trial","trial_index":184,"time_elapsed":2964119,"internal_node_id":"0.0-173.0","task_version":"battery-v0.1"},{"rune":"H","hex":"#f73b6a7A","correct":-1,"choice":32,"rt":355.14999995939434,"accuracy":0,"outcome":"-1","keys":[1855.9100000420585],"total_keys":1,"block":2,"trial":171,"robot":4,"valence":"lose","action":"no-go","sham":1,"trial_type":"pit-trial","trial_index":185,"time_elapsed":2967182,"internal_node_id":"0.0-174.0","task_version":"battery-v0.1"},{"rune":"Q","hex":"#3366ff99","correct":32,"choice":32,"rt":517.4400000250898,"accuracy":1,"outcome":"+1","keys":[2021.329999959562],"total_keys":1,"block":2,"trial":172,"robot":1,"valence":"win","action":"go","sham":1,"trial_type":"pit-trial","trial_index":186,"time_elapsed":2970412,"internal_node_id":"0.0-175.0","task_version":"battery-v0.1"},{"rune":"Q","hex":"#3366ff99","correct":32,"choice":-1,"rt":-1,"accuracy":0,"outcome":"+1","keys":[],"total_keys":0,"block":2,"trial":173,"robot":1,"valence":"win","action":"go","sham":0,"trial_type":"pit-trial","trial_index":187,"time_elapsed":2974421,"internal_node_id":"0.0-176.0","task_version":"battery-v0.1"},{"rune":"Y","hex":"#f73b6a7A","correct":32,"choice":32,"rt":647.9150000377558,"accuracy":1,"outcome":"-1","keys":[2148.384999949485],"total_keys":1,"block":2,"trial":174,"robot":3,"valence":"lose","action":"go","sham":0,"trial_type":"pit-trial","trial_index":188,"time_elapsed":2977778,"internal_node_id":"0.0-177.0","task_version":"battery-v0.1"},{"rune":"U","hex":"#3366ff99","correct":-1,"choice":32,"rt":505.1400000229478,"accuracy":0,"outcome":"+1","keys":[2006.7099999869242],"total_keys":1,"block":2,"trial":175,"robot":2,"valence":"win","action":"no-go","sham":0,"trial_type":"pit-trial","trial_index":189,"time_elapsed":2980991,"internal_node_id":"0.0-178.0","task_version":"battery-v0.1"},{"rune":"H","hex":"#f73b6a7A","correct":-1,"choice":-1,"rt":-1,"accuracy":1,"outcome":"-1","keys":[],"total_keys":0,"block":2,"trial":176,"robot":4,"valence":"lose","action":"no-go","sham":0,"trial_type":"pit-trial","trial_index":190,"time_elapsed":2985002,"internal_node_id":"0.0-179.0","task_version":"battery-v0.1"},{"rune":"Q","hex":"#3366ff99","correct":32,"choice":32,"rt":232.84499999135733,"accuracy":1,"outcome":"+10","keys":[1733.4699999773875],"total_keys":1,"block":2,"trial":177,"robot":1,"valence":"win","action":"go","sham":0,"trial_type":"pit-trial","trial_index":191,"time_elapsed":2988644,"internal_node_id":"0.0-180.0","task_version":"battery-v0.1"},{"rune":"Y","hex":"#f73b6a7A","correct":32,"choice":-1,"rt":-1,"accuracy":0,"outcome":"-1","keys":[],"total_keys":0,"block":2,"trial":178,"robot":3,"valence":"lose","action":"go","sham":1,"trial_type":"pit-trial","trial_index":192,"time_elapsed":2993118,"internal_node_id":"0.0-181.0","task_version":"battery-v0.1"},{"rune":"H","hex":"#f73b6a7A","correct":-1,"choice":-1,"rt":-1,"accuracy":1,"outcome":"-10","keys":[],"total_keys":0,"block":2,"trial":179,"robot":4,"valence":"lose","action":"no-go","sham":1,"trial_type":"pit-trial","trial_index":193,"time_elapsed":2997128,"internal_node_id":"0.0-182.0","task_version":"battery-v0.1"},{"rune":"U","hex":"#3366ff99","correct":-1,"choice":32,"rt":381.1899999855086,"accuracy":0,"outcome":"+1","keys":[1881.470000022091],"total_keys":1,"block":2,"trial":180,"robot":2,"valence":"win","action":"no-go","sham":0,"trial_type":"pit-trial","trial_index":194,"time_elapsed":3000217,"internal_node_id":"0.0-183.0","task_version":"battery-v0.1"},{"rune":"U","hex":"#3366ff99","correct":-1,"choice":32,"rt":465.4449999798089,"accuracy":0,"outcome":"+1","keys":[1966.065000044182],"total_keys":1,"block":2,"trial":181,"robot":2,"valence":"win","action":"no-go","sham":0,"trial_type":"pit-trial","trial_index":195,"time_elapsed":3003391,"internal_node_id":"0.0-184.0","task_version":"battery-v0.1"},{"rune":"H","hex":"#f73b6a7A","correct":-1,"choice":-1,"rt":-1,"accuracy":1,"outcome":"-1","keys":[],"total_keys":0,"block":2,"trial":182,"robot":4,"valence":"lose","action":"no-go","sham":0,"trial_type":"pit-trial","trial_index":196,"time_elapsed":3007833,"internal_node_id":"0.0-185.0","task_version":"battery-v0.1"},{"rune":"Q","hex":"#3366ff99","correct":32,"choice":32,"rt":876.6799999866635,"accuracy":1,"outcome":"+10","keys":[2376.720000000205],"total_keys":1,"block":2,"trial":183,"robot":1,"valence":"win","action":"go","sham":0,"trial_type":"pit-trial","trial_index":197,"time_elapsed":3011415,"internal_node_id":"0.0-186.0","task_version":"battery-v0.1"},{"rune":"Y","hex":"#f73b6a7A","correct":32,"choice":32,"rt":316.07500003883615,"accuracy":1,"outcome":"-10","keys":[1816.2299999967217],"total_keys":1,"block":2,"trial":184,"robot":3,"valence":"lose","action":"go","sham":1,"trial_type":"pit-trial","trial_index":198,"time_elapsed":3014439,"internal_node_id":"0.0-187.0","task_version":"battery-v0.1"},{"rune":"U","hex":"#3366ff99","correct":-1,"choice":32,"rt":253.52500000735745,"accuracy":0,"outcome":"+1","keys":[1754.5049999607727],"total_keys":1,"block":2,"trial":185,"robot":2,"valence":"win","action":"no-go","sham":0,"trial_type":"pit-trial","trial_index":199,"time_elapsed":3017400,"internal_node_id":"0.0-188.0","task_version":"battery-v0.1"},{"rune":"H","hex":"#f73b6a7A","correct":-1,"choice":32,"rt":457.6699999743141,"accuracy":0,"outcome":"-10","keys":[1958.5150000057183],"total_keys":1,"block":2,"trial":186,"robot":4,"valence":"lose","action":"no-go","sham":0,"trial_type":"pit-trial","trial_index":200,"time_elapsed":3020565,"internal_node_id":"0.0-189.0","task_version":"battery-v0.1"},{"rune":"Y","hex":"#f73b6a7A","correct":32,"choice":-1,"rt":-1,"accuracy":0,"outcome":"-10","keys":[],"total_keys":0,"block":2,"trial":187,"robot":3,"valence":"lose","action":"go","sham":0,"trial_type":"pit-trial","trial_index":201,"time_elapsed":3024575,"internal_node_id":"0.0-190.0","task_version":"battery-v0.1"},{"rune":"Q","hex":"#3366ff99","correct":32,"choice":32,"rt":401.59999998286366,"accuracy":1,"outcome":"+1","keys":[1906.105000001844],"total_keys":1,"block":2,"trial":188,"robot":1,"valence":"win","action":"go","sham":1,"trial_type":"pit-trial","trial_index":202,"time_elapsed":3027686,"internal_node_id":"0.0-191.0","task_version":"battery-v0.1"},{"rune":"H","hex":"#f73b6a7A","correct":-1,"choice":-1,"rt":-1,"accuracy":1,"outcome":"-1","keys":[],"total_keys":0,"block":2,"trial":189,"robot":4,"valence":"lose","action":"no-go","sham":0,"trial_type":"pit-trial","trial_index":203,"time_elapsed":3031696,"internal_node_id":"0.0-192.0","task_version":"battery-v0.1"},{"rune":"U","hex":"#3366ff99","correct":-1,"choice":32,"rt":367.12000000989065,"accuracy":0,"outcome":"+1","keys":[1869.8100000037812],"total_keys":1,"block":2,"trial":190,"robot":2,"valence":"win","action":"no-go","sham":0,"trial_type":"pit-trial","trial_index":204,"time_elapsed":3034771,"internal_node_id":"0.0-193.0","task_version":"battery-v0.1"},{"rune":"Q","hex":"#3366ff99","correct":32,"choice":32,"rt":383.87999997939914,"accuracy":1,"outcome":"+10","keys":[1884.009999979753],"total_keys":1,"block":2,"trial":191,"robot":1,"valence":"win","action":"go","sham":0,"trial_type":"pit-trial","trial_index":205,"time_elapsed":3037865,"internal_node_id":"0.0-194.0","task_version":"battery-v0.1"},{"rune":"Y","hex":"#f73b6a7A","correct":32,"choice":-1,"rt":-1,"accuracy":0,"outcome":"-10","keys":[],"total_keys":0,"block":2,"trial":192,"robot":3,"valence":"lose","action":"go","sham":0,"trial_type":"pit-trial","trial_index":206,"time_elapsed":3041875,"internal_node_id":"0.0-195.0","task_version":"battery-v0.1"},{"rune":"U","hex":"#3366ff99","correct":-1,"choice":-1,"rt":-1,"accuracy":1,"outcome":"+10","keys":[],"total_keys":0,"block":2,"trial":193,"robot":2,"valence":"win","action":"no-go","sham":0,"trial_type":"pit-trial","trial_index":207,"time_elapsed":3045885,"internal_node_id":"0.0-196.0","task_version":"battery-v0.1"},{"rune":"Q","hex":"#3366ff99","correct":32,"choice":32,"rt":514.0900000114925,"accuracy":1,"outcome":"+1","keys":[2014.3149999785237],"total_keys":1,"block":2,"trial":194,"robot":1,"valence":"win","action":"go","sham":1,"trial_type":"pit-trial","trial_index":208,"time_elapsed":3049107,"internal_node_id":"0.0-197.0","task_version":"battery-v0.1"},{"rune":"H","hex":"#f73b6a7A","correct":-1,"choice":-1,"rt":-1,"accuracy":1,"outcome":"-1","keys":[],"total_keys":0,"block":2,"trial":195,"robot":4,"valence":"lose","action":"no-go","sham":0,"trial_type":"pit-trial","trial_index":209,"time_elapsed":3053116,"internal_node_id":"0.0-198.0","task_version":"battery-v0.1"},{"rune":"P","hex":"#f73b6a7A","correct":32,"choice":-1,"rt":-1,"accuracy":0,"outcome":"-1","keys":[],"total_keys":0,"block":2,"trial":196,"robot":3,"valence":"lose","action":"go","sham":1,"trial_type":"pit-trial","trial_index":210,"time_elapsed":3057125,"internal_node_id":"0.0-199.0","task_version":"battery-v0.1"},{"rune":"H","hex":"#f73b6a7A","correct":-1,"choice":-1,"rt":-1,"accuracy":1,"outcome":"-1","keys":[],"total_keys":0,"block":2,"trial":197,"robot":4,"valence":"lose","action":"no-go","sham":0,"trial_type":"pit-trial","trial_index":211,"time_elapsed":3061137,"internal_node_id":"0.0-200.0","task_version":"battery-v0.1"},{"rune":"P","hex":"#f73b6a7A","correct":32,"choice":-1,"rt":-1,"accuracy":0,"outcome":"-1","keys":[],"total_keys":0,"block":2,"trial":198,"robot":3,"valence":"lose","action":"go","sham":1,"trial_type":"pit-trial","trial_index":212,"time_elapsed":3065144,"internal_node_id":"0.0-201.0","task_version":"battery-v0.1"},{"rune":"U","hex":"#3366ff99","correct":-1,"choice":32,"rt":384.85000003129244,"accuracy":0,"outcome":"+1","keys":[1885.1450000074692],"total_keys":1,"block":2,"trial":199,"robot":2,"valence":"win","action":"no-go","sham":0,"trial_type":"pit-trial","trial_index":213,"time_elapsed":3068238,"internal_node_id":"0.0-202.0","task_version":"battery-v0.1"},{"rune":"Q","hex":"#3366ff99","correct":32,"choice":32,"rt":261.6600000183098,"accuracy":1,"outcome":"+10","keys":[1762.300000002142],"total_keys":1,"block":2,"trial":200,"robot":1,"valence":"win","action":"go","sham":0,"trial_type":"pit-trial","trial_index":214,"time_elapsed":3071210,"internal_node_id":"0.0-203.0","task_version":"battery-v0.1"},{"rune":"H","hex":"#f73b6a7A","correct":-1,"choice":-1,"rt":-1,"accuracy":1,"outcome":"-1","keys":[],"total_keys":0,"block":2,"trial":201,"robot":4,"valence":"lose","action":"no-go","sham":0,"trial_type":"pit-trial","trial_index":215,"time_elapsed":3075224,"internal_node_id":"0.0-204.0","task_version":"battery-v0.1"},{"rune":"U","hex":"#3366ff99","correct":-1,"choice":32,"rt":343.5549999703653,"accuracy":0,"outcome":"+1","keys":[1844.2900000372902],"total_keys":1,"block":2,"trial":202,"robot":2,"valence":"win","action":"no-go","sham":0,"trial_type":"pit-trial","trial_index":216,"time_elapsed":3078274,"internal_node_id":"0.0-205.0","task_version":"battery-v0.1"},{"rune":"M","hex":"#f73b6a7A","correct":32,"choice":-1,"rt":-1,"accuracy":0,"outcome":"-10","keys":[],"total_keys":0,"block":2,"trial":203,"robot":3,"valence":"lose","action":"go","sham":0,"trial_type":"pit-trial","trial_index":217,"time_elapsed":3082282,"internal_node_id":"0.0-206.0","task_version":"battery-v0.1"},{"rune":"P","hex":"#f73b6a7A","correct":32,"choice":-1,"rt":-1,"accuracy":0,"outcome":"-10","keys":[],"total_keys":0,"block":2,"trial":204,"robot":3,"valence":"lose","action":"go","sham":0,"trial_type":"pit-trial","trial_index":218,"time_elapsed":3086291,"internal_node_id":"0.0-207.0","task_version":"battery-v0.1"},{"rune":"P","hex":"#f73b6a7A","correct":32,"choice":32,"rt":315.0949999690056,"accuracy":1,"outcome":"-1","keys":[1815.5600000172853],"total_keys":1,"block":2,"trial":205,"robot":3,"valence":"lose","action":"go","sham":0,"trial_type":"pit-trial","trial_index":219,"time_elapsed":3089312,"internal_node_id":"0.0-208.0","task_version":"battery-v0.1"},{"rune":"M","hex":"#f73b6a7A","correct":32,"choice":32,"rt":271.0850000148639,"accuracy":1,"outcome":"-1","keys":[1771.7800000100397],"total_keys":1,"block":2,"trial":206,"robot":3,"valence":"lose","action":"go","sham":0,"trial_type":"pit-trial","trial_index":220,"time_elapsed":3092293,"internal_node_id":"0.0-209.0","task_version":"battery-v0.1"},{"rune":"U","hex":"#3366ff99","correct":-1,"choice":32,"rt":144.26500000990927,"accuracy":0,"outcome":"+10","keys":[1644.5149999926798],"total_keys":1,"block":2,"trial":207,"robot":2,"valence":"win","action":"no-go","sham":1,"trial_type":"pit-trial","trial_index":221,"time_elapsed":3095146,"internal_node_id":"0.0-210.0","task_version":"battery-v0.1"},{"rune":"H","hex":"#f73b6a7A","correct":-1,"choice":32,"rt":266.37999998638406,"accuracy":0,"outcome":"-1","keys":[1770.485000044573],"total_keys":1,"block":2,"trial":208,"robot":4,"valence":"lose","action":"no-go","sham":1,"trial_type":"pit-trial","trial_index":222,"time_elapsed":3098126,"internal_node_id":"0.0-211.0","task_version":"battery-v0.1"},{"rune":"S","hex":"#f73b6a7A","correct":-1,"choice":32,"rt":122.64499999582767,"accuracy":0,"outcome":"-10","keys":[1627.3550000041723],"total_keys":1,"block":2,"trial":209,"robot":4,"valence":"lose","action":"no-go","sham":0,"trial_type":"pit-trial","trial_index":223,"time_elapsed":3100960,"internal_node_id":"0.0-212.0","task_version":"battery-v0.1"},{"rune":"K","hex":"#3366ff99","correct":-1,"choice":32,"rt":378.6850000033155,"accuracy":0,"outcome":"+1","keys":[1878.9450000040233],"total_keys":1,"block":2,"trial":210,"robot":2,"valence":"win","action":"no-go","sham":0,"trial_type":"pit-trial","trial_index":224,"time_elapsed":3104047,"internal_node_id":"0.0-213.0","task_version":"battery-v0.1"},{"rune":"P","hex":"#f73b6a7A","correct":32,"choice":-1,"rt":-1,"accuracy":0,"outcome":"-1","keys":[],"total_keys":0,"block":2,"trial":211,"robot":3,"valence":"lose","action":"go","sham":1,"trial_type":"pit-trial","trial_index":225,"time_elapsed":3108055,"internal_node_id":"0.0-214.0","task_version":"battery-v0.1"},{"rune":"M","hex":"#f73b6a7A","correct":32,"choice":32,"rt":603.6900000181049,"accuracy":1,"outcome":"-1","keys":[2103.720000013709],"total_keys":1,"block":2,"trial":212,"robot":3,"valence":"lose","action":"go","sham":0,"trial_type":"pit-trial","trial_index":226,"time_elapsed":3111365,"internal_node_id":"0.0-215.0","task_version":"battery-v0.1"},{"rune":"K","hex":"#3366ff99","correct":-1,"choice":-1,"rt":-1,"accuracy":1,"outcome":"+10","keys":[],"total_keys":0,"block":2,"trial":213,"robot":2,"valence":"win","action":"no-go","sham":0,"trial_type":"pit-trial","trial_index":227,"time_elapsed":3115379,"internal_node_id":"0.0-216.0","task_version":"battery-v0.1"},{"rune":"M","hex":"#f73b6a7A","correct":32,"choice":32,"rt":272.90999999968335,"accuracy":1,"outcome":"-1","keys":[1774.135000014212],"total_keys":1,"block":2,"trial":214,"robot":3,"valence":"lose","action":"go","sham":0,"trial_type":"pit-trial","trial_index":228,"time_elapsed":3118361,"internal_node_id":"0.0-217.0","task_version":"battery-v0.1"},{"rune":"S","hex":"#f73b6a7A","correct":-1,"choice":-1,"rt":-1,"accuracy":1,"outcome":"-10","keys":[],"total_keys":0,"block":2,"trial":215,"robot":4,"valence":"lose","action":"no-go","sham":1,"trial_type":"pit-trial","trial_index":229,"time_elapsed":3122369,"internal_node_id":"0.0-218.0","task_version":"battery-v0.1"},{"rune":"P","hex":"#f73b6a7A","correct":32,"choice":-1,"rt":-1,"accuracy":0,"outcome":"-10","keys":[],"total_keys":0,"block":2,"trial":216,"robot":3,"valence":"lose","action":"go","sham":0,"trial_type":"pit-trial","trial_index":230,"time_elapsed":3126381,"internal_node_id":"0.0-219.0","task_version":"battery-v0.1"},{"rune":"K","hex":"#3366ff99","correct":-1,"choice":32,"rt":254.34499996481463,"accuracy":0,"outcome":"+1","keys":[1755.1100000273436],"total_keys":1,"block":2,"trial":217,"robot":2,"valence":"win","action":"no-go","sham":0,"trial_type":"pit-trial","trial_index":231,"time_elapsed":3129345,"internal_node_id":"0.0-220.0","task_version":"battery-v0.1"},{"rune":"M","hex":"#f73b6a7A","correct":32,"choice":-1,"rt":-1,"accuracy":0,"outcome":"-10","keys":[],"total_keys":0,"block":2,"trial":218,"robot":3,"valence":"lose","action":"go","sham":0,"trial_type":"pit-trial","trial_index":232,"time_elapsed":3133356,"internal_node_id":"0.0-221.0","task_version":"battery-v0.1"},{"rune":"P","hex":"#f73b6a7A","correct":32,"choice":-1,"rt":-1,"accuracy":0,"outcome":"-10","keys":[],"total_keys":0,"block":2,"trial":219,"robot":3,"valence":"lose","action":"go","sham":0,"trial_type":"pit-trial","trial_index":233,"time_elapsed":3137367,"internal_node_id":"0.0-222.0","task_version":"battery-v0.1"},{"rune":"S","hex":"#f73b6a7A","correct":-1,"choice":32,"rt":618.1249999790452,"accuracy":0,"outcome":"-10","keys":[2127.329999988433],"total_keys":1,"block":2,"trial":220,"robot":4,"valence":"lose","action":"no-go","sham":0,"trial_type":"pit-trial","trial_index":234,"time_elapsed":3140705,"internal_node_id":"0.0-223.0","task_version":"battery-v0.1"},{"rune":"M","hex":"#f73b6a7A","correct":32,"choice":32,"rt":238.75499999849126,"accuracy":1,"outcome":"-1","keys":[1739.049999974668],"total_keys":1,"block":2,"trial":221,"robot":3,"valence":"lose","action":"go","sham":0,"trial_type":"pit-trial","trial_index":235,"time_elapsed":3143653,"internal_node_id":"0.0-224.0","task_version":"battery-v0.1"},{"rune":"P","hex":"#f73b6a7A","correct":32,"choice":32,"rt":345.7349999807775,"accuracy":1,"outcome":"-1","keys":[1849.6700000250712],"total_keys":1,"block":2,"trial":222,"robot":3,"valence":"lose","action":"go","sham":0,"trial_type":"pit-trial","trial_index":236,"time_elapsed":3146712,"internal_node_id":"0.0-225.0","task_version":"battery-v0.1"},{"rune":"K","hex":"#3366ff99","correct":-1,"choice":32,"rt":119.12999994819984,"accuracy":0,"outcome":"+1","keys":[1619.4450000184588],"total_keys":1,"block":2,"trial":223,"robot":2,"valence":"win","action":"no-go","sham":0,"trial_type":"pit-trial","trial_index":237,"time_elapsed":3149540,"internal_node_id":"0.0-226.0","task_version":"battery-v0.1"},{"rune":"S","hex":"#f73b6a7A","correct":-1,"choice":32,"rt":387.43000000249594,"accuracy":0,"outcome":"-10","keys":[1434.8699999973178,1888.4700000053272],"total_keys":2,"block":2,"trial":224,"robot":4,"valence":"lose","action":"no-go","sham":0,"trial_type":"pit-trial","trial_index":238,"time_elapsed":3152633,"internal_node_id":"0.0-227.0","task_version":"battery-v0.1"},{"rune":"S","hex":"#f73b6a7A","correct":-1,"choice":32,"rt":125.30499999411404,"accuracy":0,"outcome":"-10","keys":[1628.8650000351481],"total_keys":1,"block":2,"trial":225,"robot":4,"valence":"lose","action":"no-go","sham":0,"trial_type":"pit-trial","trial_index":239,"time_elapsed":3155469,"internal_node_id":"0.0-228.0","task_version":"battery-v0.1"},{"rune":"K","hex":"#3366ff99","correct":-1,"choice":32,"rt":393.67000001948327,"accuracy":0,"outcome":"+10","keys":[1894.9550000252202],"total_keys":1,"block":2,"trial":226,"robot":2,"valence":"win","action":"no-go","sham":1,"trial_type":"pit-trial","trial_index":240,"time_elapsed":3158572,"internal_node_id":"0.0-229.0","task_version":"battery-v0.1"},{"rune":"P","hex":"#f73b6a7A","correct":32,"choice":-1,"rt":-1,"accuracy":0,"outcome":"-10","keys":[],"total_keys":0,"block":2,"trial":227,"robot":3,"valence":"lose","action":"go","sham":0,"trial_type":"pit-trial","trial_index":241,"time_elapsed":3163421,"internal_node_id":"0.0-230.0","task_version":"battery-v0.1"},{"rune":"M","hex":"#f73b6a7A","correct":32,"choice":32,"rt":451.48500002687797,"accuracy":1,"outcome":"-1","keys":[1951.8999999854714,2760.3549999766983],"total_keys":2,"block":2,"trial":228,"robot":3,"valence":"lose","action":"go","sham":0,"trial_type":"pit-trial","trial_index":242,"time_elapsed":3166580,"internal_node_id":"0.0-231.0","task_version":"battery-v0.1"},{"rune":"M","hex":"#f73b6a7A","correct":32,"choice":32,"rt":629.2799999937415,"accuracy":1,"outcome":"-1","keys":[2153.9099999936298],"total_keys":1,"block":2,"trial":229,"robot":3,"valence":"lose","action":"go","sham":0,"trial_type":"pit-trial","trial_index":243,"time_elapsed":3169938,"internal_node_id":"0.0-232.0","task_version":"battery-v0.1"},{"rune":"K","hex":"#3366ff99","correct":-1,"choice":32,"rt":153.50499999476597,"accuracy":0,"outcome":"+10","keys":[1657.115000009071],"total_keys":1,"block":2,"trial":230,"robot":2,"valence":"win","action":"no-go","sham":1,"trial_type":"pit-trial","trial_index":244,"time_elapsed":3172801,"internal_node_id":"0.0-233.0","task_version":"battery-v0.1"},{"rune":"P","hex":"#f73b6a7A","correct":32,"choice":-1,"rt":-1,"accuracy":0,"outcome":"-10","keys":[],"total_keys":0,"block":2,"trial":231,"robot":3,"valence":"lose","action":"go","sham":0,"trial_type":"pit-trial","trial_index":245,"time_elapsed":3176811,"internal_node_id":"0.0-234.0","task_version":"battery-v0.1"},{"rune":"S","hex":"#f73b6a7A","correct":-1,"choice":32,"rt":140.1099999784492,"accuracy":0,"outcome":"-1","keys":[1641.089999990072],"total_keys":1,"block":2,"trial":232,"robot":4,"valence":"lose","action":"no-go","sham":1,"trial_type":"pit-trial","trial_index":246,"time_elapsed":3179661,"internal_node_id":"0.0-235.0","task_version":"battery-v0.1"},{"rune":"P","hex":"#f73b6a7A","correct":32,"choice":32,"rt":344.6550000226125,"accuracy":1,"outcome":"-1","keys":[1845.9200000506826],"total_keys":1,"block":2,"trial":233,"robot":3,"valence":"lose","action":"go","sham":0,"trial_type":"pit-trial","trial_index":247,"time_elapsed":3182713,"internal_node_id":"0.0-236.0","task_version":"battery-v0.1"},{"rune":"M","hex":"#f73b6a7A","correct":32,"choice":32,"rt":273.1999999959953,"accuracy":1,"outcome":"-1","keys":[1780.8650000370108],"total_keys":1,"block":2,"trial":234,"robot":3,"valence":"lose","action":"go","sham":0,"trial_type":"pit-trial","trial_index":248,"time_elapsed":3185698,"internal_node_id":"0.0-237.0","task_version":"battery-v0.1"},{"rune":"S","hex":"#f73b6a7A","correct":-1,"choice":32,"rt":90.16500000143424,"accuracy":0,"outcome":"-10","keys":[1590.459999977611],"total_keys":1,"block":2,"trial":235,"robot":4,"valence":"lose","action":"no-go","sham":0,"trial_type":"pit-trial","trial_index":249,"time_elapsed":3188500,"internal_node_id":"0.0-238.0","task_version":"battery-v0.1"},{"rune":"K","hex":"#3366ff99","correct":-1,"choice":32,"rt":103.18999999435619,"accuracy":0,"outcome":"+1","keys":[1609.4750000047497],"total_keys":1,"block":2,"trial":236,"robot":2,"valence":"win","action":"no-go","sham":0,"trial_type":"pit-trial","trial_index":250,"time_elapsed":3191315,"internal_node_id":"0.0-239.0","task_version":"battery-v0.1"},{"rune":"S","hex":"#f73b6a7A","correct":-1,"choice":32,"rt":139.94000002276152,"accuracy":0,"outcome":"-10","keys":[1640.1699999696575],"total_keys":1,"block":2,"trial":237,"robot":4,"valence":"lose","action":"no-go","sham":0,"trial_type":"pit-trial","trial_index":251,"time_elapsed":3194162,"internal_node_id":"0.0-240.0","task_version":"battery-v0.1"},{"rune":"P","hex":"#f73b6a7A","correct":32,"choice":32,"rt":198.67499999236315,"accuracy":1,"outcome":"-1","keys":[1699.1549999802373],"total_keys":1,"block":2,"trial":238,"robot":3,"valence":"lose","action":"go","sham":0,"trial_type":"pit-trial","trial_index":252,"time_elapsed":3197068,"internal_node_id":"0.0-241.0","task_version":"battery-v0.1"},{"rune":"K","hex":"#3366ff99","correct":-1,"choice":32,"rt":312.355000001844,"accuracy":0,"outcome":"+1","keys":[1812.789999996312],"total_keys":1,"block":2,"trial":239,"robot":2,"valence":"win","action":"no-go","sham":0,"trial_type":"pit-trial","trial_index":253,"time_elapsed":3200088,"internal_node_id":"0.0-242.0","task_version":"battery-v0.1"},{"rune":"M","hex":"#f73b6a7A","correct":32,"choice":32,"rt":294.27499999292195,"accuracy":1,"outcome":"-1","keys":[1796.4449999853969],"total_keys":1,"block":2,"trial":240,"robot":3,"valence":"lose","action":"go","sham":0,"trial_type":"pit-trial","trial_index":254,"time_elapsed":3203092,"internal_node_id":"0.0-243.0","task_version":"battery-v0.1"},{"view_history":"[{\"page_index\":0,\"viewing_time\":1922.0949999871664}]","rt":1922.5449999794364,"trial_type":"pit-instructions","trial_index":255,"time_elapsed":3205019,"internal_node_id":"0.0-244.0","task_version":"battery-v0.1"},{"rt":9857.569999992847,"responses":{"age":"25","gender-categorical":"Male","gender-free-response":"","ethnicity":"Not Hispanic or Latino","race":["White"],"language":"Yes","fluency":"Very well"},"survey":"demographics","trial_type":"survey-demo","trial_index":256,"time_elapsed":3214887,"internal_node_id":"0.0-245.0","task_version":"battery-v0.1"},{"rt":13132.589999993797,"responses":{"difficulty":"4","fun":"5","clarity":"5","strategy":"Just tried to remember the logo ","feedback":"none"},"survey":"debrief","trial_type":"survey-debrief","trial_index":257,"time_elapsed":3228025,"internal_node_id":"0.0-246.0","task_version":"battery-v0.1","interactions":"[{\"event\":\"blur\",\"trial\":0,\"time\":77966},{\"event\":\"focus\",\"trial\":0,\"time\":90217},{\"event\":\"blur\",\"trial\":10,\"time\":420087},{\"event\":\"focus\",\"trial\":10,\"time\":424178},{\"event\":\"blur\",\"trial\":10,\"time\":542121},{\"event\":\"focus\",\"trial\":10,\"time\":595163},{\"event\":\"blur\",\"trial\":11,\"time\":890056},{\"event\":\"focus\",\"trial\":11,\"time\":1028459},{\"event\":\"blur\",\"trial\":11,\"time\":1028460},{\"event\":\"focus\",\"trial\":11,\"time\":1160880},{\"event\":\"blur\",\"trial\":11,\"time\":1166724},{\"event\":\"focus\",\"trial\":11,\"time\":1229751},{\"event\":\"blur\",\"trial\":11,\"time\":1578534},{\"event\":\"focus\",\"trial\":11,\"time\":2115177},{\"event\":\"blur\",\"trial\":85,\"time\":2388325},{\"event\":\"focus\",\"trial\":86,\"time\":2391031},{\"event\":\"blur\",\"trial\":87,\"time\":2396990},{\"event\":\"focus\",\"trial\":88,\"time\":2399582},{\"event\":\"blur\",\"trial\":89,\"time\":2404257},{\"event\":\"focus\",\"trial\":90,\"time\":2405801},{\"event\":\"blur\",\"trial\":106,\"time\":2464169},{\"event\":\"focus\",\"trial\":107,\"time\":2465848},{\"event\":\"blur\",\"trial\":134,\"time\":2565189},{\"event\":\"focus\",\"trial\":134,\"time\":2788077},{\"event\":\"blur\",\"trial\":191,\"time\":2987773},{\"event\":\"focus\",\"trial\":192,\"time\":2991928},{\"event\":\"blur\",\"trial\":196,\"time\":3005918},{\"event\":\"focus\",\"trial\":196,\"time\":3007319},{\"event\":\"blur\",\"trial\":241,\"time\":3162547},{\"event\":\"focus\",\"trial\":242,\"time\":3163648}]"}]