[{"view_history":"[{\"page_index\":0,\"viewing_time\":3208.229999996547},{\"page_index\":1,\"viewing_time\":3159.8750000048312},{\"page_index\":2,\"viewing_time\":1743.8249999977415},{\"page_index\":3,\"viewing_time\":4184.164999998757},{\"page_index\":4,\"viewing_time\":3321.8699999997625},{\"page_index\":5,\"viewing_time\":3704.170000004524}]","rt":19323.17999999941,"trial_type":"pit-instructions","trial_index":0,"time_elapsed":19376,"internal_node_id":"0.0-0.0-0.0","task_version":"battery-v0.1"},{"rune":"","hex":"#FFFFF080","correct":32,"choice":32,"rt":562.1000000028289,"accuracy":1,"outcome":"+10","keys":[2062.760000000708],"total_keys":1,"block":0,"trial_type":"pit-trial","trial_index":1,"time_elapsed":22649,"internal_node_id":"0.0-0.0-1.0-0.0","task_version":"battery-v0.1"},{"rune":"","hex":"#FFFFF080","correct":32,"choice":32,"rt":159.60500000073807,"accuracy":1,"outcome":"+10","keys":[1661.4950000002864],"total_keys":1,"block":0,"trial_type":"pit-trial","trial_index":2,"time_elapsed":25531,"internal_node_id":"0.0-0.0-1.0-0.1","task_version":"battery-v0.1"},{"rune":"","hex":"#FFFFF080","correct":32,"choice":32,"rt":141.86999999947147,"accuracy":1,"outcome":"+10","keys":[1643.3150000011665],"total_keys":1,"block":0,"trial_type":"pit-trial","trial_index":3,"time_elapsed":28400,"internal_node_id":"0.0-0.0-1.0-0.2","task_version":"battery-v0.1"},{"rune":"","hex":"#FFFFF080","correct":32,"choice":32,"rt":127.01999999990221,"accuracy":1,"outcome":"+10","keys":[1629.1350000028615],"total_keys":1,"block":0,"trial_type":"pit-trial","trial_index":4,"time_elapsed":31239,"internal_node_id":"0.0-0.0-1.0-0.3","task_version":"battery-v0.1"},{"view_history":"[{\"page_index\":0,\"viewing_time\":3610.2850000024773}]","rt":3610.7499999998254,"trial_type":"pit-instructions","trial_index":5,"time_elapsed":34867,"internal_node_id":"0.0-0.0-2.0","task_version":"battery-v0.1"},{"rune":"","hex":"#FFFFF080","correct":-1,"choice":-1,"rt":-1,"accuracy":1,"outcome":"+10","keys":[],"total_keys":0,"block":0,"trial_type":"pit-trial","trial_index":6,"time_elapsed":38878,"internal_node_id":"0.0-0.0-3.0-0.0","task_version":"battery-v0.1"},{"rune":"","hex":"#FFFFF080","correct":-1,"choice":-1,"rt":-1,"accuracy":1,"outcome":"+10","keys":[],"total_keys":0,"block":0,"trial_type":"pit-trial","trial_index":7,"time_elapsed":42898,"internal_node_id":"0.0-0.0-3.0-0.1","task_version":"battery-v0.1"},{"rune":"","hex":"#FFFFF080","correct":-1,"choice":-1,"rt":-1,"accuracy":1,"outcome":"+10","keys":[],"total_keys":0,"block":0,"trial_type":"pit-trial","trial_index":8,"time_elapsed":46919,"internal_node_id":"0.0-0.0-3.0-0.2","task_version":"battery-v0.1"},{"rune":"","hex":"#FFFFF080","correct":-1,"choice":-1,"rt":-1,"accuracy":1,"outcome":"+10","keys":[],"total_keys":0,"block":0,"trial_type":"pit-trial","trial_index":9,"time_elapsed":50928,"internal_node_id":"0.0-0.0-3.0-0.3","task_version":"battery-v0.1"},{"responses":["Press SPACE","Do nothing"],"num_errors":0,"rt":4067.8399999960675,"trial_type":"pit-comprehension","trial_index":10,"time_elapsed":55008,"internal_node_id":"0.0-0.0-4.0","task_version":"battery-v0.1"},{"view_history":"[{\"page_index\":0,\"viewing_time\":3753.7300000039977},{\"page_index\":1,\"viewing_time\":4462.225000002945},{\"page_index\":2,\"viewing_time\":4183.8949999946635},{\"page_index\":3,\"viewing_time\":3292.010000004666},{\"page_index\":4,\"viewing_time\":4448.004999998375},{\"page_index\":5,\"viewing_time\":7064.089999999851},{\"page_index\":6,\"viewing_time\":10886.019999998098},{\"page_index\":7,\"viewing_time\":3763.940000004368},{\"page_index\":8,\"viewing_time\":4702.13999999396},{\"page_index\":9,\"viewing_time\":2517.760000002454},{\"page_index\":10,\"viewing_time\":1728.1849999999395}]","rt":50802.55500000203,"trial_type":"pit-instructions","trial_index":11,"time_elapsed":105822,"internal_node_id":"0.0-1.0-0.0","task_version":"battery-v0.1"},{"responses":["+10","-1","True","True"],"num_errors":0,"rt":15639.595000000554,"trial_type":"pit-comprehension","trial_index":12,"time_elapsed":121469,"internal_node_id":"0.0-1.0-1.0","task_version":"battery-v0.1"},{"view_history":"[{\"page_index\":0,\"viewing_time\":2828.560000001744},{\"page_index\":1,\"viewing_time\":4794.479999996838}]","rt":7623.460000002524,"trial_type":"pit-instructions","trial_index":13,"time_elapsed":129104,"internal_node_id":"0.0-2.0","task_version":"battery-v0.1"},{"rune":"T","hex":"#3366ff99","correct":32,"choice":32,"rt":456.3699999998789,"accuracy":1,"outcome":"+1","keys":[1957.7150000041001],"total_keys":1,"block":1,"trial":1,"robot":1,"valence":"win","action":"go","sham":1,"trial_type":"pit-trial","trial_index":14,"time_elapsed":132272,"internal_node_id":"0.0-3.0","task_version":"battery-v0.1"},{"rune":"U","hex":"#3366ff99","correct":32,"choice":32,"rt":537.0100000000093,"accuracy":1,"outcome":"+10","keys":[2037.239999997837],"total_keys":1,"block":1,"trial":2,"robot":1,"valence":"win","action":"go","sham":0,"trial_type":"pit-trial","trial_index":15,"time_elapsed":135529,"internal_node_id":"0.0-4.0","task_version":"battery-v0.1"},{"rune":"W","hex":"#3366ff99","correct":-1,"choice":32,"rt":547.2399999998743,"accuracy":0,"outcome":"+1","keys":[2048.57500000071],"total_keys":1,"block":1,"trial":3,"robot":2,"valence":"win","action":"no-go","sham":0,"trial_type":"pit-trial","trial_index":16,"time_elapsed":138794,"internal_node_id":"0.0-5.0","task_version":"battery-v0.1"},{"rune":"N","hex":"#f73b6a7A","correct":-1,"choice":32,"rt":589.445000005071,"accuracy":0,"outcome":"-10","keys":[2090.2099999948405],"total_keys":1,"block":1,"trial":4,"robot":4,"valence":"lose","action":"no-go","sham":0,"trial_type":"pit-trial","trial_index":17,"time_elapsed":142093,"internal_node_id":"0.0-6.0","task_version":"battery-v0.1"},{"rune":"N","hex":"#f73b6a7A","correct":-1,"choice":-1,"rt":-1,"accuracy":1,"outcome":"-1","keys":[],"total_keys":0,"block":1,"trial":5,"robot":4,"valence":"lose","action":"no-go","sham":0,"trial_type":"pit-trial","trial_index":18,"time_elapsed":146102,"internal_node_id":"0.0-7.0","task_version":"battery-v0.1"},{"rune":"U","hex":"#3366ff99","correct":32,"choice":32,"rt":403.8199999995413,"accuracy":1,"outcome":"+10","keys":[1905.0399999978254],"total_keys":1,"block":1,"trial":6,"robot":1,"valence":"win","action":"go","sham":0,"trial_type":"pit-trial","trial_index":19,"time_elapsed":149225,"internal_node_id":"0.0-8.0","task_version":"battery-v0.1"},{"rune":"T","hex":"#3366ff99","correct":32,"choice":32,"rt":406.54499999800464,"accuracy":1,"outcome":"+10","keys":[1907.2000000014668],"total_keys":1,"block":1,"trial":7,"robot":1,"valence":"win","action":"go","sham":0,"trial_type":"pit-trial","trial_index":20,"time_elapsed":152352,"internal_node_id":"0.0-9.0","task_version":"battery-v0.1"},{"rune":"W","hex":"#3366ff99","correct":-1,"choice":32,"rt":340.714999998454,"accuracy":0,"outcome":"+1","keys":[1841.3000000000466],"total_keys":1,"block":1,"trial":8,"robot":2,"valence":"win","action":"no-go","sham":0,"trial_type":"pit-trial","trial_index":21,"time_elapsed":155413,"internal_node_id":"0.0-10.0","task_version":"battery-v0.1"},{"rune":"N","hex":"#f73b6a7A","correct":-1,"choice":-1,"rt":-1,"accuracy":1,"outcome":"-1","keys":[],"total_keys":0,"block":1,"trial":9,"robot":4,"valence":"lose","action":"no-go","sham":0,"trial_type":"pit-trial","trial_index":22,"time_elapsed":159434,"internal_node_id":"0.0-11.0","task_version":"battery-v0.1"},{"rune":"W","hex":"#3366ff99","correct":-1,"choice":32,"rt":357.90499999711756,"accuracy":0,"outcome":"+10","keys":[1859.0450000046985],"total_keys":1,"block":1,"trial":10,"robot":2,"valence":"win","action":"no-go","sham":1,"trial_type":"pit-trial","trial_index":23,"time_elapsed":162513,"internal_node_id":"0.0-12.0","task_version":"battery-v0.1"},{"rune":"U","hex":"#3366ff99","correct":32,"choice":32,"rt":308.20500000118045,"accuracy":1,"outcome":"+10","keys":[1808.339999995951],"total_keys":1,"block":1,"trial":11,"robot":1,"valence":"win","action":"go","sham":0,"trial_type":"pit-trial","trial_index":24,"time_elapsed":165534,"internal_node_id":"0.0-13.0","task_version":"battery-v0.1"},{"rune":"T","hex":"#3366ff99","correct":32,"choice":32,"rt":280.70499999739695,"accuracy":1,"outcome":"+10","keys":[1782.2499999965657],"total_keys":1,"block":1,"trial":12,"robot":1,"valence":"win","action":"go","sham":0,"trial_type":"pit-trial","trial_index":25,"time_elapsed":168522,"internal_node_id":"0.0-14.0","task_version":"battery-v0.1"},{"rune":"T","hex":"#3366ff99","correct":32,"choice":32,"rt":273.52999999857275,"accuracy":1,"outcome":"+10","keys":[1774.6699999988778],"total_keys":1,"block":1,"trial":13,"robot":1,"valence":"win","action":"go","sham":0,"trial_type":"pit-trial","trial_index":26,"time_elapsed":171513,"internal_node_id":"0.0-15.0","task_version":"battery-v0.1"},{"rune":"W","hex":"#3366ff99","correct":-1,"choice":32,"rt":331.610000001092,"accuracy":0,"outcome":"+10","keys":[1832.155000003695],"total_keys":1,"block":1,"trial":14,"robot":2,"valence":"win","action":"no-go","sham":1,"trial_type":"pit-trial","trial_index":27,"time_elapsed":174565,"internal_node_id":"0.0-16.0","task_version":"battery-v0.1"},{"rune":"N","hex":"#f73b6a7A","correct":-1,"choice":-1,"rt":-1,"accuracy":1,"outcome":"-1","keys":[],"total_keys":0,"block":1,"trial":15,"robot":4,"valence":"lose","action":"no-go","sham":0,"trial_type":"pit-trial","trial_index":28,"time_elapsed":178586,"internal_node_id":"0.0-17.0","task_version":"battery-v0.1"},{"rune":"U","hex":"#3366ff99","correct":32,"choice":32,"rt":271.76499999768566,"accuracy":1,"outcome":"+1","keys":[1772.319999996398],"total_keys":1,"block":1,"trial":16,"robot":1,"valence":"win","action":"go","sham":1,"trial_type":"pit-trial","trial_index":29,"time_elapsed":181578,"internal_node_id":"0.0-18.0","task_version":"battery-v0.1"},{"rune":"U","hex":"#3366ff99","correct":32,"choice":32,"rt":285.94499999599066,"accuracy":1,"outcome":"+10","keys":[1786.5400000009686],"total_keys":1,"block":1,"trial":17,"robot":1,"valence":"win","action":"go","sham":0,"trial_type":"pit-trial","trial_index":30,"time_elapsed":184586,"internal_node_id":"0.0-19.0","task_version":"battery-v0.1"},{"rune":"T","hex":"#3366ff99","correct":32,"choice":32,"rt":312.31499999557855,"accuracy":1,"outcome":"+10","keys":[1813.4700000009616],"total_keys":1,"block":1,"trial":18,"robot":1,"valence":"win","action":"go","sham":0,"trial_type":"pit-trial","trial_index":31,"time_elapsed":187618,"internal_node_id":"0.0-20.0","task_version":"battery-v0.1"},{"rune":"W","hex":"#3366ff99","correct":-1,"choice":32,"rt":286.3299999953597,"accuracy":0,"outcome":"+1","keys":[1786.6849999991246],"total_keys":1,"block":1,"trial":19,"robot":2,"valence":"win","action":"no-go","sham":0,"trial_type":"pit-trial","trial_index":32,"time_elapsed":190627,"internal_node_id":"0.0-21.0","task_version":"battery-v0.1"},{"rune":"N","hex":"#f73b6a7A","correct":-1,"choice":-1,"rt":-1,"accuracy":1,"outcome":"-1","keys":[],"total_keys":0,"block":1,"trial":20,"robot":4,"valence":"lose","action":"no-go","sham":0,"trial_type":"pit-trial","trial_index":33,"time_elapsed":194648,"internal_node_id":"0.0-22.0","task_version":"battery-v0.1"},{"rune":"U","hex":"#3366ff99","correct":32,"choice":32,"rt":477.0700000008219,"accuracy":1,"outcome":"+10","keys":[1978.2800000029965],"total_keys":1,"block":1,"trial":21,"robot":1,"valence":"win","action":"go","sham":0,"trial_type":"pit-trial","trial_index":34,"time_elapsed":197845,"internal_node_id":"0.0-23.0","task_version":"battery-v0.1"},{"rune":"N","hex":"#f73b6a7A","correct":-1,"choice":-1,"rt":-1,"accuracy":1,"outcome":"-1","keys":[],"total_keys":0,"block":1,"trial":22,"robot":4,"valence":"lose","action":"no-go","sham":0,"trial_type":"pit-trial","trial_index":35,"time_elapsed":201865,"internal_node_id":"0.0-24.0","task_version":"battery-v0.1"},{"rune":"T","hex":"#3366ff99","correct":32,"choice":32,"rt":424.7599999944214,"accuracy":1,"outcome":"+10","keys":[1924.750000005588],"total_keys":1,"block":1,"trial":23,"robot":1,"valence":"win","action":"go","sham":0,"trial_type":"pit-trial","trial_index":36,"time_elapsed":205015,"internal_node_id":"0.0-25.0","task_version":"battery-v0.1"},{"rune":"W","hex":"#3366ff99","correct":-1,"choice":-1,"rt":-1,"accuracy":1,"outcome":"+1","keys":[],"total_keys":0,"block":1,"trial":24,"robot":2,"valence":"win","action":"no-go","sham":1,"trial_type":"pit-trial","trial_index":37,"time_elapsed":209022,"internal_node_id":"0.0-26.0","task_version":"battery-v0.1"},{"rune":"W","hex":"#3366ff99","correct":-1,"choice":32,"rt":546.7250000001513,"accuracy":0,"outcome":"+1","keys":[2047.2949999966659],"total_keys":1,"block":1,"trial":25,"robot":2,"valence":"win","action":"no-go","sham":0,"trial_type":"pit-trial","trial_index":38,"time_elapsed":212289,"internal_node_id":"0.0-27.0","task_version":"battery-v0.1"},{"rune":"U","hex":"#3366ff99","correct":32,"choice":32,"rt":383.3149999991292,"accuracy":1,"outcome":"+10","keys":[1884.8049999942305],"total_keys":1,"block":1,"trial":26,"robot":1,"valence":"win","action":"go","sham":0,"trial_type":"pit-trial","trial_index":39,"time_elapsed":215388,"internal_node_id":"0.0-28.0","task_version":"battery-v0.1"},{"rune":"T","hex":"#3366ff99","correct":32,"choice":32,"rt":300.4350000046543,"accuracy":1,"outcome":"+10","keys":[1801.370000001043],"total_keys":1,"block":1,"trial":27,"robot":1,"valence":"win","action":"go","sham":0,"trial_type":"pit-trial","trial_index":40,"time_elapsed":218408,"internal_node_id":"0.0-29.0","task_version":"battery-v0.1"},{"rune":"N","hex":"#f73b6a7A","correct":-1,"choice":-1,"rt":-1,"accuracy":1,"outcome":"-1","keys":[],"total_keys":0,"block":1,"trial":28,"robot":4,"valence":"lose","action":"no-go","sham":0,"trial_type":"pit-trial","trial_index":41,"time_elapsed":222428,"internal_node_id":"0.0-30.0","task_version":"battery-v0.1"},{"rune":"W","hex":"#3366ff99","correct":-1,"choice":32,"rt":277.04500000254484,"accuracy":0,"outcome":"+1","keys":[1778.2349999979488],"total_keys":1,"block":1,"trial":29,"robot":2,"valence":"win","action":"no-go","sham":0,"trial_type":"pit-trial","trial_index":42,"time_elapsed":225426,"internal_node_id":"0.0-31.0","task_version":"battery-v0.1"},{"rune":"U","hex":"#3366ff99","correct":32,"choice":32,"rt":281.1349999974482,"accuracy":1,"outcome":"+10","keys":[1781.4249999937601],"total_keys":1,"block":1,"trial":30,"robot":1,"valence":"win","action":"go","sham":0,"trial_type":"pit-trial","trial_index":43,"time_elapsed":228428,"internal_node_id":"0.0-32.0","task_version":"battery-v0.1"},{"rune":"N","hex":"#f73b6a7A","correct":-1,"choice":-1,"rt":-1,"accuracy":1,"outcome":"-1","keys":[],"total_keys":0,"block":1,"trial":31,"robot":4,"valence":"lose","action":"no-go","sham":0,"trial_type":"pit-trial","trial_index":44,"time_elapsed":232448,"internal_node_id":"0.0-33.0","task_version":"battery-v0.1"},{"rune":"T","hex":"#3366ff99","correct":32,"choice":32,"rt":280.0349999961327,"accuracy":1,"outcome":"+1","keys":[1781.3050000040676],"total_keys":1,"block":1,"trial":32,"robot":1,"valence":"win","action":"go","sham":1,"trial_type":"pit-trial","trial_index":45,"time_elapsed":235450,"internal_node_id":"0.0-34.0","task_version":"battery-v0.1"},{"rune":"U","hex":"#3366ff99","correct":32,"choice":32,"rt":254.67999999818858,"accuracy":1,"outcome":"+10","keys":[1754.9849999995786],"total_keys":1,"block":1,"trial":33,"robot":1,"valence":"win","action":"go","sham":0,"trial_type":"pit-trial","trial_index":46,"time_elapsed":238424,"internal_node_id":"0.0-35.0","task_version":"battery-v0.1"},{"rune":"H","hex":"#3366ff99","correct":32,"choice":32,"rt":243.99999999877764,"accuracy":1,"outcome":"+10","keys":[1744.6649999983492],"total_keys":1,"block":1,"trial":34,"robot":1,"valence":"win","action":"go","sham":0,"trial_type":"pit-trial","trial_index":47,"time_elapsed":241389,"internal_node_id":"0.0-36.0","task_version":"battery-v0.1"},{"rune":"W","hex":"#3366ff99","correct":-1,"choice":32,"rt":270.5850000056671,"accuracy":0,"outcome":"+1","keys":[1770.7450000016252],"total_keys":1,"block":1,"trial":35,"robot":2,"valence":"win","action":"no-go","sham":0,"trial_type":"pit-trial","trial_index":48,"time_elapsed":244370,"internal_node_id":"0.0-37.0","task_version":"battery-v0.1"},{"rune":"N","hex":"#f73b6a7A","correct":-1,"choice":-1,"rt":-1,"accuracy":1,"outcome":"-1","keys":[],"total_keys":0,"block":1,"trial":36,"robot":4,"valence":"lose","action":"no-go","sham":0,"trial_type":"pit-trial","trial_index":49,"time_elapsed":248391,"internal_node_id":"0.0-38.0","task_version":"battery-v0.1"},{"rune":"H","hex":"#3366ff99","correct":32,"choice":32,"rt":361.8549999955576,"accuracy":1,"outcome":"+1","keys":[1862.314999998489],"total_keys":1,"block":1,"trial":37,"robot":1,"valence":"win","action":"go","sham":1,"trial_type":"pit-trial","trial_index":50,"time_elapsed":251473,"internal_node_id":"0.0-39.0","task_version":"battery-v0.1"},{"rune":"W","hex":"#3366ff99","correct":-1,"choice":32,"rt":205.50500000535976,"accuracy":0,"outcome":"+1","keys":[1707.4399999983143],"total_keys":1,"block":1,"trial":38,"robot":2,"valence":"win","action":"no-go","sham":0,"trial_type":"pit-trial","trial_index":51,"time_elapsed":254400,"internal_node_id":"0.0-40.0","task_version":"battery-v0.1"},{"rune":"U","hex":"#3366ff99","correct":32,"choice":32,"rt":303.7499999991269,"accuracy":1,"outcome":"+10","keys":[1804.4900000022608],"total_keys":1,"block":1,"trial":39,"robot":1,"valence":"win","action":"go","sham":0,"trial_type":"pit-trial","trial_index":52,"time_elapsed":257423,"internal_node_id":"0.0-41.0","task_version":"battery-v0.1"},{"rune":"N","hex":"#f73b6a7A","correct":-1,"choice":-1,"rt":-1,"accuracy":1,"outcome":"-10","keys":[],"total_keys":0,"block":1,"trial":40,"robot":4,"valence":"lose","action":"no-go","sham":1,"trial_type":"pit-trial","trial_index":53,"time_elapsed":261443,"internal_node_id":"0.0-42.0","task_version":"battery-v0.1"},{"rune":"J","hex":"#f73b6a7A","correct":-1,"choice":32,"rt":718.1750000017928,"accuracy":0,"outcome":"-10","keys":[2218.254999999772],"total_keys":1,"block":1,"trial":41,"robot":4,"valence":"lose","action":"no-go","sham":0,"trial_type":"pit-trial","trial_index":54,"time_elapsed":264881,"internal_node_id":"0.0-43.0","task_version":"battery-v0.1"},{"rune":"H","hex":"#3366ff99","correct":32,"choice":32,"rt":366.5550000005169,"accuracy":1,"outcome":"+10","keys":[1867.1549999999115],"total_keys":1,"block":1,"trial":42,"robot":1,"valence":"win","action":"go","sham":0,"trial_type":"pit-trial","trial_index":55,"time_elapsed":267957,"internal_node_id":"0.0-44.0","task_version":"battery-v0.1"},{"rune":"F","hex":"#f73b6a7A","correct":32,"choice":-1,"rt":-1,"accuracy":0,"outcome":"-1","keys":[],"total_keys":0,"block":1,"trial":43,"robot":3,"valence":"lose","action":"go","sham":1,"trial_type":"pit-trial","trial_index":56,"time_elapsed":271968,"internal_node_id":"0.0-45.0","task_version":"battery-v0.1"},{"rune":"W","hex":"#3366ff99","correct":-1,"choice":32,"rt":369.78999999701045,"accuracy":0,"outcome":"+10","keys":[1870.7349999967846],"total_keys":1,"block":1,"trial":44,"robot":2,"valence":"win","action":"no-go","sham":1,"trial_type":"pit-trial","trial_index":57,"time_elapsed":275058,"internal_node_id":"0.0-46.0","task_version":"battery-v0.1"},{"rune":"H","hex":"#3366ff99","correct":32,"choice":32,"rt":378.57500000245636,"accuracy":1,"outcome":"+1","keys":[1880.3699999989476],"total_keys":1,"block":1,"trial":45,"robot":1,"valence":"win","action":"go","sham":1,"trial_type":"pit-trial","trial_index":58,"time_elapsed":278158,"internal_node_id":"0.0-47.0","task_version":"battery-v0.1"},{"rune":"F","hex":"#f73b6a7A","correct":32,"choice":-1,"rt":-1,"accuracy":0,"outcome":"-10","keys":[],"total_keys":0,"block":1,"trial":46,"robot":3,"valence":"lose","action":"go","sham":0,"trial_type":"pit-trial","trial_index":59,"time_elapsed":282177,"internal_node_id":"0.0-48.0","task_version":"battery-v0.1"},{"rune":"J","hex":"#f73b6a7A","correct":-1,"choice":-1,"rt":-1,"accuracy":1,"outcome":"-1","keys":[],"total_keys":0,"block":1,"trial":47,"robot":4,"valence":"lose","action":"no-go","sham":0,"trial_type":"pit-trial","trial_index":60,"time_elapsed":286197,"internal_node_id":"0.0-49.0","task_version":"battery-v0.1"},{"rune":"W","hex":"#3366ff99","correct":-1,"choice":32,"rt":350.33999999723164,"accuracy":0,"outcome":"+10","keys":[1850.9550000017043],"total_keys":1,"block":1,"trial":48,"robot":2,"valence":"win","action":"no-go","sham":1,"trial_type":"pit-trial","trial_index":61,"time_elapsed":289268,"internal_node_id":"0.0-50.0","task_version":"battery-v0.1"},{"rune":"B","hex":"#3366ff99","correct":-1,"choice":32,"rt":341.47500000108266,"accuracy":0,"outcome":"+1","keys":[1842.4749999976484],"total_keys":1,"block":1,"trial":49,"robot":2,"valence":"win","action":"no-go","sham":0,"trial_type":"pit-trial","trial_index":62,"time_elapsed":292330,"internal_node_id":"0.0-51.0","task_version":"battery-v0.1"},{"rune":"J","hex":"#f73b6a7A","correct":-1,"choice":-1,"rt":-1,"accuracy":1,"outcome":"-1","keys":[],"total_keys":0,"block":1,"trial":50,"robot":4,"valence":"lose","action":"no-go","sham":0,"trial_type":"pit-trial","trial_index":63,"time_elapsed":296350,"internal_node_id":"0.0-52.0","task_version":"battery-v0.1"},{"rune":"F","hex":"#f73b6a7A","correct":32,"choice":32,"rt":571.1350000055972,"accuracy":1,"outcome":"-10","keys":[2071.2399999974878],"total_keys":1,"block":1,"trial":51,"robot":3,"valence":"lose","action":"go","sham":1,"trial_type":"pit-trial","trial_index":64,"time_elapsed":299640,"internal_node_id":"0.0-53.0","task_version":"battery-v0.1"},{"rune":"H","hex":"#3366ff99","correct":32,"choice":32,"rt":297.7450000034878,"accuracy":1,"outcome":"+10","keys":[1797.8150000053574],"total_keys":1,"block":1,"trial":52,"robot":1,"valence":"win","action":"go","sham":0,"trial_type":"pit-trial","trial_index":65,"time_elapsed":302658,"internal_node_id":"0.0-54.0","task_version":"battery-v0.1"},{"rune":"F","hex":"#f73b6a7A","correct":32,"choice":-1,"rt":-1,"accuracy":0,"outcome":"-10","keys":[],"total_keys":0,"block":1,"trial":53,"robot":3,"valence":"lose","action":"go","sham":0,"trial_type":"pit-trial","trial_index":66,"time_elapsed":306677,"internal_node_id":"0.0-55.0","task_version":"battery-v0.1"},{"rune":"J","hex":"#f73b6a7A","correct":-1,"choice":-1,"rt":-1,"accuracy":1,"outcome":"-1","keys":[],"total_keys":0,"block":1,"trial":54,"robot":4,"valence":"lose","action":"no-go","sham":0,"trial_type":"pit-trial","trial_index":67,"time_elapsed":310698,"internal_node_id":"0.0-56.0","task_version":"battery-v0.1"},{"rune":"B","hex":"#3366ff99","correct":-1,"choice":32,"rt":334.3299999978626,"accuracy":0,"outcome":"+1","keys":[1834.950000004028],"total_keys":1,"block":1,"trial":55,"robot":2,"valence":"win","action":"no-go","sham":0,"trial_type":"pit-trial","trial_index":68,"time_elapsed":313754,"internal_node_id":"0.0-57.0","task_version":"battery-v0.1"},{"rune":"H","hex":"#3366ff99","correct":32,"choice":32,"rt":285.2599999969243,"accuracy":1,"outcome":"+10","keys":[1786.4400000034948],"total_keys":1,"block":1,"trial":56,"robot":1,"valence":"win","action":"go","sham":0,"trial_type":"pit-trial","trial_index":69,"time_elapsed":316759,"internal_node_id":"0.0-58.0","task_version":"battery-v0.1"},{"rune":"F","hex":"#f73b6a7A","correct":32,"choice":32,"rt":941.835000005085,"accuracy":1,"outcome":"-1","keys":[2442.784999999276],"total_keys":1,"block":1,"trial":57,"robot":3,"valence":"lose","action":"go","sham":0,"trial_type":"pit-trial","trial_index":70,"time_elapsed":320411,"internal_node_id":"0.0-59.0","task_version":"battery-v0.1"},{"rune":"B","hex":"#3366ff99","correct":-1,"choice":32,"rt":462.13999999599764,"accuracy":0,"outcome":"+1","keys":[1962.279999999737],"total_keys":1,"block":1,"trial":58,"robot":2,"valence":"win","action":"no-go","sham":0,"trial_type":"pit-trial","trial_index":71,"time_elapsed":323593,"internal_node_id":"0.0-60.0","task_version":"battery-v0.1"},{"rune":"J","hex":"#f73b6a7A","correct":-1,"choice":-1,"rt":-1,"accuracy":1,"outcome":"-1","keys":[],"total_keys":0,"block":1,"trial":59,"robot":4,"valence":"lose","action":"no-go","sham":0,"trial_type":"pit-trial","trial_index":72,"time_elapsed":327615,"internal_node_id":"0.0-61.0","task_version":"battery-v0.1"},{"rune":"H","hex":"#3366ff99","correct":32,"choice":32,"rt":329.2399999991176,"accuracy":1,"outcome":"+1","keys":[1830.340000000433],"total_keys":1,"block":1,"trial":60,"robot":1,"valence":"win","action":"go","sham":1,"trial_type":"pit-trial","trial_index":73,"time_elapsed":330665,"internal_node_id":"0.0-62.0","task_version":"battery-v0.1"},{"rune":"J","hex":"#f73b6a7A","correct":-1,"choice":-1,"rt":-1,"accuracy":1,"outcome":"-1","keys":[],"total_keys":0,"block":1,"trial":61,"robot":4,"valence":"lose","action":"no-go","sham":0,"trial_type":"pit-trial","trial_index":74,"time_elapsed":334685,"internal_node_id":"0.0-63.0","task_version":"battery-v0.1"},{"rune":"F","hex":"#f73b6a7A","correct":32,"choice":32,"rt":690.7449999998789,"accuracy":1,"outcome":"-1","keys":[2191.885000000184],"total_keys":1,"block":1,"trial":62,"robot":3,"valence":"lose","action":"go","sham":0,"trial_type":"pit-trial","trial_index":75,"time_elapsed":338097,"internal_node_id":"0.0-64.0","task_version":"battery-v0.1"},{"rune":"B","hex":"#3366ff99","correct":-1,"choice":32,"rt":317.83500000165077,"accuracy":0,"outcome":"+1","keys":[1818.7050000051386],"total_keys":1,"block":1,"trial":63,"robot":2,"valence":"win","action":"no-go","sham":0,"trial_type":"pit-trial","trial_index":76,"time_elapsed":341135,"internal_node_id":"0.0-65.0","task_version":"battery-v0.1"},{"rune":"H","hex":"#3366ff99","correct":32,"choice":32,"rt":328.8700000048266,"accuracy":1,"outcome":"+10","keys":[1829.4399999940651],"total_keys":1,"block":1,"trial":64,"robot":1,"valence":"win","action":"go","sham":0,"trial_type":"pit-trial","trial_index":77,"time_elapsed":344185,"internal_node_id":"0.0-66.0","task_version":"battery-v0.1"},{"rune":"B","hex":"#3366ff99","correct":-1,"choice":32,"rt":288.31000000354834,"accuracy":0,"outcome":"+1","keys":[1789.1099999978906],"total_keys":1,"block":1,"trial":65,"robot":2,"valence":"win","action":"no-go","sham":0,"trial_type":"pit-trial","trial_index":78,"time_elapsed":347194,"internal_node_id":"0.0-67.0","task_version":"battery-v0.1"},{"rune":"J","hex":"#f73b6a7A","correct":-1,"choice":-1,"rt":-1,"accuracy":1,"outcome":"-1","keys":[],"total_keys":0,"block":1,"trial":66,"robot":4,"valence":"lose","action":"no-go","sham":0,"trial_type":"pit-trial","trial_index":79,"time_elapsed":351215,"internal_node_id":"0.0-68.0","task_version":"battery-v0.1"},{"rune":"H","hex":"#3366ff99","correct":32,"choice":32,"rt":307.0900000020629,"accuracy":1,"outcome":"+10","keys":[1807.8400000013062],"total_keys":1,"block":1,"trial":67,"robot":1,"valence":"win","action":"go","sham":0,"trial_type":"pit-trial","trial_index":80,"time_elapsed":354247,"internal_node_id":"0.0-69.0","task_version":"battery-v0.1"},{"rune":"F","hex":"#f73b6a7A","correct":32,"choice":32,"rt":763.9650000055553,"accuracy":1,"outcome":"-1","keys":[2264.1100000037113],"total_keys":1,"block":1,"trial":68,"robot":3,"valence":"lose","action":"go","sham":0,"trial_type":"pit-trial","trial_index":81,"time_elapsed":357730,"internal_node_id":"0.0-70.0","task_version":"battery-v0.1"},{"rune":"F","hex":"#f73b6a7A","correct":32,"choice":32,"rt":478.2850000046892,"accuracy":1,"outcome":"-1","keys":[1979.8049999953946],"total_keys":1,"block":1,"trial":69,"robot":3,"valence":"lose","action":"go","sham":0,"trial_type":"pit-trial","trial_index":82,"time_elapsed":360930,"internal_node_id":"0.0-71.0","task_version":"battery-v0.1"},{"rune":"H","hex":"#3366ff99","correct":32,"choice":32,"rt":372.81500000244705,"accuracy":1,"outcome":"+1","keys":[1873.1950000001234],"total_keys":1,"block":1,"trial":70,"robot":1,"valence":"win","action":"go","sham":1,"trial_type":"pit-trial","trial_index":83,"time_elapsed":364023,"internal_node_id":"0.0-72.0","task_version":"battery-v0.1"},{"rune":"B","hex":"#3366ff99","correct":-1,"choice":32,"rt":291.01499999524094,"accuracy":0,"outcome":"+1","keys":[1791.6800000020885],"total_keys":1,"block":1,"trial":71,"robot":2,"valence":"win","action":"no-go","sham":0,"trial_type":"pit-trial","trial_index":84,"time_elapsed":367035,"internal_node_id":"0.0-73.0","task_version":"battery-v0.1"},{"rune":"J","hex":"#f73b6a7A","correct":-1,"choice":-1,"rt":-1,"accuracy":1,"outcome":"-1","keys":[],"total_keys":0,"block":1,"trial":72,"robot":4,"valence":"lose","action":"no-go","sham":0,"trial_type":"pit-trial","trial_index":85,"time_elapsed":371057,"internal_node_id":"0.0-74.0","task_version":"battery-v0.1"},{"rune":"B","hex":"#3366ff99","correct":-1,"choice":32,"rt":310.05000000004657,"accuracy":0,"outcome":"+1","keys":[1810.510000002978],"total_keys":1,"block":1,"trial":73,"robot":2,"valence":"win","action":"no-go","sham":0,"trial_type":"pit-trial","trial_index":86,"time_elapsed":374088,"internal_node_id":"0.0-75.0","task_version":"battery-v0.1"},{"rune":"Z","hex":"#f73b6a7A","correct":32,"choice":-1,"rt":-1,"accuracy":0,"outcome":"-10","keys":[],"total_keys":0,"block":1,"trial":74,"robot":3,"valence":"lose","action":"go","sham":0,"trial_type":"pit-trial","trial_index":87,"time_elapsed":378110,"internal_node_id":"0.0-76.0","task_version":"battery-v0.1"},{"rune":"J","hex":"#f73b6a7A","correct":-1,"choice":-1,"rt":-1,"accuracy":1,"outcome":"-1","keys":[],"total_keys":0,"block":1,"trial":75,"robot":4,"valence":"lose","action":"no-go","sham":0,"trial_type":"pit-trial","trial_index":88,"time_elapsed":382130,"internal_node_id":"0.0-77.0","task_version":"battery-v0.1"},{"rune":"H","hex":"#3366ff99","correct":32,"choice":32,"rt":410.650000005262,"accuracy":1,"outcome":"+10","keys":[1911.0249999939697],"total_keys":1,"block":1,"trial":76,"robot":1,"valence":"win","action":"go","sham":0,"trial_type":"pit-trial","trial_index":89,"time_elapsed":385250,"internal_node_id":"0.0-78.0","task_version":"battery-v0.1"},{"rune":"J","hex":"#f73b6a7A","correct":-1,"choice":-1,"rt":-1,"accuracy":1,"outcome":"-1","keys":[],"total_keys":0,"block":1,"trial":77,"robot":4,"valence":"lose","action":"no-go","sham":0,"trial_type":"pit-trial","trial_index":90,"time_elapsed":389261,"internal_node_id":"0.0-79.0","task_version":"battery-v0.1"},{"rune":"Z","hex":"#f73b6a7A","correct":32,"choice":32,"rt":486.3949999999022,"accuracy":1,"outcome":"-1","keys":[1987.459999996645],"total_keys":1,"block":1,"trial":78,"robot":3,"valence":"lose","action":"go","sham":0,"trial_type":"pit-trial","trial_index":91,"time_elapsed":392468,"internal_node_id":"0.0-80.0","task_version":"battery-v0.1"},{"rune":"H","hex":"#3366ff99","correct":32,"choice":32,"rt":320.0899999937974,"accuracy":1,"outcome":"+10","keys":[1820.1399999961723],"total_keys":1,"block":1,"trial":79,"robot":1,"valence":"win","action":"go","sham":0,"trial_type":"pit-trial","trial_index":92,"time_elapsed":395508,"internal_node_id":"0.0-81.0","task_version":"battery-v0.1"},{"rune":"B","hex":"#3366ff99","correct":-1,"choice":32,"rt":447.0149999979185,"accuracy":0,"outcome":"+1","keys":[1948.2549999956973],"total_keys":1,"block":1,"trial":80,"robot":2,"valence":"win","action":"no-go","sham":0,"trial_type":"pit-trial","trial_index":93,"time_elapsed":398675,"internal_node_id":"0.0-82.0","task_version":"battery-v0.1"},{"rune":"Q","hex":"#f73b6a7A","correct":32,"choice":-1,"rt":-1,"accuracy":0,"outcome":"-10","keys":[],"total_keys":0,"block":1,"trial":81,"robot":3,"valence":"lose","action":"go","sham":0,"trial_type":"pit-trial","trial_index":94,"time_elapsed":402695,"internal_node_id":"0.0-83.0","task_version":"battery-v0.1"},{"rune":"B","hex":"#3366ff99","correct":-1,"choice":32,"rt":330.5700000055367,"accuracy":0,"outcome":"+1","keys":[1830.9000000008382],"total_keys":1,"block":1,"trial":82,"robot":2,"valence":"win","action":"no-go","sham":0,"trial_type":"pit-trial","trial_index":95,"time_elapsed":405746,"internal_node_id":"0.0-84.0","task_version":"battery-v0.1"},{"rune":"Z","hex":"#f73b6a7A","correct":32,"choice":32,"rt":346.9150000018999,"accuracy":1,"outcome":"-1","keys":[1847.0650000017486],"total_keys":1,"block":1,"trial":83,"robot":3,"valence":"lose","action":"go","sham":0,"trial_type":"pit-trial","trial_index":96,"time_elapsed":408813,"internal_node_id":"0.0-85.0","task_version":"battery-v0.1"},{"rune":"J","hex":"#f73b6a7A","correct":-1,"choice":-1,"rt":-1,"accuracy":1,"outcome":"-1","keys":[],"total_keys":0,"block":1,"trial":84,"robot":4,"valence":"lose","action":"no-go","sham":0,"trial_type":"pit-trial","trial_index":97,"time_elapsed":412833,"internal_node_id":"0.0-86.0","task_version":"battery-v0.1"},{"rune":"Z","hex":"#f73b6a7A","correct":32,"choice":32,"rt":502.14499999856343,"accuracy":1,"outcome":"-1","keys":[2002.119999997376],"total_keys":1,"block":1,"trial":85,"robot":3,"valence":"lose","action":"go","sham":0,"trial_type":"pit-trial","trial_index":98,"time_elapsed":416052,"internal_node_id":"0.0-87.0","task_version":"battery-v0.1"},{"rune":"B","hex":"#3366ff99","correct":-1,"choice":32,"rt":282.46000000217464,"accuracy":0,"outcome":"+1","keys":[1782.4950000067474],"total_keys":1,"block":1,"trial":86,"robot":2,"valence":"win","action":"no-go","sham":0,"trial_type":"pit-trial","trial_index":99,"time_elapsed":419055,"internal_node_id":"0.0-88.0","task_version":"battery-v0.1"},{"rune":"J","hex":"#f73b6a7A","correct":-1,"choice":-1,"rt":-1,"accuracy":1,"outcome":"-1","keys":[],"total_keys":0,"block":1,"trial":87,"robot":4,"valence":"lose","action":"no-go","sham":0,"trial_type":"pit-trial","trial_index":100,"time_elapsed":423076,"internal_node_id":"0.0-89.0","task_version":"battery-v0.1"},{"rune":"Q","hex":"#f73b6a7A","correct":32,"choice":32,"rt":516.4050000021234,"accuracy":1,"outcome":"-1","keys":[2018.435000005411],"total_keys":1,"block":1,"trial":88,"robot":3,"valence":"lose","action":"go","sham":0,"trial_type":"pit-trial","trial_index":101,"time_elapsed":426304,"internal_node_id":"0.0-90.0","task_version":"battery-v0.1"},{"rune":"D","hex":"#3366ff99","correct":-1,"choice":32,"rt":330.244999997376,"accuracy":0,"outcome":"+1","keys":[1831.465000002936],"total_keys":1,"block":1,"trial":89,"robot":2,"valence":"win","action":"no-go","sham":0,"trial_type":"pit-trial","trial_index":102,"time_elapsed":429348,"internal_node_id":"0.0-91.0","task_version":"battery-v0.1"},{"rune":"Z","hex":"#f73b6a7A","correct":32,"choice":32,"rt":490.46999999700347,"accuracy":1,"outcome":"-1","keys":[1991.1599999977625],"total_keys":1,"block":1,"trial":90,"robot":3,"valence":"lose","action":"go","sham":0,"trial_type":"pit-trial","trial_index":103,"time_elapsed":432559,"internal_node_id":"0.0-92.0","task_version":"battery-v0.1"},{"rune":"S","hex":"#f73b6a7A","correct":-1,"choice":32,"rt":745.7350000040606,"accuracy":0,"outcome":"-10","keys":[2246.769999997923],"total_keys":1,"block":1,"trial":91,"robot":4,"valence":"lose","action":"no-go","sham":0,"trial_type":"pit-trial","trial_index":104,"time_elapsed":436025,"internal_node_id":"0.0-93.0","task_version":"battery-v0.1"},{"rune":"Q","hex":"#f73b6a7A","correct":32,"choice":32,"rt":440.8850000036182,"accuracy":1,"outcome":"-1","keys":[1940.984999993816],"total_keys":1,"block":1,"trial":92,"robot":3,"valence":"lose","action":"go","sham":0,"trial_type":"pit-trial","trial_index":105,"time_elapsed":439187,"internal_node_id":"0.0-94.0","task_version":"battery-v0.1"},{"rune":"S","hex":"#f73b6a7A","correct":-1,"choice":-1,"rt":-1,"accuracy":1,"outcome":"-1","keys":[],"total_keys":0,"block":1,"trial":93,"robot":4,"valence":"lose","action":"no-go","sham":0,"trial_type":"pit-trial","trial_index":106,"time_elapsed":443208,"internal_node_id":"0.0-95.0","task_version":"battery-v0.1"},{"rune":"Q","hex":"#f73b6a7A","correct":32,"choice":32,"rt":450.2050000010058,"accuracy":1,"outcome":"-1","keys":[1950.539999998],"total_keys":1,"block":1,"trial":94,"robot":3,"valence":"lose","action":"go","sham":0,"trial_type":"pit-trial","trial_index":107,"time_elapsed":446378,"internal_node_id":"0.0-96.0","task_version":"battery-v0.1"},{"rune":"Z","hex":"#f73b6a7A","correct":32,"choice":32,"rt":423.84999999922,"accuracy":1,"outcome":"-1","keys":[1924.4249999974272],"total_keys":1,"block":1,"trial":95,"robot":3,"valence":"lose","action":"go","sham":0,"trial_type":"pit-trial","trial_index":108,"time_elapsed":449524,"internal_node_id":"0.0-97.0","task_version":"battery-v0.1"},{"rune":"D","hex":"#3366ff99","correct":-1,"choice":32,"rt":406.6099999981816,"accuracy":0,"outcome":"+1","keys":[1907.0950000023004],"total_keys":1,"block":1,"trial":96,"robot":2,"valence":"win","action":"no-go","sham":0,"trial_type":"pit-trial","trial_index":109,"time_elapsed":452650,"internal_node_id":"0.0-98.0","task_version":"battery-v0.1"},{"rune":"S","hex":"#f73b6a7A","correct":-1,"choice":-1,"rt":-1,"accuracy":1,"outcome":"-1","keys":[],"total_keys":0,"block":1,"trial":97,"robot":4,"valence":"lose","action":"no-go","sham":0,"trial_type":"pit-trial","trial_index":110,"time_elapsed":456672,"internal_node_id":"0.0-99.0","task_version":"battery-v0.1"},{"rune":"D","hex":"#3366ff99","correct":-1,"choice":32,"rt":366.1699999938719,"accuracy":0,"outcome":"+1","keys":[1866.7050000003655],"total_keys":1,"block":1,"trial":98,"robot":2,"valence":"win","action":"no-go","sham":0,"trial_type":"pit-trial","trial_index":111,"time_elapsed":459758,"internal_node_id":"0.0-100.0","task_version":"battery-v0.1"},{"rune":"Z","hex":"#f73b6a7A","correct":32,"choice":32,"rt":728.7799999976414,"accuracy":1,"outcome":"-1","keys":[2229.4499999989057],"total_keys":1,"block":1,"trial":99,"robot":3,"valence":"lose","action":"go","sham":0,"trial_type":"pit-trial","trial_index":112,"time_elapsed":463207,"internal_node_id":"0.0-101.0","task_version":"battery-v0.1"},{"rune":"Q","hex":"#f73b6a7A","correct":32,"choice":32,"rt":552.6150000005146,"accuracy":1,"outcome":"-10","keys":[2053.0349999971804],"total_keys":1,"block":1,"trial":100,"robot":3,"valence":"lose","action":"go","sham":1,"trial_type":"pit-trial","trial_index":113,"time_elapsed":466480,"internal_node_id":"0.0-102.0","task_version":"battery-v0.1"},{"rune":"D","hex":"#3366ff99","correct":-1,"choice":32,"rt":347.43999999773223,"accuracy":0,"outcome":"+10","keys":[1848.7900000036461],"total_keys":1,"block":1,"trial":101,"robot":2,"valence":"win","action":"no-go","sham":1,"trial_type":"pit-trial","trial_index":114,"time_elapsed":469548,"internal_node_id":"0.0-103.0","task_version":"battery-v0.1"},{"rune":"Q","hex":"#f73b6a7A","correct":32,"choice":32,"rt":607.9800000006799,"accuracy":1,"outcome":"-1","keys":[2108.3399999988615],"total_keys":1,"block":1,"trial":102,"robot":3,"valence":"lose","action":"go","sham":0,"trial_type":"pit-trial","trial_index":115,"time_elapsed":472874,"internal_node_id":"0.0-104.0","task_version":"battery-v0.1"},{"rune":"S","hex":"#f73b6a7A","correct":-1,"choice":-1,"rt":-1,"accuracy":1,"outcome":"-1","keys":[],"total_keys":0,"block":1,"trial":103,"robot":4,"valence":"lose","action":"no-go","sham":0,"trial_type":"pit-trial","trial_index":116,"time_elapsed":476896,"internal_node_id":"0.0-105.0","task_version":"battery-v0.1"},{"rune":"Z","hex":"#f73b6a7A","correct":32,"choice":32,"rt":680.8100000052946,"accuracy":1,"outcome":"-1","keys":[2181.7750000045635],"total_keys":1,"block":1,"trial":104,"robot":3,"valence":"lose","action":"go","sham":0,"trial_type":"pit-trial","trial_index":117,"time_elapsed":480298,"internal_node_id":"0.0-106.0","task_version":"battery-v0.1"},{"rune":"Z","hex":"#f73b6a7A","correct":32,"choice":32,"rt":624.6350000001257,"accuracy":1,"outcome":"-1","keys":[2125.195000000531],"total_keys":1,"block":1,"trial":105,"robot":3,"valence":"lose","action":"go","sham":0,"trial_type":"pit-trial","trial_index":118,"time_elapsed":483642,"internal_node_id":"0.0-107.0","task_version":"battery-v0.1"},{"rune":"D","hex":"#3366ff99","correct":-1,"choice":32,"rt":395.79500000400003,"accuracy":0,"outcome":"+1","keys":[1896.340000006603],"total_keys":1,"block":1,"trial":106,"robot":2,"valence":"win","action":"no-go","sham":0,"trial_type":"pit-trial","trial_index":119,"time_elapsed":486759,"internal_node_id":"0.0-108.0","task_version":"battery-v0.1"},{"rune":"S","hex":"#f73b6a7A","correct":-1,"choice":32,"rt":670.1549999997951,"accuracy":0,"outcome":"-10","keys":[2170.3699999998207],"total_keys":1,"block":1,"trial":107,"robot":4,"valence":"lose","action":"no-go","sham":0,"trial_type":"pit-trial","trial_index":120,"time_elapsed":490151,"internal_node_id":"0.0-109.0","task_version":"battery-v0.1"},{"rune":"Q","hex":"#f73b6a7A","correct":32,"choice":32,"rt":457.27500000066357,"accuracy":1,"outcome":"-10","keys":[1958.0150000037975],"total_keys":1,"block":1,"trial":108,"robot":3,"valence":"lose","action":"go","sham":1,"trial_type":"pit-trial","trial_index":121,"time_elapsed":493340,"internal_node_id":"0.0-110.0","task_version":"battery-v0.1"},{"rune":"D","hex":"#3366ff99","correct":-1,"choice":32,"rt":340.4499999960535,"accuracy":0,"outcome":"+1","keys":[1841.854999998759],"total_keys":1,"block":1,"trial":109,"robot":2,"valence":"win","action":"no-go","sham":0,"trial_type":"pit-trial","trial_index":122,"time_elapsed":496402,"internal_node_id":"0.0-111.0","task_version":"battery-v0.1"},{"rune":"S","hex":"#f73b6a7A","correct":-1,"choice":-1,"rt":-1,"accuracy":1,"outcome":"-1","keys":[],"total_keys":0,"block":1,"trial":110,"robot":4,"valence":"lose","action":"no-go","sham":0,"trial_type":"pit-trial","trial_index":123,"time_elapsed":500412,"internal_node_id":"0.0-112.0","task_version":"battery-v0.1"},{"rune":"Z","hex":"#f73b6a7A","correct":32,"choice":32,"rt":736.5649999992456,"accuracy":1,"outcome":"-1","keys":[2237.2449999966193],"total_keys":1,"block":1,"trial":111,"robot":3,"valence":"lose","action":"go","sham":0,"trial_type":"pit-trial","trial_index":124,"time_elapsed":503868,"internal_node_id":"0.0-113.0","task_version":"battery-v0.1"},{"rune":"Q","hex":"#f73b6a7A","correct":32,"choice":-1,"rt":-1,"accuracy":0,"outcome":"-10","keys":[],"total_keys":0,"block":1,"trial":112,"robot":3,"valence":"lose","action":"go","sham":0,"trial_type":"pit-trial","trial_index":125,"time_elapsed":507887,"internal_node_id":"0.0-114.0","task_version":"battery-v0.1"},{"rune":"S","hex":"#f73b6a7A","correct":-1,"choice":-1,"rt":-1,"accuracy":1,"outcome":"-10","keys":[],"total_keys":0,"block":1,"trial":113,"robot":4,"valence":"lose","action":"no-go","sham":1,"trial_type":"pit-trial","trial_index":126,"time_elapsed":511907,"internal_node_id":"0.0-115.0","task_version":"battery-v0.1"},{"rune":"Z","hex":"#f73b6a7A","correct":32,"choice":32,"rt":627.2349999999278,"accuracy":1,"outcome":"-1","keys":[2127.4999999950523],"total_keys":1,"block":1,"trial":114,"robot":3,"valence":"lose","action":"go","sham":0,"trial_type":"pit-trial","trial_index":127,"time_elapsed":515253,"internal_node_id":"0.0-116.0","task_version":"battery-v0.1"},{"rune":"Q","hex":"#f73b6a7A","correct":32,"choice":32,"rt":646.3000000003376,"accuracy":1,"outcome":"-1","keys":[2146.904999994149],"total_keys":1,"block":1,"trial":115,"robot":3,"valence":"lose","action":"go","sham":0,"trial_type":"pit-trial","trial_index":128,"time_elapsed":518620,"internal_node_id":"0.0-117.0","task_version":"battery-v0.1"},{"rune":"D","hex":"#3366ff99","correct":-1,"choice":32,"rt":354.8850000006496,"accuracy":0,"outcome":"+1","keys":[1855.4450000010547],"total_keys":1,"block":1,"trial":116,"robot":2,"valence":"win","action":"no-go","sham":0,"trial_type":"pit-trial","trial_index":129,"time_elapsed":521695,"internal_node_id":"0.0-118.0","task_version":"battery-v0.1"},{"rune":"Q","hex":"#f73b6a7A","correct":32,"choice":32,"rt":602.504999995348,"accuracy":1,"outcome":"-1","keys":[2102.834999997809],"total_keys":1,"block":1,"trial":117,"robot":3,"valence":"lose","action":"go","sham":0,"trial_type":"pit-trial","trial_index":130,"time_elapsed":525017,"internal_node_id":"0.0-119.0","task_version":"battery-v0.1"},{"rune":"Z","hex":"#f73b6a7A","correct":32,"choice":32,"rt":648.0499999960884,"accuracy":1,"outcome":"-1","keys":[2148.8349999999627],"total_keys":1,"block":1,"trial":118,"robot":3,"valence":"lose","action":"go","sham":0,"trial_type":"pit-trial","trial_index":131,"time_elapsed":528386,"internal_node_id":"0.0-120.0","task_version":"battery-v0.1"},{"rune":"D","hex":"#3366ff99","correct":-1,"choice":32,"rt":301.4249999978347,"accuracy":0,"outcome":"+1","keys":[1803.149999999674],"total_keys":1,"block":1,"trial":119,"robot":2,"valence":"win","action":"no-go","sham":0,"trial_type":"pit-trial","trial_index":132,"time_elapsed":531409,"internal_node_id":"0.0-121.0","task_version":"battery-v0.1"},{"rune":"S","hex":"#f73b6a7A","correct":-1,"choice":-1,"rt":-1,"accuracy":1,"outcome":"-1","keys":[],"total_keys":0,"block":1,"trial":120,"robot":4,"valence":"lose","action":"no-go","sham":0,"trial_type":"pit-trial","trial_index":133,"time_elapsed":535430,"internal_node_id":"0.0-122.0","task_version":"battery-v0.1"},{"view_history":"[{\"page_index\":0,\"viewing_time\":5041.850000001374},{\"page_index\":1,\"viewing_time\":2168.4500000047265}]","rt":7211.585000004503,"trial_type":"pit-instructions","trial_index":134,"time_elapsed":542659,"internal_node_id":"0.0-123.0","task_version":"battery-v0.1"},{"rune":"M","hex":"#3366ff99","correct":32,"choice":32,"rt":329.3649999978952,"accuracy":1,"outcome":"+10","keys":[1830.5900000049733],"total_keys":1,"block":2,"trial":121,"robot":1,"valence":"win","action":"go","sham":0,"trial_type":"pit-trial","trial_index":135,"time_elapsed":545722,"internal_node_id":"0.0-124.0","task_version":"battery-v0.1"},{"rune":"P","hex":"#f73b6a7A","correct":-1,"choice":32,"rt":780.4400000022724,"accuracy":0,"outcome":"-10","keys":[2281.1150000052294],"total_keys":1,"block":2,"trial":122,"robot":4,"valence":"lose","action":"no-go","sham":0,"trial_type":"pit-trial","trial_index":136,"time_elapsed":549223,"internal_node_id":"0.0-125.0","task_version":"battery-v0.1"},{"rune":"V","hex":"#f73b6a7A","correct":-1,"choice":32,"rt":1160.0400000023656,"accuracy":0,"outcome":"-10","keys":[2661.149999999907],"total_keys":1,"block":2,"trial":123,"robot":4,"valence":"lose","action":"no-go","sham":0,"trial_type":"pit-trial","trial_index":137,"time_elapsed":553104,"internal_node_id":"0.0-126.0","task_version":"battery-v0.1"},{"rune":"I","hex":"#3366ff99","correct":-1,"choice":32,"rt":381.18499999842606,"accuracy":0,"outcome":"+1","keys":[1882.194999998319],"total_keys":1,"block":2,"trial":124,"robot":2,"valence":"win","action":"no-go","sham":0,"trial_type":"pit-trial","trial_index":138,"time_elapsed":556205,"internal_node_id":"0.0-127.0","task_version":"battery-v0.1"},{"rune":"V","hex":"#f73b6a7A","correct":-1,"choice":-1,"rt":-1,"accuracy":1,"outcome":"-1","keys":[],"total_keys":0,"block":2,"trial":125,"robot":4,"valence":"lose","action":"no-go","sham":0,"trial_type":"pit-trial","trial_index":139,"time_elapsed":560214,"internal_node_id":"0.0-128.0","task_version":"battery-v0.1"},{"rune":"I","hex":"#3366ff99","correct":-1,"choice":32,"rt":430.61999999918044,"accuracy":0,"outcome":"+1","keys":[1931.5049999932526],"total_keys":1,"block":2,"trial":126,"robot":2,"valence":"win","action":"no-go","sham":0,"trial_type":"pit-trial","trial_index":140,"time_elapsed":563365,"internal_node_id":"0.0-129.0","task_version":"battery-v0.1"},{"rune":"P","hex":"#f73b6a7A","correct":-1,"choice":32,"rt":785.5299999937415,"accuracy":0,"outcome":"-10","keys":[2286.5600000005215],"total_keys":1,"block":2,"trial":127,"robot":4,"valence":"lose","action":"no-go","sham":0,"trial_type":"pit-trial","trial_index":141,"time_elapsed":566870,"internal_node_id":"0.0-130.0","task_version":"battery-v0.1"},{"rune":"M","hex":"#3366ff99","correct":32,"choice":32,"rt":321.785000000149,"accuracy":1,"outcome":"+10","keys":[1822.4799999952083],"total_keys":1,"block":2,"trial":128,"robot":1,"valence":"win","action":"go","sham":0,"trial_type":"pit-trial","trial_index":142,"time_elapsed":569900,"internal_node_id":"0.0-131.0","task_version":"battery-v0.1"},{"rune":"P","hex":"#f73b6a7A","correct":-1,"choice":-1,"rt":-1,"accuracy":1,"outcome":"-1","keys":[],"total_keys":0,"block":2,"trial":129,"robot":4,"valence":"lose","action":"no-go","sham":0,"trial_type":"pit-trial","trial_index":143,"time_elapsed":573918,"internal_node_id":"0.0-132.0","task_version":"battery-v0.1"},{"rune":"V","hex":"#f73b6a7A","correct":-1,"choice":-1,"rt":-1,"accuracy":1,"outcome":"-1","keys":[],"total_keys":0,"block":2,"trial":130,"robot":4,"valence":"lose","action":"no-go","sham":0,"trial_type":"pit-trial","trial_index":144,"time_elapsed":577939,"internal_node_id":"0.0-133.0","task_version":"battery-v0.1"},{"rune":"M","hex":"#3366ff99","correct":32,"choice":32,"rt":392.7499999990687,"accuracy":1,"outcome":"+1","keys":[1894.029999995837],"total_keys":1,"block":2,"trial":131,"robot":1,"valence":"win","action":"go","sham":1,"trial_type":"pit-trial","trial_index":145,"time_elapsed":581041,"internal_node_id":"0.0-134.0","task_version":"battery-v0.1"},{"rune":"I","hex":"#3366ff99","correct":-1,"choice":32,"rt":511.16499999619555,"accuracy":0,"outcome":"+1","keys":[2012.8050000057556],"total_keys":1,"block":2,"trial":132,"robot":2,"valence":"win","action":"no-go","sham":0,"trial_type":"pit-trial","trial_index":146,"time_elapsed":584262,"internal_node_id":"0.0-135.0","task_version":"battery-v0.1"},{"rune":"V","hex":"#f73b6a7A","correct":-1,"choice":-1,"rt":-1,"accuracy":1,"outcome":"-1","keys":[],"total_keys":0,"block":2,"trial":133,"robot":4,"valence":"lose","action":"no-go","sham":0,"trial_type":"pit-trial","trial_index":147,"time_elapsed":588276,"internal_node_id":"0.0-136.0","task_version":"battery-v0.1"},{"rune":"I","hex":"#3366ff99","correct":-1,"choice":32,"rt":291.1050000039395,"accuracy":0,"outcome":"+1","keys":[1792.874999999185],"total_keys":1,"block":2,"trial":134,"robot":2,"valence":"win","action":"no-go","sham":0,"trial_type":"pit-trial","trial_index":148,"time_elapsed":591289,"internal_node_id":"0.0-137.0","task_version":"battery-v0.1"},{"rune":"M","hex":"#3366ff99","correct":32,"choice":32,"rt":214.3599999982398,"accuracy":1,"outcome":"+10","keys":[1715.1450000018813],"total_keys":1,"block":2,"trial":135,"robot":1,"valence":"win","action":"go","sham":0,"trial_type":"pit-trial","trial_index":149,"time_elapsed":594224,"internal_node_id":"0.0-138.0","task_version":"battery-v0.1"},{"rune":"P","hex":"#f73b6a7A","correct":-1,"choice":-1,"rt":-1,"accuracy":1,"outcome":"-10","keys":[],"total_keys":0,"block":2,"trial":136,"robot":4,"valence":"lose","action":"no-go","sham":1,"trial_type":"pit-trial","trial_index":150,"time_elapsed":598246,"internal_node_id":"0.0-139.0","task_version":"battery-v0.1"},{"rune":"I","hex":"#3366ff99","correct":-1,"choice":32,"rt":269.30999999609776,"accuracy":0,"outcome":"+1","keys":[1770.4799999991665],"total_keys":1,"block":2,"trial":137,"robot":2,"valence":"win","action":"no-go","sham":0,"trial_type":"pit-trial","trial_index":151,"time_elapsed":601236,"internal_node_id":"0.0-140.0","task_version":"battery-v0.1"},{"rune":"P","hex":"#f73b6a7A","correct":-1,"choice":32,"rt":871.4800000016112,"accuracy":0,"outcome":"-1","keys":[2372.7450000005774],"total_keys":1,"block":2,"trial":138,"robot":4,"valence":"lose","action":"no-go","sham":1,"trial_type":"pit-trial","trial_index":152,"time_elapsed":604829,"internal_node_id":"0.0-141.0","task_version":"battery-v0.1"},{"rune":"V","hex":"#f73b6a7A","correct":-1,"choice":-1,"rt":-1,"accuracy":1,"outcome":"-10","keys":[],"total_keys":0,"block":2,"trial":139,"robot":4,"valence":"lose","action":"no-go","sham":1,"trial_type":"pit-trial","trial_index":153,"time_elapsed":608849,"internal_node_id":"0.0-142.0","task_version":"battery-v0.1"},{"rune":"M","hex":"#3366ff99","correct":32,"choice":32,"rt":457.6950000046054,"accuracy":1,"outcome":"+10","keys":[1958.4899999973131],"total_keys":1,"block":2,"trial":140,"robot":1,"valence":"win","action":"go","sham":0,"trial_type":"pit-trial","trial_index":154,"time_elapsed":612027,"internal_node_id":"0.0-143.0","task_version":"battery-v0.1"},{"rune":"I","hex":"#3366ff99","correct":-1,"choice":32,"rt":334.7199999988079,"accuracy":0,"outcome":"+1","keys":[1835.4450000042561],"total_keys":1,"block":2,"trial":141,"robot":2,"valence":"win","action":"no-go","sham":0,"trial_type":"pit-trial","trial_index":155,"time_elapsed":615083,"internal_node_id":"0.0-144.0","task_version":"battery-v0.1"},{"rune":"P","hex":"#f73b6a7A","correct":-1,"choice":32,"rt":554.5899999997346,"accuracy":0,"outcome":"-10","keys":[2055.0950000034645],"total_keys":1,"block":2,"trial":142,"robot":4,"valence":"lose","action":"no-go","sham":0,"trial_type":"pit-trial","trial_index":156,"time_elapsed":618359,"internal_node_id":"0.0-145.0","task_version":"battery-v0.1"},{"rune":"M","hex":"#3366ff99","correct":32,"choice":32,"rt":281.0849999950733,"accuracy":1,"outcome":"+10","keys":[1781.8699999988312],"total_keys":1,"block":2,"trial":143,"robot":1,"valence":"win","action":"go","sham":0,"trial_type":"pit-trial","trial_index":157,"time_elapsed":621361,"internal_node_id":"0.0-146.0","task_version":"battery-v0.1"},{"rune":"V","hex":"#f73b6a7A","correct":-1,"choice":-1,"rt":-1,"accuracy":1,"outcome":"-10","keys":[],"total_keys":0,"block":2,"trial":144,"robot":4,"valence":"lose","action":"no-go","sham":1,"trial_type":"pit-trial","trial_index":158,"time_elapsed":625379,"internal_node_id":"0.0-147.0","task_version":"battery-v0.1"},{"rune":"P","hex":"#f73b6a7A","correct":-1,"choice":32,"rt":438.2249999981141,"accuracy":0,"outcome":"-10","keys":[1940.0000000023283],"total_keys":1,"block":2,"trial":145,"robot":4,"valence":"lose","action":"no-go","sham":0,"trial_type":"pit-trial","trial_index":159,"time_elapsed":628538,"internal_node_id":"0.0-148.0","task_version":"battery-v0.1"},{"rune":"I","hex":"#3366ff99","correct":-1,"choice":32,"rt":226.35499999881722,"accuracy":0,"outcome":"+1","keys":[1727.2799999990966],"total_keys":1,"block":2,"trial":146,"robot":2,"valence":"win","action":"no-go","sham":0,"trial_type":"pit-trial","trial_index":160,"time_elapsed":631486,"internal_node_id":"0.0-149.0","task_version":"battery-v0.1"},{"rune":"V","hex":"#f73b6a7A","correct":-1,"choice":32,"rt":668.6899999985471,"accuracy":0,"outcome":"-10","keys":[2169.6450000016484],"total_keys":1,"block":2,"trial":147,"robot":4,"valence":"lose","action":"no-go","sham":0,"trial_type":"pit-trial","trial_index":161,"time_elapsed":634874,"internal_node_id":"0.0-150.0","task_version":"battery-v0.1"},{"rune":"M","hex":"#3366ff99","correct":32,"choice":32,"rt":431.4799999992829,"accuracy":1,"outcome":"+10","keys":[1932.5800000005402],"total_keys":1,"block":2,"trial":148,"robot":1,"valence":"win","action":"go","sham":0,"trial_type":"pit-trial","trial_index":162,"time_elapsed":638026,"internal_node_id":"0.0-151.0","task_version":"battery-v0.1"},{"rune":"V","hex":"#f73b6a7A","correct":-1,"choice":32,"rt":854.2300000045216,"accuracy":0,"outcome":"-1","keys":[2354.554999998072],"total_keys":1,"block":2,"trial":149,"robot":4,"valence":"lose","action":"no-go","sham":1,"trial_type":"pit-trial","trial_index":163,"time_elapsed":641601,"internal_node_id":"0.0-152.0","task_version":"battery-v0.1"},{"rune":"P","hex":"#f73b6a7A","correct":-1,"choice":32,"rt":422.5399999995716,"accuracy":0,"outcome":"-10","keys":[1923.7599999977974],"total_keys":1,"block":2,"trial":150,"robot":4,"valence":"lose","action":"no-go","sham":0,"trial_type":"pit-trial","trial_index":164,"time_elapsed":644745,"internal_node_id":"0.0-153.0","task_version":"battery-v0.1"},{"rune":"M","hex":"#3366ff99","correct":32,"choice":32,"rt":316.30500000040047,"accuracy":1,"outcome":"+10","keys":[1816.599999998347],"total_keys":1,"block":2,"trial":151,"robot":1,"valence":"win","action":"go","sham":0,"trial_type":"pit-trial","trial_index":165,"time_elapsed":647781,"internal_node_id":"0.0-154.0","task_version":"battery-v0.1"},{"rune":"I","hex":"#3366ff99","correct":-1,"choice":32,"rt":270.4950000043027,"accuracy":0,"outcome":"+1","keys":[1771.1650000056252],"total_keys":1,"block":2,"trial":152,"robot":2,"valence":"win","action":"no-go","sham":0,"trial_type":"pit-trial","trial_index":166,"time_elapsed":650771,"internal_node_id":"0.0-155.0","task_version":"battery-v0.1"},{"rune":"C","hex":"#f73b6a7A","correct":32,"choice":-1,"rt":-1,"accuracy":0,"outcome":"-10","keys":[],"total_keys":0,"block":2,"trial":153,"robot":3,"valence":"lose","action":"go","sham":0,"trial_type":"pit-trial","trial_index":167,"time_elapsed":654788,"internal_node_id":"0.0-156.0","task_version":"battery-v0.1"},{"rune":"P","hex":"#f73b6a7A","correct":-1,"choice":32,"rt":602.4300000062212,"accuracy":0,"outcome":"-10","keys":[2103.449999995064],"total_keys":1,"block":2,"trial":154,"robot":4,"valence":"lose","action":"no-go","sham":0,"trial_type":"pit-trial","trial_index":168,"time_elapsed":658100,"internal_node_id":"0.0-157.0","task_version":"battery-v0.1"},{"rune":"M","hex":"#3366ff99","correct":32,"choice":32,"rt":307.73999999661464,"accuracy":1,"outcome":"+10","keys":[1808.0149999951245],"total_keys":1,"block":2,"trial":155,"robot":1,"valence":"win","action":"go","sham":0,"trial_type":"pit-trial","trial_index":169,"time_elapsed":661120,"internal_node_id":"0.0-158.0","task_version":"battery-v0.1"},{"rune":"I","hex":"#3366ff99","correct":-1,"choice":32,"rt":213.5500000003958,"accuracy":0,"outcome":"+1","keys":[1714.5149999996647],"total_keys":1,"block":2,"trial":156,"robot":2,"valence":"win","action":"no-go","sham":0,"trial_type":"pit-trial","trial_index":170,"time_elapsed":664054,"internal_node_id":"0.0-159.0","task_version":"battery-v0.1"},{"rune":"C","hex":"#f73b6a7A","correct":32,"choice":-1,"rt":-1,"accuracy":0,"outcome":"-10","keys":[],"total_keys":0,"block":2,"trial":157,"robot":3,"valence":"lose","action":"go","sham":0,"trial_type":"pit-trial","trial_index":171,"time_elapsed":668070,"internal_node_id":"0.0-160.0","task_version":"battery-v0.1"},{"rune":"P","hex":"#f73b6a7A","correct":-1,"choice":-1,"rt":-1,"accuracy":1,"outcome":"-1","keys":[],"total_keys":0,"block":2,"trial":158,"robot":4,"valence":"lose","action":"no-go","sham":0,"trial_type":"pit-trial","trial_index":172,"time_elapsed":672088,"internal_node_id":"0.0-161.0","task_version":"battery-v0.1"},{"rune":"I","hex":"#3366ff99","correct":-1,"choice":32,"rt":342.6249999975553,"accuracy":0,"outcome":"+1","keys":[1843.2800000009593],"total_keys":1,"block":2,"trial":159,"robot":2,"valence":"win","action":"no-go","sham":0,"trial_type":"pit-trial","trial_index":173,"time_elapsed":675140,"internal_node_id":"0.0-162.0","task_version":"battery-v0.1"},{"rune":"M","hex":"#3366ff99","correct":32,"choice":32,"rt":346.80500000109896,"accuracy":1,"outcome":"+10","keys":[1847.284999996191],"total_keys":1,"block":2,"trial":160,"robot":1,"valence":"win","action":"go","sham":0,"trial_type":"pit-trial","trial_index":174,"time_elapsed":678206,"internal_node_id":"0.0-163.0","task_version":"battery-v0.1"},{"rune":"P","hex":"#f73b6a7A","correct":-1,"choice":-1,"rt":-1,"accuracy":1,"outcome":"-1","keys":[],"total_keys":0,"block":2,"trial":161,"robot":4,"valence":"lose","action":"no-go","sham":0,"trial_type":"pit-trial","trial_index":175,"time_elapsed":682226,"internal_node_id":"0.0-164.0","task_version":"battery-v0.1"},{"rune":"R","hex":"#3366ff99","correct":32,"choice":32,"rt":410.67499999923166,"accuracy":1,"outcome":"+10","keys":[1911.2649999951245],"total_keys":1,"block":2,"trial":162,"robot":1,"valence":"win","action":"go","sham":0,"trial_type":"pit-trial","trial_index":176,"time_elapsed":685357,"internal_node_id":"0.0-165.0","task_version":"battery-v0.1"},{"rune":"C","hex":"#f73b6a7A","correct":32,"choice":32,"rt":535.4200000001583,"accuracy":1,"outcome":"-1","keys":[2035.875000001397],"total_keys":1,"block":2,"trial":163,"robot":3,"valence":"lose","action":"go","sham":0,"trial_type":"pit-trial","trial_index":177,"time_elapsed":688615,"internal_node_id":"0.0-166.0","task_version":"battery-v0.1"},{"rune":"Y","hex":"#3366ff99","correct":-1,"choice":32,"rt":641.9999999998836,"accuracy":0,"outcome":"+1","keys":[2144.355000004056],"total_keys":1,"block":2,"trial":164,"robot":2,"valence":"win","action":"no-go","sham":0,"trial_type":"pit-trial","trial_index":178,"time_elapsed":691983,"internal_node_id":"0.0-167.0","task_version":"battery-v0.1"},{"rune":"R","hex":"#3366ff99","correct":32,"choice":32,"rt":371.86999999533873,"accuracy":1,"outcome":"+10","keys":[1872.1349999977974],"total_keys":1,"block":2,"trial":165,"robot":1,"valence":"win","action":"go","sham":0,"trial_type":"pit-trial","trial_index":179,"time_elapsed":695064,"internal_node_id":"0.0-168.0","task_version":"battery-v0.1"},{"rune":"Y","hex":"#3366ff99","correct":-1,"choice":32,"rt":237.49999999569263,"accuracy":0,"outcome":"+1","keys":[1738.7899999957299],"total_keys":1,"block":2,"trial":166,"robot":2,"valence":"win","action":"no-go","sham":0,"trial_type":"pit-trial","trial_index":180,"time_elapsed":698012,"internal_node_id":"0.0-169.0","task_version":"battery-v0.1"},{"rune":"C","hex":"#f73b6a7A","correct":32,"choice":32,"rt":583.945000005886,"accuracy":1,"outcome":"-1","keys":[2084.855000001029],"total_keys":1,"block":2,"trial":167,"robot":3,"valence":"lose","action":"go","sham":0,"trial_type":"pit-trial","trial_index":181,"time_elapsed":701316,"internal_node_id":"0.0-170.0","task_version":"battery-v0.1"},{"rune":"P","hex":"#f73b6a7A","correct":-1,"choice":-1,"rt":-1,"accuracy":1,"outcome":"-1","keys":[],"total_keys":0,"block":2,"trial":168,"robot":4,"valence":"lose","action":"no-go","sham":0,"trial_type":"pit-trial","trial_index":182,"time_elapsed":705336,"internal_node_id":"0.0-171.0","task_version":"battery-v0.1"},{"rune":"X","hex":"#f73b6a7A","correct":-1,"choice":-1,"rt":-1,"accuracy":1,"outcome":"-1","keys":[2828.0149999990826],"total_keys":1,"block":2,"trial":169,"robot":4,"valence":"lose","action":"no-go","sham":0,"trial_type":"pit-trial","trial_index":183,"time_elapsed":709357,"internal_node_id":"0.0-172.0","task_version":"battery-v0.1"},{"rune":"Y","hex":"#3366ff99","correct":-1,"choice":32,"rt":328.9599999990314,"accuracy":0,"outcome":"+1","keys":[1829.2599999986123],"total_keys":1,"block":2,"trial":170,"robot":2,"valence":"win","action":"no-go","sham":0,"trial_type":"pit-trial","trial_index":184,"time_elapsed":712406,"internal_node_id":"0.0-173.0","task_version":"battery-v0.1"},{"rune":"C","hex":"#f73b6a7A","correct":32,"choice":32,"rt":462.83499999844935,"accuracy":1,"outcome":"-1","keys":[1963.2549999949988],"total_keys":1,"block":2,"trial":171,"robot":3,"valence":"lose","action":"go","sham":0,"trial_type":"pit-trial","trial_index":185,"time_elapsed":715590,"internal_node_id":"0.0-174.0","task_version":"battery-v0.1"},{"rune":"R","hex":"#3366ff99","correct":32,"choice":32,"rt":328.93999999936204,"accuracy":1,"outcome":"+10","keys":[1830.7199999981094],"total_keys":1,"block":2,"trial":172,"robot":1,"valence":"win","action":"go","sham":0,"trial_type":"pit-trial","trial_index":186,"time_elapsed":718639,"internal_node_id":"0.0-175.0","task_version":"battery-v0.1"},{"rune":"C","hex":"#f73b6a7A","correct":32,"choice":32,"rt":392.18999999866355,"accuracy":1,"outcome":"-10","keys":[1892.5749999980908],"total_keys":1,"block":2,"trial":173,"robot":3,"valence":"lose","action":"go","sham":1,"trial_type":"pit-trial","trial_index":187,"time_elapsed":721751,"internal_node_id":"0.0-176.0","task_version":"battery-v0.1"},{"rune":"R","hex":"#3366ff99","correct":32,"choice":32,"rt":269.4400000036694,"accuracy":1,"outcome":"+10","keys":[1769.4850000042934],"total_keys":1,"block":2,"trial":174,"robot":1,"valence":"win","action":"go","sham":0,"trial_type":"pit-trial","trial_index":188,"time_elapsed":724740,"internal_node_id":"0.0-177.0","task_version":"battery-v0.1"},{"rune":"X","hex":"#f73b6a7A","correct":-1,"choice":32,"rt":749.3600000016158,"accuracy":0,"outcome":"-10","keys":[2249.5300000009593],"total_keys":1,"block":2,"trial":175,"robot":4,"valence":"lose","action":"no-go","sham":0,"trial_type":"pit-trial","trial_index":189,"time_elapsed":728203,"internal_node_id":"0.0-178.0","task_version":"battery-v0.1"},{"rune":"Y","hex":"#3366ff99","correct":-1,"choice":32,"rt":279.77000000094995,"accuracy":0,"outcome":"+1","keys":[1780.63999999722],"total_keys":1,"block":2,"trial":176,"robot":2,"valence":"win","action":"no-go","sham":0,"trial_type":"pit-trial","trial_index":190,"time_elapsed":731191,"internal_node_id":"0.0-179.0","task_version":"battery-v0.1"},{"rune":"C","hex":"#f73b6a7A","correct":32,"choice":32,"rt":421.45999999763444,"accuracy":1,"outcome":"-1","keys":[1922.3049999999348],"total_keys":1,"block":2,"trial":177,"robot":3,"valence":"lose","action":"go","sham":0,"trial_type":"pit-trial","trial_index":191,"time_elapsed":734323,"internal_node_id":"0.0-180.0","task_version":"battery-v0.1"},{"rune":"X","hex":"#f73b6a7A","correct":-1,"choice":32,"rt":673.7199999989243,"accuracy":0,"outcome":"-10","keys":[2175.585000004503],"total_keys":1,"block":2,"trial":178,"robot":4,"valence":"lose","action":"no-go","sham":0,"trial_type":"pit-trial","trial_index":192,"time_elapsed":737718,"internal_node_id":"0.0-181.0","task_version":"battery-v0.1"},{"rune":"R","hex":"#3366ff99","correct":32,"choice":32,"rt":223.47499999892898,"accuracy":1,"outcome":"+10","keys":[1723.6000000047497],"total_keys":1,"block":2,"trial":179,"robot":1,"valence":"win","action":"go","sham":0,"trial_type":"pit-trial","trial_index":193,"time_elapsed":740661,"internal_node_id":"0.0-182.0","task_version":"battery-v0.1"},{"rune":"Y","hex":"#3366ff99","correct":-1,"choice":32,"rt":388.07500000251457,"accuracy":0,"outcome":"+1","keys":[1888.2749999974621],"total_keys":1,"block":2,"trial":180,"robot":2,"valence":"win","action":"no-go","sham":0,"trial_type":"pit-trial","trial_index":194,"time_elapsed":743769,"internal_node_id":"0.0-183.0","task_version":"battery-v0.1"},{"rune":"Y","hex":"#3366ff99","correct":-1,"choice":32,"rt":290.9350000045961,"accuracy":0,"outcome":"+1","keys":[1791.4750000054482],"total_keys":1,"block":2,"trial":181,"robot":2,"valence":"win","action":"no-go","sham":0,"trial_type":"pit-trial","trial_index":195,"time_elapsed":746770,"internal_node_id":"0.0-184.0","task_version":"battery-v0.1"},{"rune":"R","hex":"#3366ff99","correct":32,"choice":32,"rt":330.280000002007,"accuracy":1,"outcome":"+1","keys":[1830.8200000028592],"total_keys":1,"block":2,"trial":182,"robot":1,"valence":"win","action":"go","sham":1,"trial_type":"pit-trial","trial_index":196,"time_elapsed":749816,"internal_node_id":"0.0-185.0","task_version":"battery-v0.1"},{"rune":"C","hex":"#f73b6a7A","correct":32,"choice":32,"rt":698.7250000019558,"accuracy":1,"outcome":"-1","keys":[2199.655000003986],"total_keys":1,"block":2,"trial":183,"robot":3,"valence":"lose","action":"go","sham":0,"trial_type":"pit-trial","trial_index":197,"time_elapsed":753225,"internal_node_id":"0.0-186.0","task_version":"battery-v0.1"},{"rune":"X","hex":"#f73b6a7A","correct":-1,"choice":-1,"rt":-1,"accuracy":1,"outcome":"-1","keys":[],"total_keys":0,"block":2,"trial":184,"robot":4,"valence":"lose","action":"no-go","sham":0,"trial_type":"pit-trial","trial_index":198,"time_elapsed":757246,"internal_node_id":"0.0-187.0","task_version":"battery-v0.1"},{"rune":"Y","hex":"#3366ff99","correct":-1,"choice":32,"rt":223.64000000373926,"accuracy":0,"outcome":"+1","keys":[1724.0450000027195],"total_keys":1,"block":2,"trial":185,"robot":2,"valence":"win","action":"no-go","sham":0,"trial_type":"pit-trial","trial_index":199,"time_elapsed":760190,"internal_node_id":"0.0-188.0","task_version":"battery-v0.1"},{"rune":"C","hex":"#f73b6a7A","correct":32,"choice":32,"rt":804.4549999977462,"accuracy":1,"outcome":"-1","keys":[2305.089999994263],"total_keys":1,"block":2,"trial":186,"robot":3,"valence":"lose","action":"go","sham":0,"trial_type":"pit-trial","trial_index":200,"time_elapsed":763714,"internal_node_id":"0.0-189.0","task_version":"battery-v0.1"},{"rune":"R","hex":"#3366ff99","correct":32,"choice":32,"rt":219.36500000441447,"accuracy":1,"outcome":"+1","keys":[1719.7799999995623],"total_keys":1,"block":2,"trial":187,"robot":1,"valence":"win","action":"go","sham":1,"trial_type":"pit-trial","trial_index":201,"time_elapsed":766653,"internal_node_id":"0.0-190.0","task_version":"battery-v0.1"},{"rune":"X","hex":"#f73b6a7A","correct":-1,"choice":-1,"rt":-1,"accuracy":1,"outcome":"-1","keys":[],"total_keys":0,"block":2,"trial":188,"robot":4,"valence":"lose","action":"no-go","sham":0,"trial_type":"pit-trial","trial_index":202,"time_elapsed":770674,"internal_node_id":"0.0-191.0","task_version":"battery-v0.1"},{"rune":"R","hex":"#3366ff99","correct":32,"choice":32,"rt":367.259999999078,"accuracy":1,"outcome":"+10","keys":[1867.4449999962235],"total_keys":1,"block":2,"trial":189,"robot":1,"valence":"win","action":"go","sham":0,"trial_type":"pit-trial","trial_index":203,"time_elapsed":773761,"internal_node_id":"0.0-192.0","task_version":"battery-v0.1"},{"rune":"C","hex":"#f73b6a7A","correct":32,"choice":32,"rt":742.1299999987241,"accuracy":1,"outcome":"-1","keys":[2242.745000003255],"total_keys":1,"block":2,"trial":190,"robot":3,"valence":"lose","action":"go","sham":0,"trial_type":"pit-trial","trial_index":204,"time_elapsed":777223,"internal_node_id":"0.0-193.0","task_version":"battery-v0.1"},{"rune":"X","hex":"#f73b6a7A","correct":-1,"choice":-1,"rt":-1,"accuracy":1,"outcome":"-1","keys":[],"total_keys":0,"block":2,"trial":191,"robot":4,"valence":"lose","action":"no-go","sham":0,"trial_type":"pit-trial","trial_index":205,"time_elapsed":781243,"internal_node_id":"0.0-194.0","task_version":"battery-v0.1"},{"rune":"Y","hex":"#3366ff99","correct":-1,"choice":32,"rt":232.66000000142958,"accuracy":0,"outcome":"+1","keys":[1733.9550000033341],"total_keys":1,"block":2,"trial":192,"robot":2,"valence":"win","action":"no-go","sham":0,"trial_type":"pit-trial","trial_index":206,"time_elapsed":784198,"internal_node_id":"0.0-195.0","task_version":"battery-v0.1"},{"rune":"Y","hex":"#3366ff99","correct":-1,"choice":32,"rt":227.7600000015227,"accuracy":0,"outcome":"+10","keys":[1728.7900000009686],"total_keys":1,"block":2,"trial":193,"robot":2,"valence":"win","action":"no-go","sham":1,"trial_type":"pit-trial","trial_index":207,"time_elapsed":787146,"internal_node_id":"0.0-196.0","task_version":"battery-v0.1"},{"rune":"X","hex":"#f73b6a7A","correct":-1,"choice":-1,"rt":-1,"accuracy":1,"outcome":"-1","keys":[],"total_keys":0,"block":2,"trial":194,"robot":4,"valence":"lose","action":"no-go","sham":0,"trial_type":"pit-trial","trial_index":208,"time_elapsed":791165,"internal_node_id":"0.0-197.0","task_version":"battery-v0.1"},{"rune":"E","hex":"#f73b6a7A","correct":32,"choice":32,"rt":1001.3600000019651,"accuracy":1,"outcome":"-10","keys":[2502.5700000041397],"total_keys":1,"block":2,"trial":195,"robot":3,"valence":"lose","action":"go","sham":1,"trial_type":"pit-trial","trial_index":209,"time_elapsed":794881,"internal_node_id":"0.0-198.0","task_version":"battery-v0.1"},{"rune":"L","hex":"#3366ff99","correct":32,"choice":32,"rt":278.9850000044098,"accuracy":1,"outcome":"+10","keys":[1779.4699999940349],"total_keys":1,"block":2,"trial":196,"robot":1,"valence":"win","action":"go","sham":0,"trial_type":"pit-trial","trial_index":210,"time_elapsed":797878,"internal_node_id":"0.0-199.0","task_version":"battery-v0.1"},{"rune":"E","hex":"#f73b6a7A","correct":32,"choice":-1,"rt":-1,"accuracy":0,"outcome":"-10","keys":[],"total_keys":0,"block":2,"trial":197,"robot":3,"valence":"lose","action":"go","sham":0,"trial_type":"pit-trial","trial_index":211,"time_elapsed":801897,"internal_node_id":"0.0-200.0","task_version":"battery-v0.1"},{"rune":"X","hex":"#f73b6a7A","correct":-1,"choice":-1,"rt":-1,"accuracy":1,"outcome":"-1","keys":[],"total_keys":0,"block":2,"trial":198,"robot":4,"valence":"lose","action":"no-go","sham":0,"trial_type":"pit-trial","trial_index":212,"time_elapsed":805907,"internal_node_id":"0.0-201.0","task_version":"battery-v0.1"},{"rune":"Y","hex":"#3366ff99","correct":-1,"choice":32,"rt":313.17999999737367,"accuracy":0,"outcome":"+1","keys":[1813.8899999975692],"total_keys":1,"block":2,"trial":199,"robot":2,"valence":"win","action":"no-go","sham":0,"trial_type":"pit-trial","trial_index":213,"time_elapsed":808940,"internal_node_id":"0.0-202.0","task_version":"battery-v0.1"},{"rune":"L","hex":"#3366ff99","correct":32,"choice":32,"rt":218.55000000505242,"accuracy":1,"outcome":"+10","keys":[1718.7450000055833],"total_keys":1,"block":2,"trial":200,"robot":1,"valence":"win","action":"go","sham":0,"trial_type":"pit-trial","trial_index":214,"time_elapsed":811878,"internal_node_id":"0.0-203.0","task_version":"battery-v0.1"},{"rune":"Y","hex":"#3366ff99","correct":-1,"choice":32,"rt":401.4649999953108,"accuracy":0,"outcome":"+1","keys":[1901.8649999997579],"total_keys":1,"block":2,"trial":201,"robot":2,"valence":"win","action":"no-go","sham":0,"trial_type":"pit-trial","trial_index":215,"time_elapsed":815000,"internal_node_id":"0.0-204.0","task_version":"battery-v0.1"},{"rune":"X","hex":"#f73b6a7A","correct":-1,"choice":-1,"rt":-1,"accuracy":1,"outcome":"-1","keys":[],"total_keys":0,"block":2,"trial":202,"robot":4,"valence":"lose","action":"no-go","sham":0,"trial_type":"pit-trial","trial_index":216,"time_elapsed":819020,"internal_node_id":"0.0-205.0","task_version":"battery-v0.1"},{"rune":"E","hex":"#f73b6a7A","correct":32,"choice":-1,"rt":-1,"accuracy":0,"outcome":"-10","keys":[],"total_keys":0,"block":2,"trial":203,"robot":3,"valence":"lose","action":"go","sham":0,"trial_type":"pit-trial","trial_index":217,"time_elapsed":823041,"internal_node_id":"0.0-206.0","task_version":"battery-v0.1"},{"rune":"L","hex":"#3366ff99","correct":32,"choice":32,"rt":287.09499999973923,"accuracy":1,"outcome":"+10","keys":[1787.3049999979557],"total_keys":1,"block":2,"trial":204,"robot":1,"valence":"win","action":"go","sham":0,"trial_type":"pit-trial","trial_index":218,"time_elapsed":826048,"internal_node_id":"0.0-207.0","task_version":"battery-v0.1"},{"rune":"X","hex":"#f73b6a7A","correct":-1,"choice":-1,"rt":-1,"accuracy":1,"outcome":"-1","keys":[],"total_keys":0,"block":2,"trial":205,"robot":4,"valence":"lose","action":"no-go","sham":0,"trial_type":"pit-trial","trial_index":219,"time_elapsed":830068,"internal_node_id":"0.0-208.0","task_version":"battery-v0.1"},{"rune":"L","hex":"#3366ff99","correct":32,"choice":32,"rt":295.70999999844935,"accuracy":1,"outcome":"+10","keys":[1795.9249999985332],"total_keys":1,"block":2,"trial":206,"robot":1,"valence":"win","action":"go","sham":0,"trial_type":"pit-trial","trial_index":220,"time_elapsed":833083,"internal_node_id":"0.0-209.0","task_version":"battery-v0.1"},{"rune":"Y","hex":"#3366ff99","correct":-1,"choice":32,"rt":289.30500000563916,"accuracy":0,"outcome":"+1","keys":[1790.2350000003353],"total_keys":1,"block":2,"trial":207,"robot":2,"valence":"win","action":"no-go","sham":0,"trial_type":"pit-trial","trial_index":221,"time_elapsed":836093,"internal_node_id":"0.0-210.0","task_version":"battery-v0.1"},{"rune":"E","hex":"#f73b6a7A","correct":32,"choice":-1,"rt":-1,"accuracy":0,"outcome":"-10","keys":[],"total_keys":0,"block":2,"trial":208,"robot":3,"valence":"lose","action":"go","sham":0,"trial_type":"pit-trial","trial_index":222,"time_elapsed":840113,"internal_node_id":"0.0-211.0","task_version":"battery-v0.1"},{"rune":"G","hex":"#f73b6a7A","correct":32,"choice":-1,"rt":-1,"accuracy":0,"outcome":"-10","keys":[],"total_keys":0,"block":2,"trial":209,"robot":3,"valence":"lose","action":"go","sham":0,"trial_type":"pit-trial","trial_index":223,"time_elapsed":844132,"internal_node_id":"0.0-212.0","task_version":"battery-v0.1"},{"rune":"K","hex":"#3366ff99","correct":-1,"choice":32,"rt":248.00500000128523,"accuracy":0,"outcome":"+1","keys":[1749.6850000025006],"total_keys":1,"block":2,"trial":210,"robot":2,"valence":"win","action":"no-go","sham":0,"trial_type":"pit-trial","trial_index":224,"time_elapsed":847102,"internal_node_id":"0.0-213.0","task_version":"battery-v0.1"},{"rune":"L","hex":"#3366ff99","correct":32,"choice":32,"rt":262.73499999661,"accuracy":1,"outcome":"+10","keys":[1762.8499999991618],"total_keys":1,"block":2,"trial":211,"robot":1,"valence":"win","action":"go","sham":0,"trial_type":"pit-trial","trial_index":225,"time_elapsed":850084,"internal_node_id":"0.0-214.0","task_version":"battery-v0.1"},{"rune":"E","hex":"#f73b6a7A","correct":32,"choice":-1,"rt":-1,"accuracy":0,"outcome":"-10","keys":[],"total_keys":0,"block":2,"trial":212,"robot":3,"valence":"lose","action":"go","sham":0,"trial_type":"pit-trial","trial_index":226,"time_elapsed":854105,"internal_node_id":"0.0-215.0","task_version":"battery-v0.1"},{"rune":"E","hex":"#f73b6a7A","correct":32,"choice":32,"rt":569.0350000004983,"accuracy":1,"outcome":"-1","keys":[2069.935000006808],"total_keys":1,"block":2,"trial":213,"robot":3,"valence":"lose","action":"go","sham":0,"trial_type":"pit-trial","trial_index":227,"time_elapsed":857391,"internal_node_id":"0.0-216.0","task_version":"battery-v0.1"},{"rune":"G","hex":"#f73b6a7A","correct":32,"choice":32,"rt":790.0100000042003,"accuracy":1,"outcome":"-10","keys":[2291.6150000018533],"total_keys":1,"block":2,"trial":214,"robot":3,"valence":"lose","action":"go","sham":1,"trial_type":"pit-trial","trial_index":228,"time_elapsed":860894,"internal_node_id":"0.0-217.0","task_version":"battery-v0.1"},{"rune":"K","hex":"#3366ff99","correct":-1,"choice":32,"rt":259.8549999964889,"accuracy":0,"outcome":"+1","keys":[1760.6099999975413],"total_keys":1,"block":2,"trial":215,"robot":2,"valence":"win","action":"no-go","sham":0,"trial_type":"pit-trial","trial_index":229,"time_elapsed":863874,"internal_node_id":"0.0-218.0","task_version":"battery-v0.1"},{"rune":"L","hex":"#3366ff99","correct":32,"choice":32,"rt":263.39000000001397,"accuracy":1,"outcome":"+10","keys":[1763.6199999977835],"total_keys":1,"block":2,"trial":216,"robot":1,"valence":"win","action":"go","sham":0,"trial_type":"pit-trial","trial_index":230,"time_elapsed":866857,"internal_node_id":"0.0-219.0","task_version":"battery-v0.1"},{"rune":"L","hex":"#3366ff99","correct":32,"choice":32,"rt":201.20999999926426,"accuracy":1,"outcome":"+10","keys":[1703.0099999974482],"total_keys":1,"block":2,"trial":217,"robot":1,"valence":"win","action":"go","sham":0,"trial_type":"pit-trial","trial_index":231,"time_elapsed":869780,"internal_node_id":"0.0-220.0","task_version":"battery-v0.1"},{"rune":"K","hex":"#3366ff99","correct":-1,"choice":32,"rt":276.4899999964982,"accuracy":0,"outcome":"+1","keys":[1777.444999999716],"total_keys":1,"block":2,"trial":218,"robot":2,"valence":"win","action":"no-go","sham":0,"trial_type":"pit-trial","trial_index":232,"time_elapsed":872778,"internal_node_id":"0.0-221.0","task_version":"battery-v0.1"},{"rune":"G","hex":"#f73b6a7A","correct":32,"choice":-1,"rt":-1,"accuracy":0,"outcome":"-10","keys":[],"total_keys":0,"block":2,"trial":219,"robot":3,"valence":"lose","action":"go","sham":0,"trial_type":"pit-trial","trial_index":233,"time_elapsed":876797,"internal_node_id":"0.0-222.0","task_version":"battery-v0.1"},{"rune":"E","hex":"#f73b6a7A","correct":32,"choice":-1,"rt":-1,"accuracy":0,"outcome":"-1","keys":[],"total_keys":0,"block":2,"trial":220,"robot":3,"valence":"lose","action":"go","sham":1,"trial_type":"pit-trial","trial_index":234,"time_elapsed":880810,"internal_node_id":"0.0-223.0","task_version":"battery-v0.1"},{"rune":"L","hex":"#3366ff99","correct":32,"choice":32,"rt":313.2149999947287,"accuracy":1,"outcome":"+10","keys":[1813.6949999970384],"total_keys":1,"block":2,"trial":221,"robot":1,"valence":"win","action":"go","sham":0,"trial_type":"pit-trial","trial_index":235,"time_elapsed":883845,"internal_node_id":"0.0-224.0","task_version":"battery-v0.1"},{"rune":"G","hex":"#f73b6a7A","correct":32,"choice":32,"rt":310.0399999966612,"accuracy":1,"outcome":"-1","keys":[1810.8350000038045],"total_keys":1,"block":2,"trial":222,"robot":3,"valence":"lose","action":"go","sham":0,"trial_type":"pit-trial","trial_index":236,"time_elapsed":886875,"internal_node_id":"0.0-225.0","task_version":"battery-v0.1"},{"rune":"K","hex":"#3366ff99","correct":-1,"choice":32,"rt":314.28500000038184,"accuracy":0,"outcome":"+1","keys":[1815.8200000035577],"total_keys":1,"block":2,"trial":223,"robot":2,"valence":"win","action":"no-go","sham":0,"trial_type":"pit-trial","trial_index":237,"time_elapsed":889910,"internal_node_id":"0.0-226.0","task_version":"battery-v0.1"},{"rune":"E","hex":"#f73b6a7A","correct":32,"choice":-1,"rt":-1,"accuracy":0,"outcome":"-10","keys":[],"total_keys":0,"block":2,"trial":224,"robot":3,"valence":"lose","action":"go","sham":0,"trial_type":"pit-trial","trial_index":238,"time_elapsed":893929,"internal_node_id":"0.0-227.0","task_version":"battery-v0.1"},{"rune":"G","hex":"#f73b6a7A","correct":32,"choice":32,"rt":444.1300000034971,"accuracy":1,"outcome":"-1","keys":[1945.3150000044843],"total_keys":1,"block":2,"trial":225,"robot":3,"valence":"lose","action":"go","sham":0,"trial_type":"pit-trial","trial_index":239,"time_elapsed":897082,"internal_node_id":"0.0-228.0","task_version":"battery-v0.1"},{"rune":"E","hex":"#f73b6a7A","correct":32,"choice":32,"rt":449.1599999964237,"accuracy":1,"outcome":"-1","keys":[1949.3700000020908],"total_keys":1,"block":2,"trial":226,"robot":3,"valence":"lose","action":"go","sham":0,"trial_type":"pit-trial","trial_index":240,"time_elapsed":900251,"internal_node_id":"0.0-229.0","task_version":"battery-v0.1"},{"rune":"L","hex":"#3366ff99","correct":32,"choice":32,"rt":263.2299999969546,"accuracy":1,"outcome":"+10","keys":[1763.7749999994412],"total_keys":1,"block":2,"trial":227,"robot":1,"valence":"win","action":"go","sham":0,"trial_type":"pit-trial","trial_index":241,"time_elapsed":903228,"internal_node_id":"0.0-230.0","task_version":"battery-v0.1"},{"rune":"K","hex":"#3366ff99","correct":-1,"choice":32,"rt":293.99499999999534,"accuracy":0,"outcome":"+1","keys":[1795.7549999991897],"total_keys":1,"block":2,"trial":228,"robot":2,"valence":"win","action":"no-go","sham":0,"trial_type":"pit-trial","trial_index":242,"time_elapsed":906243,"internal_node_id":"0.0-231.0","task_version":"battery-v0.1"},{"rune":"K","hex":"#3366ff99","correct":-1,"choice":32,"rt":243.7800000043353,"accuracy":0,"outcome":"+1","keys":[1745.0250000037486],"total_keys":1,"block":2,"trial":229,"robot":2,"valence":"win","action":"no-go","sham":0,"trial_type":"pit-trial","trial_index":243,"time_elapsed":909198,"internal_node_id":"0.0-232.0","task_version":"battery-v0.1"},{"rune":"L","hex":"#3366ff99","correct":32,"choice":32,"rt":253.54499999957625,"accuracy":1,"outcome":"+10","keys":[1754.2749999993248],"total_keys":1,"block":2,"trial":230,"robot":1,"valence":"win","action":"go","sham":0,"trial_type":"pit-trial","trial_index":244,"time_elapsed":912171,"internal_node_id":"0.0-233.0","task_version":"battery-v0.1"},{"rune":"E","hex":"#f73b6a7A","correct":32,"choice":32,"rt":1091.2649999954738,"accuracy":1,"outcome":"-1","keys":[2591.6749999960884],"total_keys":1,"block":2,"trial":231,"robot":3,"valence":"lose","action":"go","sham":0,"trial_type":"pit-trial","trial_index":245,"time_elapsed":915983,"internal_node_id":"0.0-234.0","task_version":"battery-v0.1"},{"rune":"G","hex":"#f73b6a7A","correct":32,"choice":32,"rt":562.8949999955948,"accuracy":1,"outcome":"-10","keys":[2063.849999998696],"total_keys":1,"block":2,"trial":232,"robot":3,"valence":"lose","action":"go","sham":1,"trial_type":"pit-trial","trial_index":246,"time_elapsed":919266,"internal_node_id":"0.0-235.0","task_version":"battery-v0.1"},{"rune":"G","hex":"#f73b6a7A","correct":32,"choice":32,"rt":624.5649999983143,"accuracy":1,"outcome":"-10","keys":[2125.079999997979],"total_keys":1,"block":2,"trial":233,"robot":3,"valence":"lose","action":"go","sham":1,"trial_type":"pit-trial","trial_index":247,"time_elapsed":922611,"internal_node_id":"0.0-236.0","task_version":"battery-v0.1"},{"rune":"L","hex":"#3366ff99","correct":32,"choice":32,"rt":279.435000004014,"accuracy":1,"outcome":"+10","keys":[1779.674999997951],"total_keys":1,"block":2,"trial":234,"robot":1,"valence":"win","action":"go","sham":0,"trial_type":"pit-trial","trial_index":248,"time_elapsed":925610,"internal_node_id":"0.0-237.0","task_version":"battery-v0.1"},{"rune":"K","hex":"#3366ff99","correct":-1,"choice":32,"rt":254.849999997532,"accuracy":0,"outcome":"+1","keys":[1754.5649999957532],"total_keys":1,"block":2,"trial":235,"robot":2,"valence":"win","action":"no-go","sham":0,"trial_type":"pit-trial","trial_index":249,"time_elapsed":928585,"internal_node_id":"0.0-238.0","task_version":"battery-v0.1"},{"rune":"E","hex":"#f73b6a7A","correct":32,"choice":-1,"rt":-1,"accuracy":0,"outcome":"-10","keys":[],"total_keys":0,"block":2,"trial":236,"robot":3,"valence":"lose","action":"go","sham":0,"trial_type":"pit-trial","trial_index":250,"time_elapsed":932605,"internal_node_id":"0.0-239.0","task_version":"battery-v0.1"},{"rune":"G","hex":"#f73b6a7A","correct":32,"choice":-1,"rt":-1,"accuracy":0,"outcome":"-10","keys":[],"total_keys":0,"block":2,"trial":237,"robot":3,"valence":"lose","action":"go","sham":0,"trial_type":"pit-trial","trial_index":251,"time_elapsed":936625,"internal_node_id":"0.0-240.0","task_version":"battery-v0.1"},{"rune":"L","hex":"#3366ff99","correct":32,"choice":32,"rt":178.2600000005914,"accuracy":1,"outcome":"+10","keys":[1679.0499999988824],"total_keys":1,"block":2,"trial":238,"robot":1,"valence":"win","action":"go","sham":0,"trial_type":"pit-trial","trial_index":252,"time_elapsed":939527,"internal_node_id":"0.0-241.0","task_version":"battery-v0.1"},{"rune":"E","hex":"#f73b6a7A","correct":32,"choice":-1,"rt":-1,"accuracy":0,"outcome":"-10","keys":[],"total_keys":0,"block":2,"trial":239,"robot":3,"valence":"lose","action":"go","sham":0,"trial_type":"pit-trial","trial_index":253,"time_elapsed":943547,"internal_node_id":"0.0-242.0","task_version":"battery-v0.1"},{"rune":"K","hex":"#3366ff99","correct":-1,"choice":32,"rt":603.3800000005867,"accuracy":0,"outcome":"+1","keys":[2103.705000001355],"total_keys":1,"block":2,"trial":240,"robot":2,"valence":"win","action":"no-go","sham":0,"trial_type":"pit-trial","trial_index":254,"time_elapsed":946870,"internal_node_id":"0.0-243.0","task_version":"battery-v0.1"},{"view_history":"[{\"page_index\":0,\"viewing_time\":1799.2749999975786}]","rt":1799.7749999994412,"trial_type":"pit-instructions","trial_index":255,"time_elapsed":948687,"internal_node_id":"0.0-244.0","task_version":"battery-v0.1"},{"rt":10985.630000002799,"responses":{"age":"29","gender-categorical":"Male","gender-free-response":"","ethnicity":"Not Hispanic or Latino","race":["Asian"],"language":"Yes","fluency":"Very well"},"survey":"demographics","trial_type":"survey-demo","trial_index":256,"time_elapsed":959681,"internal_node_id":"0.0-245.0","task_version":"battery-v0.1"},{"rt":21244.07000000053,"responses":{"difficulty":"3","fun":"5","clarity":"5","strategy":"I remembered the letters of the dangerous robots that needed fixing","feedback":""},"survey":"debrief","trial_type":"survey-debrief","trial_index":257,"time_elapsed":980932,"internal_node_id":"0.0-246.0","task_version":"battery-v0.1","interactions":"[]"}]