[{"view_history":"[{\"page_index\":0,\"viewing_time\":2863.7950000120327},{\"page_index\":1,\"viewing_time\":12521.50500001153},{\"page_index\":2,\"viewing_time\":18271.27999998629},{\"page_index\":3,\"viewing_time\":5965.894999972079},{\"page_index\":4,\"viewing_time\":4873.940000019502},{\"page_index\":5,\"viewing_time\":3549.910000001546}]","rt":48047.53500001971,"trial_type":"pit-instructions","trial_index":0,"time_elapsed":48084,"internal_node_id":"0.0-0.0-0.0","task_version":"battery-v0.1"},{"rune":"","hex":"#FFFFF080","correct":32,"choice":-1,"rt":-1,"accuracy":0,"outcome":"+0","keys":[3769.940000027418],"total_keys":1,"block":0,"trial_type":"pit-trial","trial_index":1,"time_elapsed":52091,"internal_node_id":"0.0-0.0-1.0-0.0","task_version":"battery-v0.1"},{"rune":"","hex":"#FFFFF080","correct":32,"choice":-1,"rt":-1,"accuracy":0,"outcome":"+0","keys":[3424.494999984745],"total_keys":1,"block":0,"trial_type":"pit-trial","trial_index":2,"time_elapsed":56101,"internal_node_id":"0.0-0.0-1.0-0.1","task_version":"battery-v0.1"},{"rune":"","hex":"#FFFFF080","correct":32,"choice":-1,"rt":-1,"accuracy":0,"outcome":"+0","keys":[3473.2699999585748],"total_keys":1,"block":0,"trial_type":"pit-trial","trial_index":3,"time_elapsed":60107,"internal_node_id":"0.0-0.0-1.0-0.2","task_version":"battery-v0.1"},{"rune":"","hex":"#FFFFF080","correct":32,"choice":-1,"rt":-1,"accuracy":0,"outcome":"+0","keys":[3411.1549999797717],"total_keys":1,"block":0,"trial_type":"pit-trial","trial_index":4,"time_elapsed":64114,"internal_node_id":"0.0-0.0-1.0-0.3","task_version":"battery-v0.1"},{"view_history":"[{\"page_index\":0,\"viewing_time\":15101.425000000745}]","rt":15102.140000031795,"trial_type":"pit-instructions","trial_index":5,"time_elapsed":79225,"internal_node_id":"0.0-0.0-2.0","task_version":"battery-v0.1"},{"rune":"","hex":"#FFFFF080","correct":-1,"choice":-1,"rt":-1,"accuracy":1,"outcome":"+10","keys":[],"total_keys":0,"block":0,"trial_type":"pit-trial","trial_index":6,"time_elapsed":83233,"internal_node_id":"0.0-0.0-3.0-0.0","task_version":"battery-v0.1"},{"rune":"","hex":"#FFFFF080","correct":-1,"choice":-1,"rt":-1,"accuracy":1,"outcome":"+10","keys":[],"total_keys":0,"block":0,"trial_type":"pit-trial","trial_index":7,"time_elapsed":87243,"internal_node_id":"0.0-0.0-3.0-0.1","task_version":"battery-v0.1"},{"rune":"","hex":"#FFFFF080","correct":-1,"choice":-1,"rt":-1,"accuracy":1,"outcome":"+10","keys":[],"total_keys":0,"block":0,"trial_type":"pit-trial","trial_index":8,"time_elapsed":91252,"internal_node_id":"0.0-0.0-3.0-0.2","task_version":"battery-v0.1"},{"rune":"","hex":"#FFFFF080","correct":-1,"choice":-1,"rt":-1,"accuracy":1,"outcome":"+10","keys":[],"total_keys":0,"block":0,"trial_type":"pit-trial","trial_index":9,"time_elapsed":95261,"internal_node_id":"0.0-0.0-3.0-0.3","task_version":"battery-v0.1"},{"responses":["Press SPACE","Do nothing"],"num_errors":0,"rt":18626.219999976456,"trial_type":"pit-comprehension","trial_index":10,"time_elapsed":113896,"internal_node_id":"0.0-0.0-4.0","task_version":"battery-v0.1"},{"view_history":"[{\"page_index\":0,\"viewing_time\":5329.2850000434555},{\"page_index\":1,\"viewing_time\":3062.2049999656156},{\"page_index\":2,\"viewing_time\":5871.805000002496},{\"page_index\":3,\"viewing_time\":8881.560000008903},{\"page_index\":4,\"viewing_time\":31355.11000000406},{\"page_index\":5,\"viewing_time\":9405.704999982845},{\"page_index\":6,\"viewing_time\":9479.679999989457},{\"page_index\":5,\"viewing_time\":4097.765000013169},{\"page_index\":6,\"viewing_time\":4999.890000035521},{\"page_index\":7,\"viewing_time\":5111.8099999730475},{\"page_index\":8,\"viewing_time\":7183.880000025965},{\"page_index\":9,\"viewing_time\":3905.769999953918},{\"page_index\":10,\"viewing_time\":2283.8450000272132}]","rt":100969.00500002084,"trial_type":"pit-instructions","trial_index":11,"time_elapsed":214883,"internal_node_id":"0.0-1.0-0.0","task_version":"battery-v0.1"},{"responses":["+10","-1","True","True"],"num_errors":0,"rt":14995.934999955352,"trial_type":"pit-comprehension","trial_index":12,"time_elapsed":229888,"internal_node_id":"0.0-1.0-1.0","task_version":"battery-v0.1"},{"view_history":"[{\"page_index\":0,\"viewing_time\":7703.355000005104},{\"page_index\":1,\"viewing_time\":6427.614999993239}]","rt":14131.69500004733,"trial_type":"pit-instructions","trial_index":13,"time_elapsed":244032,"internal_node_id":"0.0-2.0","task_version":"battery-v0.1"},{"rune":"H","hex":"#3366ff99","correct":32,"choice":32,"rt":348.25000003911555,"accuracy":1,"outcome":"+10","keys":[1848.9100000006147,2056.174999976065],"total_keys":2,"block":1,"trial":1,"robot":1,"valence":"win","action":"go","sham":0,"trial_type":"pit-trial","trial_index":14,"time_elapsed":247091,"internal_node_id":"0.0-3.0","task_version":"battery-v0.1"},{"rune":"N","hex":"#f73b6a7A","correct":-1,"choice":-1,"rt":-1,"accuracy":1,"outcome":"-1","keys":[326.86499995179474],"total_keys":1,"block":1,"trial":2,"robot":4,"valence":"lose","action":"no-go","sham":0,"trial_type":"pit-trial","trial_index":15,"time_elapsed":251100,"internal_node_id":"0.0-4.0","task_version":"battery-v0.1"},{"rune":"Y","hex":"#3366ff99","correct":-1,"choice":32,"rt":1081.3200000557117,"accuracy":0,"outcome":"+1","keys":[2581.9849999970756],"total_keys":1,"block":1,"trial":3,"robot":2,"valence":"win","action":"no-go","sham":0,"trial_type":"pit-trial","trial_index":16,"time_elapsed":254890,"internal_node_id":"0.0-5.0","task_version":"battery-v0.1"},{"rune":"R","hex":"#3366ff99","correct":32,"choice":32,"rt":1011.3000000128523,"accuracy":1,"outcome":"+10","keys":[2511.904999963008],"total_keys":1,"block":1,"trial":4,"robot":1,"valence":"win","action":"go","sham":0,"trial_type":"pit-trial","trial_index":17,"time_elapsed":258610,"internal_node_id":"0.0-6.0","task_version":"battery-v0.1"},{"rune":"R","hex":"#3366ff99","correct":32,"choice":32,"rt":834.9250000319444,"accuracy":1,"outcome":"+10","keys":[2335.5400000000373],"total_keys":1,"block":1,"trial":5,"robot":1,"valence":"win","action":"go","sham":0,"trial_type":"pit-trial","trial_index":18,"time_elapsed":262154,"internal_node_id":"0.0-7.0","task_version":"battery-v0.1"},{"rune":"H","hex":"#3366ff99","correct":32,"choice":-1,"rt":-1,"accuracy":0,"outcome":"+1","keys":[],"total_keys":0,"block":1,"trial":6,"robot":1,"valence":"win","action":"go","sham":0,"trial_type":"pit-trial","trial_index":19,"time_elapsed":266164,"internal_node_id":"0.0-8.0","task_version":"battery-v0.1"},{"rune":"N","hex":"#f73b6a7A","correct":-1,"choice":32,"rt":985.3550000116229,"accuracy":0,"outcome":"-10","keys":[2486.1800000071526],"total_keys":1,"block":1,"trial":7,"robot":4,"valence":"lose","action":"no-go","sham":0,"trial_type":"pit-trial","trial_index":20,"time_elapsed":269858,"internal_node_id":"0.0-9.0","task_version":"battery-v0.1"},{"rune":"Y","hex":"#3366ff99","correct":-1,"choice":-1,"rt":-1,"accuracy":1,"outcome":"+10","keys":[],"total_keys":0,"block":1,"trial":8,"robot":2,"valence":"win","action":"no-go","sham":0,"trial_type":"pit-trial","trial_index":21,"time_elapsed":273869,"internal_node_id":"0.0-10.0","task_version":"battery-v0.1"},{"rune":"R","hex":"#3366ff99","correct":32,"choice":32,"rt":697.4500000360422,"accuracy":1,"outcome":"+1","keys":[2198.374999978114],"total_keys":1,"block":1,"trial":9,"robot":1,"valence":"win","action":"go","sham":1,"trial_type":"pit-trial","trial_index":22,"time_elapsed":277275,"internal_node_id":"0.0-11.0","task_version":"battery-v0.1"},{"rune":"N","hex":"#f73b6a7A","correct":-1,"choice":-1,"rt":-1,"accuracy":1,"outcome":"-10","keys":[],"total_keys":0,"block":1,"trial":10,"robot":4,"valence":"lose","action":"no-go","sham":1,"trial_type":"pit-trial","trial_index":23,"time_elapsed":281284,"internal_node_id":"0.0-12.0","task_version":"battery-v0.1"},{"rune":"H","hex":"#3366ff99","correct":32,"choice":32,"rt":850.525000016205,"accuracy":1,"outcome":"+10","keys":[2351.4199999626726],"total_keys":1,"block":1,"trial":11,"robot":1,"valence":"win","action":"go","sham":0,"trial_type":"pit-trial","trial_index":24,"time_elapsed":284843,"internal_node_id":"0.0-13.0","task_version":"battery-v0.1"},{"rune":"Y","hex":"#3366ff99","correct":-1,"choice":-1,"rt":-1,"accuracy":1,"outcome":"+10","keys":[],"total_keys":0,"block":1,"trial":12,"robot":2,"valence":"win","action":"no-go","sham":0,"trial_type":"pit-trial","trial_index":25,"time_elapsed":288853,"internal_node_id":"0.0-14.0","task_version":"battery-v0.1"},{"rune":"N","hex":"#f73b6a7A","correct":-1,"choice":-1,"rt":-1,"accuracy":1,"outcome":"-1","keys":[],"total_keys":0,"block":1,"trial":13,"robot":4,"valence":"lose","action":"no-go","sham":0,"trial_type":"pit-trial","trial_index":26,"time_elapsed":292862,"internal_node_id":"0.0-15.0","task_version":"battery-v0.1"},{"rune":"H","hex":"#3366ff99","correct":32,"choice":32,"rt":1079.9750000005588,"accuracy":1,"outcome":"+10","keys":[2580.790000036359],"total_keys":1,"block":1,"trial":14,"robot":1,"valence":"win","action":"go","sham":0,"trial_type":"pit-trial","trial_index":27,"time_elapsed":296651,"internal_node_id":"0.0-16.0","task_version":"battery-v0.1"},{"rune":"Y","hex":"#3366ff99","correct":-1,"choice":-1,"rt":-1,"accuracy":1,"outcome":"+10","keys":[],"total_keys":0,"block":1,"trial":15,"robot":2,"valence":"win","action":"no-go","sham":0,"trial_type":"pit-trial","trial_index":28,"time_elapsed":300660,"internal_node_id":"0.0-17.0","task_version":"battery-v0.1"},{"rune":"R","hex":"#3366ff99","correct":32,"choice":32,"rt":705.2850000327453,"accuracy":1,"outcome":"+10","keys":[2206.164999981411],"total_keys":1,"block":1,"trial":16,"robot":1,"valence":"win","action":"go","sham":0,"trial_type":"pit-trial","trial_index":29,"time_elapsed":304075,"internal_node_id":"0.0-18.0","task_version":"battery-v0.1"},{"rune":"R","hex":"#3366ff99","correct":32,"choice":32,"rt":906.5950000076555,"accuracy":1,"outcome":"+10","keys":[2407.5900000170805],"total_keys":1,"block":1,"trial":17,"robot":1,"valence":"win","action":"go","sham":0,"trial_type":"pit-trial","trial_index":30,"time_elapsed":307691,"internal_node_id":"0.0-19.0","task_version":"battery-v0.1"},{"rune":"Y","hex":"#3366ff99","correct":-1,"choice":-1,"rt":-1,"accuracy":1,"outcome":"+1","keys":[],"total_keys":0,"block":1,"trial":18,"robot":2,"valence":"win","action":"no-go","sham":1,"trial_type":"pit-trial","trial_index":31,"time_elapsed":311699,"internal_node_id":"0.0-20.0","task_version":"battery-v0.1"},{"rune":"N","hex":"#f73b6a7A","correct":-1,"choice":-1,"rt":-1,"accuracy":1,"outcome":"-1","keys":[],"total_keys":0,"block":1,"trial":19,"robot":4,"valence":"lose","action":"no-go","sham":0,"trial_type":"pit-trial","trial_index":32,"time_elapsed":315708,"internal_node_id":"0.0-21.0","task_version":"battery-v0.1"},{"rune":"H","hex":"#3366ff99","correct":32,"choice":32,"rt":866.7249999707565,"accuracy":1,"outcome":"+10","keys":[2366.7850000201724],"total_keys":1,"block":1,"trial":20,"robot":1,"valence":"win","action":"go","sham":0,"trial_type":"pit-trial","trial_index":33,"time_elapsed":319282,"internal_node_id":"0.0-22.0","task_version":"battery-v0.1"},{"rune":"H","hex":"#3366ff99","correct":32,"choice":-1,"rt":-1,"accuracy":0,"outcome":"+1","keys":[2807.874999998603],"total_keys":1,"block":1,"trial":21,"robot":1,"valence":"win","action":"go","sham":0,"trial_type":"pit-trial","trial_index":34,"time_elapsed":323291,"internal_node_id":"0.0-23.0","task_version":"battery-v0.1"},{"rune":"Y","hex":"#3366ff99","correct":-1,"choice":-1,"rt":-1,"accuracy":1,"outcome":"+1","keys":[],"total_keys":0,"block":1,"trial":22,"robot":2,"valence":"win","action":"no-go","sham":1,"trial_type":"pit-trial","trial_index":35,"time_elapsed":327299,"internal_node_id":"0.0-24.0","task_version":"battery-v0.1"},{"rune":"N","hex":"#f73b6a7A","correct":-1,"choice":-1,"rt":-1,"accuracy":1,"outcome":"-1","keys":[],"total_keys":0,"block":1,"trial":23,"robot":4,"valence":"lose","action":"no-go","sham":0,"trial_type":"pit-trial","trial_index":36,"time_elapsed":331308,"internal_node_id":"0.0-25.0","task_version":"battery-v0.1"},{"rune":"R","hex":"#3366ff99","correct":32,"choice":32,"rt":521.4849999756552,"accuracy":1,"outcome":"+1","keys":[2021.5599999646656],"total_keys":1,"block":1,"trial":24,"robot":1,"valence":"win","action":"go","sham":1,"trial_type":"pit-trial","trial_index":37,"time_elapsed":334539,"internal_node_id":"0.0-26.0","task_version":"battery-v0.1"},{"rune":"N","hex":"#f73b6a7A","correct":-1,"choice":-1,"rt":-1,"accuracy":1,"outcome":"-1","keys":[],"total_keys":0,"block":1,"trial":25,"robot":4,"valence":"lose","action":"no-go","sham":0,"trial_type":"pit-trial","trial_index":38,"time_elapsed":338548,"internal_node_id":"0.0-27.0","task_version":"battery-v0.1"},{"rune":"R","hex":"#3366ff99","correct":32,"choice":32,"rt":689.6050000214018,"accuracy":1,"outcome":"+10","keys":[2190.424999978859],"total_keys":1,"block":1,"trial":26,"robot":1,"valence":"win","action":"go","sham":0,"trial_type":"pit-trial","trial_index":39,"time_elapsed":341946,"internal_node_id":"0.0-28.0","task_version":"battery-v0.1"},{"rune":"Y","hex":"#3366ff99","correct":-1,"choice":-1,"rt":-1,"accuracy":1,"outcome":"+10","keys":[],"total_keys":0,"block":1,"trial":27,"robot":2,"valence":"win","action":"no-go","sham":0,"trial_type":"pit-trial","trial_index":40,"time_elapsed":345956,"internal_node_id":"0.0-29.0","task_version":"battery-v0.1"},{"rune":"H","hex":"#3366ff99","correct":32,"choice":32,"rt":1210.605000029318,"accuracy":1,"outcome":"+1","keys":[2711.5149999735877],"total_keys":1,"block":1,"trial":28,"robot":1,"valence":"win","action":"go","sham":1,"trial_type":"pit-trial","trial_index":41,"time_elapsed":349875,"internal_node_id":"0.0-30.0","task_version":"battery-v0.1"},{"rune":"R","hex":"#3366ff99","correct":32,"choice":32,"rt":707.544999953825,"accuracy":1,"outcome":"+10","keys":[2207.6100000413135],"total_keys":1,"block":1,"trial":29,"robot":1,"valence":"win","action":"go","sham":0,"trial_type":"pit-trial","trial_index":42,"time_elapsed":353290,"internal_node_id":"0.0-31.0","task_version":"battery-v0.1"},{"rune":"H","hex":"#3366ff99","correct":32,"choice":-1,"rt":-1,"accuracy":0,"outcome":"+1","keys":[3000.529999961145],"total_keys":1,"block":1,"trial":30,"robot":1,"valence":"win","action":"go","sham":0,"trial_type":"pit-trial","trial_index":43,"time_elapsed":357299,"internal_node_id":"0.0-32.0","task_version":"battery-v0.1"},{"rune":"Y","hex":"#3366ff99","correct":-1,"choice":-1,"rt":-1,"accuracy":1,"outcome":"+10","keys":[],"total_keys":0,"block":1,"trial":31,"robot":2,"valence":"win","action":"no-go","sham":0,"trial_type":"pit-trial","trial_index":44,"time_elapsed":361308,"internal_node_id":"0.0-33.0","task_version":"battery-v0.1"},{"rune":"N","hex":"#f73b6a7A","correct":-1,"choice":-1,"rt":-1,"accuracy":1,"outcome":"-1","keys":[],"total_keys":0,"block":1,"trial":32,"robot":4,"valence":"lose","action":"no-go","sham":0,"trial_type":"pit-trial","trial_index":45,"time_elapsed":365316,"internal_node_id":"0.0-34.0","task_version":"battery-v0.1"},{"rune":"N","hex":"#f73b6a7A","correct":-1,"choice":-1,"rt":-1,"accuracy":1,"outcome":"-1","keys":[],"total_keys":0,"block":1,"trial":33,"robot":4,"valence":"lose","action":"no-go","sham":0,"trial_type":"pit-trial","trial_index":46,"time_elapsed":369326,"internal_node_id":"0.0-35.0","task_version":"battery-v0.1"},{"rune":"Y","hex":"#3366ff99","correct":-1,"choice":-1,"rt":-1,"accuracy":1,"outcome":"+10","keys":[],"total_keys":0,"block":1,"trial":34,"robot":2,"valence":"win","action":"no-go","sham":0,"trial_type":"pit-trial","trial_index":47,"time_elapsed":373335,"internal_node_id":"0.0-36.0","task_version":"battery-v0.1"},{"rune":"H","hex":"#3366ff99","correct":32,"choice":32,"rt":1030.785000009928,"accuracy":1,"outcome":"+10","keys":[2531.695000012405],"total_keys":1,"block":1,"trial":35,"robot":1,"valence":"win","action":"go","sham":0,"trial_type":"pit-trial","trial_index":48,"time_elapsed":377074,"internal_node_id":"0.0-37.0","task_version":"battery-v0.1"},{"rune":"V","hex":"#3366ff99","correct":32,"choice":32,"rt":1218.5349999926984,"accuracy":1,"outcome":"+10","keys":[2719.455000013113],"total_keys":1,"block":1,"trial":36,"robot":1,"valence":"win","action":"go","sham":0,"trial_type":"pit-trial","trial_index":49,"time_elapsed":381001,"internal_node_id":"0.0-38.0","task_version":"battery-v0.1"},{"rune":"Y","hex":"#3366ff99","correct":-1,"choice":-1,"rt":-1,"accuracy":1,"outcome":"+10","keys":[],"total_keys":0,"block":1,"trial":37,"robot":2,"valence":"win","action":"no-go","sham":0,"trial_type":"pit-trial","trial_index":50,"time_elapsed":385010,"internal_node_id":"0.0-39.0","task_version":"battery-v0.1"},{"rune":"H","hex":"#3366ff99","correct":32,"choice":32,"rt":986.5400000126101,"accuracy":1,"outcome":"+1","keys":[2486.964999989141],"total_keys":1,"block":1,"trial":38,"robot":1,"valence":"win","action":"go","sham":1,"trial_type":"pit-trial","trial_index":51,"time_elapsed":388705,"internal_node_id":"0.0-40.0","task_version":"battery-v0.1"},{"rune":"N","hex":"#f73b6a7A","correct":-1,"choice":-1,"rt":-1,"accuracy":1,"outcome":"-1","keys":[],"total_keys":0,"block":1,"trial":39,"robot":4,"valence":"lose","action":"no-go","sham":0,"trial_type":"pit-trial","trial_index":52,"time_elapsed":392715,"internal_node_id":"0.0-41.0","task_version":"battery-v0.1"},{"rune":"V","hex":"#3366ff99","correct":32,"choice":32,"rt":833.7850000243634,"accuracy":1,"outcome":"+10","keys":[2334.664999973029],"total_keys":1,"block":1,"trial":40,"robot":1,"valence":"win","action":"go","sham":0,"trial_type":"pit-trial","trial_index":53,"time_elapsed":396258,"internal_node_id":"0.0-42.0","task_version":"battery-v0.1"},{"rune":"V","hex":"#3366ff99","correct":32,"choice":-1,"rt":-1,"accuracy":0,"outcome":"+1","keys":[2873.0549999745563],"total_keys":1,"block":1,"trial":41,"robot":1,"valence":"win","action":"go","sham":0,"trial_type":"pit-trial","trial_index":54,"time_elapsed":400267,"internal_node_id":"0.0-43.0","task_version":"battery-v0.1"},{"rune":"U","hex":"#f73b6a7A","correct":-1,"choice":32,"rt":786.2549999845214,"accuracy":0,"outcome":"-10","keys":[2287.2000000206754],"total_keys":1,"block":1,"trial":42,"robot":4,"valence":"lose","action":"no-go","sham":0,"trial_type":"pit-trial","trial_index":55,"time_elapsed":403762,"internal_node_id":"0.0-44.0","task_version":"battery-v0.1"},{"rune":"T","hex":"#f73b6a7A","correct":32,"choice":32,"rt":1254.0099999750964,"accuracy":1,"outcome":"-1","keys":[2754.925000015646],"total_keys":1,"block":1,"trial":43,"robot":3,"valence":"lose","action":"go","sham":0,"trial_type":"pit-trial","trial_index":56,"time_elapsed":407722,"internal_node_id":"0.0-45.0","task_version":"battery-v0.1"},{"rune":"Y","hex":"#3366ff99","correct":-1,"choice":-1,"rt":-1,"accuracy":1,"outcome":"+10","keys":[],"total_keys":0,"block":1,"trial":44,"robot":2,"valence":"win","action":"no-go","sham":0,"trial_type":"pit-trial","trial_index":57,"time_elapsed":411730,"internal_node_id":"0.0-46.0","task_version":"battery-v0.1"},{"rune":"T","hex":"#f73b6a7A","correct":32,"choice":32,"rt":747.6449999958277,"accuracy":1,"outcome":"-10","keys":[2247.785000014119],"total_keys":1,"block":1,"trial":45,"robot":3,"valence":"lose","action":"go","sham":1,"trial_type":"pit-trial","trial_index":58,"time_elapsed":415185,"internal_node_id":"0.0-47.0","task_version":"battery-v0.1"},{"rune":"V","hex":"#3366ff99","correct":32,"choice":-1,"rt":-1,"accuracy":0,"outcome":"+1","keys":[3023.879999993369],"total_keys":1,"block":1,"trial":46,"robot":1,"valence":"win","action":"go","sham":0,"trial_type":"pit-trial","trial_index":59,"time_elapsed":419194,"internal_node_id":"0.0-48.0","task_version":"battery-v0.1"},{"rune":"U","hex":"#f73b6a7A","correct":-1,"choice":32,"rt":865.9800000023097,"accuracy":0,"outcome":"-10","keys":[2366.885000024922],"total_keys":1,"block":1,"trial":47,"robot":4,"valence":"lose","action":"no-go","sham":0,"trial_type":"pit-trial","trial_index":60,"time_elapsed":422769,"internal_node_id":"0.0-49.0","task_version":"battery-v0.1"},{"rune":"Y","hex":"#3366ff99","correct":-1,"choice":-1,"rt":-1,"accuracy":1,"outcome":"+1","keys":[],"total_keys":0,"block":1,"trial":48,"robot":2,"valence":"win","action":"no-go","sham":1,"trial_type":"pit-trial","trial_index":61,"time_elapsed":426779,"internal_node_id":"0.0-50.0","task_version":"battery-v0.1"},{"rune":"F","hex":"#3366ff99","correct":-1,"choice":32,"rt":658.129999996163,"accuracy":0,"outcome":"+1","keys":[2159.059999976307],"total_keys":1,"block":1,"trial":49,"robot":2,"valence":"win","action":"no-go","sham":0,"trial_type":"pit-trial","trial_index":62,"time_elapsed":430146,"internal_node_id":"0.0-51.0","task_version":"battery-v0.1"},{"rune":"T","hex":"#f73b6a7A","correct":32,"choice":32,"rt":1154.2550000012852,"accuracy":1,"outcome":"-1","keys":[2655.139999988023],"total_keys":1,"block":1,"trial":50,"robot":3,"valence":"lose","action":"go","sham":0,"trial_type":"pit-trial","trial_index":63,"time_elapsed":434009,"internal_node_id":"0.0-52.0","task_version":"battery-v0.1"},{"rune":"V","hex":"#3366ff99","correct":32,"choice":32,"rt":715.0750000146218,"accuracy":1,"outcome":"+10","keys":[2215.974999999162],"total_keys":1,"block":1,"trial":51,"robot":1,"valence":"win","action":"go","sham":0,"trial_type":"pit-trial","trial_index":64,"time_elapsed":437433,"internal_node_id":"0.0-53.0","task_version":"battery-v0.1"},{"rune":"U","hex":"#f73b6a7A","correct":-1,"choice":-1,"rt":-1,"accuracy":1,"outcome":"-1","keys":[],"total_keys":0,"block":1,"trial":52,"robot":4,"valence":"lose","action":"no-go","sham":0,"trial_type":"pit-trial","trial_index":65,"time_elapsed":441441,"internal_node_id":"0.0-54.0","task_version":"battery-v0.1"},{"rune":"F","hex":"#3366ff99","correct":-1,"choice":32,"rt":691.0750000388362,"accuracy":0,"outcome":"+1","keys":[2191.9900000211783],"total_keys":1,"block":1,"trial":53,"robot":2,"valence":"win","action":"no-go","sham":0,"trial_type":"pit-trial","trial_index":66,"time_elapsed":444841,"internal_node_id":"0.0-55.0","task_version":"battery-v0.1"},{"rune":"U","hex":"#f73b6a7A","correct":-1,"choice":-1,"rt":-1,"accuracy":1,"outcome":"-10","keys":[3135.11999999173],"total_keys":1,"block":1,"trial":54,"robot":4,"valence":"lose","action":"no-go","sham":1,"trial_type":"pit-trial","trial_index":67,"time_elapsed":448850,"internal_node_id":"0.0-56.0","task_version":"battery-v0.1"},{"rune":"V","hex":"#3366ff99","correct":32,"choice":32,"rt":712.8100000554696,"accuracy":1,"outcome":"+10","keys":[2213.534999988042],"total_keys":1,"block":1,"trial":55,"robot":1,"valence":"win","action":"go","sham":0,"trial_type":"pit-trial","trial_index":68,"time_elapsed":452271,"internal_node_id":"0.0-57.0","task_version":"battery-v0.1"},{"rune":"T","hex":"#f73b6a7A","correct":32,"choice":-1,"rt":-1,"accuracy":0,"outcome":"-10","keys":[],"total_keys":0,"block":1,"trial":56,"robot":3,"valence":"lose","action":"go","sham":0,"trial_type":"pit-trial","trial_index":69,"time_elapsed":456282,"internal_node_id":"0.0-58.0","task_version":"battery-v0.1"},{"rune":"F","hex":"#3366ff99","correct":-1,"choice":32,"rt":1140.2799999923445,"accuracy":0,"outcome":"+1","keys":[2640.290000010282],"total_keys":1,"block":1,"trial":57,"robot":2,"valence":"win","action":"no-go","sham":0,"trial_type":"pit-trial","trial_index":70,"time_elapsed":460130,"internal_node_id":"0.0-59.0","task_version":"battery-v0.1"},{"rune":"T","hex":"#f73b6a7A","correct":32,"choice":-1,"rt":-1,"accuracy":0,"outcome":"-10","keys":[2855.9550000354648],"total_keys":1,"block":1,"trial":58,"robot":3,"valence":"lose","action":"go","sham":0,"trial_type":"pit-trial","trial_index":71,"time_elapsed":464138,"internal_node_id":"0.0-60.0","task_version":"battery-v0.1"},{"rune":"U","hex":"#f73b6a7A","correct":-1,"choice":-1,"rt":-1,"accuracy":1,"outcome":"-1","keys":[],"total_keys":0,"block":1,"trial":59,"robot":4,"valence":"lose","action":"no-go","sham":0,"trial_type":"pit-trial","trial_index":72,"time_elapsed":468147,"internal_node_id":"0.0-61.0","task_version":"battery-v0.1"},{"rune":"V","hex":"#3366ff99","correct":32,"choice":32,"rt":500.54500001715496,"accuracy":1,"outcome":"+10","keys":[2001.1350000277162],"total_keys":1,"block":1,"trial":60,"robot":1,"valence":"win","action":"go","sham":0,"trial_type":"pit-trial","trial_index":73,"time_elapsed":471354,"internal_node_id":"0.0-62.0","task_version":"battery-v0.1"},{"rune":"T","hex":"#f73b6a7A","correct":32,"choice":-1,"rt":-1,"accuracy":0,"outcome":"-10","keys":[],"total_keys":0,"block":1,"trial":61,"robot":3,"valence":"lose","action":"go","sham":0,"trial_type":"pit-trial","trial_index":74,"time_elapsed":475363,"internal_node_id":"0.0-63.0","task_version":"battery-v0.1"},{"rune":"U","hex":"#f73b6a7A","correct":-1,"choice":-1,"rt":-1,"accuracy":1,"outcome":"-1","keys":[],"total_keys":0,"block":1,"trial":62,"robot":4,"valence":"lose","action":"no-go","sham":0,"trial_type":"pit-trial","trial_index":75,"time_elapsed":479372,"internal_node_id":"0.0-64.0","task_version":"battery-v0.1"},{"rune":"V","hex":"#3366ff99","correct":32,"choice":32,"rt":697.5850000162609,"accuracy":1,"outcome":"+10","keys":[2197.585000016261],"total_keys":1,"block":1,"trial":63,"robot":1,"valence":"win","action":"go","sham":0,"trial_type":"pit-trial","trial_index":76,"time_elapsed":482777,"internal_node_id":"0.0-65.0","task_version":"battery-v0.1"},{"rune":"F","hex":"#3366ff99","correct":-1,"choice":32,"rt":850.830000010319,"accuracy":0,"outcome":"+1","keys":[2351.714999997057],"total_keys":1,"block":1,"trial":64,"robot":2,"valence":"win","action":"no-go","sham":0,"trial_type":"pit-trial","trial_index":77,"time_elapsed":486337,"internal_node_id":"0.0-66.0","task_version":"battery-v0.1"},{"rune":"F","hex":"#3366ff99","correct":-1,"choice":-1,"rt":-1,"accuracy":1,"outcome":"+10","keys":[],"total_keys":0,"block":1,"trial":65,"robot":2,"valence":"win","action":"no-go","sham":0,"trial_type":"pit-trial","trial_index":78,"time_elapsed":490346,"internal_node_id":"0.0-67.0","task_version":"battery-v0.1"},{"rune":"V","hex":"#3366ff99","correct":32,"choice":32,"rt":833.9850000338629,"accuracy":1,"outcome":"+10","keys":[2334.8250000271946],"total_keys":1,"block":1,"trial":66,"robot":1,"valence":"win","action":"go","sham":0,"trial_type":"pit-trial","trial_index":79,"time_elapsed":493889,"internal_node_id":"0.0-68.0","task_version":"battery-v0.1"},{"rune":"U","hex":"#f73b6a7A","correct":-1,"choice":-1,"rt":-1,"accuracy":1,"outcome":"-1","keys":[],"total_keys":0,"block":1,"trial":67,"robot":4,"valence":"lose","action":"no-go","sham":0,"trial_type":"pit-trial","trial_index":80,"time_elapsed":497900,"internal_node_id":"0.0-69.0","task_version":"battery-v0.1"},{"rune":"T","hex":"#f73b6a7A","correct":32,"choice":-1,"rt":-1,"accuracy":0,"outcome":"-1","keys":[],"total_keys":0,"block":1,"trial":68,"robot":3,"valence":"lose","action":"go","sham":1,"trial_type":"pit-trial","trial_index":81,"time_elapsed":501910,"internal_node_id":"0.0-70.0","task_version":"battery-v0.1"},{"rune":"V","hex":"#3366ff99","correct":32,"choice":32,"rt":614.1749999951571,"accuracy":1,"outcome":"+10","keys":[2114.990000030957],"total_keys":1,"block":1,"trial":69,"robot":1,"valence":"win","action":"go","sham":0,"trial_type":"pit-trial","trial_index":82,"time_elapsed":505233,"internal_node_id":"0.0-71.0","task_version":"battery-v0.1"},{"rune":"T","hex":"#f73b6a7A","correct":32,"choice":-1,"rt":-1,"accuracy":0,"outcome":"-1","keys":[],"total_keys":0,"block":1,"trial":70,"robot":3,"valence":"lose","action":"go","sham":1,"trial_type":"pit-trial","trial_index":83,"time_elapsed":509242,"internal_node_id":"0.0-72.0","task_version":"battery-v0.1"},{"rune":"U","hex":"#f73b6a7A","correct":-1,"choice":-1,"rt":-1,"accuracy":1,"outcome":"-1","keys":[],"total_keys":0,"block":1,"trial":71,"robot":4,"valence":"lose","action":"no-go","sham":0,"trial_type":"pit-trial","trial_index":84,"time_elapsed":513252,"internal_node_id":"0.0-73.0","task_version":"battery-v0.1"},{"rune":"F","hex":"#3366ff99","correct":-1,"choice":32,"rt":632.335000031162,"accuracy":0,"outcome":"+1","keys":[2133.269999991171],"total_keys":1,"block":1,"trial":72,"robot":2,"valence":"win","action":"no-go","sham":0,"trial_type":"pit-trial","trial_index":85,"time_elapsed":516593,"internal_node_id":"0.0-74.0","task_version":"battery-v0.1"},{"rune":"U","hex":"#f73b6a7A","correct":-1,"choice":-1,"rt":-1,"accuracy":1,"outcome":"-1","keys":[],"total_keys":0,"block":1,"trial":73,"robot":4,"valence":"lose","action":"no-go","sham":0,"trial_type":"pit-trial","trial_index":86,"time_elapsed":520603,"internal_node_id":"0.0-75.0","task_version":"battery-v0.1"},{"rune":"Z","hex":"#f73b6a7A","correct":32,"choice":32,"rt":977.3150000255555,"accuracy":1,"outcome":"-1","keys":[2477.97000000719],"total_keys":1,"block":1,"trial":74,"robot":3,"valence":"lose","action":"go","sham":0,"trial_type":"pit-trial","trial_index":87,"time_elapsed":524289,"internal_node_id":"0.0-76.0","task_version":"battery-v0.1"},{"rune":"V","hex":"#3366ff99","correct":32,"choice":32,"rt":794.5600000093691,"accuracy":1,"outcome":"+10","keys":[2296.295000007376],"total_keys":1,"block":1,"trial":75,"robot":1,"valence":"win","action":"go","sham":0,"trial_type":"pit-trial","trial_index":88,"time_elapsed":527793,"internal_node_id":"0.0-77.0","task_version":"battery-v0.1"},{"rune":"F","hex":"#3366ff99","correct":-1,"choice":-1,"rt":-1,"accuracy":1,"outcome":"+10","keys":[],"total_keys":0,"block":1,"trial":76,"robot":2,"valence":"win","action":"no-go","sham":0,"trial_type":"pit-trial","trial_index":89,"time_elapsed":531802,"internal_node_id":"0.0-78.0","task_version":"battery-v0.1"},{"rune":"F","hex":"#3366ff99","correct":-1,"choice":-1,"rt":-1,"accuracy":1,"outcome":"+10","keys":[],"total_keys":0,"block":1,"trial":77,"robot":2,"valence":"win","action":"no-go","sham":0,"trial_type":"pit-trial","trial_index":90,"time_elapsed":535810,"internal_node_id":"0.0-79.0","task_version":"battery-v0.1"},{"rune":"Z","hex":"#f73b6a7A","correct":32,"choice":32,"rt":826.13499998115,"accuracy":1,"outcome":"-10","keys":[2327.095000015106],"total_keys":1,"block":1,"trial":78,"robot":3,"valence":"lose","action":"go","sham":1,"trial_type":"pit-trial","trial_index":91,"time_elapsed":539345,"internal_node_id":"0.0-80.0","task_version":"battery-v0.1"},{"rune":"U","hex":"#f73b6a7A","correct":-1,"choice":-1,"rt":-1,"accuracy":1,"outcome":"-1","keys":[],"total_keys":0,"block":1,"trial":79,"robot":4,"valence":"lose","action":"no-go","sham":0,"trial_type":"pit-trial","trial_index":92,"time_elapsed":543354,"internal_node_id":"0.0-81.0","task_version":"battery-v0.1"},{"rune":"V","hex":"#3366ff99","correct":32,"choice":32,"rt":784.6549999667332,"accuracy":1,"outcome":"+1","keys":[2285.730000003241],"total_keys":1,"block":1,"trial":80,"robot":1,"valence":"win","action":"go","sham":1,"trial_type":"pit-trial","trial_index":93,"time_elapsed":546848,"internal_node_id":"0.0-82.0","task_version":"battery-v0.1"},{"rune":"F","hex":"#3366ff99","correct":-1,"choice":-1,"rt":-1,"accuracy":1,"outcome":"+10","keys":[],"total_keys":0,"block":1,"trial":81,"robot":2,"valence":"win","action":"no-go","sham":0,"trial_type":"pit-trial","trial_index":94,"time_elapsed":550858,"internal_node_id":"0.0-83.0","task_version":"battery-v0.1"},{"rune":"Z","hex":"#f73b6a7A","correct":32,"choice":-1,"rt":-1,"accuracy":0,"outcome":"-10","keys":[],"total_keys":0,"block":1,"trial":82,"robot":3,"valence":"lose","action":"go","sham":0,"trial_type":"pit-trial","trial_index":95,"time_elapsed":554867,"internal_node_id":"0.0-84.0","task_version":"battery-v0.1"},{"rune":"U","hex":"#f73b6a7A","correct":-1,"choice":-1,"rt":-1,"accuracy":1,"outcome":"-1","keys":[],"total_keys":0,"block":1,"trial":83,"robot":4,"valence":"lose","action":"no-go","sham":0,"trial_type":"pit-trial","trial_index":96,"time_elapsed":558875,"internal_node_id":"0.0-85.0","task_version":"battery-v0.1"},{"rune":"S","hex":"#f73b6a7A","correct":32,"choice":32,"rt":913.4400000330061,"accuracy":1,"outcome":"-1","keys":[2413.575000013225],"total_keys":1,"block":1,"trial":84,"robot":3,"valence":"lose","action":"go","sham":0,"trial_type":"pit-trial","trial_index":97,"time_elapsed":562496,"internal_node_id":"0.0-86.0","task_version":"battery-v0.1"},{"rune":"F","hex":"#3366ff99","correct":-1,"choice":-1,"rt":-1,"accuracy":1,"outcome":"+10","keys":[],"total_keys":0,"block":1,"trial":85,"robot":2,"valence":"win","action":"no-go","sham":0,"trial_type":"pit-trial","trial_index":98,"time_elapsed":566505,"internal_node_id":"0.0-87.0","task_version":"battery-v0.1"},{"rune":"Z","hex":"#f73b6a7A","correct":32,"choice":32,"rt":1177.9399999650195,"accuracy":1,"outcome":"-1","keys":[2678.005000052508],"total_keys":1,"block":1,"trial":86,"robot":3,"valence":"lose","action":"go","sham":0,"trial_type":"pit-trial","trial_index":99,"time_elapsed":570391,"internal_node_id":"0.0-88.0","task_version":"battery-v0.1"},{"rune":"U","hex":"#f73b6a7A","correct":-1,"choice":-1,"rt":-1,"accuracy":1,"outcome":"-10","keys":[],"total_keys":0,"block":1,"trial":87,"robot":4,"valence":"lose","action":"no-go","sham":1,"trial_type":"pit-trial","trial_index":100,"time_elapsed":574402,"internal_node_id":"0.0-89.0","task_version":"battery-v0.1"},{"rune":"S","hex":"#f73b6a7A","correct":32,"choice":32,"rt":1050.455000018701,"accuracy":1,"outcome":"-1","keys":[2551.2200000230223],"total_keys":1,"block":1,"trial":88,"robot":3,"valence":"lose","action":"go","sham":0,"trial_type":"pit-trial","trial_index":101,"time_elapsed":578161,"internal_node_id":"0.0-90.0","task_version":"battery-v0.1"},{"rune":"S","hex":"#f73b6a7A","correct":32,"choice":32,"rt":1075.4949999973178,"accuracy":1,"outcome":"-1","keys":[2575.520000013057],"total_keys":1,"block":1,"trial":89,"robot":3,"valence":"lose","action":"go","sham":0,"trial_type":"pit-trial","trial_index":102,"time_elapsed":581944,"internal_node_id":"0.0-91.0","task_version":"battery-v0.1"},{"rune":"Z","hex":"#f73b6a7A","correct":32,"choice":-1,"rt":-1,"accuracy":0,"outcome":"-10","keys":[],"total_keys":0,"block":1,"trial":90,"robot":3,"valence":"lose","action":"go","sham":0,"trial_type":"pit-trial","trial_index":103,"time_elapsed":585953,"internal_node_id":"0.0-92.0","task_version":"battery-v0.1"},{"rune":"D","hex":"#3366ff99","correct":-1,"choice":32,"rt":642.4750000005588,"accuracy":0,"outcome":"+10","keys":[2143.325000011828],"total_keys":1,"block":1,"trial":91,"robot":2,"valence":"win","action":"no-go","sham":1,"trial_type":"pit-trial","trial_index":104,"time_elapsed":589304,"internal_node_id":"0.0-93.0","task_version":"battery-v0.1"},{"rune":"Q","hex":"#f73b6a7A","correct":-1,"choice":32,"rt":906.8049999768846,"accuracy":0,"outcome":"-10","keys":[2407.7050000196323],"total_keys":1,"block":1,"trial":92,"robot":4,"valence":"lose","action":"no-go","sham":0,"trial_type":"pit-trial","trial_index":105,"time_elapsed":592920,"internal_node_id":"0.0-94.0","task_version":"battery-v0.1"},{"rune":"S","hex":"#f73b6a7A","correct":32,"choice":32,"rt":795.6449999473989,"accuracy":1,"outcome":"-1","keys":[2296.6599999926984],"total_keys":1,"block":1,"trial":93,"robot":3,"valence":"lose","action":"go","sham":0,"trial_type":"pit-trial","trial_index":106,"time_elapsed":596424,"internal_node_id":"0.0-95.0","task_version":"battery-v0.1"},{"rune":"D","hex":"#3366ff99","correct":-1,"choice":32,"rt":629.2299999622628,"accuracy":0,"outcome":"+1","keys":[2129.475000023376],"total_keys":1,"block":1,"trial":94,"robot":2,"valence":"win","action":"no-go","sham":0,"trial_type":"pit-trial","trial_index":107,"time_elapsed":599761,"internal_node_id":"0.0-96.0","task_version":"battery-v0.1"},{"rune":"Z","hex":"#f73b6a7A","correct":32,"choice":32,"rt":917.2049999469891,"accuracy":1,"outcome":"-10","keys":[2417.620000021998],"total_keys":1,"block":1,"trial":95,"robot":3,"valence":"lose","action":"go","sham":1,"trial_type":"pit-trial","trial_index":108,"time_elapsed":603384,"internal_node_id":"0.0-97.0","task_version":"battery-v0.1"},{"rune":"Q","hex":"#f73b6a7A","correct":-1,"choice":-1,"rt":-1,"accuracy":1,"outcome":"-1","keys":[],"total_keys":0,"block":1,"trial":96,"robot":4,"valence":"lose","action":"no-go","sham":0,"trial_type":"pit-trial","trial_index":109,"time_elapsed":607392,"internal_node_id":"0.0-98.0","task_version":"battery-v0.1"},{"rune":"Q","hex":"#f73b6a7A","correct":-1,"choice":-1,"rt":-1,"accuracy":1,"outcome":"-1","keys":[],"total_keys":0,"block":1,"trial":97,"robot":4,"valence":"lose","action":"no-go","sham":0,"trial_type":"pit-trial","trial_index":110,"time_elapsed":611402,"internal_node_id":"0.0-99.0","task_version":"battery-v0.1"},{"rune":"D","hex":"#3366ff99","correct":-1,"choice":32,"rt":857.6850000536069,"accuracy":0,"outcome":"+10","keys":[2357.7449999866076],"total_keys":1,"block":1,"trial":98,"robot":2,"valence":"win","action":"no-go","sham":1,"trial_type":"pit-trial","trial_index":111,"time_elapsed":614967,"internal_node_id":"0.0-100.0","task_version":"battery-v0.1"},{"rune":"Z","hex":"#f73b6a7A","correct":32,"choice":-1,"rt":-1,"accuracy":0,"outcome":"-10","keys":[],"total_keys":0,"block":1,"trial":99,"robot":3,"valence":"lose","action":"go","sham":0,"trial_type":"pit-trial","trial_index":112,"time_elapsed":618975,"internal_node_id":"0.0-101.0","task_version":"battery-v0.1"},{"rune":"S","hex":"#f73b6a7A","correct":32,"choice":32,"rt":722.8099999483675,"accuracy":1,"outcome":"-1","keys":[2223.859999969136],"total_keys":1,"block":1,"trial":100,"robot":3,"valence":"lose","action":"go","sham":0,"trial_type":"pit-trial","trial_index":113,"time_elapsed":622407,"internal_node_id":"0.0-102.0","task_version":"battery-v0.1"},{"rune":"S","hex":"#f73b6a7A","correct":32,"choice":32,"rt":828.2449999824166,"accuracy":1,"outcome":"-1","keys":[2328.3200000296347],"total_keys":1,"block":1,"trial":101,"robot":3,"valence":"lose","action":"go","sham":0,"trial_type":"pit-trial","trial_index":114,"time_elapsed":625944,"internal_node_id":"0.0-103.0","task_version":"battery-v0.1"},{"rune":"Z","hex":"#f73b6a7A","correct":32,"choice":-1,"rt":-1,"accuracy":0,"outcome":"-10","keys":[2887.1900000376627],"total_keys":1,"block":1,"trial":102,"robot":3,"valence":"lose","action":"go","sham":0,"trial_type":"pit-trial","trial_index":115,"time_elapsed":629953,"internal_node_id":"0.0-104.0","task_version":"battery-v0.1"},{"rune":"Q","hex":"#f73b6a7A","correct":-1,"choice":-1,"rt":-1,"accuracy":1,"outcome":"-10","keys":[],"total_keys":0,"block":1,"trial":103,"robot":4,"valence":"lose","action":"no-go","sham":1,"trial_type":"pit-trial","trial_index":116,"time_elapsed":633962,"internal_node_id":"0.0-105.0","task_version":"battery-v0.1"},{"rune":"D","hex":"#3366ff99","correct":-1,"choice":32,"rt":600.4250000114553,"accuracy":0,"outcome":"+10","keys":[2101.0549999773502],"total_keys":1,"block":1,"trial":104,"robot":2,"valence":"win","action":"no-go","sham":1,"trial_type":"pit-trial","trial_index":117,"time_elapsed":637273,"internal_node_id":"0.0-106.0","task_version":"battery-v0.1"},{"rune":"S","hex":"#f73b6a7A","correct":32,"choice":32,"rt":754.7650000196882,"accuracy":1,"outcome":"-1","keys":[2255.78000000678],"total_keys":1,"block":1,"trial":105,"robot":3,"valence":"lose","action":"go","sham":0,"trial_type":"pit-trial","trial_index":118,"time_elapsed":640736,"internal_node_id":"0.0-107.0","task_version":"battery-v0.1"},{"rune":"Q","hex":"#f73b6a7A","correct":-1,"choice":-1,"rt":-1,"accuracy":1,"outcome":"-1","keys":[],"total_keys":0,"block":1,"trial":106,"robot":4,"valence":"lose","action":"no-go","sham":0,"trial_type":"pit-trial","trial_index":119,"time_elapsed":644745,"internal_node_id":"0.0-108.0","task_version":"battery-v0.1"},{"rune":"Z","hex":"#f73b6a7A","correct":32,"choice":32,"rt":932.0149999693967,"accuracy":1,"outcome":"-1","keys":[2432.1449999697506],"total_keys":1,"block":1,"trial":107,"robot":3,"valence":"lose","action":"go","sham":0,"trial_type":"pit-trial","trial_index":120,"time_elapsed":648385,"internal_node_id":"0.0-109.0","task_version":"battery-v0.1"},{"rune":"D","hex":"#3366ff99","correct":-1,"choice":32,"rt":858.1849999609403,"accuracy":0,"outcome":"+10","keys":[2359.040000010282],"total_keys":1,"block":1,"trial":108,"robot":2,"valence":"win","action":"no-go","sham":1,"trial_type":"pit-trial","trial_index":121,"time_elapsed":651952,"internal_node_id":"0.0-110.0","task_version":"battery-v0.1"},{"rune":"Q","hex":"#f73b6a7A","correct":-1,"choice":-1,"rt":-1,"accuracy":1,"outcome":"-1","keys":[],"total_keys":0,"block":1,"trial":109,"robot":4,"valence":"lose","action":"no-go","sham":0,"trial_type":"pit-trial","trial_index":122,"time_elapsed":655961,"internal_node_id":"0.0-111.0","task_version":"battery-v0.1"},{"rune":"D","hex":"#3366ff99","correct":-1,"choice":32,"rt":674.0950000239536,"accuracy":0,"outcome":"+10","keys":[2175.100000051316],"total_keys":1,"block":1,"trial":110,"robot":2,"valence":"win","action":"no-go","sham":1,"trial_type":"pit-trial","trial_index":123,"time_elapsed":659344,"internal_node_id":"0.0-112.0","task_version":"battery-v0.1"},{"rune":"Z","hex":"#f73b6a7A","correct":32,"choice":-1,"rt":-1,"accuracy":0,"outcome":"-10","keys":[],"total_keys":0,"block":1,"trial":111,"robot":3,"valence":"lose","action":"go","sham":0,"trial_type":"pit-trial","trial_index":124,"time_elapsed":663353,"internal_node_id":"0.0-113.0","task_version":"battery-v0.1"},{"rune":"S","hex":"#f73b6a7A","correct":32,"choice":32,"rt":877.1699999924749,"accuracy":1,"outcome":"-1","keys":[2377.784999960568],"total_keys":1,"block":1,"trial":112,"robot":3,"valence":"lose","action":"go","sham":0,"trial_type":"pit-trial","trial_index":125,"time_elapsed":666951,"internal_node_id":"0.0-114.0","task_version":"battery-v0.1"},{"rune":"D","hex":"#3366ff99","correct":-1,"choice":32,"rt":635.3900000103749,"accuracy":0,"outcome":"+10","keys":[2135.9449999872595],"total_keys":1,"block":1,"trial":113,"robot":2,"valence":"win","action":"no-go","sham":1,"trial_type":"pit-trial","trial_index":126,"time_elapsed":670296,"internal_node_id":"0.0-115.0","task_version":"battery-v0.1"},{"rune":"S","hex":"#f73b6a7A","correct":32,"choice":32,"rt":819.4600000279024,"accuracy":1,"outcome":"-1","keys":[2319.5200000191107],"total_keys":1,"block":1,"trial":114,"robot":3,"valence":"lose","action":"go","sham":0,"trial_type":"pit-trial","trial_index":127,"time_elapsed":673823,"internal_node_id":"0.0-116.0","task_version":"battery-v0.1"},{"rune":"Q","hex":"#f73b6a7A","correct":-1,"choice":32,"rt":643.3899999829009,"accuracy":0,"outcome":"-10","keys":[2144.395000010263],"total_keys":1,"block":1,"trial":115,"robot":4,"valence":"lose","action":"no-go","sham":0,"trial_type":"pit-trial","trial_index":128,"time_elapsed":677175,"internal_node_id":"0.0-117.0","task_version":"battery-v0.1"},{"rune":"Z","hex":"#f73b6a7A","correct":32,"choice":-1,"rt":-1,"accuracy":0,"outcome":"-1","keys":[],"total_keys":0,"block":1,"trial":116,"robot":3,"valence":"lose","action":"go","sham":1,"trial_type":"pit-trial","trial_index":129,"time_elapsed":681184,"internal_node_id":"0.0-118.0","task_version":"battery-v0.1"},{"rune":"Z","hex":"#f73b6a7A","correct":32,"choice":-1,"rt":-1,"accuracy":0,"outcome":"-10","keys":[],"total_keys":0,"block":1,"trial":117,"robot":3,"valence":"lose","action":"go","sham":0,"trial_type":"pit-trial","trial_index":130,"time_elapsed":685192,"internal_node_id":"0.0-119.0","task_version":"battery-v0.1"},{"rune":"D","hex":"#3366ff99","correct":-1,"choice":32,"rt":674.4649999891408,"accuracy":0,"outcome":"+1","keys":[2175.390000047628],"total_keys":1,"block":1,"trial":118,"robot":2,"valence":"win","action":"no-go","sham":0,"trial_type":"pit-trial","trial_index":131,"time_elapsed":688575,"internal_node_id":"0.0-120.0","task_version":"battery-v0.1"},{"rune":"S","hex":"#f73b6a7A","correct":32,"choice":-1,"rt":-1,"accuracy":0,"outcome":"-10","keys":[],"total_keys":0,"block":1,"trial":119,"robot":3,"valence":"lose","action":"go","sham":0,"trial_type":"pit-trial","trial_index":132,"time_elapsed":692581,"internal_node_id":"0.0-121.0","task_version":"battery-v0.1"},{"rune":"Q","hex":"#f73b6a7A","correct":-1,"choice":-1,"rt":-1,"accuracy":1,"outcome":"-1","keys":[],"total_keys":0,"block":1,"trial":120,"robot":4,"valence":"lose","action":"no-go","sham":0,"trial_type":"pit-trial","trial_index":133,"time_elapsed":696592,"internal_node_id":"0.0-122.0","task_version":"battery-v0.1"},{"view_history":"[{\"page_index\":0,\"viewing_time\":27352.66000003321},{\"page_index\":1,\"viewing_time\":5523.704999999609}]","rt":32877.22500000382,"trial_type":"pit-instructions","trial_index":134,"time_elapsed":729476,"internal_node_id":"0.0-123.0","task_version":"battery-v0.1"},{"rune":"E","hex":"#3366ff99","correct":32,"choice":32,"rt":595.229999977164,"accuracy":1,"outcome":"+10","keys":[2096.2350000045262],"total_keys":1,"block":2,"trial":121,"robot":1,"valence":"win","action":"go","sham":0,"trial_type":"pit-trial","trial_index":135,"time_elapsed":732783,"internal_node_id":"0.0-124.0","task_version":"battery-v0.1"},{"rune":"X","hex":"#f73b6a7A","correct":-1,"choice":32,"rt":140.4150000307709,"accuracy":0,"outcome":"-10","keys":[1641.345000010915],"total_keys":1,"block":2,"trial":122,"robot":4,"valence":"lose","action":"no-go","sham":0,"trial_type":"pit-trial","trial_index":136,"time_elapsed":735631,"internal_node_id":"0.0-125.0","task_version":"battery-v0.1"},{"rune":"G","hex":"#3366ff99","correct":-1,"choice":32,"rt":532.4799999943934,"accuracy":0,"outcome":"+10","keys":[2032.6449999702163],"total_keys":1,"block":2,"trial":123,"robot":2,"valence":"win","action":"no-go","sham":1,"trial_type":"pit-trial","trial_index":137,"time_elapsed":738871,"internal_node_id":"0.0-126.0","task_version":"battery-v0.1"},{"rune":"I","hex":"#f73b6a7A","correct":-1,"choice":-1,"rt":-1,"accuracy":1,"outcome":"-1","keys":[],"total_keys":0,"block":2,"trial":124,"robot":4,"valence":"lose","action":"no-go","sham":0,"trial_type":"pit-trial","trial_index":138,"time_elapsed":742879,"internal_node_id":"0.0-127.0","task_version":"battery-v0.1"},{"rune":"I","hex":"#f73b6a7A","correct":-1,"choice":-1,"rt":-1,"accuracy":1,"outcome":"-1","keys":[],"total_keys":0,"block":2,"trial":125,"robot":4,"valence":"lose","action":"no-go","sham":0,"trial_type":"pit-trial","trial_index":139,"time_elapsed":746888,"internal_node_id":"0.0-128.0","task_version":"battery-v0.1"},{"rune":"E","hex":"#3366ff99","correct":32,"choice":32,"rt":572.4199999822304,"accuracy":1,"outcome":"+10","keys":[2074.205000011716],"total_keys":1,"block":2,"trial":126,"robot":1,"valence":"win","action":"go","sham":0,"trial_type":"pit-trial","trial_index":140,"time_elapsed":750167,"internal_node_id":"0.0-129.0","task_version":"battery-v0.1"},{"rune":"G","hex":"#3366ff99","correct":-1,"choice":32,"rt":675.4049999872223,"accuracy":0,"outcome":"+1","keys":[2175.5600000033155],"total_keys":1,"block":2,"trial":127,"robot":2,"valence":"win","action":"no-go","sham":0,"trial_type":"pit-trial","trial_index":141,"time_elapsed":753550,"internal_node_id":"0.0-130.0","task_version":"battery-v0.1"},{"rune":"X","hex":"#f73b6a7A","correct":-1,"choice":-1,"rt":-1,"accuracy":1,"outcome":"-1","keys":[],"total_keys":0,"block":2,"trial":128,"robot":4,"valence":"lose","action":"no-go","sham":0,"trial_type":"pit-trial","trial_index":142,"time_elapsed":757561,"internal_node_id":"0.0-131.0","task_version":"battery-v0.1"},{"rune":"E","hex":"#3366ff99","correct":32,"choice":32,"rt":603.5999999730848,"accuracy":1,"outcome":"+10","keys":[2103.6450000246987],"total_keys":1,"block":2,"trial":129,"robot":1,"valence":"win","action":"go","sham":0,"trial_type":"pit-trial","trial_index":143,"time_elapsed":760872,"internal_node_id":"0.0-132.0","task_version":"battery-v0.1"},{"rune":"G","hex":"#3366ff99","correct":-1,"choice":32,"rt":762.9749999614432,"accuracy":0,"outcome":"+10","keys":[2263.919999997597],"total_keys":1,"block":2,"trial":130,"robot":2,"valence":"win","action":"no-go","sham":1,"trial_type":"pit-trial","trial_index":144,"time_elapsed":764344,"internal_node_id":"0.0-133.0","task_version":"battery-v0.1"},{"rune":"X","hex":"#f73b6a7A","correct":-1,"choice":32,"rt":866.8649999890476,"accuracy":0,"outcome":"-1","keys":[2367.634999973234],"total_keys":1,"block":2,"trial":131,"robot":4,"valence":"lose","action":"no-go","sham":1,"trial_type":"pit-trial","trial_index":145,"time_elapsed":767920,"internal_node_id":"0.0-134.0","task_version":"battery-v0.1"},{"rune":"I","hex":"#f73b6a7A","correct":-1,"choice":-1,"rt":-1,"accuracy":1,"outcome":"-10","keys":[],"total_keys":0,"block":2,"trial":132,"robot":4,"valence":"lose","action":"no-go","sham":1,"trial_type":"pit-trial","trial_index":146,"time_elapsed":771929,"internal_node_id":"0.0-135.0","task_version":"battery-v0.1"},{"rune":"I","hex":"#f73b6a7A","correct":-1,"choice":32,"rt":803.0799999833107,"accuracy":0,"outcome":"-10","keys":[2304.035000037402],"total_keys":1,"block":2,"trial":133,"robot":4,"valence":"lose","action":"no-go","sham":0,"trial_type":"pit-trial","trial_index":147,"time_elapsed":775440,"internal_node_id":"0.0-136.0","task_version":"battery-v0.1"},{"rune":"E","hex":"#3366ff99","correct":32,"choice":32,"rt":605.855000030715,"accuracy":1,"outcome":"+10","keys":[2106.2549999915063],"total_keys":1,"block":2,"trial":134,"robot":1,"valence":"win","action":"go","sham":0,"trial_type":"pit-trial","trial_index":148,"time_elapsed":778752,"internal_node_id":"0.0-137.0","task_version":"battery-v0.1"},{"rune":"G","hex":"#3366ff99","correct":-1,"choice":32,"rt":466.9100000173785,"accuracy":0,"outcome":"+1","keys":[1967.5850000348873],"total_keys":1,"block":2,"trial":135,"robot":2,"valence":"win","action":"no-go","sham":0,"trial_type":"pit-trial","trial_index":149,"time_elapsed":781928,"internal_node_id":"0.0-138.0","task_version":"battery-v0.1"},{"rune":"X","hex":"#f73b6a7A","correct":-1,"choice":32,"rt":963.114999991376,"accuracy":0,"outcome":"-10","keys":[2463.96000002278],"total_keys":1,"block":2,"trial":136,"robot":4,"valence":"lose","action":"no-go","sham":0,"trial_type":"pit-trial","trial_index":150,"time_elapsed":785600,"internal_node_id":"0.0-139.0","task_version":"battery-v0.1"},{"rune":"G","hex":"#3366ff99","correct":-1,"choice":32,"rt":770.0099999783561,"accuracy":0,"outcome":"+1","keys":[2270.829999994021],"total_keys":1,"block":2,"trial":137,"robot":2,"valence":"win","action":"no-go","sham":0,"trial_type":"pit-trial","trial_index":151,"time_elapsed":789079,"internal_node_id":"0.0-140.0","task_version":"battery-v0.1"},{"rune":"I","hex":"#f73b6a7A","correct":-1,"choice":-1,"rt":-1,"accuracy":1,"outcome":"-1","keys":[],"total_keys":0,"block":2,"trial":138,"robot":4,"valence":"lose","action":"no-go","sham":0,"trial_type":"pit-trial","trial_index":152,"time_elapsed":793087,"internal_node_id":"0.0-141.0","task_version":"battery-v0.1"},{"rune":"X","hex":"#f73b6a7A","correct":-1,"choice":32,"rt":923.175000003539,"accuracy":0,"outcome":"-10","keys":[2423.4200000064448],"total_keys":1,"block":2,"trial":139,"robot":4,"valence":"lose","action":"no-go","sham":0,"trial_type":"pit-trial","trial_index":153,"time_elapsed":796719,"internal_node_id":"0.0-142.0","task_version":"battery-v0.1"},{"rune":"E","hex":"#3366ff99","correct":32,"choice":32,"rt":579.5800000196323,"accuracy":1,"outcome":"+1","keys":[2079.695000022184],"total_keys":1,"block":2,"trial":140,"robot":1,"valence":"win","action":"go","sham":1,"trial_type":"pit-trial","trial_index":154,"time_elapsed":800006,"internal_node_id":"0.0-143.0","task_version":"battery-v0.1"},{"rune":"X","hex":"#f73b6a7A","correct":-1,"choice":32,"rt":1027.4499999941327,"accuracy":0,"outcome":"-1","keys":[2528.1900000409223],"total_keys":1,"block":2,"trial":141,"robot":4,"valence":"lose","action":"no-go","sham":1,"trial_type":"pit-trial","trial_index":155,"time_elapsed":803743,"internal_node_id":"0.0-144.0","task_version":"battery-v0.1"},{"rune":"G","hex":"#3366ff99","correct":-1,"choice":32,"rt":723.5250000376254,"accuracy":0,"outcome":"+1","keys":[2223.7350000068545],"total_keys":1,"block":2,"trial":142,"robot":2,"valence":"win","action":"no-go","sham":0,"trial_type":"pit-trial","trial_index":156,"time_elapsed":807175,"internal_node_id":"0.0-145.0","task_version":"battery-v0.1"},{"rune":"E","hex":"#3366ff99","correct":32,"choice":32,"rt":611.9499999913387,"accuracy":1,"outcome":"+1","keys":[2111.99000000488],"total_keys":1,"block":2,"trial":143,"robot":1,"valence":"win","action":"go","sham":1,"trial_type":"pit-trial","trial_index":157,"time_elapsed":810495,"internal_node_id":"0.0-146.0","task_version":"battery-v0.1"},{"rune":"I","hex":"#f73b6a7A","correct":-1,"choice":-1,"rt":-1,"accuracy":1,"outcome":"-1","keys":[],"total_keys":0,"block":2,"trial":144,"robot":4,"valence":"lose","action":"no-go","sham":0,"trial_type":"pit-trial","trial_index":158,"time_elapsed":814503,"internal_node_id":"0.0-147.0","task_version":"battery-v0.1"},{"rune":"G","hex":"#3366ff99","correct":-1,"choice":32,"rt":563.1399999838322,"accuracy":0,"outcome":"+1","keys":[2064.0450000064448],"total_keys":1,"block":2,"trial":145,"robot":2,"valence":"win","action":"no-go","sham":0,"trial_type":"pit-trial","trial_index":159,"time_elapsed":817777,"internal_node_id":"0.0-148.0","task_version":"battery-v0.1"},{"rune":"E","hex":"#3366ff99","correct":32,"choice":32,"rt":594.184999994468,"accuracy":1,"outcome":"+10","keys":[2095.0949999969453],"total_keys":1,"block":2,"trial":146,"robot":1,"valence":"win","action":"go","sham":0,"trial_type":"pit-trial","trial_index":160,"time_elapsed":821080,"internal_node_id":"0.0-149.0","task_version":"battery-v0.1"},{"rune":"X","hex":"#f73b6a7A","correct":-1,"choice":-1,"rt":-1,"accuracy":1,"outcome":"-1","keys":[],"total_keys":0,"block":2,"trial":147,"robot":4,"valence":"lose","action":"no-go","sham":0,"trial_type":"pit-trial","trial_index":161,"time_elapsed":825089,"internal_node_id":"0.0-150.0","task_version":"battery-v0.1"},{"rune":"I","hex":"#f73b6a7A","correct":-1,"choice":-1,"rt":-1,"accuracy":1,"outcome":"-1","keys":[],"total_keys":0,"block":2,"trial":148,"robot":4,"valence":"lose","action":"no-go","sham":0,"trial_type":"pit-trial","trial_index":162,"time_elapsed":829098,"internal_node_id":"0.0-151.0","task_version":"battery-v0.1"},{"rune":"E","hex":"#3366ff99","correct":32,"choice":32,"rt":464.7700000205077,"accuracy":1,"outcome":"+10","keys":[1965.6500000273809],"total_keys":1,"block":2,"trial":149,"robot":1,"valence":"win","action":"go","sham":0,"trial_type":"pit-trial","trial_index":163,"time_elapsed":832271,"internal_node_id":"0.0-152.0","task_version":"battery-v0.1"},{"rune":"I","hex":"#f73b6a7A","correct":-1,"choice":-1,"rt":-1,"accuracy":1,"outcome":"-1","keys":[],"total_keys":0,"block":2,"trial":150,"robot":4,"valence":"lose","action":"no-go","sham":0,"trial_type":"pit-trial","trial_index":164,"time_elapsed":836280,"internal_node_id":"0.0-153.0","task_version":"battery-v0.1"},{"rune":"G","hex":"#3366ff99","correct":-1,"choice":32,"rt":641.9899999746121,"accuracy":0,"outcome":"+1","keys":[2142.8699999814853],"total_keys":1,"block":2,"trial":151,"robot":2,"valence":"win","action":"no-go","sham":0,"trial_type":"pit-trial","trial_index":165,"time_elapsed":839631,"internal_node_id":"0.0-154.0","task_version":"battery-v0.1"},{"rune":"X","hex":"#f73b6a7A","correct":-1,"choice":-1,"rt":-1,"accuracy":1,"outcome":"-1","keys":[],"total_keys":0,"block":2,"trial":152,"robot":4,"valence":"lose","action":"no-go","sham":0,"trial_type":"pit-trial","trial_index":166,"time_elapsed":843640,"internal_node_id":"0.0-155.0","task_version":"battery-v0.1"},{"rune":"X","hex":"#f73b6a7A","correct":-1,"choice":-1,"rt":-1,"accuracy":1,"outcome":"-10","keys":[],"total_keys":0,"block":2,"trial":153,"robot":4,"valence":"lose","action":"no-go","sham":1,"trial_type":"pit-trial","trial_index":167,"time_elapsed":847649,"internal_node_id":"0.0-156.0","task_version":"battery-v0.1"},{"rune":"G","hex":"#3366ff99","correct":-1,"choice":32,"rt":544.7750000166707,"accuracy":0,"outcome":"+10","keys":[2045.5399999627843],"total_keys":1,"block":2,"trial":154,"robot":2,"valence":"win","action":"no-go","sham":1,"trial_type":"pit-trial","trial_index":168,"time_elapsed":850903,"internal_node_id":"0.0-157.0","task_version":"battery-v0.1"},{"rune":"E","hex":"#3366ff99","correct":32,"choice":32,"rt":698.9199999952689,"accuracy":1,"outcome":"+10","keys":[2199.8400000156835],"total_keys":1,"block":2,"trial":155,"robot":1,"valence":"win","action":"go","sham":0,"trial_type":"pit-trial","trial_index":169,"time_elapsed":854311,"internal_node_id":"0.0-158.0","task_version":"battery-v0.1"},{"rune":"J","hex":"#f73b6a7A","correct":32,"choice":-1,"rt":-1,"accuracy":0,"outcome":"-10","keys":[],"total_keys":0,"block":2,"trial":156,"robot":3,"valence":"lose","action":"go","sham":0,"trial_type":"pit-trial","trial_index":170,"time_elapsed":858320,"internal_node_id":"0.0-159.0","task_version":"battery-v0.1"},{"rune":"E","hex":"#3366ff99","correct":32,"choice":32,"rt":730.0449999747798,"accuracy":1,"outcome":"+10","keys":[2230.985000031069],"total_keys":1,"block":2,"trial":157,"robot":1,"valence":"win","action":"go","sham":0,"trial_type":"pit-trial","trial_index":171,"time_elapsed":861759,"internal_node_id":"0.0-160.0","task_version":"battery-v0.1"},{"rune":"G","hex":"#3366ff99","correct":-1,"choice":32,"rt":883.3100000047125,"accuracy":0,"outcome":"+1","keys":[2383.3149999845773],"total_keys":1,"block":2,"trial":158,"robot":2,"valence":"win","action":"no-go","sham":0,"trial_type":"pit-trial","trial_index":172,"time_elapsed":865350,"internal_node_id":"0.0-161.0","task_version":"battery-v0.1"},{"rune":"X","hex":"#f73b6a7A","correct":-1,"choice":-1,"rt":-1,"accuracy":1,"outcome":"-1","keys":[],"total_keys":0,"block":2,"trial":159,"robot":4,"valence":"lose","action":"no-go","sham":0,"trial_type":"pit-trial","trial_index":173,"time_elapsed":869359,"internal_node_id":"0.0-162.0","task_version":"battery-v0.1"},{"rune":"J","hex":"#f73b6a7A","correct":32,"choice":-1,"rt":-1,"accuracy":0,"outcome":"-10","keys":[],"total_keys":0,"block":2,"trial":160,"robot":3,"valence":"lose","action":"go","sham":0,"trial_type":"pit-trial","trial_index":174,"time_elapsed":873367,"internal_node_id":"0.0-163.0","task_version":"battery-v0.1"},{"rune":"L","hex":"#3366ff99","correct":-1,"choice":32,"rt":834.5449999906123,"accuracy":0,"outcome":"+1","keys":[2334.595000022091],"total_keys":1,"block":2,"trial":161,"robot":2,"valence":"win","action":"no-go","sham":0,"trial_type":"pit-trial","trial_index":175,"time_elapsed":876910,"internal_node_id":"0.0-164.0","task_version":"battery-v0.1"},{"rune":"X","hex":"#f73b6a7A","correct":-1,"choice":-1,"rt":-1,"accuracy":1,"outcome":"-1","keys":[],"total_keys":0,"block":2,"trial":162,"robot":4,"valence":"lose","action":"no-go","sham":0,"trial_type":"pit-trial","trial_index":176,"time_elapsed":880919,"internal_node_id":"0.0-165.0","task_version":"battery-v0.1"},{"rune":"B","hex":"#3366ff99","correct":32,"choice":32,"rt":890.1799999875948,"accuracy":1,"outcome":"+1","keys":[2391.044999996666],"total_keys":1,"block":2,"trial":163,"robot":1,"valence":"win","action":"go","sham":1,"trial_type":"pit-trial","trial_index":177,"time_elapsed":884518,"internal_node_id":"0.0-166.0","task_version":"battery-v0.1"},{"rune":"J","hex":"#f73b6a7A","correct":32,"choice":-1,"rt":-1,"accuracy":0,"outcome":"-1","keys":[],"total_keys":0,"block":2,"trial":164,"robot":3,"valence":"lose","action":"go","sham":1,"trial_type":"pit-trial","trial_index":178,"time_elapsed":888527,"internal_node_id":"0.0-167.0","task_version":"battery-v0.1"},{"rune":"X","hex":"#f73b6a7A","correct":-1,"choice":-1,"rt":-1,"accuracy":1,"outcome":"-1","keys":[],"total_keys":0,"block":2,"trial":165,"robot":4,"valence":"lose","action":"no-go","sham":0,"trial_type":"pit-trial","trial_index":179,"time_elapsed":892534,"internal_node_id":"0.0-168.0","task_version":"battery-v0.1"},{"rune":"B","hex":"#3366ff99","correct":32,"choice":32,"rt":566.2099999608472,"accuracy":1,"outcome":"+10","keys":[2067.2100000083447],"total_keys":1,"block":2,"trial":166,"robot":1,"valence":"win","action":"go","sham":0,"trial_type":"pit-trial","trial_index":180,"time_elapsed":895807,"internal_node_id":"0.0-169.0","task_version":"battery-v0.1"},{"rune":"L","hex":"#3366ff99","correct":-1,"choice":32,"rt":785.8899999991991,"accuracy":0,"outcome":"+1","keys":[2286.870000010822],"total_keys":1,"block":2,"trial":167,"robot":2,"valence":"win","action":"no-go","sham":0,"trial_type":"pit-trial","trial_index":181,"time_elapsed":899302,"internal_node_id":"0.0-170.0","task_version":"battery-v0.1"},{"rune":"J","hex":"#f73b6a7A","correct":32,"choice":-1,"rt":-1,"accuracy":0,"outcome":"-10","keys":[],"total_keys":0,"block":2,"trial":168,"robot":3,"valence":"lose","action":"go","sham":0,"trial_type":"pit-trial","trial_index":182,"time_elapsed":903311,"internal_node_id":"0.0-171.0","task_version":"battery-v0.1"},{"rune":"C","hex":"#f73b6a7A","correct":-1,"choice":-1,"rt":-1,"accuracy":1,"outcome":"-1","keys":[],"total_keys":0,"block":2,"trial":169,"robot":4,"valence":"lose","action":"no-go","sham":0,"trial_type":"pit-trial","trial_index":183,"time_elapsed":907319,"internal_node_id":"0.0-172.0","task_version":"battery-v0.1"},{"rune":"L","hex":"#3366ff99","correct":-1,"choice":32,"rt":620.9500000113621,"accuracy":0,"outcome":"+1","keys":[2121.655000024475],"total_keys":1,"block":2,"trial":170,"robot":2,"valence":"win","action":"no-go","sham":0,"trial_type":"pit-trial","trial_index":184,"time_elapsed":910646,"internal_node_id":"0.0-173.0","task_version":"battery-v0.1"},{"rune":"B","hex":"#3366ff99","correct":32,"choice":32,"rt":458.24999996693805,"accuracy":1,"outcome":"+1","keys":[1958.9350000023842],"total_keys":1,"block":2,"trial":171,"robot":1,"valence":"win","action":"go","sham":1,"trial_type":"pit-trial","trial_index":185,"time_elapsed":913813,"internal_node_id":"0.0-174.0","task_version":"battery-v0.1"},{"rune":"J","hex":"#f73b6a7A","correct":32,"choice":-1,"rt":-1,"accuracy":0,"outcome":"-10","keys":[],"total_keys":0,"block":2,"trial":172,"robot":3,"valence":"lose","action":"go","sham":0,"trial_type":"pit-trial","trial_index":186,"time_elapsed":917821,"internal_node_id":"0.0-175.0","task_version":"battery-v0.1"},{"rune":"L","hex":"#3366ff99","correct":-1,"choice":32,"rt":932.2449999745004,"accuracy":0,"outcome":"+1","keys":[2432.26000003051],"total_keys":1,"block":2,"trial":173,"robot":2,"valence":"win","action":"no-go","sham":0,"trial_type":"pit-trial","trial_index":187,"time_elapsed":921462,"internal_node_id":"0.0-176.0","task_version":"battery-v0.1"},{"rune":"C","hex":"#f73b6a7A","correct":-1,"choice":-1,"rt":-1,"accuracy":1,"outcome":"-1","keys":[],"total_keys":0,"block":2,"trial":174,"robot":4,"valence":"lose","action":"no-go","sham":0,"trial_type":"pit-trial","trial_index":188,"time_elapsed":925471,"internal_node_id":"0.0-177.0","task_version":"battery-v0.1"},{"rune":"B","hex":"#3366ff99","correct":32,"choice":32,"rt":657.3850000277162,"accuracy":1,"outcome":"+10","keys":[2158.354999963194],"total_keys":1,"block":2,"trial":175,"robot":1,"valence":"win","action":"go","sham":0,"trial_type":"pit-trial","trial_index":189,"time_elapsed":928837,"internal_node_id":"0.0-178.0","task_version":"battery-v0.1"},{"rune":"J","hex":"#f73b6a7A","correct":32,"choice":-1,"rt":-1,"accuracy":0,"outcome":"-1","keys":[],"total_keys":0,"block":2,"trial":176,"robot":3,"valence":"lose","action":"go","sham":1,"trial_type":"pit-trial","trial_index":190,"time_elapsed":932846,"internal_node_id":"0.0-179.0","task_version":"battery-v0.1"},{"rune":"J","hex":"#f73b6a7A","correct":32,"choice":-1,"rt":-1,"accuracy":0,"outcome":"-10","keys":[],"total_keys":0,"block":2,"trial":177,"robot":3,"valence":"lose","action":"go","sham":0,"trial_type":"pit-trial","trial_index":191,"time_elapsed":936856,"internal_node_id":"0.0-180.0","task_version":"battery-v0.1"},{"rune":"B","hex":"#3366ff99","correct":32,"choice":32,"rt":561.0500000184402,"accuracy":1,"outcome":"+1","keys":[2061.3049999810755],"total_keys":1,"block":2,"trial":178,"robot":1,"valence":"win","action":"go","sham":1,"trial_type":"pit-trial","trial_index":192,"time_elapsed":940126,"internal_node_id":"0.0-181.0","task_version":"battery-v0.1"},{"rune":"L","hex":"#3366ff99","correct":-1,"choice":32,"rt":590.2149999747053,"accuracy":0,"outcome":"+1","keys":[2090.265000006184],"total_keys":1,"block":2,"trial":179,"robot":2,"valence":"win","action":"no-go","sham":0,"trial_type":"pit-trial","trial_index":193,"time_elapsed":943422,"internal_node_id":"0.0-182.0","task_version":"battery-v0.1"},{"rune":"C","hex":"#f73b6a7A","correct":-1,"choice":32,"rt":892.1299999929033,"accuracy":0,"outcome":"-10","keys":[2392.1749999863096],"total_keys":1,"block":2,"trial":180,"robot":4,"valence":"lose","action":"no-go","sham":0,"trial_type":"pit-trial","trial_index":194,"time_elapsed":947022,"internal_node_id":"0.0-183.0","task_version":"battery-v0.1"},{"rune":"C","hex":"#f73b6a7A","correct":-1,"choice":-1,"rt":-1,"accuracy":1,"outcome":"-10","keys":[],"total_keys":0,"block":2,"trial":181,"robot":4,"valence":"lose","action":"no-go","sham":1,"trial_type":"pit-trial","trial_index":195,"time_elapsed":951030,"internal_node_id":"0.0-184.0","task_version":"battery-v0.1"},{"rune":"J","hex":"#f73b6a7A","correct":32,"choice":-1,"rt":-1,"accuracy":0,"outcome":"-1","keys":[],"total_keys":0,"block":2,"trial":182,"robot":3,"valence":"lose","action":"go","sham":1,"trial_type":"pit-trial","trial_index":196,"time_elapsed":955038,"internal_node_id":"0.0-185.0","task_version":"battery-v0.1"},{"rune":"B","hex":"#3366ff99","correct":32,"choice":32,"rt":490.62499997671694,"accuracy":1,"outcome":"+1","keys":[1991.5299999993294],"total_keys":1,"block":2,"trial":183,"robot":1,"valence":"win","action":"go","sham":1,"trial_type":"pit-trial","trial_index":197,"time_elapsed":958237,"internal_node_id":"0.0-186.0","task_version":"battery-v0.1"},{"rune":"L","hex":"#3366ff99","correct":-1,"choice":-1,"rt":-1,"accuracy":1,"outcome":"+10","keys":[],"total_keys":0,"block":2,"trial":184,"robot":2,"valence":"win","action":"no-go","sham":0,"trial_type":"pit-trial","trial_index":198,"time_elapsed":962246,"internal_node_id":"0.0-187.0","task_version":"battery-v0.1"},{"rune":"B","hex":"#3366ff99","correct":32,"choice":32,"rt":738.7250000028871,"accuracy":1,"outcome":"+10","keys":[2238.8800000189804],"total_keys":1,"block":2,"trial":185,"robot":1,"valence":"win","action":"go","sham":0,"trial_type":"pit-trial","trial_index":199,"time_elapsed":965692,"internal_node_id":"0.0-188.0","task_version":"battery-v0.1"},{"rune":"C","hex":"#f73b6a7A","correct":-1,"choice":-1,"rt":-1,"accuracy":1,"outcome":"-1","keys":[],"total_keys":0,"block":2,"trial":186,"robot":4,"valence":"lose","action":"no-go","sham":0,"trial_type":"pit-trial","trial_index":200,"time_elapsed":969700,"internal_node_id":"0.0-189.0","task_version":"battery-v0.1"},{"rune":"L","hex":"#3366ff99","correct":-1,"choice":32,"rt":755.7450000313111,"accuracy":0,"outcome":"+1","keys":[2256.475000001956],"total_keys":1,"block":2,"trial":187,"robot":2,"valence":"win","action":"no-go","sham":0,"trial_type":"pit-trial","trial_index":201,"time_elapsed":973165,"internal_node_id":"0.0-190.0","task_version":"battery-v0.1"},{"rune":"J","hex":"#f73b6a7A","correct":32,"choice":-1,"rt":-1,"accuracy":0,"outcome":"-10","keys":[],"total_keys":0,"block":2,"trial":188,"robot":3,"valence":"lose","action":"go","sham":0,"trial_type":"pit-trial","trial_index":202,"time_elapsed":977173,"internal_node_id":"0.0-191.0","task_version":"battery-v0.1"},{"rune":"J","hex":"#f73b6a7A","correct":32,"choice":-1,"rt":-1,"accuracy":0,"outcome":"-10","keys":[],"total_keys":0,"block":2,"trial":189,"robot":3,"valence":"lose","action":"go","sham":0,"trial_type":"pit-trial","trial_index":203,"time_elapsed":981182,"internal_node_id":"0.0-192.0","task_version":"battery-v0.1"},{"rune":"L","hex":"#3366ff99","correct":-1,"choice":32,"rt":658.3550000214018,"accuracy":0,"outcome":"+10","keys":[2159.0500000165775],"total_keys":1,"block":2,"trial":190,"robot":2,"valence":"win","action":"no-go","sham":1,"trial_type":"pit-trial","trial_index":204,"time_elapsed":984549,"internal_node_id":"0.0-193.0","task_version":"battery-v0.1"},{"rune":"C","hex":"#f73b6a7A","correct":-1,"choice":32,"rt":914.5200000493787,"accuracy":0,"outcome":"-10","keys":[2415.114999981597],"total_keys":1,"block":2,"trial":191,"robot":4,"valence":"lose","action":"no-go","sham":0,"trial_type":"pit-trial","trial_index":205,"time_elapsed":988172,"internal_node_id":"0.0-194.0","task_version":"battery-v0.1"},{"rune":"B","hex":"#3366ff99","correct":32,"choice":32,"rt":732.2750000166707,"accuracy":1,"outcome":"+10","keys":[2232.404999958817],"total_keys":1,"block":2,"trial":192,"robot":1,"valence":"win","action":"go","sham":0,"trial_type":"pit-trial","trial_index":206,"time_elapsed":991612,"internal_node_id":"0.0-195.0","task_version":"battery-v0.1"},{"rune":"M","hex":"#f73b6a7A","correct":32,"choice":-1,"rt":-1,"accuracy":0,"outcome":"-10","keys":[],"total_keys":0,"block":2,"trial":193,"robot":3,"valence":"lose","action":"go","sham":0,"trial_type":"pit-trial","trial_index":207,"time_elapsed":995620,"internal_node_id":"0.0-196.0","task_version":"battery-v0.1"},{"rune":"C","hex":"#f73b6a7A","correct":-1,"choice":-1,"rt":-1,"accuracy":1,"outcome":"-1","keys":[],"total_keys":0,"block":2,"trial":194,"robot":4,"valence":"lose","action":"no-go","sham":0,"trial_type":"pit-trial","trial_index":208,"time_elapsed":999631,"internal_node_id":"0.0-197.0","task_version":"battery-v0.1"},{"rune":"L","hex":"#3366ff99","correct":-1,"choice":32,"rt":427.2650000057183,"accuracy":0,"outcome":"+1","keys":[1927.3900000262074],"total_keys":1,"block":2,"trial":195,"robot":2,"valence":"win","action":"no-go","sham":0,"trial_type":"pit-trial","trial_index":209,"time_elapsed":1002766,"internal_node_id":"0.0-198.0","task_version":"battery-v0.1"},{"rune":"K","hex":"#3366ff99","correct":32,"choice":32,"rt":547.0400000340305,"accuracy":1,"outcome":"+10","keys":[2047.130000020843],"total_keys":1,"block":2,"trial":196,"robot":1,"valence":"win","action":"go","sham":0,"trial_type":"pit-trial","trial_index":210,"time_elapsed":1006021,"internal_node_id":"0.0-199.0","task_version":"battery-v0.1"},{"rune":"L","hex":"#3366ff99","correct":-1,"choice":32,"rt":523.4049999853596,"accuracy":0,"outcome":"+10","keys":[2024.3550000013784],"total_keys":1,"block":2,"trial":197,"robot":2,"valence":"win","action":"no-go","sham":1,"trial_type":"pit-trial","trial_index":211,"time_elapsed":1009254,"internal_node_id":"0.0-200.0","task_version":"battery-v0.1"},{"rune":"K","hex":"#3366ff99","correct":32,"choice":32,"rt":499.06999996164814,"accuracy":1,"outcome":"+10","keys":[1999.3799999938346],"total_keys":1,"block":2,"trial":198,"robot":1,"valence":"win","action":"go","sham":0,"trial_type":"pit-trial","trial_index":212,"time_elapsed":1012462,"internal_node_id":"0.0-201.0","task_version":"battery-v0.1"},{"rune":"C","hex":"#f73b6a7A","correct":-1,"choice":-1,"rt":-1,"accuracy":1,"outcome":"-1","keys":[],"total_keys":0,"block":2,"trial":199,"robot":4,"valence":"lose","action":"no-go","sham":0,"trial_type":"pit-trial","trial_index":213,"time_elapsed":1016470,"internal_node_id":"0.0-202.0","task_version":"battery-v0.1"},{"rune":"M","hex":"#f73b6a7A","correct":32,"choice":32,"rt":891.9299999834038,"accuracy":1,"outcome":"-1","keys":[2391.9950000126846],"total_keys":1,"block":2,"trial":200,"robot":3,"valence":"lose","action":"go","sham":0,"trial_type":"pit-trial","trial_index":214,"time_elapsed":1020070,"internal_node_id":"0.0-203.0","task_version":"battery-v0.1"},{"rune":"C","hex":"#f73b6a7A","correct":-1,"choice":-1,"rt":-1,"accuracy":1,"outcome":"-1","keys":[],"total_keys":0,"block":2,"trial":201,"robot":4,"valence":"lose","action":"no-go","sham":0,"trial_type":"pit-trial","trial_index":215,"time_elapsed":1024079,"internal_node_id":"0.0-204.0","task_version":"battery-v0.1"},{"rune":"K","hex":"#3366ff99","correct":32,"choice":32,"rt":682.7349999803118,"accuracy":1,"outcome":"+10","keys":[2183.469999989029],"total_keys":1,"block":2,"trial":202,"robot":1,"valence":"win","action":"go","sham":0,"trial_type":"pit-trial","trial_index":216,"time_elapsed":1027468,"internal_node_id":"0.0-205.0","task_version":"battery-v0.1"},{"rune":"M","hex":"#f73b6a7A","correct":32,"choice":32,"rt":1060.95999997342,"accuracy":1,"outcome":"-10","keys":[2561.2850000034086],"total_keys":1,"block":2,"trial":203,"robot":3,"valence":"lose","action":"go","sham":1,"trial_type":"pit-trial","trial_index":217,"time_elapsed":1031237,"internal_node_id":"0.0-206.0","task_version":"battery-v0.1"},{"rune":"L","hex":"#3366ff99","correct":-1,"choice":32,"rt":634.3999999808148,"accuracy":0,"outcome":"+1","keys":[2135.264999989886],"total_keys":1,"block":2,"trial":204,"robot":2,"valence":"win","action":"no-go","sham":0,"trial_type":"pit-trial","trial_index":218,"time_elapsed":1034580,"internal_node_id":"0.0-207.0","task_version":"battery-v0.1"},{"rune":"M","hex":"#f73b6a7A","correct":32,"choice":32,"rt":963.2650000276044,"accuracy":1,"outcome":"-1","keys":[2464.2349999630824],"total_keys":1,"block":2,"trial":205,"robot":3,"valence":"lose","action":"go","sham":0,"trial_type":"pit-trial","trial_index":219,"time_elapsed":1038252,"internal_node_id":"0.0-208.0","task_version":"battery-v0.1"},{"rune":"K","hex":"#3366ff99","correct":32,"choice":32,"rt":579.5550000038929,"accuracy":1,"outcome":"+10","keys":[2080.2099999855272],"total_keys":1,"block":2,"trial":206,"robot":1,"valence":"win","action":"go","sham":0,"trial_type":"pit-trial","trial_index":220,"time_elapsed":1041541,"internal_node_id":"0.0-209.0","task_version":"battery-v0.1"},{"rune":"L","hex":"#3366ff99","correct":-1,"choice":32,"rt":602.9149999958463,"accuracy":0,"outcome":"+1","keys":[2103.2000000122935],"total_keys":1,"block":2,"trial":207,"robot":2,"valence":"win","action":"no-go","sham":0,"trial_type":"pit-trial","trial_index":221,"time_elapsed":1044853,"internal_node_id":"0.0-210.0","task_version":"battery-v0.1"},{"rune":"C","hex":"#f73b6a7A","correct":-1,"choice":32,"rt":1018.660000001546,"accuracy":0,"outcome":"-10","keys":[2519.4550000014715],"total_keys":1,"block":2,"trial":208,"robot":4,"valence":"lose","action":"no-go","sham":0,"trial_type":"pit-trial","trial_index":222,"time_elapsed":1048580,"internal_node_id":"0.0-211.0","task_version":"battery-v0.1"},{"rune":"W","hex":"#3366ff99","correct":-1,"choice":32,"rt":691.5249999728985,"accuracy":0,"outcome":"+1","keys":[2192.414999997709],"total_keys":1,"block":2,"trial":209,"robot":2,"valence":"win","action":"no-go","sham":0,"trial_type":"pit-trial","trial_index":223,"time_elapsed":1051980,"internal_node_id":"0.0-212.0","task_version":"battery-v0.1"},{"rune":"M","hex":"#f73b6a7A","correct":32,"choice":32,"rt":803.1699999701232,"accuracy":1,"outcome":"-1","keys":[2304.039999959059],"total_keys":1,"block":2,"trial":210,"robot":3,"valence":"lose","action":"go","sham":0,"trial_type":"pit-trial","trial_index":224,"time_elapsed":1055492,"internal_node_id":"0.0-213.0","task_version":"battery-v0.1"},{"rune":"P","hex":"#f73b6a7A","correct":32,"choice":-1,"rt":-1,"accuracy":0,"outcome":"-10","keys":[],"total_keys":0,"block":2,"trial":211,"robot":3,"valence":"lose","action":"go","sham":0,"trial_type":"pit-trial","trial_index":225,"time_elapsed":1059503,"internal_node_id":"0.0-214.0","task_version":"battery-v0.1"},{"rune":"K","hex":"#3366ff99","correct":32,"choice":32,"rt":873.9050000440329,"accuracy":1,"outcome":"+10","keys":[2374.439999985043],"total_keys":1,"block":2,"trial":212,"robot":1,"valence":"win","action":"go","sham":0,"trial_type":"pit-trial","trial_index":226,"time_elapsed":1063085,"internal_node_id":"0.0-215.0","task_version":"battery-v0.1"},{"rune":"W","hex":"#3366ff99","correct":-1,"choice":-1,"rt":-1,"accuracy":1,"outcome":"+10","keys":[],"total_keys":0,"block":2,"trial":213,"robot":2,"valence":"win","action":"no-go","sham":0,"trial_type":"pit-trial","trial_index":227,"time_elapsed":1067094,"internal_node_id":"0.0-216.0","task_version":"battery-v0.1"},{"rune":"P","hex":"#f73b6a7A","correct":32,"choice":-1,"rt":-1,"accuracy":0,"outcome":"-10","keys":[],"total_keys":0,"block":2,"trial":214,"robot":3,"valence":"lose","action":"go","sham":0,"trial_type":"pit-trial","trial_index":228,"time_elapsed":1071103,"internal_node_id":"0.0-217.0","task_version":"battery-v0.1"},{"rune":"M","hex":"#f73b6a7A","correct":32,"choice":32,"rt":1074.3249999941327,"accuracy":1,"outcome":"-10","keys":[2574.345000030007],"total_keys":1,"block":2,"trial":215,"robot":3,"valence":"lose","action":"go","sham":1,"trial_type":"pit-trial","trial_index":229,"time_elapsed":1074885,"internal_node_id":"0.0-218.0","task_version":"battery-v0.1"},{"rune":"K","hex":"#3366ff99","correct":32,"choice":32,"rt":734.5949999871664,"accuracy":1,"outcome":"+10","keys":[2234.8600000259466],"total_keys":1,"block":2,"trial":216,"robot":1,"valence":"win","action":"go","sham":0,"trial_type":"pit-trial","trial_index":230,"time_elapsed":1078325,"internal_node_id":"0.0-219.0","task_version":"battery-v0.1"},{"rune":"P","hex":"#f73b6a7A","correct":32,"choice":32,"rt":1107.5600000331178,"accuracy":1,"outcome":"-10","keys":[2608.4649999975227],"total_keys":1,"block":2,"trial":217,"robot":3,"valence":"lose","action":"go","sham":1,"trial_type":"pit-trial","trial_index":231,"time_elapsed":1082141,"internal_node_id":"0.0-220.0","task_version":"battery-v0.1"},{"rune":"M","hex":"#f73b6a7A","correct":32,"choice":32,"rt":1124.5800000033341,"accuracy":1,"outcome":"-1","keys":[2624.569999985397],"total_keys":1,"block":2,"trial":218,"robot":3,"valence":"lose","action":"go","sham":0,"trial_type":"pit-trial","trial_index":232,"time_elapsed":1085973,"internal_node_id":"0.0-221.0","task_version":"battery-v0.1"},{"rune":"K","hex":"#3366ff99","correct":32,"choice":32,"rt":867.8349999827333,"accuracy":1,"outcome":"+10","keys":[2367.8799999761395],"total_keys":1,"block":2,"trial":219,"robot":1,"valence":"win","action":"go","sham":0,"trial_type":"pit-trial","trial_index":233,"time_elapsed":1089549,"internal_node_id":"0.0-222.0","task_version":"battery-v0.1"},{"rune":"W","hex":"#3366ff99","correct":-1,"choice":-1,"rt":-1,"accuracy":1,"outcome":"+10","keys":[],"total_keys":0,"block":2,"trial":220,"robot":2,"valence":"win","action":"no-go","sham":0,"trial_type":"pit-trial","trial_index":234,"time_elapsed":1093558,"internal_node_id":"0.0-223.0","task_version":"battery-v0.1"},{"rune":"P","hex":"#f73b6a7A","correct":32,"choice":-1,"rt":-1,"accuracy":0,"outcome":"-10","keys":[],"total_keys":0,"block":2,"trial":221,"robot":3,"valence":"lose","action":"go","sham":0,"trial_type":"pit-trial","trial_index":235,"time_elapsed":1097567,"internal_node_id":"0.0-224.0","task_version":"battery-v0.1"},{"rune":"W","hex":"#3366ff99","correct":-1,"choice":-1,"rt":-1,"accuracy":1,"outcome":"+1","keys":[],"total_keys":0,"block":2,"trial":222,"robot":2,"valence":"win","action":"no-go","sham":1,"trial_type":"pit-trial","trial_index":236,"time_elapsed":1101575,"internal_node_id":"0.0-225.0","task_version":"battery-v0.1"},{"rune":"K","hex":"#3366ff99","correct":32,"choice":32,"rt":649.5199999772012,"accuracy":1,"outcome":"+1","keys":[2149.5949999662116],"total_keys":1,"block":2,"trial":223,"robot":1,"valence":"win","action":"go","sham":1,"trial_type":"pit-trial","trial_index":237,"time_elapsed":1104932,"internal_node_id":"0.0-226.0","task_version":"battery-v0.1"},{"rune":"M","hex":"#f73b6a7A","correct":32,"choice":32,"rt":994.6999999810942,"accuracy":1,"outcome":"-1","keys":[2495.404999994207],"total_keys":1,"block":2,"trial":224,"robot":3,"valence":"lose","action":"go","sham":0,"trial_type":"pit-trial","trial_index":238,"time_elapsed":1108636,"internal_node_id":"0.0-227.0","task_version":"battery-v0.1"},{"rune":"M","hex":"#f73b6a7A","correct":32,"choice":32,"rt":835.5100000044331,"accuracy":1,"outcome":"-1","keys":[2336.424999986775],"total_keys":1,"block":2,"trial":225,"robot":3,"valence":"lose","action":"go","sham":0,"trial_type":"pit-trial","trial_index":239,"time_elapsed":1112180,"internal_node_id":"0.0-228.0","task_version":"battery-v0.1"},{"rune":"W","hex":"#3366ff99","correct":-1,"choice":32,"rt":724.6949999826029,"accuracy":0,"outcome":"+10","keys":[2224.7499999939464],"total_keys":1,"block":2,"trial":226,"robot":2,"valence":"win","action":"no-go","sham":1,"trial_type":"pit-trial","trial_index":240,"time_elapsed":1115612,"internal_node_id":"0.0-229.0","task_version":"battery-v0.1"},{"rune":"P","hex":"#f73b6a7A","correct":32,"choice":32,"rt":1075.0349999871105,"accuracy":1,"outcome":"-1","keys":[2575.970000005327],"total_keys":1,"block":2,"trial":227,"robot":3,"valence":"lose","action":"go","sham":0,"trial_type":"pit-trial","trial_index":241,"time_elapsed":1119397,"internal_node_id":"0.0-230.0","task_version":"battery-v0.1"},{"rune":"K","hex":"#3366ff99","correct":32,"choice":32,"rt":554.8050000215881,"accuracy":1,"outcome":"+10","keys":[2055.675000010524],"total_keys":1,"block":2,"trial":228,"robot":1,"valence":"win","action":"go","sham":0,"trial_type":"pit-trial","trial_index":242,"time_elapsed":1122661,"internal_node_id":"0.0-231.0","task_version":"battery-v0.1"},{"rune":"M","hex":"#f73b6a7A","correct":32,"choice":32,"rt":795.2449999866076,"accuracy":1,"outcome":"-10","keys":[2296.1599999689497],"total_keys":1,"block":2,"trial":229,"robot":3,"valence":"lose","action":"go","sham":1,"trial_type":"pit-trial","trial_index":243,"time_elapsed":1126166,"internal_node_id":"0.0-232.0","task_version":"battery-v0.1"},{"rune":"K","hex":"#3366ff99","correct":32,"choice":32,"rt":698.2950000092387,"accuracy":1,"outcome":"+10","keys":[2199.1849999758415],"total_keys":1,"block":2,"trial":230,"robot":1,"valence":"win","action":"go","sham":0,"trial_type":"pit-trial","trial_index":244,"time_elapsed":1129573,"internal_node_id":"0.0-233.0","task_version":"battery-v0.1"},{"rune":"P","hex":"#f73b6a7A","correct":32,"choice":32,"rt":915.1900000288151,"accuracy":1,"outcome":"-1","keys":[2416.1150000290945],"total_keys":1,"block":2,"trial":231,"robot":3,"valence":"lose","action":"go","sham":0,"trial_type":"pit-trial","trial_index":245,"time_elapsed":1133197,"internal_node_id":"0.0-234.0","task_version":"battery-v0.1"},{"rune":"W","hex":"#3366ff99","correct":-1,"choice":32,"rt":787.5199999543838,"accuracy":0,"outcome":"+1","keys":[2288.4199999971315],"total_keys":1,"block":2,"trial":232,"robot":2,"valence":"win","action":"no-go","sham":0,"trial_type":"pit-trial","trial_index":246,"time_elapsed":1136693,"internal_node_id":"0.0-235.0","task_version":"battery-v0.1"},{"rune":"W","hex":"#3366ff99","correct":-1,"choice":32,"rt":682.4699999997392,"accuracy":0,"outcome":"+10","keys":[2183.324999990873],"total_keys":1,"block":2,"trial":233,"robot":2,"valence":"win","action":"no-go","sham":1,"trial_type":"pit-trial","trial_index":247,"time_elapsed":1140084,"internal_node_id":"0.0-236.0","task_version":"battery-v0.1"},{"rune":"M","hex":"#f73b6a7A","correct":32,"choice":32,"rt":966.4950000005774,"accuracy":1,"outcome":"-1","keys":[2467.2150000114925],"total_keys":1,"block":2,"trial":234,"robot":3,"valence":"lose","action":"go","sham":0,"trial_type":"pit-trial","trial_index":248,"time_elapsed":1143773,"internal_node_id":"0.0-237.0","task_version":"battery-v0.1"},{"rune":"K","hex":"#3366ff99","correct":32,"choice":32,"rt":757.4700000113808,"accuracy":1,"outcome":"+10","keys":[2258.1200000131503],"total_keys":1,"block":2,"trial":235,"robot":1,"valence":"win","action":"go","sham":0,"trial_type":"pit-trial","trial_index":249,"time_elapsed":1147236,"internal_node_id":"0.0-238.0","task_version":"battery-v0.1"},{"rune":"P","hex":"#f73b6a7A","correct":32,"choice":-1,"rt":-1,"accuracy":0,"outcome":"-10","keys":[],"total_keys":0,"block":2,"trial":236,"robot":3,"valence":"lose","action":"go","sham":0,"trial_type":"pit-trial","trial_index":250,"time_elapsed":1151244,"internal_node_id":"0.0-239.0","task_version":"battery-v0.1"},{"rune":"P","hex":"#f73b6a7A","correct":32,"choice":32,"rt":506.9299999740906,"accuracy":1,"outcome":"-1","keys":[2007.6300000073388],"total_keys":1,"block":2,"trial":237,"robot":3,"valence":"lose","action":"go","sham":0,"trial_type":"pit-trial","trial_index":251,"time_elapsed":1154460,"internal_node_id":"0.0-240.0","task_version":"battery-v0.1"},{"rune":"W","hex":"#3366ff99","correct":-1,"choice":32,"rt":99.07499997643754,"accuracy":0,"outcome":"+1","keys":[1599.495000031311],"total_keys":1,"block":2,"trial":238,"robot":2,"valence":"win","action":"no-go","sham":0,"trial_type":"pit-trial","trial_index":252,"time_elapsed":1157268,"internal_node_id":"0.0-241.0","task_version":"battery-v0.1"},{"rune":"M","hex":"#f73b6a7A","correct":32,"choice":32,"rt":683.3400000468828,"accuracy":1,"outcome":"-1","keys":[2183.3999999798834],"total_keys":1,"block":2,"trial":239,"robot":3,"valence":"lose","action":"go","sham":0,"trial_type":"pit-trial","trial_index":253,"time_elapsed":1160660,"internal_node_id":"0.0-242.0","task_version":"battery-v0.1"},{"rune":"K","hex":"#3366ff99","correct":32,"choice":32,"rt":563.5049999691546,"accuracy":1,"outcome":"+10","keys":[2064.3699999782257],"total_keys":1,"block":2,"trial":240,"robot":1,"valence":"win","action":"go","sham":0,"trial_type":"pit-trial","trial_index":254,"time_elapsed":1163932,"internal_node_id":"0.0-243.0","task_version":"battery-v0.1"},{"view_history":"[{\"page_index\":0,\"viewing_time\":2579.6899999841116}]","rt":2580.450000008568,"trial_type":"pit-instructions","trial_index":255,"time_elapsed":1166519,"internal_node_id":"0.0-244.0","task_version":"battery-v0.1"},{"rt":13801.959999953397,"responses":{"age":"34","gender-categorical":"Male","gender-free-response":"","ethnicity":"Not Hispanic or Latino","race":["White"],"language":"Yes","fluency":"Very well"},"survey":"demographics","trial_type":"survey-demo","trial_index":256,"time_elapsed":1180332,"internal_node_id":"0.0-245.0","task_version":"battery-v0.1"},{"rt":23999.10999997519,"responses":{"difficulty":"4","fun":"5","clarity":"5","strategy":"Just tried to remember the best symbols.","feedback":"No"},"survey":"debrief","trial_type":"survey-debrief","trial_index":257,"time_elapsed":1204340,"internal_node_id":"0.0-246.0","task_version":"battery-v0.1","interactions":"[{\"event\":\"blur\",\"trial\":0,\"time\":17593},{\"event\":\"focus\",\"trial\":0,\"time\":23310},{\"event\":\"blur\",\"trial\":134,\"time\":704280},{\"event\":\"focus\",\"trial\":134,\"time\":715567}]"}]