[{"view_history":"[{\"page_index\":0,\"viewing_time\":2771}]","rt":2772,"trial_type":"instructions","trial_index":0,"time_elapsed":2779,"internal_node_id":"0.0-0.0","task_version":"battery-v0.2-trt","session":2},{"slider_type":"valence","raw_loc":665,"loc":0.83,"trial_type":"affective-slider","trial_index":1,"time_elapsed":7178,"internal_node_id":"0.0-1.0","task_version":"battery-v0.2-trt","session":2},{"responses":{"Q05":"0","Q07":"0","Q03":"0","Q02":"0","Q06":"1","Q01":"0","Q04":"1","Q08":"0"},"rt":30563,"item_order":[4,6,2,1,5,0,3,7],"radio_events":[4054,5028,5843,8140,14406,17928,24621,28207],"key_events":[],"mouse_events":[4054,5028,5843,7052,8140,10474,12383,13756,14406,15807,16789,17928,21936,24621,26740,28207,30562],"straightlining":0.75,"zigzagging":0.5714285714285714,"survey":"gad7","trial_type":"survey-template","trial_index":2,"time_elapsed":37750,"internal_node_id":"0.0-2.0","task_version":"battery-v0.2-trt","session":2,"infrequency":0},{"responses":{"Q01":"0","Q04":"1","Q08":"3","Q02":"0","Q07":"0","Q03":"0","Q06":"0","Q05":"0"},"rt":23226,"item_order":[0,3,7,1,6,2,5,4],"radio_events":[3240,5802,8748,11783,12589,18481,20121,21880],"key_events":[],"mouse_events":[3240,4453,5802,8748,10747,11783,12589,13469,15687,16944,18481,20121,21880,23225],"straightlining":0.75,"zigzagging":0.2857142857142857,"survey":"dass_d","trial_type":"survey-template","trial_index":3,"time_elapsed":60981,"internal_node_id":"0.0-3.0","task_version":"battery-v0.2-trt","session":2,"infrequency":0},{"view_history":"[{\"page_index\":0,\"viewing_time\":2351},{\"page_index\":1,\"viewing_time\":1922},{\"page_index\":2,\"viewing_time\":3904},{\"page_index\":3,\"viewing_time\":3123},{\"page_index\":4,\"viewing_time\":2377},{\"page_index\":5,\"viewing_time\":4358},{\"page_index\":6,\"viewing_time\":2228},{\"page_index\":7,\"viewing_time\":3742},{\"page_index\":8,\"viewing_time\":4212},{\"page_index\":9,\"viewing_time\":2615}]","rt":30832,"trial_type":"pit-instructions","trial_index":4,"time_elapsed":91820,"internal_node_id":"0.0-4.0-0.0","task_version":"battery-v0.2-trt","session":2},{"rune":"1","rune_set":"elianto","hex":"#3366ff99","correct":32,"choice":32,"rt":820,"accuracy":1,"outcome":"+10","keys":[2320],"total_keys":1,"block":0,"practice":1,"trial_type":"pit-trial","trial_index":5,"time_elapsed":95351,"internal_node_id":"0.0-4.0-1.0-0.0","task_version":"battery-v0.2-trt","session":2},{"rune":"1","rune_set":"elianto","hex":"#3366ff99","correct":32,"choice":32,"rt":295,"accuracy":1,"outcome":"+10","keys":[1797],"total_keys":1,"block":0,"practice":1,"trial_type":"pit-trial","trial_index":6,"time_elapsed":98358,"internal_node_id":"0.0-4.0-1.1-0.1","task_version":"battery-v0.2-trt","session":2},{"rune":"1","rune_set":"elianto","hex":"#3366ff99","correct":32,"choice":32,"rt":208,"accuracy":1,"outcome":"+10","keys":[1710],"total_keys":1,"block":0,"practice":1,"trial_type":"pit-trial","trial_index":7,"time_elapsed":101278,"internal_node_id":"0.0-4.0-1.2-0.2","task_version":"battery-v0.2-trt","session":2},{"rune":"1","rune_set":"elianto","hex":"#3366ff99","correct":32,"choice":32,"rt":529,"accuracy":1,"outcome":"+10","keys":[2031],"total_keys":1,"block":0,"practice":1,"trial_type":"pit-trial","trial_index":8,"time_elapsed":104516,"internal_node_id":"0.0-4.0-1.3-0.3","task_version":"battery-v0.2-trt","session":2},{"trial_type":"call-function","trial_index":9,"time_elapsed":104518,"internal_node_id":"0.0-4.0-2.0","task_version":"battery-v0.2-trt","session":2},{"view_history":"[{\"page_index\":0,\"viewing_time\":2305},{\"page_index\":1,\"viewing_time\":1644}]","rt":3949,"trial_type":"pit-instructions","trial_index":10,"time_elapsed":108469,"internal_node_id":"0.0-4.0-3.0","task_version":"battery-v0.2-trt","session":2},{"rune":"2","rune_set":"elianto","hex":"#3366ff99","correct":-1,"choice":-1,"rt":-1,"accuracy":1,"outcome":"+10","keys":[1243],"total_keys":1,"block":0,"practice":2,"trial_type":"pit-trial","trial_index":11,"time_elapsed":112478,"internal_node_id":"0.0-4.0-4.0-0.0","task_version":"battery-v0.2-trt","session":2},{"rune":"2","rune_set":"elianto","hex":"#3366ff99","correct":-1,"choice":32,"rt":298,"accuracy":0,"outcome":"+1","keys":[1802],"total_keys":1,"block":0,"practice":2,"trial_type":"pit-trial","trial_index":12,"time_elapsed":115486,"internal_node_id":"0.0-4.0-4.1-0.1","task_version":"battery-v0.2-trt","session":2},{"rune":"2","rune_set":"elianto","hex":"#3366ff99","correct":-1,"choice":-1,"rt":-1,"accuracy":1,"outcome":"+10","keys":[],"total_keys":0,"block":0,"practice":2,"trial_type":"pit-trial","trial_index":13,"time_elapsed":119495,"internal_node_id":"0.0-4.0-4.2-0.2","task_version":"battery-v0.2-trt","session":2},{"rune":"2","rune_set":"elianto","hex":"#3366ff99","correct":-1,"choice":-1,"rt":-1,"accuracy":1,"outcome":"+10","keys":[],"total_keys":0,"block":0,"practice":2,"trial_type":"pit-trial","trial_index":14,"time_elapsed":123505,"internal_node_id":"0.0-4.0-4.3-0.3","task_version":"battery-v0.2-trt","session":2},{"rune":"2","rune_set":"elianto","hex":"#3366ff99","correct":-1,"choice":-1,"rt":-1,"accuracy":1,"outcome":"+10","keys":[],"total_keys":0,"block":0,"practice":2,"trial_type":"pit-trial","trial_index":15,"time_elapsed":127511,"internal_node_id":"0.0-4.0-4.4-0.4","task_version":"battery-v0.2-trt","session":2},{"trial_type":"call-function","trial_index":16,"time_elapsed":127514,"internal_node_id":"0.0-4.0-5.0","task_version":"battery-v0.2-trt","session":2},{"view_history":"[{\"page_index\":0,\"viewing_time\":4328},{\"page_index\":1,\"viewing_time\":1639}]","rt":5967,"trial_type":"pit-instructions","trial_index":17,"time_elapsed":133481,"internal_node_id":"0.0-4.0-6.0","task_version":"battery-v0.2-trt","session":2},{"rune":"3","rune_set":"elianto","hex":"#f73b6a7A","correct":-1,"choice":32,"rt":321,"accuracy":0,"outcome":"-10","keys":[1825],"total_keys":1,"block":0,"practice":3,"trial_type":"pit-trial","trial_index":18,"time_elapsed":136509,"internal_node_id":"0.0-4.0-7.0-0.0","task_version":"battery-v0.2-trt","session":2},{"rune":"3","rune_set":"elianto","hex":"#f73b6a7A","correct":-1,"choice":-1,"rt":-1,"accuracy":1,"outcome":"-1","keys":[],"total_keys":0,"block":0,"practice":3,"trial_type":"pit-trial","trial_index":19,"time_elapsed":140521,"internal_node_id":"0.0-4.0-7.1-0.1","task_version":"battery-v0.2-trt","session":2},{"rune":"3","rune_set":"elianto","hex":"#f73b6a7A","correct":-1,"choice":-1,"rt":-1,"accuracy":1,"outcome":"-1","keys":[],"total_keys":0,"block":0,"practice":3,"trial_type":"pit-trial","trial_index":20,"time_elapsed":144532,"internal_node_id":"0.0-4.0-7.2-0.2","task_version":"battery-v0.2-trt","session":2},{"rune":"3","rune_set":"elianto","hex":"#f73b6a7A","correct":-1,"choice":-1,"rt":-1,"accuracy":1,"outcome":"-1","keys":[],"total_keys":0,"block":0,"practice":3,"trial_type":"pit-trial","trial_index":21,"time_elapsed":148544,"internal_node_id":"0.0-4.0-7.3-0.3","task_version":"battery-v0.2-trt","session":2},{"trial_type":"call-function","trial_index":22,"time_elapsed":148547,"internal_node_id":"0.0-4.0-8.0","task_version":"battery-v0.2-trt","session":2},{"view_history":"[{\"page_index\":0,\"viewing_time\":1241},{\"page_index\":1,\"viewing_time\":1459}]","rt":2701,"trial_type":"pit-instructions","trial_index":23,"time_elapsed":151248,"internal_node_id":"0.0-4.0-9.0","task_version":"battery-v0.2-trt","session":2},{"rune":"4","rune_set":"elianto","hex":"#f73b6a7A","correct":32,"choice":32,"rt":441,"accuracy":1,"outcome":"-1","keys":[1941],"total_keys":1,"block":0,"practice":4,"trial_type":"pit-trial","trial_index":24,"time_elapsed":154398,"internal_node_id":"0.0-4.0-10.0-0.0","task_version":"battery-v0.2-trt","session":2},{"rune":"4","rune_set":"elianto","hex":"#f73b6a7A","correct":32,"choice":32,"rt":314,"accuracy":1,"outcome":"-1","keys":[1815],"total_keys":1,"block":0,"practice":4,"trial_type":"pit-trial","trial_index":25,"time_elapsed":157419,"internal_node_id":"0.0-4.0-10.1-0.1","task_version":"battery-v0.2-trt","session":2},{"rune":"4","rune_set":"elianto","hex":"#f73b6a7A","correct":32,"choice":32,"rt":347,"accuracy":1,"outcome":"-1","keys":[1849],"total_keys":1,"block":0,"practice":4,"trial_type":"pit-trial","trial_index":26,"time_elapsed":160477,"internal_node_id":"0.0-4.0-10.2-0.2","task_version":"battery-v0.2-trt","session":2},{"rune":"4","rune_set":"elianto","hex":"#f73b6a7A","correct":32,"choice":32,"rt":290,"accuracy":1,"outcome":"-1","keys":[1792],"total_keys":1,"block":0,"practice":4,"trial_type":"pit-trial","trial_index":27,"time_elapsed":163474,"internal_node_id":"0.0-4.0-10.3-0.3","task_version":"battery-v0.2-trt","session":2},{"trial_type":"call-function","trial_index":28,"time_elapsed":163477,"internal_node_id":"0.0-4.0-11.0","task_version":"battery-v0.2-trt","session":2},{"view_history":"[{\"page_index\":0,\"viewing_time\":2594},{\"page_index\":1,\"viewing_time\":1578},{\"page_index\":2,\"viewing_time\":3106},{\"page_index\":3,\"viewing_time\":1362},{\"page_index\":4,\"viewing_time\":2085},{\"page_index\":5,\"viewing_time\":1406}]","rt":12132,"trial_type":"pit-instructions","trial_index":29,"time_elapsed":175611,"internal_node_id":"0.0-4.0-12.0","task_version":"battery-v0.2-trt","session":2},{"responses":["Press SPACE","+10","-1","True","True"],"num_errors":0,"rt":12034,"trial_type":"pit-comprehension","trial_index":30,"time_elapsed":187649,"internal_node_id":"0.0-4.0-13.0","task_version":"battery-v0.2-trt","session":2},{"view_history":"[{\"page_index\":0,\"viewing_time\":1613},{\"page_index\":1,\"viewing_time\":1985}]","rt":3598,"trial_type":"pit-instructions","trial_index":31,"time_elapsed":191251,"internal_node_id":"0.0-5.0","task_version":"battery-v0.2-trt","session":2},{"rune":"X","rune_set":"elianto","hex":"#3366ff99","correct":32,"choice":32,"rt":389,"accuracy":1,"outcome":"+1","keys":[1890],"total_keys":1,"block":1,"trial":1,"stimulus":3,"robot":1,"valence":"win","action":"go","sham":1,"trial_type":"pit-trial","trial_index":32,"time_elapsed":194350,"internal_node_id":"0.0-6.0","task_version":"battery-v0.2-trt","session":2},{"rune":"F","rune_set":"elianto","hex":"#f73b6a7A","correct":32,"choice":32,"rt":1065,"accuracy":1,"outcome":"-1","keys":[2566],"total_keys":1,"block":1,"trial":2,"stimulus":2,"robot":3,"valence":"lose","action":"go","sham":0,"trial_type":"pit-trial","trial_index":33,"time_elapsed":198126,"internal_node_id":"0.0-7.0","task_version":"battery-v0.2-trt","session":2},{"rune":"Q","rune_set":"elianto","hex":"#f73b6a7A","correct":-1,"choice":32,"rt":582,"accuracy":0,"outcome":"-10","keys":[2084],"total_keys":1,"block":1,"trial":3,"stimulus":0,"robot":4,"valence":"lose","action":"no-go","sham":0,"trial_type":"pit-trial","trial_index":34,"time_elapsed":201416,"internal_node_id":"0.0-8.0","task_version":"battery-v0.2-trt","session":2},{"rune":"N","rune_set":"elianto","hex":"#f73b6a7A","correct":32,"choice":32,"rt":514,"accuracy":1,"outcome":"-1","keys":[2016],"total_keys":1,"block":1,"trial":4,"stimulus":1,"robot":3,"valence":"lose","action":"go","sham":0,"trial_type":"pit-trial","trial_index":35,"time_elapsed":204639,"internal_node_id":"0.0-9.0","task_version":"battery-v0.2-trt","session":2},{"rune":"F","rune_set":"elianto","hex":"#f73b6a7A","correct":32,"choice":32,"rt":867,"accuracy":1,"outcome":"-10","keys":[2367],"total_keys":1,"block":1,"trial":5,"stimulus":2,"robot":3,"valence":"lose","action":"go","sham":1,"trial_type":"pit-trial","trial_index":36,"time_elapsed":208215,"internal_node_id":"0.0-10.0","task_version":"battery-v0.2-trt","session":2},{"rune":"Q","rune_set":"elianto","hex":"#f73b6a7A","correct":-1,"choice":32,"rt":493,"accuracy":0,"outcome":"-10","keys":[1995],"total_keys":1,"block":1,"trial":6,"stimulus":0,"robot":4,"valence":"lose","action":"no-go","sham":0,"trial_type":"pit-trial","trial_index":37,"time_elapsed":211418,"internal_node_id":"0.0-11.0","task_version":"battery-v0.2-trt","session":2},{"rune":"N","rune_set":"elianto","hex":"#f73b6a7A","correct":32,"choice":32,"rt":504,"accuracy":1,"outcome":"-1","keys":[2005],"total_keys":1,"block":1,"trial":7,"stimulus":1,"robot":3,"valence":"lose","action":"go","sham":0,"trial_type":"pit-trial","trial_index":38,"time_elapsed":214634,"internal_node_id":"0.0-12.0","task_version":"battery-v0.2-trt","session":2},{"rune":"X","rune_set":"elianto","hex":"#3366ff99","correct":32,"choice":32,"rt":629,"accuracy":1,"outcome":"+10","keys":[2132],"total_keys":1,"block":1,"trial":8,"stimulus":3,"robot":1,"valence":"win","action":"go","sham":0,"trial_type":"pit-trial","trial_index":39,"time_elapsed":217971,"internal_node_id":"0.0-13.0","task_version":"battery-v0.2-trt","session":2},{"rune":"F","rune_set":"elianto","hex":"#f73b6a7A","correct":32,"choice":-1,"rt":-1,"accuracy":0,"outcome":"-10","keys":[],"total_keys":0,"block":1,"trial":9,"stimulus":2,"robot":3,"valence":"lose","action":"go","sham":0,"trial_type":"pit-trial","trial_index":40,"time_elapsed":221978,"internal_node_id":"0.0-14.0","task_version":"battery-v0.2-trt","session":2},{"rune":"Q","rune_set":"elianto","hex":"#f73b6a7A","correct":-1,"choice":32,"rt":525,"accuracy":0,"outcome":"-10","keys":[2026],"total_keys":1,"block":1,"trial":10,"stimulus":0,"robot":4,"valence":"lose","action":"no-go","sham":0,"trial_type":"pit-trial","trial_index":41,"time_elapsed":225212,"internal_node_id":"0.0-15.0","task_version":"battery-v0.2-trt","session":2},{"rune":"X","rune_set":"elianto","hex":"#3366ff99","correct":32,"choice":32,"rt":455,"accuracy":1,"outcome":"+10","keys":[1956],"total_keys":1,"block":1,"trial":11,"stimulus":3,"robot":1,"valence":"win","action":"go","sham":0,"trial_type":"pit-trial","trial_index":42,"time_elapsed":228378,"internal_node_id":"0.0-16.0","task_version":"battery-v0.2-trt","session":2},{"rune":"N","rune_set":"elianto","hex":"#f73b6a7A","correct":32,"choice":-1,"rt":-1,"accuracy":0,"outcome":"-10","keys":[],"total_keys":0,"block":1,"trial":12,"stimulus":1,"robot":3,"valence":"lose","action":"go","sham":0,"trial_type":"pit-trial","trial_index":43,"time_elapsed":232393,"internal_node_id":"0.0-17.0","task_version":"battery-v0.2-trt","session":2},{"rune":"F","rune_set":"elianto","hex":"#f73b6a7A","correct":32,"choice":-1,"rt":-1,"accuracy":0,"outcome":"-10","keys":[],"total_keys":0,"block":1,"trial":13,"stimulus":2,"robot":3,"valence":"lose","action":"go","sham":0,"trial_type":"pit-trial","trial_index":44,"time_elapsed":236404,"internal_node_id":"0.0-18.0","task_version":"battery-v0.2-trt","session":2},{"rune":"X","rune_set":"elianto","hex":"#3366ff99","correct":32,"choice":32,"rt":476,"accuracy":1,"outcome":"+10","keys":[1976],"total_keys":1,"block":1,"trial":14,"stimulus":3,"robot":1,"valence":"win","action":"go","sham":0,"trial_type":"pit-trial","trial_index":45,"time_elapsed":239585,"internal_node_id":"0.0-19.0","task_version":"battery-v0.2-trt","session":2},{"rune":"N","rune_set":"elianto","hex":"#f73b6a7A","correct":32,"choice":32,"rt":402,"accuracy":1,"outcome":"-1","keys":[1903],"total_keys":1,"block":1,"trial":15,"stimulus":1,"robot":3,"valence":"lose","action":"go","sham":0,"trial_type":"pit-trial","trial_index":46,"time_elapsed":242698,"internal_node_id":"0.0-20.0","task_version":"battery-v0.2-trt","session":2},{"rune":"Q","rune_set":"elianto","hex":"#f73b6a7A","correct":-1,"choice":32,"rt":492,"accuracy":0,"outcome":"-10","keys":[1994],"total_keys":1,"block":1,"trial":16,"stimulus":0,"robot":4,"valence":"lose","action":"no-go","sham":0,"trial_type":"pit-trial","trial_index":47,"time_elapsed":245896,"internal_node_id":"0.0-21.0","task_version":"battery-v0.2-trt","session":2},{"rune":"X","rune_set":"elianto","hex":"#3366ff99","correct":32,"choice":32,"rt":415,"accuracy":1,"outcome":"+1","keys":[1915],"total_keys":1,"block":1,"trial":17,"stimulus":3,"robot":1,"valence":"win","action":"go","sham":1,"trial_type":"pit-trial","trial_index":48,"time_elapsed":249021,"internal_node_id":"0.0-22.0","task_version":"battery-v0.2-trt","session":2},{"rune":"N","rune_set":"elianto","hex":"#f73b6a7A","correct":32,"choice":32,"rt":556,"accuracy":1,"outcome":"-1","keys":[2056],"total_keys":1,"block":1,"trial":18,"stimulus":1,"robot":3,"valence":"lose","action":"go","sham":0,"trial_type":"pit-trial","trial_index":49,"time_elapsed":252287,"internal_node_id":"0.0-23.0","task_version":"battery-v0.2-trt","session":2},{"rune":"Q","rune_set":"elianto","hex":"#f73b6a7A","correct":-1,"choice":-1,"rt":-1,"accuracy":1,"outcome":"-10","keys":[],"total_keys":0,"block":1,"trial":19,"stimulus":0,"robot":4,"valence":"lose","action":"no-go","sham":1,"trial_type":"pit-trial","trial_index":50,"time_elapsed":256302,"internal_node_id":"0.0-24.0","task_version":"battery-v0.2-trt","session":2},{"rune":"F","rune_set":"elianto","hex":"#f73b6a7A","correct":32,"choice":-1,"rt":-1,"accuracy":0,"outcome":"-10","keys":[],"total_keys":0,"block":1,"trial":20,"stimulus":2,"robot":3,"valence":"lose","action":"go","sham":0,"trial_type":"pit-trial","trial_index":51,"time_elapsed":260310,"internal_node_id":"0.0-25.0","task_version":"battery-v0.2-trt","session":2},{"rune":"F","rune_set":"elianto","hex":"#f73b6a7A","correct":32,"choice":32,"rt":417,"accuracy":1,"outcome":"-1","keys":[1919],"total_keys":1,"block":1,"trial":21,"stimulus":2,"robot":3,"valence":"lose","action":"go","sham":0,"trial_type":"pit-trial","trial_index":52,"time_elapsed":263433,"internal_node_id":"0.0-26.0","task_version":"battery-v0.2-trt","session":2},{"rune":"X","rune_set":"elianto","hex":"#3366ff99","correct":32,"choice":32,"rt":308,"accuracy":1,"outcome":"+1","keys":[1809],"total_keys":1,"block":1,"trial":22,"stimulus":3,"robot":1,"valence":"win","action":"go","sham":1,"trial_type":"pit-trial","trial_index":53,"time_elapsed":266452,"internal_node_id":"0.0-27.0","task_version":"battery-v0.2-trt","session":2},{"rune":"N","rune_set":"elianto","hex":"#f73b6a7A","correct":32,"choice":-1,"rt":-1,"accuracy":0,"outcome":"-10","keys":[],"total_keys":0,"block":1,"trial":23,"stimulus":1,"robot":3,"valence":"lose","action":"go","sham":0,"trial_type":"pit-trial","trial_index":54,"time_elapsed":270463,"internal_node_id":"0.0-28.0","task_version":"battery-v0.2-trt","session":2},{"rune":"Q","rune_set":"elianto","hex":"#f73b6a7A","correct":-1,"choice":32,"rt":597,"accuracy":0,"outcome":"-10","keys":[2097],"total_keys":1,"block":1,"trial":24,"stimulus":0,"robot":4,"valence":"lose","action":"no-go","sham":0,"trial_type":"pit-trial","trial_index":55,"time_elapsed":273766,"internal_node_id":"0.0-29.0","task_version":"battery-v0.2-trt","session":2},{"rune":"F","rune_set":"elianto","hex":"#f73b6a7A","correct":32,"choice":32,"rt":457,"accuracy":1,"outcome":"-1","keys":[1959],"total_keys":1,"block":1,"trial":25,"stimulus":2,"robot":3,"valence":"lose","action":"go","sham":0,"trial_type":"pit-trial","trial_index":56,"time_elapsed":276930,"internal_node_id":"0.0-30.0","task_version":"battery-v0.2-trt","session":2},{"rune":"X","rune_set":"elianto","hex":"#3366ff99","correct":32,"choice":32,"rt":353,"accuracy":1,"outcome":"+1","keys":[1852],"total_keys":1,"block":1,"trial":26,"stimulus":3,"robot":1,"valence":"win","action":"go","sham":1,"trial_type":"pit-trial","trial_index":57,"time_elapsed":279990,"internal_node_id":"0.0-31.0","task_version":"battery-v0.2-trt","session":2},{"rune":"N","rune_set":"elianto","hex":"#f73b6a7A","correct":32,"choice":-1,"rt":-1,"accuracy":0,"outcome":"-1","keys":[],"total_keys":0,"block":1,"trial":27,"stimulus":1,"robot":3,"valence":"lose","action":"go","sham":1,"trial_type":"pit-trial","trial_index":58,"time_elapsed":283999,"internal_node_id":"0.0-32.0","task_version":"battery-v0.2-trt","session":2},{"rune":"Q","rune_set":"elianto","hex":"#f73b6a7A","correct":-1,"choice":32,"rt":657,"accuracy":0,"outcome":"-10","keys":[2157],"total_keys":1,"block":1,"trial":28,"stimulus":0,"robot":4,"valence":"lose","action":"no-go","sham":0,"trial_type":"pit-trial","trial_index":59,"time_elapsed":287362,"internal_node_id":"0.0-33.0","task_version":"battery-v0.2-trt","session":2},{"rune":"Q","rune_set":"elianto","hex":"#f73b6a7A","correct":-1,"choice":-1,"rt":-1,"accuracy":1,"outcome":"-1","keys":[],"total_keys":0,"block":1,"trial":29,"stimulus":0,"robot":4,"valence":"lose","action":"no-go","sham":0,"trial_type":"pit-trial","trial_index":60,"time_elapsed":291369,"internal_node_id":"0.0-34.0","task_version":"battery-v0.2-trt","session":2},{"rune":"N","rune_set":"elianto","hex":"#f73b6a7A","correct":32,"choice":32,"rt":1013,"accuracy":1,"outcome":"-1","keys":[2513],"total_keys":1,"block":1,"trial":30,"stimulus":1,"robot":3,"valence":"lose","action":"go","sham":0,"trial_type":"pit-trial","trial_index":61,"time_elapsed":295092,"internal_node_id":"0.0-35.0","task_version":"battery-v0.2-trt","session":2},{"rune":"X","rune_set":"elianto","hex":"#3366ff99","correct":32,"choice":32,"rt":333,"accuracy":1,"outcome":"+10","keys":[1834],"total_keys":1,"block":1,"trial":31,"stimulus":3,"robot":1,"valence":"win","action":"go","sham":0,"trial_type":"pit-trial","trial_index":62,"time_elapsed":298136,"internal_node_id":"0.0-36.0","task_version":"battery-v0.2-trt","session":2},{"rune":"F","rune_set":"elianto","hex":"#f73b6a7A","correct":32,"choice":-1,"rt":-1,"accuracy":0,"outcome":"-10","keys":[],"total_keys":0,"block":1,"trial":32,"stimulus":2,"robot":3,"valence":"lose","action":"go","sham":0,"trial_type":"pit-trial","trial_index":63,"time_elapsed":302149,"internal_node_id":"0.0-37.0","task_version":"battery-v0.2-trt","session":2},{"rune":"T","rune_set":"elianto","hex":"#f73b6a7A","correct":-1,"choice":32,"rt":651,"accuracy":0,"outcome":"-10","keys":[2152],"total_keys":1,"block":1,"trial":33,"stimulus":4,"robot":4,"valence":"lose","action":"no-go","sham":0,"trial_type":"pit-trial","trial_index":64,"time_elapsed":305508,"internal_node_id":"0.0-38.0","task_version":"battery-v0.2-trt","session":2},{"rune":"Q","rune_set":"elianto","hex":"#f73b6a7A","correct":-1,"choice":-1,"rt":-1,"accuracy":1,"outcome":"-1","keys":[],"total_keys":0,"block":1,"trial":34,"stimulus":0,"robot":4,"valence":"lose","action":"no-go","sham":0,"trial_type":"pit-trial","trial_index":65,"time_elapsed":309518,"internal_node_id":"0.0-39.0","task_version":"battery-v0.2-trt","session":2},{"rune":"N","rune_set":"elianto","hex":"#f73b6a7A","correct":32,"choice":32,"rt":971,"accuracy":1,"outcome":"-1","keys":[2471],"total_keys":1,"block":1,"trial":35,"stimulus":1,"robot":3,"valence":"lose","action":"go","sham":0,"trial_type":"pit-trial","trial_index":66,"time_elapsed":313197,"internal_node_id":"0.0-40.0","task_version":"battery-v0.2-trt","session":2},{"rune":"X","rune_set":"elianto","hex":"#3366ff99","correct":32,"choice":32,"rt":975,"accuracy":1,"outcome":"+10","keys":[2476],"total_keys":1,"block":1,"trial":36,"stimulus":3,"robot":1,"valence":"win","action":"go","sham":0,"trial_type":"pit-trial","trial_index":67,"time_elapsed":316881,"internal_node_id":"0.0-41.0","task_version":"battery-v0.2-trt","session":2},{"rune":"T","rune_set":"elianto","hex":"#f73b6a7A","correct":-1,"choice":32,"rt":948,"accuracy":0,"outcome":"-1","keys":[2450],"total_keys":1,"block":1,"trial":37,"stimulus":4,"robot":4,"valence":"lose","action":"no-go","sham":1,"trial_type":"pit-trial","trial_index":68,"time_elapsed":320540,"internal_node_id":"0.0-42.0","task_version":"battery-v0.2-trt","session":2},{"rune":"Q","rune_set":"elianto","hex":"#f73b6a7A","correct":-1,"choice":32,"rt":1163,"accuracy":0,"outcome":"-10","keys":[2664],"total_keys":1,"block":1,"trial":38,"stimulus":0,"robot":4,"valence":"lose","action":"no-go","sham":0,"trial_type":"pit-trial","trial_index":69,"time_elapsed":324411,"internal_node_id":"0.0-43.0","task_version":"battery-v0.2-trt","session":2},{"rune":"X","rune_set":"elianto","hex":"#3366ff99","correct":32,"choice":32,"rt":428,"accuracy":1,"outcome":"+10","keys":[1926],"total_keys":1,"block":1,"trial":39,"stimulus":3,"robot":1,"valence":"win","action":"go","sham":0,"trial_type":"pit-trial","trial_index":70,"time_elapsed":327547,"internal_node_id":"0.0-44.0","task_version":"battery-v0.2-trt","session":2},{"rune":"N","rune_set":"elianto","hex":"#f73b6a7A","correct":32,"choice":-1,"rt":-1,"accuracy":0,"outcome":"-10","keys":[],"total_keys":0,"block":1,"trial":40,"stimulus":1,"robot":3,"valence":"lose","action":"go","sham":0,"trial_type":"pit-trial","trial_index":71,"time_elapsed":331561,"internal_node_id":"0.0-45.0","task_version":"battery-v0.2-trt","session":2},{"rune":"Q","rune_set":"elianto","hex":"#f73b6a7A","correct":-1,"choice":32,"rt":1135,"accuracy":0,"outcome":"-10","keys":[2634],"total_keys":1,"block":1,"trial":41,"stimulus":0,"robot":4,"valence":"lose","action":"no-go","sham":0,"trial_type":"pit-trial","trial_index":72,"time_elapsed":335405,"internal_node_id":"0.0-46.0","task_version":"battery-v0.2-trt","session":2},{"rune":"T","rune_set":"elianto","hex":"#f73b6a7A","correct":-1,"choice":32,"rt":851,"accuracy":0,"outcome":"-10","keys":[2352],"total_keys":1,"block":1,"trial":42,"stimulus":4,"robot":4,"valence":"lose","action":"no-go","sham":0,"trial_type":"pit-trial","trial_index":73,"time_elapsed":338965,"internal_node_id":"0.0-47.0","task_version":"battery-v0.2-trt","session":2},{"rune":"B","rune_set":"elianto","hex":"#3366ff99","correct":-1,"choice":32,"rt":686,"accuracy":0,"outcome":"+1","keys":[2186],"total_keys":1,"block":1,"trial":43,"stimulus":5,"robot":2,"valence":"win","action":"no-go","sham":0,"trial_type":"pit-trial","trial_index":74,"time_elapsed":342357,"internal_node_id":"0.0-48.0","task_version":"battery-v0.2-trt","session":2},{"rune":"N","rune_set":"elianto","hex":"#f73b6a7A","correct":32,"choice":-1,"rt":-1,"accuracy":0,"outcome":"-10","keys":[],"total_keys":0,"block":1,"trial":44,"stimulus":1,"robot":3,"valence":"lose","action":"go","sham":0,"trial_type":"pit-trial","trial_index":75,"time_elapsed":346366,"internal_node_id":"0.0-49.0","task_version":"battery-v0.2-trt","session":2},{"rune":"B","rune_set":"elianto","hex":"#3366ff99","correct":-1,"choice":-1,"rt":-1,"accuracy":1,"outcome":"+10","keys":[],"total_keys":0,"block":1,"trial":45,"stimulus":5,"robot":2,"valence":"win","action":"no-go","sham":0,"trial_type":"pit-trial","trial_index":76,"time_elapsed":350379,"internal_node_id":"0.0-50.0","task_version":"battery-v0.2-trt","session":2},{"rune":"T","rune_set":"elianto","hex":"#f73b6a7A","correct":-1,"choice":-1,"rt":-1,"accuracy":1,"outcome":"-1","keys":[],"total_keys":0,"block":1,"trial":46,"stimulus":4,"robot":4,"valence":"lose","action":"no-go","sham":0,"trial_type":"pit-trial","trial_index":77,"time_elapsed":354389,"internal_node_id":"0.0-51.0","task_version":"battery-v0.2-trt","session":2},{"rune":"N","rune_set":"elianto","hex":"#f73b6a7A","correct":32,"choice":32,"rt":1218,"accuracy":1,"outcome":"-1","keys":[2719],"total_keys":1,"block":1,"trial":47,"stimulus":1,"robot":3,"valence":"lose","action":"go","sham":0,"trial_type":"pit-trial","trial_index":78,"time_elapsed":358316,"internal_node_id":"0.0-52.0","task_version":"battery-v0.2-trt","session":2},{"rune":"Q","rune_set":"elianto","hex":"#f73b6a7A","correct":-1,"choice":32,"rt":891,"accuracy":0,"outcome":"-10","keys":[2391],"total_keys":1,"block":1,"trial":48,"stimulus":0,"robot":4,"valence":"lose","action":"no-go","sham":0,"trial_type":"pit-trial","trial_index":79,"time_elapsed":361912,"internal_node_id":"0.0-53.0","task_version":"battery-v0.2-trt","session":2},{"rune":"T","rune_set":"elianto","hex":"#f73b6a7A","correct":-1,"choice":-1,"rt":-1,"accuracy":1,"outcome":"-1","keys":[],"total_keys":0,"block":1,"trial":49,"stimulus":4,"robot":4,"valence":"lose","action":"no-go","sham":0,"trial_type":"pit-trial","trial_index":80,"time_elapsed":365921,"internal_node_id":"0.0-54.0","task_version":"battery-v0.2-trt","session":2},{"rune":"B","rune_set":"elianto","hex":"#3366ff99","correct":-1,"choice":-1,"rt":-1,"accuracy":1,"outcome":"+1","keys":[],"total_keys":0,"block":1,"trial":50,"stimulus":5,"robot":2,"valence":"win","action":"no-go","sham":1,"trial_type":"pit-trial","trial_index":81,"time_elapsed":369931,"internal_node_id":"0.0-55.0","task_version":"battery-v0.2-trt","session":2},{"rune":"C","rune_set":"elianto","hex":"#f73b6a7A","correct":-1,"choice":32,"rt":706,"accuracy":0,"outcome":"-10","keys":[2205],"total_keys":1,"block":1,"trial":51,"stimulus":6,"robot":4,"valence":"lose","action":"no-go","sham":0,"trial_type":"pit-trial","trial_index":82,"time_elapsed":373346,"internal_node_id":"0.0-56.0","task_version":"battery-v0.2-trt","session":2},{"rune":"Z","rune_set":"elianto","hex":"#3366ff99","correct":32,"choice":32,"rt":736,"accuracy":1,"outcome":"+10","keys":[2238],"total_keys":1,"block":1,"trial":52,"stimulus":7,"robot":1,"valence":"win","action":"go","sham":0,"trial_type":"pit-trial","trial_index":83,"time_elapsed":376795,"internal_node_id":"0.0-57.0","task_version":"battery-v0.2-trt","session":2},{"rune":"B","rune_set":"elianto","hex":"#3366ff99","correct":-1,"choice":-1,"rt":-1,"accuracy":1,"outcome":"+1","keys":[],"total_keys":0,"block":1,"trial":53,"stimulus":5,"robot":2,"valence":"win","action":"no-go","sham":1,"trial_type":"pit-trial","trial_index":84,"time_elapsed":380803,"internal_node_id":"0.0-58.0","task_version":"battery-v0.2-trt","session":2},{"rune":"T","rune_set":"elianto","hex":"#f73b6a7A","correct":-1,"choice":-1,"rt":-1,"accuracy":1,"outcome":"-10","keys":[],"total_keys":0,"block":1,"trial":54,"stimulus":4,"robot":4,"valence":"lose","action":"no-go","sham":1,"trial_type":"pit-trial","trial_index":85,"time_elapsed":384815,"internal_node_id":"0.0-59.0","task_version":"battery-v0.2-trt","session":2},{"rune":"Z","rune_set":"elianto","hex":"#3366ff99","correct":32,"choice":32,"rt":559,"accuracy":1,"outcome":"+10","keys":[2059],"total_keys":1,"block":1,"trial":55,"stimulus":7,"robot":1,"valence":"win","action":"go","sham":0,"trial_type":"pit-trial","trial_index":86,"time_elapsed":388082,"internal_node_id":"0.0-60.0","task_version":"battery-v0.2-trt","session":2},{"rune":"C","rune_set":"elianto","hex":"#f73b6a7A","correct":-1,"choice":32,"rt":925,"accuracy":0,"outcome":"-10","keys":[2426],"total_keys":1,"block":1,"trial":56,"stimulus":6,"robot":4,"valence":"lose","action":"no-go","sham":0,"trial_type":"pit-trial","trial_index":87,"time_elapsed":391715,"internal_node_id":"0.0-61.0","task_version":"battery-v0.2-trt","session":2},{"rune":"T","rune_set":"elianto","hex":"#f73b6a7A","correct":-1,"choice":-1,"rt":-1,"accuracy":1,"outcome":"-1","keys":[],"total_keys":0,"block":1,"trial":57,"stimulus":4,"robot":4,"valence":"lose","action":"no-go","sham":0,"trial_type":"pit-trial","trial_index":88,"time_elapsed":395721,"internal_node_id":"0.0-62.0","task_version":"battery-v0.2-trt","session":2},{"rune":"C","rune_set":"elianto","hex":"#f73b6a7A","correct":-1,"choice":-1,"rt":-1,"accuracy":1,"outcome":"-1","keys":[],"total_keys":0,"block":1,"trial":58,"stimulus":6,"robot":4,"valence":"lose","action":"no-go","sham":0,"trial_type":"pit-trial","trial_index":89,"time_elapsed":399729,"internal_node_id":"0.0-63.0","task_version":"battery-v0.2-trt","session":2},{"rune":"Z","rune_set":"elianto","hex":"#3366ff99","correct":32,"choice":32,"rt":506,"accuracy":1,"outcome":"+10","keys":[2007],"total_keys":1,"block":1,"trial":59,"stimulus":7,"robot":1,"valence":"win","action":"go","sham":0,"trial_type":"pit-trial","trial_index":90,"time_elapsed":402940,"internal_node_id":"0.0-64.0","task_version":"battery-v0.2-trt","session":2},{"rune":"B","rune_set":"elianto","hex":"#3366ff99","correct":-1,"choice":-1,"rt":-1,"accuracy":1,"outcome":"+10","keys":[],"total_keys":0,"block":1,"trial":60,"stimulus":5,"robot":2,"valence":"win","action":"no-go","sham":0,"trial_type":"pit-trial","trial_index":91,"time_elapsed":406948,"internal_node_id":"0.0-65.0","task_version":"battery-v0.2-trt","session":2},{"rune":"Z","rune_set":"elianto","hex":"#3366ff99","correct":32,"choice":32,"rt":628,"accuracy":1,"outcome":"+10","keys":[2129],"total_keys":1,"block":1,"trial":61,"stimulus":7,"robot":1,"valence":"win","action":"go","sham":0,"trial_type":"pit-trial","trial_index":92,"time_elapsed":410280,"internal_node_id":"0.0-66.0","task_version":"battery-v0.2-trt","session":2},{"rune":"T","rune_set":"elianto","hex":"#f73b6a7A","correct":-1,"choice":-1,"rt":-1,"accuracy":1,"outcome":"-10","keys":[],"total_keys":0,"block":1,"trial":62,"stimulus":4,"robot":4,"valence":"lose","action":"no-go","sham":1,"trial_type":"pit-trial","trial_index":93,"time_elapsed":414291,"internal_node_id":"0.0-67.0","task_version":"battery-v0.2-trt","session":2},{"rune":"C","rune_set":"elianto","hex":"#f73b6a7A","correct":-1,"choice":-1,"rt":-1,"accuracy":1,"outcome":"-1","keys":[],"total_keys":0,"block":1,"trial":63,"stimulus":6,"robot":4,"valence":"lose","action":"no-go","sham":0,"trial_type":"pit-trial","trial_index":94,"time_elapsed":418296,"internal_node_id":"0.0-68.0","task_version":"battery-v0.2-trt","session":2},{"rune":"B","rune_set":"elianto","hex":"#3366ff99","correct":-1,"choice":32,"rt":602,"accuracy":0,"outcome":"+1","keys":[2102],"total_keys":1,"block":1,"trial":64,"stimulus":5,"robot":2,"valence":"win","action":"no-go","sham":0,"trial_type":"pit-trial","trial_index":95,"time_elapsed":421604,"internal_node_id":"0.0-69.0","task_version":"battery-v0.2-trt","session":2},{"rune":"Z","rune_set":"elianto","hex":"#3366ff99","correct":32,"choice":32,"rt":652,"accuracy":1,"outcome":"+10","keys":[2152],"total_keys":1,"block":1,"trial":65,"stimulus":7,"robot":1,"valence":"win","action":"go","sham":0,"trial_type":"pit-trial","trial_index":96,"time_elapsed":424963,"internal_node_id":"0.0-70.0","task_version":"battery-v0.2-trt","session":2},{"rune":"T","rune_set":"elianto","hex":"#f73b6a7A","correct":-1,"choice":32,"rt":697,"accuracy":0,"outcome":"-10","keys":[2199],"total_keys":1,"block":1,"trial":66,"stimulus":4,"robot":4,"valence":"lose","action":"no-go","sham":0,"trial_type":"pit-trial","trial_index":97,"time_elapsed":428370,"internal_node_id":"0.0-71.0","task_version":"battery-v0.2-trt","session":2},{"rune":"B","rune_set":"elianto","hex":"#3366ff99","correct":-1,"choice":-1,"rt":-1,"accuracy":1,"outcome":"+10","keys":[],"total_keys":0,"block":1,"trial":67,"stimulus":5,"robot":2,"valence":"win","action":"no-go","sham":0,"trial_type":"pit-trial","trial_index":98,"time_elapsed":432381,"internal_node_id":"0.0-72.0","task_version":"battery-v0.2-trt","session":2},{"rune":"C","rune_set":"elianto","hex":"#f73b6a7A","correct":-1,"choice":-1,"rt":-1,"accuracy":1,"outcome":"-1","keys":[],"total_keys":0,"block":1,"trial":68,"stimulus":6,"robot":4,"valence":"lose","action":"no-go","sham":0,"trial_type":"pit-trial","trial_index":99,"time_elapsed":436390,"internal_node_id":"0.0-73.0","task_version":"battery-v0.2-trt","session":2},{"rune":"C","rune_set":"elianto","hex":"#f73b6a7A","correct":-1,"choice":-1,"rt":-1,"accuracy":1,"outcome":"-1","keys":[],"total_keys":0,"block":1,"trial":69,"stimulus":6,"robot":4,"valence":"lose","action":"no-go","sham":0,"trial_type":"pit-trial","trial_index":100,"time_elapsed":440397,"internal_node_id":"0.0-74.0","task_version":"battery-v0.2-trt","session":2},{"rune":"T","rune_set":"elianto","hex":"#f73b6a7A","correct":-1,"choice":32,"rt":742,"accuracy":0,"outcome":"-10","keys":[2241],"total_keys":1,"block":1,"trial":70,"stimulus":4,"robot":4,"valence":"lose","action":"no-go","sham":0,"trial_type":"pit-trial","trial_index":101,"time_elapsed":443847,"internal_node_id":"0.0-75.0","task_version":"battery-v0.2-trt","session":2},{"rune":"Z","rune_set":"elianto","hex":"#3366ff99","correct":32,"choice":32,"rt":628,"accuracy":1,"outcome":"+10","keys":[2129],"total_keys":1,"block":1,"trial":71,"stimulus":7,"robot":1,"valence":"win","action":"go","sham":0,"trial_type":"pit-trial","trial_index":102,"time_elapsed":447185,"internal_node_id":"0.0-76.0","task_version":"battery-v0.2-trt","session":2},{"rune":"B","rune_set":"elianto","hex":"#3366ff99","correct":-1,"choice":-1,"rt":-1,"accuracy":1,"outcome":"+1","keys":[],"total_keys":0,"block":1,"trial":72,"stimulus":5,"robot":2,"valence":"win","action":"no-go","sham":1,"trial_type":"pit-trial","trial_index":103,"time_elapsed":451195,"internal_node_id":"0.0-77.0","task_version":"battery-v0.2-trt","session":2},{"rune":"B","rune_set":"elianto","hex":"#3366ff99","correct":-1,"choice":-1,"rt":-1,"accuracy":1,"outcome":"+10","keys":[],"total_keys":0,"block":1,"trial":73,"stimulus":5,"robot":2,"valence":"win","action":"no-go","sham":0,"trial_type":"pit-trial","trial_index":104,"time_elapsed":455204,"internal_node_id":"0.0-78.0","task_version":"battery-v0.2-trt","session":2},{"rune":"H","rune_set":"elianto","hex":"#3366ff99","correct":32,"choice":32,"rt":526,"accuracy":1,"outcome":"+10","keys":[2029],"total_keys":1,"block":1,"trial":74,"stimulus":8,"robot":1,"valence":"win","action":"go","sham":0,"trial_type":"pit-trial","trial_index":105,"time_elapsed":458440,"internal_node_id":"0.0-79.0","task_version":"battery-v0.2-trt","session":2},{"rune":"Z","rune_set":"elianto","hex":"#3366ff99","correct":32,"choice":32,"rt":524,"accuracy":1,"outcome":"+10","keys":[2023],"total_keys":1,"block":1,"trial":75,"stimulus":7,"robot":1,"valence":"win","action":"go","sham":0,"trial_type":"pit-trial","trial_index":106,"time_elapsed":461670,"internal_node_id":"0.0-80.0","task_version":"battery-v0.2-trt","session":2},{"rune":"C","rune_set":"elianto","hex":"#f73b6a7A","correct":-1,"choice":-1,"rt":-1,"accuracy":1,"outcome":"-1","keys":[],"total_keys":0,"block":1,"trial":76,"stimulus":6,"robot":4,"valence":"lose","action":"no-go","sham":0,"trial_type":"pit-trial","trial_index":107,"time_elapsed":465675,"internal_node_id":"0.0-81.0","task_version":"battery-v0.2-trt","session":2},{"rune":"H","rune_set":"elianto","hex":"#3366ff99","correct":32,"choice":32,"rt":687,"accuracy":1,"outcome":"+10","keys":[2187],"total_keys":1,"block":1,"trial":77,"stimulus":8,"robot":1,"valence":"win","action":"go","sham":0,"trial_type":"pit-trial","trial_index":108,"time_elapsed":469072,"internal_node_id":"0.0-82.0","task_version":"battery-v0.2-trt","session":2},{"rune":"B","rune_set":"elianto","hex":"#3366ff99","correct":-1,"choice":-1,"rt":-1,"accuracy":1,"outcome":"+10","keys":[],"total_keys":0,"block":1,"trial":78,"stimulus":5,"robot":2,"valence":"win","action":"no-go","sham":0,"trial_type":"pit-trial","trial_index":109,"time_elapsed":473081,"internal_node_id":"0.0-83.0","task_version":"battery-v0.2-trt","session":2},{"rune":"C","rune_set":"elianto","hex":"#f73b6a7A","correct":-1,"choice":-1,"rt":-1,"accuracy":1,"outcome":"-1","keys":[],"total_keys":0,"block":1,"trial":79,"stimulus":6,"robot":4,"valence":"lose","action":"no-go","sham":0,"trial_type":"pit-trial","trial_index":110,"time_elapsed":477096,"internal_node_id":"0.0-84.0","task_version":"battery-v0.2-trt","session":2},{"rune":"Z","rune_set":"elianto","hex":"#3366ff99","correct":32,"choice":32,"rt":728,"accuracy":1,"outcome":"+1","keys":[2231],"total_keys":1,"block":1,"trial":80,"stimulus":7,"robot":1,"valence":"win","action":"go","sham":1,"trial_type":"pit-trial","trial_index":111,"time_elapsed":480534,"internal_node_id":"0.0-85.0","task_version":"battery-v0.2-trt","session":2},{"rune":"B","rune_set":"elianto","hex":"#3366ff99","correct":-1,"choice":-1,"rt":-1,"accuracy":1,"outcome":"+10","keys":[],"total_keys":0,"block":1,"trial":81,"stimulus":5,"robot":2,"valence":"win","action":"no-go","sham":0,"trial_type":"pit-trial","trial_index":112,"time_elapsed":484546,"internal_node_id":"0.0-86.0","task_version":"battery-v0.2-trt","session":2},{"rune":"R","rune_set":"elianto","hex":"#f73b6a7A","correct":32,"choice":32,"rt":606,"accuracy":1,"outcome":"-1","keys":[2111],"total_keys":1,"block":1,"trial":82,"stimulus":10,"robot":3,"valence":"lose","action":"go","sham":0,"trial_type":"pit-trial","trial_index":113,"time_elapsed":487862,"internal_node_id":"0.0-87.0","task_version":"battery-v0.2-trt","session":2},{"rune":"Y","rune_set":"elianto","hex":"#3366ff99","correct":-1,"choice":32,"rt":688,"accuracy":0,"outcome":"+10","keys":[2189],"total_keys":1,"block":1,"trial":83,"stimulus":9,"robot":2,"valence":"win","action":"no-go","sham":1,"trial_type":"pit-trial","trial_index":114,"time_elapsed":491259,"internal_node_id":"0.0-88.0","task_version":"battery-v0.2-trt","session":2},{"rune":"H","rune_set":"elianto","hex":"#3366ff99","correct":32,"choice":32,"rt":682,"accuracy":1,"outcome":"+10","keys":[2185],"total_keys":1,"block":1,"trial":84,"stimulus":8,"robot":1,"valence":"win","action":"go","sham":0,"trial_type":"pit-trial","trial_index":115,"time_elapsed":494651,"internal_node_id":"0.0-89.0","task_version":"battery-v0.2-trt","session":2},{"rune":"B","rune_set":"elianto","hex":"#3366ff99","correct":-1,"choice":-1,"rt":-1,"accuracy":1,"outcome":"+10","keys":[],"total_keys":0,"block":1,"trial":85,"stimulus":5,"robot":2,"valence":"win","action":"no-go","sham":0,"trial_type":"pit-trial","trial_index":116,"time_elapsed":498662,"internal_node_id":"0.0-90.0","task_version":"battery-v0.2-trt","session":2},{"rune":"Y","rune_set":"elianto","hex":"#3366ff99","correct":-1,"choice":32,"rt":446,"accuracy":0,"outcome":"+1","keys":[1947],"total_keys":1,"block":1,"trial":86,"stimulus":9,"robot":2,"valence":"win","action":"no-go","sham":0,"trial_type":"pit-trial","trial_index":117,"time_elapsed":501817,"internal_node_id":"0.0-91.0","task_version":"battery-v0.2-trt","session":2},{"rune":"H","rune_set":"elianto","hex":"#3366ff99","correct":32,"choice":32,"rt":576,"accuracy":1,"outcome":"+10","keys":[2076],"total_keys":1,"block":1,"trial":87,"stimulus":8,"robot":1,"valence":"win","action":"go","sham":0,"trial_type":"pit-trial","trial_index":118,"time_elapsed":505099,"internal_node_id":"0.0-92.0","task_version":"battery-v0.2-trt","session":2},{"rune":"R","rune_set":"elianto","hex":"#f73b6a7A","correct":32,"choice":-1,"rt":-1,"accuracy":0,"outcome":"-10","keys":[],"total_keys":0,"block":1,"trial":88,"stimulus":10,"robot":3,"valence":"lose","action":"go","sham":0,"trial_type":"pit-trial","trial_index":119,"time_elapsed":509108,"internal_node_id":"0.0-93.0","task_version":"battery-v0.2-trt","session":2},{"rune":"M","rune_set":"elianto","hex":"#3366ff99","correct":-1,"choice":32,"rt":528,"accuracy":0,"outcome":"+1","keys":[2030],"total_keys":1,"block":1,"trial":89,"stimulus":11,"robot":2,"valence":"win","action":"no-go","sham":0,"trial_type":"pit-trial","trial_index":120,"time_elapsed":512347,"internal_node_id":"0.0-94.0","task_version":"battery-v0.2-trt","session":2},{"rune":"R","rune_set":"elianto","hex":"#f73b6a7A","correct":32,"choice":32,"rt":799,"accuracy":1,"outcome":"-1","keys":[2298],"total_keys":1,"block":1,"trial":90,"stimulus":10,"robot":3,"valence":"lose","action":"go","sham":0,"trial_type":"pit-trial","trial_index":121,"time_elapsed":515850,"internal_node_id":"0.0-95.0","task_version":"battery-v0.2-trt","session":2},{"rune":"Y","rune_set":"elianto","hex":"#3366ff99","correct":-1,"choice":32,"rt":682,"accuracy":0,"outcome":"+1","keys":[2183],"total_keys":1,"block":1,"trial":91,"stimulus":9,"robot":2,"valence":"win","action":"no-go","sham":0,"trial_type":"pit-trial","trial_index":122,"time_elapsed":519241,"internal_node_id":"0.0-96.0","task_version":"battery-v0.2-trt","session":2},{"rune":"H","rune_set":"elianto","hex":"#3366ff99","correct":32,"choice":32,"rt":509,"accuracy":1,"outcome":"+1","keys":[2011],"total_keys":1,"block":1,"trial":92,"stimulus":8,"robot":1,"valence":"win","action":"go","sham":1,"trial_type":"pit-trial","trial_index":123,"time_elapsed":522460,"internal_node_id":"0.0-97.0","task_version":"battery-v0.2-trt","session":2},{"rune":"H","rune_set":"elianto","hex":"#3366ff99","correct":32,"choice":-1,"rt":-1,"accuracy":0,"outcome":"+1","keys":[],"total_keys":0,"block":1,"trial":93,"stimulus":8,"robot":1,"valence":"win","action":"go","sham":0,"trial_type":"pit-trial","trial_index":124,"time_elapsed":526471,"internal_node_id":"0.0-98.0","task_version":"battery-v0.2-trt","session":2},{"rune":"R","rune_set":"elianto","hex":"#f73b6a7A","correct":32,"choice":32,"rt":751,"accuracy":1,"outcome":"-1","keys":[2252],"total_keys":1,"block":1,"trial":94,"stimulus":10,"robot":3,"valence":"lose","action":"go","sham":0,"trial_type":"pit-trial","trial_index":125,"time_elapsed":529930,"internal_node_id":"0.0-99.0","task_version":"battery-v0.2-trt","session":2},{"rune":"M","rune_set":"elianto","hex":"#3366ff99","correct":-1,"choice":32,"rt":551,"accuracy":0,"outcome":"+1","keys":[2052],"total_keys":1,"block":1,"trial":95,"stimulus":11,"robot":2,"valence":"win","action":"no-go","sham":0,"trial_type":"pit-trial","trial_index":126,"time_elapsed":533189,"internal_node_id":"0.0-100.0","task_version":"battery-v0.2-trt","session":2},{"rune":"Y","rune_set":"elianto","hex":"#3366ff99","correct":-1,"choice":-1,"rt":-1,"accuracy":1,"outcome":"+10","keys":[],"total_keys":0,"block":1,"trial":96,"stimulus":9,"robot":2,"valence":"win","action":"no-go","sham":0,"trial_type":"pit-trial","trial_index":127,"time_elapsed":537199,"internal_node_id":"0.0-101.0","task_version":"battery-v0.2-trt","session":2},{"rune":"Y","rune_set":"elianto","hex":"#3366ff99","correct":-1,"choice":32,"rt":848,"accuracy":0,"outcome":"+1","keys":[2350],"total_keys":1,"block":1,"trial":97,"stimulus":9,"robot":2,"valence":"win","action":"no-go","sham":0,"trial_type":"pit-trial","trial_index":128,"time_elapsed":540757,"internal_node_id":"0.0-102.0","task_version":"battery-v0.2-trt","session":2},{"rune":"R","rune_set":"elianto","hex":"#f73b6a7A","correct":32,"choice":32,"rt":517,"accuracy":1,"outcome":"-1","keys":[2019],"total_keys":1,"block":1,"trial":98,"stimulus":10,"robot":3,"valence":"lose","action":"go","sham":0,"trial_type":"pit-trial","trial_index":129,"time_elapsed":543985,"internal_node_id":"0.0-103.0","task_version":"battery-v0.2-trt","session":2},{"rune":"M","rune_set":"elianto","hex":"#3366ff99","correct":-1,"choice":-1,"rt":-1,"accuracy":1,"outcome":"+10","keys":[],"total_keys":0,"block":1,"trial":99,"stimulus":11,"robot":2,"valence":"win","action":"no-go","sham":0,"trial_type":"pit-trial","trial_index":130,"time_elapsed":547996,"internal_node_id":"0.0-104.0","task_version":"battery-v0.2-trt","session":2},{"rune":"H","rune_set":"elianto","hex":"#3366ff99","correct":32,"choice":32,"rt":866,"accuracy":1,"outcome":"+10","keys":[2367],"total_keys":1,"block":1,"trial":100,"stimulus":8,"robot":1,"valence":"win","action":"go","sham":0,"trial_type":"pit-trial","trial_index":131,"time_elapsed":551567,"internal_node_id":"0.0-105.0","task_version":"battery-v0.2-trt","session":2},{"rune":"H","rune_set":"elianto","hex":"#3366ff99","correct":32,"choice":32,"rt":477,"accuracy":1,"outcome":"+1","keys":[1982],"total_keys":1,"block":1,"trial":101,"stimulus":8,"robot":1,"valence":"win","action":"go","sham":1,"trial_type":"pit-trial","trial_index":132,"time_elapsed":554759,"internal_node_id":"0.0-106.0","task_version":"battery-v0.2-trt","session":2},{"rune":"R","rune_set":"elianto","hex":"#f73b6a7A","correct":32,"choice":32,"rt":588,"accuracy":1,"outcome":"-1","keys":[2088],"total_keys":1,"block":1,"trial":102,"stimulus":10,"robot":3,"valence":"lose","action":"go","sham":0,"trial_type":"pit-trial","trial_index":133,"time_elapsed":558055,"internal_node_id":"0.0-107.0","task_version":"battery-v0.2-trt","session":2},{"rune":"Y","rune_set":"elianto","hex":"#3366ff99","correct":-1,"choice":-1,"rt":-1,"accuracy":1,"outcome":"+10","keys":[],"total_keys":0,"block":1,"trial":103,"stimulus":9,"robot":2,"valence":"win","action":"no-go","sham":0,"trial_type":"pit-trial","trial_index":134,"time_elapsed":562067,"internal_node_id":"0.0-108.0","task_version":"battery-v0.2-trt","session":2},{"rune":"M","rune_set":"elianto","hex":"#3366ff99","correct":-1,"choice":-1,"rt":-1,"accuracy":1,"outcome":"+10","keys":[],"total_keys":0,"block":1,"trial":104,"stimulus":11,"robot":2,"valence":"win","action":"no-go","sham":0,"trial_type":"pit-trial","trial_index":135,"time_elapsed":566078,"internal_node_id":"0.0-109.0","task_version":"battery-v0.2-trt","session":2},{"rune":"R","rune_set":"elianto","hex":"#f73b6a7A","correct":32,"choice":32,"rt":590,"accuracy":1,"outcome":"-1","keys":[2090],"total_keys":1,"block":1,"trial":105,"stimulus":10,"robot":3,"valence":"lose","action":"go","sham":0,"trial_type":"pit-trial","trial_index":136,"time_elapsed":569376,"internal_node_id":"0.0-110.0","task_version":"battery-v0.2-trt","session":2},{"rune":"Y","rune_set":"elianto","hex":"#3366ff99","correct":-1,"choice":-1,"rt":-1,"accuracy":1,"outcome":"+10","keys":[],"total_keys":0,"block":1,"trial":106,"stimulus":9,"robot":2,"valence":"win","action":"no-go","sham":0,"trial_type":"pit-trial","trial_index":137,"time_elapsed":573382,"internal_node_id":"0.0-111.0","task_version":"battery-v0.2-trt","session":2},{"rune":"H","rune_set":"elianto","hex":"#3366ff99","correct":32,"choice":-1,"rt":-1,"accuracy":0,"outcome":"+10","keys":[],"total_keys":0,"block":1,"trial":107,"stimulus":8,"robot":1,"valence":"win","action":"go","sham":1,"trial_type":"pit-trial","trial_index":138,"time_elapsed":577391,"internal_node_id":"0.0-112.0","task_version":"battery-v0.2-trt","session":2},{"rune":"M","rune_set":"elianto","hex":"#3366ff99","correct":-1,"choice":-1,"rt":-1,"accuracy":1,"outcome":"+10","keys":[],"total_keys":0,"block":1,"trial":108,"stimulus":11,"robot":2,"valence":"win","action":"no-go","sham":0,"trial_type":"pit-trial","trial_index":139,"time_elapsed":581403,"internal_node_id":"0.0-113.0","task_version":"battery-v0.2-trt","session":2},{"rune":"R","rune_set":"elianto","hex":"#f73b6a7A","correct":32,"choice":32,"rt":341,"accuracy":1,"outcome":"-1","keys":[1842],"total_keys":1,"block":1,"trial":109,"stimulus":10,"robot":3,"valence":"lose","action":"go","sham":0,"trial_type":"pit-trial","trial_index":140,"time_elapsed":584448,"internal_node_id":"0.0-114.0","task_version":"battery-v0.2-trt","session":2},{"rune":"H","rune_set":"elianto","hex":"#3366ff99","correct":32,"choice":-1,"rt":-1,"accuracy":0,"outcome":"+10","keys":[],"total_keys":0,"block":1,"trial":110,"stimulus":8,"robot":1,"valence":"win","action":"go","sham":1,"trial_type":"pit-trial","trial_index":141,"time_elapsed":588461,"internal_node_id":"0.0-115.0","task_version":"battery-v0.2-trt","session":2},{"rune":"M","rune_set":"elianto","hex":"#3366ff99","correct":-1,"choice":-1,"rt":-1,"accuracy":1,"outcome":"+10","keys":[],"total_keys":0,"block":1,"trial":111,"stimulus":11,"robot":2,"valence":"win","action":"no-go","sham":0,"trial_type":"pit-trial","trial_index":142,"time_elapsed":592474,"internal_node_id":"0.0-116.0","task_version":"battery-v0.2-trt","session":2},{"rune":"Y","rune_set":"elianto","hex":"#3366ff99","correct":-1,"choice":-1,"rt":-1,"accuracy":1,"outcome":"+10","keys":[],"total_keys":0,"block":1,"trial":112,"stimulus":9,"robot":2,"valence":"win","action":"no-go","sham":0,"trial_type":"pit-trial","trial_index":143,"time_elapsed":596481,"internal_node_id":"0.0-117.0","task_version":"battery-v0.2-trt","session":2},{"rune":"R","rune_set":"elianto","hex":"#f73b6a7A","correct":32,"choice":32,"rt":327,"accuracy":1,"outcome":"-1","keys":[1830],"total_keys":1,"block":1,"trial":113,"stimulus":10,"robot":3,"valence":"lose","action":"go","sham":0,"trial_type":"pit-trial","trial_index":144,"time_elapsed":599519,"internal_node_id":"0.0-118.0","task_version":"battery-v0.2-trt","session":2},{"rune":"M","rune_set":"elianto","hex":"#3366ff99","correct":-1,"choice":-1,"rt":-1,"accuracy":1,"outcome":"+10","keys":[],"total_keys":0,"block":1,"trial":114,"stimulus":11,"robot":2,"valence":"win","action":"no-go","sham":0,"trial_type":"pit-trial","trial_index":145,"time_elapsed":603529,"internal_node_id":"0.0-119.0","task_version":"battery-v0.2-trt","session":2},{"rune":"Y","rune_set":"elianto","hex":"#3366ff99","correct":-1,"choice":-1,"rt":-1,"accuracy":1,"outcome":"+10","keys":[],"total_keys":0,"block":1,"trial":115,"stimulus":9,"robot":2,"valence":"win","action":"no-go","sham":0,"trial_type":"pit-trial","trial_index":146,"time_elapsed":607540,"internal_node_id":"0.0-120.0","task_version":"battery-v0.2-trt","session":2},{"rune":"H","rune_set":"elianto","hex":"#3366ff99","correct":32,"choice":-1,"rt":-1,"accuracy":0,"outcome":"+1","keys":[],"total_keys":0,"block":1,"trial":116,"stimulus":8,"robot":1,"valence":"win","action":"go","sham":0,"trial_type":"pit-trial","trial_index":147,"time_elapsed":611550,"internal_node_id":"0.0-121.0","task_version":"battery-v0.2-trt","session":2},{"rune":"Y","rune_set":"elianto","hex":"#3366ff99","correct":-1,"choice":-1,"rt":-1,"accuracy":1,"outcome":"+10","keys":[],"total_keys":0,"block":1,"trial":117,"stimulus":9,"robot":2,"valence":"win","action":"no-go","sham":0,"trial_type":"pit-trial","trial_index":148,"time_elapsed":615558,"internal_node_id":"0.0-122.0","task_version":"battery-v0.2-trt","session":2},{"rune":"R","rune_set":"elianto","hex":"#f73b6a7A","correct":32,"choice":32,"rt":513,"accuracy":1,"outcome":"-1","keys":[2015],"total_keys":1,"block":1,"trial":118,"stimulus":10,"robot":3,"valence":"lose","action":"go","sham":0,"trial_type":"pit-trial","trial_index":149,"time_elapsed":618778,"internal_node_id":"0.0-123.0","task_version":"battery-v0.2-trt","session":2},{"rune":"M","rune_set":"elianto","hex":"#3366ff99","correct":-1,"choice":-1,"rt":-1,"accuracy":1,"outcome":"+10","keys":[],"total_keys":0,"block":1,"trial":119,"stimulus":11,"robot":2,"valence":"win","action":"no-go","sham":0,"trial_type":"pit-trial","trial_index":150,"time_elapsed":622789,"internal_node_id":"0.0-124.0","task_version":"battery-v0.2-trt","session":2},{"rune":"H","rune_set":"elianto","hex":"#3366ff99","correct":32,"choice":-1,"rt":-1,"accuracy":0,"outcome":"+1","keys":[],"total_keys":0,"block":1,"trial":120,"stimulus":8,"robot":1,"valence":"win","action":"go","sham":0,"trial_type":"pit-trial","trial_index":151,"time_elapsed":626795,"internal_node_id":"0.0-125.0","task_version":"battery-v0.2-trt","session":2},{"view_history":"[{\"page_index\":0,\"viewing_time\":67097},{\"page_index\":1,\"viewing_time\":2219}]","rt":69316,"trial_type":"pit-instructions","trial_index":152,"time_elapsed":696202,"internal_node_id":"0.0-126.0","task_version":"battery-v0.2-trt","session":2},{"rune":"J","rune_set":"elianto","hex":"#f73b6a7A","correct":32,"choice":32,"rt":315,"accuracy":1,"outcome":"-10","keys":[1821],"total_keys":1,"block":2,"trial":121,"stimulus":1,"robot":3,"valence":"lose","action":"go","sham":1,"trial_type":"pit-trial","trial_index":153,"time_elapsed":699230,"internal_node_id":"0.0-127.0","task_version":"battery-v0.2-trt","session":2},{"rune":"D","rune_set":"elianto","hex":"#f73b6a7A","correct":-1,"choice":32,"rt":459,"accuracy":0,"outcome":"-10","keys":[1963],"total_keys":1,"block":2,"trial":122,"stimulus":2,"robot":4,"valence":"lose","action":"no-go","sham":0,"trial_type":"pit-trial","trial_index":154,"time_elapsed":702399,"internal_node_id":"0.0-128.0","task_version":"battery-v0.2-trt","session":2},{"rune":"K","rune_set":"elianto","hex":"#3366ff99","correct":-1,"choice":32,"rt":567,"accuracy":0,"outcome":"+1","keys":[2067],"total_keys":1,"block":2,"trial":123,"stimulus":3,"robot":2,"valence":"win","action":"no-go","sham":0,"trial_type":"pit-trial","trial_index":155,"time_elapsed":705674,"internal_node_id":"0.0-129.0","task_version":"battery-v0.2-trt","session":2},{"rune":"V","rune_set":"elianto","hex":"#3366ff99","correct":32,"choice":32,"rt":545,"accuracy":1,"outcome":"+10","keys":[2047],"total_keys":1,"block":2,"trial":124,"stimulus":0,"robot":1,"valence":"win","action":"go","sham":0,"trial_type":"pit-trial","trial_index":156,"time_elapsed":708924,"internal_node_id":"0.0-130.0","task_version":"battery-v0.2-trt","session":2},{"rune":"V","rune_set":"elianto","hex":"#3366ff99","correct":32,"choice":32,"rt":531,"accuracy":1,"outcome":"+10","keys":[2031],"total_keys":1,"block":2,"trial":125,"stimulus":0,"robot":1,"valence":"win","action":"go","sham":0,"trial_type":"pit-trial","trial_index":157,"time_elapsed":712164,"internal_node_id":"0.0-131.0","task_version":"battery-v0.2-trt","session":2},{"rune":"K","rune_set":"elianto","hex":"#3366ff99","correct":-1,"choice":32,"rt":604,"accuracy":0,"outcome":"+1","keys":[2106],"total_keys":1,"block":2,"trial":126,"stimulus":3,"robot":2,"valence":"win","action":"no-go","sham":0,"trial_type":"pit-trial","trial_index":158,"time_elapsed":715480,"internal_node_id":"0.0-132.0","task_version":"battery-v0.2-trt","session":2},{"rune":"D","rune_set":"elianto","hex":"#f73b6a7A","correct":-1,"choice":-1,"rt":-1,"accuracy":1,"outcome":"-1","keys":[],"total_keys":0,"block":2,"trial":127,"stimulus":2,"robot":4,"valence":"lose","action":"no-go","sham":0,"trial_type":"pit-trial","trial_index":159,"time_elapsed":719490,"internal_node_id":"0.0-133.0","task_version":"battery-v0.2-trt","session":2},{"rune":"J","rune_set":"elianto","hex":"#f73b6a7A","correct":32,"choice":-1,"rt":-1,"accuracy":0,"outcome":"-10","keys":[],"total_keys":0,"block":2,"trial":128,"stimulus":1,"robot":3,"valence":"lose","action":"go","sham":0,"trial_type":"pit-trial","trial_index":160,"time_elapsed":723502,"internal_node_id":"0.0-134.0","task_version":"battery-v0.2-trt","session":2},{"rune":"V","rune_set":"elianto","hex":"#3366ff99","correct":32,"choice":32,"rt":358,"accuracy":1,"outcome":"+1","keys":[1860],"total_keys":1,"block":2,"trial":129,"stimulus":0,"robot":1,"valence":"win","action":"go","sham":1,"trial_type":"pit-trial","trial_index":161,"time_elapsed":726572,"internal_node_id":"0.0-135.0","task_version":"battery-v0.2-trt","session":2},{"rune":"D","rune_set":"elianto","hex":"#f73b6a7A","correct":-1,"choice":-1,"rt":-1,"accuracy":1,"outcome":"-1","keys":[],"total_keys":0,"block":2,"trial":130,"stimulus":2,"robot":4,"valence":"lose","action":"no-go","sham":0,"trial_type":"pit-trial","trial_index":162,"time_elapsed":730587,"internal_node_id":"0.0-136.0","task_version":"battery-v0.2-trt","session":2},{"rune":"K","rune_set":"elianto","hex":"#3366ff99","correct":-1,"choice":32,"rt":841,"accuracy":0,"outcome":"+1","keys":[2342],"total_keys":1,"block":2,"trial":131,"stimulus":3,"robot":2,"valence":"win","action":"no-go","sham":0,"trial_type":"pit-trial","trial_index":163,"time_elapsed":734138,"internal_node_id":"0.0-137.0","task_version":"battery-v0.2-trt","session":2},{"rune":"J","rune_set":"elianto","hex":"#f73b6a7A","correct":32,"choice":-1,"rt":-1,"accuracy":0,"outcome":"-10","keys":[],"total_keys":0,"block":2,"trial":132,"stimulus":1,"robot":3,"valence":"lose","action":"go","sham":0,"trial_type":"pit-trial","trial_index":164,"time_elapsed":738148,"internal_node_id":"0.0-138.0","task_version":"battery-v0.2-trt","session":2},{"rune":"V","rune_set":"elianto","hex":"#3366ff99","correct":32,"choice":32,"rt":403,"accuracy":1,"outcome":"+10","keys":[1905],"total_keys":1,"block":2,"trial":133,"stimulus":0,"robot":1,"valence":"win","action":"go","sham":0,"trial_type":"pit-trial","trial_index":165,"time_elapsed":741261,"internal_node_id":"0.0-139.0","task_version":"battery-v0.2-trt","session":2},{"rune":"J","rune_set":"elianto","hex":"#f73b6a7A","correct":32,"choice":32,"rt":320,"accuracy":1,"outcome":"-1","keys":[1823],"total_keys":1,"block":2,"trial":134,"stimulus":1,"robot":3,"valence":"lose","action":"go","sham":0,"trial_type":"pit-trial","trial_index":166,"time_elapsed":744293,"internal_node_id":"0.0-140.0","task_version":"battery-v0.2-trt","session":2},{"rune":"K","rune_set":"elianto","hex":"#3366ff99","correct":-1,"choice":-1,"rt":-1,"accuracy":1,"outcome":"+10","keys":[],"total_keys":0,"block":2,"trial":135,"stimulus":3,"robot":2,"valence":"win","action":"no-go","sham":0,"trial_type":"pit-trial","trial_index":167,"time_elapsed":748304,"internal_node_id":"0.0-141.0","task_version":"battery-v0.2-trt","session":2},{"rune":"D","rune_set":"elianto","hex":"#f73b6a7A","correct":-1,"choice":-1,"rt":-1,"accuracy":1,"outcome":"-1","keys":[],"total_keys":0,"block":2,"trial":136,"stimulus":2,"robot":4,"valence":"lose","action":"no-go","sham":0,"trial_type":"pit-trial","trial_index":168,"time_elapsed":752314,"internal_node_id":"0.0-142.0","task_version":"battery-v0.2-trt","session":2},{"rune":"V","rune_set":"elianto","hex":"#3366ff99","correct":32,"choice":32,"rt":341,"accuracy":1,"outcome":"+10","keys":[1842],"total_keys":1,"block":2,"trial":137,"stimulus":0,"robot":1,"valence":"win","action":"go","sham":0,"trial_type":"pit-trial","trial_index":169,"time_elapsed":755367,"internal_node_id":"0.0-143.0","task_version":"battery-v0.2-trt","session":2},{"rune":"K","rune_set":"elianto","hex":"#3366ff99","correct":-1,"choice":-1,"rt":-1,"accuracy":1,"outcome":"+10","keys":[],"total_keys":0,"block":2,"trial":138,"stimulus":3,"robot":2,"valence":"win","action":"no-go","sham":0,"trial_type":"pit-trial","trial_index":170,"time_elapsed":759372,"internal_node_id":"0.0-144.0","task_version":"battery-v0.2-trt","session":2},{"rune":"D","rune_set":"elianto","hex":"#f73b6a7A","correct":-1,"choice":-1,"rt":-1,"accuracy":1,"outcome":"-1","keys":[],"total_keys":0,"block":2,"trial":139,"stimulus":2,"robot":4,"valence":"lose","action":"no-go","sham":0,"trial_type":"pit-trial","trial_index":171,"time_elapsed":763383,"internal_node_id":"0.0-145.0","task_version":"battery-v0.2-trt","session":2},{"rune":"J","rune_set":"elianto","hex":"#f73b6a7A","correct":32,"choice":32,"rt":536,"accuracy":1,"outcome":"-1","keys":[2038],"total_keys":1,"block":2,"trial":140,"stimulus":1,"robot":3,"valence":"lose","action":"go","sham":0,"trial_type":"pit-trial","trial_index":172,"time_elapsed":766629,"internal_node_id":"0.0-146.0","task_version":"battery-v0.2-trt","session":2},{"rune":"D","rune_set":"elianto","hex":"#f73b6a7A","correct":-1,"choice":-1,"rt":-1,"accuracy":1,"outcome":"-1","keys":[],"total_keys":0,"block":2,"trial":141,"stimulus":2,"robot":4,"valence":"lose","action":"no-go","sham":0,"trial_type":"pit-trial","trial_index":173,"time_elapsed":770638,"internal_node_id":"0.0-147.0","task_version":"battery-v0.2-trt","session":2},{"rune":"K","rune_set":"elianto","hex":"#3366ff99","correct":-1,"choice":-1,"rt":-1,"accuracy":1,"outcome":"+10","keys":[],"total_keys":0,"block":2,"trial":142,"stimulus":3,"robot":2,"valence":"win","action":"no-go","sham":0,"trial_type":"pit-trial","trial_index":174,"time_elapsed":774649,"internal_node_id":"0.0-148.0","task_version":"battery-v0.2-trt","session":2},{"rune":"V","rune_set":"elianto","hex":"#3366ff99","correct":32,"choice":32,"rt":333,"accuracy":1,"outcome":"+10","keys":[1836],"total_keys":1,"block":2,"trial":143,"stimulus":0,"robot":1,"valence":"win","action":"go","sham":0,"trial_type":"pit-trial","trial_index":175,"time_elapsed":777692,"internal_node_id":"0.0-149.0","task_version":"battery-v0.2-trt","session":2},{"rune":"J","rune_set":"elianto","hex":"#f73b6a7A","correct":32,"choice":32,"rt":294,"accuracy":1,"outcome":"-1","keys":[1793],"total_keys":1,"block":2,"trial":144,"stimulus":1,"robot":3,"valence":"lose","action":"go","sham":0,"trial_type":"pit-trial","trial_index":176,"time_elapsed":780691,"internal_node_id":"0.0-150.0","task_version":"battery-v0.2-trt","session":2},{"rune":"D","rune_set":"elianto","hex":"#f73b6a7A","correct":-1,"choice":-1,"rt":-1,"accuracy":1,"outcome":"-1","keys":[],"total_keys":0,"block":2,"trial":145,"stimulus":2,"robot":4,"valence":"lose","action":"no-go","sham":0,"trial_type":"pit-trial","trial_index":177,"time_elapsed":784703,"internal_node_id":"0.0-151.0","task_version":"battery-v0.2-trt","session":2},{"rune":"K","rune_set":"elianto","hex":"#3366ff99","correct":-1,"choice":-1,"rt":-1,"accuracy":1,"outcome":"+10","keys":[],"total_keys":0,"block":2,"trial":146,"stimulus":3,"robot":2,"valence":"win","action":"no-go","sham":0,"trial_type":"pit-trial","trial_index":178,"time_elapsed":788713,"internal_node_id":"0.0-152.0","task_version":"battery-v0.2-trt","session":2},{"rune":"J","rune_set":"elianto","hex":"#f73b6a7A","correct":32,"choice":32,"rt":636,"accuracy":1,"outcome":"-1","keys":[2136],"total_keys":1,"block":2,"trial":147,"stimulus":1,"robot":3,"valence":"lose","action":"go","sham":0,"trial_type":"pit-trial","trial_index":179,"time_elapsed":792055,"internal_node_id":"0.0-153.0","task_version":"battery-v0.2-trt","session":2},{"rune":"V","rune_set":"elianto","hex":"#3366ff99","correct":32,"choice":32,"rt":409,"accuracy":1,"outcome":"+10","keys":[1911],"total_keys":1,"block":2,"trial":148,"stimulus":0,"robot":1,"valence":"win","action":"go","sham":0,"trial_type":"pit-trial","trial_index":180,"time_elapsed":795172,"internal_node_id":"0.0-154.0","task_version":"battery-v0.2-trt","session":2},{"rune":"J","rune_set":"elianto","hex":"#f73b6a7A","correct":32,"choice":-1,"rt":-1,"accuracy":0,"outcome":"-10","keys":[],"total_keys":0,"block":2,"trial":149,"stimulus":1,"robot":3,"valence":"lose","action":"go","sham":0,"trial_type":"pit-trial","trial_index":181,"time_elapsed":799184,"internal_node_id":"0.0-155.0","task_version":"battery-v0.2-trt","session":2},{"rune":"K","rune_set":"elianto","hex":"#3366ff99","correct":-1,"choice":-1,"rt":-1,"accuracy":1,"outcome":"+10","keys":[],"total_keys":0,"block":2,"trial":150,"stimulus":3,"robot":2,"valence":"win","action":"no-go","sham":0,"trial_type":"pit-trial","trial_index":182,"time_elapsed":803196,"internal_node_id":"0.0-156.0","task_version":"battery-v0.2-trt","session":2},{"rune":"V","rune_set":"elianto","hex":"#3366ff99","correct":32,"choice":32,"rt":285,"accuracy":1,"outcome":"+1","keys":[1790],"total_keys":1,"block":2,"trial":151,"stimulus":0,"robot":1,"valence":"win","action":"go","sham":1,"trial_type":"pit-trial","trial_index":183,"time_elapsed":806193,"internal_node_id":"0.0-157.0","task_version":"battery-v0.2-trt","session":2},{"rune":"D","rune_set":"elianto","hex":"#f73b6a7A","correct":-1,"choice":-1,"rt":-1,"accuracy":1,"outcome":"-1","keys":[],"total_keys":0,"block":2,"trial":152,"stimulus":2,"robot":4,"valence":"lose","action":"no-go","sham":0,"trial_type":"pit-trial","trial_index":184,"time_elapsed":810202,"internal_node_id":"0.0-158.0","task_version":"battery-v0.2-trt","session":2},{"rune":"E","rune_set":"elianto","hex":"#f73b6a7A","correct":-1,"choice":32,"rt":619,"accuracy":0,"outcome":"-1","keys":[2121],"total_keys":1,"block":2,"trial":153,"stimulus":4,"robot":4,"valence":"lose","action":"no-go","sham":1,"trial_type":"pit-trial","trial_index":185,"time_elapsed":813530,"internal_node_id":"0.0-159.0","task_version":"battery-v0.2-trt","session":2},{"rune":"V","rune_set":"elianto","hex":"#3366ff99","correct":32,"choice":32,"rt":286,"accuracy":1,"outcome":"+10","keys":[1787],"total_keys":1,"block":2,"trial":154,"stimulus":0,"robot":1,"valence":"win","action":"go","sham":0,"trial_type":"pit-trial","trial_index":186,"time_elapsed":816524,"internal_node_id":"0.0-160.0","task_version":"battery-v0.2-trt","session":2},{"rune":"K","rune_set":"elianto","hex":"#3366ff99","correct":-1,"choice":-1,"rt":-1,"accuracy":1,"outcome":"+10","keys":[],"total_keys":0,"block":2,"trial":155,"stimulus":3,"robot":2,"valence":"win","action":"no-go","sham":0,"trial_type":"pit-trial","trial_index":187,"time_elapsed":820532,"internal_node_id":"0.0-161.0","task_version":"battery-v0.2-trt","session":2},{"rune":"J","rune_set":"elianto","hex":"#f73b6a7A","correct":32,"choice":32,"rt":292,"accuracy":1,"outcome":"-1","keys":[1792],"total_keys":1,"block":2,"trial":156,"stimulus":1,"robot":3,"valence":"lose","action":"go","sham":0,"trial_type":"pit-trial","trial_index":188,"time_elapsed":823530,"internal_node_id":"0.0-162.0","task_version":"battery-v0.2-trt","session":2},{"rune":"J","rune_set":"elianto","hex":"#f73b6a7A","correct":32,"choice":32,"rt":647,"accuracy":1,"outcome":"-1","keys":[2145],"total_keys":1,"block":2,"trial":157,"stimulus":1,"robot":3,"valence":"lose","action":"go","sham":0,"trial_type":"pit-trial","trial_index":189,"time_elapsed":826883,"internal_node_id":"0.0-163.0","task_version":"battery-v0.2-trt","session":2},{"rune":"K","rune_set":"elianto","hex":"#3366ff99","correct":-1,"choice":-1,"rt":-1,"accuracy":1,"outcome":"+10","keys":[],"total_keys":0,"block":2,"trial":158,"stimulus":3,"robot":2,"valence":"win","action":"no-go","sham":0,"trial_type":"pit-trial","trial_index":190,"time_elapsed":830894,"internal_node_id":"0.0-164.0","task_version":"battery-v0.2-trt","session":2},{"rune":"V","rune_set":"elianto","hex":"#3366ff99","correct":32,"choice":32,"rt":296,"accuracy":1,"outcome":"+10","keys":[1795],"total_keys":1,"block":2,"trial":159,"stimulus":0,"robot":1,"valence":"win","action":"go","sham":0,"trial_type":"pit-trial","trial_index":191,"time_elapsed":833897,"internal_node_id":"0.0-165.0","task_version":"battery-v0.2-trt","session":2},{"rune":"E","rune_set":"elianto","hex":"#f73b6a7A","correct":-1,"choice":32,"rt":248,"accuracy":0,"outcome":"-1","keys":[1751],"total_keys":1,"block":2,"trial":160,"stimulus":4,"robot":4,"valence":"lose","action":"no-go","sham":1,"trial_type":"pit-trial","trial_index":192,"time_elapsed":836859,"internal_node_id":"0.0-166.0","task_version":"battery-v0.2-trt","session":2},{"rune":"W","rune_set":"elianto","hex":"#f73b6a7A","correct":32,"choice":32,"rt":612,"accuracy":1,"outcome":"-1","keys":[2112],"total_keys":1,"block":2,"trial":161,"stimulus":5,"robot":3,"valence":"lose","action":"go","sham":0,"trial_type":"pit-trial","trial_index":193,"time_elapsed":840179,"internal_node_id":"0.0-167.0","task_version":"battery-v0.2-trt","session":2},{"rune":"E","rune_set":"elianto","hex":"#f73b6a7A","correct":-1,"choice":32,"rt":361,"accuracy":0,"outcome":"-1","keys":[1862],"total_keys":1,"block":2,"trial":162,"stimulus":4,"robot":4,"valence":"lose","action":"no-go","sham":1,"trial_type":"pit-trial","trial_index":194,"time_elapsed":843247,"internal_node_id":"0.0-168.0","task_version":"battery-v0.2-trt","session":2},{"rune":"V","rune_set":"elianto","hex":"#3366ff99","correct":32,"choice":32,"rt":382,"accuracy":1,"outcome":"+10","keys":[1882],"total_keys":1,"block":2,"trial":163,"stimulus":0,"robot":1,"valence":"win","action":"go","sham":0,"trial_type":"pit-trial","trial_index":195,"time_elapsed":846338,"internal_node_id":"0.0-169.0","task_version":"battery-v0.2-trt","session":2},{"rune":"K","rune_set":"elianto","hex":"#3366ff99","correct":-1,"choice":-1,"rt":-1,"accuracy":1,"outcome":"+10","keys":[],"total_keys":0,"block":2,"trial":164,"stimulus":3,"robot":2,"valence":"win","action":"no-go","sham":0,"trial_type":"pit-trial","trial_index":196,"time_elapsed":850350,"internal_node_id":"0.0-170.0","task_version":"battery-v0.2-trt","session":2},{"rune":"E","rune_set":"elianto","hex":"#f73b6a7A","correct":-1,"choice":32,"rt":368,"accuracy":0,"outcome":"-10","keys":[1870],"total_keys":1,"block":2,"trial":165,"stimulus":4,"robot":4,"valence":"lose","action":"no-go","sham":0,"trial_type":"pit-trial","trial_index":197,"time_elapsed":853427,"internal_node_id":"0.0-171.0","task_version":"battery-v0.2-trt","session":2},{"rune":"W","rune_set":"elianto","hex":"#f73b6a7A","correct":32,"choice":32,"rt":289,"accuracy":1,"outcome":"-1","keys":[1791],"total_keys":1,"block":2,"trial":166,"stimulus":5,"robot":3,"valence":"lose","action":"go","sham":0,"trial_type":"pit-trial","trial_index":198,"time_elapsed":856422,"internal_node_id":"0.0-172.0","task_version":"battery-v0.2-trt","session":2},{"rune":"V","rune_set":"elianto","hex":"#3366ff99","correct":32,"choice":32,"rt":497,"accuracy":1,"outcome":"+1","keys":[1998],"total_keys":1,"block":2,"trial":167,"stimulus":0,"robot":1,"valence":"win","action":"go","sham":1,"trial_type":"pit-trial","trial_index":199,"time_elapsed":859626,"internal_node_id":"0.0-173.0","task_version":"battery-v0.2-trt","session":2},{"rune":"K","rune_set":"elianto","hex":"#3366ff99","correct":-1,"choice":-1,"rt":-1,"accuracy":1,"outcome":"+1","keys":[],"total_keys":0,"block":2,"trial":168,"stimulus":3,"robot":2,"valence":"win","action":"no-go","sham":1,"trial_type":"pit-trial","trial_index":200,"time_elapsed":863633,"internal_node_id":"0.0-174.0","task_version":"battery-v0.2-trt","session":2},{"rune":"P","rune_set":"elianto","hex":"#3366ff99","correct":-1,"choice":32,"rt":452,"accuracy":0,"outcome":"+1","keys":[1953],"total_keys":1,"block":2,"trial":169,"stimulus":7,"robot":2,"valence":"win","action":"no-go","sham":0,"trial_type":"pit-trial","trial_index":201,"time_elapsed":866791,"internal_node_id":"0.0-175.0","task_version":"battery-v0.2-trt","session":2},{"rune":"E","rune_set":"elianto","hex":"#f73b6a7A","correct":-1,"choice":32,"rt":541,"accuracy":0,"outcome":"-1","keys":[2040],"total_keys":1,"block":2,"trial":170,"stimulus":4,"robot":4,"valence":"lose","action":"no-go","sham":1,"trial_type":"pit-trial","trial_index":202,"time_elapsed":870041,"internal_node_id":"0.0-176.0","task_version":"battery-v0.2-trt","session":2},{"rune":"S","rune_set":"elianto","hex":"#3366ff99","correct":-1,"choice":32,"rt":490,"accuracy":0,"outcome":"+1","keys":[1992],"total_keys":1,"block":2,"trial":171,"stimulus":6,"robot":2,"valence":"win","action":"no-go","sham":0,"trial_type":"pit-trial","trial_index":203,"time_elapsed":873241,"internal_node_id":"0.0-177.0","task_version":"battery-v0.2-trt","session":2},{"rune":"W","rune_set":"elianto","hex":"#f73b6a7A","correct":32,"choice":32,"rt":574,"accuracy":1,"outcome":"-1","keys":[2073],"total_keys":1,"block":2,"trial":172,"stimulus":5,"robot":3,"valence":"lose","action":"go","sham":0,"trial_type":"pit-trial","trial_index":204,"time_elapsed":876521,"internal_node_id":"0.0-178.0","task_version":"battery-v0.2-trt","session":2},{"rune":"E","rune_set":"elianto","hex":"#f73b6a7A","correct":-1,"choice":32,"rt":655,"accuracy":0,"outcome":"-10","keys":[2158],"total_keys":1,"block":2,"trial":173,"stimulus":4,"robot":4,"valence":"lose","action":"no-go","sham":0,"trial_type":"pit-trial","trial_index":205,"time_elapsed":879886,"internal_node_id":"0.0-179.0","task_version":"battery-v0.2-trt","session":2},{"rune":"P","rune_set":"elianto","hex":"#3366ff99","correct":-1,"choice":32,"rt":620,"accuracy":0,"outcome":"+1","keys":[2122],"total_keys":1,"block":2,"trial":174,"stimulus":7,"robot":2,"valence":"win","action":"no-go","sham":0,"trial_type":"pit-trial","trial_index":206,"time_elapsed":883219,"internal_node_id":"0.0-180.0","task_version":"battery-v0.2-trt","session":2},{"rune":"S","rune_set":"elianto","hex":"#3366ff99","correct":-1,"choice":-1,"rt":-1,"accuracy":1,"outcome":"+10","keys":[],"total_keys":0,"block":2,"trial":175,"stimulus":6,"robot":2,"valence":"win","action":"no-go","sham":0,"trial_type":"pit-trial","trial_index":207,"time_elapsed":887229,"internal_node_id":"0.0-181.0","task_version":"battery-v0.2-trt","session":2},{"rune":"W","rune_set":"elianto","hex":"#f73b6a7A","correct":32,"choice":32,"rt":558,"accuracy":1,"outcome":"-1","keys":[2058],"total_keys":1,"block":2,"trial":176,"stimulus":5,"robot":3,"valence":"lose","action":"go","sham":0,"trial_type":"pit-trial","trial_index":208,"time_elapsed":890498,"internal_node_id":"0.0-182.0","task_version":"battery-v0.2-trt","session":2},{"rune":"E","rune_set":"elianto","hex":"#f73b6a7A","correct":-1,"choice":-1,"rt":-1,"accuracy":1,"outcome":"-1","keys":[],"total_keys":0,"block":2,"trial":177,"stimulus":4,"robot":4,"valence":"lose","action":"no-go","sham":0,"trial_type":"pit-trial","trial_index":209,"time_elapsed":894512,"internal_node_id":"0.0-183.0","task_version":"battery-v0.2-trt","session":2},{"rune":"P","rune_set":"elianto","hex":"#3366ff99","correct":-1,"choice":-1,"rt":-1,"accuracy":1,"outcome":"+10","keys":[],"total_keys":0,"block":2,"trial":178,"stimulus":7,"robot":2,"valence":"win","action":"no-go","sham":0,"trial_type":"pit-trial","trial_index":210,"time_elapsed":898526,"internal_node_id":"0.0-184.0","task_version":"battery-v0.2-trt","session":2},{"rune":"S","rune_set":"elianto","hex":"#3366ff99","correct":-1,"choice":-1,"rt":-1,"accuracy":1,"outcome":"+10","keys":[],"total_keys":0,"block":2,"trial":179,"stimulus":6,"robot":2,"valence":"win","action":"no-go","sham":0,"trial_type":"pit-trial","trial_index":211,"time_elapsed":902538,"internal_node_id":"0.0-185.0","task_version":"battery-v0.2-trt","session":2},{"rune":"W","rune_set":"elianto","hex":"#f73b6a7A","correct":32,"choice":32,"rt":433,"accuracy":1,"outcome":"-10","keys":[1934],"total_keys":1,"block":2,"trial":180,"stimulus":5,"robot":3,"valence":"lose","action":"go","sham":1,"trial_type":"pit-trial","trial_index":212,"time_elapsed":905679,"internal_node_id":"0.0-186.0","task_version":"battery-v0.2-trt","session":2},{"rune":"W","rune_set":"elianto","hex":"#f73b6a7A","correct":32,"choice":-1,"rt":-1,"accuracy":0,"outcome":"-10","keys":[],"total_keys":0,"block":2,"trial":181,"stimulus":5,"robot":3,"valence":"lose","action":"go","sham":0,"trial_type":"pit-trial","trial_index":213,"time_elapsed":909690,"internal_node_id":"0.0-187.0","task_version":"battery-v0.2-trt","session":2},{"rune":"S","rune_set":"elianto","hex":"#3366ff99","correct":-1,"choice":-1,"rt":-1,"accuracy":1,"outcome":"+1","keys":[],"total_keys":0,"block":2,"trial":182,"stimulus":6,"robot":2,"valence":"win","action":"no-go","sham":1,"trial_type":"pit-trial","trial_index":214,"time_elapsed":913699,"internal_node_id":"0.0-188.0","task_version":"battery-v0.2-trt","session":2},{"rune":"E","rune_set":"elianto","hex":"#f73b6a7A","correct":-1,"choice":32,"rt":667,"accuracy":0,"outcome":"-10","keys":[2170],"total_keys":1,"block":2,"trial":183,"stimulus":4,"robot":4,"valence":"lose","action":"no-go","sham":0,"trial_type":"pit-trial","trial_index":215,"time_elapsed":917076,"internal_node_id":"0.0-189.0","task_version":"battery-v0.2-trt","session":2},{"rune":"P","rune_set":"elianto","hex":"#3366ff99","correct":-1,"choice":-1,"rt":-1,"accuracy":1,"outcome":"+10","keys":[],"total_keys":0,"block":2,"trial":184,"stimulus":7,"robot":2,"valence":"win","action":"no-go","sham":0,"trial_type":"pit-trial","trial_index":216,"time_elapsed":921088,"internal_node_id":"0.0-190.0","task_version":"battery-v0.2-trt","session":2},{"rune":"W","rune_set":"elianto","hex":"#f73b6a7A","correct":32,"choice":32,"rt":879,"accuracy":1,"outcome":"-1","keys":[2380],"total_keys":1,"block":2,"trial":185,"stimulus":5,"robot":3,"valence":"lose","action":"go","sham":0,"trial_type":"pit-trial","trial_index":217,"time_elapsed":924676,"internal_node_id":"0.0-191.0","task_version":"battery-v0.2-trt","session":2},{"rune":"E","rune_set":"elianto","hex":"#f73b6a7A","correct":-1,"choice":-1,"rt":-1,"accuracy":1,"outcome":"-1","keys":[],"total_keys":0,"block":2,"trial":186,"stimulus":4,"robot":4,"valence":"lose","action":"no-go","sham":0,"trial_type":"pit-trial","trial_index":218,"time_elapsed":928685,"internal_node_id":"0.0-192.0","task_version":"battery-v0.2-trt","session":2},{"rune":"S","rune_set":"elianto","hex":"#3366ff99","correct":-1,"choice":-1,"rt":-1,"accuracy":1,"outcome":"+10","keys":[],"total_keys":0,"block":2,"trial":187,"stimulus":6,"robot":2,"valence":"win","action":"no-go","sham":0,"trial_type":"pit-trial","trial_index":219,"time_elapsed":932700,"internal_node_id":"0.0-193.0","task_version":"battery-v0.2-trt","session":2},{"rune":"P","rune_set":"elianto","hex":"#3366ff99","correct":-1,"choice":-1,"rt":-1,"accuracy":1,"outcome":"+10","keys":[],"total_keys":0,"block":2,"trial":188,"stimulus":7,"robot":2,"valence":"win","action":"no-go","sham":0,"trial_type":"pit-trial","trial_index":220,"time_elapsed":936712,"internal_node_id":"0.0-194.0","task_version":"battery-v0.2-trt","session":2},{"rune":"S","rune_set":"elianto","hex":"#3366ff99","correct":-1,"choice":-1,"rt":-1,"accuracy":1,"outcome":"+10","keys":[],"total_keys":0,"block":2,"trial":189,"stimulus":6,"robot":2,"valence":"win","action":"no-go","sham":0,"trial_type":"pit-trial","trial_index":221,"time_elapsed":940725,"internal_node_id":"0.0-195.0","task_version":"battery-v0.2-trt","session":2},{"rune":"E","rune_set":"elianto","hex":"#f73b6a7A","correct":-1,"choice":-1,"rt":-1,"accuracy":1,"outcome":"-1","keys":[],"total_keys":0,"block":2,"trial":190,"stimulus":4,"robot":4,"valence":"lose","action":"no-go","sham":0,"trial_type":"pit-trial","trial_index":222,"time_elapsed":944734,"internal_node_id":"0.0-196.0","task_version":"battery-v0.2-trt","session":2},{"rune":"W","rune_set":"elianto","hex":"#f73b6a7A","correct":32,"choice":32,"rt":493,"accuracy":1,"outcome":"-10","keys":[1994],"total_keys":1,"block":2,"trial":191,"stimulus":5,"robot":3,"valence":"lose","action":"go","sham":1,"trial_type":"pit-trial","trial_index":223,"time_elapsed":947935,"internal_node_id":"0.0-197.0","task_version":"battery-v0.2-trt","session":2},{"rune":"P","rune_set":"elianto","hex":"#3366ff99","correct":-1,"choice":-1,"rt":-1,"accuracy":1,"outcome":"+10","keys":[],"total_keys":0,"block":2,"trial":192,"stimulus":7,"robot":2,"valence":"win","action":"no-go","sham":0,"trial_type":"pit-trial","trial_index":224,"time_elapsed":951949,"internal_node_id":"0.0-198.0","task_version":"battery-v0.2-trt","session":2},{"rune":"W","rune_set":"elianto","hex":"#f73b6a7A","correct":32,"choice":32,"rt":770,"accuracy":1,"outcome":"-1","keys":[2271],"total_keys":1,"block":2,"trial":193,"stimulus":5,"robot":3,"valence":"lose","action":"go","sham":0,"trial_type":"pit-trial","trial_index":225,"time_elapsed":955426,"internal_node_id":"0.0-199.0","task_version":"battery-v0.2-trt","session":2},{"rune":"E","rune_set":"elianto","hex":"#f73b6a7A","correct":-1,"choice":-1,"rt":-1,"accuracy":1,"outcome":"-1","keys":[],"total_keys":0,"block":2,"trial":194,"stimulus":4,"robot":4,"valence":"lose","action":"no-go","sham":0,"trial_type":"pit-trial","trial_index":226,"time_elapsed":959436,"internal_node_id":"0.0-200.0","task_version":"battery-v0.2-trt","session":2},{"rune":"S","rune_set":"elianto","hex":"#3366ff99","correct":-1,"choice":-1,"rt":-1,"accuracy":1,"outcome":"+1","keys":[],"total_keys":0,"block":2,"trial":195,"stimulus":6,"robot":2,"valence":"win","action":"no-go","sham":1,"trial_type":"pit-trial","trial_index":227,"time_elapsed":963446,"internal_node_id":"0.0-201.0","task_version":"battery-v0.2-trt","session":2},{"rune":"P","rune_set":"elianto","hex":"#3366ff99","correct":-1,"choice":-1,"rt":-1,"accuracy":1,"outcome":"+1","keys":[],"total_keys":0,"block":2,"trial":196,"stimulus":7,"robot":2,"valence":"win","action":"no-go","sham":1,"trial_type":"pit-trial","trial_index":228,"time_elapsed":967460,"internal_node_id":"0.0-202.0","task_version":"battery-v0.2-trt","session":2},{"rune":"S","rune_set":"elianto","hex":"#3366ff99","correct":-1,"choice":-1,"rt":-1,"accuracy":1,"outcome":"+10","keys":[],"total_keys":0,"block":2,"trial":197,"stimulus":6,"robot":2,"valence":"win","action":"no-go","sham":0,"trial_type":"pit-trial","trial_index":229,"time_elapsed":971473,"internal_node_id":"0.0-203.0","task_version":"battery-v0.2-trt","session":2},{"rune":"P","rune_set":"elianto","hex":"#3366ff99","correct":-1,"choice":-1,"rt":-1,"accuracy":1,"outcome":"+10","keys":[],"total_keys":0,"block":2,"trial":198,"stimulus":7,"robot":2,"valence":"win","action":"no-go","sham":0,"trial_type":"pit-trial","trial_index":230,"time_elapsed":975484,"internal_node_id":"0.0-204.0","task_version":"battery-v0.2-trt","session":2},{"rune":"W","rune_set":"elianto","hex":"#f73b6a7A","correct":32,"choice":32,"rt":545,"accuracy":1,"outcome":"-1","keys":[2044],"total_keys":1,"block":2,"trial":199,"stimulus":5,"robot":3,"valence":"lose","action":"go","sham":0,"trial_type":"pit-trial","trial_index":231,"time_elapsed":978736,"internal_node_id":"0.0-205.0","task_version":"battery-v0.2-trt","session":2},{"rune":"E","rune_set":"elianto","hex":"#f73b6a7A","correct":-1,"choice":-1,"rt":-1,"accuracy":1,"outcome":"-1","keys":[],"total_keys":0,"block":2,"trial":200,"stimulus":4,"robot":4,"valence":"lose","action":"no-go","sham":0,"trial_type":"pit-trial","trial_index":232,"time_elapsed":982748,"internal_node_id":"0.0-206.0","task_version":"battery-v0.2-trt","session":2},{"rune":"W","rune_set":"elianto","hex":"#f73b6a7A","correct":32,"choice":32,"rt":625,"accuracy":1,"outcome":"-10","keys":[2129],"total_keys":1,"block":2,"trial":201,"stimulus":5,"robot":3,"valence":"lose","action":"go","sham":1,"trial_type":"pit-trial","trial_index":233,"time_elapsed":986082,"internal_node_id":"0.0-207.0","task_version":"battery-v0.2-trt","session":2},{"rune":"A","rune_set":"elianto","hex":"#f73b6a7A","correct":-1,"choice":32,"rt":702,"accuracy":0,"outcome":"-10","keys":[2202],"total_keys":1,"block":2,"trial":202,"stimulus":9,"robot":4,"valence":"lose","action":"no-go","sham":0,"trial_type":"pit-trial","trial_index":234,"time_elapsed":989495,"internal_node_id":"0.0-208.0","task_version":"battery-v0.2-trt","session":2},{"rune":"P","rune_set":"elianto","hex":"#3366ff99","correct":-1,"choice":-1,"rt":-1,"accuracy":1,"outcome":"+10","keys":[],"total_keys":0,"block":2,"trial":203,"stimulus":7,"robot":2,"valence":"win","action":"no-go","sham":0,"trial_type":"pit-trial","trial_index":235,"time_elapsed":993505,"internal_node_id":"0.0-209.0","task_version":"battery-v0.2-trt","session":2},{"rune":"G","rune_set":"elianto","hex":"#3366ff99","correct":32,"choice":32,"rt":600,"accuracy":1,"outcome":"+10","keys":[2101],"total_keys":1,"block":2,"trial":204,"stimulus":8,"robot":1,"valence":"win","action":"go","sham":0,"trial_type":"pit-trial","trial_index":236,"time_elapsed":996814,"internal_node_id":"0.0-210.0","task_version":"battery-v0.2-trt","session":2},{"rune":"P","rune_set":"elianto","hex":"#3366ff99","correct":-1,"choice":-1,"rt":-1,"accuracy":1,"outcome":"+10","keys":[],"total_keys":0,"block":2,"trial":205,"stimulus":7,"robot":2,"valence":"win","action":"no-go","sham":0,"trial_type":"pit-trial","trial_index":237,"time_elapsed":1000821,"internal_node_id":"0.0-211.0","task_version":"battery-v0.2-trt","session":2},{"rune":"A","rune_set":"elianto","hex":"#f73b6a7A","correct":-1,"choice":-1,"rt":-1,"accuracy":1,"outcome":"-1","keys":[],"total_keys":0,"block":2,"trial":206,"stimulus":9,"robot":4,"valence":"lose","action":"no-go","sham":0,"trial_type":"pit-trial","trial_index":238,"time_elapsed":1004836,"internal_node_id":"0.0-212.0","task_version":"battery-v0.2-trt","session":2},{"rune":"W","rune_set":"elianto","hex":"#f73b6a7A","correct":32,"choice":32,"rt":462,"accuracy":1,"outcome":"-1","keys":[1963],"total_keys":1,"block":2,"trial":207,"stimulus":5,"robot":3,"valence":"lose","action":"go","sham":0,"trial_type":"pit-trial","trial_index":239,"time_elapsed":1008006,"internal_node_id":"0.0-213.0","task_version":"battery-v0.2-trt","session":2},{"rune":"G","rune_set":"elianto","hex":"#3366ff99","correct":32,"choice":32,"rt":302,"accuracy":1,"outcome":"+10","keys":[1802],"total_keys":1,"block":2,"trial":208,"stimulus":8,"robot":1,"valence":"win","action":"go","sham":0,"trial_type":"pit-trial","trial_index":240,"time_elapsed":1011020,"internal_node_id":"0.0-214.0","task_version":"battery-v0.2-trt","session":2},{"rune":"G","rune_set":"elianto","hex":"#3366ff99","correct":32,"choice":32,"rt":366,"accuracy":1,"outcome":"+10","keys":[1866],"total_keys":1,"block":2,"trial":209,"stimulus":8,"robot":1,"valence":"win","action":"go","sham":0,"trial_type":"pit-trial","trial_index":241,"time_elapsed":1014090,"internal_node_id":"0.0-215.0","task_version":"battery-v0.2-trt","session":2},{"rune":"A","rune_set":"elianto","hex":"#f73b6a7A","correct":-1,"choice":-1,"rt":-1,"accuracy":1,"outcome":"-10","keys":[],"total_keys":0,"block":2,"trial":210,"stimulus":9,"robot":4,"valence":"lose","action":"no-go","sham":1,"trial_type":"pit-trial","trial_index":242,"time_elapsed":1018099,"internal_node_id":"0.0-216.0","task_version":"battery-v0.2-trt","session":2},{"rune":"L","rune_set":"elianto","hex":"#f73b6a7A","correct":32,"choice":32,"rt":725,"accuracy":1,"outcome":"-1","keys":[2226],"total_keys":1,"block":2,"trial":211,"stimulus":10,"robot":3,"valence":"lose","action":"go","sham":0,"trial_type":"pit-trial","trial_index":243,"time_elapsed":1021533,"internal_node_id":"0.0-217.0","task_version":"battery-v0.2-trt","session":2},{"rune":"U","rune_set":"elianto","hex":"#3366ff99","correct":32,"choice":32,"rt":573,"accuracy":1,"outcome":"+10","keys":[2075],"total_keys":1,"block":2,"trial":212,"stimulus":11,"robot":1,"valence":"win","action":"go","sham":0,"trial_type":"pit-trial","trial_index":244,"time_elapsed":1024818,"internal_node_id":"0.0-218.0","task_version":"battery-v0.2-trt","session":2},{"rune":"A","rune_set":"elianto","hex":"#f73b6a7A","correct":-1,"choice":-1,"rt":-1,"accuracy":1,"outcome":"-1","keys":[],"total_keys":0,"block":2,"trial":213,"stimulus":9,"robot":4,"valence":"lose","action":"no-go","sham":0,"trial_type":"pit-trial","trial_index":245,"time_elapsed":1028828,"internal_node_id":"0.0-219.0","task_version":"battery-v0.2-trt","session":2},{"rune":"U","rune_set":"elianto","hex":"#3366ff99","correct":32,"choice":32,"rt":360,"accuracy":1,"outcome":"+10","keys":[1860],"total_keys":1,"block":2,"trial":214,"stimulus":11,"robot":1,"valence":"win","action":"go","sham":0,"trial_type":"pit-trial","trial_index":246,"time_elapsed":1031895,"internal_node_id":"0.0-220.0","task_version":"battery-v0.2-trt","session":2},{"rune":"G","rune_set":"elianto","hex":"#3366ff99","correct":32,"choice":32,"rt":441,"accuracy":1,"outcome":"+1","keys":[1945],"total_keys":1,"block":2,"trial":215,"stimulus":8,"robot":1,"valence":"win","action":"go","sham":1,"trial_type":"pit-trial","trial_index":247,"time_elapsed":1035047,"internal_node_id":"0.0-221.0","task_version":"battery-v0.2-trt","session":2},{"rune":"L","rune_set":"elianto","hex":"#f73b6a7A","correct":32,"choice":32,"rt":596,"accuracy":1,"outcome":"-1","keys":[2097],"total_keys":1,"block":2,"trial":216,"stimulus":10,"robot":3,"valence":"lose","action":"go","sham":0,"trial_type":"pit-trial","trial_index":248,"time_elapsed":1038354,"internal_node_id":"0.0-222.0","task_version":"battery-v0.2-trt","session":2},{"rune":"G","rune_set":"elianto","hex":"#3366ff99","correct":32,"choice":32,"rt":455,"accuracy":1,"outcome":"+1","keys":[1956],"total_keys":1,"block":2,"trial":217,"stimulus":8,"robot":1,"valence":"win","action":"go","sham":1,"trial_type":"pit-trial","trial_index":249,"time_elapsed":1041517,"internal_node_id":"0.0-223.0","task_version":"battery-v0.2-trt","session":2},{"rune":"L","rune_set":"elianto","hex":"#f73b6a7A","correct":32,"choice":32,"rt":466,"accuracy":1,"outcome":"-1","keys":[1969],"total_keys":1,"block":2,"trial":218,"stimulus":10,"robot":3,"valence":"lose","action":"go","sham":0,"trial_type":"pit-trial","trial_index":250,"time_elapsed":1044692,"internal_node_id":"0.0-224.0","task_version":"battery-v0.2-trt","session":2},{"rune":"U","rune_set":"elianto","hex":"#3366ff99","correct":32,"choice":-1,"rt":-1,"accuracy":0,"outcome":"+1","keys":[],"total_keys":0,"block":2,"trial":219,"stimulus":11,"robot":1,"valence":"win","action":"go","sham":0,"trial_type":"pit-trial","trial_index":251,"time_elapsed":1048708,"internal_node_id":"0.0-225.0","task_version":"battery-v0.2-trt","session":2},{"rune":"A","rune_set":"elianto","hex":"#f73b6a7A","correct":-1,"choice":-1,"rt":-1,"accuracy":1,"outcome":"-1","keys":[665],"total_keys":1,"block":2,"trial":220,"stimulus":9,"robot":4,"valence":"lose","action":"no-go","sham":0,"trial_type":"pit-trial","trial_index":252,"time_elapsed":1052719,"internal_node_id":"0.0-226.0","task_version":"battery-v0.2-trt","session":2},{"rune":"L","rune_set":"elianto","hex":"#f73b6a7A","correct":32,"choice":-1,"rt":-1,"accuracy":0,"outcome":"-10","keys":[],"total_keys":0,"block":2,"trial":221,"stimulus":10,"robot":3,"valence":"lose","action":"go","sham":0,"trial_type":"pit-trial","trial_index":253,"time_elapsed":1056729,"internal_node_id":"0.0-227.0","task_version":"battery-v0.2-trt","session":2},{"rune":"U","rune_set":"elianto","hex":"#3366ff99","correct":32,"choice":32,"rt":438,"accuracy":1,"outcome":"+1","keys":[1940],"total_keys":1,"block":2,"trial":222,"stimulus":11,"robot":1,"valence":"win","action":"go","sham":1,"trial_type":"pit-trial","trial_index":254,"time_elapsed":1059877,"internal_node_id":"0.0-228.0","task_version":"battery-v0.2-trt","session":2},{"rune":"G","rune_set":"elianto","hex":"#3366ff99","correct":32,"choice":32,"rt":674,"accuracy":1,"outcome":"+1","keys":[2175],"total_keys":1,"block":2,"trial":223,"stimulus":8,"robot":1,"valence":"win","action":"go","sham":1,"trial_type":"pit-trial","trial_index":255,"time_elapsed":1063261,"internal_node_id":"0.0-229.0","task_version":"battery-v0.2-trt","session":2},{"rune":"A","rune_set":"elianto","hex":"#f73b6a7A","correct":-1,"choice":-1,"rt":-1,"accuracy":1,"outcome":"-1","keys":[],"total_keys":0,"block":2,"trial":224,"stimulus":9,"robot":4,"valence":"lose","action":"no-go","sham":0,"trial_type":"pit-trial","trial_index":256,"time_elapsed":1067272,"internal_node_id":"0.0-230.0","task_version":"battery-v0.2-trt","session":2},{"rune":"A","rune_set":"elianto","hex":"#f73b6a7A","correct":-1,"choice":-1,"rt":-1,"accuracy":1,"outcome":"-1","keys":[],"total_keys":0,"block":2,"trial":225,"stimulus":9,"robot":4,"valence":"lose","action":"no-go","sham":0,"trial_type":"pit-trial","trial_index":257,"time_elapsed":1071278,"internal_node_id":"0.0-231.0","task_version":"battery-v0.2-trt","session":2},{"rune":"L","rune_set":"elianto","hex":"#f73b6a7A","correct":32,"choice":32,"rt":704,"accuracy":1,"outcome":"-1","keys":[2205],"total_keys":1,"block":2,"trial":226,"stimulus":10,"robot":3,"valence":"lose","action":"go","sham":0,"trial_type":"pit-trial","trial_index":258,"time_elapsed":1074693,"internal_node_id":"0.0-232.0","task_version":"battery-v0.2-trt","session":2},{"rune":"U","rune_set":"elianto","hex":"#3366ff99","correct":32,"choice":32,"rt":348,"accuracy":1,"outcome":"+10","keys":[1851],"total_keys":1,"block":2,"trial":227,"stimulus":11,"robot":1,"valence":"win","action":"go","sham":0,"trial_type":"pit-trial","trial_index":259,"time_elapsed":1077750,"internal_node_id":"0.0-233.0","task_version":"battery-v0.2-trt","session":2},{"rune":"G","rune_set":"elianto","hex":"#3366ff99","correct":32,"choice":32,"rt":393,"accuracy":1,"outcome":"+10","keys":[1894],"total_keys":1,"block":2,"trial":228,"stimulus":8,"robot":1,"valence":"win","action":"go","sham":0,"trial_type":"pit-trial","trial_index":260,"time_elapsed":1080852,"internal_node_id":"0.0-234.0","task_version":"battery-v0.2-trt","session":2},{"rune":"L","rune_set":"elianto","hex":"#f73b6a7A","correct":32,"choice":32,"rt":666,"accuracy":1,"outcome":"-1","keys":[2166],"total_keys":1,"block":2,"trial":229,"stimulus":10,"robot":3,"valence":"lose","action":"go","sham":0,"trial_type":"pit-trial","trial_index":261,"time_elapsed":1084228,"internal_node_id":"0.0-235.0","task_version":"battery-v0.2-trt","session":2},{"rune":"U","rune_set":"elianto","hex":"#3366ff99","correct":32,"choice":32,"rt":355,"accuracy":1,"outcome":"+10","keys":[1857],"total_keys":1,"block":2,"trial":230,"stimulus":11,"robot":1,"valence":"win","action":"go","sham":0,"trial_type":"pit-trial","trial_index":262,"time_elapsed":1087293,"internal_node_id":"0.0-236.0","task_version":"battery-v0.2-trt","session":2},{"rune":"A","rune_set":"elianto","hex":"#f73b6a7A","correct":-1,"choice":-1,"rt":-1,"accuracy":1,"outcome":"-1","keys":[],"total_keys":0,"block":2,"trial":231,"stimulus":9,"robot":4,"valence":"lose","action":"no-go","sham":0,"trial_type":"pit-trial","trial_index":263,"time_elapsed":1091305,"internal_node_id":"0.0-237.0","task_version":"battery-v0.2-trt","session":2},{"rune":"G","rune_set":"elianto","hex":"#3366ff99","correct":32,"choice":32,"rt":466,"accuracy":1,"outcome":"+10","keys":[1968],"total_keys":1,"block":2,"trial":232,"stimulus":8,"robot":1,"valence":"win","action":"go","sham":0,"trial_type":"pit-trial","trial_index":264,"time_elapsed":1094481,"internal_node_id":"0.0-238.0","task_version":"battery-v0.2-trt","session":2},{"rune":"L","rune_set":"elianto","hex":"#f73b6a7A","correct":32,"choice":32,"rt":557,"accuracy":1,"outcome":"-1","keys":[2058],"total_keys":1,"block":2,"trial":233,"stimulus":10,"robot":3,"valence":"lose","action":"go","sham":0,"trial_type":"pit-trial","trial_index":265,"time_elapsed":1097748,"internal_node_id":"0.0-239.0","task_version":"battery-v0.2-trt","session":2},{"rune":"A","rune_set":"elianto","hex":"#f73b6a7A","correct":-1,"choice":-1,"rt":-1,"accuracy":1,"outcome":"-1","keys":[],"total_keys":0,"block":2,"trial":234,"stimulus":9,"robot":4,"valence":"lose","action":"no-go","sham":0,"trial_type":"pit-trial","trial_index":266,"time_elapsed":1101757,"internal_node_id":"0.0-240.0","task_version":"battery-v0.2-trt","session":2},{"rune":"U","rune_set":"elianto","hex":"#3366ff99","correct":32,"choice":32,"rt":545,"accuracy":1,"outcome":"+10","keys":[2045],"total_keys":1,"block":2,"trial":235,"stimulus":11,"robot":1,"valence":"win","action":"go","sham":0,"trial_type":"pit-trial","trial_index":267,"time_elapsed":1105011,"internal_node_id":"0.0-241.0","task_version":"battery-v0.2-trt","session":2},{"rune":"G","rune_set":"elianto","hex":"#3366ff99","correct":32,"choice":32,"rt":338,"accuracy":1,"outcome":"+10","keys":[1839],"total_keys":1,"block":2,"trial":236,"stimulus":8,"robot":1,"valence":"win","action":"go","sham":0,"trial_type":"pit-trial","trial_index":268,"time_elapsed":1108055,"internal_node_id":"0.0-242.0","task_version":"battery-v0.2-trt","session":2},{"rune":"G","rune_set":"elianto","hex":"#3366ff99","correct":32,"choice":32,"rt":412,"accuracy":1,"outcome":"+10","keys":[1913],"total_keys":1,"block":2,"trial":237,"stimulus":8,"robot":1,"valence":"win","action":"go","sham":0,"trial_type":"pit-trial","trial_index":269,"time_elapsed":1111172,"internal_node_id":"0.0-243.0","task_version":"battery-v0.2-trt","session":2},{"rune":"A","rune_set":"elianto","hex":"#f73b6a7A","correct":-1,"choice":-1,"rt":-1,"accuracy":1,"outcome":"-1","keys":[],"total_keys":0,"block":2,"trial":238,"stimulus":9,"robot":4,"valence":"lose","action":"no-go","sham":0,"trial_type":"pit-trial","trial_index":270,"time_elapsed":1115179,"internal_node_id":"0.0-244.0","task_version":"battery-v0.2-trt","session":2},{"rune":"L","rune_set":"elianto","hex":"#f73b6a7A","correct":32,"choice":32,"rt":460,"accuracy":1,"outcome":"-1","keys":[1960],"total_keys":1,"block":2,"trial":239,"stimulus":10,"robot":3,"valence":"lose","action":"go","sham":0,"trial_type":"pit-trial","trial_index":271,"time_elapsed":1118345,"internal_node_id":"0.0-245.0","task_version":"battery-v0.2-trt","session":2},{"rune":"U","rune_set":"elianto","hex":"#3366ff99","correct":32,"choice":32,"rt":354,"accuracy":1,"outcome":"+10","keys":[1855],"total_keys":1,"block":2,"trial":240,"stimulus":11,"robot":1,"valence":"win","action":"go","sham":0,"trial_type":"pit-trial","trial_index":272,"time_elapsed":1121409,"internal_node_id":"0.0-246.0","task_version":"battery-v0.2-trt","session":2},{"view_history":"[{\"page_index\":0,\"viewing_time\":3558}]","rt":3558,"trial_type":"pit-instructions","trial_index":273,"time_elapsed":1124972,"internal_node_id":"0.0-247.0","task_version":"battery-v0.2-trt","session":2},{"rt":16712,"responses":{"difficulty":"2","fun":"4","clarity":"5","strategy":"I just tried to remember the symbols","feedback":"No"},"survey":"debrief","trial_type":"survey-debrief","trial_index":274,"time_elapsed":1141689,"internal_node_id":"0.0-248.0","task_version":"battery-v0.2-trt","session":2,"interactions":"[{\"event\":\"focus\",\"trial\":0,\"time\":0}]"}]