[{"view_history":"[{\"page_index\":0,\"viewing_time\":2847.0499999821186}]","rt":2847.605000017211,"trial_type":"instructions","trial_index":0,"time_elapsed":2867,"internal_node_id":"0.0-0.0","task_version":"battery-v0.2-trt","session":2},{"slider_type":"valence","raw_loc":647,"loc":0.794,"trial_type":"affective-slider","trial_index":1,"time_elapsed":6675,"internal_node_id":"0.0-1.0","task_version":"battery-v0.2-trt","session":2},{"responses":{"Q06":"0","Q07":"0","Q05":"0","Q04":"1","Q02":"1","Q08":"0","Q03":"1","Q01":"1"},"rt":40424.510000040755,"item_order":[5,6,4,3,1,7,2,0],"radio_events":[8232.839999953285,11495.864999946207,12336.670000106096,13634.134999942034,15733.960000099614,18058.089999947697,23283.795000053942,24568.630000110716],"key_events":[],"mouse_events":[8232.839999953285,11495.864999946207,12336.670000106096,13634.134999942034,15733.960000099614,18058.089999947697,23283.795000053942,24568.630000110716,40423.260000068694],"straightlining":0.5,"zigzagging":0.42857142857142855,"survey":"gad7","trial_type":"survey-template","trial_index":2,"time_elapsed":47107,"internal_node_id":"0.0-2.0","task_version":"battery-v0.2-trt","session":2,"infrequency":0},{"responses":{"Q02":"1","Q08":"3","Q07":"0","Q03":"0","Q06":"0","Q05":"1","Q04":"1","Q01":"0"},"rt":30641.380000161007,"item_order":[1,7,6,2,5,4,3,0],"radio_events":[5394.665000028908,7223.380000097677,9015.224999981001,12005.890000145882,13476.525000063702,24551.020000129938,26673.16500004381,29267.345000058413],"key_events":[],"mouse_events":[5394.665000028908,7223.380000097677,9015.224999981001,12005.890000145882,13476.525000063702,24551.020000129938,26673.16500004381,29267.345000058413,30640.43499995023],"straightlining":0.5,"zigzagging":0.42857142857142855,"survey":"dass_d","trial_type":"survey-template","trial_index":3,"time_elapsed":77751,"internal_node_id":"0.0-3.0","task_version":"battery-v0.2-trt","session":2,"infrequency":0},{"view_history":"[{\"page_index\":0,\"viewing_time\":3108.604999957606},{\"page_index\":1,\"viewing_time\":7080.339999869466},{\"page_index\":2,\"viewing_time\":6400.330000091344},{\"page_index\":3,\"viewing_time\":3533.2899999339134},{\"page_index\":4,\"viewing_time\":21362.91000014171},{\"page_index\":5,\"viewing_time\":3708.024999825284},{\"page_index\":6,\"viewing_time\":8402.415000135079},{\"page_index\":7,\"viewing_time\":33379.369999980554},{\"page_index\":8,\"viewing_time\":6240.3800000902265},{\"page_index\":9,\"viewing_time\":3077.389999991283}]","rt":96293.55999990366,"trial_type":"pit-instructions","trial_index":4,"time_elapsed":174048,"internal_node_id":"0.0-4.0-0.0","task_version":"battery-v0.2-trt","session":2},{"rune":"1","rune_set":"elianto","hex":"#3366ff99","correct":32,"choice":32,"rt":408.30500004813075,"accuracy":1,"outcome":"+10","keys":[1908.5999999660999],"total_keys":1,"block":0,"practice":1,"trial_type":"pit-trial","trial_index":5,"time_elapsed":177163,"internal_node_id":"0.0-4.0-1.0-0.0","task_version":"battery-v0.2-trt","session":2},{"rune":"1","rune_set":"elianto","hex":"#3366ff99","correct":32,"choice":32,"rt":555.3099999669939,"accuracy":1,"outcome":"+10","keys":[2056.3750001601875],"total_keys":1,"block":0,"practice":1,"trial_type":"pit-trial","trial_index":6,"time_elapsed":180425,"internal_node_id":"0.0-4.0-1.1-0.1","task_version":"battery-v0.2-trt","session":2},{"rune":"1","rune_set":"elianto","hex":"#3366ff99","correct":32,"choice":32,"rt":539.1649999655783,"accuracy":1,"outcome":"+10","keys":[2040.125000057742],"total_keys":1,"block":0,"practice":1,"trial_type":"pit-trial","trial_index":7,"time_elapsed":183670,"internal_node_id":"0.0-4.0-1.2-0.2","task_version":"battery-v0.2-trt","session":2},{"rune":"1","rune_set":"elianto","hex":"#3366ff99","correct":32,"choice":32,"rt":496.99500016868114,"accuracy":1,"outcome":"+10","keys":[1997.6599998772144],"total_keys":1,"block":0,"practice":1,"trial_type":"pit-trial","trial_index":8,"time_elapsed":186874,"internal_node_id":"0.0-4.0-1.3-0.3","task_version":"battery-v0.2-trt","session":2},{"trial_type":"call-function","trial_index":9,"time_elapsed":186877,"internal_node_id":"0.0-4.0-2.0","task_version":"battery-v0.2-trt","session":2},{"view_history":"[{\"page_index\":0,\"viewing_time\":3518.214999930933},{\"page_index\":1,\"viewing_time\":37953.80500005558}]","rt":41472.39500004798,"trial_type":"pit-instructions","trial_index":10,"time_elapsed":228350,"internal_node_id":"0.0-4.0-3.0","task_version":"battery-v0.2-trt","session":2},{"rune":"2","rune_set":"elianto","hex":"#3366ff99","correct":-1,"choice":-1,"rt":-1,"accuracy":1,"outcome":"+10","keys":[],"total_keys":0,"block":0,"practice":2,"trial_type":"pit-trial","trial_index":11,"time_elapsed":232355,"internal_node_id":"0.0-4.0-4.0-0.0","task_version":"battery-v0.2-trt","session":2},{"rune":"2","rune_set":"elianto","hex":"#3366ff99","correct":-1,"choice":-1,"rt":-1,"accuracy":1,"outcome":"+10","keys":[],"total_keys":0,"block":0,"practice":2,"trial_type":"pit-trial","trial_index":12,"time_elapsed":236368,"internal_node_id":"0.0-4.0-4.1-0.1","task_version":"battery-v0.2-trt","session":2},{"rune":"2","rune_set":"elianto","hex":"#3366ff99","correct":-1,"choice":-1,"rt":-1,"accuracy":1,"outcome":"+10","keys":[],"total_keys":0,"block":0,"practice":2,"trial_type":"pit-trial","trial_index":13,"time_elapsed":240375,"internal_node_id":"0.0-4.0-4.2-0.2","task_version":"battery-v0.2-trt","session":2},{"rune":"2","rune_set":"elianto","hex":"#3366ff99","correct":-1,"choice":-1,"rt":-1,"accuracy":1,"outcome":"+10","keys":[],"total_keys":0,"block":0,"practice":2,"trial_type":"pit-trial","trial_index":14,"time_elapsed":244381,"internal_node_id":"0.0-4.0-4.3-0.3","task_version":"battery-v0.2-trt","session":2},{"trial_type":"call-function","trial_index":15,"time_elapsed":244383,"internal_node_id":"0.0-4.0-5.0","task_version":"battery-v0.2-trt","session":2},{"view_history":"[{\"page_index\":0,\"viewing_time\":61019.80000012554},{\"page_index\":1,\"viewing_time\":7365.359999937937}]","rt":68385.5250000488,"trial_type":"pit-instructions","trial_index":16,"time_elapsed":312771,"internal_node_id":"0.0-4.0-6.0","task_version":"battery-v0.2-trt","session":2},{"rune":"3","rune_set":"elianto","hex":"#f73b6a7A","correct":-1,"choice":-1,"rt":-1,"accuracy":1,"outcome":"-1","keys":[1329.3050001375377],"total_keys":1,"block":0,"practice":3,"trial_type":"pit-trial","trial_index":17,"time_elapsed":316775,"internal_node_id":"0.0-4.0-7.0-0.0","task_version":"battery-v0.2-trt","session":2},{"rune":"3","rune_set":"elianto","hex":"#f73b6a7A","correct":-1,"choice":32,"rt":401.1850000824779,"accuracy":0,"outcome":"-10","keys":[1903.0150000471622],"total_keys":1,"block":0,"practice":3,"trial_type":"pit-trial","trial_index":18,"time_elapsed":319884,"internal_node_id":"0.0-4.0-7.1-0.1","task_version":"battery-v0.2-trt","session":2},{"rune":"3","rune_set":"elianto","hex":"#f73b6a7A","correct":-1,"choice":-1,"rt":-1,"accuracy":1,"outcome":"-1","keys":[],"total_keys":0,"block":0,"practice":3,"trial_type":"pit-trial","trial_index":19,"time_elapsed":323889,"internal_node_id":"0.0-4.0-7.2-0.2","task_version":"battery-v0.2-trt","session":2},{"rune":"3","rune_set":"elianto","hex":"#f73b6a7A","correct":-1,"choice":-1,"rt":-1,"accuracy":1,"outcome":"-1","keys":[],"total_keys":0,"block":0,"practice":3,"trial_type":"pit-trial","trial_index":20,"time_elapsed":327895,"internal_node_id":"0.0-4.0-7.3-0.3","task_version":"battery-v0.2-trt","session":2},{"rune":"3","rune_set":"elianto","hex":"#f73b6a7A","correct":-1,"choice":-1,"rt":-1,"accuracy":1,"outcome":"-1","keys":[],"total_keys":0,"block":0,"practice":3,"trial_type":"pit-trial","trial_index":21,"time_elapsed":331899,"internal_node_id":"0.0-4.0-7.4-0.4","task_version":"battery-v0.2-trt","session":2},{"trial_type":"call-function","trial_index":22,"time_elapsed":331901,"internal_node_id":"0.0-4.0-8.0","task_version":"battery-v0.2-trt","session":2},{"view_history":"[{\"page_index\":0,\"viewing_time\":3733.2600001245737},{\"page_index\":1,\"viewing_time\":2187.1949997730553}]","rt":5920.820000115782,"trial_type":"pit-instructions","trial_index":23,"time_elapsed":337822,"internal_node_id":"0.0-4.0-9.0","task_version":"battery-v0.2-trt","session":2},{"rune":"4","rune_set":"elianto","hex":"#f73b6a7A","correct":32,"choice":32,"rt":1169.0649997908622,"accuracy":1,"outcome":"-1","keys":[2670.790000120178],"total_keys":1,"block":0,"practice":4,"trial_type":"pit-trial","trial_index":24,"time_elapsed":341695,"internal_node_id":"0.0-4.0-10.0-0.0","task_version":"battery-v0.2-trt","session":2},{"rune":"4","rune_set":"elianto","hex":"#f73b6a7A","correct":32,"choice":32,"rt":454.09999997355044,"accuracy":1,"outcome":"-1","keys":[1954.1999998036772],"total_keys":1,"block":0,"practice":4,"trial_type":"pit-trial","trial_index":25,"time_elapsed":344853,"internal_node_id":"0.0-4.0-10.1-0.1","task_version":"battery-v0.2-trt","session":2},{"rune":"4","rune_set":"elianto","hex":"#f73b6a7A","correct":32,"choice":32,"rt":593.9549999311566,"accuracy":1,"outcome":"-1","keys":[2094.909999985248],"total_keys":1,"block":0,"practice":4,"trial_type":"pit-trial","trial_index":26,"time_elapsed":348153,"internal_node_id":"0.0-4.0-10.2-0.2","task_version":"battery-v0.2-trt","session":2},{"rune":"4","rune_set":"elianto","hex":"#f73b6a7A","correct":32,"choice":32,"rt":537.2950001619756,"accuracy":1,"outcome":"-1","keys":[2037.3649999964982],"total_keys":1,"block":0,"practice":4,"trial_type":"pit-trial","trial_index":27,"time_elapsed":351394,"internal_node_id":"0.0-4.0-10.3-0.3","task_version":"battery-v0.2-trt","session":2},{"trial_type":"call-function","trial_index":28,"time_elapsed":351397,"internal_node_id":"0.0-4.0-11.0","task_version":"battery-v0.2-trt","session":2},{"view_history":"[{\"page_index\":0,\"viewing_time\":3245.429999893531},{\"page_index\":1,\"viewing_time\":6613.3499999996275},{\"page_index\":2,\"viewing_time\":5103.61500014551},{\"page_index\":3,\"viewing_time\":3078.419999917969},{\"page_index\":4,\"viewing_time\":3881.2049999833107},{\"page_index\":5,\"viewing_time\":2373.2350000645965}]","rt":24295.639999909326,"trial_type":"pit-instructions","trial_index":29,"time_elapsed":375692,"internal_node_id":"0.0-4.0-12.0","task_version":"battery-v0.2-trt","session":2},{"responses":["Press SPACE","+10","-1","True","True"],"num_errors":0,"rt":28451.524999924004,"trial_type":"pit-comprehension","trial_index":30,"time_elapsed":404147,"internal_node_id":"0.0-4.0-13.0","task_version":"battery-v0.2-trt","session":2},{"view_history":"[{\"page_index\":0,\"viewing_time\":12962.404999881983},{\"page_index\":1,\"viewing_time\":3855.290000094101}]","rt":16818.184999981895,"trial_type":"pit-instructions","trial_index":31,"time_elapsed":420969,"internal_node_id":"0.0-5.0","task_version":"battery-v0.2-trt","session":2},{"rune":"B","rune_set":"bacs2","hex":"#f73b6a7A","correct":32,"choice":32,"rt":452.4749999400228,"accuracy":1,"outcome":"-10","keys":[1952.989999903366],"total_keys":1,"block":1,"trial":1,"stimulus":1,"robot":3,"valence":"lose","action":"go","sham":1,"trial_type":"pit-trial","trial_index":32,"time_elapsed":424127,"internal_node_id":"0.0-6.0","task_version":"battery-v0.2-trt","session":2},{"rune":"M","rune_set":"bacs2","hex":"#f73b6a7A","correct":-1,"choice":32,"rt":1046.9549999106675,"accuracy":0,"outcome":"-10","keys":[2547.8150001727045],"total_keys":1,"block":1,"trial":2,"stimulus":0,"robot":4,"valence":"lose","action":"no-go","sham":0,"trial_type":"pit-trial","trial_index":33,"time_elapsed":427879,"internal_node_id":"0.0-7.0","task_version":"battery-v0.2-trt","session":2},{"rune":"K","rune_set":"bacs2","hex":"#f73b6a7A","correct":32,"choice":-1,"rt":-1,"accuracy":0,"outcome":"-10","keys":[],"total_keys":0,"block":1,"trial":3,"stimulus":2,"robot":3,"valence":"lose","action":"go","sham":0,"trial_type":"pit-trial","trial_index":34,"time_elapsed":431883,"internal_node_id":"0.0-8.0","task_version":"battery-v0.2-trt","session":2},{"rune":"V","rune_set":"bacs2","hex":"#3366ff99","correct":32,"choice":32,"rt":801.0350000113249,"accuracy":1,"outcome":"+10","keys":[2302.424999885261],"total_keys":1,"block":1,"trial":4,"stimulus":3,"robot":1,"valence":"win","action":"go","sham":0,"trial_type":"pit-trial","trial_index":35,"time_elapsed":435387,"internal_node_id":"0.0-9.0","task_version":"battery-v0.2-trt","session":2},{"rune":"K","rune_set":"bacs2","hex":"#f73b6a7A","correct":32,"choice":32,"rt":853.2700000796467,"accuracy":1,"outcome":"-10","keys":[2355.1350000780076],"total_keys":1,"block":1,"trial":5,"stimulus":2,"robot":3,"valence":"lose","action":"go","sham":1,"trial_type":"pit-trial","trial_index":36,"time_elapsed":438947,"internal_node_id":"0.0-10.0","task_version":"battery-v0.2-trt","session":2},{"rune":"V","rune_set":"bacs2","hex":"#3366ff99","correct":32,"choice":32,"rt":755.339999916032,"accuracy":1,"outcome":"+1","keys":[2255.4699999745935],"total_keys":1,"block":1,"trial":6,"stimulus":3,"robot":1,"valence":"win","action":"go","sham":1,"trial_type":"pit-trial","trial_index":37,"time_elapsed":442405,"internal_node_id":"0.0-11.0","task_version":"battery-v0.2-trt","session":2},{"rune":"M","rune_set":"bacs2","hex":"#f73b6a7A","correct":-1,"choice":-1,"rt":-1,"accuracy":1,"outcome":"-1","keys":[],"total_keys":0,"block":1,"trial":7,"stimulus":0,"robot":4,"valence":"lose","action":"no-go","sham":0,"trial_type":"pit-trial","trial_index":38,"time_elapsed":446410,"internal_node_id":"0.0-12.0","task_version":"battery-v0.2-trt","session":2},{"rune":"B","rune_set":"bacs2","hex":"#f73b6a7A","correct":32,"choice":-1,"rt":-1,"accuracy":0,"outcome":"-10","keys":[],"total_keys":0,"block":1,"trial":8,"stimulus":1,"robot":3,"valence":"lose","action":"go","sham":0,"trial_type":"pit-trial","trial_index":39,"time_elapsed":450415,"internal_node_id":"0.0-13.0","task_version":"battery-v0.2-trt","session":2},{"rune":"M","rune_set":"bacs2","hex":"#f73b6a7A","correct":-1,"choice":32,"rt":1261.6850000340492,"accuracy":0,"outcome":"-10","keys":[2761.9000000413507],"total_keys":1,"block":1,"trial":9,"stimulus":0,"robot":4,"valence":"lose","action":"no-go","sham":0,"trial_type":"pit-trial","trial_index":40,"time_elapsed":454382,"internal_node_id":"0.0-14.0","task_version":"battery-v0.2-trt","session":2},{"rune":"V","rune_set":"bacs2","hex":"#3366ff99","correct":32,"choice":32,"rt":753.5749999806285,"accuracy":1,"outcome":"+10","keys":[2255.265000043437],"total_keys":1,"block":1,"trial":10,"stimulus":3,"robot":1,"valence":"win","action":"go","sham":0,"trial_type":"pit-trial","trial_index":41,"time_elapsed":457841,"internal_node_id":"0.0-15.0","task_version":"battery-v0.2-trt","session":2},{"rune":"B","rune_set":"bacs2","hex":"#f73b6a7A","correct":32,"choice":32,"rt":904.09000008367,"accuracy":1,"outcome":"-1","keys":[2405.229999916628],"total_keys":1,"block":1,"trial":11,"stimulus":1,"robot":3,"valence":"lose","action":"go","sham":0,"trial_type":"pit-trial","trial_index":42,"time_elapsed":461449,"internal_node_id":"0.0-16.0","task_version":"battery-v0.2-trt","session":2},{"rune":"K","rune_set":"bacs2","hex":"#f73b6a7A","correct":32,"choice":32,"rt":778.8849999196827,"accuracy":1,"outcome":"-1","keys":[2279.2350000236183],"total_keys":1,"block":1,"trial":12,"stimulus":2,"robot":3,"valence":"lose","action":"go","sham":0,"trial_type":"pit-trial","trial_index":43,"time_elapsed":464933,"internal_node_id":"0.0-17.0","task_version":"battery-v0.2-trt","session":2},{"rune":"M","rune_set":"bacs2","hex":"#f73b6a7A","correct":-1,"choice":-1,"rt":-1,"accuracy":1,"outcome":"-1","keys":[],"total_keys":0,"block":1,"trial":13,"stimulus":0,"robot":4,"valence":"lose","action":"no-go","sham":0,"trial_type":"pit-trial","trial_index":44,"time_elapsed":468936,"internal_node_id":"0.0-18.0","task_version":"battery-v0.2-trt","session":2},{"rune":"V","rune_set":"bacs2","hex":"#3366ff99","correct":32,"choice":32,"rt":697.9199999477714,"accuracy":1,"outcome":"+10","keys":[2198.2100000604987],"total_keys":1,"block":1,"trial":14,"stimulus":3,"robot":1,"valence":"win","action":"go","sham":0,"trial_type":"pit-trial","trial_index":45,"time_elapsed":472337,"internal_node_id":"0.0-19.0","task_version":"battery-v0.2-trt","session":2},{"rune":"B","rune_set":"bacs2","hex":"#f73b6a7A","correct":32,"choice":32,"rt":631.7300000227988,"accuracy":1,"outcome":"-1","keys":[2132.884999969974],"total_keys":1,"block":1,"trial":15,"stimulus":1,"robot":3,"valence":"lose","action":"go","sham":0,"trial_type":"pit-trial","trial_index":46,"time_elapsed":475677,"internal_node_id":"0.0-20.0","task_version":"battery-v0.2-trt","session":2},{"rune":"K","rune_set":"bacs2","hex":"#f73b6a7A","correct":32,"choice":32,"rt":632.3949999641627,"accuracy":1,"outcome":"-1","keys":[2132.7200001105666],"total_keys":1,"block":1,"trial":16,"stimulus":2,"robot":3,"valence":"lose","action":"go","sham":0,"trial_type":"pit-trial","trial_index":47,"time_elapsed":479015,"internal_node_id":"0.0-21.0","task_version":"battery-v0.2-trt","session":2},{"rune":"M","rune_set":"bacs2","hex":"#f73b6a7A","correct":-1,"choice":-1,"rt":-1,"accuracy":1,"outcome":"-1","keys":[],"total_keys":0,"block":1,"trial":17,"stimulus":0,"robot":4,"valence":"lose","action":"no-go","sham":0,"trial_type":"pit-trial","trial_index":48,"time_elapsed":483019,"internal_node_id":"0.0-22.0","task_version":"battery-v0.2-trt","session":2},{"rune":"B","rune_set":"bacs2","hex":"#f73b6a7A","correct":32,"choice":32,"rt":584.8000000696629,"accuracy":1,"outcome":"-1","keys":[2085.8150001149625],"total_keys":1,"block":1,"trial":18,"stimulus":1,"robot":3,"valence":"lose","action":"go","sham":0,"trial_type":"pit-trial","trial_index":49,"time_elapsed":486308,"internal_node_id":"0.0-23.0","task_version":"battery-v0.2-trt","session":2},{"rune":"V","rune_set":"bacs2","hex":"#3366ff99","correct":32,"choice":32,"rt":667.0100002083927,"accuracy":1,"outcome":"+10","keys":[2167.149999877438],"total_keys":1,"block":1,"trial":19,"stimulus":3,"robot":1,"valence":"win","action":"go","sham":0,"trial_type":"pit-trial","trial_index":50,"time_elapsed":489680,"internal_node_id":"0.0-24.0","task_version":"battery-v0.2-trt","session":2},{"rune":"K","rune_set":"bacs2","hex":"#f73b6a7A","correct":32,"choice":32,"rt":560.7249999884516,"accuracy":1,"outcome":"-10","keys":[2062.4949999619275],"total_keys":1,"block":1,"trial":20,"stimulus":2,"robot":3,"valence":"lose","action":"go","sham":1,"trial_type":"pit-trial","trial_index":51,"time_elapsed":492947,"internal_node_id":"0.0-25.0","task_version":"battery-v0.2-trt","session":2},{"rune":"M","rune_set":"bacs2","hex":"#f73b6a7A","correct":-1,"choice":-1,"rt":-1,"accuracy":1,"outcome":"-1","keys":[],"total_keys":0,"block":1,"trial":21,"stimulus":0,"robot":4,"valence":"lose","action":"no-go","sham":0,"trial_type":"pit-trial","trial_index":52,"time_elapsed":496951,"internal_node_id":"0.0-26.0","task_version":"battery-v0.2-trt","session":2},{"rune":"B","rune_set":"bacs2","hex":"#f73b6a7A","correct":32,"choice":32,"rt":597.3900000099093,"accuracy":1,"outcome":"-1","keys":[2099.3850000668317],"total_keys":1,"block":1,"trial":22,"stimulus":1,"robot":3,"valence":"lose","action":"go","sham":0,"trial_type":"pit-trial","trial_index":53,"time_elapsed":500254,"internal_node_id":"0.0-27.0","task_version":"battery-v0.2-trt","session":2},{"rune":"V","rune_set":"bacs2","hex":"#3366ff99","correct":32,"choice":32,"rt":726.6649999655783,"accuracy":1,"outcome":"+10","keys":[2226.87999997288],"total_keys":1,"block":1,"trial":23,"stimulus":3,"robot":1,"valence":"win","action":"go","sham":0,"trial_type":"pit-trial","trial_index":54,"time_elapsed":503686,"internal_node_id":"0.0-28.0","task_version":"battery-v0.2-trt","session":2},{"rune":"K","rune_set":"bacs2","hex":"#f73b6a7A","correct":32,"choice":32,"rt":534.0199999045581,"accuracy":1,"outcome":"-1","keys":[2034.5050001051277],"total_keys":1,"block":1,"trial":24,"stimulus":2,"robot":3,"valence":"lose","action":"go","sham":0,"trial_type":"pit-trial","trial_index":55,"time_elapsed":506925,"internal_node_id":"0.0-29.0","task_version":"battery-v0.2-trt","session":2},{"rune":"M","rune_set":"bacs2","hex":"#f73b6a7A","correct":-1,"choice":-1,"rt":-1,"accuracy":1,"outcome":"-1","keys":[],"total_keys":0,"block":1,"trial":25,"stimulus":0,"robot":4,"valence":"lose","action":"no-go","sham":0,"trial_type":"pit-trial","trial_index":56,"time_elapsed":510931,"internal_node_id":"0.0-30.0","task_version":"battery-v0.2-trt","session":2},{"rune":"V","rune_set":"bacs2","hex":"#3366ff99","correct":32,"choice":32,"rt":617.7550000138581,"accuracy":1,"outcome":"+10","keys":[2119.554999982938],"total_keys":1,"block":1,"trial":26,"stimulus":3,"robot":1,"valence":"win","action":"go","sham":0,"trial_type":"pit-trial","trial_index":57,"time_elapsed":514256,"internal_node_id":"0.0-31.0","task_version":"battery-v0.2-trt","session":2},{"rune":"B","rune_set":"bacs2","hex":"#f73b6a7A","correct":32,"choice":32,"rt":725.9649999905378,"accuracy":1,"outcome":"-1","keys":[2226.77499987185],"total_keys":1,"block":1,"trial":27,"stimulus":1,"robot":3,"valence":"lose","action":"go","sham":0,"trial_type":"pit-trial","trial_index":58,"time_elapsed":517687,"internal_node_id":"0.0-32.0","task_version":"battery-v0.2-trt","session":2},{"rune":"K","rune_set":"bacs2","hex":"#f73b6a7A","correct":32,"choice":-1,"rt":-1,"accuracy":0,"outcome":"-10","keys":[],"total_keys":0,"block":1,"trial":28,"stimulus":2,"robot":3,"valence":"lose","action":"go","sham":0,"trial_type":"pit-trial","trial_index":59,"time_elapsed":521692,"internal_node_id":"0.0-33.0","task_version":"battery-v0.2-trt","session":2},{"rune":"M","rune_set":"bacs2","hex":"#f73b6a7A","correct":-1,"choice":-1,"rt":-1,"accuracy":1,"outcome":"-1","keys":[],"total_keys":0,"block":1,"trial":29,"stimulus":0,"robot":4,"valence":"lose","action":"no-go","sham":0,"trial_type":"pit-trial","trial_index":60,"time_elapsed":525697,"internal_node_id":"0.0-34.0","task_version":"battery-v0.2-trt","session":2},{"rune":"B","rune_set":"bacs2","hex":"#f73b6a7A","correct":32,"choice":32,"rt":537.2700002044439,"accuracy":1,"outcome":"-1","keys":[2037.4399998690933],"total_keys":1,"block":1,"trial":30,"stimulus":1,"robot":3,"valence":"lose","action":"go","sham":0,"trial_type":"pit-trial","trial_index":61,"time_elapsed":528939,"internal_node_id":"0.0-35.0","task_version":"battery-v0.2-trt","session":2},{"rune":"K","rune_set":"bacs2","hex":"#f73b6a7A","correct":32,"choice":32,"rt":604.8449999652803,"accuracy":1,"outcome":"-10","keys":[2105.6600001174957],"total_keys":1,"block":1,"trial":31,"stimulus":2,"robot":3,"valence":"lose","action":"go","sham":1,"trial_type":"pit-trial","trial_index":62,"time_elapsed":532249,"internal_node_id":"0.0-36.0","task_version":"battery-v0.2-trt","session":2},{"rune":"V","rune_set":"bacs2","hex":"#3366ff99","correct":32,"choice":32,"rt":729.3750001117587,"accuracy":1,"outcome":"+10","keys":[2231.099999975413],"total_keys":1,"block":1,"trial":32,"stimulus":3,"robot":1,"valence":"win","action":"go","sham":0,"trial_type":"pit-trial","trial_index":63,"time_elapsed":535685,"internal_node_id":"0.0-37.0","task_version":"battery-v0.2-trt","session":2},{"rune":"R","rune_set":"bacs2","hex":"#f73b6a7A","correct":-1,"choice":32,"rt":853.2899999991059,"accuracy":0,"outcome":"-10","keys":[2355.265000136569],"total_keys":1,"block":1,"trial":33,"stimulus":4,"robot":4,"valence":"lose","action":"no-go","sham":0,"trial_type":"pit-trial","trial_index":64,"time_elapsed":539245,"internal_node_id":"0.0-38.0","task_version":"battery-v0.2-trt","session":2},{"rune":"V","rune_set":"bacs2","hex":"#3366ff99","correct":32,"choice":32,"rt":768.4649999719113,"accuracy":1,"outcome":"+10","keys":[2268.9249999821186],"total_keys":1,"block":1,"trial":34,"stimulus":3,"robot":1,"valence":"win","action":"go","sham":0,"trial_type":"pit-trial","trial_index":65,"time_elapsed":542724,"internal_node_id":"0.0-39.0","task_version":"battery-v0.2-trt","session":2},{"rune":"M","rune_set":"bacs2","hex":"#f73b6a7A","correct":-1,"choice":-1,"rt":-1,"accuracy":1,"outcome":"-10","keys":[],"total_keys":0,"block":1,"trial":35,"stimulus":0,"robot":4,"valence":"lose","action":"no-go","sham":1,"trial_type":"pit-trial","trial_index":66,"time_elapsed":546729,"internal_node_id":"0.0-40.0","task_version":"battery-v0.2-trt","session":2},{"rune":"B","rune_set":"bacs2","hex":"#f73b6a7A","correct":32,"choice":32,"rt":1035.7349999248981,"accuracy":1,"outcome":"-1","keys":[2536.650000140071],"total_keys":1,"block":1,"trial":36,"stimulus":1,"robot":3,"valence":"lose","action":"go","sham":0,"trial_type":"pit-trial","trial_index":67,"time_elapsed":550470,"internal_node_id":"0.0-41.0","task_version":"battery-v0.2-trt","session":2},{"rune":"B","rune_set":"bacs2","hex":"#f73b6a7A","correct":32,"choice":32,"rt":915.1899998541921,"accuracy":1,"outcome":"-1","keys":[2415.4050000943244],"total_keys":1,"block":1,"trial":37,"stimulus":1,"robot":3,"valence":"lose","action":"go","sham":0,"trial_type":"pit-trial","trial_index":68,"time_elapsed":554089,"internal_node_id":"0.0-42.0","task_version":"battery-v0.2-trt","session":2},{"rune":"M","rune_set":"bacs2","hex":"#f73b6a7A","correct":-1,"choice":32,"rt":681.63500004448,"accuracy":0,"outcome":"-10","keys":[2181.9499998819083],"total_keys":1,"block":1,"trial":38,"stimulus":0,"robot":4,"valence":"lose","action":"no-go","sham":0,"trial_type":"pit-trial","trial_index":69,"time_elapsed":557475,"internal_node_id":"0.0-43.0","task_version":"battery-v0.2-trt","session":2},{"rune":"V","rune_set":"bacs2","hex":"#3366ff99","correct":32,"choice":32,"rt":653.6300000734627,"accuracy":1,"outcome":"+1","keys":[2154.6950000338256],"total_keys":1,"block":1,"trial":39,"stimulus":3,"robot":1,"valence":"win","action":"go","sham":1,"trial_type":"pit-trial","trial_index":70,"time_elapsed":560834,"internal_node_id":"0.0-44.0","task_version":"battery-v0.2-trt","session":2},{"rune":"R","rune_set":"bacs2","hex":"#f73b6a7A","correct":-1,"choice":32,"rt":970.960000064224,"accuracy":0,"outcome":"-1","keys":[2471.9249999616295],"total_keys":1,"block":1,"trial":40,"stimulus":4,"robot":4,"valence":"lose","action":"no-go","sham":1,"trial_type":"pit-trial","trial_index":71,"time_elapsed":564510,"internal_node_id":"0.0-45.0","task_version":"battery-v0.2-trt","session":2},{"rune":"P","rune_set":"bacs2","hex":"#3366ff99","correct":-1,"choice":32,"rt":903.2799999695271,"accuracy":0,"outcome":"+1","keys":[2404.1650001890957],"total_keys":1,"block":1,"trial":41,"stimulus":5,"robot":2,"valence":"win","action":"no-go","sham":0,"trial_type":"pit-trial","trial_index":72,"time_elapsed":568117,"internal_node_id":"0.0-46.0","task_version":"battery-v0.2-trt","session":2},{"rune":"M","rune_set":"bacs2","hex":"#f73b6a7A","correct":-1,"choice":-1,"rt":-1,"accuracy":1,"outcome":"-1","keys":[],"total_keys":0,"block":1,"trial":42,"stimulus":0,"robot":4,"valence":"lose","action":"no-go","sham":0,"trial_type":"pit-trial","trial_index":73,"time_elapsed":572120,"internal_node_id":"0.0-47.0","task_version":"battery-v0.2-trt","session":2},{"rune":"R","rune_set":"bacs2","hex":"#f73b6a7A","correct":-1,"choice":32,"rt":1224.2749999277294,"accuracy":0,"outcome":"-10","keys":[2725.0850000418723],"total_keys":1,"block":1,"trial":43,"stimulus":4,"robot":4,"valence":"lose","action":"no-go","sham":0,"trial_type":"pit-trial","trial_index":74,"time_elapsed":576051,"internal_node_id":"0.0-48.0","task_version":"battery-v0.2-trt","session":2},{"rune":"B","rune_set":"bacs2","hex":"#f73b6a7A","correct":32,"choice":32,"rt":805.2400001324713,"accuracy":1,"outcome":"-1","keys":[2305.390000110492],"total_keys":1,"block":1,"trial":44,"stimulus":1,"robot":3,"valence":"lose","action":"go","sham":0,"trial_type":"pit-trial","trial_index":75,"time_elapsed":579561,"internal_node_id":"0.0-49.0","task_version":"battery-v0.2-trt","session":2},{"rune":"R","rune_set":"bacs2","hex":"#f73b6a7A","correct":-1,"choice":32,"rt":860.9700000379235,"accuracy":0,"outcome":"-10","keys":[2361.500000115484],"total_keys":1,"block":1,"trial":45,"stimulus":4,"robot":4,"valence":"lose","action":"no-go","sham":0,"trial_type":"pit-trial","trial_index":76,"time_elapsed":583128,"internal_node_id":"0.0-50.0","task_version":"battery-v0.2-trt","session":2},{"rune":"P","rune_set":"bacs2","hex":"#3366ff99","correct":-1,"choice":-1,"rt":-1,"accuracy":1,"outcome":"+1","keys":[],"total_keys":0,"block":1,"trial":46,"stimulus":5,"robot":2,"valence":"win","action":"no-go","sham":1,"trial_type":"pit-trial","trial_index":77,"time_elapsed":587134,"internal_node_id":"0.0-51.0","task_version":"battery-v0.2-trt","session":2},{"rune":"M","rune_set":"bacs2","hex":"#f73b6a7A","correct":-1,"choice":32,"rt":828.304999973625,"accuracy":0,"outcome":"-10","keys":[2329.5500001404434],"total_keys":1,"block":1,"trial":47,"stimulus":0,"robot":4,"valence":"lose","action":"no-go","sham":0,"trial_type":"pit-trial","trial_index":78,"time_elapsed":590669,"internal_node_id":"0.0-52.0","task_version":"battery-v0.2-trt","session":2},{"rune":"B","rune_set":"bacs2","hex":"#f73b6a7A","correct":32,"choice":32,"rt":997.0499998889863,"accuracy":1,"outcome":"-1","keys":[2497.3100000061095],"total_keys":1,"block":1,"trial":48,"stimulus":1,"robot":3,"valence":"lose","action":"go","sham":0,"trial_type":"pit-trial","trial_index":79,"time_elapsed":594370,"internal_node_id":"0.0-53.0","task_version":"battery-v0.2-trt","session":2},{"rune":"P","rune_set":"bacs2","hex":"#3366ff99","correct":-1,"choice":32,"rt":608.5200000088662,"accuracy":0,"outcome":"+1","keys":[2109.5099998638034],"total_keys":1,"block":1,"trial":49,"stimulus":5,"robot":2,"valence":"win","action":"no-go","sham":0,"trial_type":"pit-trial","trial_index":80,"time_elapsed":597686,"internal_node_id":"0.0-54.0","task_version":"battery-v0.2-trt","session":2},{"rune":"R","rune_set":"bacs2","hex":"#f73b6a7A","correct":-1,"choice":32,"rt":1235.7700001448393,"accuracy":0,"outcome":"-10","keys":[2736.0049998387694],"total_keys":1,"block":1,"trial":50,"stimulus":4,"robot":4,"valence":"lose","action":"no-go","sham":0,"trial_type":"pit-trial","trial_index":81,"time_elapsed":601626,"internal_node_id":"0.0-55.0","task_version":"battery-v0.2-trt","session":2},{"rune":"L","rune_set":"bacs2","hex":"#f73b6a7A","correct":-1,"choice":32,"rt":881.2949999701232,"accuracy":0,"outcome":"-10","keys":[2382.4800001457334],"total_keys":1,"block":1,"trial":51,"stimulus":6,"robot":4,"valence":"lose","action":"no-go","sham":0,"trial_type":"pit-trial","trial_index":82,"time_elapsed":605213,"internal_node_id":"0.0-56.0","task_version":"battery-v0.2-trt","session":2},{"rune":"S","rune_set":"bacs2","hex":"#3366ff99","correct":32,"choice":32,"rt":929.7899999655783,"accuracy":1,"outcome":"+10","keys":[2430.36499992013],"total_keys":1,"block":1,"trial":52,"stimulus":7,"robot":1,"valence":"win","action":"go","sham":0,"trial_type":"pit-trial","trial_index":83,"time_elapsed":608847,"internal_node_id":"0.0-57.0","task_version":"battery-v0.2-trt","session":2},{"rune":"R","rune_set":"bacs2","hex":"#f73b6a7A","correct":-1,"choice":32,"rt":781.6200000233948,"accuracy":0,"outcome":"-10","keys":[2281.754999887198],"total_keys":1,"block":1,"trial":53,"stimulus":4,"robot":4,"valence":"lose","action":"no-go","sham":0,"trial_type":"pit-trial","trial_index":84,"time_elapsed":612333,"internal_node_id":"0.0-58.0","task_version":"battery-v0.2-trt","session":2},{"rune":"S","rune_set":"bacs2","hex":"#3366ff99","correct":32,"choice":32,"rt":931.5649999771267,"accuracy":1,"outcome":"+10","keys":[2432.2399999946356],"total_keys":1,"block":1,"trial":54,"stimulus":7,"robot":1,"valence":"win","action":"go","sham":0,"trial_type":"pit-trial","trial_index":85,"time_elapsed":615968,"internal_node_id":"0.0-59.0","task_version":"battery-v0.2-trt","session":2},{"rune":"P","rune_set":"bacs2","hex":"#3366ff99","correct":-1,"choice":32,"rt":677.5350000243634,"accuracy":0,"outcome":"+1","keys":[2177.7749999891967],"total_keys":1,"block":1,"trial":55,"stimulus":5,"robot":2,"valence":"win","action":"no-go","sham":0,"trial_type":"pit-trial","trial_index":86,"time_elapsed":619351,"internal_node_id":"0.0-60.0","task_version":"battery-v0.2-trt","session":2},{"rune":"L","rune_set":"bacs2","hex":"#f73b6a7A","correct":-1,"choice":-1,"rt":-1,"accuracy":1,"outcome":"-1","keys":[],"total_keys":0,"block":1,"trial":56,"stimulus":6,"robot":4,"valence":"lose","action":"no-go","sham":0,"trial_type":"pit-trial","trial_index":87,"time_elapsed":623356,"internal_node_id":"0.0-61.0","task_version":"battery-v0.2-trt","session":2},{"rune":"R","rune_set":"bacs2","hex":"#f73b6a7A","correct":-1,"choice":32,"rt":1228.3949998673052,"accuracy":0,"outcome":"-1","keys":[2729.365000035614],"total_keys":1,"block":1,"trial":57,"stimulus":4,"robot":4,"valence":"lose","action":"no-go","sham":1,"trial_type":"pit-trial","trial_index":88,"time_elapsed":627291,"internal_node_id":"0.0-62.0","task_version":"battery-v0.2-trt","session":2},{"rune":"S","rune_set":"bacs2","hex":"#3366ff99","correct":32,"choice":32,"rt":760.1199999917299,"accuracy":1,"outcome":"+10","keys":[2262.014999985695],"total_keys":1,"block":1,"trial":58,"stimulus":7,"robot":1,"valence":"win","action":"go","sham":0,"trial_type":"pit-trial","trial_index":89,"time_elapsed":630757,"internal_node_id":"0.0-63.0","task_version":"battery-v0.2-trt","session":2},{"rune":"L","rune_set":"bacs2","hex":"#f73b6a7A","correct":-1,"choice":32,"rt":856.7449999973178,"accuracy":0,"outcome":"-10","keys":[2357.7699998859316],"total_keys":1,"block":1,"trial":59,"stimulus":6,"robot":4,"valence":"lose","action":"no-go","sham":0,"trial_type":"pit-trial","trial_index":90,"time_elapsed":634319,"internal_node_id":"0.0-64.0","task_version":"battery-v0.2-trt","session":2},{"rune":"P","rune_set":"bacs2","hex":"#3366ff99","correct":-1,"choice":32,"rt":1217.8350000176579,"accuracy":0,"outcome":"+1","keys":[2719.5150000043213],"total_keys":1,"block":1,"trial":60,"stimulus":5,"robot":2,"valence":"win","action":"no-go","sham":0,"trial_type":"pit-trial","trial_index":91,"time_elapsed":638242,"internal_node_id":"0.0-65.0","task_version":"battery-v0.2-trt","session":2},{"rune":"R","rune_set":"bacs2","hex":"#f73b6a7A","correct":-1,"choice":-1,"rt":-1,"accuracy":1,"outcome":"-1","keys":[],"total_keys":0,"block":1,"trial":61,"stimulus":4,"robot":4,"valence":"lose","action":"no-go","sham":0,"trial_type":"pit-trial","trial_index":92,"time_elapsed":642247,"internal_node_id":"0.0-66.0","task_version":"battery-v0.2-trt","session":2},{"rune":"S","rune_set":"bacs2","hex":"#3366ff99","correct":32,"choice":32,"rt":1113.8249998912215,"accuracy":1,"outcome":"+10","keys":[2615.2149999979883],"total_keys":1,"block":1,"trial":62,"stimulus":7,"robot":1,"valence":"win","action":"go","sham":0,"trial_type":"pit-trial","trial_index":93,"time_elapsed":646066,"internal_node_id":"0.0-67.0","task_version":"battery-v0.2-trt","session":2},{"rune":"L","rune_set":"bacs2","hex":"#f73b6a7A","correct":-1,"choice":32,"rt":906.0499998740852,"accuracy":0,"outcome":"-10","keys":[2406.650000018999],"total_keys":1,"block":1,"trial":63,"stimulus":6,"robot":4,"valence":"lose","action":"no-go","sham":0,"trial_type":"pit-trial","trial_index":94,"time_elapsed":649678,"internal_node_id":"0.0-68.0","task_version":"battery-v0.2-trt","session":2},{"rune":"P","rune_set":"bacs2","hex":"#3366ff99","correct":-1,"choice":-1,"rt":-1,"accuracy":1,"outcome":"+10","keys":[],"total_keys":0,"block":1,"trial":64,"stimulus":5,"robot":2,"valence":"win","action":"no-go","sham":0,"trial_type":"pit-trial","trial_index":95,"time_elapsed":653683,"internal_node_id":"0.0-69.0","task_version":"battery-v0.2-trt","session":2},{"rune":"S","rune_set":"bacs2","hex":"#3366ff99","correct":32,"choice":32,"rt":1006.4549997914582,"accuracy":1,"outcome":"+10","keys":[2506.929999915883],"total_keys":1,"block":1,"trial":65,"stimulus":7,"robot":1,"valence":"win","action":"go","sham":0,"trial_type":"pit-trial","trial_index":96,"time_elapsed":657394,"internal_node_id":"0.0-70.0","task_version":"battery-v0.2-trt","session":2},{"rune":"P","rune_set":"bacs2","hex":"#3366ff99","correct":-1,"choice":-1,"rt":-1,"accuracy":1,"outcome":"+10","keys":[],"total_keys":0,"block":1,"trial":66,"stimulus":5,"robot":2,"valence":"win","action":"no-go","sham":0,"trial_type":"pit-trial","trial_index":97,"time_elapsed":661399,"internal_node_id":"0.0-71.0","task_version":"battery-v0.2-trt","session":2},{"rune":"L","rune_set":"bacs2","hex":"#f73b6a7A","correct":-1,"choice":-1,"rt":-1,"accuracy":1,"outcome":"-10","keys":[],"total_keys":0,"block":1,"trial":67,"stimulus":6,"robot":4,"valence":"lose","action":"no-go","sham":1,"trial_type":"pit-trial","trial_index":98,"time_elapsed":665405,"internal_node_id":"0.0-72.0","task_version":"battery-v0.2-trt","session":2},{"rune":"R","rune_set":"bacs2","hex":"#f73b6a7A","correct":-1,"choice":-1,"rt":-1,"accuracy":1,"outcome":"-10","keys":[],"total_keys":0,"block":1,"trial":68,"stimulus":4,"robot":4,"valence":"lose","action":"no-go","sham":1,"trial_type":"pit-trial","trial_index":99,"time_elapsed":669412,"internal_node_id":"0.0-73.0","task_version":"battery-v0.2-trt","session":2},{"rune":"S","rune_set":"bacs2","hex":"#3366ff99","correct":32,"choice":32,"rt":1238.9950000215322,"accuracy":1,"outcome":"+1","keys":[2739.6350000053644],"total_keys":1,"block":1,"trial":69,"stimulus":7,"robot":1,"valence":"win","action":"go","sham":1,"trial_type":"pit-trial","trial_index":100,"time_elapsed":673356,"internal_node_id":"0.0-74.0","task_version":"battery-v0.2-trt","session":2},{"rune":"R","rune_set":"bacs2","hex":"#f73b6a7A","correct":-1,"choice":32,"rt":1166.8599999975413,"accuracy":0,"outcome":"-10","keys":[2667.7600000984967],"total_keys":1,"block":1,"trial":70,"stimulus":4,"robot":4,"valence":"lose","action":"no-go","sham":0,"trial_type":"pit-trial","trial_index":101,"time_elapsed":677226,"internal_node_id":"0.0-75.0","task_version":"battery-v0.2-trt","session":2},{"rune":"L","rune_set":"bacs2","hex":"#f73b6a7A","correct":-1,"choice":-1,"rt":-1,"accuracy":1,"outcome":"-1","keys":[],"total_keys":0,"block":1,"trial":71,"stimulus":6,"robot":4,"valence":"lose","action":"no-go","sham":0,"trial_type":"pit-trial","trial_index":102,"time_elapsed":681232,"internal_node_id":"0.0-76.0","task_version":"battery-v0.2-trt","session":2},{"rune":"P","rune_set":"bacs2","hex":"#3366ff99","correct":-1,"choice":32,"rt":1046.9400000292808,"accuracy":0,"outcome":"+1","keys":[2547.4550002254546],"total_keys":1,"block":1,"trial":72,"stimulus":5,"robot":2,"valence":"win","action":"no-go","sham":0,"trial_type":"pit-trial","trial_index":103,"time_elapsed":684984,"internal_node_id":"0.0-77.0","task_version":"battery-v0.2-trt","session":2},{"rune":"U","rune_set":"bacs2","hex":"#3366ff99","correct":32,"choice":-1,"rt":-1,"accuracy":0,"outcome":"+1","keys":[],"total_keys":0,"block":1,"trial":73,"stimulus":8,"robot":1,"valence":"win","action":"go","sham":0,"trial_type":"pit-trial","trial_index":104,"time_elapsed":688990,"internal_node_id":"0.0-78.0","task_version":"battery-v0.2-trt","session":2},{"rune":"P","rune_set":"bacs2","hex":"#3366ff99","correct":-1,"choice":-1,"rt":-1,"accuracy":1,"outcome":"+1","keys":[],"total_keys":0,"block":1,"trial":74,"stimulus":5,"robot":2,"valence":"win","action":"no-go","sham":1,"trial_type":"pit-trial","trial_index":105,"time_elapsed":692996,"internal_node_id":"0.0-79.0","task_version":"battery-v0.2-trt","session":2},{"rune":"L","rune_set":"bacs2","hex":"#f73b6a7A","correct":-1,"choice":-1,"rt":-1,"accuracy":1,"outcome":"-1","keys":[],"total_keys":0,"block":1,"trial":75,"stimulus":6,"robot":4,"valence":"lose","action":"no-go","sham":0,"trial_type":"pit-trial","trial_index":106,"time_elapsed":697002,"internal_node_id":"0.0-80.0","task_version":"battery-v0.2-trt","session":2},{"rune":"S","rune_set":"bacs2","hex":"#3366ff99","correct":32,"choice":32,"rt":868.114999961108,"accuracy":1,"outcome":"+1","keys":[2368.8900000415742],"total_keys":1,"block":1,"trial":76,"stimulus":7,"robot":1,"valence":"win","action":"go","sham":1,"trial_type":"pit-trial","trial_index":107,"time_elapsed":700576,"internal_node_id":"0.0-81.0","task_version":"battery-v0.2-trt","session":2},{"rune":"S","rune_set":"bacs2","hex":"#3366ff99","correct":32,"choice":32,"rt":919.9749999679625,"accuracy":1,"outcome":"+10","keys":[2421.834999928251],"total_keys":1,"block":1,"trial":77,"stimulus":7,"robot":1,"valence":"win","action":"go","sham":0,"trial_type":"pit-trial","trial_index":108,"time_elapsed":704202,"internal_node_id":"0.0-82.0","task_version":"battery-v0.2-trt","session":2},{"rune":"U","rune_set":"bacs2","hex":"#3366ff99","correct":32,"choice":-1,"rt":-1,"accuracy":0,"outcome":"+1","keys":[],"total_keys":0,"block":1,"trial":78,"stimulus":8,"robot":1,"valence":"win","action":"go","sham":0,"trial_type":"pit-trial","trial_index":109,"time_elapsed":708204,"internal_node_id":"0.0-83.0","task_version":"battery-v0.2-trt","session":2},{"rune":"L","rune_set":"bacs2","hex":"#f73b6a7A","correct":-1,"choice":-1,"rt":-1,"accuracy":1,"outcome":"-10","keys":[],"total_keys":0,"block":1,"trial":79,"stimulus":6,"robot":4,"valence":"lose","action":"no-go","sham":1,"trial_type":"pit-trial","trial_index":110,"time_elapsed":712210,"internal_node_id":"0.0-84.0","task_version":"battery-v0.2-trt","session":2},{"rune":"P","rune_set":"bacs2","hex":"#3366ff99","correct":-1,"choice":-1,"rt":-1,"accuracy":1,"outcome":"+1","keys":[],"total_keys":0,"block":1,"trial":80,"stimulus":5,"robot":2,"valence":"win","action":"no-go","sham":1,"trial_type":"pit-trial","trial_index":111,"time_elapsed":716215,"internal_node_id":"0.0-85.0","task_version":"battery-v0.2-trt","session":2},{"rune":"F","rune_set":"bacs2","hex":"#f73b6a7A","correct":32,"choice":-1,"rt":-1,"accuracy":0,"outcome":"-1","keys":[],"total_keys":0,"block":1,"trial":81,"stimulus":10,"robot":3,"valence":"lose","action":"go","sham":1,"trial_type":"pit-trial","trial_index":112,"time_elapsed":720221,"internal_node_id":"0.0-86.0","task_version":"battery-v0.2-trt","session":2},{"rune":"U","rune_set":"bacs2","hex":"#3366ff99","correct":32,"choice":32,"rt":823.765000095591,"accuracy":1,"outcome":"+10","keys":[2325.6850000470877],"total_keys":1,"block":1,"trial":82,"stimulus":8,"robot":1,"valence":"win","action":"go","sham":0,"trial_type":"pit-trial","trial_index":113,"time_elapsed":723752,"internal_node_id":"0.0-87.0","task_version":"battery-v0.2-trt","session":2},{"rune":"A","rune_set":"bacs2","hex":"#3366ff99","correct":-1,"choice":-1,"rt":-1,"accuracy":1,"outcome":"+10","keys":[],"total_keys":0,"block":1,"trial":83,"stimulus":9,"robot":2,"valence":"win","action":"no-go","sham":0,"trial_type":"pit-trial","trial_index":114,"time_elapsed":727757,"internal_node_id":"0.0-88.0","task_version":"battery-v0.2-trt","session":2},{"rune":"P","rune_set":"bacs2","hex":"#3366ff99","correct":-1,"choice":-1,"rt":-1,"accuracy":1,"outcome":"+10","keys":[],"total_keys":0,"block":1,"trial":84,"stimulus":5,"robot":2,"valence":"win","action":"no-go","sham":0,"trial_type":"pit-trial","trial_index":115,"time_elapsed":731760,"internal_node_id":"0.0-89.0","task_version":"battery-v0.2-trt","session":2},{"rune":"A","rune_set":"bacs2","hex":"#3366ff99","correct":-1,"choice":-1,"rt":-1,"accuracy":1,"outcome":"+10","keys":[],"total_keys":0,"block":1,"trial":85,"stimulus":9,"robot":2,"valence":"win","action":"no-go","sham":0,"trial_type":"pit-trial","trial_index":116,"time_elapsed":735765,"internal_node_id":"0.0-90.0","task_version":"battery-v0.2-trt","session":2},{"rune":"F","rune_set":"bacs2","hex":"#f73b6a7A","correct":32,"choice":-1,"rt":-1,"accuracy":0,"outcome":"-10","keys":[],"total_keys":0,"block":1,"trial":86,"stimulus":10,"robot":3,"valence":"lose","action":"go","sham":0,"trial_type":"pit-trial","trial_index":117,"time_elapsed":739771,"internal_node_id":"0.0-91.0","task_version":"battery-v0.2-trt","session":2},{"rune":"U","rune_set":"bacs2","hex":"#3366ff99","correct":32,"choice":-1,"rt":-1,"accuracy":0,"outcome":"+1","keys":[],"total_keys":0,"block":1,"trial":87,"stimulus":8,"robot":1,"valence":"win","action":"go","sham":0,"trial_type":"pit-trial","trial_index":118,"time_elapsed":743776,"internal_node_id":"0.0-92.0","task_version":"battery-v0.2-trt","session":2},{"rune":"P","rune_set":"bacs2","hex":"#3366ff99","correct":-1,"choice":-1,"rt":-1,"accuracy":1,"outcome":"+10","keys":[],"total_keys":0,"block":1,"trial":88,"stimulus":5,"robot":2,"valence":"win","action":"no-go","sham":0,"trial_type":"pit-trial","trial_index":119,"time_elapsed":747783,"internal_node_id":"0.0-93.0","task_version":"battery-v0.2-trt","session":2},{"rune":"U","rune_set":"bacs2","hex":"#3366ff99","correct":32,"choice":32,"rt":478.39000006206334,"accuracy":1,"outcome":"+10","keys":[1978.7399999331683],"total_keys":1,"block":1,"trial":89,"stimulus":8,"robot":1,"valence":"win","action":"go","sham":0,"trial_type":"pit-trial","trial_index":120,"time_elapsed":750966,"internal_node_id":"0.0-94.0","task_version":"battery-v0.2-trt","session":2},{"rune":"F","rune_set":"bacs2","hex":"#f73b6a7A","correct":32,"choice":32,"rt":904.1399999987334,"accuracy":1,"outcome":"-1","keys":[2405.1350001245737],"total_keys":1,"block":1,"trial":90,"stimulus":10,"robot":3,"valence":"lose","action":"go","sham":0,"trial_type":"pit-trial","trial_index":121,"time_elapsed":754575,"internal_node_id":"0.0-95.0","task_version":"battery-v0.2-trt","session":2},{"rune":"A","rune_set":"bacs2","hex":"#3366ff99","correct":-1,"choice":-1,"rt":-1,"accuracy":1,"outcome":"+10","keys":[],"total_keys":0,"block":1,"trial":91,"stimulus":9,"robot":2,"valence":"win","action":"no-go","sham":0,"trial_type":"pit-trial","trial_index":122,"time_elapsed":758579,"internal_node_id":"0.0-96.0","task_version":"battery-v0.2-trt","session":2},{"rune":"N","rune_set":"bacs2","hex":"#3366ff99","correct":-1,"choice":-1,"rt":-1,"accuracy":1,"outcome":"+10","keys":[],"total_keys":0,"block":1,"trial":92,"stimulus":11,"robot":2,"valence":"win","action":"no-go","sham":0,"trial_type":"pit-trial","trial_index":123,"time_elapsed":762585,"internal_node_id":"0.0-97.0","task_version":"battery-v0.2-trt","session":2},{"rune":"F","rune_set":"bacs2","hex":"#f73b6a7A","correct":32,"choice":32,"rt":915.1149999815971,"accuracy":1,"outcome":"-1","keys":[2415.5300001148134],"total_keys":1,"block":1,"trial":93,"stimulus":10,"robot":3,"valence":"lose","action":"go","sham":0,"trial_type":"pit-trial","trial_index":124,"time_elapsed":766204,"internal_node_id":"0.0-98.0","task_version":"battery-v0.2-trt","session":2},{"rune":"U","rune_set":"bacs2","hex":"#3366ff99","correct":32,"choice":32,"rt":562.1650000102818,"accuracy":1,"outcome":"+10","keys":[2062.6100001391023],"total_keys":1,"block":1,"trial":94,"stimulus":8,"robot":1,"valence":"win","action":"go","sham":0,"trial_type":"pit-trial","trial_index":125,"time_elapsed":769472,"internal_node_id":"0.0-99.0","task_version":"battery-v0.2-trt","session":2},{"rune":"A","rune_set":"bacs2","hex":"#3366ff99","correct":-1,"choice":-1,"rt":-1,"accuracy":1,"outcome":"+10","keys":[],"total_keys":0,"block":1,"trial":95,"stimulus":9,"robot":2,"valence":"win","action":"no-go","sham":0,"trial_type":"pit-trial","trial_index":126,"time_elapsed":773480,"internal_node_id":"0.0-100.0","task_version":"battery-v0.2-trt","session":2},{"rune":"N","rune_set":"bacs2","hex":"#3366ff99","correct":-1,"choice":32,"rt":1071.2349999230355,"accuracy":0,"outcome":"+1","keys":[2571.334999985993],"total_keys":1,"block":1,"trial":96,"stimulus":11,"robot":2,"valence":"win","action":"no-go","sham":0,"trial_type":"pit-trial","trial_index":127,"time_elapsed":777255,"internal_node_id":"0.0-101.0","task_version":"battery-v0.2-trt","session":2},{"rune":"F","rune_set":"bacs2","hex":"#f73b6a7A","correct":32,"choice":32,"rt":779.8600001260638,"accuracy":1,"outcome":"-1","keys":[2280.99500015378],"total_keys":1,"block":1,"trial":97,"stimulus":10,"robot":3,"valence":"lose","action":"go","sham":0,"trial_type":"pit-trial","trial_index":128,"time_elapsed":780740,"internal_node_id":"0.0-102.0","task_version":"battery-v0.2-trt","session":2},{"rune":"N","rune_set":"bacs2","hex":"#3366ff99","correct":-1,"choice":-1,"rt":-1,"accuracy":1,"outcome":"+10","keys":[],"total_keys":0,"block":1,"trial":98,"stimulus":11,"robot":2,"valence":"win","action":"no-go","sham":0,"trial_type":"pit-trial","trial_index":129,"time_elapsed":784746,"internal_node_id":"0.0-103.0","task_version":"battery-v0.2-trt","session":2},{"rune":"U","rune_set":"bacs2","hex":"#3366ff99","correct":32,"choice":32,"rt":637.2700000647455,"accuracy":1,"outcome":"+10","keys":[2139.8199999239296],"total_keys":1,"block":1,"trial":99,"stimulus":8,"robot":1,"valence":"win","action":"go","sham":0,"trial_type":"pit-trial","trial_index":130,"time_elapsed":788090,"internal_node_id":"0.0-104.0","task_version":"battery-v0.2-trt","session":2},{"rune":"A","rune_set":"bacs2","hex":"#3366ff99","correct":-1,"choice":-1,"rt":-1,"accuracy":1,"outcome":"+10","keys":[],"total_keys":0,"block":1,"trial":100,"stimulus":9,"robot":2,"valence":"win","action":"no-go","sham":0,"trial_type":"pit-trial","trial_index":131,"time_elapsed":792095,"internal_node_id":"0.0-105.0","task_version":"battery-v0.2-trt","session":2},{"rune":"N","rune_set":"bacs2","hex":"#3366ff99","correct":-1,"choice":32,"rt":1113.7800000142306,"accuracy":0,"outcome":"+10","keys":[2614.0650000888854],"total_keys":1,"block":1,"trial":101,"stimulus":11,"robot":2,"valence":"win","action":"no-go","sham":1,"trial_type":"pit-trial","trial_index":132,"time_elapsed":795914,"internal_node_id":"0.0-106.0","task_version":"battery-v0.2-trt","session":2},{"rune":"U","rune_set":"bacs2","hex":"#3366ff99","correct":32,"choice":32,"rt":781.6899998579174,"accuracy":1,"outcome":"+10","keys":[2282.2149998974055],"total_keys":1,"block":1,"trial":102,"stimulus":8,"robot":1,"valence":"win","action":"go","sham":0,"trial_type":"pit-trial","trial_index":133,"time_elapsed":799401,"internal_node_id":"0.0-107.0","task_version":"battery-v0.2-trt","session":2},{"rune":"A","rune_set":"bacs2","hex":"#3366ff99","correct":-1,"choice":-1,"rt":-1,"accuracy":1,"outcome":"+10","keys":[],"total_keys":0,"block":1,"trial":103,"stimulus":9,"robot":2,"valence":"win","action":"no-go","sham":0,"trial_type":"pit-trial","trial_index":134,"time_elapsed":803407,"internal_node_id":"0.0-108.0","task_version":"battery-v0.2-trt","session":2},{"rune":"F","rune_set":"bacs2","hex":"#f73b6a7A","correct":32,"choice":32,"rt":860.0099999457598,"accuracy":1,"outcome":"-10","keys":[2360.9599999617785],"total_keys":1,"block":1,"trial":104,"stimulus":10,"robot":3,"valence":"lose","action":"go","sham":1,"trial_type":"pit-trial","trial_index":135,"time_elapsed":806972,"internal_node_id":"0.0-109.0","task_version":"battery-v0.2-trt","session":2},{"rune":"N","rune_set":"bacs2","hex":"#3366ff99","correct":-1,"choice":32,"rt":897.6500001735985,"accuracy":0,"outcome":"+1","keys":[2398.39500002563],"total_keys":1,"block":1,"trial":105,"stimulus":11,"robot":2,"valence":"win","action":"no-go","sham":0,"trial_type":"pit-trial","trial_index":136,"time_elapsed":810573,"internal_node_id":"0.0-110.0","task_version":"battery-v0.2-trt","session":2},{"rune":"A","rune_set":"bacs2","hex":"#3366ff99","correct":-1,"choice":-1,"rt":-1,"accuracy":1,"outcome":"+10","keys":[],"total_keys":0,"block":1,"trial":106,"stimulus":9,"robot":2,"valence":"win","action":"no-go","sham":0,"trial_type":"pit-trial","trial_index":137,"time_elapsed":814576,"internal_node_id":"0.0-111.0","task_version":"battery-v0.2-trt","session":2},{"rune":"U","rune_set":"bacs2","hex":"#3366ff99","correct":32,"choice":32,"rt":644.825000083074,"accuracy":1,"outcome":"+10","keys":[2145.164999878034],"total_keys":1,"block":1,"trial":107,"stimulus":8,"robot":1,"valence":"win","action":"go","sham":0,"trial_type":"pit-trial","trial_index":138,"time_elapsed":817924,"internal_node_id":"0.0-112.0","task_version":"battery-v0.2-trt","session":2},{"rune":"F","rune_set":"bacs2","hex":"#f73b6a7A","correct":32,"choice":-1,"rt":-1,"accuracy":0,"outcome":"-1","keys":[],"total_keys":0,"block":1,"trial":108,"stimulus":10,"robot":3,"valence":"lose","action":"go","sham":1,"trial_type":"pit-trial","trial_index":139,"time_elapsed":821929,"internal_node_id":"0.0-113.0","task_version":"battery-v0.2-trt","session":2},{"rune":"F","rune_set":"bacs2","hex":"#f73b6a7A","correct":32,"choice":-1,"rt":-1,"accuracy":0,"outcome":"-10","keys":[],"total_keys":0,"block":1,"trial":109,"stimulus":10,"robot":3,"valence":"lose","action":"go","sham":0,"trial_type":"pit-trial","trial_index":140,"time_elapsed":825936,"internal_node_id":"0.0-114.0","task_version":"battery-v0.2-trt","session":2},{"rune":"N","rune_set":"bacs2","hex":"#3366ff99","correct":-1,"choice":-1,"rt":-1,"accuracy":1,"outcome":"+10","keys":[],"total_keys":0,"block":1,"trial":110,"stimulus":11,"robot":2,"valence":"win","action":"no-go","sham":0,"trial_type":"pit-trial","trial_index":141,"time_elapsed":829941,"internal_node_id":"0.0-115.0","task_version":"battery-v0.2-trt","session":2},{"rune":"A","rune_set":"bacs2","hex":"#3366ff99","correct":-1,"choice":-1,"rt":-1,"accuracy":1,"outcome":"+10","keys":[],"total_keys":0,"block":1,"trial":111,"stimulus":9,"robot":2,"valence":"win","action":"no-go","sham":0,"trial_type":"pit-trial","trial_index":142,"time_elapsed":833946,"internal_node_id":"0.0-116.0","task_version":"battery-v0.2-trt","session":2},{"rune":"U","rune_set":"bacs2","hex":"#3366ff99","correct":32,"choice":32,"rt":621.5099999681115,"accuracy":1,"outcome":"+10","keys":[2122.2550000529736],"total_keys":1,"block":1,"trial":112,"stimulus":8,"robot":1,"valence":"win","action":"go","sham":0,"trial_type":"pit-trial","trial_index":143,"time_elapsed":837274,"internal_node_id":"0.0-117.0","task_version":"battery-v0.2-trt","session":2},{"rune":"A","rune_set":"bacs2","hex":"#3366ff99","correct":-1,"choice":-1,"rt":-1,"accuracy":1,"outcome":"+10","keys":[],"total_keys":0,"block":1,"trial":113,"stimulus":9,"robot":2,"valence":"win","action":"no-go","sham":0,"trial_type":"pit-trial","trial_index":144,"time_elapsed":841279,"internal_node_id":"0.0-118.0","task_version":"battery-v0.2-trt","session":2},{"rune":"F","rune_set":"bacs2","hex":"#f73b6a7A","correct":32,"choice":-1,"rt":-1,"accuracy":0,"outcome":"-10","keys":[],"total_keys":0,"block":1,"trial":114,"stimulus":10,"robot":3,"valence":"lose","action":"go","sham":0,"trial_type":"pit-trial","trial_index":145,"time_elapsed":845285,"internal_node_id":"0.0-119.0","task_version":"battery-v0.2-trt","session":2},{"rune":"N","rune_set":"bacs2","hex":"#3366ff99","correct":-1,"choice":-1,"rt":-1,"accuracy":1,"outcome":"+10","keys":[],"total_keys":0,"block":1,"trial":115,"stimulus":11,"robot":2,"valence":"win","action":"no-go","sham":0,"trial_type":"pit-trial","trial_index":146,"time_elapsed":849290,"internal_node_id":"0.0-120.0","task_version":"battery-v0.2-trt","session":2},{"rune":"U","rune_set":"bacs2","hex":"#3366ff99","correct":32,"choice":32,"rt":850.9449998382479,"accuracy":1,"outcome":"+10","keys":[2351.255000103265],"total_keys":1,"block":1,"trial":116,"stimulus":8,"robot":1,"valence":"win","action":"go","sham":0,"trial_type":"pit-trial","trial_index":147,"time_elapsed":852844,"internal_node_id":"0.0-121.0","task_version":"battery-v0.2-trt","session":2},{"rune":"F","rune_set":"bacs2","hex":"#f73b6a7A","correct":32,"choice":32,"rt":850.2400000579655,"accuracy":1,"outcome":"-1","keys":[2350.7900000549853],"total_keys":1,"block":1,"trial":117,"stimulus":10,"robot":3,"valence":"lose","action":"go","sham":0,"trial_type":"pit-trial","trial_index":148,"time_elapsed":856400,"internal_node_id":"0.0-122.0","task_version":"battery-v0.2-trt","session":2},{"rune":"N","rune_set":"bacs2","hex":"#3366ff99","correct":-1,"choice":-1,"rt":-1,"accuracy":1,"outcome":"+10","keys":[],"total_keys":0,"block":1,"trial":118,"stimulus":11,"robot":2,"valence":"win","action":"no-go","sham":0,"trial_type":"pit-trial","trial_index":149,"time_elapsed":860405,"internal_node_id":"0.0-123.0","task_version":"battery-v0.2-trt","session":2},{"rune":"A","rune_set":"bacs2","hex":"#3366ff99","correct":-1,"choice":-1,"rt":-1,"accuracy":1,"outcome":"+10","keys":[],"total_keys":0,"block":1,"trial":119,"stimulus":9,"robot":2,"valence":"win","action":"no-go","sham":0,"trial_type":"pit-trial","trial_index":150,"time_elapsed":864411,"internal_node_id":"0.0-124.0","task_version":"battery-v0.2-trt","session":2},{"rune":"U","rune_set":"bacs2","hex":"#3366ff99","correct":32,"choice":32,"rt":649.8749998863786,"accuracy":1,"outcome":"+10","keys":[2149.930000072345],"total_keys":1,"block":1,"trial":120,"stimulus":8,"robot":1,"valence":"win","action":"go","sham":0,"trial_type":"pit-trial","trial_index":151,"time_elapsed":867764,"internal_node_id":"0.0-125.0","task_version":"battery-v0.2-trt","session":2},{"view_history":"[{\"page_index\":0,\"viewing_time\":20286.379999946803},{\"page_index\":1,\"viewing_time\":3066.4800000377}]","rt":23353.21499989368,"trial_type":"pit-instructions","trial_index":152,"time_elapsed":891119,"internal_node_id":"0.0-126.0","task_version":"battery-v0.2-trt","session":2},{"rune":"T","rune_set":"bacs2","hex":"#f73b6a7A","correct":32,"choice":-1,"rt":-1,"accuracy":0,"outcome":"-1","keys":[],"total_keys":0,"block":2,"trial":121,"stimulus":1,"robot":3,"valence":"lose","action":"go","sham":1,"trial_type":"pit-trial","trial_index":153,"time_elapsed":895123,"internal_node_id":"0.0-127.0","task_version":"battery-v0.2-trt","session":2},{"rune":"Q","rune_set":"bacs2","hex":"#f73b6a7A","correct":-1,"choice":32,"rt":707.6499999966472,"accuracy":0,"outcome":"-10","keys":[2207.7399999834597],"total_keys":1,"block":2,"trial":122,"stimulus":2,"robot":4,"valence":"lose","action":"no-go","sham":0,"trial_type":"pit-trial","trial_index":154,"time_elapsed":898535,"internal_node_id":"0.0-128.0","task_version":"battery-v0.2-trt","session":2},{"rune":"H","rune_set":"bacs2","hex":"#3366ff99","correct":-1,"choice":-1,"rt":-1,"accuracy":1,"outcome":"+1","keys":[],"total_keys":0,"block":2,"trial":123,"stimulus":3,"robot":2,"valence":"win","action":"no-go","sham":1,"trial_type":"pit-trial","trial_index":155,"time_elapsed":902540,"internal_node_id":"0.0-129.0","task_version":"battery-v0.2-trt","session":2},{"rune":"Y","rune_set":"bacs2","hex":"#3366ff99","correct":32,"choice":-1,"rt":-1,"accuracy":0,"outcome":"+1","keys":[],"total_keys":0,"block":2,"trial":124,"stimulus":0,"robot":1,"valence":"win","action":"go","sham":0,"trial_type":"pit-trial","trial_index":156,"time_elapsed":906560,"internal_node_id":"0.0-130.0","task_version":"battery-v0.2-trt","session":2},{"rune":"Y","rune_set":"bacs2","hex":"#3366ff99","correct":32,"choice":-1,"rt":-1,"accuracy":0,"outcome":"+10","keys":[2833.6499999277294],"total_keys":1,"block":2,"trial":125,"stimulus":0,"robot":1,"valence":"win","action":"go","sham":1,"trial_type":"pit-trial","trial_index":157,"time_elapsed":910566,"internal_node_id":"0.0-131.0","task_version":"battery-v0.2-trt","session":2},{"rune":"T","rune_set":"bacs2","hex":"#f73b6a7A","correct":32,"choice":-1,"rt":-1,"accuracy":0,"outcome":"-10","keys":[],"total_keys":0,"block":2,"trial":126,"stimulus":1,"robot":3,"valence":"lose","action":"go","sham":0,"trial_type":"pit-trial","trial_index":158,"time_elapsed":914572,"internal_node_id":"0.0-132.0","task_version":"battery-v0.2-trt","session":2},{"rune":"H","rune_set":"bacs2","hex":"#3366ff99","correct":-1,"choice":-1,"rt":-1,"accuracy":1,"outcome":"+10","keys":[],"total_keys":0,"block":2,"trial":127,"stimulus":3,"robot":2,"valence":"win","action":"no-go","sham":0,"trial_type":"pit-trial","trial_index":159,"time_elapsed":918577,"internal_node_id":"0.0-133.0","task_version":"battery-v0.2-trt","session":2},{"rune":"Q","rune_set":"bacs2","hex":"#f73b6a7A","correct":-1,"choice":-1,"rt":-1,"accuracy":1,"outcome":"-10","keys":[],"total_keys":0,"block":2,"trial":128,"stimulus":2,"robot":4,"valence":"lose","action":"no-go","sham":1,"trial_type":"pit-trial","trial_index":160,"time_elapsed":922588,"internal_node_id":"0.0-134.0","task_version":"battery-v0.2-trt","session":2},{"rune":"Q","rune_set":"bacs2","hex":"#f73b6a7A","correct":-1,"choice":32,"rt":520.6549998838454,"accuracy":0,"outcome":"-10","keys":[2020.6649999599904],"total_keys":1,"block":2,"trial":129,"stimulus":2,"robot":4,"valence":"lose","action":"no-go","sham":0,"trial_type":"pit-trial","trial_index":161,"time_elapsed":925828,"internal_node_id":"0.0-135.0","task_version":"battery-v0.2-trt","session":2},{"rune":"H","rune_set":"bacs2","hex":"#3366ff99","correct":-1,"choice":-1,"rt":-1,"accuracy":1,"outcome":"+10","keys":[],"total_keys":0,"block":2,"trial":130,"stimulus":3,"robot":2,"valence":"win","action":"no-go","sham":0,"trial_type":"pit-trial","trial_index":162,"time_elapsed":929833,"internal_node_id":"0.0-136.0","task_version":"battery-v0.2-trt","session":2},{"rune":"T","rune_set":"bacs2","hex":"#f73b6a7A","correct":32,"choice":-1,"rt":-1,"accuracy":0,"outcome":"-1","keys":[],"total_keys":0,"block":2,"trial":131,"stimulus":1,"robot":3,"valence":"lose","action":"go","sham":1,"trial_type":"pit-trial","trial_index":163,"time_elapsed":933837,"internal_node_id":"0.0-137.0","task_version":"battery-v0.2-trt","session":2},{"rune":"Y","rune_set":"bacs2","hex":"#3366ff99","correct":32,"choice":32,"rt":656.3500000629574,"accuracy":1,"outcome":"+10","keys":[2156.575000146404],"total_keys":1,"block":2,"trial":132,"stimulus":0,"robot":1,"valence":"win","action":"go","sham":0,"trial_type":"pit-trial","trial_index":164,"time_elapsed":937198,"internal_node_id":"0.0-138.0","task_version":"battery-v0.2-trt","session":2},{"rune":"H","rune_set":"bacs2","hex":"#3366ff99","correct":-1,"choice":-1,"rt":-1,"accuracy":1,"outcome":"+10","keys":[],"total_keys":0,"block":2,"trial":133,"stimulus":3,"robot":2,"valence":"win","action":"no-go","sham":0,"trial_type":"pit-trial","trial_index":165,"time_elapsed":941204,"internal_node_id":"0.0-139.0","task_version":"battery-v0.2-trt","session":2},{"rune":"T","rune_set":"bacs2","hex":"#f73b6a7A","correct":32,"choice":-1,"rt":-1,"accuracy":0,"outcome":"-10","keys":[],"total_keys":0,"block":2,"trial":134,"stimulus":1,"robot":3,"valence":"lose","action":"go","sham":0,"trial_type":"pit-trial","trial_index":166,"time_elapsed":945209,"internal_node_id":"0.0-140.0","task_version":"battery-v0.2-trt","session":2},{"rune":"Q","rune_set":"bacs2","hex":"#f73b6a7A","correct":-1,"choice":-1,"rt":-1,"accuracy":1,"outcome":"-10","keys":[],"total_keys":0,"block":2,"trial":135,"stimulus":2,"robot":4,"valence":"lose","action":"no-go","sham":1,"trial_type":"pit-trial","trial_index":167,"time_elapsed":949216,"internal_node_id":"0.0-141.0","task_version":"battery-v0.2-trt","session":2},{"rune":"Y","rune_set":"bacs2","hex":"#3366ff99","correct":32,"choice":32,"rt":706.6850000992417,"accuracy":1,"outcome":"+10","keys":[2207.924999995157],"total_keys":1,"block":2,"trial":136,"stimulus":0,"robot":1,"valence":"win","action":"go","sham":0,"trial_type":"pit-trial","trial_index":168,"time_elapsed":952629,"internal_node_id":"0.0-142.0","task_version":"battery-v0.2-trt","session":2},{"rune":"T","rune_set":"bacs2","hex":"#f73b6a7A","correct":32,"choice":32,"rt":742.5850001163781,"accuracy":1,"outcome":"-1","keys":[2243.144999956712],"total_keys":1,"block":2,"trial":137,"stimulus":1,"robot":3,"valence":"lose","action":"go","sham":0,"trial_type":"pit-trial","trial_index":169,"time_elapsed":956077,"internal_node_id":"0.0-143.0","task_version":"battery-v0.2-trt","session":2},{"rune":"H","rune_set":"bacs2","hex":"#3366ff99","correct":-1,"choice":32,"rt":613.0500000435859,"accuracy":0,"outcome":"+10","keys":[2113.7099999468774],"total_keys":1,"block":2,"trial":138,"stimulus":3,"robot":2,"valence":"win","action":"no-go","sham":1,"trial_type":"pit-trial","trial_index":170,"time_elapsed":959395,"internal_node_id":"0.0-144.0","task_version":"battery-v0.2-trt","session":2},{"rune":"Q","rune_set":"bacs2","hex":"#f73b6a7A","correct":-1,"choice":32,"rt":665.5749999918044,"accuracy":0,"outcome":"-1","keys":[2166.3349999580532],"total_keys":1,"block":2,"trial":139,"stimulus":2,"robot":4,"valence":"lose","action":"no-go","sham":1,"trial_type":"pit-trial","trial_index":171,"time_elapsed":962765,"internal_node_id":"0.0-145.0","task_version":"battery-v0.2-trt","session":2},{"rune":"Y","rune_set":"bacs2","hex":"#3366ff99","correct":32,"choice":32,"rt":619.0349999815226,"accuracy":1,"outcome":"+10","keys":[2120.1299999374896],"total_keys":1,"block":2,"trial":140,"stimulus":0,"robot":1,"valence":"win","action":"go","sham":0,"trial_type":"pit-trial","trial_index":172,"time_elapsed":966088,"internal_node_id":"0.0-146.0","task_version":"battery-v0.2-trt","session":2},{"rune":"H","rune_set":"bacs2","hex":"#3366ff99","correct":-1,"choice":-1,"rt":-1,"accuracy":1,"outcome":"+10","keys":[],"total_keys":0,"block":2,"trial":141,"stimulus":3,"robot":2,"valence":"win","action":"no-go","sham":0,"trial_type":"pit-trial","trial_index":173,"time_elapsed":970094,"internal_node_id":"0.0-147.0","task_version":"battery-v0.2-trt","session":2},{"rune":"Q","rune_set":"bacs2","hex":"#f73b6a7A","correct":-1,"choice":32,"rt":808.1999998539686,"accuracy":0,"outcome":"-10","keys":[2308.465000009164],"total_keys":1,"block":2,"trial":142,"stimulus":2,"robot":4,"valence":"lose","action":"no-go","sham":0,"trial_type":"pit-trial","trial_index":174,"time_elapsed":973607,"internal_node_id":"0.0-148.0","task_version":"battery-v0.2-trt","session":2},{"rune":"Y","rune_set":"bacs2","hex":"#3366ff99","correct":32,"choice":32,"rt":804.6000001486391,"accuracy":1,"outcome":"+1","keys":[2305.530000012368],"total_keys":1,"block":2,"trial":143,"stimulus":0,"robot":1,"valence":"win","action":"go","sham":1,"trial_type":"pit-trial","trial_index":175,"time_elapsed":977116,"internal_node_id":"0.0-149.0","task_version":"battery-v0.2-trt","session":2},{"rune":"T","rune_set":"bacs2","hex":"#f73b6a7A","correct":32,"choice":32,"rt":1267.7249999251217,"accuracy":1,"outcome":"-1","keys":[2768.665000097826],"total_keys":1,"block":2,"trial":144,"stimulus":1,"robot":3,"valence":"lose","action":"go","sham":0,"trial_type":"pit-trial","trial_index":176,"time_elapsed":981090,"internal_node_id":"0.0-150.0","task_version":"battery-v0.2-trt","session":2},{"rune":"Y","rune_set":"bacs2","hex":"#3366ff99","correct":32,"choice":32,"rt":620.2899999916553,"accuracy":1,"outcome":"+10","keys":[2120.6900000106543],"total_keys":1,"block":2,"trial":145,"stimulus":0,"robot":1,"valence":"win","action":"go","sham":0,"trial_type":"pit-trial","trial_index":177,"time_elapsed":984415,"internal_node_id":"0.0-151.0","task_version":"battery-v0.2-trt","session":2},{"rune":"T","rune_set":"bacs2","hex":"#f73b6a7A","correct":32,"choice":32,"rt":945.4950001090765,"accuracy":1,"outcome":"-1","keys":[2446.2850000709295],"total_keys":1,"block":2,"trial":146,"stimulus":1,"robot":3,"valence":"lose","action":"go","sham":0,"trial_type":"pit-trial","trial_index":178,"time_elapsed":988065,"internal_node_id":"0.0-152.0","task_version":"battery-v0.2-trt","session":2},{"rune":"H","rune_set":"bacs2","hex":"#3366ff99","correct":-1,"choice":-1,"rt":-1,"accuracy":1,"outcome":"+1","keys":[],"total_keys":0,"block":2,"trial":147,"stimulus":3,"robot":2,"valence":"win","action":"no-go","sham":1,"trial_type":"pit-trial","trial_index":179,"time_elapsed":992071,"internal_node_id":"0.0-153.0","task_version":"battery-v0.2-trt","session":2},{"rune":"Q","rune_set":"bacs2","hex":"#f73b6a7A","correct":-1,"choice":-1,"rt":-1,"accuracy":1,"outcome":"-1","keys":[],"total_keys":0,"block":2,"trial":148,"stimulus":2,"robot":4,"valence":"lose","action":"no-go","sham":0,"trial_type":"pit-trial","trial_index":180,"time_elapsed":996076,"internal_node_id":"0.0-154.0","task_version":"battery-v0.2-trt","session":2},{"rune":"T","rune_set":"bacs2","hex":"#f73b6a7A","correct":32,"choice":32,"rt":728.6000000312924,"accuracy":1,"outcome":"-10","keys":[2229.8200000077486],"total_keys":1,"block":2,"trial":149,"stimulus":1,"robot":3,"valence":"lose","action":"go","sham":1,"trial_type":"pit-trial","trial_index":181,"time_elapsed":999511,"internal_node_id":"0.0-155.0","task_version":"battery-v0.2-trt","session":2},{"rune":"Y","rune_set":"bacs2","hex":"#3366ff99","correct":32,"choice":-1,"rt":-1,"accuracy":0,"outcome":"+1","keys":[],"total_keys":0,"block":2,"trial":150,"stimulus":0,"robot":1,"valence":"win","action":"go","sham":0,"trial_type":"pit-trial","trial_index":182,"time_elapsed":1003519,"internal_node_id":"0.0-156.0","task_version":"battery-v0.2-trt","session":2},{"rune":"Q","rune_set":"bacs2","hex":"#f73b6a7A","correct":-1,"choice":32,"rt":1003.4600000362843,"accuracy":0,"outcome":"-10","keys":[2503.89500008896],"total_keys":1,"block":2,"trial":151,"stimulus":2,"robot":4,"valence":"lose","action":"no-go","sham":0,"trial_type":"pit-trial","trial_index":183,"time_elapsed":1007228,"internal_node_id":"0.0-157.0","task_version":"battery-v0.2-trt","session":2},{"rune":"H","rune_set":"bacs2","hex":"#3366ff99","correct":-1,"choice":-1,"rt":-1,"accuracy":1,"outcome":"+1","keys":[],"total_keys":0,"block":2,"trial":152,"stimulus":3,"robot":2,"valence":"win","action":"no-go","sham":1,"trial_type":"pit-trial","trial_index":184,"time_elapsed":1011234,"internal_node_id":"0.0-158.0","task_version":"battery-v0.2-trt","session":2},{"rune":"Y","rune_set":"bacs2","hex":"#3366ff99","correct":32,"choice":32,"rt":653.3899998757988,"accuracy":1,"outcome":"+10","keys":[2153.5300000105053],"total_keys":1,"block":2,"trial":153,"stimulus":0,"robot":1,"valence":"win","action":"go","sham":0,"trial_type":"pit-trial","trial_index":185,"time_elapsed":1014593,"internal_node_id":"0.0-159.0","task_version":"battery-v0.2-trt","session":2},{"rune":"T","rune_set":"bacs2","hex":"#f73b6a7A","correct":32,"choice":32,"rt":707.9050000756979,"accuracy":1,"outcome":"-1","keys":[2208.885000087321],"total_keys":1,"block":2,"trial":154,"stimulus":1,"robot":3,"valence":"lose","action":"go","sham":0,"trial_type":"pit-trial","trial_index":186,"time_elapsed":1018007,"internal_node_id":"0.0-160.0","task_version":"battery-v0.2-trt","session":2},{"rune":"E","rune_set":"bacs2","hex":"#f73b6a7A","correct":-1,"choice":-1,"rt":-1,"accuracy":1,"outcome":"-1","keys":[],"total_keys":0,"block":2,"trial":155,"stimulus":4,"robot":4,"valence":"lose","action":"no-go","sham":0,"trial_type":"pit-trial","trial_index":187,"time_elapsed":1022011,"internal_node_id":"0.0-161.0","task_version":"battery-v0.2-trt","session":2},{"rune":"H","rune_set":"bacs2","hex":"#3366ff99","correct":-1,"choice":32,"rt":883.689999813214,"accuracy":0,"outcome":"+1","keys":[2384.2150000855327],"total_keys":1,"block":2,"trial":156,"stimulus":3,"robot":2,"valence":"win","action":"no-go","sham":0,"trial_type":"pit-trial","trial_index":188,"time_elapsed":1025600,"internal_node_id":"0.0-162.0","task_version":"battery-v0.2-trt","session":2},{"rune":"Y","rune_set":"bacs2","hex":"#3366ff99","correct":32,"choice":32,"rt":654.999999795109,"accuracy":1,"outcome":"+10","keys":[2155.1350001245737],"total_keys":1,"block":2,"trial":157,"stimulus":0,"robot":1,"valence":"win","action":"go","sham":0,"trial_type":"pit-trial","trial_index":189,"time_elapsed":1028958,"internal_node_id":"0.0-163.0","task_version":"battery-v0.2-trt","session":2},{"rune":"T","rune_set":"bacs2","hex":"#f73b6a7A","correct":32,"choice":32,"rt":495.5949999857694,"accuracy":1,"outcome":"-1","keys":[1996.0900000296533],"total_keys":1,"block":2,"trial":158,"stimulus":1,"robot":3,"valence":"lose","action":"go","sham":0,"trial_type":"pit-trial","trial_index":190,"time_elapsed":1032158,"internal_node_id":"0.0-164.0","task_version":"battery-v0.2-trt","session":2},{"rune":"E","rune_set":"bacs2","hex":"#f73b6a7A","correct":-1,"choice":-1,"rt":-1,"accuracy":1,"outcome":"-1","keys":[],"total_keys":0,"block":2,"trial":159,"stimulus":4,"robot":4,"valence":"lose","action":"no-go","sham":0,"trial_type":"pit-trial","trial_index":191,"time_elapsed":1036164,"internal_node_id":"0.0-165.0","task_version":"battery-v0.2-trt","session":2},{"rune":"H","rune_set":"bacs2","hex":"#3366ff99","correct":-1,"choice":-1,"rt":-1,"accuracy":1,"outcome":"+10","keys":[],"total_keys":0,"block":2,"trial":160,"stimulus":3,"robot":2,"valence":"win","action":"no-go","sham":0,"trial_type":"pit-trial","trial_index":192,"time_elapsed":1040170,"internal_node_id":"0.0-166.0","task_version":"battery-v0.2-trt","session":2},{"rune":"Y","rune_set":"bacs2","hex":"#3366ff99","correct":32,"choice":32,"rt":858.4549999795854,"accuracy":1,"outcome":"+10","keys":[2359.45999994874],"total_keys":1,"block":2,"trial":161,"stimulus":0,"robot":1,"valence":"win","action":"go","sham":0,"trial_type":"pit-trial","trial_index":193,"time_elapsed":1043734,"internal_node_id":"0.0-167.0","task_version":"battery-v0.2-trt","session":2},{"rune":"C","rune_set":"bacs2","hex":"#f73b6a7A","correct":32,"choice":-1,"rt":-1,"accuracy":0,"outcome":"-10","keys":[],"total_keys":0,"block":2,"trial":162,"stimulus":5,"robot":3,"valence":"lose","action":"go","sham":0,"trial_type":"pit-trial","trial_index":194,"time_elapsed":1047737,"internal_node_id":"0.0-168.0","task_version":"battery-v0.2-trt","session":2},{"rune":"H","rune_set":"bacs2","hex":"#3366ff99","correct":-1,"choice":-1,"rt":-1,"accuracy":1,"outcome":"+10","keys":[],"total_keys":0,"block":2,"trial":163,"stimulus":3,"robot":2,"valence":"win","action":"no-go","sham":0,"trial_type":"pit-trial","trial_index":195,"time_elapsed":1051742,"internal_node_id":"0.0-169.0","task_version":"battery-v0.2-trt","session":2},{"rune":"E","rune_set":"bacs2","hex":"#f73b6a7A","correct":-1,"choice":-1,"rt":-1,"accuracy":1,"outcome":"-1","keys":[],"total_keys":0,"block":2,"trial":164,"stimulus":4,"robot":4,"valence":"lose","action":"no-go","sham":0,"trial_type":"pit-trial","trial_index":196,"time_elapsed":1055749,"internal_node_id":"0.0-170.0","task_version":"battery-v0.2-trt","session":2},{"rune":"E","rune_set":"bacs2","hex":"#f73b6a7A","correct":-1,"choice":-1,"rt":-1,"accuracy":1,"outcome":"-1","keys":[],"total_keys":0,"block":2,"trial":165,"stimulus":4,"robot":4,"valence":"lose","action":"no-go","sham":0,"trial_type":"pit-trial","trial_index":197,"time_elapsed":1059754,"internal_node_id":"0.0-171.0","task_version":"battery-v0.2-trt","session":2},{"rune":"H","rune_set":"bacs2","hex":"#3366ff99","correct":-1,"choice":-1,"rt":-1,"accuracy":1,"outcome":"+10","keys":[],"total_keys":0,"block":2,"trial":166,"stimulus":3,"robot":2,"valence":"win","action":"no-go","sham":0,"trial_type":"pit-trial","trial_index":198,"time_elapsed":1063761,"internal_node_id":"0.0-172.0","task_version":"battery-v0.2-trt","session":2},{"rune":"C","rune_set":"bacs2","hex":"#f73b6a7A","correct":32,"choice":32,"rt":589.4850001204759,"accuracy":1,"outcome":"-1","keys":[2090.4350001364946],"total_keys":1,"block":2,"trial":167,"stimulus":5,"robot":3,"valence":"lose","action":"go","sham":0,"trial_type":"pit-trial","trial_index":199,"time_elapsed":1067056,"internal_node_id":"0.0-173.0","task_version":"battery-v0.2-trt","session":2},{"rune":"Y","rune_set":"bacs2","hex":"#3366ff99","correct":32,"choice":32,"rt":955.4449999704957,"accuracy":1,"outcome":"+10","keys":[2456.4799999352545],"total_keys":1,"block":2,"trial":168,"stimulus":0,"robot":1,"valence":"win","action":"go","sham":0,"trial_type":"pit-trial","trial_index":200,"time_elapsed":1070717,"internal_node_id":"0.0-174.0","task_version":"battery-v0.2-trt","session":2},{"rune":"G","rune_set":"bacs2","hex":"#3366ff99","correct":-1,"choice":-1,"rt":-1,"accuracy":1,"outcome":"+10","keys":[],"total_keys":0,"block":2,"trial":169,"stimulus":7,"robot":2,"valence":"win","action":"no-go","sham":0,"trial_type":"pit-trial","trial_index":201,"time_elapsed":1074721,"internal_node_id":"0.0-175.0","task_version":"battery-v0.2-trt","session":2},{"rune":"O","rune_set":"bacs2","hex":"#3366ff99","correct":-1,"choice":-1,"rt":-1,"accuracy":1,"outcome":"+10","keys":[],"total_keys":0,"block":2,"trial":170,"stimulus":6,"robot":2,"valence":"win","action":"no-go","sham":0,"trial_type":"pit-trial","trial_index":202,"time_elapsed":1078726,"internal_node_id":"0.0-176.0","task_version":"battery-v0.2-trt","session":2},{"rune":"C","rune_set":"bacs2","hex":"#f73b6a7A","correct":32,"choice":32,"rt":694.4399999920279,"accuracy":1,"outcome":"-1","keys":[2194.704999914393],"total_keys":1,"block":2,"trial":171,"stimulus":5,"robot":3,"valence":"lose","action":"go","sham":0,"trial_type":"pit-trial","trial_index":203,"time_elapsed":1082126,"internal_node_id":"0.0-177.0","task_version":"battery-v0.2-trt","session":2},{"rune":"E","rune_set":"bacs2","hex":"#f73b6a7A","correct":-1,"choice":-1,"rt":-1,"accuracy":1,"outcome":"-1","keys":[],"total_keys":0,"block":2,"trial":172,"stimulus":4,"robot":4,"valence":"lose","action":"no-go","sham":0,"trial_type":"pit-trial","trial_index":204,"time_elapsed":1086132,"internal_node_id":"0.0-178.0","task_version":"battery-v0.2-trt","session":2},{"rune":"E","rune_set":"bacs2","hex":"#f73b6a7A","correct":-1,"choice":-1,"rt":-1,"accuracy":1,"outcome":"-1","keys":[],"total_keys":0,"block":2,"trial":173,"stimulus":4,"robot":4,"valence":"lose","action":"no-go","sham":0,"trial_type":"pit-trial","trial_index":205,"time_elapsed":1090138,"internal_node_id":"0.0-179.0","task_version":"battery-v0.2-trt","session":2},{"rune":"O","rune_set":"bacs2","hex":"#3366ff99","correct":-1,"choice":-1,"rt":-1,"accuracy":1,"outcome":"+10","keys":[],"total_keys":0,"block":2,"trial":174,"stimulus":6,"robot":2,"valence":"win","action":"no-go","sham":0,"trial_type":"pit-trial","trial_index":206,"time_elapsed":1094143,"internal_node_id":"0.0-180.0","task_version":"battery-v0.2-trt","session":2},{"rune":"C","rune_set":"bacs2","hex":"#f73b6a7A","correct":32,"choice":32,"rt":577.409999910742,"accuracy":1,"outcome":"-1","keys":[2077.619999879971],"total_keys":1,"block":2,"trial":175,"stimulus":5,"robot":3,"valence":"lose","action":"go","sham":0,"trial_type":"pit-trial","trial_index":207,"time_elapsed":1097425,"internal_node_id":"0.0-181.0","task_version":"battery-v0.2-trt","session":2},{"rune":"G","rune_set":"bacs2","hex":"#3366ff99","correct":-1,"choice":-1,"rt":-1,"accuracy":1,"outcome":"+1","keys":[],"total_keys":0,"block":2,"trial":176,"stimulus":7,"robot":2,"valence":"win","action":"no-go","sham":1,"trial_type":"pit-trial","trial_index":208,"time_elapsed":1101429,"internal_node_id":"0.0-182.0","task_version":"battery-v0.2-trt","session":2},{"rune":"O","rune_set":"bacs2","hex":"#3366ff99","correct":-1,"choice":-1,"rt":-1,"accuracy":1,"outcome":"+10","keys":[],"total_keys":0,"block":2,"trial":177,"stimulus":6,"robot":2,"valence":"win","action":"no-go","sham":0,"trial_type":"pit-trial","trial_index":209,"time_elapsed":1105435,"internal_node_id":"0.0-183.0","task_version":"battery-v0.2-trt","session":2},{"rune":"E","rune_set":"bacs2","hex":"#f73b6a7A","correct":-1,"choice":-1,"rt":-1,"accuracy":1,"outcome":"-1","keys":[],"total_keys":0,"block":2,"trial":178,"stimulus":4,"robot":4,"valence":"lose","action":"no-go","sham":0,"trial_type":"pit-trial","trial_index":210,"time_elapsed":1109440,"internal_node_id":"0.0-184.0","task_version":"battery-v0.2-trt","session":2},{"rune":"G","rune_set":"bacs2","hex":"#3366ff99","correct":-1,"choice":32,"rt":615.419999929145,"accuracy":0,"outcome":"+1","keys":[2115.8200001809746],"total_keys":1,"block":2,"trial":179,"stimulus":7,"robot":2,"valence":"win","action":"no-go","sham":0,"trial_type":"pit-trial","trial_index":211,"time_elapsed":1112760,"internal_node_id":"0.0-185.0","task_version":"battery-v0.2-trt","session":2},{"rune":"C","rune_set":"bacs2","hex":"#f73b6a7A","correct":32,"choice":32,"rt":748.6799999605864,"accuracy":1,"outcome":"-1","keys":[2249.654999934137],"total_keys":1,"block":2,"trial":180,"stimulus":5,"robot":3,"valence":"lose","action":"go","sham":0,"trial_type":"pit-trial","trial_index":212,"time_elapsed":1116215,"internal_node_id":"0.0-186.0","task_version":"battery-v0.2-trt","session":2},{"rune":"E","rune_set":"bacs2","hex":"#f73b6a7A","correct":-1,"choice":-1,"rt":-1,"accuracy":1,"outcome":"-1","keys":[],"total_keys":0,"block":2,"trial":181,"stimulus":4,"robot":4,"valence":"lose","action":"no-go","sham":0,"trial_type":"pit-trial","trial_index":213,"time_elapsed":1120221,"internal_node_id":"0.0-187.0","task_version":"battery-v0.2-trt","session":2},{"rune":"C","rune_set":"bacs2","hex":"#f73b6a7A","correct":32,"choice":32,"rt":616.1299999803305,"accuracy":1,"outcome":"-1","keys":[2117.1350001823157],"total_keys":1,"block":2,"trial":182,"stimulus":5,"robot":3,"valence":"lose","action":"go","sham":0,"trial_type":"pit-trial","trial_index":214,"time_elapsed":1123542,"internal_node_id":"0.0-188.0","task_version":"battery-v0.2-trt","session":2},{"rune":"G","rune_set":"bacs2","hex":"#3366ff99","correct":-1,"choice":-1,"rt":-1,"accuracy":1,"outcome":"+10","keys":[],"total_keys":0,"block":2,"trial":183,"stimulus":7,"robot":2,"valence":"win","action":"no-go","sham":0,"trial_type":"pit-trial","trial_index":215,"time_elapsed":1127547,"internal_node_id":"0.0-189.0","task_version":"battery-v0.2-trt","session":2},{"rune":"O","rune_set":"bacs2","hex":"#3366ff99","correct":-1,"choice":-1,"rt":-1,"accuracy":1,"outcome":"+10","keys":[],"total_keys":0,"block":2,"trial":184,"stimulus":6,"robot":2,"valence":"win","action":"no-go","sham":0,"trial_type":"pit-trial","trial_index":216,"time_elapsed":1131554,"internal_node_id":"0.0-190.0","task_version":"battery-v0.2-trt","session":2},{"rune":"G","rune_set":"bacs2","hex":"#3366ff99","correct":-1,"choice":-1,"rt":-1,"accuracy":1,"outcome":"+1","keys":[],"total_keys":0,"block":2,"trial":185,"stimulus":7,"robot":2,"valence":"win","action":"no-go","sham":1,"trial_type":"pit-trial","trial_index":217,"time_elapsed":1135569,"internal_node_id":"0.0-191.0","task_version":"battery-v0.2-trt","session":2},{"rune":"O","rune_set":"bacs2","hex":"#3366ff99","correct":-1,"choice":-1,"rt":-1,"accuracy":1,"outcome":"+10","keys":[],"total_keys":0,"block":2,"trial":186,"stimulus":6,"robot":2,"valence":"win","action":"no-go","sham":0,"trial_type":"pit-trial","trial_index":218,"time_elapsed":1139574,"internal_node_id":"0.0-192.0","task_version":"battery-v0.2-trt","session":2},{"rune":"E","rune_set":"bacs2","hex":"#f73b6a7A","correct":-1,"choice":-1,"rt":-1,"accuracy":1,"outcome":"-1","keys":[],"total_keys":0,"block":2,"trial":187,"stimulus":4,"robot":4,"valence":"lose","action":"no-go","sham":0,"trial_type":"pit-trial","trial_index":219,"time_elapsed":1143579,"internal_node_id":"0.0-193.0","task_version":"battery-v0.2-trt","session":2},{"rune":"C","rune_set":"bacs2","hex":"#f73b6a7A","correct":32,"choice":32,"rt":658.7300000246614,"accuracy":1,"outcome":"-1","keys":[2158.8950001168996],"total_keys":1,"block":2,"trial":188,"stimulus":5,"robot":3,"valence":"lose","action":"go","sham":0,"trial_type":"pit-trial","trial_index":220,"time_elapsed":1146944,"internal_node_id":"0.0-194.0","task_version":"battery-v0.2-trt","session":2},{"rune":"G","rune_set":"bacs2","hex":"#3366ff99","correct":-1,"choice":32,"rt":608.7299999780953,"accuracy":0,"outcome":"+1","keys":[2110.6950000394136],"total_keys":1,"block":2,"trial":189,"stimulus":7,"robot":2,"valence":"win","action":"no-go","sham":0,"trial_type":"pit-trial","trial_index":221,"time_elapsed":1150259,"internal_node_id":"0.0-195.0","task_version":"battery-v0.2-trt","session":2},{"rune":"C","rune_set":"bacs2","hex":"#f73b6a7A","correct":32,"choice":32,"rt":583.2699998281896,"accuracy":1,"outcome":"-1","keys":[2083.949999883771],"total_keys":1,"block":2,"trial":190,"stimulus":5,"robot":3,"valence":"lose","action":"go","sham":0,"trial_type":"pit-trial","trial_index":222,"time_elapsed":1153547,"internal_node_id":"0.0-196.0","task_version":"battery-v0.2-trt","session":2},{"rune":"E","rune_set":"bacs2","hex":"#f73b6a7A","correct":-1,"choice":-1,"rt":-1,"accuracy":1,"outcome":"-1","keys":[],"total_keys":0,"block":2,"trial":191,"stimulus":4,"robot":4,"valence":"lose","action":"no-go","sham":0,"trial_type":"pit-trial","trial_index":223,"time_elapsed":1157551,"internal_node_id":"0.0-197.0","task_version":"battery-v0.2-trt","session":2},{"rune":"O","rune_set":"bacs2","hex":"#3366ff99","correct":-1,"choice":-1,"rt":-1,"accuracy":1,"outcome":"+10","keys":[],"total_keys":0,"block":2,"trial":192,"stimulus":6,"robot":2,"valence":"win","action":"no-go","sham":0,"trial_type":"pit-trial","trial_index":224,"time_elapsed":1161558,"internal_node_id":"0.0-198.0","task_version":"battery-v0.2-trt","session":2},{"rune":"O","rune_set":"bacs2","hex":"#3366ff99","correct":-1,"choice":-1,"rt":-1,"accuracy":1,"outcome":"+10","keys":[],"total_keys":0,"block":2,"trial":193,"stimulus":6,"robot":2,"valence":"win","action":"no-go","sham":0,"trial_type":"pit-trial","trial_index":225,"time_elapsed":1165563,"internal_node_id":"0.0-199.0","task_version":"battery-v0.2-trt","session":2},{"rune":"C","rune_set":"bacs2","hex":"#f73b6a7A","correct":32,"choice":32,"rt":645.7350000273436,"accuracy":1,"outcome":"-1","keys":[2146.74499980174],"total_keys":1,"block":2,"trial":194,"stimulus":5,"robot":3,"valence":"lose","action":"go","sham":0,"trial_type":"pit-trial","trial_index":226,"time_elapsed":1168914,"internal_node_id":"0.0-200.0","task_version":"battery-v0.2-trt","session":2},{"rune":"G","rune_set":"bacs2","hex":"#3366ff99","correct":-1,"choice":-1,"rt":-1,"accuracy":1,"outcome":"+10","keys":[],"total_keys":0,"block":2,"trial":195,"stimulus":7,"robot":2,"valence":"win","action":"no-go","sham":0,"trial_type":"pit-trial","trial_index":227,"time_elapsed":1172920,"internal_node_id":"0.0-201.0","task_version":"battery-v0.2-trt","session":2},{"rune":"E","rune_set":"bacs2","hex":"#f73b6a7A","correct":-1,"choice":-1,"rt":-1,"accuracy":1,"outcome":"-1","keys":[],"total_keys":0,"block":2,"trial":196,"stimulus":4,"robot":4,"valence":"lose","action":"no-go","sham":0,"trial_type":"pit-trial","trial_index":228,"time_elapsed":1176926,"internal_node_id":"0.0-202.0","task_version":"battery-v0.2-trt","session":2},{"rune":"C","rune_set":"bacs2","hex":"#f73b6a7A","correct":32,"choice":32,"rt":597.4099999293685,"accuracy":1,"outcome":"-1","keys":[2097.489999840036],"total_keys":1,"block":2,"trial":197,"stimulus":5,"robot":3,"valence":"lose","action":"go","sham":0,"trial_type":"pit-trial","trial_index":229,"time_elapsed":1180226,"internal_node_id":"0.0-203.0","task_version":"battery-v0.2-trt","session":2},{"rune":"G","rune_set":"bacs2","hex":"#3366ff99","correct":-1,"choice":-1,"rt":-1,"accuracy":1,"outcome":"+10","keys":[],"total_keys":0,"block":2,"trial":198,"stimulus":7,"robot":2,"valence":"win","action":"no-go","sham":0,"trial_type":"pit-trial","trial_index":230,"time_elapsed":1184230,"internal_node_id":"0.0-204.0","task_version":"battery-v0.2-trt","session":2},{"rune":"O","rune_set":"bacs2","hex":"#3366ff99","correct":-1,"choice":-1,"rt":-1,"accuracy":1,"outcome":"+10","keys":[],"total_keys":0,"block":2,"trial":199,"stimulus":6,"robot":2,"valence":"win","action":"no-go","sham":0,"trial_type":"pit-trial","trial_index":231,"time_elapsed":1188235,"internal_node_id":"0.0-205.0","task_version":"battery-v0.2-trt","session":2},{"rune":"E","rune_set":"bacs2","hex":"#f73b6a7A","correct":-1,"choice":-1,"rt":-1,"accuracy":1,"outcome":"-1","keys":[],"total_keys":0,"block":2,"trial":200,"stimulus":4,"robot":4,"valence":"lose","action":"no-go","sham":0,"trial_type":"pit-trial","trial_index":232,"time_elapsed":1192241,"internal_node_id":"0.0-206.0","task_version":"battery-v0.2-trt","session":2},{"rune":"G","rune_set":"bacs2","hex":"#3366ff99","correct":-1,"choice":-1,"rt":-1,"accuracy":1,"outcome":"+10","keys":[],"total_keys":0,"block":2,"trial":201,"stimulus":7,"robot":2,"valence":"win","action":"no-go","sham":0,"trial_type":"pit-trial","trial_index":233,"time_elapsed":1196247,"internal_node_id":"0.0-207.0","task_version":"battery-v0.2-trt","session":2},{"rune":"Z","rune_set":"bacs2","hex":"#3366ff99","correct":32,"choice":-1,"rt":-1,"accuracy":0,"outcome":"+10","keys":[],"total_keys":0,"block":2,"trial":202,"stimulus":8,"robot":1,"valence":"win","action":"go","sham":1,"trial_type":"pit-trial","trial_index":234,"time_elapsed":1200254,"internal_node_id":"0.0-208.0","task_version":"battery-v0.2-trt","session":2},{"rune":"C","rune_set":"bacs2","hex":"#f73b6a7A","correct":32,"choice":32,"rt":604.1949999053031,"accuracy":1,"outcome":"-10","keys":[2104.7799999359995],"total_keys":1,"block":2,"trial":203,"stimulus":5,"robot":3,"valence":"lose","action":"go","sham":1,"trial_type":"pit-trial","trial_index":235,"time_elapsed":1203564,"internal_node_id":"0.0-209.0","task_version":"battery-v0.2-trt","session":2},{"rune":"X","rune_set":"bacs2","hex":"#f73b6a7A","correct":-1,"choice":-1,"rt":-1,"accuracy":1,"outcome":"-1","keys":[],"total_keys":0,"block":2,"trial":204,"stimulus":9,"robot":4,"valence":"lose","action":"no-go","sham":0,"trial_type":"pit-trial","trial_index":236,"time_elapsed":1207568,"internal_node_id":"0.0-210.0","task_version":"battery-v0.2-trt","session":2},{"rune":"Z","rune_set":"bacs2","hex":"#3366ff99","correct":32,"choice":-1,"rt":-1,"accuracy":0,"outcome":"+10","keys":[],"total_keys":0,"block":2,"trial":205,"stimulus":8,"robot":1,"valence":"win","action":"go","sham":1,"trial_type":"pit-trial","trial_index":237,"time_elapsed":1211574,"internal_node_id":"0.0-211.0","task_version":"battery-v0.2-trt","session":2},{"rune":"X","rune_set":"bacs2","hex":"#f73b6a7A","correct":-1,"choice":-1,"rt":-1,"accuracy":1,"outcome":"-10","keys":[],"total_keys":0,"block":2,"trial":206,"stimulus":9,"robot":4,"valence":"lose","action":"no-go","sham":1,"trial_type":"pit-trial","trial_index":238,"time_elapsed":1215579,"internal_node_id":"0.0-212.0","task_version":"battery-v0.2-trt","session":2},{"rune":"G","rune_set":"bacs2","hex":"#3366ff99","correct":-1,"choice":-1,"rt":-1,"accuracy":1,"outcome":"+10","keys":[],"total_keys":0,"block":2,"trial":207,"stimulus":7,"robot":2,"valence":"win","action":"no-go","sham":0,"trial_type":"pit-trial","trial_index":239,"time_elapsed":1219584,"internal_node_id":"0.0-213.0","task_version":"battery-v0.2-trt","session":2},{"rune":"C","rune_set":"bacs2","hex":"#f73b6a7A","correct":32,"choice":32,"rt":790.8999999053776,"accuracy":1,"outcome":"-1","keys":[2291.3200000766665],"total_keys":1,"block":2,"trial":208,"stimulus":5,"robot":3,"valence":"lose","action":"go","sham":0,"trial_type":"pit-trial","trial_index":240,"time_elapsed":1223080,"internal_node_id":"0.0-214.0","task_version":"battery-v0.2-trt","session":2},{"rune":"Z","rune_set":"bacs2","hex":"#3366ff99","correct":32,"choice":-1,"rt":-1,"accuracy":0,"outcome":"+1","keys":[],"total_keys":0,"block":2,"trial":209,"stimulus":8,"robot":1,"valence":"win","action":"go","sham":0,"trial_type":"pit-trial","trial_index":241,"time_elapsed":1227085,"internal_node_id":"0.0-215.0","task_version":"battery-v0.2-trt","session":2},{"rune":"W","rune_set":"bacs2","hex":"#f73b6a7A","correct":32,"choice":-1,"rt":-1,"accuracy":0,"outcome":"-10","keys":[],"total_keys":0,"block":2,"trial":210,"stimulus":10,"robot":3,"valence":"lose","action":"go","sham":0,"trial_type":"pit-trial","trial_index":242,"time_elapsed":1231091,"internal_node_id":"0.0-216.0","task_version":"battery-v0.2-trt","session":2},{"rune":"J","rune_set":"bacs2","hex":"#3366ff99","correct":32,"choice":-1,"rt":-1,"accuracy":0,"outcome":"+1","keys":[],"total_keys":0,"block":2,"trial":211,"stimulus":11,"robot":1,"valence":"win","action":"go","sham":0,"trial_type":"pit-trial","trial_index":243,"time_elapsed":1235097,"internal_node_id":"0.0-217.0","task_version":"battery-v0.2-trt","session":2},{"rune":"X","rune_set":"bacs2","hex":"#f73b6a7A","correct":-1,"choice":32,"rt":851.52000002563,"accuracy":0,"outcome":"-10","keys":[2352.0700000226498],"total_keys":1,"block":2,"trial":212,"stimulus":9,"robot":4,"valence":"lose","action":"no-go","sham":0,"trial_type":"pit-trial","trial_index":244,"time_elapsed":1238653,"internal_node_id":"0.0-218.0","task_version":"battery-v0.2-trt","session":2},{"rune":"X","rune_set":"bacs2","hex":"#f73b6a7A","correct":-1,"choice":-1,"rt":-1,"accuracy":1,"outcome":"-1","keys":[],"total_keys":0,"block":2,"trial":213,"stimulus":9,"robot":4,"valence":"lose","action":"no-go","sham":0,"trial_type":"pit-trial","trial_index":245,"time_elapsed":1242658,"internal_node_id":"0.0-219.0","task_version":"battery-v0.2-trt","session":2},{"rune":"W","rune_set":"bacs2","hex":"#f73b6a7A","correct":32,"choice":32,"rt":962.6499998848885,"accuracy":1,"outcome":"-1","keys":[2463.8900000136346],"total_keys":1,"block":2,"trial":214,"stimulus":10,"robot":3,"valence":"lose","action":"go","sham":0,"trial_type":"pit-trial","trial_index":246,"time_elapsed":1246326,"internal_node_id":"0.0-220.0","task_version":"battery-v0.2-trt","session":2},{"rune":"Z","rune_set":"bacs2","hex":"#3366ff99","correct":32,"choice":-1,"rt":-1,"accuracy":0,"outcome":"+10","keys":[2802.170000039041],"total_keys":1,"block":2,"trial":215,"stimulus":8,"robot":1,"valence":"win","action":"go","sham":1,"trial_type":"pit-trial","trial_index":247,"time_elapsed":1250332,"internal_node_id":"0.0-221.0","task_version":"battery-v0.2-trt","session":2},{"rune":"J","rune_set":"bacs2","hex":"#3366ff99","correct":32,"choice":32,"rt":904.5450000558048,"accuracy":1,"outcome":"+10","keys":[2404.7799999825656],"total_keys":1,"block":2,"trial":216,"stimulus":11,"robot":1,"valence":"win","action":"go","sham":0,"trial_type":"pit-trial","trial_index":248,"time_elapsed":1253941,"internal_node_id":"0.0-222.0","task_version":"battery-v0.2-trt","session":2},{"rune":"J","rune_set":"bacs2","hex":"#3366ff99","correct":32,"choice":32,"rt":520.7899999804795,"accuracy":1,"outcome":"+10","keys":[2021.9399998895824],"total_keys":1,"block":2,"trial":217,"stimulus":11,"robot":1,"valence":"win","action":"go","sham":0,"trial_type":"pit-trial","trial_index":249,"time_elapsed":1257168,"internal_node_id":"0.0-223.0","task_version":"battery-v0.2-trt","session":2},{"rune":"Z","rune_set":"bacs2","hex":"#3366ff99","correct":32,"choice":32,"rt":990.0149998720735,"accuracy":1,"outcome":"+10","keys":[2491.4200000930578],"total_keys":1,"block":2,"trial":218,"stimulus":8,"robot":1,"valence":"win","action":"go","sham":0,"trial_type":"pit-trial","trial_index":250,"time_elapsed":1260864,"internal_node_id":"0.0-224.0","task_version":"battery-v0.2-trt","session":2},{"rune":"W","rune_set":"bacs2","hex":"#f73b6a7A","correct":32,"choice":32,"rt":524.0400000475347,"accuracy":1,"outcome":"-1","keys":[2024.6400001924485],"total_keys":1,"block":2,"trial":219,"stimulus":10,"robot":3,"valence":"lose","action":"go","sham":0,"trial_type":"pit-trial","trial_index":251,"time_elapsed":1264094,"internal_node_id":"0.0-225.0","task_version":"battery-v0.2-trt","session":2},{"rune":"X","rune_set":"bacs2","hex":"#f73b6a7A","correct":-1,"choice":32,"rt":664.494999917224,"accuracy":0,"outcome":"-10","keys":[2164.630000013858],"total_keys":1,"block":2,"trial":220,"stimulus":9,"robot":4,"valence":"lose","action":"no-go","sham":0,"trial_type":"pit-trial","trial_index":252,"time_elapsed":1267463,"internal_node_id":"0.0-226.0","task_version":"battery-v0.2-trt","session":2},{"rune":"J","rune_set":"bacs2","hex":"#3366ff99","correct":32,"choice":32,"rt":710.0799998734146,"accuracy":1,"outcome":"+1","keys":[2210.9349998645484],"total_keys":1,"block":2,"trial":221,"stimulus":11,"robot":1,"valence":"win","action":"go","sham":1,"trial_type":"pit-trial","trial_index":253,"time_elapsed":1270878,"internal_node_id":"0.0-227.0","task_version":"battery-v0.2-trt","session":2},{"rune":"W","rune_set":"bacs2","hex":"#f73b6a7A","correct":32,"choice":32,"rt":687.6999998930842,"accuracy":1,"outcome":"-1","keys":[2188.774999929592],"total_keys":1,"block":2,"trial":222,"stimulus":10,"robot":3,"valence":"lose","action":"go","sham":0,"trial_type":"pit-trial","trial_index":254,"time_elapsed":1274272,"internal_node_id":"0.0-228.0","task_version":"battery-v0.2-trt","session":2},{"rune":"Z","rune_set":"bacs2","hex":"#3366ff99","correct":32,"choice":32,"rt":736.5749999880791,"accuracy":1,"outcome":"+10","keys":[2237.554999999702],"total_keys":1,"block":2,"trial":223,"stimulus":8,"robot":1,"valence":"win","action":"go","sham":0,"trial_type":"pit-trial","trial_index":255,"time_elapsed":1277714,"internal_node_id":"0.0-229.0","task_version":"battery-v0.2-trt","session":2},{"rune":"X","rune_set":"bacs2","hex":"#f73b6a7A","correct":-1,"choice":-1,"rt":-1,"accuracy":1,"outcome":"-1","keys":[2805.4949999786913],"total_keys":1,"block":2,"trial":224,"stimulus":9,"robot":4,"valence":"lose","action":"no-go","sham":0,"trial_type":"pit-trial","trial_index":256,"time_elapsed":1281720,"internal_node_id":"0.0-230.0","task_version":"battery-v0.2-trt","session":2},{"rune":"J","rune_set":"bacs2","hex":"#3366ff99","correct":32,"choice":32,"rt":769.5750000420958,"accuracy":1,"outcome":"+10","keys":[2269.9599999468774],"total_keys":1,"block":2,"trial":225,"stimulus":11,"robot":1,"valence":"win","action":"go","sham":0,"trial_type":"pit-trial","trial_index":257,"time_elapsed":1285194,"internal_node_id":"0.0-231.0","task_version":"battery-v0.2-trt","session":2},{"rune":"Z","rune_set":"bacs2","hex":"#3366ff99","correct":32,"choice":32,"rt":923.9699998870492,"accuracy":1,"outcome":"+10","keys":[2424.9500001315027],"total_keys":1,"block":2,"trial":226,"stimulus":8,"robot":1,"valence":"win","action":"go","sham":0,"trial_type":"pit-trial","trial_index":258,"time_elapsed":1288824,"internal_node_id":"0.0-232.0","task_version":"battery-v0.2-trt","session":2},{"rune":"W","rune_set":"bacs2","hex":"#f73b6a7A","correct":32,"choice":32,"rt":794.2800000309944,"accuracy":1,"outcome":"-1","keys":[2294.6500000543892],"total_keys":1,"block":2,"trial":227,"stimulus":10,"robot":3,"valence":"lose","action":"go","sham":0,"trial_type":"pit-trial","trial_index":259,"time_elapsed":1292327,"internal_node_id":"0.0-233.0","task_version":"battery-v0.2-trt","session":2},{"rune":"X","rune_set":"bacs2","hex":"#f73b6a7A","correct":-1,"choice":32,"rt":572.7150000166148,"accuracy":0,"outcome":"-10","keys":[2072.8100000414997],"total_keys":1,"block":2,"trial":228,"stimulus":9,"robot":4,"valence":"lose","action":"no-go","sham":0,"trial_type":"pit-trial","trial_index":260,"time_elapsed":1295615,"internal_node_id":"0.0-234.0","task_version":"battery-v0.2-trt","session":2},{"rune":"W","rune_set":"bacs2","hex":"#f73b6a7A","correct":32,"choice":32,"rt":708.4600001107901,"accuracy":1,"outcome":"-1","keys":[2208.6350000463426],"total_keys":1,"block":2,"trial":229,"stimulus":10,"robot":3,"valence":"lose","action":"go","sham":0,"trial_type":"pit-trial","trial_index":261,"time_elapsed":1299029,"internal_node_id":"0.0-235.0","task_version":"battery-v0.2-trt","session":2},{"rune":"J","rune_set":"bacs2","hex":"#3366ff99","correct":32,"choice":32,"rt":606.374999973923,"accuracy":1,"outcome":"+10","keys":[2106.529999990016],"total_keys":1,"block":2,"trial":230,"stimulus":11,"robot":1,"valence":"win","action":"go","sham":0,"trial_type":"pit-trial","trial_index":262,"time_elapsed":1302341,"internal_node_id":"0.0-236.0","task_version":"battery-v0.2-trt","session":2},{"rune":"X","rune_set":"bacs2","hex":"#f73b6a7A","correct":-1,"choice":32,"rt":994.5950000546873,"accuracy":0,"outcome":"-10","keys":[2500.0699998345226],"total_keys":1,"block":2,"trial":231,"stimulus":9,"robot":4,"valence":"lose","action":"no-go","sham":0,"trial_type":"pit-trial","trial_index":263,"time_elapsed":1306044,"internal_node_id":"0.0-237.0","task_version":"battery-v0.2-trt","session":2},{"rune":"Z","rune_set":"bacs2","hex":"#3366ff99","correct":32,"choice":32,"rt":723.1750001665205,"accuracy":1,"outcome":"+10","keys":[2223.5750001855195],"total_keys":1,"block":2,"trial":232,"stimulus":8,"robot":1,"valence":"win","action":"go","sham":0,"trial_type":"pit-trial","trial_index":264,"time_elapsed":1309472,"internal_node_id":"0.0-238.0","task_version":"battery-v0.2-trt","session":2},{"rune":"X","rune_set":"bacs2","hex":"#f73b6a7A","correct":-1,"choice":-1,"rt":-1,"accuracy":1,"outcome":"-10","keys":[],"total_keys":0,"block":2,"trial":233,"stimulus":9,"robot":4,"valence":"lose","action":"no-go","sham":1,"trial_type":"pit-trial","trial_index":265,"time_elapsed":1313479,"internal_node_id":"0.0-239.0","task_version":"battery-v0.2-trt",