[{"view_history":"[{\"page_index\":0,\"viewing_time\":102250.30499999411}]","rt":102250.95499999588,"trial_type":"instructions","trial_index":0,"time_elapsed":102255,"internal_node_id":"0.0-0.0","task_version":"battery-v0.2-trt","session":2},{"slider_type":"valence","raw_loc":661,"loc":0.822,"trial_type":"affective-slider","trial_index":1,"time_elapsed":104791,"internal_node_id":"0.0-1.0","task_version":"battery-v0.2-trt","session":2},{"responses":{"Q05":"0","Q07":"0","Q06":"0","Q04":"0","Q02":"0","Q03":"0","Q08":"3","Q01":"0"},"rt":73778.16999997594,"item_order":[4,6,5,3,1,2,7,0],"radio_events":[2514.434999990044,3730.7999999902677,4135.419999976875,4681.484999979148,4750.499999994645,5001.419999985956,5058.424999995623,5393.4599999920465,5447.41999998223,6077.6999999943655,6139.519999996992,6764.224999991711,7176.624999992782,7564.599999983329,7869.464999996126,8057.944999978645,10558.799999998882],"key_events":[3730.7999999902677,4135.419999976875,4681.484999979148,4750.499999994645,5001.419999985956,5058.424999995623,5393.4599999920465,5447.41999998223,6077.6999999943655,6139.519999996992,6764.224999991711,7176.624999992782,7564.599999983329,7869.464999996126,8057.944999978645],"mouse_events":[2023.269999976037,2514.434999990044,9988.519999984419,10558.799999998882,73776.1649999884],"straightlining":0.875,"zigzagging":0.2857142857142857,"survey":"dass_d","trial_type":"survey-template","trial_index":2,"time_elapsed":178575,"internal_node_id":"0.0-2.0","task_version":"battery-v0.2-trt","session":2,"infrequency":0},{"responses":{"Q06":"0","Q04":"0","Q07":"0","Q08":"0","Q03":"0","Q05":"0","Q02":"0","Q01":"0"},"rt":9422.159999987343,"item_order":[5,3,6,7,2,4,1,0],"radio_events":[1919.6999999985565,2473.314999981085,3798.509999993257,4689.89499998861,5459.539999981644,6899.184999987483,7330.849999998463,7935.344999976223],"key_events":[],"mouse_events":[1919.6999999985565,2473.314999981085,3040.2549999998882,3798.509999993257,4689.89499998861,5459.539999981644,6407.844999979716,6899.184999987483,7330.849999998463,7935.344999976223,9420.559999998659],"straightlining":1,"zigzagging":0,"survey":"gad7","trial_type":"survey-template","trial_index":3,"time_elapsed":188002,"internal_node_id":"0.0-3.0","task_version":"battery-v0.2-trt","session":2,"infrequency":0},{"view_history":"[{\"page_index\":0,\"viewing_time\":1334.2699999921024},{\"page_index\":1,\"viewing_time\":721.3300000003073},{\"page_index\":2,\"viewing_time\":707.7949999948032},{\"page_index\":3,\"viewing_time\":925.5549999943469},{\"page_index\":4,\"viewing_time\":1222.9349999979604},{\"page_index\":5,\"viewing_time\":2468.415000010282},{\"page_index\":6,\"viewing_time\":802.495000010822},{\"page_index\":7,\"viewing_time\":101657.93499999563},{\"page_index\":8,\"viewing_time\":717.0899999910034},{\"page_index\":9,\"viewing_time\":726.3549999915995}]","rt":111284.63999999803,"trial_type":"pit-instructions","trial_index":4,"time_elapsed":299292,"internal_node_id":"0.0-4.0-0.0","task_version":"battery-v0.2-trt","session":2},{"rune":"1","rune_set":"elianto","hex":"#3366ff99","correct":32,"choice":-1,"rt":-1,"accuracy":0,"outcome":"+1","keys":[2984.759999992093],"total_keys":1,"block":0,"practice":1,"trial_type":"pit-trial","trial_index":5,"time_elapsed":303298,"internal_node_id":"0.0-4.0-1.0-0.0","task_version":"battery-v0.2-trt","session":2},{"rune":"1","rune_set":"elianto","hex":"#3366ff99","correct":32,"choice":32,"rt":459.8300000070594,"accuracy":1,"outcome":"+10","keys":[1960.7149999937974],"total_keys":1,"block":0,"practice":1,"trial_type":"pit-trial","trial_index":6,"time_elapsed":306467,"internal_node_id":"0.0-4.0-1.1-0.1","task_version":"battery-v0.2-trt","session":2},{"rune":"1","rune_set":"elianto","hex":"#3366ff99","correct":32,"choice":32,"rt":585.7449999894015,"accuracy":1,"outcome":"+10","keys":[2087.635000003502],"total_keys":1,"block":0,"practice":1,"trial_type":"pit-trial","trial_index":7,"time_elapsed":309762,"internal_node_id":"0.0-4.0-1.2-0.2","task_version":"battery-v0.2-trt","session":2},{"rune":"1","rune_set":"elianto","hex":"#3366ff99","correct":32,"choice":32,"rt":465.9749999991618,"accuracy":1,"outcome":"+10","keys":[1967.97999998671],"total_keys":1,"block":0,"practice":1,"trial_type":"pit-trial","trial_index":8,"time_elapsed":312935,"internal_node_id":"0.0-4.0-1.3-0.3","task_version":"battery-v0.2-trt","session":2},{"trial_type":"call-function","trial_index":9,"time_elapsed":312940,"internal_node_id":"0.0-4.0-2.0","task_version":"battery-v0.2-trt","session":2},{"view_history":"[{\"page_index\":0,\"viewing_time\":2419.114999996964},{\"page_index\":1,\"viewing_time\":920.7949999836273}]","rt":3340.2149999747053,"trial_type":"pit-instructions","trial_index":10,"time_elapsed":316282,"internal_node_id":"0.0-4.0-3.0","task_version":"battery-v0.2-trt","session":2},{"rune":"2","rune_set":"elianto","hex":"#3366ff99","correct":-1,"choice":32,"rt":277.7500000083819,"accuracy":0,"outcome":"+1","keys":[1779.1549999965355],"total_keys":1,"block":0,"practice":2,"trial_type":"pit-trial","trial_index":11,"time_elapsed":319266,"internal_node_id":"0.0-4.0-4.0-0.0","task_version":"battery-v0.2-trt","session":2},{"rune":"2","rune_set":"elianto","hex":"#3366ff99","correct":-1,"choice":-1,"rt":-1,"accuracy":1,"outcome":"+10","keys":[],"total_keys":0,"block":0,"practice":2,"trial_type":"pit-trial","trial_index":12,"time_elapsed":323272,"internal_node_id":"0.0-4.0-4.1-0.1","task_version":"battery-v0.2-trt","session":2},{"rune":"2","rune_set":"elianto","hex":"#3366ff99","correct":-1,"choice":-1,"rt":-1,"accuracy":1,"outcome":"+10","keys":[],"total_keys":0,"block":0,"practice":2,"trial_type":"pit-trial","trial_index":13,"time_elapsed":327278,"internal_node_id":"0.0-4.0-4.2-0.2","task_version":"battery-v0.2-trt","session":2},{"rune":"2","rune_set":"elianto","hex":"#3366ff99","correct":-1,"choice":-1,"rt":-1,"accuracy":1,"outcome":"+10","keys":[],"total_keys":0,"block":0,"practice":2,"trial_type":"pit-trial","trial_index":14,"time_elapsed":331285,"internal_node_id":"0.0-4.0-4.3-0.3","task_version":"battery-v0.2-trt","session":2},{"trial_type":"call-function","trial_index":15,"time_elapsed":331288,"internal_node_id":"0.0-4.0-5.0","task_version":"battery-v0.2-trt","session":2},{"view_history":"[{\"page_index\":0,\"viewing_time\":6329.115000000456},{\"page_index\":1,\"viewing_time\":808.0550000013318}]","rt":7137.5000000116415,"trial_type":"pit-instructions","trial_index":16,"time_elapsed":338426,"internal_node_id":"0.0-4.0-6.0","task_version":"battery-v0.2-trt","session":2},{"rune":"3","rune_set":"elianto","hex":"#f73b6a7A","correct":-1,"choice":32,"rt":560.6149999948684,"accuracy":0,"outcome":"-10","keys":[2061.695000011241],"total_keys":1,"block":0,"practice":3,"trial_type":"pit-trial","trial_index":17,"time_elapsed":341693,"internal_node_id":"0.0-4.0-7.0-0.0","task_version":"battery-v0.2-trt","session":2},{"rune":"3","rune_set":"elianto","hex":"#f73b6a7A","correct":-1,"choice":-1,"rt":-1,"accuracy":1,"outcome":"-1","keys":[],"total_keys":0,"block":0,"practice":3,"trial_type":"pit-trial","trial_index":18,"time_elapsed":345698,"internal_node_id":"0.0-4.0-7.1-0.1","task_version":"battery-v0.2-trt","session":2},{"rune":"3","rune_set":"elianto","hex":"#f73b6a7A","correct":-1,"choice":-1,"rt":-1,"accuracy":1,"outcome":"-1","keys":[],"total_keys":0,"block":0,"practice":3,"trial_type":"pit-trial","trial_index":19,"time_elapsed":349703,"internal_node_id":"0.0-4.0-7.2-0.2","task_version":"battery-v0.2-trt","session":2},{"rune":"3","rune_set":"elianto","hex":"#f73b6a7A","correct":-1,"choice":-1,"rt":-1,"accuracy":1,"outcome":"-1","keys":[],"total_keys":0,"block":0,"practice":3,"trial_type":"pit-trial","trial_index":20,"time_elapsed":353710,"internal_node_id":"0.0-4.0-7.3-0.3","task_version":"battery-v0.2-trt","session":2},{"trial_type":"call-function","trial_index":21,"time_elapsed":353714,"internal_node_id":"0.0-4.0-8.0","task_version":"battery-v0.2-trt","session":2},{"view_history":"[{\"page_index\":0,\"viewing_time\":3990.190000011353},{\"page_index\":1,\"viewing_time\":1489.239999995334}]","rt":5479.975000023842,"trial_type":"pit-instructions","trial_index":22,"time_elapsed":359194,"internal_node_id":"0.0-4.0-9.0","task_version":"battery-v0.2-trt","session":2},{"rune":"4","rune_set":"elianto","hex":"#f73b6a7A","correct":32,"choice":32,"rt":139.92500002495944,"accuracy":1,"outcome":"-1","keys":[1640.7599999802187],"total_keys":1,"block":0,"practice":4,"trial_type":"pit-trial","trial_index":23,"time_elapsed":362039,"internal_node_id":"0.0-4.0-10.0-0.0","task_version":"battery-v0.2-trt","session":2},{"rune":"4","rune_set":"elianto","hex":"#f73b6a7A","correct":32,"choice":32,"rt":326.8649999808986,"accuracy":1,"outcome":"-1","keys":[1827.774999983376],"total_keys":1,"block":0,"practice":4,"trial_type":"pit-trial","trial_index":24,"time_elapsed":365072,"internal_node_id":"0.0-4.0-10.1-0.1","task_version":"battery-v0.2-trt","session":2},{"rune":"4","rune_set":"elianto","hex":"#f73b6a7A","correct":32,"choice":32,"rt":359.0649999969173,"accuracy":1,"outcome":"-1","keys":[1463.3299999986775,1859.3950000067707],"total_keys":2,"block":0,"practice":4,"trial_type":"pit-trial","trial_index":25,"time_elapsed":368135,"internal_node_id":"0.0-4.0-10.2-0.2","task_version":"battery-v0.2-trt","session":2},{"rune":"4","rune_set":"elianto","hex":"#f73b6a7A","correct":32,"choice":32,"rt":1083.3450000209268,"accuracy":1,"outcome":"-1","keys":[2584.774999995716],"total_keys":1,"block":0,"practice":4,"trial_type":"pit-trial","trial_index":26,"time_elapsed":371924,"internal_node_id":"0.0-4.0-10.3-0.3","task_version":"battery-v0.2-trt","session":2},{"trial_type":"call-function","trial_index":27,"time_elapsed":371928,"internal_node_id":"0.0-4.0-11.0","task_version":"battery-v0.2-trt","session":2},{"view_history":"[{\"page_index\":0,\"viewing_time\":5524.340000003576},{\"page_index\":1,\"viewing_time\":2349.004999996396},{\"page_index\":2,\"viewing_time\":833.1100000068545},{\"page_index\":3,\"viewing_time\":593.0400000070222},{\"page_index\":4,\"viewing_time\":757.0999999879859},{\"page_index\":5,\"viewing_time\":707.2050000133459}]","rt":10764.15500001167,"trial_type":"pit-instructions","trial_index":28,"time_elapsed":382692,"internal_node_id":"0.0-4.0-12.0","task_version":"battery-v0.2-trt","session":2},{"responses":["Press SPACE","+10","-1","True","True"],"num_errors":0,"rt":9847.615000006044,"trial_type":"pit-comprehension","trial_index":29,"time_elapsed":392545,"internal_node_id":"0.0-4.0-13.0","task_version":"battery-v0.2-trt","session":2},{"view_history":"[{\"page_index\":0,\"viewing_time\":1197.214999992866},{\"page_index\":1,\"viewing_time\":770.3400000173133}]","rt":1968.0700000026263,"trial_type":"pit-instructions","trial_index":30,"time_elapsed":394519,"internal_node_id":"0.0-5.0","task_version":"battery-v0.2-trt","session":2},{"rune":"R","rune_set":"elianto","hex":"#f73b6a7A","correct":32,"choice":32,"rt":690.9200000227429,"accuracy":1,"outcome":"-1","keys":[2191.3950000016484],"total_keys":1,"block":1,"trial":1,"stimulus":1,"robot":3,"valence":"lose","action":"go","sham":0,"trial_type":"pit-trial","trial_index":31,"time_elapsed":397918,"internal_node_id":"0.0-6.0","task_version":"battery-v0.2-trt","session":2},{"rune":"Y","rune_set":"elianto","hex":"#f73b6a7A","correct":32,"choice":32,"rt":596.9150000018999,"accuracy":1,"outcome":"-1","keys":[2097.7050000219606],"total_keys":1,"block":1,"trial":2,"stimulus":2,"robot":3,"valence":"lose","action":"go","sham":0,"trial_type":"pit-trial","trial_index":32,"time_elapsed":401225,"internal_node_id":"0.0-7.0","task_version":"battery-v0.2-trt","session":2},{"rune":"M","rune_set":"elianto","hex":"#f73b6a7A","correct":-1,"choice":32,"rt":389.9549999914598,"accuracy":0,"outcome":"-10","keys":[1890.690000000177],"total_keys":1,"block":1,"trial":3,"stimulus":0,"robot":4,"valence":"lose","action":"no-go","sham":0,"trial_type":"pit-trial","trial_index":33,"time_elapsed":404321,"internal_node_id":"0.0-8.0","task_version":"battery-v0.2-trt","session":2},{"rune":"H","rune_set":"elianto","hex":"#3366ff99","correct":32,"choice":32,"rt":634.4699999899603,"accuracy":1,"outcome":"+10","keys":[2135.5099999927916],"total_keys":1,"block":1,"trial":4,"stimulus":3,"robot":1,"valence":"win","action":"go","sham":0,"trial_type":"pit-trial","trial_index":34,"time_elapsed":407662,"internal_node_id":"0.0-9.0","task_version":"battery-v0.2-trt","session":2},{"rune":"M","rune_set":"elianto","hex":"#f73b6a7A","correct":-1,"choice":-1,"rt":-1,"accuracy":1,"outcome":"-1","keys":[],"total_keys":0,"block":1,"trial":5,"stimulus":0,"robot":4,"valence":"lose","action":"no-go","sham":0,"trial_type":"pit-trial","trial_index":35,"time_elapsed":411668,"internal_node_id":"0.0-10.0","task_version":"battery-v0.2-trt","session":2},{"rune":"Y","rune_set":"elianto","hex":"#f73b6a7A","correct":32,"choice":32,"rt":476.85499998624437,"accuracy":1,"outcome":"-1","keys":[1978.2199999899603],"total_keys":1,"block":1,"trial":6,"stimulus":2,"robot":3,"valence":"lose","action":"go","sham":0,"trial_type":"pit-trial","trial_index":36,"time_elapsed":414852,"internal_node_id":"0.0-11.0","task_version":"battery-v0.2-trt","session":2},{"rune":"H","rune_set":"elianto","hex":"#3366ff99","correct":32,"choice":32,"rt":528.4099999989849,"accuracy":1,"outcome":"+10","keys":[2029.4399999838788],"total_keys":1,"block":1,"trial":7,"stimulus":3,"robot":1,"valence":"win","action":"go","sham":0,"trial_type":"pit-trial","trial_index":37,"time_elapsed":418087,"internal_node_id":"0.0-12.0","task_version":"battery-v0.2-trt","session":2},{"rune":"R","rune_set":"elianto","hex":"#f73b6a7A","correct":32,"choice":32,"rt":444.28500000503846,"accuracy":1,"outcome":"-1","keys":[1944.4800000055693],"total_keys":1,"block":1,"trial":8,"stimulus":1,"robot":3,"valence":"lose","action":"go","sham":0,"trial_type":"pit-trial","trial_index":38,"time_elapsed":421237,"internal_node_id":"0.0-13.0","task_version":"battery-v0.2-trt","session":2},{"rune":"M","rune_set":"elianto","hex":"#f73b6a7A","correct":-1,"choice":-1,"rt":-1,"accuracy":1,"outcome":"-1","keys":[],"total_keys":0,"block":1,"trial":9,"stimulus":0,"robot":4,"valence":"lose","action":"no-go","sham":0,"trial_type":"pit-trial","trial_index":39,"time_elapsed":425245,"internal_node_id":"0.0-14.0","task_version":"battery-v0.2-trt","session":2},{"rune":"Y","rune_set":"elianto","hex":"#f73b6a7A","correct":32,"choice":32,"rt":405.8999999833759,"accuracy":1,"outcome":"-1","keys":[1906.4549999893643],"total_keys":1,"block":1,"trial":10,"stimulus":2,"robot":3,"valence":"lose","action":"go","sham":0,"trial_type":"pit-trial","trial_index":40,"time_elapsed":428356,"internal_node_id":"0.0-15.0","task_version":"battery-v0.2-trt","session":2},{"rune":"R","rune_set":"elianto","hex":"#f73b6a7A","correct":32,"choice":32,"rt":514.4200000213459,"accuracy":1,"outcome":"-1","keys":[2015.385000006063],"total_keys":1,"block":1,"trial":11,"stimulus":1,"robot":3,"valence":"lose","action":"go","sham":0,"trial_type":"pit-trial","trial_index":41,"time_elapsed":431577,"internal_node_id":"0.0-16.0","task_version":"battery-v0.2-trt","session":2},{"rune":"H","rune_set":"elianto","hex":"#3366ff99","correct":32,"choice":32,"rt":468.3249999943655,"accuracy":1,"outcome":"+1","keys":[1970.065000001341],"total_keys":1,"block":1,"trial":12,"stimulus":3,"robot":1,"valence":"win","action":"go","sham":1,"trial_type":"pit-trial","trial_index":42,"time_elapsed":434753,"internal_node_id":"0.0-17.0","task_version":"battery-v0.2-trt","session":2},{"rune":"R","rune_set":"elianto","hex":"#f73b6a7A","correct":32,"choice":32,"rt":456.9350000238046,"accuracy":1,"outcome":"-1","keys":[1958.7100000062492],"total_keys":1,"block":1,"trial":13,"stimulus":1,"robot":3,"valence":"lose","action":"go","sham":0,"trial_type":"pit-trial","trial_index":43,"time_elapsed":437916,"internal_node_id":"0.0-18.0","task_version":"battery-v0.2-trt","session":2},{"rune":"M","rune_set":"elianto","hex":"#f73b6a7A","correct":-1,"choice":-1,"rt":-1,"accuracy":1,"outcome":"-1","keys":[],"total_keys":0,"block":1,"trial":14,"stimulus":0,"robot":4,"valence":"lose","action":"no-go","sham":0,"trial_type":"pit-trial","trial_index":44,"time_elapsed":441924,"internal_node_id":"0.0-19.0","task_version":"battery-v0.2-trt","session":2},{"rune":"Y","rune_set":"elianto","hex":"#f73b6a7A","correct":32,"choice":32,"rt":370.664999994915,"accuracy":1,"outcome":"-1","keys":[1872.044999996433],"total_keys":1,"block":1,"trial":15,"stimulus":2,"robot":3,"valence":"lose","action":"go","sham":0,"trial_type":"pit-trial","trial_index":45,"time_elapsed":445001,"internal_node_id":"0.0-20.0","task_version":"battery-v0.2-trt","session":2},{"rune":"H","rune_set":"elianto","hex":"#3366ff99","correct":32,"choice":32,"rt":457.11499999742955,"accuracy":1,"outcome":"+10","keys":[1957.1449999930337],"total_keys":1,"block":1,"trial":16,"stimulus":3,"robot":1,"valence":"win","action":"go","sham":0,"trial_type":"pit-trial","trial_index":46,"time_elapsed":448164,"internal_node_id":"0.0-21.0","task_version":"battery-v0.2-trt","session":2},{"rune":"M","rune_set":"elianto","hex":"#f73b6a7A","correct":-1,"choice":-1,"rt":-1,"accuracy":1,"outcome":"-1","keys":[],"total_keys":0,"block":1,"trial":17,"stimulus":0,"robot":4,"valence":"lose","action":"no-go","sham":0,"trial_type":"pit-trial","trial_index":47,"time_elapsed":452172,"internal_node_id":"0.0-22.0","task_version":"battery-v0.2-trt","session":2},{"rune":"Y","rune_set":"elianto","hex":"#f73b6a7A","correct":32,"choice":32,"rt":412.16000000713393,"accuracy":1,"outcome":"-1","keys":[1913.7750000227243],"total_keys":1,"block":1,"trial":18,"stimulus":2,"robot":3,"valence":"lose","action":"go","sham":0,"trial_type":"pit-trial","trial_index":48,"time_elapsed":455290,"internal_node_id":"0.0-23.0","task_version":"battery-v0.2-trt","session":2},{"rune":"H","rune_set":"elianto","hex":"#3366ff99","correct":32,"choice":32,"rt":618.2350000017323,"accuracy":1,"outcome":"+10","keys":[2119.1600000020117],"total_keys":1,"block":1,"trial":19,"stimulus":3,"robot":1,"valence":"win","action":"go","sham":0,"trial_type":"pit-trial","trial_index":49,"time_elapsed":458614,"internal_node_id":"0.0-24.0","task_version":"battery-v0.2-trt","session":2},{"rune":"R","rune_set":"elianto","hex":"#f73b6a7A","correct":32,"choice":32,"rt":432.4800000176765,"accuracy":1,"outcome":"-10","keys":[1934.4400000118185],"total_keys":1,"block":1,"trial":20,"stimulus":1,"robot":3,"valence":"lose","action":"go","sham":1,"trial_type":"pit-trial","trial_index":50,"time_elapsed":461755,"internal_node_id":"0.0-25.0","task_version":"battery-v0.2-trt","session":2},{"rune":"M","rune_set":"elianto","hex":"#f73b6a7A","correct":-1,"choice":-1,"rt":-1,"accuracy":1,"outcome":"-1","keys":[],"total_keys":0,"block":1,"trial":21,"stimulus":0,"robot":4,"valence":"lose","action":"no-go","sham":0,"trial_type":"pit-trial","trial_index":51,"time_elapsed":465762,"internal_node_id":"0.0-26.0","task_version":"battery-v0.2-trt","session":2},{"rune":"H","rune_set":"elianto","hex":"#3366ff99","correct":32,"choice":32,"rt":482.36500000348315,"accuracy":1,"outcome":"+10","keys":[1983.60499998671],"total_keys":1,"block":1,"trial":22,"stimulus":3,"robot":1,"valence":"win","action":"go","sham":0,"trial_type":"pit-trial","trial_index":52,"time_elapsed":468950,"internal_node_id":"0.0-27.0","task_version":"battery-v0.2-trt","session":2},{"rune":"R","rune_set":"elianto","hex":"#f73b6a7A","correct":32,"choice":32,"rt":426.82500000228174,"accuracy":1,"outcome":"-1","keys":[1927.8399999893736],"total_keys":1,"block":1,"trial":23,"stimulus":1,"robot":3,"valence":"lose","action":"go","sham":0,"trial_type":"pit-trial","trial_index":53,"time_elapsed":472083,"internal_node_id":"0.0-28.0","task_version":"battery-v0.2-trt","session":2},{"rune":"Y","rune_set":"elianto","hex":"#f73b6a7A","correct":32,"choice":32,"rt":410.7899999944493,"accuracy":1,"outcome":"-1","keys":[1912.6850000175182],"total_keys":1,"block":1,"trial":24,"stimulus":2,"robot":3,"valence":"lose","action":"go","sham":0,"trial_type":"pit-trial","trial_index":54,"time_elapsed":475200,"internal_node_id":"0.0-29.0","task_version":"battery-v0.2-trt","session":2},{"rune":"R","rune_set":"elianto","hex":"#f73b6a7A","correct":32,"choice":32,"rt":324.7350000019651,"accuracy":1,"outcome":"-10","keys":[1825.5099999951199],"total_keys":1,"block":1,"trial":25,"stimulus":1,"robot":3,"valence":"lose","action":"go","sham":1,"trial_type":"pit-trial","trial_index":55,"time_elapsed":478231,"internal_node_id":"0.0-30.0","task_version":"battery-v0.2-trt","session":2},{"rune":"M","rune_set":"elianto","hex":"#f73b6a7A","correct":-1,"choice":-1,"rt":-1,"accuracy":1,"outcome":"-10","keys":[],"total_keys":0,"block":1,"trial":26,"stimulus":0,"robot":4,"valence":"lose","action":"no-go","sham":1,"trial_type":"pit-trial","trial_index":56,"time_elapsed":482241,"internal_node_id":"0.0-31.0","task_version":"battery-v0.2-trt","session":2},{"rune":"H","rune_set":"elianto","hex":"#3366ff99","correct":32,"choice":32,"rt":532.0800000044983,"accuracy":1,"outcome":"+10","keys":[2032.8650000155903],"total_keys":1,"block":1,"trial":27,"stimulus":3,"robot":1,"valence":"win","action":"go","sham":0,"trial_type":"pit-trial","trial_index":57,"time_elapsed":485478,"internal_node_id":"0.0-32.0","task_version":"battery-v0.2-trt","session":2},{"rune":"Y","rune_set":"elianto","hex":"#f73b6a7A","correct":32,"choice":32,"rt":379.7400000039488,"accuracy":1,"outcome":"-10","keys":[1880.7350000133738],"total_keys":1,"block":1,"trial":28,"stimulus":2,"robot":3,"valence":"lose","action":"go","sham":1,"trial_type":"pit-trial","trial_index":58,"time_elapsed":488563,"internal_node_id":"0.0-33.0","task_version":"battery-v0.2-trt","session":2},{"rune":"H","rune_set":"elianto","hex":"#3366ff99","correct":32,"choice":32,"rt":449.50499999686144,"accuracy":1,"outcome":"+1","keys":[1950.2250000077765],"total_keys":1,"block":1,"trial":29,"stimulus":3,"robot":1,"valence":"win","action":"go","sham":1,"trial_type":"pit-trial","trial_index":59,"time_elapsed":491718,"internal_node_id":"0.0-34.0","task_version":"battery-v0.2-trt","session":2},{"rune":"M","rune_set":"elianto","hex":"#f73b6a7A","correct":-1,"choice":-1,"rt":-1,"accuracy":1,"outcome":"-1","keys":[],"total_keys":0,"block":1,"trial":30,"stimulus":0,"robot":4,"valence":"lose","action":"no-go","sham":0,"trial_type":"pit-trial","trial_index":60,"time_elapsed":495724,"internal_node_id":"0.0-35.0","task_version":"battery-v0.2-trt","session":2},{"rune":"Y","rune_set":"elianto","hex":"#f73b6a7A","correct":32,"choice":32,"rt":370.00999998417683,"accuracy":1,"outcome":"-10","keys":[1871.370000008028],"total_keys":1,"block":1,"trial":31,"stimulus":2,"robot":3,"valence":"lose","action":"go","sham":1,"trial_type":"pit-trial","trial_index":61,"time_elapsed":498800,"internal_node_id":"0.0-36.0","task_version":"battery-v0.2-trt","session":2},{"rune":"R","rune_set":"elianto","hex":"#f73b6a7A","correct":32,"choice":32,"rt":377.15499999467283,"accuracy":1,"outcome":"-1","keys":[1877.8699999966193],"total_keys":1,"block":1,"trial":32,"stimulus":1,"robot":3,"valence":"lose","action":"go","sham":0,"trial_type":"pit-trial","trial_index":62,"time_elapsed":501884,"internal_node_id":"0.0-37.0","task_version":"battery-v0.2-trt","session":2},{"rune":"R","rune_set":"elianto","hex":"#f73b6a7A","correct":32,"choice":32,"rt":426.34500001440756,"accuracy":1,"outcome":"-1","keys":[1927.4600000062492],"total_keys":1,"block":1,"trial":33,"stimulus":1,"robot":3,"valence":"lose","action":"go","sham":0,"trial_type":"pit-trial","trial_index":63,"time_elapsed":505019,"internal_node_id":"0.0-38.0","task_version":"battery-v0.2-trt","session":2},{"rune":"Z","rune_set":"elianto","hex":"#f73b6a7A","correct":-1,"choice":-1,"rt":-1,"accuracy":1,"outcome":"-10","keys":[],"total_keys":0,"block":1,"trial":34,"stimulus":4,"robot":4,"valence":"lose","action":"no-go","sham":1,"trial_type":"pit-trial","trial_index":64,"time_elapsed":509025,"internal_node_id":"0.0-39.0","task_version":"battery-v0.2-trt","session":2},{"rune":"M","rune_set":"elianto","hex":"#f73b6a7A","correct":-1,"choice":-1,"rt":-1,"accuracy":1,"outcome":"-1","keys":[],"total_keys":0,"block":1,"trial":35,"stimulus":0,"robot":4,"valence":"lose","action":"no-go","sham":0,"trial_type":"pit-trial","trial_index":65,"time_elapsed":513032,"internal_node_id":"0.0-40.0","task_version":"battery-v0.2-trt","session":2},{"rune":"H","rune_set":"elianto","hex":"#3366ff99","correct":32,"choice":32,"rt":625.9149999823421,"accuracy":1,"outcome":"+10","keys":[2127.374999981839],"total_keys":1,"block":1,"trial":36,"stimulus":3,"robot":1,"valence":"win","action":"go","sham":0,"trial_type":"pit-trial","trial_index":66,"time_elapsed":516365,"internal_node_id":"0.0-41.0","task_version":"battery-v0.2-trt","session":2},{"rune":"Z","rune_set":"elianto","hex":"#f73b6a7A","correct":-1,"choice":32,"rt":478.6000000021886,"accuracy":0,"outcome":"-1","keys":[1979.4699999911245],"total_keys":1,"block":1,"trial":37,"stimulus":4,"robot":4,"valence":"lose","action":"no-go","sham":1,"trial_type":"pit-trial","trial_index":67,"time_elapsed":519552,"internal_node_id":"0.0-42.0","task_version":"battery-v0.2-trt","session":2},{"rune":"R","rune_set":"elianto","hex":"#f73b6a7A","correct":32,"choice":32,"rt":479.53499999130145,"accuracy":1,"outcome":"-1","keys":[1980.31000001356],"total_keys":1,"block":1,"trial":38,"stimulus":1,"robot":3,"valence":"lose","action":"go","sham":0,"trial_type":"pit-trial","trial_index":68,"time_elapsed":522736,"internal_node_id":"0.0-43.0","task_version":"battery-v0.2-trt","session":2},{"rune":"M","rune_set":"elianto","hex":"#f73b6a7A","correct":-1,"choice":-1,"rt":-1,"accuracy":1,"outcome":"-1","keys":[],"total_keys":0,"block":1,"trial":39,"stimulus":0,"robot":4,"valence":"lose","action":"no-go","sham":0,"trial_type":"pit-trial","trial_index":69,"time_elapsed":526742,"internal_node_id":"0.0-44.0","task_version":"battery-v0.2-trt","session":2},{"rune":"H","rune_set":"elianto","hex":"#3366ff99","correct":32,"choice":32,"rt":479.3199999839999,"accuracy":1,"outcome":"+1","keys":[1979.445000004489],"total_keys":1,"block":1,"trial":40,"stimulus":3,"robot":1,"valence":"win","action":"go","sham":1,"trial_type":"pit-trial","trial_index":70,"time_elapsed":529925,"internal_node_id":"0.0-45.0","task_version":"battery-v0.2-trt","session":2},{"rune":"C","rune_set":"elianto","hex":"#3366ff99","correct":-1,"choice":32,"rt":642.184999975143,"accuracy":0,"outcome":"+1","keys":[2142.6700000010896],"total_keys":1,"block":1,"trial":41,"stimulus":5,"robot":2,"valence":"win","action":"no-go","sham":0,"trial_type":"pit-trial","trial_index":71,"time_elapsed":533273,"internal_node_id":"0.0-46.0","task_version":"battery-v0.2-trt","session":2},{"rune":"Z","rune_set":"elianto","hex":"#f73b6a7A","correct":-1,"choice":32,"rt":443.87499999720603,"accuracy":0,"outcome":"-10","keys":[1944.0250000043306],"total_keys":1,"block":1,"trial":42,"stimulus":4,"robot":4,"valence":"lose","action":"no-go","sham":0,"trial_type":"pit-trial","trial_index":72,"time_elapsed":536421,"internal_node_id":"0.0-47.0","task_version":"battery-v0.2-trt","session":2},{"rune":"M","rune_set":"elianto","hex":"#f73b6a7A","correct":-1,"choice":-1,"rt":-1,"accuracy":1,"outcome":"-1","keys":[],"total_keys":0,"block":1,"trial":43,"stimulus":0,"robot":4,"valence":"lose","action":"no-go","sham":0,"trial_type":"pit-trial","trial_index":73,"time_elapsed":540429,"internal_node_id":"0.0-48.0","task_version":"battery-v0.2-trt","session":2},{"rune":"R","rune_set":"elianto","hex":"#f73b6a7A","correct":32,"choice":32,"rt":412.57000001496635,"accuracy":1,"outcome":"-1","keys":[1913.6599999910686],"total_keys":1,"block":1,"trial":44,"stimulus":1,"robot":3,"valence":"lose","action":"go","sham":0,"trial_type":"pit-trial","trial_index":74,"time_elapsed":543548,"internal_node_id":"0.0-49.0","task_version":"battery-v0.2-trt","session":2},{"rune":"R","rune_set":"elianto","hex":"#f73b6a7A","correct":32,"choice":32,"rt":431.944999989355,"accuracy":1,"outcome":"-1","keys":[1932.3750000039581],"total_keys":1,"block":1,"trial":45,"stimulus":1,"robot":3,"valence":"lose","action":"go","sham":0,"trial_type":"pit-trial","trial_index":75,"time_elapsed":546687,"internal_node_id":"0.0-50.0","task_version":"battery-v0.2-trt","session":2},{"rune":"Z","rune_set":"elianto","hex":"#f73b6a7A","correct":-1,"choice":32,"rt":495.75000000186265,"accuracy":0,"outcome":"-1","keys":[1996.6249999997672],"total_keys":1,"block":1,"trial":46,"stimulus":4,"robot":4,"valence":"lose","action":"no-go","sham":1,"trial_type":"pit-trial","trial_index":76,"time_elapsed":549890,"internal_node_id":"0.0-51.0","task_version":"battery-v0.2-trt","session":2},{"rune":"C","rune_set":"elianto","hex":"#3366ff99","correct":-1,"choice":32,"rt":787.735000019893,"accuracy":0,"outcome":"+1","keys":[2287.910000013653],"total_keys":1,"block":1,"trial":47,"stimulus":5,"robot":2,"valence":"win","action":"no-go","sham":0,"trial_type":"pit-trial","trial_index":77,"time_elapsed":553384,"internal_node_id":"0.0-52.0","task_version":"battery-v0.2-trt","session":2},{"rune":"M","rune_set":"elianto","hex":"#f73b6a7A","correct":-1,"choice":-1,"rt":-1,"accuracy":1,"outcome":"-1","keys":[],"total_keys":0,"block":1,"trial":48,"stimulus":0,"robot":4,"valence":"lose","action":"no-go","sham":0,"trial_type":"pit-trial","trial_index":78,"time_elapsed":557388,"internal_node_id":"0.0-53.0","task_version":"battery-v0.2-trt","session":2},{"rune":"C","rune_set":"elianto","hex":"#3366ff99","correct":-1,"choice":32,"rt":662.4550000124145,"accuracy":0,"outcome":"+10","keys":[2163.1250000209548],"total_keys":1,"block":1,"trial":49,"stimulus":5,"robot":2,"valence":"win","action":"no-go","sham":1,"trial_type":"pit-trial","trial_index":79,"time_elapsed":560756,"internal_node_id":"0.0-54.0","task_version":"battery-v0.2-trt","session":2},{"rune":"Z","rune_set":"elianto","hex":"#f73b6a7A","correct":-1,"choice":32,"rt":530.5800000205636,"accuracy":0,"outcome":"-10","keys":[2032.230000011623],"total_keys":1,"block":1,"trial":50,"stimulus":4,"robot":4,"valence":"lose","action":"no-go","sham":0,"trial_type":"pit-trial","trial_index":80,"time_elapsed":563993,"internal_node_id":"0.0-55.0","task_version":"battery-v0.2-trt","session":2},{"rune":"T","rune_set":"elianto","hex":"#3366ff99","correct":32,"choice":32,"rt":510.56499997503124,"accuracy":1,"outcome":"+10","keys":[2012.2550000087358],"total_keys":1,"block":1,"trial":51,"stimulus":7,"robot":1,"valence":"win","action":"go","sham":0,"trial_type":"pit-trial","trial_index":81,"time_elapsed":567211,"internal_node_id":"0.0-56.0","task_version":"battery-v0.2-trt","session":2},{"rune":"B","rune_set":"elianto","hex":"#f73b6a7A","correct":-1,"choice":-1,"rt":-1,"accuracy":1,"outcome":"-1","keys":[],"total_keys":0,"block":1,"trial":52,"stimulus":6,"robot":4,"valence":"lose","action":"no-go","sham":0,"trial_type":"pit-trial","trial_index":82,"time_elapsed":571216,"internal_node_id":"0.0-57.0","task_version":"battery-v0.2-trt","session":2},{"rune":"C","rune_set":"elianto","hex":"#3366ff99","correct":-1,"choice":-1,"rt":-1,"accuracy":1,"outcome":"+10","keys":[],"total_keys":0,"block":1,"trial":53,"stimulus":5,"robot":2,"valence":"win","action":"no-go","sham":0,"trial_type":"pit-trial","trial_index":83,"time_elapsed":575222,"internal_node_id":"0.0-58.0","task_version":"battery-v0.2-trt","session":2},{"rune":"T","rune_set":"elianto","hex":"#3366ff99","correct":32,"choice":32,"rt":721.4549999916926,"accuracy":1,"outcome":"+10","keys":[2221.86999997939],"total_keys":1,"block":1,"trial":54,"stimulus":7,"robot":1,"valence":"win","action":"go","sham":0,"trial_type":"pit-trial","trial_index":84,"time_elapsed":578649,"internal_node_id":"0.0-59.0","task_version":"battery-v0.2-trt","session":2},{"rune":"B","rune_set":"elianto","hex":"#f73b6a7A","correct":-1,"choice":-1,"rt":-1,"accuracy":1,"outcome":"-1","keys":[],"total_keys":0,"block":1,"trial":55,"stimulus":6,"robot":4,"valence":"lose","action":"no-go","sham":0,"trial_type":"pit-trial","trial_index":85,"time_elapsed":582655,"internal_node_id":"0.0-60.0","task_version":"battery-v0.2-trt","session":2},{"rune":"Z","rune_set":"elianto","hex":"#f73b6a7A","correct":-1,"choice":-1,"rt":-1,"accuracy":1,"outcome":"-1","keys":[],"total_keys":0,"block":1,"trial":56,"stimulus":4,"robot":4,"valence":"lose","action":"no-go","sham":0,"trial_type":"pit-trial","trial_index":86,"time_elapsed":586661,"internal_node_id":"0.0-61.0","task_version":"battery-v0.2-trt","session":2},{"rune":"B","rune_set":"elianto","hex":"#f73b6a7A","correct":-1,"choice":-1,"rt":-1,"accuracy":1,"outcome":"-1","keys":[],"total_keys":0,"block":1,"trial":57,"stimulus":6,"robot":4,"valence":"lose","action":"no-go","sham":0,"trial_type":"pit-trial","trial_index":87,"time_elapsed":590666,"internal_node_id":"0.0-62.0","task_version":"battery-v0.2-trt","session":2},{"rune":"Z","rune_set":"elianto","hex":"#f73b6a7A","correct":-1,"choice":-1,"rt":-1,"accuracy":1,"outcome":"-1","keys":[],"total_keys":0,"block":1,"trial":58,"stimulus":4,"robot":4,"valence":"lose","action":"no-go","sham":0,"trial_type":"pit-trial","trial_index":88,"time_elapsed":594674,"internal_node_id":"0.0-63.0","task_version":"battery-v0.2-trt","session":2},{"rune":"C","rune_set":"elianto","hex":"#3366ff99","correct":-1,"choice":-1,"rt":-1,"accuracy":1,"outcome":"+10","keys":[],"total_keys":0,"block":1,"trial":59,"stimulus":5,"robot":2,"valence":"win","action":"no-go","sham":0,"trial_type":"pit-trial","trial_index":89,"time_elapsed":598678,"internal_node_id":"0.0-64.0","task_version":"battery-v0.2-trt","session":2},{"rune":"T","rune_set":"elianto","hex":"#3366ff99","correct":32,"choice":32,"rt":616.9799999915995,"accuracy":1,"outcome":"+10","keys":[2118.354999984149],"total_keys":1,"block":1,"trial":60,"stimulus":7,"robot":1,"valence":"win","action":"go","sham":0,"trial_type":"pit-trial","trial_index":90,"time_elapsed":602002,"internal_node_id":"0.0-65.0","task_version":"battery-v0.2-trt","session":2},{"rune":"Z","rune_set":"elianto","hex":"#f73b6a7A","correct":-1,"choice":-1,"rt":-1,"accuracy":1,"outcome":"-1","keys":[],"total_keys":0,"block":1,"trial":61,"stimulus":4,"robot":4,"valence":"lose","action":"no-go","sham":0,"trial_type":"pit-trial","trial_index":91,"time_elapsed":606008,"internal_node_id":"0.0-66.0","task_version":"battery-v0.2-trt","session":2},{"rune":"B","rune_set":"elianto","hex":"#f73b6a7A","correct":-1,"choice":-1,"rt":-1,"accuracy":1,"outcome":"-1","keys":[],"total_keys":0,"block":1,"trial":62,"stimulus":6,"robot":4,"valence":"lose","action":"no-go","sham":0,"trial_type":"pit-trial","trial_index":92,"time_elapsed":610014,"internal_node_id":"0.0-67.0","task_version":"battery-v0.2-trt","session":2},{"rune":"T","rune_set":"elianto","hex":"#3366ff99","correct":32,"choice":32,"rt":555.0050000019837,"accuracy":1,"outcome":"+10","keys":[2061.6299999819603],"total_keys":1,"block":1,"trial":63,"stimulus":7,"robot":1,"valence":"win","action":"go","sham":0,"trial_type":"pit-trial","trial_index":93,"time_elapsed":613281,"internal_node_id":"0.0-68.0","task_version":"battery-v0.2-trt","session":2},{"rune":"C","rune_set":"elianto","hex":"#3366ff99","correct":-1,"choice":-1,"rt":-1,"accuracy":1,"outcome":"+10","keys":[],"total_keys":0,"block":1,"trial":64,"stimulus":5,"robot":2,"valence":"win","action":"no-go","sham":0,"trial_type":"pit-trial","trial_index":94,"time_elapsed":617286,"internal_node_id":"0.0-69.0","task_version":"battery-v0.2-trt","session":2},{"rune":"Z","rune_set":"elianto","hex":"#f73b6a7A","correct":-1,"choice":-1,"rt":-1,"accuracy":1,"outcome":"-1","keys":[],"total_keys":0,"block":1,"trial":65,"stimulus":4,"robot":4,"valence":"lose","action":"no-go","sham":0,"trial_type":"pit-trial","trial_index":95,"time_elapsed":621291,"internal_node_id":"0.0-70.0","task_version":"battery-v0.2-trt","session":2},{"rune":"C","rune_set":"elianto","hex":"#3366ff99","correct":-1,"choice":-1,"rt":-1,"accuracy":1,"outcome":"+10","keys":[],"total_keys":0,"block":1,"trial":66,"stimulus":5,"robot":2,"valence":"win","action":"no-go","sham":0,"trial_type":"pit-trial","trial_index":96,"time_elapsed":625296,"internal_node_id":"0.0-71.0","task_version":"battery-v0.2-trt","session":2},{"rune":"B","rune_set":"elianto","hex":"#f73b6a7A","correct":-1,"choice":-1,"rt":-1,"accuracy":1,"outcome":"-1","keys":[],"total_keys":0,"block":1,"trial":67,"stimulus":6,"robot":4,"valence":"lose","action":"no-go","sham":0,"trial_type":"pit-trial","trial_index":97,"time_elapsed":629302,"internal_node_id":"0.0-72.0","task_version":"battery-v0.2-trt","session":2},{"rune":"T","rune_set":"elianto","hex":"#3366ff99","correct":32,"choice":32,"rt":418.9900000055786,"accuracy":1,"outcome":"+1","keys":[1919.5499999914318],"total_keys":1,"block":1,"trial":68,"stimulus":7,"robot":1,"valence":"win","action":"go","sham":1,"trial_type":"pit-trial","trial_index":98,"time_elapsed":632426,"internal_node_id":"0.0-73.0","task_version":"battery-v0.2-trt","session":2},{"rune":"Z","rune_set":"elianto","hex":"#f73b6a7A","correct":-1,"choice":-1,"rt":-1,"accuracy":1,"outcome":"-1","keys":[],"total_keys":0,"block":1,"trial":69,"stimulus":4,"robot":4,"valence":"lose","action":"no-go","sham":0,"trial_type":"pit-trial","trial_index":99,"time_elapsed":636431,"internal_node_id":"0.0-74.0","task_version":"battery-v0.2-trt","session":2},{"rune":"B","rune_set":"elianto","hex":"#f73b6a7A","correct":-1,"choice":-1,"rt":-1,"accuracy":1,"outcome":"-1","keys":[],"total_keys":0,"block":1,"trial":70,"stimulus":6,"robot":4,"valence":"lose","action":"no-go","sham":0,"trial_type":"pit-trial","trial_index":100,"time_elapsed":640437,"internal_node_id":"0.0-75.0","task_version":"battery-v0.2-trt","session":2},{"rune":"C","rune_set":"elianto","hex":"#3366ff99","correct":-1,"choice":-1,"rt":-1,"accuracy":1,"outcome":"+10","keys":[],"total_keys":0,"block":1,"trial":71,"stimulus":5,"robot":2,"valence":"win","action":"no-go","sham":0,"trial_type":"pit-trial","trial_index":101,"time_elapsed":644444,"internal_node_id":"0.0-76.0","task_version":"battery-v0.2-trt","session":2},{"rune":"T","rune_set":"elianto","hex":"#3366ff99","correct":32,"choice":32,"rt":482.58999999961816,"accuracy":1,"outcome":"+10","keys":[1983.2750000059605],"total_keys":1,"block":1,"trial":72,"stimulus":7,"robot":1,"valence":"win","action":"go","sham":0,"trial_type":"pit-trial","trial_index":102,"time_elapsed":647633,"internal_node_id":"0.0-77.0","task_version":"battery-v0.2-trt","session":2},{"rune":"T","rune_set":"elianto","hex":"#3366ff99","correct":32,"choice":32,"rt":653.9250000205357,"accuracy":1,"outcome":"+1","keys":[2155.750000005355],"total_keys":1,"block":1,"trial":73,"stimulus":7,"robot":1,"valence":"win","action":"go","sham":1,"trial_type":"pit-trial","trial_index":103,"time_elapsed":650997,"internal_node_id":"0.0-78.0","task_version":"battery-v0.2-trt","session":2},{"rune":"C","rune_set":"elianto","hex":"#3366ff99","correct":-1,"choice":-1,"rt":-1,"accuracy":1,"outcome":"+10","keys":[],"total_keys":0,"block":1,"trial":74,"stimulus":5,"robot":2,"valence":"win","action":"no-go","sham":0,"trial_type":"pit-trial","trial_index":104,"time_elapsed":655005,"internal_node_id":"0.0-79.0","task_version":"battery-v0.2-trt","session":2},{"rune":"B","rune_set":"elianto","hex":"#f73b6a7A","correct":-1,"choice":-1,"rt":-1,"accuracy":1,"outcome":"-1","keys":[],"total_keys":0,"block":1,"trial":75,"stimulus":6,"robot":4,"valence":"lose","action":"no-go","sham":0,"trial_type":"pit-trial","trial_index":105,"time_elapsed":659013,"internal_node_id":"0.0-80.0","task_version":"battery-v0.2-trt","session":2},{"rune":"X","rune_set":"elianto","hex":"#3366ff99","correct":32,"choice":32,"rt":585.3750000242144,"accuracy":1,"outcome":"+10","keys":[2087.1599999954924],"total_keys":1,"block":1,"trial":76,"stimulus":8,"robot":1,"valence":"win","action":"go","sham":0,"trial_type":"pit-trial","trial_index":106,"time_elapsed":662305,"internal_node_id":"0.0-81.0","task_version":"battery-v0.2-trt","session":2},{"rune":"T","rune_set":"elianto","hex":"#3366ff99","correct":32,"choice":32,"rt":701.4149999886286,"accuracy":1,"outcome":"+10","keys":[2201.7499999783468],"total_keys":1,"block":1,"trial":77,"stimulus":7,"robot":1,"valence":"win","action":"go","sham":0,"trial_type":"pit-trial","trial_index":107,"time_elapsed":665712,"internal_node_id":"0.0-82.0","task_version":"battery-v0.2-trt","session":2},{"rune":"X","rune_set":"elianto","hex":"#3366ff99","correct":32,"choice":32,"rt":614.6599999919999,"accuracy":1,"outcome":"+10","keys":[2114.9850000219885],"total_keys":1,"block":1,"trial":78,"stimulus":8,"robot":1,"valence":"win","action":"go","sham":0,"trial_type":"pit-trial","trial_index":108,"time_elapsed":669032,"internal_node_id":"0.0-83.0","task_version":"battery-v0.2-trt","session":2},{"rune":"B","rune_set":"elianto","hex":"#f73b6a7A","correct":-1,"choice":-1,"rt":-1,"accuracy":1,"outcome":"-1","keys":[],"total_keys":0,"block":1,"trial":79,"stimulus":6,"robot":4,"valence":"lose","action":"no-go","sham":0,"trial_type":"pit-trial","trial_index":109,"time_elapsed":673039,"internal_node_id":"0.0-84.0","task_version":"battery-v0.2-trt","session":2},{"rune":"C","rune_set":"elianto","hex":"#3366ff99","correct":-1,"choice":-1,"rt":-1,"accuracy":1,"outcome":"+10","keys":[],"total_keys":0,"block":1,"trial":80,"stimulus":5,"robot":2,"valence":"win","action":"no-go","sham":0,"trial_type":"pit-trial","trial_index":110,"time_elapsed":677046,"internal_node_id":"0.0-85.0","task_version":"battery-v0.2-trt","session":2},{"rune":"X","rune_set":"elianto","hex":"#3366ff99","correct":32,"choice":32,"rt":553.0149999831337,"accuracy":1,"outcome":"+10","keys":[2053.1600000103936],"total_keys":1,"block":1,"trial":81,"stimulus":8,"robot":1,"valence":"win","action":"go","sham":0,"trial_type":"pit-trial","trial_index":111,"time_elapsed":680304,"internal_node_id":"0.0-86.0","task_version":"battery-v0.2-trt","session":2},{"rune":"C","rune_set":"elianto","hex":"#3366ff99","correct":-1,"choice":-1,"rt":-1,"accuracy":1,"outcome":"+1","keys":[],"total_keys":0,"block":1,"trial":82,"stimulus":5,"robot":2,"valence":"win","action":"no-go","sham":1,"trial_type":"pit-trial","trial_index":112,"time_elapsed":684310,"internal_node_id":"0.0-87.0","task_version":"battery-v0.2-trt","session":2},{"rune":"F","rune_set":"elianto","hex":"#3366ff99","correct":-1,"choice":-1,"rt":-1,"accuracy":1,"outcome":"+10","keys":[],"total_keys":0,"block":1,"trial":83,"stimulus":9,"robot":2,"valence":"win","action":"no-go","sham":0,"trial_type":"pit-trial","trial_index":113,"time_elapsed":688314,"internal_node_id":"0.0-88.0","task_version":"battery-v0.2-trt","session":2},{"rune":"N","rune_set":"elianto","hex":"#f73b6a7A","correct":32,"choice":-1,"rt":-1,"accuracy":0,"outcome":"-10","keys":[],"total_keys":0,"block":1,"trial":84,"stimulus":10,"robot":3,"valence":"lose","action":"go","sham":0,"trial_type":"pit-trial","trial_index":114,"time_elapsed":692321,"internal_node_id":"0.0-89.0","task_version":"battery-v0.2-trt","session":2},{"rune":"N","rune_set":"elianto","hex":"#f73b6a7A","correct":32,"choice":32,"rt":1036.1750000156462,"accuracy":1,"outcome":"-1","keys":[2537.000000011176],"total_keys":1,"block":1,"trial":85,"stimulus":10,"robot":3,"valence":"lose","action":"go","sham":0,"trial_type":"pit-trial","trial_index":115,"time_elapsed":696061,"internal_node_id":"0.0-90.0","task_version":"battery-v0.2-trt","session":2},{"rune":"C","rune_set":"elianto","hex":"#3366ff99","correct":-1,"choice":-1,"rt":-1,"accuracy":1,"outcome":"+10","keys":[],"total_keys":0,"block":1,"trial":86,"stimulus":5,"robot":2,"valence":"win","action":"no-go","sham":0,"trial_type":"pit-trial","trial_index":116,"time_elapsed":700067,"internal_node_id":"0.0-91.0","task_version":"battery-v0.2-trt","session":2},{"rune":"F","rune_set":"elianto","hex":"#3366ff99","correct":-1,"choice":-1,"rt":-1,"accuracy":1,"outcome":"+10","keys":[],"total_keys":0,"block":1,"trial":87,"stimulus":9,"robot":2,"valence":"win","action":"no-go","sham":0,"trial_type":"pit-trial","trial_index":117,"time_elapsed":704080,"internal_node_id":"0.0-92.0","task_version":"battery-v0.2-trt","session":2},{"rune":"X","rune_set":"elianto","hex":"#3366ff99","correct":32,"choice":32,"rt":1091.5099999983795,"accuracy":1,"outcome":"+10","keys":[2592.1199999866076],"total_keys":1,"block":1,"trial":88,"stimulus":8,"robot":1,"valence":"win","action":"go","sham":0,"trial_type":"pit-trial","trial_index":118,"time_elapsed":707879,"internal_node_id":"0.0-93.0","task_version":"battery-v0.2-trt","session":2},{"rune":"N","rune_set":"elianto","hex":"#f73b6a7A","correct":32,"choice":-1,"rt":-1,"accuracy":0,"outcome":"-10","keys":[2991.455000010319],"total_keys":1,"block":1,"trial":89,"stimulus":10,"robot":3,"valence":"lose","action":"go","sham":0,"trial_type":"pit-trial","trial_index":119,"time_elapsed":711886,"internal_node_id":"0.0-94.0","task_version":"battery-v0.2-trt","session":2},{"rune":"F","rune_set":"elianto","hex":"#3366ff99","correct":-1,"choice":-1,"rt":-1,"accuracy":1,"outcome":"+10","keys":[],"total_keys":0,"block":1,"trial":90,"stimulus":9,"robot":2,"valence":"win","action":"no-go","sham":0,"trial_type":"pit-trial","trial_index":120,"time_elapsed":715892,"internal_node_id":"0.0-95.0","task_version":"battery-v0.2-trt","session":2},{"rune":"X","rune_set":"elianto","hex":"#3366ff99","correct":32,"choice":32,"rt":668.3600000105798,"accuracy":1,"outcome":"+10","keys":[2169.3749999976717],"total_keys":1,"block":1,"trial":91,"stimulus":8,"robot":1,"valence":"win","action":"go","sham":0,"trial_type":"pit-trial","trial_index":121,"time_elapsed":719269,"internal_node_id":"0.0-96.0","task_version":"battery-v0.2-trt","session":2},{"rune":"Q","rune_set":"elianto","hex":"#3366ff99","correct":-1,"choice":-1,"rt":-1,"accuracy":1,"outcome":"+10","keys":[],"total_keys":0,"block":1,"trial":92,"stimulus":11,"robot":2,"valence":"win","action":"no-go","sham":0,"trial_type":"pit-trial","trial_index":122,"time_elapsed":723276,"internal_node_id":"0.0-97.0","task_version":"battery-v0.2-trt","session":2},{"rune":"F","rune_set":"elianto","hex":"#3366ff99","correct":-1,"choice":-1,"rt":-1,"accuracy":1,"outcome":"+1","keys":[],"total_keys":0,"block":1,"trial":93,"stimulus":9,"robot":2,"valence":"win","action":"no-go","sham":1,"trial_type":"pit-trial","trial_index":123,"time_elapsed":727284,"internal_node_id":"0.0-98.0","task_version":"battery-v0.2-trt","session":2},{"rune":"X","rune_set":"elianto","hex":"#3366ff99","correct":32,"choice":32,"rt":444.80500000645407,"accuracy":1,"outcome":"+10","keys":[1945.060000027297],"total_keys":1,"block":1,"trial":94,"stimulus":8,"robot":1,"valence":"win","action":"go","sham":0,"trial_type":"pit-trial","trial_index":124,"time_elapsed":730434,"internal_node_id":"0.0-99.0","task_version":"battery-v0.2-trt","session":2},{"rune":"Q","rune_set":"elianto","hex":"#3366ff99","correct":-1,"choice":-1,"rt":-1,"accuracy":1,"outcome":"+10","keys":[],"total_keys":0,"block":1,"trial":95,"stimulus":11,"robot":2,"valence":"win","action":"no-go","sham":0,"trial_type":"pit-trial","trial_index":125,"time_elapsed":734440,"internal_node_id":"0.0-100.0","task_version":"battery-v0.2-trt","session":2},{"rune":"N","rune_set":"elianto","hex":"#f73b6a7A","correct":32,"choice":32,"rt":651.9199999747798,"accuracy":1,"outcome":"-1","keys":[2151.994999992894],"total_keys":1,"block":1,"trial":96,"stimulus":10,"robot":3,"valence":"lose","action":"go","sham":0,"trial_type":"pit-trial","trial_index":126,"time_elapsed":737799,"internal_node_id":"0.0-101.0","task_version":"battery-v0.2-trt","session":2},{"rune":"F","rune_set":"elianto","hex":"#3366ff99","correct":-1,"choice":-1,"rt":-1,"accuracy":1,"outcome":"+10","keys":[],"total_keys":0,"block":1,"trial":97,"stimulus":9,"robot":2,"valence":"win","action":"no-go","sham":0,"trial_type":"pit-trial","trial_index":127,"time_elapsed":741806,"internal_node_id":"0.0-102.0","task_version":"battery-v0.2-trt","session":2},{"rune":"Q","rune_set":"elianto","hex":"#3366ff99","correct":-1,"choice":-1,"rt":-1,"accuracy":1,"outcome":"+1","keys":[],"total_keys":0,"block":1,"trial":98,"stimulus":11,"robot":2,"valence":"win","action":"no-go","sham":1,"trial_type":"pit-trial","trial_index":128,"time_elapsed":745811,"internal_node_id":"0.0-103.0","task_version":"battery-v0.2-trt","session":2},{"rune":"N","rune_set":"elianto","hex":"#f73b6a7A","correct":32,"choice":32,"rt":852.519999985816,"accuracy":1,"outcome":"-1","keys":[2352.660000004107],"total_keys":1,"block":1,"trial":99,"stimulus":10,"robot":3,"valence":"lose","action":"go","sham":0,"trial_type":"pit-trial","trial_index":129,"time_elapsed":749368,"internal_node_id":"0.0-104.0","task_version":"battery-v0.2-trt","session":2},{"rune":"X","rune_set":"elianto","hex":"#3366ff99","correct":32,"choice":32,"rt":575.4050000105053,"accuracy":1,"outcome":"+10","keys":[2075.7900000025984],"total_keys":1,"block":1,"trial":100,"stimulus":8,"robot":1,"valence":"win","action":"go","sham":0,"trial_type":"pit-trial","trial_index":130,"time_elapsed":752651,"internal_node_id":"0.0-105.0","task_version":"battery-v0.2-trt","session":2},{"rune":"Q","rune_set":"elianto","hex":"#3366ff99","correct":-1,"choice":-1,"rt":-1,"accuracy":1,"outcome":"+1","keys":[],"total_keys":0,"block":1,"trial":101,"stimulus":11,"robot":2,"valence":"win","action":"no-go","sham":1,"trial_type":"pit-trial","trial_index":131,"time_elapsed":756655,"internal_node_id":"0.0-106.0","task_version":"battery-v0.2-trt","session":2},{"rune":"N","rune_set":"elianto","hex":"#f73b6a7A","correct":32,"choice":32,"rt":573.2500000158325,"accuracy":1,"outcome":"-1","keys":[2073.6899999901652],"total_keys":1,"block":1,"trial":102,"stimulus":10,"robot":3,"valence":"lose","action":"go","sham":0,"trial_type":"pit-trial","trial_index":132,"time_elapsed":759933,"internal_node_id":"0.0-107.0","task_version":"battery-v0.2-trt","session":2},{"rune":"X","rune_set":"elianto","hex":"#3366ff99","correct":32,"choice":32,"rt":590.0450000190176,"accuracy":1,"outcome":"+1","keys":[2091.5399999939837],"total_keys":1,"block":1,"trial":103,"stimulus":8,"robot":1,"valence":"win","action":"go","sham":1,"trial_type":"pit-trial","trial_index":133,"time_elapsed":763231,"internal_node_id":"0.0-108.0","task_version":"battery-v0.2-trt","session":2},{"rune":"F","rune_set":"elianto","hex":"#3366ff99","correct":-1,"choice":-1,"rt":-1,"accuracy":1,"outcome":"+10","keys":[],"total_keys":0,"block":1,"trial":104,"stimulus":9,"robot":2,"valence":"win","action":"no-go","sham":0,"trial_type":"pit-trial","trial_index":134,"time_elapsed":767236,"internal_node_id":"0.0-109.0","task_version":"battery-v0.2-trt","session":2},{"rune":"N","rune_set":"elianto","hex":"#f73b6a7A","correct":32,"choice":32,"rt":615.6299999856856,"accuracy":1,"outcome":"-1","keys":[2116.3150000211317],"total_keys":1,"block":1,"trial":105,"stimulus":10,"robot":3,"valence":"lose","action":"go","sham":0,"trial_type":"pit-trial","trial_index":135,"time_elapsed":770557,"internal_node_id":"0.0-110.0","task_version":"battery-v0.2-trt","session":2},{"rune":"F","rune_set":"elianto","hex":"#3366ff99","correct":-1,"choice":-1,"rt":-1,"accuracy":1,"outcome":"+10","keys":[],"total_keys":0,"block":1,"trial":106,"stimulus":9,"robot":2,"valence":"win","action":"no-go","sham":0,"trial_type":"pit-trial","trial_index":136,"time_elapsed":774563,"internal_node_id":"0.0-111.0","task_version":"battery-v0.2-trt","session":2},{"rune":"Q","rune_set":"elianto","hex":"#3366ff99","correct":-1,"choice":-1,"rt":-1,"accuracy":1,"outcome":"+1","keys":[],"total_keys":0,"block":1,"trial":107,"stimulus":11,"robot":2,"valence":"win","action":"no-go","sham":1,"trial_type":"pit-trial","trial_index":137,"time_elapsed":778568,"internal_node_id":"0.0-112.0","task_version":"battery-v0.2-trt","session":2},{"rune":"X","rune_set":"elianto","hex":"#3366ff99","correct":32,"choice":32,"rt":427.1500000031665,"accuracy":1,"outcome":"+10","keys":[1927.4299999815412],"total_keys":1,"block":1,"trial":108,"stimulus":8,"robot":1,"valence":"win","action":"go","sham":0,"trial_type":"pit-trial","trial_index":138,"time_elapsed":781701,"internal_node_id":"0.0-113.0","task_version":"battery-v0.2-trt","session":2},{"rune":"Q","rune_set":"elianto","hex":"#3366ff99","correct":-1,"choice":-1,"rt":-1,"accuracy":1,"outcome":"+10","keys":[],"total_keys":0,"block":1,"trial":109,"stimulus":11,"robot":2,"valence":"win","action":"no-go","sham":0,"trial_type":"pit-trial","trial_index":139,"time_elapsed":785708,"internal_node_id":"0.0-114.0","task_version":"battery-v0.2-trt","session":2},{"rune":"F","rune_set":"elianto","hex":"#3366ff99","correct":-1,"choice":-1,"rt":-1,"accuracy":1,"outcome":"+10","keys":[],"total_keys":0,"block":1,"trial":110,"stimulus":9,"robot":2,"valence":"win","action":"no-go","sham":0,"trial_type":"pit-trial","trial_index":140,"time_elapsed":789713,"internal_node_id":"0.0-115.0","task_version":"battery-v0.2-trt","session":2},{"rune":"N","rune_set":"elianto","hex":"#f73b6a7A","correct":32,"choice":32,"rt":506.9399999920279,"accuracy":1,"outcome":"-1","keys":[2008.1850000133272],"total_keys":1,"block":1,"trial":111,"stimulus":10,"robot":3,"valence":"lose","action":"go","sham":0,"trial_type":"pit-trial","trial_index":141,"time_elapsed":792926,"internal_node_id":"0.0-116.0","task_version":"battery-v0.2-trt","session":2},{"rune":"X","rune_set":"elianto","hex":"#3366ff99","correct":32,"choice":32,"rt":429.6650000032969,"accuracy":1,"outcome":"+1","keys":[1930.7649999973364],"total_keys":1,"block":1,"trial":112,"stimulus":8,"robot":1,"valence":"win","action":"go","sham":1,"trial_type":"pit-trial","trial_index":142,"time_elapsed":796062,"internal_node_id":"0.0-117.0","task_version":"battery-v0.2-trt","session":2},{"rune":"N","rune_set":"elianto","hex":"#f73b6a7A","correct":32,"choice":32,"rt":483.7699999916367,"accuracy":1,"outcome":"-1","keys":[1985.4249999916647],"total_keys":1,"block":1,"trial":113,"stimulus":10,"robot":3,"valence":"lose","action":"go","sham":0,"trial_type":"pit-trial","trial_index":143,"time_elapsed":799254,"internal_node_id":"0.0-118.0","task_version":"battery-v0.2-trt","session":2},{"rune":"Q","rune_set":"elianto","hex":"#3366ff99","correct":-1,"choice":-1,"rt":-1,"accuracy":1,"outcome":"+10","keys":[],"total_keys":0,"block":1,"trial":114,"stimulus":11,"robot":2,"valence":"win","action":"no-go","sham":0,"trial_type":"pit-trial","trial_index":144,"time_elapsed":803260,"internal_node_id":"0.0-119.0","task_version":"battery-v0.2-trt","session":2},{"rune":"X","rune_set":"elianto","hex":"#3366ff99","correct":32,"choice":32,"rt":876.8050000071526,"accuracy":1,"outcome":"+10","keys":[2377.7349999872968],"total_keys":1,"block":1,"trial":115,"stimulus":8,"robot":1,"valence":"win","action":"go","sham":0,"trial_type":"pit-trial","trial_index":145,"time_elapsed":806843,"internal_node_id":"0.0-120.0","task_version":"battery-v0.2-trt","session":2},{"rune":"F","rune_set":"elianto","hex":"#3366ff99","correct":-1,"choice":-1,"rt":-1,"accuracy":1,"outcome":"+10","keys":[],"total_keys":0,"block":1,"trial":116,"stimulus":9,"robot":2,"valence":"win","action":"no-go","sham":0,"trial_type":"pit-trial","trial_index":146,"time_elapsed":810848,"internal_node_id":"0.0-121.0","task_version":"battery-v0.2-trt","session":2},{"rune":"F","rune_set":"elianto","hex":"#3366ff99","correct":-1,"choice":-1,"rt":-1,"accuracy":1,"outcome":"+10","keys":[],"total_keys":0,"block":1,"trial":117,"stimulus":9,"robot":2,"valence":"win","action":"no-go","sham":0,"trial_type":"pit-trial","trial_index":147,"time_elapsed":814854,"internal_node_id":"0.0-122.0","task_version":"battery-v0.2-trt","session":2},{"rune":"Q","rune_set":"elianto","hex":"#3366ff99","correct":-1,"choice":-1,"rt":-1,"accuracy":1,"outcome":"+10","keys":[],"total_keys":0,"block":1,"trial":118,"stimulus":11,"robot":2,"valence":"win","action":"no-go","sham":0,"trial_type":"pit-trial","trial_index":148,"time_elapsed":818859,"internal_node_id":"0.0-123.0","task_version":"battery-v0.2-trt","session":2},{"rune":"X","rune_set":"elianto","hex":"#3366ff99","correct":32,"choice":32,"rt":546.5499999991152,"accuracy":1,"outcome":"+1","keys":[2047.2650000010617],"total_keys":1,"block":1,"trial":119,"stimulus":8,"robot":1,"valence":"win","action":"go","sham":1,"trial_type":"pit-trial","trial_index":149,"time_elapsed":822111,"internal_node_id":"0.0-124.0","task_version":"battery-v0.2-trt","session":2},{"rune":"N","rune_set":"elianto","hex":"#f73b6a7A","correct":32,"choice":32,"rt":524.6749999932945,"accuracy":1,"outcome":"-1","keys":[2025.02000000095],"total_keys":1,"block":1,"trial":120,"stimulus":10,"robot":3,"valence":"lose","action":"go","sham":0,"trial_type":"pit-trial","trial_index":150,"time_elapsed":825341,"internal_node_id":"0.0-125.0","task_version":"battery-v0.2-trt","session":2},{"view_history":"[{\"page_index\":0,\"viewing_time\":320513.9799999888},{\"page_index\":1,\"viewing_time\":1339.2999999923632}]","rt":321853.7999999826,"trial_type":"pit-instructions","trial_index":151,"time_elapsed":1147199,"internal_node_id":"0.0-126.0","task_version":"battery-v0.2-trt","session":2},{"rune":"K","rune_set":"elianto","hex":"#3366ff99","correct":-1,"choice":32,"rt":464.5299999974668,"accuracy":0,"outcome":"+1","keys":[1965.505000000121],"total_keys":1,"block":2,"trial":121,"stimulus":3,"robot":2,"valence":"win","action":"no-go","sham":0,"trial_type":"pit-trial","trial_index":152,"time_elapsed":1150375,"internal_node_id":"0.0-127.0","task_version":"battery-v0.2-trt","session":2},{"rune":"V","rune_set":"elianto","hex":"#3366ff99","correct":32,"choice":32,"rt":272.94500000425614,"accuracy":1,"outcome":"+10","keys":[1773.7449999840464],"total_keys":1,"block":2,"trial":122,"stimulus":0,"robot":1,"valence":"win","action":"go","sham":0,"trial_type":"pit-trial","trial_index":153,"time_elapsed":1153356,"internal_node_id":"0.0-128.0","task_version":"battery-v0.2-trt","session":2},{"rune":"D","rune_set":"elianto","hex":"#f73b6a7A","correct":-1,"choice":32,"rt":310.90000001131557,"accuracy":0,"outcome":"-1","keys":[1812.255000026198],"total_keys":1,"block":2,"trial":123,"stimulus":2,"robot":4,"valence":"lose","action":"no-go","sham":1,"trial_type":"pit-trial","trial_index":154,"time_elapsed":1156373,"internal_node_id":"0.0-129.0","task_version":"battery-v0.2-trt","session":2},{"rune":"J","rune_set":"elianto","hex":"#f73b6a7A","correct":32,"choice":32,"rt":672.1149999939371,"accuracy":1,"outcome":"-1","keys":[2174.009999987902],"total_keys":1,"block":2,"trial":124,"stimulus":1,"robot":3,"valence":"lose","action":"go","sham":0,"trial_type":"pit-trial","trial_index":155,"time_elapsed":1159752,"internal_node_id":"0.0-130.0","task_version":"battery-v0.2-trt","session":2},{"rune":"K","rune_set":"elianto","hex":"#3366ff99","correct":-1,"choice":32,"rt":911.4499999850523,"accuracy":0,"outcome":"+10","keys":[2411.804999981541],"total_keys":1,"block":2,"trial":125,"stimulus":3,"robot":2,"valence":"win","action":"no-go","sham":1,"trial_type":"pit-trial","trial_index":156,"time_elapsed":1163369,"internal_node_id":"0.0-131.0","task_version":"battery-v0.2-trt","session":2},{"rune":"D","rune_set":"elianto","hex":"#f73b6a7A","correct":-1,"choice":32,"rt":558.3800000022165,"accuracy":0,"outcome":"-10","keys":[2059.189999999944],"total_keys":1,"block":2,"trial":126,"stimulus":2,"robot":4,"valence":"lose","action":"no-go","sham":0,"trial_type":"pit-trial","trial_index":157,"time_elapsed":1166634,"internal_node_id":"0.0-132.0","task_version":"battery-v0.2-trt","session":2},{"rune":"V","rune_set":"elianto","hex":"#3366ff99","correct":32,"choice":32,"rt":576.6099999891594,"accuracy":1,"outcome":"+10","keys":[2077.919999981532],"total_keys":1,"block":2,"trial":127,"stimulus":0,"robot":1,"valence":"win","action":"go","sham":0,"trial_type":"pit-trial","trial_index":158,"time_elapsed":1169917,"internal_node_id":"0.0-133.0","task_version":"battery-v0.2-trt","session":2},{"rune":"J","rune_set":"elianto","hex":"#f73b6a7A","correct":32,"choice":32,"rt":469.1900000034366,"accuracy":1,"outcome":"-1","keys":[1969.4500000041444],"total_keys":1,"block":2,"trial":128,"stimulus":1,"robot":3,"valence":"lose","action":"go","sham":0,"trial_type":"pit-trial","trial_index":159,"time_elapsed":1173091,"internal_node_id":"0.0-134.0","task_version":"battery-v0.2-trt","session":2},{"rune":"J","rune_set":"elianto","hex":"#f73b6a7A","correct":32,"choice":32,"rt":457.974999997532,"accuracy":1,"outcome":"-1","keys":[1959.659999993164],"total_keys":1,"block":2,"trial":129,"stimulus":1,"robot":3,"valence":"lose","action":"go","sham":0,"trial_type":"pit-trial","trial_index":160,"time_elapsed":1176255,"internal_node_id":"0.0-135.0","task_version":"battery-v0.2-trt","session":2},{"rune":"K","rune_set":"elianto","hex":"#3366ff99","correct":-1,"choice":32,"rt":737.569999997504,"accuracy":0,"outcome":"+1","keys":[2237.794999993639],"total_keys":1,"block":2,"trial":130,"stimulus":3,"robot":2,"valence":"win","action":"no-go","sham":0,"trial_type":"pit-trial","trial_index":161,"time_elapsed":1179698,"internal_node_id":"0.0-136.0","task_version":"battery-v0.2-trt","session":2},{"rune":"D","rune_set":"elianto","hex":"#f73b6a7A","correct":-1,"choice":-1,"rt":-1,"accuracy":1,"outcome":"-10","keys":[],"total_keys":0,"block":2,"trial":131,"stimulus":2,"robot":4,"valence":"lose","action":"no-go","sham":1,"trial_type":"pit-trial","trial_index":162,"time_elapsed":1183706,"internal_node_id":"0.0-137.0","task_version":"battery-v0.2-trt","session":2},{"rune":"V","rune_set":"elianto","hex":"#3366ff99","correct":32,"choice":32,"rt":420.85499997483566,"accuracy":1,"outcome":"+10","keys":[1922.4150000081863],"total_keys":1,"block":2,"trial":132,"stimulus":0,"robot":1,"valence":"win","action":"go","sham":0,"trial_type":"pit-trial","trial_index":163,"time_elapsed":1186833,"internal_node_id":"0.0-138.0","task_version":"battery-v0.2-trt","session":2},{"rune":"D","rune_set":"elianto","hex":"#f73b6a7A","correct":-1,"choice":32,"rt":435.6499999994412,"accuracy":0,"outcome":"-10","keys":[1936.069999996107],"total_keys":1,"block":2,"trial":133,"stimulus":2,"robot":4,"valence":"lose","action":"no-go","sham":0,"trial_type":"pit-trial","trial_index":164,"time_elapsed":1189974,"internal_node_id":"0.0-139.0","task_version":"battery-v0.2-trt","session":2},{"rune":"V","rune_set":"elianto","hex":"#3366ff99","correct":32,"choice":32,"rt":528.874999989057,"accuracy":1,"outcome":"+1","keys":[2030.0049999787007],"total_keys":1,"block":2,"trial":134,"stimulus":0,"robot":1,"valence":"win","action":"go","sham":1,"trial_type":"pit-trial","trial_index":165,"time_elapsed":1193208,"internal_node_id":"0.0-140.0","task_version":"battery-v0.2-trt","session":2},{"rune":"K","rune_set":"elianto","hex":"#3366ff99","correct":-1,"choice":-1,"rt":-1,"accuracy":1,"outcome":"+10","keys":[],"total_keys":0,"block":2,"trial":135,"stimulus":3,"robot":2,"valence":"win","action":"no-go","sham":0,"trial_type":"pit-trial","trial_index":166,"time_elapsed":1197214,"internal_node_id":"0.0-141.0","task_version":"battery-v0.2-trt","session":2},{"rune":"J","rune_set":"elianto","hex":"#f73b6a7A","correct":32,"choice":32,"rt":626.4549999905284,"accuracy":1,"outcome":"-10","keys":[2127.6850000140257],"total_keys":1,"block":2,"trial":136,"stimulus":1,"robot":3,"valence":"lose","action":"go","sham":1,"trial_type":"pit-trial","trial_index":167,"time_elapsed":1200549,"internal_node_id":"0.0-142.0","task_version":"battery-v0.2-trt","session":2},{"rune":"V","rune_set":"elianto","hex":"#3366ff99","correct":32,"choice":32,"rt":487.5400000018999,"accuracy":1,"outcome":"+1","keys":[1988.8349999964703],"total_keys":1,"block":2,"trial":137,"stimulus":0,"robot":1,"valence":"win","action":"go","sham":1,"trial_type":"pit-trial","trial_index":168,"time_elapsed":1203743,"internal_node_id":"0.0-143.0","task_version":"battery-v0.2-trt","session":2},{"rune":"J","rune_set":"elianto","hex":"#f73b6a7A","correct":32,"choice":32,"rt":403.6249999771826,"accuracy":1,"outcome":"-10","keys":[1904.4599999906495],"total_keys":1,"block":2,"trial":138,"stimulus":1,"robot":3,"valence":"lose","action":"go","sham":1,"trial_type":"pit-trial","trial_index":169,"time_elapsed":1206851,"internal_node_id":"0.0-144.0","task_version":"battery-v0.2-trt","session":2},{"rune":"K","rune_set":"elianto","hex":"#3366ff99","correct":-1,"choice":32,"rt":724.8350000008941,"accuracy":0,"outcome":"+10","keys":[2224.8750000144355],"total_keys":1,"block":2,"trial":139,"stimulus":3,"robot":2,"valence":"win","action":"no-go","sham":1,"trial_type":"pit-trial","trial_index":170,"time_elapsed":1210281,"internal_node_id":"0.0-145.0","task_version":"battery-v0.2-trt","session":2},{"rune":"D","rune_set":"elianto","hex":"#f73b6a7A","correct":-1,"choice":-1,"rt":-1,"accuracy":1,"outcome":"-1","keys":[],"total_keys":0,"block":2,"trial":140,"stimulus":2,"robot":4,"valence":"lose","action":"no-go","sham":0,"trial_type":"pit-trial","trial_index":171,"time_elapsed":1214288,"internal_node_id":"0.0-146.0","task_version":"battery-v0.2-trt","session":2},{"rune":"K","rune_set":"elianto","hex":"#3366ff99","correct":-1,"choice":32,"rt":508.9849999931175,"accuracy":0,"outcome":"+1","keys":[2010.3750000125729],"total_keys":1,"block":2,"trial":141,"stimulus":3,"robot":2,"valence":"win","action":"no-go","sham":0,"trial_type":"pit-trial","trial_index":172,"time_elapsed":1217503,"internal_node_id":"0.0-147.0","task_version":"battery-v0.2-trt","session":2},{"rune":"J","rune_set":"elianto","hex":"#f73b6a7A","correct":32,"choice":-1,"rt":-1,"accuracy":0,"outcome":"-10","keys":[],"total_keys":0,"block":2,"trial":142,"stimulus":1,"robot":3,"valence":"lose","action":"go","sham":0,"trial_type":"pit-trial","trial_index":173,"time_elapsed":1221508,"internal_node_id":"0.0-148.0","task_version":"battery-v0.2-trt","session":2},{"rune":"V","rune_set":"elianto","hex":"#3366ff99","correct":32,"choice":-1,"rt":-1,"accuracy":0,"outcome":"+1","keys":[],"total_keys":0,"block":2,"trial":143,"stimulus":0,"robot":1,"valence":"win","action":"go","sham":0,"trial_type":"pit-trial","trial_index":174,"time_elapsed":1225515,"internal_node_id":"0.0-149.0","task_version":"battery-v0.2-trt","session":2},{"rune":"D","rune_set":"elianto","hex":"#f73b6a7A","correct":-1,"choice":-1,"rt":-1,"accuracy":1,"outcome":"-1","keys":[],"total_keys":0,"block":2,"trial":144,"stimulus":2,"robot":4,"valence":"lose","action":"no-go","sham":0,"trial_type":"pit-trial","trial_index":175,"time_elapsed":1229523,"internal_node_id":"0.0-150.0","task_version":"battery-v0.2-trt","session":2},{"rune":"V","rune_set":"elianto","hex":"#3366ff99","correct":32,"choice":32,"rt":459.4900000083726,"accuracy":1,"outcome":"+10","keys":[1960.85000000312],"total_keys":1,"block":2,"trial":145,"stimulus":0,"robot":1,"valence":"win","action":"go","sham":0,"trial_type":"pit-trial","trial_index":176,"time_elapsed":1232688,"internal_node_id":"0.0-151.0","task_version":"battery-v0.2-trt","session":2},{"rune":"J","rune_set":"elianto","hex":"#f73b6a7A","correct":32,"choice":32,"rt":630.7249999954365,"accuracy":1,"outcome":"-1","keys":[2131.120000005467],"total_keys":1,"block":2,"trial":146,"stimulus":1,"robot":3,"valence":"lose","action":"go","sham":0,"trial_type":"pit-trial","trial_index":177,"time_elapsed":1236024,"internal_node_id":"0.0-152.0","task_version":"battery-v0.2-trt","session":2},{"rune":"K","rune_set":"elianto","hex":"#3366ff99","correct":-1,"choice":32,"rt":418.73999999370426,"accuracy":0,"outcome":"+1","keys":[1920.364999998128],"total_keys":1,"block":2,"trial":147,"stimulus":3,"robot":2,"valence":"win","action":"no-go","sham":0,"trial_type":"pit-trial","trial_index":178,"time_elapsed":1239151,"internal_node_id":"0.0-153.0","task_version":"battery-v0.2-trt","session":2},{"rune":"D","rune_set":"elianto","hex":"#f73b6a7A","correct":-1,"choice":-1,"rt":-1,"accuracy":1,"outcome":"-1","keys":[],"total_keys":0,"block":2,"trial":148,"stimulus":2,"robot":4,"valence":"lose","action":"no-go","sham":0,"trial_type":"pit-trial","trial_index":179,"time_elapsed":1243157,"internal_node_id":"0.0-154.0","task_version":"battery-v0.2-trt","session":2},{"rune":"K","rune_set":"elianto","hex":"#3366ff99","correct":-1,"choice":-1,"rt":-1,"accuracy":1,"outcome":"+10","keys":[],"total_keys":0,"block":2,"trial":149,"stimulus":3,"robot":2,"valence":"win","action":"no-go","sham":0,"trial_type":"pit-trial","trial_index":180,"time_elapsed":1247163,"internal_node_id":"0.0-155.0","task_version":"battery-v0.2-trt","session":2},{"rune":"D","rune_set":"elianto","hex":"#f73b6a7A","correct":-1,"choice":-1,"rt":-1,"accuracy":1,"outcome":"-1","keys":[],"total_keys":0,"block":2,"trial":150,"stimulus":2,"robot":4,"valence":"lose","action":"no-go","sham":0,"trial_type":"pit-trial","trial_index":181,"time_elapsed":1251168,"internal_node_id":"0.0-156.0","task_version":"battery-v0.2-trt","session":2},{"rune":"J","rune_set":"elianto","hex":"#f73b6a7A","correct":32,"choice":32,"rt":494.34000000474043,"accuracy":1,"outcome":"-1","keys":[1995.8150000020396],"total_keys":1,"block":2,"trial":151,"stimulus":1,"robot":3,"valence":"lose","action":"go","sham":0,"trial_type":"pit-trial","trial_index":182,"time_elapsed":1254371,"internal_node_id":"0.0-157.0","task_version":"battery-v0.2-trt","session":2},{"rune":"V","rune_set":"elianto","hex":"#3366ff99","correct":32,"choice":32,"rt":446.6450000181794,"accuracy":1,"outcome":"+10","keys":[1947.7100000076462],"total_keys":1,"block":2,"trial":152,"stimulus":0,"robot":1,"valence":"win","action":"go","sham":0,"trial_type":"pit-trial","trial_index":183,"time_elapsed":1257523,"internal_node_id":"0.0-158.0","task_version":"battery-v0.2-trt","session":2},{"rune":"E","rune_set":"elianto","hex":"#f73b6a7A","correct":-1,"choice":32,"rt":961.6199999873061,"accuracy":0,"outcome":"-10","keys":[2462.229999975534],"total_keys":1,"block":2,"trial":153,"stimulus":4,"robot":4,"valence":"lose","action":"no-go","sham":0,"trial_type":"pit-trial","trial_index":184,"time_elapsed":1261190,"internal_node_id":"0.0-159.0","task_version":"battery-v0.2-trt","session":2},{"rune":"J","rune_set":"elianto","hex":"#f73b6a7A","correct":32,"choice":32,"rt":693.3349999890197,"accuracy":1,"outcome":"-10","keys":[2194.134999997914],"total_keys":1,"block":2,"trial":154,"stimulus":1,"robot":3,"valence":"lose","action":"go","sham":1,"trial_type":"pit-trial","trial_index":185,"time_elapsed":1264588,"internal_node_id":"0.0-160.0","task_version":"battery-v0.2-trt","session":2},{"rune":"V","rune_set":"elianto","hex":"#3366ff99","correct":32,"choice":32,"rt":568.4600000095088,"accuracy":1,"outcome":"+10","keys":[2068.619999976363],"total_keys":1,"block":2,"trial":155,"stimulus":0,"robot":1,"valence":"win","action":"go","sham":0,"trial_type":"pit-trial","trial_index":186,"time_elapsed":1267864,"internal_node_id":"0.0-161.0","task_version":"battery-v0.2-trt","session":2},{"rune":"K","rune_set":"elianto","hex":"#3366ff99","correct":-1,"choice":-1,"rt":-1,"accuracy":1,"outcome":"+1","keys":[],"total_keys":0,"block":2,"trial":156,"stimulus":3,"robot":2,"valence":"win","action":"no-go","sham":1,"trial_type":"pit-trial","trial_index":187,"time_elapsed":1271871,"internal_node_id":"0.0-162.0","task_version":"battery-v0.2-trt","session":2},{"rune":"V","rune_set":"elianto","hex":"#3366ff99","correct":32,"choice":32,"rt":845.5750000139233,"accuracy":1,"outcome":"+10","keys":[2346.835000003921],"total_keys":1,"block":2,"trial":157,"stimulus":0,"robot":1,"valence":"win","action":"go","sham":0,"trial_type":"pit-trial","trial_index":188,"time_elapsed":1275423,"internal_node_id":"0.0-163.0","task_version":"battery-v0.2-trt","session":2},{"rune":"E","rune_set":"elianto","hex":"#f73b6a7A","correct":-1,"choice":32,"rt":755.845000006957,"accuracy":0,"outcome":"-10","keys":[2256.6550000046846],"total_keys":1,"block":2,"trial":158,"stimulus":4,"robot":4,"valence":"lose","action":"no-go","sham":0,"trial_type":"pit-trial","trial_index":189,"time_elapsed":1278887,"internal_node_id":"0.0-164.0","task_version":"battery-v0.2-trt","session":2},{"rune":"J","rune_set":"elianto","hex":"#f73b6a7A","correct":32,"choice":32,"rt":719.1549999988638,"accuracy":1,"outcome":"-1","keys":[2220.005000010133],"total_keys":1,"block":2,"trial":159,"stimulus":1,"robot":3,"valence":"lose","action":"go","sham":0,"trial_type":"pit-trial","trial_index":190,"time_elapsed":1282312,"internal_node_id":"0.0-165.0","task_version":"battery-v0.2-trt","session":2},{"rune":"K","rune_set":"elianto","hex":"#3366ff99","correct":-1,"choice":-1,"rt":-1,"accuracy":1,"outcome":"+1","keys":[],"total_keys":0,"block":2,"trial":160,"stimulus":3,"robot":2,"valence":"win","action":"no-go","sham":1,"trial_type":"pit-trial","trial_index":191,"time_elapsed":1286319,"internal_node_id":"0.0-166.0","task_version":"battery-v0.2-trt","session":2},{"rune":"V","rune_set":"elianto","hex":"#3366ff99","correct":32,"choice":32,"rt":537.9550000070594,"accuracy":1,"outcome":"+10","keys":[2038.9300000097137],"total_keys":1,"block":2,"trial":161,"stimulus":0,"robot":1,"valence":"win","action":"go","sham":0,"trial_type":"pit-trial","trial_index":192,"time_elapsed":1289565,"internal_node_id":"0.0-167.0","task_version":"battery-v0.2-trt","session":2},{"rune":"E","rune_set":"elianto","hex":"#f73b6a7A","correct":-1,"choice":-1,"rt":-1,"accuracy":1,"outcome":"-1","keys":[],"total_keys":0,"block":2,"trial":162,"stimulus":4,"robot":4,"valence":"lose","action":"no-go","sham":0,"trial_type":"pit-trial","trial_index":193,"time_elapsed":1293570,"internal_node_id":"0.0-168.0","task_version":"battery-v0.2-trt","session":2},{"rune":"K","rune_set":"elianto","hex":"#3366ff99","correct":-1,"choice":-1,"rt":-1,"accuracy":1,"outcome":"+10","keys":[],"total_keys":0,"block":2,"trial":163,"stimulus":3,"robot":2,"valence":"win","action":"no-go","sham":0,"trial_type":"pit-trial","trial_index":194,"time_elapsed":1297578,"internal_node_id":"0.0-169.0","task_version":"battery-v0.2-trt","session":2},{"rune":"W","rune_set":"elianto","hex":"#f73b6a7A","correct":32,"choice":32,"rt":1014.1299999959301,"accuracy":1,"outcome":"-1","keys":[2515.1049999985844],"total_keys":1,"block":2,"trial":164,"stimulus":5,"robot":3,"valence":"lose","action":"go","sham":0,"trial_type":"pit-trial","trial_index":195,"time_elapsed":1301300,"internal_node_id":"0.0-170.0","task_version":"battery-v0.2-trt","session":2},{"rune":"E","rune_set":"elianto","hex":"#f73b6a7A","correct":-1,"choice":-1,"rt":-1,"accuracy":1,"outcome":"-1","keys":[],"total_keys":0,"block":2,"trial":165,"stimulus":4,"robot":4,"valence":"lose","action":"no-go","sham":0,"trial_type":"pit-trial","trial_index":196,"time_elapsed":1305307,"internal_node_id":"0.0-171.0","task_version":"battery-v0.2-trt","session":2},{"rune":"W","rune_set":"elianto","hex":"#f73b6a7A","correct":32,"choice":32,"rt":714.0950000029989,"accuracy":1,"outcome":"-1","keys":[2214.9199999985285],"total_keys":1,"block":2,"trial":166,"stimulus":5,"robot":3,"valence":"lose","action":"go","sham":0,"trial_type":"pit-trial","trial_index":197,"time_elapsed":1308728,"internal_node_id":"0.0-172.0","task_version":"battery-v0.2-trt","session":2},{"rune":"K","rune_set":"elianto","hex":"#3366ff99","correct":-1,"choice":-1,"rt":-1,"accuracy":1,"outcome":"+10","keys":[],"total_keys":0,"block":2,"trial":167,"stimulus":3,"robot":2,"valence":"win","action":"no-go","sham":0,"trial_type":"pit-trial","trial_index":198,"time_elapsed":1312734,"internal_node_id":"0.0-173.0","task_version":"battery-v0.2-trt","session":2},{"rune":"V","rune_set":"elianto","hex":"#3366ff99","correct":32,"choice":32,"rt":892.6900000078604,"accuracy":1,"outcome":"+10","keys":[2393.115000013495],"total_keys":1,"block":2,"trial":168,"stimulus":0,"robot":1,"valence":"win","action":"go","sham":0,"trial_type":"pit-trial","trial_index":199,"time_elapsed":1316332,"internal_node_id":"0.0-174.0","task_version":"battery-v0.2-trt","session":2},{"rune":"P","rune_set":"elianto","hex":"#3366ff99","correct":-1,"choice":-1,"rt":-1,"accuracy":1,"outcome":"+10","keys":[],"total_keys":0,"block":2,"trial":169,"stimulus":7,"robot":2,"valence":"win","action":"no-go","sham":0,"trial_type":"pit-trial","trial_index":200,"time_elapsed":1320338,"internal_node_id":"0.0-175.0","task_version":"battery-v0.2-trt","session":2},{"rune":"W","rune_set":"elianto","hex":"#f73b6a7A","correct":32,"choice":32,"rt":713.6450000107288,"accuracy":1,"outcome":"-1","keys":[2214.849999989383],"total_keys":1,"block":2,"trial":170,"stimulus":5,"robot":3,"valence":"lose","action":"go","sham":0,"trial_type":"pit-trial","trial_index":201,"time_elapsed":1323758,"internal_node_id":"0.0-176.0","task_version":"battery-v0.2-trt","session":2},{"rune":"E","rune_set":"elianto","hex":"#f73b6a7A","correct":-1,"choice":-1,"rt":-1,"accuracy":1,"outcome":"-1","keys":[],"total_keys":0,"block":2,"trial":171,"stimulus":4,"robot":4,"valence":"lose","action":"no-go","sham":0,"trial_type":"pit-trial","trial_index":202,"time_elapsed":1327765,"internal_node_id":"0.0-177.0","task_version":"battery-v0.2-trt","session":2},{"rune":"S","rune_set":"elianto","hex":"#3366ff99","correct":-1,"choice":32,"rt":632.3499999998603,"accuracy":0,"outcome":"+1","keys":[2133.815000008326],"total_keys":1,"block":2,"trial":172,"stimulus":6,"robot":2,"valence":"win","action":"no-go","sham":0,"trial_type":"pit-trial","trial_index":203,"time_elapsed":1331104,"internal_node_id":"0.0-178.0","task_version":"battery-v0.2-trt","session":2},{"rune":"P","rune_set":"elianto","hex":"#3366ff99","correct":-1,"choice":-1,"rt":-1,"accuracy":1,"outcome":"+10","keys":[],"total_keys":0,"block":2,"trial":173,"stimulus":7,"robot":2,"valence":"win","action":"no-go","sham":0,"trial_type":"pit-trial","trial_index":204,"time_elapsed":1335110,"internal_node_id":"0.0-179.0","task_version":"battery-v0.2-trt","session":2},{"rune":"S","rune_set":"elianto","hex":"#3366ff99","correct":-1,"choice":-1,"rt":-1,"accuracy":1,"outcome":"+10","keys":[],"total_keys":0,"block":2,"trial":174,"stimulus":6,"robot":2,"valence":"win","action":"no-go","sham":0,"trial_type":"pit-trial","trial_index":205,"time_elapsed":1339114,"internal_node_id":"0.0-180.0","task_version":"battery-v0.2-trt","session":2},{"rune":"E","rune_set":"elianto","hex":"#f73b6a7A","correct":-1,"choice":-1,"rt":-1,"accuracy":1,"outcome":"-1","keys":[],"total_keys":0,"block":2,"trial":175,"stimulus":4,"robot":4,"valence":"lose","action":"no-go","sham":0,"trial_type":"pit-trial","trial_index":206,"time_elapsed":1343120,"internal_node_id":"0.0-181.0","task_version":"battery-v0.2-trt","session":2},{"rune":"W","rune_set":"elianto","hex":"#f73b6a7A","correct":32,"choice":32,"rt":539.8299999942537,"accuracy":1,"outcome":"-1","keys":[2040.0899999949615],"total_keys":1,"block":2,"trial":176,"stimulus":5,"robot":3,"valence":"lose","action":"go","sham":0,"trial_type":"pit-trial","trial_index":207,"time_elapsed":1346366,"internal_node_id":"0.0-182.0","task_version":"battery-v0.2-trt","session":2},{"rune":"P","rune_set":"elianto","hex":"#3366ff99","correct":-1,"choice":-1,"rt":-1,"accuracy":1,"outcome":"+1","keys":[],"total_keys":0,"block":2,"trial":177,"stimulus":7,"robot":2,"valence":"win","action":"no-go","sham":1,"trial_type":"pit-trial","trial_index":208,"time_elapsed":1350371,"internal_node_id":"0.0-183.0","task_version":"battery-v0.2-trt","session":2},{"rune":"S","rune_set":"elianto","hex":"#3366ff99","correct":-1,"choice":-1,"rt":-1,"accuracy":1,"outcome":"+10","keys":[],"total_keys":0,"block":2,"trial":178,"stimulus":6,"robot":2,"valence":"win","action":"no-go","sham":0,"trial_type":"pit-trial","trial_index":209,"time_elapsed":1354377,"internal_node_id":"0.0-184.0","task_version":"battery-v0.2-trt","session":2},{"rune":"W","rune_set":"elianto","hex":"#f73b6a7A","correct":32,"choice":32,"rt":506.5750000067055,"accuracy":1,"outcome":"-1","keys":[2007.4949999980163],"total_keys":1,"block":2,"trial":179,"stimulus":5,"robot":3,"valence":"lose","action":"go","sham":0,"trial_type":"pit-trial","trial_index":210,"time_elapsed":1357589,"internal_node_id":"0.0-185.0","task_version":"battery-v0.2-trt","session":2},{"rune":"E","rune_set":"elianto","hex":"#f73b6a7A","correct":-1,"choice":-1,"rt":-1,"accuracy":1,"outcome":"-1","keys":[],"total_keys":0,"block":2,"trial":180,"stimulus":4,"robot":4,"valence":"lose","action":"no-go","sham":0,"trial_type":"pit-trial","trial_index":211,"time_elapsed":1361597,"internal_node_id":"0.0-186.0","task_version":"battery-v0.2-trt","session":2},{"rune":"S","rune_set":"elianto","hex":"#3366ff99","correct":-1,"choice":-1,"rt":-1,"accuracy":1,"outcome":"+10","keys":[],"total_keys":0,"block":2,"trial":181,"stimulus":6,"robot":2,"valence":"win","action":"no-go","sham":0,"trial_type":"pit-trial","trial_index":212,"time_elapsed":1365601,"internal_node_id":"0.0-187.0","task_version":"battery-v0.2-trt","session":2},{"rune":"P","rune_set":"elianto","hex":"#3366ff99","correct":-1,"choice":-1,"rt":-1,"accuracy":1,"outcome":"+10","keys":[],"total_keys":0,"block":2,"trial":182,"stimulus":7,"robot":2,"valence":"win","action":"no-go","sham":0,"trial_type":"pit-trial","trial_index":213,"time_elapsed":1369607,"internal_node_id":"0.0-188.0","task_version":"battery-v0.2-trt","session":2},{"rune":"W","rune_set":"elianto","hex":"#f73b6a7A","correct":32,"choice":32,"rt":496.9100000162143,"accuracy":1,"outcome":"-10","keys":[1997.269999992568],"total_keys":1,"block":2,"trial":183,"stimulus":5,"robot":3,"valence":"lose","action":"go","sham":1,"trial_type":"pit-trial","trial_index":214,"time_elapsed":1372811,"internal_node_id":"0.0-189.0","task_version":"battery-v0.2-trt","session":2},{"rune":"E","rune_set":"elianto","hex":"#f73b6a7A","correct":-1,"choice":-1,"rt":-1,"accuracy":1,"outcome":"-10","keys":[],"total_keys":0,"block":2,"trial":184,"stimulus":4,"robot":4,"valence":"lose","action":"no-go","sham":1,"trial_type":"pit-trial","trial_index":215,"time_elapsed":1376818,"internal_node_id":"0.0-190.0","task_version":"battery-v0.2-trt","session":2},{"rune":"W","rune_set":"elianto","hex":"#f73b6a7A","correct":32,"choice":32,"rt":499.95500000659376,"accuracy":1,"outcome":"-1","keys":[2000.3449999785516],"total_keys":1,"block":2,"trial":185,"stimulus":5,"robot":3,"valence":"lose","action":"go","sham":0,"trial_type":"pit-trial","trial_index":216,"time_elapsed":1380024,"internal_node_id":"0.0-191.0","task_version":"battery-v0.2-trt","session":2},{"rune":"S","rune_set":"elianto","hex":"#3366ff99","correct":-1,"choice":-1,"rt":-1,"accuracy":1,"outcome":"+1","keys":[],"total_keys":0,"block":2,"trial":186,"stimulus":6,"robot":2,"valence":"win","action":"no-go","sham":1,"trial_type":"pit-trial","trial_index":217,"time_elapsed":1384031,"internal_node_id":"0.0-192.0","task_version":"battery-v0.2-trt","session":2},{"rune":"E","rune_set":"elianto","hex":"#f73b6a7A","correct":-1,"choice":32,"rt":1048.0299999762792,"accuracy":0,"outcome":"-10","keys":[2549.0850000060163],"total_keys":1,"block":2,"trial":187,"stimulus":4,"robot":4,"valence":"lose","action":"no-go","sham":0,"trial_type":"pit-trial","trial_index":218,"time_elapsed":1387787,"internal_node_id":"0.0-193.0","task_version":"battery-v0.2-trt","session":2},{"rune":"P","rune_set":"elianto","hex":"#3366ff99","correct":-1,"choice":-1,"rt":-1,"accuracy":1,"outcome":"+10","keys":[],"total_keys":0,"block":2,"trial":188,"stimulus":7,"robot":2,"valence":"win","action":"no-go","sham":0,"trial_type":"pit-trial","trial_index":219,"time_elapsed":1391792,"internal_node_id":"0.0-194.0","task_version":"battery-v0.2-trt","session":2},{"rune":"P","rune_set":"elianto","hex":"#3366ff99","correct":-1,"choice":-1,"rt":-1,"accuracy":1,"outcome":"+10","keys":[],"total_keys":0,"block":2,"trial":189,"stimulus":7,"robot":2,"valence":"win","action":"no-go","sham":0,"trial_type":"pit-trial","trial_index":220,"time_elapsed":1395799,"internal_node_id":"0.0-195.0","task_version":"battery-v0.2-trt","session":2},{"rune":"S","rune_set":"elianto","hex":"#3366ff99","correct":-1,"choice":-1,"rt":-1,"accuracy":1,"outcome":"+1","keys":[],"total_keys":0,"block":2,"trial":190,"stimulus":6,"robot":2,"valence":"win","action":"no-go","sham":1,"trial_type":"pit-trial","trial_index":221,"time_elapsed":1399806,"internal_node_id":"0.0-196.0","task_version":"battery-v0.2-trt","session":2},{"rune":"W","rune_set":"elianto","hex":"#f73b6a7A","correct":32,"choice":32,"rt":513.4600000164937,"accuracy":1,"outcome":"-1","keys":[2013.7749999994412],"total_keys":1,"block":2,"trial":191,"stimulus":5,"robot":3,"valence":"lose","action":"go","sham":0,"trial_type":"pit-trial","trial_index":222,"time_elapsed":1403024,"internal_node_id":"0.0-197.0","task_version":"battery-v0.2-trt","session":2},{"rune":"E","rune_set":"elianto","hex":"#f73b6a7A","correct":-1,"choice":-1,"rt":-1,"accuracy":1,"outcome":"-10","keys":[],"total_keys":0,"block":2,"trial":192,"stimulus":4,"robot":4,"valence":"lose","action":"no-go","sham":1,"trial_type":"pit-trial","trial_index":223,"time_elapsed":1407029,"internal_node_id":"0.0-198.0","task_version":"battery-v0.2-trt","session":2},{"rune":"S","rune_set":"elianto","hex":"#3366ff99","correct":-1,"choice":-1,"rt":-1,"accuracy":1,"outcome":"+10","keys":[],"total_keys":0,"block":2,"trial":193,"stimulus":6,"robot":2,"valence":"win","action":"no-go","sham":0,"trial_type":"pit-trial","trial_index":224,"time_elapsed":1411034,"internal_node_id":"0.0-199.0","task_version":"battery-v0.2-trt","session":2},{"rune":"P","rune_set":"elianto","hex":"#3366ff99","correct":-1,"choice":-1,"rt":-1,"accuracy":1,"outcome":"+10","keys":[],"total_keys":0,"block":2,"trial":194,"stimulus":7,"robot":2,"valence":"win","action":"no-go","sham":0,"trial_type":"pit-trial","trial_index":225,"time_elapsed":1415041,"internal_node_id":"0.0-200.0","task_version":"battery-v0.2-trt","session":2},{"rune":"E","rune_set":"elianto","hex":"#f73b6a7A","correct":-1,"choice":-1,"rt":-1,"accuracy":1,"outcome":"-1","keys":[],"total_keys":0,"block":2,"trial":195,"stimulus":4,"robot":4,"valence":"lose","action":"no-go","sham":0,"trial_type":"pit-trial","trial_index":226,"time_elapsed":1419046,"internal_node_id":"0.0-201.0","task_version":"battery-v0.2-trt","session":2},{"rune":"W","rune_set":"elianto","hex":"#f73b6a7A","correct":32,"choice":32,"rt":682.6250000158325,"accuracy":1,"outcome":"-1","keys":[2183.134999999311],"total_keys":1,"block":2,"trial":196,"stimulus":5,"robot":3,"valence":"lose","action":"go","sham":0,"trial_type":"pit-trial","trial_index":227,"time_elapsed":1422436,"internal_node_id":"0.0-202.0","task_version":"battery-v0.2-trt","session":2},{"rune":"W","rune_set":"elianto","hex":"#f73b6a7A","correct":32,"choice":32,"rt":1270.974999992177,"accuracy":1,"outcome":"-1","keys":[2771.840000001248],"total_keys":1,"block":2,"trial":197,"stimulus":5,"robot":3,"valence":"lose","action":"go","sham":0,"trial_type":"pit-trial","trial_index":228,"time_elapsed":1426415,"internal_node_id":"0.0-203.0","task_version":"battery-v0.2-trt","session":2},{"rune":"E","rune_set":"elianto","hex":"#f73b6a7A","correct":-1,"choice":-1,"rt":-1,"accuracy":1,"outcome":"-1","keys":[],"total_keys":0,"block":2,"trial":198,"stimulus":4,"robot":4,"valence":"lose","action":"no-go","sham":0,"trial_type":"pit-trial","trial_index":229,"time_elapsed":1430421,"internal_node_id":"0.0-204.0","task_version":"battery-v0.2-trt","session":2},{"rune":"P","rune_set":"elianto","hex":"#3366ff99","correct":-1,"choice":-1,"rt":-1,"accuracy":1,"outcome":"+10","keys":[],"total_keys":0,"block":2,"trial":199,"stimulus":7,"robot":2,"valence":"win","action":"no-go","sham":0,"trial_type":"pit-trial","trial_index":230,"time_elapsed":1434427,"internal_node_id":"0.0-205.0","task_version":"battery-v0.2-trt","session":2},{"rune":"S","rune_set":"elianto","hex":"#3366ff99","correct":-1,"choice":-1,"rt":-1,"accuracy":1,"outcome":"+10","keys":[83.34499999182299],"total_keys":1,"block":2,"trial":200,"stimulus":6,"robot":2,"valence":"win","action":"no-go","sham":0,"trial_type":"pit-trial","trial_index":231,"time_elapsed":1438433,"internal_node_id":"0.0-206.0","task_version":"battery-v0.2-trt","session":2},{"rune":"G","rune_set":"elianto","hex":"#3366ff99","correct":32,"choice":-1,"rt":-1,"accuracy":0,"outcome":"+1","keys":[],"total_keys":0,"block":2,"trial":201,"stimulus":8,"robot":1,"valence":"win","action":"go","sham":0,"trial_type":"pit-trial","trial_index":232,"time_elapsed":1442440,"internal_node_id":"0.0-207.0","task_version":"battery-v0.2-trt","session":2},{"rune":"A","rune_set":"elianto","hex":"#f73b6a7A","correct":-1,"choice":-1,"rt":-1,"accuracy":1,"outcome":"-1","keys":[],"total_keys":0,"block":2,"trial":202,"stimulus":9,"robot":4,"valence":"lose","action":"no-go","sham":0,"trial_type":"pit-trial","trial_index":233,"time_elapsed":1446445,"internal_node_id":"0.0-208.0","task_version":"battery-v0.2-trt","session":2},{"rune":"P","rune_set":"elianto","hex":"#3366ff99","correct":-1,"choice":-1,"rt":-1,"accuracy":1,"outcome":"+1","keys":[],"total_keys":0,"block":2,"trial":203,"stimulus":7,"robot":2,"valence":"win","action":"no-go","sham":1,"trial_type":"pit-trial","trial_index":234,"time_elapsed":1450452,"internal_node_id":"0.0-209.0","task_version":"battery-v0.2-trt","session":2},{"rune":"W","rune_set":"elianto","hex":"#f73b6a7A","correct":32,"choice":-1,"rt":-1,"accuracy":0,"outcome":"-1","keys":[],"total_keys":0,"block":2,"trial":204,"stimulus":5,"robot":3,"valence":"lose","action":"go","sham":1,"trial_type":"pit-trial","trial_index":235,"time_elapsed":1454459,"internal_node_id":"0.0-210.0","task_version":"battery-v0.2-trt","session":2},{"rune":"A","rune_set":"elianto","hex":"#f73b6a7A","correct":-1,"choice":-1,"rt":-1,"accuracy":1,"outcome":"-1","keys":[],"total_keys":0,"block":2,"trial":205,"stimulus":9,"robot":4,"valence":"lose","action":"no-go","sham":0,"trial_type":"pit-trial","trial_index":236,"time_elapsed":1458464,"internal_node_id":"0.0-211.0","task_version":"battery-v0.2-trt","session":2},{"rune":"P","rune_set":"elianto","hex":"#3366ff99","correct":-1,"choice":-1,"rt":-1,"accuracy":1,"outcome":"+10","keys":[],"total_keys":0,"block":2,"trial":206,"stimulus":7,"robot":2,"valence":"win","action":"no-go","sham":0,"trial_type":"pit-trial","trial_index":237,"time_elapsed":1462471,"internal_node_id":"0.0-212.0","task_version":"battery-v0.2-trt","session":2},{"rune":"G","rune_set":"elianto","hex":"#3366ff99","correct":32,"choice":-1,"rt":-1,"accuracy":0,"outcome":"+1","keys":[],"total_keys":0,"block":2,"trial":207,"stimulus":8,"robot":1,"valence":"win","action":"go","sham":0,"trial_type":"pit-trial","trial_index":238,"time_elapsed":1466478,"internal_node_id":"0.0-213.0","task_version":"battery-v0.2-trt","session":2},{"rune":"W","rune_set":"elianto","hex":"#f73b6a7A","correct":32,"choice":32,"rt":474.3799999996554,"accuracy":1,"outcome":"-1","keys":[1975.059999997029],"total_keys":1,"block":2,"trial":208,"stimulus":5,"robot":3,"valence":"lose","action":"go","sham":0,"trial_type":"pit-trial","trial_index":239,"time_elapsed":1469658,"internal_node_id":"0.0-214.0","task_version":"battery-v0.2-trt","session":2},{"rune":"G","rune_set":"elianto","hex":"#3366ff99","correct":32,"choice":-1,"rt":-1,"accuracy":0,"outcome":"+1","keys":[],"total_keys":0,"block":2,"trial":209,"stimulus":8,"robot":1,"valence":"win","action":"go","sham":0,"trial_type":"pit-trial","trial_index":240,"time_elapsed":1473663,"internal_node_id":"0.0-215.0","task_version":"battery-v0.2-trt","session":2},{"rune":"A","rune_set":"elianto","hex":"#f73b6a7A","correct":-1,"choice":-1,"rt":-1,"accuracy":1,"outcome":"-1","keys":[],"total_keys":0,"block":2,"trial":210,"stimulus":9,"robot":4,"valence":"lose","action":"no-go","sham":0,"trial_type":"pit-trial","trial_index":241,"time_elapsed":1477668,"internal_node_id":"0.0-216.0","task_version":"battery-v0.2-trt","session":2},{"rune":"U","rune_set":"elianto","hex":"#3366ff99","correct":32,"choice":-1,"rt":-1,"accuracy":0,"outcome":"+1","keys":[],"total_keys":0,"block":2,"trial":211,"stimulus":11,"robot":1,"valence":"win","action":"go","sham":0,"trial_type":"pit-trial","trial_index":242,"time_elapsed":1481674,"internal_node_id":"0.0-217.0","task_version":"battery-v0.2-trt","session":2},{"rune":"L","rune_set":"elianto","hex":"#f73b6a7A","correct":32,"choice":-1,"rt":-1,"accuracy":0,"outcome":"-1","keys":[],"total_keys":0,"block":2,"trial":212,"stimulus":10,"robot":3,"valence":"lose","action":"go","sham":1,"trial_type":"pit-trial","trial_index":243,"time_elapsed":1485681,"internal_node_id":"0.0-218.0","task_version":"battery-v0.2-trt","session":2},{"rune":"G","rune_set":"elianto","hex":"#3366ff99","correct":32,"choice":-1,"rt":-1,"accuracy":0,"outcome":"+1","keys":[],"total_keys":0,"block":2,"trial":213,"stimulus":8,"robot":1,"valence":"win","action":"go","sham":0,"trial_type":"pit-trial","trial_index":244,"time_elapsed":1489688,"internal_node_id":"0.0-219.0","task_version":"battery-v0.2-trt","session":2},{"rune":"U","rune_set":"elianto","hex":"#3366ff99","correct":32,"choice":-1,"rt":-1,"accuracy":0,"outcome":"+1","keys":[],"total_keys":0,"block":2,"trial":214,"stimulus":11,"robot":1,"valence":"win","action":"go","sham":0,"trial_type":"pit-trial","trial_index":245,"time_elapsed":1493693,"internal_node_id":"0.0-220.0","task_version":"battery-v0.2-trt","session":2},{"rune":"L","rune_set":"elianto","hex":"#f73b6a7A","correct":32,"choice":-1,"rt":-1,"accuracy":0,"outcome":"-10","keys":[],"total_keys":0,"block":2,"trial":215,"stimulus":10,"robot":3,"valence":"lose","action":"go","sham":0,"trial_type":"pit-trial","trial_index":246,"time_elapsed":1497698,"internal_node_id":"0.0-221.0","task_version":"battery-v0.2-trt","session":2},{"rune":"A","rune_set":"elianto","hex":"#f73b6a7A","correct":-1,"choice":32,"rt":587.6850000058766,"accuracy":0,"outcome":"-10","keys":[2088.2949999941047],"total_keys":1,"block":2,"trial":216,"stimulus":9,"robot":4,"valence":"lose","action":"no-go","sham":0,"trial_type":"pit-trial","trial_index":247,"time_elapsed":1500992,"internal_node_id":"0.0-222.0","task_version":"battery-v0.2-trt","session":2},{"rune":"U","rune_set":"elianto","hex":"#3366ff99","correct":32,"choice":-1,"rt":-1,"accuracy":0,"outcome":"+1","keys":[],"total_keys":0,"block":2,"trial":217,"stimulus":11,"robot":1,"valence":"win","action":"go","sham":0,"trial_type":"pit-trial","trial_index":248,"time_elapsed":1504998,"internal_node_id":"0.0-223.0","task_version":"battery-v0.2-trt","session":2},{"rune":"L","rune_set":"elianto","hex":"#f73b6a7A","correct":32,"choice":-1,"rt":-1,"accuracy":0,"outcome":"-10","keys":[2933.805000007851],"total_keys":1,"block":2,"trial":218,"stimulus":10,"robot":3,"valence":"lose","action":"go","sham":0,"trial_type":"pit-trial","trial_index":249,"time_elapsed":1509004,"internal_node_id":"0.0-224.0","task_version":"battery-v0.2-trt","session":2},{"rune":"A","rune_set":"elianto","hex":"#f73b6a7A","correct":-1,"choice":-1,"rt":-1,"accuracy":1,"outcome":"-1","keys":[],"total_keys":0,"block":2,"trial":219,"stimulus":9,"robot":4,"valence":"lose","action":"no-go","sham":0,"trial_type":"pit-trial","trial_index":250,"time_elapsed":1513009,"internal_node_id":"0.0-225.0","task_version":"battery-v0.2-trt","session":2},{"rune":"G","rune_set":"elianto","hex":"#3366ff99","correct":32,"choice":-1,"rt":-1,"accuracy":0,"outcome":"+1","keys":[],"total_keys":0,"block":2,"trial":220,"stimulus":8,"robot":1,"valence":"win","action":"go","sham":0,"trial_type":"pit-trial","trial_index":251,"time_elapsed":1517018,"internal_node_id":"0.0-226.0","task_version":"battery-v0.2-trt","session":2},{"rune":"G","rune_set":"elianto","hex":"#3366ff99","correct":32,"choice":-1,"rt":-1,"accuracy":0,"outcome":"+1","keys":[3018.5400000191294],"total_keys":1,"block":2,"trial":221,"stimulus":8,"robot":1,"valence":"win","action":"go","sham":0,"trial_type":"pit-trial","trial_index":252,"time_elapsed":1521027,"internal_node_id":"0.0-227.0","task_version":"battery-v0.2-trt","session":2},{"rune":"L","rune_set":"elianto","hex":"#f73b6a7A","correct":32,"choice":32,"rt":789.8950000235345,"accuracy":1,"outcome":"-1","keys":[2290.2649999887217],"total_keys":1,"block":2,"trial":222,"stimulus":10,"robot":3,"valence":"lose","action":"go","sham":0,"trial_type":"pit-trial","trial_index":253,"time_elapsed":1524521,"internal_node_id":"0.0-228.0","task_version":"battery-v0.2-trt","session":2},{"rune":"U","rune_set":"elianto","hex":"#3366ff99","correct":32,"choice":-1,"rt":-1,"accuracy":0,"outcome":"+1","keys":[],"total_keys":0,"block":2,"trial":223,"stimulus":11,"robot":1,"valence":"win","action":"go","sham":0,"trial_type":"pit-trial","trial_index":254,"time_elapsed":1528526,"internal_node_id":"0.0-229.0","task_version":"battery-v0.2-trt","session":2},{"rune":"A","rune_set":"elianto","hex":"#f73b6a7A","correct":-1,"choice":-1,"rt":-1,"accuracy":1,"outcome":"-1","keys":[],"total_keys":0,"block":2,"trial":224,"stimulus":9,"robot":4,"valence":"lose","action":"no-go","sham":0,"trial_type":"pit-trial","trial_index":255,"time_elapsed":1532533,"internal_node_id":"0.0-230.0","task_version":"battery-v0.2-trt","session":2},{"rune":"G","rune_set":"elianto","hex":"#3366ff99","correct":32,"choice":-1,"rt":-1,"accuracy":0,"outcome":"+1","keys":[],"total_keys":0,"block":2,"trial":225,"stimulus":8,"robot":1,"valence":"win","action":"go","sham":0,"trial_type":"pit-trial","trial_index":256,"time_elapsed":1536538,"internal_node_id":"0.0-231.0","task_version":"battery-v0.2-trt","session":2},{"rune":"L","rune_set":"elianto","hex":"#f73b6a7A","correct":32,"choice":-1,"rt":-1,"accuracy":0,"outcome":"-10","keys":[],"total_keys":0,"block":2,"trial":226,"stimulus":10,"robot":3,"valence":"lose","action":"go","sham":0,"trial_type":"pit-trial","trial_index":257,"time_elapsed":1540545,"internal_node_id":"0.0-232.0","task_version":"battery-v0.2-trt","session":2},{"rune":"U","rune_set":"elianto","hex":"#3366ff99","correct":32,"choice":-1,"rt":-1,"accuracy":0,"outcome":"+1","keys":[2810.4000000166707],"total_keys":1,"block":2,"trial":227,"stimulus":11,"robot":1,"valence":"win","action":"go","sham":0,"trial_type":"pit-trial","trial_index":258,"time_elapsed":1544552,"internal_node_id":"0.0-233.0","task_version":"battery-v0.2-trt","session":2},{"rune":"A","rune_set":"elianto","hex":"#f73b6a7A","correct":-1,"choice":-1,"rt":-1,"accuracy":1,"outcome":"-10","keys":[],"total_keys":0,"block":2,"trial":228,"stimulus":9,"robot":4,"valence":"lose","action":"no-go","sham":1,"trial_type":"pit-trial","trial_index":259,"time_elapsed":1548558,"internal_node_id":"0.0-234.0","task_version":"battery-v0.2-trt","session":2},{"rune":"L","rune_set":"elianto","hex":"#f73b6a7A","correct":32,"choice":-1,"rt":-1,"accuracy":0,"outcome":"-10","keys":[],"total_keys":0,"block":2,"trial":229,"stimulus":10,"robot":3,"valence":"lose","action":"go","sham":0,"trial_type":"pit-trial","trial_index":260,"time_elapsed":1552563,"internal_node_id":"0.0-235.0","task_version":"battery-v0.2-trt","session":2},{"rune":"U","rune_set":"elianto","hex":"#3366ff99","correct":32,"choice":-1,"rt":-1,"accuracy":0,"outcome":"+1","keys":[],"total_keys":0,"block":2,"trial":230,"stimulus":11,"robot":1,"valence":"win","action":"go","sham":0,"trial_type":"pit-trial","trial_index":261,"time_elapsed":1556572,"internal_node_id":"0.0-236.0","task_version":"battery-v0.2-trt","session":2},{"rune":"A","rune_set":"elianto","hex":"#f73b6a7A","correct":-1,"choice":-1,"rt":-1,"accuracy":1,"outcome":"-1","keys":[],"total_keys":0,"block":2,"trial":231,"stimulus":9,"robot":4,"valence":"lose","action":"no-go","sham":0,"trial_type":"pit-trial","trial_index":262,"time_elapsed":1560577,"internal_node_id":"0.0-237.0","task_version":"battery-v0.2-trt","session":2},{"rune":"G","rune_set":"elianto","hex":"#3366ff99","correct":32,"choice":-1,"rt":-1,"accuracy":0,"outcome":"+10","keys":[],"total_keys":0,"block":2,"trial":232,"stimulus":8,"robot":1,"valence":"win","action":"go","sham":1,"trial_type":"pit-trial","trial_index":263,"time_elapsed":1564582,"internal_node_id":"0.0-238.0","task_version":"battery-v0.2-trt","session":2},{"rune":"G","rune_set":"elianto","hex":"#3366ff99","correct":32,"choice":32,"rt":978.384999994887,"accuracy":1,"outcome":"+1","keys":[2479.2299999971874],"total_keys":1,"block":2,"trial":233,"s