[{"view_history":"[{\"page_index\":0,\"viewing_time\":4119.789999909699}]","rt":4120.654999976978,"trial_type":"instructions","trial_index":0,"time_elapsed":4134,"internal_node_id":"0.0-0.0","task_version":"battery-v0.2-trt","session":2},{"slider_type":"valence","raw_loc":476,"loc":0.452,"trial_type":"affective-slider","trial_index":1,"time_elapsed":16777,"internal_node_id":"0.0-1.0","task_version":"battery-v0.2-trt","session":2},{"responses":{"Q01":"2","Q05":"1","Q03":"1","Q06":"0","Q02":"0","Q04":"0","Q08":"3","Q07":"0"},"rt":27960.7899999246,"item_order":[0,4,2,5,1,3,7,6],"radio_events":[4801.65999988094,8529.224999947473,13759.159999899566,14685.294999973848,18426.770000020042,20369.565000059083,23527.130000060424,26822.984999977052],"key_events":[],"mouse_events":[4801.65999988094,7506.724999984726,8529.224999947473,13073.584999889135,13759.159999899566,14685.294999973848,18426.770000020042,20369.565000059083,23527.130000060424,25813.589999917895,26306.884999852628,26822.984999977052,27957.884999923408],"straightlining":0.5,"zigzagging":0.5714285714285714,"survey":"dass_d","trial_type":"survey-template","trial_index":2,"time_elapsed":44746,"internal_node_id":"0.0-2.0","task_version":"battery-v0.2-trt","session":2,"infrequency":0},{"responses":{"Q06":"1","Q07":"0","Q01":"1","Q04":"1","Q03":"3","Q08":"0","Q02":"3","Q05":"1"},"rt":21943.38500010781,"item_order":[5,6,0,3,2,7,1,4],"radio_events":[5006.2700000125915,6916.145000141114,8371.805000118911,9209.755000192672,11930.21500017494,13972.66500000842,18067.77500011958,21112.075000070035],"key_events":[],"mouse_events":[5006.2700000125915,6916.145000141114,8371.805000118911,9209.755000192672,11930.21500017494,13972.66500000842,17468.22000015527,18067.77500011958,21112.075000070035,21942.105000140145],"straightlining":0.5,"zigzagging":0.5714285714285714,"survey":"gad7","trial_type":"survey-template","trial_index":3,"time_elapsed":66697,"internal_node_id":"0.0-3.0","task_version":"battery-v0.2-trt","session":2,"infrequency":0},{"view_history":"[{\"page_index\":0,\"viewing_time\":3030.379999894649},{\"page_index\":1,\"viewing_time\":4443.214999977499},{\"page_index\":2,\"viewing_time\":4659.850000170991},{\"page_index\":3,\"viewing_time\":4351.784999947995},{\"page_index\":4,\"viewing_time\":4529.769999906421},{\"page_index\":5,\"viewing_time\":4222.315000137314},{\"page_index\":6,\"viewing_time\":6353.814999805763},{\"page_index\":7,\"viewing_time\":16809.975000098348},{\"page_index\":8,\"viewing_time\":7872.715000063181},{\"page_index\":9,\"viewing_time\":6526.420000009239}]","rt":62801.93499987945,"trial_type":"pit-instructions","trial_index":4,"time_elapsed":129504,"internal_node_id":"0.0-4.0-0.0","task_version":"battery-v0.2-trt","session":2},{"rune":"1","rune_set":"elianto","hex":"#3366ff99","correct":32,"choice":32,"rt":518.889999948442,"accuracy":1,"outcome":"+10","keys":[2019.1699999850243],"total_keys":1,"block":0,"practice":1,"trial_type":"pit-trial","trial_index":5,"time_elapsed":132731,"internal_node_id":"0.0-4.0-1.0-0.0","task_version":"battery-v0.2-trt","session":2},{"rune":"1","rune_set":"elianto","hex":"#3366ff99","correct":32,"choice":32,"rt":763.5250000748783,"accuracy":1,"outcome":"+10","keys":[2263.63499998115],"total_keys":1,"block":0,"practice":1,"trial_type":"pit-trial","trial_index":6,"time_elapsed":136202,"internal_node_id":"0.0-4.0-1.1-0.1","task_version":"battery-v0.2-trt","session":2},{"rune":"1","rune_set":"elianto","hex":"#3366ff99","correct":32,"choice":32,"rt":456.7249999381602,"accuracy":1,"outcome":"+10","keys":[1957.8599999658763],"total_keys":1,"block":0,"practice":1,"trial_type":"pit-trial","trial_index":7,"time_elapsed":139368,"internal_node_id":"0.0-4.0-1.2-0.2","task_version":"battery-v0.2-trt","session":2},{"rune":"1","rune_set":"elianto","hex":"#3366ff99","correct":32,"choice":32,"rt":399.6349999215454,"accuracy":1,"outcome":"+10","keys":[1900.7549998350441],"total_keys":1,"block":0,"practice":1,"trial_type":"pit-trial","trial_index":8,"time_elapsed":142473,"internal_node_id":"0.0-4.0-1.3-0.3","task_version":"battery-v0.2-trt","session":2},{"trial_type":"call-function","trial_index":9,"time_elapsed":142475,"internal_node_id":"0.0-4.0-2.0","task_version":"battery-v0.2-trt","session":2},{"view_history":"[{\"page_index\":0,\"viewing_time\":4116.249999962747},{\"page_index\":1,\"viewing_time\":2280.879999976605}]","rt":6398.104999912903,"trial_type":"pit-instructions","trial_index":10,"time_elapsed":148874,"internal_node_id":"0.0-4.0-3.0","task_version":"battery-v0.2-trt","session":2},{"rune":"2","rune_set":"elianto","hex":"#3366ff99","correct":-1,"choice":32,"rt":509.53499996103346,"accuracy":0,"outcome":"+1","keys":[2010.6899999082088],"total_keys":1,"block":0,"practice":2,"trial_type":"pit-trial","trial_index":11,"time_elapsed":152088,"internal_node_id":"0.0-4.0-4.0-0.0","task_version":"battery-v0.2-trt","session":2},{"rune":"2","rune_set":"elianto","hex":"#3366ff99","correct":-1,"choice":-1,"rt":-1,"accuracy":1,"outcome":"+10","keys":[],"total_keys":0,"block":0,"practice":2,"trial_type":"pit-trial","trial_index":12,"time_elapsed":156095,"internal_node_id":"0.0-4.0-4.1-0.1","task_version":"battery-v0.2-trt","session":2},{"rune":"2","rune_set":"elianto","hex":"#3366ff99","correct":-1,"choice":-1,"rt":-1,"accuracy":1,"outcome":"+10","keys":[],"total_keys":0,"block":0,"practice":2,"trial_type":"pit-trial","trial_index":13,"time_elapsed":160101,"internal_node_id":"0.0-4.0-4.2-0.2","task_version":"battery-v0.2-trt","session":2},{"rune":"2","rune_set":"elianto","hex":"#3366ff99","correct":-1,"choice":-1,"rt":-1,"accuracy":1,"outcome":"+10","keys":[],"total_keys":0,"block":0,"practice":2,"trial_type":"pit-trial","trial_index":14,"time_elapsed":164107,"internal_node_id":"0.0-4.0-4.3-0.3","task_version":"battery-v0.2-trt","session":2},{"trial_type":"call-function","trial_index":15,"time_elapsed":164108,"internal_node_id":"0.0-4.0-5.0","task_version":"battery-v0.2-trt","session":2},{"view_history":"[{\"page_index\":0,\"viewing_time\":6055.084999883547},{\"page_index\":1,\"viewing_time\":4168.109999969602}]","rt":10223.879999946803,"trial_type":"pit-instructions","trial_index":16,"time_elapsed":174333,"internal_node_id":"0.0-4.0-6.0","task_version":"battery-v0.2-trt","session":2},{"rune":"3","rune_set":"elianto","hex":"#f73b6a7A","correct":-1,"choice":32,"rt":539.9100000504404,"accuracy":0,"outcome":"-10","keys":[2040.0100001133978],"total_keys":1,"block":0,"practice":3,"trial_type":"pit-trial","trial_index":17,"time_elapsed":177592,"internal_node_id":"0.0-4.0-7.0-0.0","task_version":"battery-v0.2-trt","session":2},{"rune":"3","rune_set":"elianto","hex":"#f73b6a7A","correct":-1,"choice":-1,"rt":-1,"accuracy":1,"outcome":"-1","keys":[],"total_keys":0,"block":0,"practice":3,"trial_type":"pit-trial","trial_index":18,"time_elapsed":181599,"internal_node_id":"0.0-4.0-7.1-0.1","task_version":"battery-v0.2-trt","session":2},{"rune":"3","rune_set":"elianto","hex":"#f73b6a7A","correct":-1,"choice":-1,"rt":-1,"accuracy":1,"outcome":"-1","keys":[],"total_keys":0,"block":0,"practice":3,"trial_type":"pit-trial","trial_index":19,"time_elapsed":185605,"internal_node_id":"0.0-4.0-7.2-0.2","task_version":"battery-v0.2-trt","session":2},{"rune":"3","rune_set":"elianto","hex":"#f73b6a7A","correct":-1,"choice":-1,"rt":-1,"accuracy":1,"outcome":"-1","keys":[],"total_keys":0,"block":0,"practice":3,"trial_type":"pit-trial","trial_index":20,"time_elapsed":189611,"internal_node_id":"0.0-4.0-7.3-0.3","task_version":"battery-v0.2-trt","session":2},{"trial_type":"call-function","trial_index":21,"time_elapsed":189613,"internal_node_id":"0.0-4.0-8.0","task_version":"battery-v0.2-trt","session":2},{"view_history":"[{\"page_index\":0,\"viewing_time\":5786.434999899939},{\"page_index\":1,\"viewing_time\":2040.1800000108778}]","rt":7827.224999899045,"trial_type":"pit-instructions","trial_index":22,"time_elapsed":197441,"internal_node_id":"0.0-4.0-9.0","task_version":"battery-v0.2-trt","session":2},{"rune":"4","rune_set":"elianto","hex":"#f73b6a7A","correct":32,"choice":32,"rt":581.9349999073893,"accuracy":1,"outcome":"-1","keys":[2083.875000011176],"total_keys":1,"block":0,"practice":4,"trial_type":"pit-trial","trial_index":23,"time_elapsed":200729,"internal_node_id":"0.0-4.0-10.0-0.0","task_version":"battery-v0.2-trt","session":2},{"rune":"4","rune_set":"elianto","hex":"#f73b6a7A","correct":32,"choice":32,"rt":261.5850002039224,"accuracy":1,"outcome":"-1","keys":[1763.3350000251085],"total_keys":1,"block":0,"practice":4,"trial_type":"pit-trial","trial_index":24,"time_elapsed":203697,"internal_node_id":"0.0-4.0-10.1-0.1","task_version":"battery-v0.2-trt","session":2},{"rune":"4","rune_set":"elianto","hex":"#f73b6a7A","correct":32,"choice":32,"rt":430.6699999142438,"accuracy":1,"outcome":"-1","keys":[1931.584999896586],"total_keys":1,"block":0,"practice":4,"trial_type":"pit-trial","trial_index":25,"time_elapsed":206832,"internal_node_id":"0.0-4.0-10.2-0.2","task_version":"battery-v0.2-trt","session":2},{"rune":"4","rune_set":"elianto","hex":"#f73b6a7A","correct":32,"choice":32,"rt":406.3599999062717,"accuracy":1,"outcome":"-1","keys":[1907.6449999120086],"total_keys":1,"block":0,"practice":4,"trial_type":"pit-trial","trial_index":26,"time_elapsed":209944,"internal_node_id":"0.0-4.0-10.3-0.3","task_version":"battery-v0.2-trt","session":2},{"trial_type":"call-function","trial_index":27,"time_elapsed":209945,"internal_node_id":"0.0-4.0-11.0","task_version":"battery-v0.2-trt","session":2},{"view_history":"[{\"page_index\":0,\"viewing_time\":3612.080000108108},{\"page_index\":1,\"viewing_time\":11829.930000007153},{\"page_index\":2,\"viewing_time\":5869.884999934584},{\"page_index\":3,\"viewing_time\":2388.0050000734627},{\"page_index\":4,\"viewing_time\":6020.275000017136},{\"page_index\":5,\"viewing_time\":3056.004999903962}]","rt":32776.84499998577,"trial_type":"pit-instructions","trial_index":28,"time_elapsed":242723,"internal_node_id":"0.0-4.0-12.0","task_version":"battery-v0.2-trt","session":2},{"responses":["Press SPACE","+10","-1","True","True"],"num_errors":0,"rt":22418.08500001207,"trial_type":"pit-comprehension","trial_index":29,"time_elapsed":265147,"internal_node_id":"0.0-4.0-13.0","task_version":"battery-v0.2-trt","session":2},{"view_history":"[{\"page_index\":0,\"viewing_time\":1993.979999795556},{\"page_index\":1,\"viewing_time\":22999.040000140667}]","rt":24993.85999981314,"trial_type":"pit-instructions","trial_index":30,"time_elapsed":290146,"internal_node_id":"0.0-5.0","task_version":"battery-v0.2-trt","session":2},{"rune":"L","rune_set":"bacs1","hex":"#f73b6a7A","correct":32,"choice":32,"rt":601.7800001427531,"accuracy":1,"outcome":"-10","keys":[2103.245000122115],"total_keys":1,"block":1,"trial":1,"stimulus":1,"robot":3,"valence":"lose","action":"go","sham":1,"trial_type":"pit-trial","trial_index":31,"time_elapsed":293455,"internal_node_id":"0.0-6.0","task_version":"battery-v0.2-trt","session":2},{"rune":"Q","rune_set":"bacs1","hex":"#3366ff99","correct":32,"choice":32,"rt":632.0950000081211,"accuracy":1,"outcome":"+10","keys":[2132.689999882132],"total_keys":1,"block":1,"trial":2,"stimulus":0,"robot":1,"valence":"win","action":"go","sham":0,"trial_type":"pit-trial","trial_index":32,"time_elapsed":296792,"internal_node_id":"0.0-7.0","task_version":"battery-v0.2-trt","session":2},{"rune":"C","rune_set":"bacs1","hex":"#f73b6a7A","correct":-1,"choice":-1,"rt":-1,"accuracy":1,"outcome":"-1","keys":[],"total_keys":0,"block":1,"trial":3,"stimulus":2,"robot":4,"valence":"lose","action":"no-go","sham":0,"trial_type":"pit-trial","trial_index":33,"time_elapsed":300797,"internal_node_id":"0.0-8.0","task_version":"battery-v0.2-trt","session":2},{"rune":"A","rune_set":"bacs1","hex":"#3366ff99","correct":-1,"choice":32,"rt":704.7700001858175,"accuracy":0,"outcome":"+1","keys":[2205.6249999441206],"total_keys":1,"block":1,"trial":4,"stimulus":3,"robot":2,"valence":"win","action":"no-go","sham":0,"trial_type":"pit-trial","trial_index":34,"time_elapsed":304207,"internal_node_id":"0.0-9.0","task_version":"battery-v0.2-trt","session":2},{"rune":"A","rune_set":"bacs1","hex":"#3366ff99","correct":-1,"choice":-1,"rt":-1,"accuracy":1,"outcome":"+1","keys":[],"total_keys":0,"block":1,"trial":5,"stimulus":3,"robot":2,"valence":"win","action":"no-go","sham":1,"trial_type":"pit-trial","trial_index":35,"time_elapsed":308212,"internal_node_id":"0.0-10.0","task_version":"battery-v0.2-trt","session":2},{"rune":"C","rune_set":"bacs1","hex":"#f73b6a7A","correct":-1,"choice":-1,"rt":-1,"accuracy":1,"outcome":"-1","keys":[],"total_keys":0,"block":1,"trial":6,"stimulus":2,"robot":4,"valence":"lose","action":"no-go","sham":0,"trial_type":"pit-trial","trial_index":36,"time_elapsed":312223,"internal_node_id":"0.0-11.0","task_version":"battery-v0.2-trt","session":2},{"rune":"Q","rune_set":"bacs1","hex":"#3366ff99","correct":32,"choice":32,"rt":664.5499998703599,"accuracy":1,"outcome":"+10","keys":[2164.975000079721],"total_keys":1,"block":1,"trial":7,"stimulus":0,"robot":1,"valence":"win","action":"go","sham":0,"trial_type":"pit-trial","trial_index":37,"time_elapsed":315593,"internal_node_id":"0.0-12.0","task_version":"battery-v0.2-trt","session":2},{"rune":"L","rune_set":"bacs1","hex":"#f73b6a7A","correct":32,"choice":-1,"rt":-1,"accuracy":0,"outcome":"-10","keys":[],"total_keys":0,"block":1,"trial":8,"stimulus":1,"robot":3,"valence":"lose","action":"go","sham":0,"trial_type":"pit-trial","trial_index":38,"time_elapsed":319598,"internal_node_id":"0.0-13.0","task_version":"battery-v0.2-trt","session":2},{"rune":"Q","rune_set":"bacs1","hex":"#3366ff99","correct":32,"choice":32,"rt":738.2050000596792,"accuracy":1,"outcome":"+1","keys":[2238.6549999937415],"total_keys":1,"block":1,"trial":9,"stimulus":0,"robot":1,"valence":"win","action":"go","sham":1,"trial_type":"pit-trial","trial_index":39,"time_elapsed":323041,"internal_node_id":"0.0-14.0","task_version":"battery-v0.2-trt","session":2},{"rune":"L","rune_set":"bacs1","hex":"#f73b6a7A","correct":32,"choice":32,"rt":605.0750000867993,"accuracy":1,"outcome":"-1","keys":[2106.7250000778586],"total_keys":1,"block":1,"trial":10,"stimulus":1,"robot":3,"valence":"lose","action":"go","sham":0,"trial_type":"pit-trial","trial_index":40,"time_elapsed":326351,"internal_node_id":"0.0-15.0","task_version":"battery-v0.2-trt","session":2},{"rune":"C","rune_set":"bacs1","hex":"#f73b6a7A","correct":-1,"choice":-1,"rt":-1,"accuracy":1,"outcome":"-1","keys":[],"total_keys":0,"block":1,"trial":11,"stimulus":2,"robot":4,"valence":"lose","action":"no-go","sham":0,"trial_type":"pit-trial","trial_index":41,"time_elapsed":330357,"internal_node_id":"0.0-16.0","task_version":"battery-v0.2-trt","session":2},{"rune":"A","rune_set":"bacs1","hex":"#3366ff99","correct":-1,"choice":32,"rt":761.265000095591,"accuracy":0,"outcome":"+1","keys":[2262.2100000735372],"total_keys":1,"block":1,"trial":12,"stimulus":3,"robot":2,"valence":"win","action":"no-go","sham":0,"trial_type":"pit-trial","trial_index":42,"time_elapsed":333823,"internal_node_id":"0.0-17.0","task_version":"battery-v0.2-trt","session":2},{"rune":"Q","rune_set":"bacs1","hex":"#3366ff99","correct":32,"choice":32,"rt":702.6549999136478,"accuracy":1,"outcome":"+10","keys":[2203.7849999032915],"total_keys":1,"block":1,"trial":13,"stimulus":0,"robot":1,"valence":"win","action":"go","sham":0,"trial_type":"pit-trial","trial_index":43,"time_elapsed":337232,"internal_node_id":"0.0-18.0","task_version":"battery-v0.2-trt","session":2},{"rune":"A","rune_set":"bacs1","hex":"#3366ff99","correct":-1,"choice":-1,"rt":-1,"accuracy":1,"outcome":"+10","keys":[],"total_keys":0,"block":1,"trial":14,"stimulus":3,"robot":2,"valence":"win","action":"no-go","sham":0,"trial_type":"pit-trial","trial_index":44,"time_elapsed":341237,"internal_node_id":"0.0-19.0","task_version":"battery-v0.2-trt","session":2},{"rune":"C","rune_set":"bacs1","hex":"#f73b6a7A","correct":-1,"choice":-1,"rt":-1,"accuracy":1,"outcome":"-1","keys":[],"total_keys":0,"block":1,"trial":15,"stimulus":2,"robot":4,"valence":"lose","action":"no-go","sham":0,"trial_type":"pit-trial","trial_index":45,"time_elapsed":345242,"internal_node_id":"0.0-20.0","task_version":"battery-v0.2-trt","session":2},{"rune":"L","rune_set":"bacs1","hex":"#f73b6a7A","correct":32,"choice":-1,"rt":-1,"accuracy":0,"outcome":"-1","keys":[],"total_keys":0,"block":1,"trial":16,"stimulus":1,"robot":3,"valence":"lose","action":"go","sham":1,"trial_type":"pit-trial","trial_index":46,"time_elapsed":349248,"internal_node_id":"0.0-21.0","task_version":"battery-v0.2-trt","session":2},{"rune":"L","rune_set":"bacs1","hex":"#f73b6a7A","correct":32,"choice":-1,"rt":-1,"accuracy":0,"outcome":"-10","keys":[],"total_keys":0,"block":1,"trial":17,"stimulus":1,"robot":3,"valence":"lose","action":"go","sham":0,"trial_type":"pit-trial","trial_index":47,"time_elapsed":353253,"internal_node_id":"0.0-22.0","task_version":"battery-v0.2-trt","session":2},{"rune":"A","rune_set":"bacs1","hex":"#3366ff99","correct":-1,"choice":-1,"rt":-1,"accuracy":1,"outcome":"+10","keys":[],"total_keys":0,"block":1,"trial":18,"stimulus":3,"robot":2,"valence":"win","action":"no-go","sham":0,"trial_type":"pit-trial","trial_index":48,"time_elapsed":357259,"internal_node_id":"0.0-23.0","task_version":"battery-v0.2-trt","session":2},{"rune":"C","rune_set":"bacs1","hex":"#f73b6a7A","correct":-1,"choice":-1,"rt":-1,"accuracy":1,"outcome":"-1","keys":[],"total_keys":0,"block":1,"trial":19,"stimulus":2,"robot":4,"valence":"lose","action":"no-go","sham":0,"trial_type":"pit-trial","trial_index":49,"time_elapsed":361265,"internal_node_id":"0.0-24.0","task_version":"battery-v0.2-trt","session":2},{"rune":"Q","rune_set":"bacs1","hex":"#3366ff99","correct":32,"choice":32,"rt":507.04500009305775,"accuracy":1,"outcome":"+10","keys":[2008.3100001793355],"total_keys":1,"block":1,"trial":20,"stimulus":0,"robot":1,"valence":"win","action":"go","sham":0,"trial_type":"pit-trial","trial_index":50,"time_elapsed":364481,"internal_node_id":"0.0-25.0","task_version":"battery-v0.2-trt","session":2},{"rune":"C","rune_set":"bacs1","hex":"#f73b6a7A","correct":-1,"choice":-1,"rt":-1,"accuracy":1,"outcome":"-1","keys":[],"total_keys":0,"block":1,"trial":21,"stimulus":2,"robot":4,"valence":"lose","action":"no-go","sham":0,"trial_type":"pit-trial","trial_index":51,"time_elapsed":368487,"internal_node_id":"0.0-26.0","task_version":"battery-v0.2-trt","session":2},{"rune":"Q","rune_set":"bacs1","hex":"#3366ff99","correct":32,"choice":32,"rt":478.26999984681606,"accuracy":1,"outcome":"+10","keys":[1979.2249999009073],"total_keys":1,"block":1,"trial":22,"stimulus":0,"robot":1,"valence":"win","action":"go","sham":0,"trial_type":"pit-trial","trial_index":52,"time_elapsed":371671,"internal_node_id":"0.0-27.0","task_version":"battery-v0.2-trt","session":2},{"rune":"A","rune_set":"bacs1","hex":"#3366ff99","correct":-1,"choice":32,"rt":1230.6600001174957,"accuracy":0,"outcome":"+1","keys":[2731.700000120327],"total_keys":1,"block":1,"trial":23,"stimulus":3,"robot":2,"valence":"win","action":"no-go","sham":0,"trial_type":"pit-trial","trial_index":53,"time_elapsed":375607,"internal_node_id":"0.0-28.0","task_version":"battery-v0.2-trt","session":2},{"rune":"L","rune_set":"bacs1","hex":"#f73b6a7A","correct":32,"choice":32,"rt":788.4400000330061,"accuracy":1,"outcome":"-10","keys":[2291.9550000224262],"total_keys":1,"block":1,"trial":24,"stimulus":1,"robot":3,"valence":"lose","action":"go","sham":1,"trial_type":"pit-trial","trial_index":54,"time_elapsed":379102,"internal_node_id":"0.0-29.0","task_version":"battery-v0.2-trt","session":2},{"rune":"L","rune_set":"bacs1","hex":"#f73b6a7A","correct":32,"choice":-1,"rt":-1,"accuracy":0,"outcome":"-10","keys":[],"total_keys":0,"block":1,"trial":25,"stimulus":1,"robot":3,"valence":"lose","action":"go","sham":0,"trial_type":"pit-trial","trial_index":55,"time_elapsed":383107,"internal_node_id":"0.0-30.0","task_version":"battery-v0.2-trt","session":2},{"rune":"C","rune_set":"bacs1","hex":"#f73b6a7A","correct":-1,"choice":-1,"rt":-1,"accuracy":1,"outcome":"-1","keys":[],"total_keys":0,"block":1,"trial":26,"stimulus":2,"robot":4,"valence":"lose","action":"no-go","sham":0,"trial_type":"pit-trial","trial_index":56,"time_elapsed":387115,"internal_node_id":"0.0-31.0","task_version":"battery-v0.2-trt","session":2},{"rune":"Q","rune_set":"bacs1","hex":"#3366ff99","correct":32,"choice":32,"rt":447.2050000913441,"accuracy":1,"outcome":"+10","keys":[1948.5849998891354],"total_keys":1,"block":1,"trial":27,"stimulus":0,"robot":1,"valence":"win","action":"go","sham":0,"trial_type":"pit-trial","trial_index":57,"time_elapsed":390272,"internal_node_id":"0.0-32.0","task_version":"battery-v0.2-trt","session":2},{"rune":"A","rune_set":"bacs1","hex":"#3366ff99","correct":-1,"choice":-1,"rt":-1,"accuracy":1,"outcome":"+10","keys":[],"total_keys":0,"block":1,"trial":28,"stimulus":3,"robot":2,"valence":"win","action":"no-go","sham":0,"trial_type":"pit-trial","trial_index":58,"time_elapsed":394278,"internal_node_id":"0.0-33.0","task_version":"battery-v0.2-trt","session":2},{"rune":"A","rune_set":"bacs1","hex":"#3366ff99","correct":-1,"choice":-1,"rt":-1,"accuracy":1,"outcome":"+1","keys":[],"total_keys":0,"block":1,"trial":29,"stimulus":3,"robot":2,"valence":"win","action":"no-go","sham":1,"trial_type":"pit-trial","trial_index":59,"time_elapsed":398284,"internal_node_id":"0.0-34.0","task_version":"battery-v0.2-trt","session":2},{"rune":"L","rune_set":"bacs1","hex":"#f73b6a7A","correct":32,"choice":32,"rt":977.9349998570979,"accuracy":1,"outcome":"-1","keys":[2479.2400000151247],"total_keys":1,"block":1,"trial":30,"stimulus":1,"robot":3,"valence":"lose","action":"go","sham":0,"trial_type":"pit-trial","trial_index":60,"time_elapsed":401968,"internal_node_id":"0.0-35.0","task_version":"battery-v0.2-trt","session":2},{"rune":"C","rune_set":"bacs1","hex":"#f73b6a7A","correct":-1,"choice":-1,"rt":-1,"accuracy":1,"outcome":"-10","keys":[],"total_keys":0,"block":1,"trial":31,"stimulus":2,"robot":4,"valence":"lose","action":"no-go","sham":1,"trial_type":"pit-trial","trial_index":61,"time_elapsed":405976,"internal_node_id":"0.0-36.0","task_version":"battery-v0.2-trt","session":2},{"rune":"Q","rune_set":"bacs1","hex":"#3366ff99","correct":32,"choice":32,"rt":453.6450000014156,"accuracy":1,"outcome":"+10","keys":[1954.359999857843],"total_keys":1,"block":1,"trial":32,"stimulus":0,"robot":1,"valence":"win","action":"go","sham":0,"trial_type":"pit-trial","trial_index":62,"time_elapsed":409136,"internal_node_id":"0.0-37.0","task_version":"battery-v0.2-trt","session":2},{"rune":"F","rune_set":"bacs1","hex":"#f73b6a7A","correct":-1,"choice":32,"rt":846.3850000407547,"accuracy":0,"outcome":"-1","keys":[2347.0300000626594],"total_keys":1,"block":1,"trial":33,"stimulus":4,"robot":4,"valence":"lose","action":"no-go","sham":1,"trial_type":"pit-trial","trial_index":63,"time_elapsed":412687,"internal_node_id":"0.0-38.0","task_version":"battery-v0.2-trt","session":2},{"rune":"A","rune_set":"bacs1","hex":"#3366ff99","correct":-1,"choice":-1,"rt":-1,"accuracy":1,"outcome":"+10","keys":[],"total_keys":0,"block":1,"trial":34,"stimulus":3,"robot":2,"valence":"win","action":"no-go","sham":0,"trial_type":"pit-trial","trial_index":64,"time_elapsed":416692,"internal_node_id":"0.0-39.0","task_version":"battery-v0.2-trt","session":2},{"rune":"L","rune_set":"bacs1","hex":"#f73b6a7A","correct":32,"choice":-1,"rt":-1,"accuracy":0,"outcome":"-10","keys":[],"total_keys":0,"block":1,"trial":35,"stimulus":1,"robot":3,"valence":"lose","action":"go","sham":0,"trial_type":"pit-trial","trial_index":65,"time_elapsed":420698,"internal_node_id":"0.0-40.0","task_version":"battery-v0.2-trt","session":2},{"rune":"Q","rune_set":"bacs1","hex":"#3366ff99","correct":32,"choice":32,"rt":436.9399999268353,"accuracy":1,"outcome":"+10","keys":[1937.4850001186132],"total_keys":1,"block":1,"trial":36,"stimulus":0,"robot":1,"valence":"win","action":"go","sham":0,"trial_type":"pit-trial","trial_index":66,"time_elapsed":423851,"internal_node_id":"0.0-41.0","task_version":"battery-v0.2-trt","session":2},{"rune":"L","rune_set":"bacs1","hex":"#f73b6a7A","correct":32,"choice":32,"rt":579.8700000159442,"accuracy":1,"outcome":"-1","keys":[2080.595000181347],"total_keys":1,"block":1,"trial":37,"stimulus":1,"robot":3,"valence":"lose","action":"go","sham":0,"trial_type":"pit-trial","trial_index":67,"time_elapsed":427135,"internal_node_id":"0.0-42.0","task_version":"battery-v0.2-trt","session":2},{"rune":"A","rune_set":"bacs1","hex":"#3366ff99","correct":-1,"choice":-1,"rt":-1,"accuracy":1,"outcome":"+10","keys":[],"total_keys":0,"block":1,"trial":38,"stimulus":3,"robot":2,"valence":"win","action":"no-go","sham":0,"trial_type":"pit-trial","trial_index":68,"time_elapsed":431140,"internal_node_id":"0.0-43.0","task_version":"battery-v0.2-trt","session":2},{"rune":"F","rune_set":"bacs1","hex":"#f73b6a7A","correct":-1,"choice":32,"rt":921.7499999795109,"accuracy":0,"outcome":"-1","keys":[2423.3450000174344],"total_keys":1,"block":1,"trial":39,"stimulus":4,"robot":4,"valence":"lose","action":"no-go","sham":1,"trial_type":"pit-trial","trial_index":69,"time_elapsed":434766,"internal_node_id":"0.0-44.0","task_version":"battery-v0.2-trt","session":2},{"rune":"Q","rune_set":"bacs1","hex":"#3366ff99","correct":32,"choice":32,"rt":544.2150000017136,"accuracy":1,"outcome":"+10","keys":[2044.844999909401],"total_keys":1,"block":1,"trial":40,"stimulus":0,"robot":1,"valence":"win","action":"go","sham":0,"trial_type":"pit-trial","trial_index":70,"time_elapsed":438014,"internal_node_id":"0.0-45.0","task_version":"battery-v0.2-trt","session":2},{"rune":"T","rune_set":"bacs1","hex":"#f73b6a7A","correct":32,"choice":32,"rt":831.304999999702,"accuracy":1,"outcome":"-1","keys":[2331.91499998793],"total_keys":1,"block":1,"trial":41,"stimulus":5,"robot":3,"valence":"lose","action":"go","sham":0,"trial_type":"pit-trial","trial_index":71,"time_elapsed":441551,"internal_node_id":"0.0-46.0","task_version":"battery-v0.2-trt","session":2},{"rune":"F","rune_set":"bacs1","hex":"#f73b6a7A","correct":-1,"choice":32,"rt":631.4949998632073,"accuracy":0,"outcome":"-10","keys":[2131.959999911487],"total_keys":1,"block":1,"trial":42,"stimulus":4,"robot":4,"valence":"lose","action":"no-go","sham":0,"trial_type":"pit-trial","trial_index":72,"time_elapsed":444888,"internal_node_id":"0.0-47.0","task_version":"battery-v0.2-trt","session":2},{"rune":"A","rune_set":"bacs1","hex":"#3366ff99","correct":-1,"choice":-1,"rt":-1,"accuracy":1,"outcome":"+1","keys":[],"total_keys":0,"block":1,"trial":43,"stimulus":3,"robot":2,"valence":"win","action":"no-go","sham":1,"trial_type":"pit-trial","trial_index":73,"time_elapsed":448896,"internal_node_id":"0.0-48.0","task_version":"battery-v0.2-trt","session":2},{"rune":"Q","rune_set":"bacs1","hex":"#3366ff99","correct":32,"choice":32,"rt":541.9749999418855,"accuracy":1,"outcome":"+1","keys":[2043.08500001207],"total_keys":1,"block":1,"trial":44,"stimulus":0,"robot":1,"valence":"win","action":"go","sham":1,"trial_type":"pit-trial","trial_index":74,"time_elapsed":452143,"internal_node_id":"0.0-49.0","task_version":"battery-v0.2-trt","session":2},{"rune":"A","rune_set":"bacs1","hex":"#3366ff99","correct":-1,"choice":-1,"rt":-1,"accuracy":1,"outcome":"+10","keys":[],"total_keys":0,"block":1,"trial":45,"stimulus":3,"robot":2,"valence":"win","action":"no-go","sham":0,"trial_type":"pit-trial","trial_index":75,"time_elapsed":456154,"internal_node_id":"0.0-50.0","task_version":"battery-v0.2-trt","session":2},{"rune":"Q","rune_set":"bacs1","hex":"#3366ff99","correct":32,"choice":32,"rt":559.7500000149012,"accuracy":1,"outcome":"+1","keys":[2065.650000004098],"total_keys":1,"block":1,"trial":46,"stimulus":0,"robot":1,"valence":"win","action":"go","sham":1,"trial_type":"pit-trial","trial_index":76,"time_elapsed":459427,"internal_node_id":"0.0-51.0","task_version":"battery-v0.2-trt","session":2},{"rune":"F","rune_set":"bacs1","hex":"#f73b6a7A","correct":-1,"choice":32,"rt":931.6650000400841,"accuracy":0,"outcome":"-10","keys":[2432.0499999448657],"total_keys":1,"block":1,"trial":47,"stimulus":4,"robot":4,"valence":"lose","action":"no-go","sham":0,"trial_type":"pit-trial","trial_index":77,"time_elapsed":463063,"internal_node_id":"0.0-52.0","task_version":"battery-v0.2-trt","session":2},{"rune":"T","rune_set":"bacs1","hex":"#f73b6a7A","correct":32,"choice":-1,"rt":-1,"accuracy":0,"outcome":"-10","keys":[],"total_keys":0,"block":1,"trial":48,"stimulus":5,"robot":3,"valence":"lose","action":"go","sham":0,"trial_type":"pit-trial","trial_index":78,"time_elapsed":467070,"internal_node_id":"0.0-53.0","task_version":"battery-v0.2-trt","session":2},{"rune":"T","rune_set":"bacs1","hex":"#f73b6a7A","correct":32,"choice":32,"rt":424.6500001754612,"accuracy":1,"outcome":"-1","keys":[1925.6799998693168],"total_keys":1,"block":1,"trial":49,"stimulus":5,"robot":3,"valence":"lose","action":"go","sham":0,"trial_type":"pit-trial","trial_index":79,"time_elapsed":470200,"internal_node_id":"0.0-54.0","task_version":"battery-v0.2-trt","session":2},{"rune":"V","rune_set":"bacs1","hex":"#3366ff99","correct":-1,"choice":32,"rt":814.7999998182058,"accuracy":0,"outcome":"+1","keys":[2315.375000005588],"total_keys":1,"block":1,"trial":50,"stimulus":7,"robot":2,"valence":"win","action":"no-go","sham":0,"trial_type":"pit-trial","trial_index":80,"time_elapsed":473719,"internal_node_id":"0.0-55.0","task_version":"battery-v0.2-trt","session":2},{"rune":"E","rune_set":"bacs1","hex":"#3366ff99","correct":-1,"choice":32,"rt":687.0350001845509,"accuracy":0,"outcome":"+1","keys":[2188.5650001931936],"total_keys":1,"block":1,"trial":51,"stimulus":6,"robot":2,"valence":"win","action":"no-go","sham":0,"trial_type":"pit-trial","trial_index":81,"time_elapsed":477111,"internal_node_id":"0.0-56.0","task_version":"battery-v0.2-trt","session":2},{"rune":"F","rune_set":"bacs1","hex":"#f73b6a7A","correct":-1,"choice":32,"rt":832.799999974668,"accuracy":0,"outcome":"-10","keys":[2333.0699999351054],"total_keys":1,"block":1,"trial":52,"stimulus":4,"robot":4,"valence":"lose","action":"no-go","sham":0,"trial_type":"pit-trial","trial_index":82,"time_elapsed":480647,"internal_node_id":"0.0-57.0","task_version":"battery-v0.2-trt","session":2},{"rune":"T","rune_set":"bacs1","hex":"#f73b6a7A","correct":32,"choice":32,"rt":566.3650000933558,"accuracy":1,"outcome":"-1","keys":[2067.900000140071],"total_keys":1,"block":1,"trial":53,"stimulus":5,"robot":3,"valence":"lose","action":"go","sham":0,"trial_type":"pit-trial","trial_index":83,"time_elapsed":483919,"internal_node_id":"0.0-58.0","task_version":"battery-v0.2-trt","session":2},{"rune":"E","rune_set":"bacs1","hex":"#3366ff99","correct":-1,"choice":32,"rt":671.3950000703335,"accuracy":0,"outcome":"+1","keys":[2172.4050000775605],"total_keys":1,"block":1,"trial":54,"stimulus":6,"robot":2,"valence":"win","action":"no-go","sham":0,"trial_type":"pit-trial","trial_index":84,"time_elapsed":487295,"internal_node_id":"0.0-59.0","task_version":"battery-v0.2-trt","session":2},{"rune":"F","rune_set":"bacs1","hex":"#f73b6a7A","correct":-1,"choice":-1,"rt":-1,"accuracy":1,"outcome":"-1","keys":[],"total_keys":0,"block":1,"trial":55,"stimulus":4,"robot":4,"valence":"lose","action":"no-go","sham":0,"trial_type":"pit-trial","trial_index":85,"time_elapsed":491301,"internal_node_id":"0.0-60.0","task_version":"battery-v0.2-trt","session":2},{"rune":"V","rune_set":"bacs1","hex":"#3366ff99","correct":-1,"choice":-1,"rt":-1,"accuracy":1,"outcome":"+10","keys":[],"total_keys":0,"block":1,"trial":56,"stimulus":7,"robot":2,"valence":"win","action":"no-go","sham":0,"trial_type":"pit-trial","trial_index":86,"time_elapsed":495307,"internal_node_id":"0.0-61.0","task_version":"battery-v0.2-trt","session":2},{"rune":"E","rune_set":"bacs1","hex":"#3366ff99","correct":-1,"choice":-1,"rt":-1,"accuracy":1,"outcome":"+1","keys":[],"total_keys":0,"block":1,"trial":57,"stimulus":6,"robot":2,"valence":"win","action":"no-go","sham":1,"trial_type":"pit-trial","trial_index":87,"time_elapsed":499312,"internal_node_id":"0.0-62.0","task_version":"battery-v0.2-trt","session":2},{"rune":"V","rune_set":"bacs1","hex":"#3366ff99","correct":-1,"choice":-1,"rt":-1,"accuracy":1,"outcome":"+10","keys":[],"total_keys":0,"block":1,"trial":58,"stimulus":7,"robot":2,"valence":"win","action":"no-go","sham":0,"trial_type":"pit-trial","trial_index":88,"time_elapsed":503316,"internal_node_id":"0.0-63.0","task_version":"battery-v0.2-trt","session":2},{"rune":"T","rune_set":"bacs1","hex":"#f73b6a7A","correct":32,"choice":32,"rt":545.8349999971688,"accuracy":1,"outcome":"-1","keys":[2046.0250000469387],"total_keys":1,"block":1,"trial":59,"stimulus":5,"robot":3,"valence":"lose","action":"go","sham":0,"trial_type":"pit-trial","trial_index":89,"time_elapsed":506567,"internal_node_id":"0.0-64.0","task_version":"battery-v0.2-trt","session":2},{"rune":"F","rune_set":"bacs1","hex":"#f73b6a7A","correct":-1,"choice":-1,"rt":-1,"accuracy":1,"outcome":"-1","keys":[],"total_keys":0,"block":1,"trial":60,"stimulus":4,"robot":4,"valence":"lose","action":"no-go","sham":0,"trial_type":"pit-trial","trial_index":90,"time_elapsed":510571,"internal_node_id":"0.0-65.0","task_version":"battery-v0.2-trt","session":2},{"rune":"T","rune_set":"bacs1","hex":"#f73b6a7A","correct":32,"choice":32,"rt":538.7500000651926,"accuracy":1,"outcome":"-1","keys":[2039.8699999786913],"total_keys":1,"block":1,"trial":61,"stimulus":5,"robot":3,"valence":"lose","action":"go","sham":0,"trial_type":"pit-trial","trial_index":91,"time_elapsed":513814,"internal_node_id":"0.0-66.0","task_version":"battery-v0.2-trt","session":2},{"rune":"F","rune_set":"bacs1","hex":"#f73b6a7A","correct":-1,"choice":-1,"rt":-1,"accuracy":1,"outcome":"-10","keys":[],"total_keys":0,"block":1,"trial":62,"stimulus":4,"robot":4,"valence":"lose","action":"no-go","sham":1,"trial_type":"pit-trial","trial_index":92,"time_elapsed":517820,"internal_node_id":"0.0-67.0","task_version":"battery-v0.2-trt","session":2},{"rune":"E","rune_set":"bacs1","hex":"#3366ff99","correct":-1,"choice":-1,"rt":-1,"accuracy":1,"outcome":"+1","keys":[],"total_keys":0,"block":1,"trial":63,"stimulus":6,"robot":2,"valence":"win","action":"no-go","sham":1,"trial_type":"pit-trial","trial_index":93,"time_elapsed":521825,"internal_node_id":"0.0-68.0","task_version":"battery-v0.2-trt","session":2},{"rune":"V","rune_set":"bacs1","hex":"#3366ff99","correct":-1,"choice":-1,"rt":-1,"accuracy":1,"outcome":"+1","keys":[],"total_keys":0,"block":1,"trial":64,"stimulus":7,"robot":2,"valence":"win","action":"no-go","sham":1,"trial_type":"pit-trial","trial_index":94,"time_elapsed":525831,"internal_node_id":"0.0-69.0","task_version":"battery-v0.2-trt","session":2},{"rune":"T","rune_set":"bacs1","hex":"#f73b6a7A","correct":32,"choice":32,"rt":527.1199999842793,"accuracy":1,"outcome":"-1","keys":[2028.1950000207871],"total_keys":1,"block":1,"trial":65,"stimulus":5,"robot":3,"valence":"lose","action":"go","sham":0,"trial_type":"pit-trial","trial_index":95,"time_elapsed":529064,"internal_node_id":"0.0-70.0","task_version":"battery-v0.2-trt","session":2},{"rune":"V","rune_set":"bacs1","hex":"#3366ff99","correct":-1,"choice":-1,"rt":-1,"accuracy":1,"outcome":"+10","keys":[],"total_keys":0,"block":1,"trial":66,"stimulus":7,"robot":2,"valence":"win","action":"no-go","sham":0,"trial_type":"pit-trial","trial_index":96,"time_elapsed":533083,"internal_node_id":"0.0-71.0","task_version":"battery-v0.2-trt","session":2},{"rune":"E","rune_set":"bacs1","hex":"#3366ff99","correct":-1,"choice":32,"rt":575.1549999695271,"accuracy":0,"outcome":"+1","keys":[2076.954999938607],"total_keys":1,"block":1,"trial":67,"stimulus":6,"robot":2,"valence":"win","action":"no-go","sham":0,"trial_type":"pit-trial","trial_index":97,"time_elapsed":536365,"internal_node_id":"0.0-72.0","task_version":"battery-v0.2-trt","session":2},{"rune":"F","rune_set":"bacs1","hex":"#f73b6a7A","correct":-1,"choice":-1,"rt":-1,"accuracy":1,"outcome":"-1","keys":[],"total_keys":0,"block":1,"trial":68,"stimulus":4,"robot":4,"valence":"lose","action":"no-go","sham":0,"trial_type":"pit-trial","trial_index":98,"time_elapsed":540370,"internal_node_id":"0.0-73.0","task_version":"battery-v0.2-trt","session":2},{"rune":"E","rune_set":"bacs1","hex":"#3366ff99","correct":-1,"choice":32,"rt":874.3249999824911,"accuracy":0,"outcome":"+1","keys":[2375.715000089258],"total_keys":1,"block":1,"trial":69,"stimulus":6,"robot":2,"valence":"win","action":"no-go","sham":0,"trial_type":"pit-trial","trial_index":99,"time_elapsed":543950,"internal_node_id":"0.0-74.0","task_version":"battery-v0.2-trt","session":2},{"rune":"F","rune_set":"bacs1","hex":"#f73b6a7A","correct":-1,"choice":-1,"rt":-1,"accuracy":1,"outcome":"-1","keys":[],"total_keys":0,"block":1,"trial":70,"stimulus":4,"robot":4,"valence":"lose","action":"no-go","sham":0,"trial_type":"pit-trial","trial_index":100,"time_elapsed":547955,"internal_node_id":"0.0-75.0","task_version":"battery-v0.2-trt","session":2},{"rune":"V","rune_set":"bacs1","hex":"#3366ff99","correct":-1,"choice":-1,"rt":-1,"accuracy":1,"outcome":"+1","keys":[],"total_keys":0,"block":1,"trial":71,"stimulus":7,"robot":2,"valence":"win","action":"no-go","sham":1,"trial_type":"pit-trial","trial_index":101,"time_elapsed":551962,"internal_node_id":"0.0-76.0","task_version":"battery-v0.2-trt","session":2},{"rune":"T","rune_set":"bacs1","hex":"#f73b6a7A","correct":32,"choice":32,"rt":495.0650001410395,"accuracy":1,"outcome":"-1","keys":[1998.4999999869615],"total_keys":1,"block":1,"trial":72,"stimulus":5,"robot":3,"valence":"lose","action":"go","sham":0,"trial_type":"pit-trial","trial_index":102,"time_elapsed":555174,"internal_node_id":"0.0-77.0","task_version":"battery-v0.2-trt","session":2},{"rune":"T","rune_set":"bacs1","hex":"#f73b6a7A","correct":32,"choice":32,"rt":629.3649999424815,"accuracy":1,"outcome":"-1","keys":[2131.685000145808],"total_keys":1,"block":1,"trial":73,"stimulus":5,"robot":3,"valence":"lose","action":"go","sham":0,"trial_type":"pit-trial","trial_index":103,"time_elapsed":558510,"internal_node_id":"0.0-78.0","task_version":"battery-v0.2-trt","session":2},{"rune":"E","rune_set":"bacs1","hex":"#3366ff99","correct":-1,"choice":32,"rt":886.39000011608,"accuracy":0,"outcome":"+1","keys":[2388.1950001232326],"total_keys":1,"block":1,"trial":74,"stimulus":6,"robot":2,"valence":"win","action":"no-go","sham":0,"trial_type":"pit-trial","trial_index":104,"time_elapsed":562103,"internal_node_id":"0.0-79.0","task_version":"battery-v0.2-trt","session":2},{"rune":"V","rune_set":"bacs1","hex":"#3366ff99","correct":-1,"choice":-1,"rt":-1,"accuracy":1,"outcome":"+10","keys":[],"total_keys":0,"block":1,"trial":75,"stimulus":7,"robot":2,"valence":"win","action":"no-go","sham":0,"trial_type":"pit-trial","trial_index":105,"time_elapsed":566108,"internal_node_id":"0.0-80.0","task_version":"battery-v0.2-trt","session":2},{"rune":"F","rune_set":"bacs1","hex":"#f73b6a7A","correct":-1,"choice":-1,"rt":-1,"accuracy":1,"outcome":"-1","keys":[],"total_keys":0,"block":1,"trial":76,"stimulus":4,"robot":4,"valence":"lose","action":"no-go","sham":0,"trial_type":"pit-trial","trial_index":106,"time_elapsed":570113,"internal_node_id":"0.0-81.0","task_version":"battery-v0.2-trt","session":2},{"rune":"F","rune_set":"bacs1","hex":"#f73b6a7A","correct":-1,"choice":-1,"rt":-1,"accuracy":1,"outcome":"-1","keys":[],"total_keys":0,"block":1,"trial":77,"stimulus":4,"robot":4,"valence":"lose","action":"no-go","sham":0,"trial_type":"pit-trial","trial_index":107,"time_elapsed":574120,"internal_node_id":"0.0-82.0","task_version":"battery-v0.2-trt","session":2},{"rune":"V","rune_set":"bacs1","hex":"#3366ff99","correct":-1,"choice":-1,"rt":-1,"accuracy":1,"outcome":"+10","keys":[],"total_keys":0,"block":1,"trial":78,"stimulus":7,"robot":2,"valence":"win","action":"no-go","sham":0,"trial_type":"pit-trial","trial_index":108,"time_elapsed":578125,"internal_node_id":"0.0-83.0","task_version":"battery-v0.2-trt","session":2},{"rune":"T","rune_set":"bacs1","hex":"#f73b6a7A","correct":32,"choice":32,"rt":464.5100000780076,"accuracy":1,"outcome":"-1","keys":[1965.2899999637157],"total_keys":1,"block":1,"trial":79,"stimulus":5,"robot":3,"valence":"lose","action":"go","sham":0,"trial_type":"pit-trial","trial_index":109,"time_elapsed":581309,"internal_node_id":"0.0-84.0","task_version":"battery-v0.2-trt","session":2},{"rune":"E","rune_set":"bacs1","hex":"#3366ff99","correct":-1,"choice":-1,"rt":-1,"accuracy":1,"outcome":"+10","keys":[],"total_keys":0,"block":1,"trial":80,"stimulus":6,"robot":2,"valence":"win","action":"no-go","sham":0,"trial_type":"pit-trial","trial_index":110,"time_elapsed":585314,"internal_node_id":"0.0-85.0","task_version":"battery-v0.2-trt","session":2},{"rune":"V","rune_set":"bacs1","hex":"#3366ff99","correct":-1,"choice":-1,"rt":-1,"accuracy":1,"outcome":"+10","keys":[],"total_keys":0,"block":1,"trial":81,"stimulus":7,"robot":2,"valence":"win","action":"no-go","sham":0,"trial_type":"pit-trial","trial_index":111,"time_elapsed":589318,"internal_node_id":"0.0-86.0","task_version":"battery-v0.2-trt","session":2},{"rune":"T","rune_set":"bacs1","hex":"#f73b6a7A","correct":32,"choice":32,"rt":526.9500000867993,"accuracy":1,"outcome":"-1","keys":[2028.4649999812245],"total_keys":1,"block":1,"trial":82,"stimulus":5,"robot":3,"valence":"lose","action":"go","sham":0,"trial_type":"pit-trial","trial_index":112,"time_elapsed":592552,"internal_node_id":"0.0-87.0","task_version":"battery-v0.2-trt","session":2},{"rune":"R","rune_set":"bacs1","hex":"#3366ff99","correct":32,"choice":32,"rt":1029.310000129044,"accuracy":1,"outcome":"+10","keys":[2529.694999800995],"total_keys":1,"block":1,"trial":83,"stimulus":8,"robot":1,"valence":"win","action":"go","sham":0,"trial_type":"pit-trial","trial_index":113,"time_elapsed":596287,"internal_node_id":"0.0-88.0","task_version":"battery-v0.2-trt","session":2},{"rune":"J","rune_set":"bacs1","hex":"#f73b6a7A","correct":-1,"choice":32,"rt":1007.0499998982996,"accuracy":0,"outcome":"-10","keys":[2507.759999949485],"total_keys":1,"block":1,"trial":84,"stimulus":9,"robot":4,"valence":"lose","action":"no-go","sham":0,"trial_type":"pit-trial","trial_index":114,"time_elapsed":599997,"internal_node_id":"0.0-89.0","task_version":"battery-v0.2-trt","session":2},{"rune":"V","rune_set":"bacs1","hex":"#3366ff99","correct":-1,"choice":-1,"rt":-1,"accuracy":1,"outcome":"+10","keys":[],"total_keys":0,"block":1,"trial":85,"stimulus":7,"robot":2,"valence":"win","action":"no-go","sham":0,"trial_type":"pit-trial","trial_index":115,"time_elapsed":604004,"internal_node_id":"0.0-90.0","task_version":"battery-v0.2-trt","session":2},{"rune":"R","rune_set":"bacs1","hex":"#3366ff99","correct":32,"choice":32,"rt":616.9300000183284,"accuracy":1,"outcome":"+10","keys":[2118.1649998761714],"total_keys":1,"block":1,"trial":86,"stimulus":8,"robot":1,"valence":"win","action":"go","sham":0,"trial_type":"pit-trial","trial_index":116,"time_elapsed":607327,"internal_node_id":"0.0-91.0","task_version":"battery-v0.2-trt","session":2},{"rune":"J","rune_set":"bacs1","hex":"#f73b6a7A","correct":-1,"choice":32,"rt":860.5150000657886,"accuracy":0,"outcome":"-10","keys":[2362.0600001886487],"total_keys":1,"block":1,"trial":87,"stimulus":9,"robot":4,"valence":"lose","action":"no-go","sham":0,"trial_type":"pit-trial","trial_index":117,"time_elapsed":610894,"internal_node_id":"0.0-92.0","task_version":"battery-v0.2-trt","session":2},{"rune":"T","rune_set":"bacs1","hex":"#f73b6a7A","correct":32,"choice":32,"rt":454.7749999910593,"accuracy":1,"outcome":"-10","keys":[1956.2850000802428],"total_keys":1,"block":1,"trial":88,"stimulus":5,"robot":3,"valence":"lose","action":"go","sham":1,"trial_type":"pit-trial","trial_index":118,"time_elapsed":614053,"internal_node_id":"0.0-93.0","task_version":"battery-v0.2-trt","session":2},{"rune":"J","rune_set":"bacs1","hex":"#f73b6a7A","correct":-1,"choice":-1,"rt":-1,"accuracy":1,"outcome":"-1","keys":[],"total_keys":0,"block":1,"trial":89,"stimulus":9,"robot":4,"valence":"lose","action":"no-go","sham":0,"trial_type":"pit-trial","trial_index":119,"time_elapsed":618059,"internal_node_id":"0.0-94.0","task_version":"battery-v0.2-trt","session":2},{"rune":"Z","rune_set":"bacs1","hex":"#f73b6a7A","correct":32,"choice":-1,"rt":-1,"accuracy":0,"outcome":"-1","keys":[],"total_keys":0,"block":1,"trial":90,"stimulus":10,"robot":3,"valence":"lose","action":"go","sham":1,"trial_type":"pit-trial","trial_index":120,"time_elapsed":622064,"internal_node_id":"0.0-95.0","task_version":"battery-v0.2-trt","session":2},{"rune":"R","rune_set":"bacs1","hex":"#3366ff99","correct":32,"choice":32,"rt":525.9999998379499,"accuracy":1,"outcome":"+10","keys":[2026.9700000062585],"total_keys":1,"block":1,"trial":91,"stimulus":8,"robot":1,"valence":"win","action":"go","sham":0,"trial_type":"pit-trial","trial_index":121,"time_elapsed":625295,"internal_node_id":"0.0-96.0","task_version":"battery-v0.2-trt","session":2},{"rune":"B","rune_set":"bacs1","hex":"#3366ff99","correct":32,"choice":32,"rt":821.6949999332428,"accuracy":1,"outcome":"+10","keys":[2322.9799999389797],"total_keys":1,"block":1,"trial":92,"stimulus":11,"robot":1,"valence":"win","action":"go","sham":0,"trial_type":"pit-trial","trial_index":122,"time_elapsed":628823,"internal_node_id":"0.0-97.0","task_version":"battery-v0.2-trt","session":2},{"rune":"R","rune_set":"bacs1","hex":"#3366ff99","correct":32,"choice":32,"rt":773.8949998747557,"accuracy":1,"outcome":"+10","keys":[2275.2300000283867],"total_keys":1,"block":1,"trial":93,"stimulus":8,"robot":1,"valence":"win","action":"go","sham":0,"trial_type":"pit-trial","trial_index":123,"time_elapsed":632302,"internal_node_id":"0.0-98.0","task_version":"battery-v0.2-trt","session":2},{"rune":"B","rune_set":"bacs1","hex":"#3366ff99","correct":32,"choice":-1,"rt":-1,"accuracy":0,"outcome":"+1","keys":[],"total_keys":0,"block":1,"trial":94,"stimulus":11,"robot":1,"valence":"win","action":"go","sham":0,"trial_type":"pit-trial","trial_index":124,"time_elapsed":636307,"internal_node_id":"0.0-99.0","task_version":"battery-v0.2-trt","session":2},{"rune":"J","rune_set":"bacs1","hex":"#f73b6a7A","correct":-1,"choice":-1,"rt":-1,"accuracy":1,"outcome":"-1","keys":[],"total_keys":0,"block":1,"trial":95,"stimulus":9,"robot":4,"valence":"lose","action":"no-go","sham":0,"trial_type":"pit-trial","trial_index":125,"time_elapsed":640312,"internal_node_id":"0.0-100.0","task_version":"battery-v0.2-trt","session":2},{"rune":"Z","rune_set":"bacs1","hex":"#f73b6a7A","correct":32,"choice":-1,"rt":-1,"accuracy":0,"outcome":"-10","keys":[],"total_keys":0,"block":1,"trial":96,"stimulus":10,"robot":3,"valence":"lose","action":"go","sham":0,"trial_type":"pit-trial","trial_index":126,"time_elapsed":644317,"internal_node_id":"0.0-101.0","task_version":"battery-v0.2-trt","session":2},{"rune":"B","rune_set":"bacs1","hex":"#3366ff99","correct":32,"choice":32,"rt":575.3349999431521,"accuracy":1,"outcome":"+10","keys":[2076.0149999987334],"total_keys":1,"block":1,"trial":97,"stimulus":11,"robot":1,"valence":"win","action":"go","sham":0,"trial_type":"pit-trial","trial_index":127,"time_elapsed":647598,"internal_node_id":"0.0-102.0","task_version":"battery-v0.2-trt","session":2},{"rune":"J","rune_set":"bacs1","hex":"#f73b6a7A","correct":-1,"choice":-1,"rt":-1,"accuracy":1,"outcome":"-1","keys":[],"total_keys":0,"block":1,"trial":98,"stimulus":9,"robot":4,"valence":"lose","action":"no-go","sham":0,"trial_type":"pit-trial","trial_index":128,"time_elapsed":651604,"internal_node_id":"0.0-103.0","task_version":"battery-v0.2-trt","session":2},{"rune":"Z","rune_set":"bacs1","hex":"#f73b6a7A","correct":32,"choice":32,"rt":721.5950000099838,"accuracy":1,"outcome":"-10","keys":[2221.9050000421703],"total_keys":1,"block":1,"trial":99,"stimulus":10,"robot":3,"valence":"lose","action":"go","sham":1,"trial_type":"pit-trial","trial_index":129,"time_elapsed":655030,"internal_node_id":"0.0-104.0","task_version":"battery-v0.2-trt","session":2},{"rune":"R","rune_set":"bacs1","hex":"#3366ff99","correct":32,"choice":32,"rt":495.80999999307096,"accuracy":1,"outcome":"+10","keys":[1996.1749999783933],"total_keys":1,"block":1,"trial":100,"stimulus":8,"robot":1,"valence":"win","action":"go","sham":0,"trial_type":"pit-trial","trial_index":130,"time_elapsed":658230,"internal_node_id":"0.0-105.0","task_version":"battery-v0.2-trt","session":2},{"rune":"R","rune_set":"bacs1","hex":"#3366ff99","correct":32,"choice":32,"rt":534.4799999147654,"accuracy":1,"outcome":"+10","keys":[2035.524999955669],"total_keys":1,"block":1,"trial":101,"stimulus":8,"robot":1,"valence":"win","action":"go","sham":0,"trial_type":"pit-trial","trial_index":131,"time_elapsed":661469,"internal_node_id":"0.0-106.0","task_version":"battery-v0.2-trt","session":2},{"rune":"Z","rune_set":"bacs1","hex":"#f73b6a7A","correct":32,"choice":-1,"rt":-1,"accuracy":0,"outcome":"-10","keys":[],"total_keys":0,"block":1,"trial":102,"stimulus":10,"robot":3,"valence":"lose","action":"go","sham":0,"trial_type":"pit-trial","trial_index":132,"time_elapsed":665476,"internal_node_id":"0.0-107.0","task_version":"battery-v0.2-trt","session":2},{"rune":"J","rune_set":"bacs1","hex":"#f73b6a7A","correct":-1,"choice":-1,"rt":-1,"accuracy":1,"outcome":"-10","keys":[],"total_keys":0,"block":1,"trial":103,"stimulus":9,"robot":4,"valence":"lose","action":"no-go","sham":1,"trial_type":"pit-trial","trial_index":133,"time_elapsed":669483,"internal_node_id":"0.0-108.0","task_version":"battery-v0.2-trt","session":2},{"rune":"B","rune_set":"bacs1","hex":"#3366ff99","correct":32,"choice":32,"rt":603.2350000459701,"accuracy":1,"outcome":"+10","keys":[2103.3650001045316],"total_keys":1,"block":1,"trial":104,"stimulus":11,"robot":1,"valence":"win","action":"go","sham":0,"trial_type":"pit-trial","trial_index":134,"time_elapsed":672789,"internal_node_id":"0.0-109.0","task_version":"battery-v0.2-trt","session":2},{"rune":"B","rune_set":"bacs1","hex":"#3366ff99","correct":32,"choice":32,"rt":799.265000037849,"accuracy":1,"outcome":"+10","keys":[2300.3000000026077],"total_keys":1,"block":1,"trial":105,"stimulus":11,"robot":1,"valence":"win","action":"go","sham":0,"trial_type":"pit-trial","trial_index":135,"time_elapsed":676294,"internal_node_id":"0.0-110.0","task_version":"battery-v0.2-trt","session":2},{"rune":"Z","rune_set":"bacs1","hex":"#f73b6a7A","correct":32,"choice":32,"rt":749.3750001303852,"accuracy":1,"outcome":"-1","keys":[2249.945000046864],"total_keys":1,"block":1,"trial":106,"stimulus":10,"robot":3,"valence":"lose","action":"go","sham":0,"trial_type":"pit-trial","trial_index":136,"time_elapsed":679750,"internal_node_id":"0.0-111.0","task_version":"battery-v0.2-trt","session":2},{"rune":"R","rune_set":"bacs1","hex":"#3366ff99","correct":32,"choice":32,"rt":534.914999967441,"accuracy":1,"outcome":"+1","keys":[2036.4599998574704],"total_keys":1,"block":1,"trial":107,"stimulus":8,"robot":1,"valence":"win","action":"go","sham":1,"trial_type":"pit-trial","trial_index":137,"time_elapsed":682991,"internal_node_id":"0.0-112.0","task_version":"battery-v0.2-trt","session":2},{"rune":"J","rune_set":"bacs1","hex":"#f73b6a7A","correct":-1,"choice":-1,"rt":-1,"accuracy":1,"outcome":"-1","keys":[],"total_keys":0,"block":1,"trial":108,"stimulus":9,"robot":4,"valence":"lose","action":"no-go","sham":0,"trial_type":"pit-trial","trial_index":138,"time_elapsed":686997,"internal_node_id":"0.0-113.0","task_version":"battery-v0.2-trt","session":2},{"rune":"J","rune_set":"bacs1","hex":"#f73b6a7A","correct":-1,"choice":-1,"rt":-1,"accuracy":1,"outcome":"-1","keys":[],"total_keys":0,"block":1,"trial":109,"stimulus":9,"robot":4,"valence":"lose","action":"no-go","sham":0,"trial_type":"pit-trial","trial_index":139,"time_elapsed":691003,"internal_node_id":"0.0-114.0","task_version":"battery-v0.2-trt","session":2},{"rune":"Z","rune_set":"bacs1","hex":"#f73b6a7A","correct":32,"choice":32,"rt":643.8599999528378,"accuracy":1,"outcome":"-1","keys":[2144.3899997975677],"total_keys":1,"block":1,"trial":110,"stimulus":10,"robot":3,"valence":"lose","action":"go","sham":0,"trial_type":"pit-trial","trial_index":140,"time_elapsed":694353,"internal_node_id":"0.0-115.0","task_version":"battery-v0.2-trt","session":2},{"rune":"R","rune_set":"bacs1","hex":"#3366ff99","correct":32,"choice":32,"rt":513.7750001158565,"accuracy":1,"outcome":"+10","keys":[2016.0549997817725],"total_keys":1,"block":1,"trial":111,"stimulus":8,"robot":1,"valence":"win","action":"go","sham":0,"trial_type":"pit-trial","trial_index":141,"time_elapsed":697573,"internal_node_id":"0.0-116.0","task_version":"battery-v0.2-trt","session":2},{"rune":"B","rune_set":"bacs1","hex":"#3366ff99","correct":32,"choice":32,"rt":582.4150000698864,"accuracy":1,"outcome":"+10","keys":[2083.0800000112504],"total_keys":1,"block":1,"trial":112,"stimulus":11,"robot":1,"valence":"win","action":"go","sham":0,"trial_type":"pit-trial","trial_index":142,"time_elapsed":700861,"internal_node_id":"0.0-117.0","task_version":"battery-v0.2-trt","session":2},{"rune":"J","rune_set":"bacs1","hex":"#f73b6a7A","correct":-1,"choice":-1,"rt":-1,"accuracy":1,"outcome":"-1","keys":[],"total_keys":0,"block":1,"trial":113,"stimulus":9,"robot":4,"valence":"lose","action":"no-go","sham":0,"trial_type":"pit-trial","trial_index":143,"time_elapsed":704872,"internal_node_id":"0.0-118.0","task_version":"battery-v0.2-trt","session":2},{"rune":"R","rune_set":"bacs1","hex":"#3366ff99","correct":32,"choice":32,"rt":523.4449999406934,"accuracy":1,"outcome":"+10","keys":[2024.8650000430644],"total_keys":1,"block":1,"trial":114,"stimulus":8,"robot":1,"valence":"win","action":"go","sham":0,"trial_type":"pit-trial","trial_index":144,"time_elapsed":708100,"internal_node_id":"0.0-119.0","task_version":"battery-v0.2-trt","session":2},{"rune":"B","rune_set":"bacs1","hex":"#3366ff99","correct":32,"choice":32,"rt":535.6499999761581,"accuracy":1,"outcome":"+1","keys":[2036.934999981895],"total_keys":1,"block":1,"trial":115,"stimulus":11,"robot":1,"valence":"win","action":"go","sham":1,"trial_type":"pit-trial","trial_index":145,"time_elapsed":711340,"internal_node_id":"0.0-120.0","task_version":"battery-v0.2-trt","session":2},{"rune":"Z","rune_set":"bacs1","hex":"#f73b6a7A","correct":32,"choice":32,"rt":607.1549998596311,"accuracy":1,"outcome":"-1","keys":[2108.259999891743],"total_keys":1,"block":1,"trial":116,"stimulus":10,"robot":3,"valence":"lose","action":"go","sham":0,"trial_type":"pit-trial","trial_index":146,"time_elapsed":714655,"internal_node_id":"0.0-121.0","task_version":"battery-v0.2-trt","session":2},{"rune":"Z","rune_set":"bacs1","hex":"#f73b6a7A","correct":32,"choice":32,"rt":1054.2999999597669,"accuracy":1,"outcome":"-1","keys":[2554.4949998147786],"total_keys":1,"block":1,"trial":117,"stimulus":10,"robot":3,"valence":"lose","action":"go","sham":0,"trial_type":"pit-trial","trial_index":147,"time_elapsed":718415,"internal_node_id":"0.0-122.0","task_version":"battery-v0.2-trt","session":2},{"rune":"J","rune_set":"bacs1","hex":"#f73b6a7A","correct":-1,"choice":-1,"rt":-1,"accuracy":1,"outcome":"-1","keys":[],"total_keys":0,"block":1,"trial":118,"stimulus":9,"robot":4,"valence":"lose","action":"no-go","sham":0,"trial_type":"pit-trial","trial_index":148,"time_elapsed":722422,"internal_node_id":"0.0-123.0","task_version":"battery-v0.2-trt","session":2},{"rune":"B","rune_set":"bacs1","hex":"#3366ff99","correct":32,"choice":32,"rt":573.7900000531226,"accuracy":1,"outcome":"+1","keys":[2074.69499995932],"total_keys":1,"block":1,"trial":119,"stimulus":11,"robot":1,"valence":"win","action":"go","sham":1,"trial_type":"pit-trial","trial_index":149,"time_elapsed":725700,"internal_node_id":"0.0-124.0","task_version":"battery-v0.2-trt","session":2},{"rune":"R","rune_set":"bacs1","hex":"#3366ff99","correct":32,"choice":32,"rt":520.0200001709163,"accuracy":1,"outcome":"+10","keys":[2021.2000000756234],"total_keys":1,"block":1,"trial":120,"stimulus":8,"robot":1,"valence":"win","action":"go","sham":0,"trial_type":"pit-trial","trial_index":150,"time_elapsed":728925,"internal_node_id":"0.0-125.0","task_version":"battery-v0.2-trt","session":2},{"view_history":"[{\"page_index\":0,\"viewing_time\":24522.16499997303},{\"page_index\":1,\"viewing_time\":1726.655000122264}]","rt":26249.62000013329,"trial_type":"pit-instructions","trial_index":151,"time_elapsed":755178,"internal_node_id":"0.0-126.0","task_version":"battery-v0.2-trt","session":2},{"rune":"G","rune_set":"bacs1","hex":"#f73b6a7A","correct":32,"choice":-1,"rt":-1,"accuracy":0,"outcome":"-10","keys":[],"total_keys":0,"block":2,"trial":121,"stimulus":1,"robot":3,"valence":"lose","action":"go","sham":0,"trial_type":"pit-trial","trial_index":152,"time_elapsed":759187,"internal_node_id":"0.0-127.0","task_version":"battery-v0.2-trt","session":2},{"rune":"N","rune_set":"bacs1","hex":"#f73b6a7A","correct":-1,"choice":32,"rt":680.7699999772012,"accuracy":0,"outcome":"-10","keys":[2181.289999978617],"total_keys":1,"block":2,"trial":122,"stimulus":0,"robot":4,"valence":"lose","action":"no-go","sham":0,"trial_type":"pit-trial","trial_index":153,"time_elapsed":762573,"internal_node_id":"0.0-128.0","task_version":"battery-v0.2-trt","session":2},{"rune":"O","rune_set":"bacs1","hex":"#3366ff99","correct":32,"choice":32,"rt":886.3850000780076,"accuracy":1,"outcome":"+1","keys":[2387.699999846518],"total_keys":1,"block":2,"trial":123,"stimulus":3,"robot":1,"valence":"win","action":"go","sham":1,"trial_type":"pit-trial","trial_index":154,"time_elapsed":766165,"internal_node_id":"0.0-129.0","task_version":"battery-v0.2-trt","session":2},{"rune":"I","rune_set":"bacs1","hex":"#f73b6a7A","correct":32,"choice":32,"rt":973.2150000054389,"accuracy":1,"outcome":"-1","keys":[2474.900000030175],"total_keys":1,"block":2,"trial":124,"stimulus":2,"robot":3,"valence":"lose","action":"go","sham":0,"trial_type":"pit-trial","trial_index":155,"time_elapsed":769844,"internal_node_id":"0.0-130.0","task_version":"battery-v0.2-trt","session":2},{"rune":"I","rune_set":"bacs1","hex":"#f73b6a7A","correct":32,"choice":32,"rt":598.7150000873953,"accuracy":1,"outcome":"-1","keys":[2099.7249998617917],"total_keys":1,"block":2,"trial":125,"stimulus":2,"robot":3,"valence":"lose","action":"go","sham":0,"trial_type":"pit-trial","trial_index":156,"time_elapsed":773150,"internal_node_id":"0.0-131.0","task_version":"battery-v0.2-trt","session":2},{"rune":"N","rune_set":"bacs1","hex":"#f73b6a7A","correct":-1,"choice":-1,"rt":-1,"accuracy":1,"outcome":"-10","keys":[],"total_keys":0,"block":2,"trial":126,"stimulus":0,"robot":4,"valence":"lose","action":"no-go","sham":1,"trial_type":"pit-trial","trial_index":157,"time_elapsed":777156,"internal_node_id":"0.0-132.0","task_version":"battery-v0.2-trt","session":2},{"rune":"G","rune_set":"bacs1","hex":"#f73b6a7A","correct":32,"choice":-1,"rt":-1,"accuracy":0,"outcome":"-10","keys":[],"total_keys":0,"block":2,"trial":127,"stimulus":1,"robot":3,"valence":"lose","action":"go","sham":0,"trial_type":"pit-trial","trial_index":158,"time_elapsed":781161,"internal_node_id":"0.0-133.0","task_version":"battery-v0.2-trt","session":2},{"rune":"O","rune_set":"bacs1","hex":"#3366ff99","correct":32,"choice":32,"rt":690.3999999631196,"accuracy":1,"outcome":"+10","keys":[2190.9099998883903],"total_keys":1,"block":2,"trial":128,"stimulus":3,"robot":1,"valence":"win","action":"go","sham":0,"trial_type":"pit-trial","trial_index":159,"time_elapsed":784556,"internal_node_id":"0.0-134.0","task_version":"battery-v0.2-trt","session":2},{"rune":"N","rune_set":"bacs1","hex":"#f73b6a7A","correct":-1,"choice":32,"rt":776.2450000736862,"accuracy":0,"outcome":"-10","keys":[2276.9500000867993],"total_keys":1,"block":2,"trial":129,"stimulus":0,"robot":4,"valence":"lose","action":"no-go","sham":0,"trial_type":"pit-trial","trial_index":160,"time_elapsed":788038,"internal_node_id":"0.0-135.0","task_version":"battery-v0.2-trt","session":2},{"rune":"I","rune_set":"bacs1","hex":"#f73b6a7A","correct":32,"choice":-1,"rt":-1,"accuracy":0,"outcome":"-10","keys":[],"total_keys":0,"block":2,"trial":130,"stimulus":2,"robot":3,"valence":"lose","action":"go","sham":0,"trial_type":"pit-trial","trial_index":161,"time_elapsed":792043,"internal_node_id":"0.0-136.0","task_version":"battery-v0.2-trt","session":2},{"rune":"O","rune_set":"bacs1","hex":"#3366ff99","correct":32,"choice":32,"rt":639.919999986887,"accuracy":1,"outcome":"+10","keys":[2141.330000013113],"total_keys":1,"block":2,"trial":131,"stimulus":3,"robot":1,"valence":"win","action":"go","sham":0,"trial_type":"pit-trial","trial_index":162,"time_elapsed":795390,"internal_node_id":"0.0-137.0","task_version":"battery-v0.2-trt","session":2},{"rune":"G","rune_set":"bacs1","hex":"#f73b6a7A","correct":32,"choice":-1,"rt":-1,"accuracy":0,"outcome":"-10","keys":[],"total_keys":0,"block":2,"trial":132,"stimulus":1,"robot":3,"valence":"lose","action":"go","sham":0,"trial_type":"pit-trial","trial_index":163,"time_elapsed":799395,"internal_node_id":"0.0-138.0","task_version":"battery-v0.2-trt","session":2},{"rune":"N","rune_set":"bacs1","hex":"#f73b6a7A","correct":-1,"choice":32,"rt":832.2850000113249,"accuracy":0,"outcome":"-10","keys":[2332.769999979064],"total_keys":1,"block":2,"trial":133,"stimulus":0,"robot":4,"valence":"lose","action":"no-go","sham":0,"trial_type":"pit-trial","trial_index":164,"time_elapsed":802932,"internal_node_id":"0.0-139.0","task_version":"battery-v0.2-trt","session":2},{"rune":"G","rune_set":"bacs1","hex":"#f73b6a7A","correct":32,"choice":-1,"rt":-1,"accuracy":0,"outcome":"-1","keys":[],"total_keys":0,"block":2,"trial":134,"stimulus":1,"robot":3,"valence":"lose","action":"go","sham":1,"trial_type":"pit-trial","trial_index":165,"time_elapsed":806942,"internal_node_id":"0.0-140.0","task_version":"battery-v0.2-trt","session":2},{"rune":"O","rune_set":"bacs1","hex":"#3366ff99","correct":32,"choice":32,"rt":550.2199998591095,"accuracy":1,"outcome":"+10","keys":[2051.179999951273],"total_keys":1,"block":2,"trial":135,"stimulus":3,"robot":1,"valence":"win","action":"go","sham":0,"trial_type":"pit-trial","trial_index":166,"time_elapsed":810202,"internal_node_id":"0.0-141.0","task_version":"battery-v0.2-trt","session":2},{"rune":"I","rune_set":"bacs1","hex":"#f73b6a7A","correct":32,"choice":32,"rt":678.5949999466538,"accuracy":1,"outcome":"-1","keys":[2181.739999912679],"total_keys":1,"block":2,"trial":136,"stimulus":2,"robot":3,"valence":"lose","action":"go","sham":0,"trial_type":"pit-trial","trial_index":167,"time_elapsed":813590,"internal_node_id":"0.0-142.0","task_version":"battery-v0.2-trt","session":2},{"rune":"I","rune_set":"bacs1","hex":"#f73b6a7A","correct":32,"choice":32,"rt":596.845000050962,"accuracy":1,"outcome":"-1","keys":[2097.8749999776483],"total_keys":1,"block":2,"trial":137,"stimulus":2,"robot":3,"valence":"lose","action":"go","sham":0,"trial_type":"pit-trial","trial_index":168,"time_elapsed":816892,"internal_node_id":"0.0-143.0","task_version":"battery-v0.2-trt","session":2},{"rune":"G","rune_set":"bacs1","hex":"#f73b6a7A","correct":32,"choice":-1,"rt":-1,"accuracy":0,"outcome":"-10","keys":[],"total_keys":0,"block":2,"trial":138,"stimulus":1,"robot":3,"valence":"lose","action":"go","sham":0,"trial_type":"pit-trial","trial_index":169,"time_elapsed":820896,"internal_node_id":"0.0-144.0","task_version":"battery-v0.2-trt","session":2},{"rune":"N","rune_set":"bacs1","hex":"#f73b6a7A","correct":-1,"choice":-1,"rt":-1,"accuracy":1,"outcome":"-1","keys":[],"total_keys":0,"block":2,"trial":139,"stimulus":0,"robot":4,"valence":"lose","action":"no-go","sham":0,"trial_type":"pit-trial","trial_index":170,"time_elapsed":824911,"internal_node_id":"0.0-145.0","task_version":"battery-v0.2-trt","session":2},{"rune":"O","rune_set":"bacs1","hex":"#3366ff99","correct":32,"choice":32,"rt":508.51499987766147,"accuracy":1,"outcome":"+10","keys":[2009.7350000869483],"total_keys":1,"block":2,"trial":140,"stimulus":3,"robot":1,"valence":"win","action":"go","sham":0,"trial_type":"pit-trial","trial_index":171,"time_elapsed":828124,"internal_node_id":"0.0-146.0","task_version":"battery-v0.2-trt","session":2},{"rune":"N","rune_set":"bacs1","hex":"#f73b6a7A","correct":-1,"choice":-1,"rt":-1,"accuracy":1,"outcome":"-1","keys":[],"total_keys":0,"block":2,"trial":141,"stimulus":0,"robot":4,"valence":"lose","action":"no-go","sham":0,"trial_type":"pit-trial","trial_index":172,"time_elapsed":832131,"internal_node_id":"0.0-147.0","task_version":"battery-v0.2-trt","session":2},{"rune":"O","rune_set":"bacs1","hex":"#3366ff99","correct":32,"choice":32,"rt":551.0700000450015,"accuracy":1,"outcome":"+10","keys":[2052.9849999584258],"total_keys":1,"block":2,"trial":142,"stimulus":3,"robot":1,"valence":"win","action":"go","sham":0,"trial_type":"pit-trial","trial_index":173,"time_elapsed":835389,"internal_node_id":"0.0-148.0","task_version":"battery-v0.2-trt","session":2},{"rune":"G","rune_set":"bacs1","hex":"#f73b6a7A","correct":32,"choice":-1,"rt":-1,"accuracy":0,"outcome":"-10","keys":[],"total_keys":0,"block":2,"trial":143,"stimulus":1,"robot":3,"valence":"lose","action":"go","sham":0,"trial_type":"pit-trial","trial_index":174,"time_elapsed":839394,"internal_node_id":"0.0-149.0","task_version":"battery-v0.2-trt","session":2},{"rune":"I","rune_set":"bacs1","hex":"#f73b6a7A","correct":32,"choice":32,"rt":521.2149999570101,"accuracy":1,"outcome":"-1","keys":[2021.794999949634],"total_keys":1,"block":2,"trial":144,"stimulus":2,"robot":3,"valence":"lose","action":"go","sham":0,"trial_type":"pit-trial","trial_index":175,"time_elapsed":842620,"internal_node_id":"0.0-150.0","task_version":"battery-v0.2-trt","session":2},{"rune":"I","rune_set":"bacs1","hex":"#f73b6a7A","correct":32,"choice":32,"rt":534.4150001183152,"accuracy":1,"outcome":"-1","keys":[2035.2999998722225],"total_keys":1,"block":2,"trial":145,"stimulus":2,"robot":3,"valence":"lose","action":"go","sham":0,"trial_type":"pit-trial","trial_index":176,"time_elapsed":845860,"internal_node_id":"0.0-151.0","task_version":"battery-v0.2-trt","session":2},{"rune":"N","rune_set":"bacs1","hex":"#f73b6a7A","correct":-1,"choice":-1,"rt":-1,"accuracy":1,"outcome":"-1","keys":[],"total_keys":0,"block":2,"trial":146,"stimulus":0,"robot":4,"valence":"lose","action":"no-go","sham":0,"trial_type":"pit-trial","trial_index":177,"time_elapsed":849865,"internal_node_id":"0.0-152.0","task_version":"battery-v0.2-trt","session":2},{"rune":"O","rune_set":"bacs1","hex":"#3366ff99","correct":32,"choice":32,"rt":490.17000012099743,"accuracy":1,"outcome":"+10","keys":[1991.1950000096112],"total_keys":1,"block":2,"trial":147,"stimulus":3,"robot":1,"valence":"win","action":"go","sham":0,"trial_type":"pit-trial","trial_index":178,"time_elapsed":853064,"internal_node_id":"0.0-153.0","task_version":"battery-v0.2-trt","session":2},{"rune":"G","rune_set":"bacs1","hex":"#f73b6a7A","correct":32,"choice":32,"rt":419.08999998122454,"accuracy":1,"outcome":"-1","keys":[1920.3400001861155],"total_keys":1,"block":2,"trial":148,"stimulus":1,"robot":3,"valence":"lose","action":"go","sham":0,"trial_type":"pit-trial","trial_index":179,"time_elapsed":856189,"internal_node_id":"0.0-154.0","task_version":"battery-v0.2-trt","session":2},{"rune":"N","rune_set":"bacs1","hex":"#f73b6a7A","correct":-1,"choice":-1,"rt":-1,"accuracy":1,"outcome":"-1","keys":[],"total_keys":0,"block":2,"trial":149,"stimulus":0,"robot":4,"valence":"lose","action":"no-go","sham":0,"trial_type":"pit-trial","trial_index":180,"time_elapsed":860195,"internal_node_id":"0.0-155.0","task_version":"battery-v0.2-trt","session":2},{"rune":"G","rune_set":"bacs1","hex":"#f73b6a7A","correct":32,"choice":32,"rt":585.2250000461936,"accuracy":1,"outcome":"-1","keys":[2085.780000081286],"total_keys":1,"block":2,"trial":150,"stimulus":1,"robot":3,"valence":"lose","action":"go","sham":0,"trial_type":"pit-trial","trial_index":181,"time_elapsed":863485,"internal_node_id":"0.0-156.0","task_version":"battery-v0.2-trt","session":2},{"rune":"O","rune_set":"bacs1","hex":"#3366ff99","correct":32,"choice":32,"rt":479.07000011764467,"accuracy":1,"outcome":"+10","keys":[1980.0600002054125],"total_keys":1,"block":2,"trial":151,"stimulus":3,"robot":1,"valence":"win","action":"go","sham":0,"trial_type":"pit-trial","trial_index":182,"time_elapsed":866671,"internal_node_id":"0.0-157.0","task_version":"battery-v0.2-trt","session":2},{"rune":"I","rune_set":"bacs1","hex":"#f73b6a7A","correct":32,"choice":32,"rt":532.8949999529868,"accuracy":1,"outcome":"-1","keys":[2033.8399999309331],"total_keys":1,"block":2,"trial":152,"stimulus":2,"robot":3,"valence":"lose","action":"go","sham":0,"trial_type":"pit-trial","trial_index":183,"time_elapsed":869917,"internal_node_id":"0.0-158.0","task_version":"battery-v0.2-trt","session":2},{"rune":"N","rune_set":"bacs1","hex":"#f73b6a7A","correct":-1,"choice":-1,"rt":-1,"accuracy":1,"outcome":"-1","keys":[],"total_keys":0,"block":2,"trial":153,"stimulus":0,"robot":4,"valence":"lose","action":"no-go","sham":0,"trial_type":"pit-trial","trial_index":184,"time_elapsed":873922,"internal_node_id":"0.0-159.0","task_version":"battery-v0.2-trt","session":2},{"rune":"G","rune_set":"bacs1","hex":"#f73b6a7A","correct":32,"choice":32,"rt":768.4300001710653,"accuracy":1,"outcome":"-1","keys":[2269.3399998825043],"total_keys":1,"block":2,"trial":154,"stimulus":1,"robot":3,"valence":"lose","action":"go","sham":0,"trial_type":"pit-trial","trial_index":185,"time_elapsed":877399,"internal_node_id":"0.0-160.0","task_version":"battery-v0.2-trt","session":2},{"rune":"D","rune_set":"bacs1","hex":"#f73b6a7A","correct":-1,"choice":-1,"rt":-1,"accuracy":1,"outcome":"-1","keys":[],"total_keys":0,"block":2,"trial":155,"stimulus":4,"robot":4,"valence":"lose","action":"no-go","sham":0,"trial_type":"pit-trial","trial_index":186,"time_elapsed":881403,"internal_node_id":"0.0-161.0","task_version":"battery-v0.2-trt","session":2},{"rune":"O","rune_set":"bacs1","hex":"#3366ff99","correct":32,"choice":32,"rt":441.300000064075,"accuracy":1,"outcome":"+1","keys":[1941.6600000113249],"total_keys":1,"block":2,"trial":156,"stimulus":3,"robot":1,"valence":"win","action":"go","sham":1,"trial_type":"pit-trial","trial_index":187,"time_elapsed":884548,"internal_node_id":"0.0-162.0","task_version":"battery-v0.2-trt","session":2},{"rune":"G","rune_set":"bacs1","hex":"#f73b6a7A","correct":32,"choice":32,"rt":535.1199998985976,"accuracy":1,"outcome":"-1","keys":[2036.7900000419468],"total_keys":1,"block":2,"trial":157,"stimulus":1,"robot":3,"valence":"lose","action":"go","sham":0,"trial_type":"pit-trial","trial_index":188,"time_elapsed":887789,"internal_node_id":"0.0-163.0","task_version":"battery-v0.2-trt","session":2},{"rune":"O","rune_set":"bacs1","hex":"#3366ff99","correct":32,"choice":32,"rt":551.5400001313537,"accuracy":1,"outcome":"+10","keys":[2051.649999804795],"total_keys":1,"block":2,"trial":158,"stimulus":3,"robot":1,"valence":"win","action":"go","sham":0,"trial_type":"pit-trial","trial_index":189,"time_elapsed":891045,"internal_node_id":"0.0-164.0","task_version":"battery-v0.2-trt","session":2},{"rune":"N","rune_set":"bacs1","hex":"#f73b6a7A","correct":-1,"choice":-1,"rt":-1,"accuracy":1,"outcome":"-1","keys":[],"total_keys":0,"block":2,"trial":159,"stimulus":0,"robot":4,"valence":"lose","action":"no-go","sham":0,"trial_type":"pit-trial","trial_index":190,"time_elapsed":895053,"internal_node_id":"0.0-165.0","task_version":"battery-v0.2-trt","session":2},{"rune":"D","rune_set":"bacs1","hex":"#f73b6a7A","correct":-1,"choice":-1,"rt":-1,"accuracy":1,"outcome":"-1","keys":[],"total_keys":0,"block":2,"trial":160,"stimulus":4,"robot":4,"valence":"lose","action":"no-go","sham":0,"trial_type":"pit-trial","trial_index":191,"time_elapsed":899060,"internal_node_id":"0.0-166.0","task_version":"battery-v0.2-trt","session":2},{"rune":"K","rune_set":"bacs1","hex":"#3366ff99","correct":-1,"choice":32,"rt":703.7049999926239,"accuracy":0,"outcome":"+10","keys":[2204.5400000642985],"total_keys":1,"block":2,"trial":161,"stimulus":5,"robot":2,"valence":"win","action":"no-go","sham":1,"trial_type":"pit-trial","trial_index":192,"time_elapsed":902468,"internal_node_id":"0.0-167.0","task_version":"battery-v0.2-trt","session":2},{"rune":"G","rune_set":"bacs1","hex":"#f73b6a7A","correct":32,"choice":32,"rt":567.3700000625104,"accuracy":1,"outcome":"-1","keys":[2067.8349998779595],"total_keys":1,"block":2,"trial":162,"stimulus":1,"robot":3,"valence":"lose","action":"go","sham":0,"trial_type":"pit-trial","trial_index":193,"time_elapsed":905740,"internal_node_id":"0.0-168.0","task_version":"battery-v0.2-trt","session":2},{"rune":"D","rune_set":"bacs1","hex":"#f73b6a7A","correct":-1,"choice":-1,"rt":-1,"accuracy":1,"outcome":"-1","keys":[],"total_keys":0,"block":2,"trial":163,"stimulus":4,"robot":4,"valence":"lose","action":"no-go","sham":0,"trial_type":"pit-trial","trial_index":194,"time_elapsed":909744,"internal_node_id":"0.0-169.0","task_version":"battery-v0.2-trt","session":2},{"rune":"N","rune_set":"bacs1","hex":"#f73b6a7A","correct":-1,"choice":-1,"rt":-1,"accuracy":1,"outcome":"-1","keys":[],"total_keys":0,"block":2,"trial":164,"stimulus":0,"robot":4,"valence":"lose","action":"no-go","sham":0,"trial_type":"pit-trial","trial_index":195,"time_elapsed":913766,"internal_node_id":"0.0-170.0","task_version":"battery-v0.2-trt","session":2},{"rune":"D","rune_set":"bacs1","hex":"#f73b6a7A","correct":-1,"choice":-1,"rt":-1,"accuracy":1,"outcome":"-1","keys":[],"total_keys":0,"block":2,"trial":165,"stimulus":4,"robot":4,"valence":"lose","action":"no-go","sham":0,"trial_type":"pit-trial","trial_index":196,"time_elapsed":917773,"internal_node_id":"0.0-171.0","task_version":"battery-v0.2-trt","session":2},{"rune":"N","rune_set":"bacs1","hex":"#f73b6a7A","correct":-1,"choice":-1,"rt":-1,"accuracy":1,"outcome":"-10","keys":[],"total_keys":0,"block":2,"trial":166,"stimulus":0,"robot":4,"valence":"lose","action":"no-go","sham":1,"trial_type":"pit-trial","trial_index":197,"time_elapsed":921777,"internal_node_id":"0.0-172.0","task_version":"battery-v0.2-trt","session":2},{"rune":"G","rune_set":"bacs1","hex":"#f73b6a7A","correct":32,"choice":32,"rt":482.60500002652407,"accuracy":1,"outcome":"-1","keys":[1983.5700001567602],"total_keys":1,"block":2,"trial":167,"stimulus":1,"robot":3,"valence":"lose","action":"go","sham":0,"trial_type":"pit-trial","trial_index":198,"time_elapsed":924965,"internal_node_id":"0.0-173.0","task_version":"battery-v0.2-trt","session":2},{"rune":"K","rune_set":"bacs1","hex":"#3366ff99","correct":-1,"choice":32,"rt":724.8600001912564,"accuracy":0,"outcome":"+10","keys":[2225.930000189692],"total_keys":1,"block":2,"trial":168,"stimulus":5,"robot":2,"valence":"win","action":"no-go","sham":1,"trial_type":"pit-trial","trial_index":199,"time_elapsed":928396,"internal_node_id":"0.0-174.0","task_version":"battery-v0.2-trt","session":2},{"rune":"S","rune_set":"bacs1","hex":"#f73b6a7A","correct":-1,"choice":-1,"rt":-1,"accuracy":1,"outcome":"-1","keys":[],"total_keys":0,"block":2,"trial":169,"stimulus":6,"robot":4,"valence":"lose","action":"no-go","sham":0,"trial_type":"pit-trial","trial_index":200,"time_elapsed":932405,"internal_node_id":"0.0-175.0","task_version":"battery-v0.2-trt","session":2},{"rune":"U","rune_set":"bacs1","hex":"#3366ff99","correct":32,"choice":32,"rt":733.4599997848272,"accuracy":1,"outcome":"+10","keys":[2234.8750000819564],"total_keys":1,"block":2,"trial":170,"stimulus":7,"robot":1,"valence":"win","action":"go","sham":0,"trial_type":"pit-trial","trial_index":201,"time_elapsed":935844,"internal_node_id":"0.0-176.0","task_version":"battery-v0.2-trt","session":2},{"rune":"D","rune_set":"bacs1","hex":"#f73b6a7A","correct":-1,"choice":-1,"rt":-1,"accuracy":1,"outcome":"-1","keys":[],"total_keys":0,"block":2,"trial":171,"stimulus":4,"robot":4,"valence":"lose","action":"no-go","sham":0,"trial_type":"pit-trial","trial_index":202,"time_elapsed":939849,"internal_node_id":"0.0-177.0","task_version":"battery-v0.2-trt","session":2},{"rune":"K","rune_set":"bacs1","hex":"#3366ff99","correct":-1,"choice":32,"rt":529.6849999576807,"accuracy":0,"outcome":"+10","keys":[2031.1950000468642],"total_keys":1,"block":2,"trial":172,"stimulus":5,"robot":2,"valence":"win","action":"no-go","sham":1,"trial_type":"pit-trial","trial_index":203,"time_elapsed":943098,"internal_node_id":"0.0-178.0","task_version":"battery-v0.2-trt","session":2},{"rune":"U","rune_set":"bacs1","hex":"#3366ff99","correct":32,"choice":32,"rt":784.1849999967963,"accuracy":1,"outcome":"+10","keys":[2285.745000001043],"total_keys":1,"block":2,"trial":173,"stimulus":7,"robot":1,"valence":"win","action":"go","sham":0,"trial_type":"pit-trial","trial_index":204,"time_elapsed":946592,"internal_node_id":"0.0-179.0","task_version":"battery-v0.2-trt","session":2},{"rune":"S","rune_set":"bacs1","hex":"#f73b6a7A","correct":-1,"choice":-1,"rt":-1,"accuracy":1,"outcome":"-1","keys":[],"total_keys":0,"block":2,"trial":174,"stimulus":6,"robot":4,"valence":"lose","action":"no-go","sham":0,"trial_type":"pit-trial","trial_index":205,"time_elapsed":950601,"internal_node_id":"0.0-180.0","task_version":"battery-v0.2-trt","session":2},{"rune":"K","rune_set":"bacs1","hex":"#3366ff99","correct":-1,"choice":32,"rt":545.7049999386072,"accuracy":0,"outcome":"+10","keys":[2046.1349999532104],"total_keys":1,"block":2,"trial":175,"stimulus":5,"robot":2,"valence":"win","action":"no-go","sham":1,"trial_type":"pit-trial","trial_index":206,"time_elapsed":953852,"internal_node_id":"0.0-181.0","task_version":"battery-v0.2-trt","session":2},{"rune":"D","rune_set":"bacs1","hex":"#f73b6a7A","correct":-1,"choice":-1,"rt":-1,"accuracy":1,"outcome":"-1","keys":[],"total_keys":0,"block":2,"trial":176,"stimulus":4,"robot":4,"valence":"lose","action":"no-go","sham":0,"trial_type":"pit-trial","trial_index":207,"time_elapsed":957858,"internal_node_id":"0.0-182.0","task_version":"battery-v0.2-trt","session":2},{"rune":"D","rune_set":"bacs1","hex":"#f73b6a7A","correct":-1,"choice":-1,"rt":-1,"accuracy":1,"outcome":"-1","keys":[],"total_keys":0,"block":2,"trial":177,"stimulus":4,"robot":4,"valence":"lose","action":"no-go","sham":0,"trial_type":"pit-trial","trial_index":208,"time_elapsed":961863,"internal_node_id":"0.0-183.0","task_version":"battery-v0.2-trt","session":2},{"rune":"K","rune_set":"bacs1","hex":"#3366ff99","correct":-1,"choice":32,"rt":562.5099998433143,"accuracy":0,"outcome":"+1","keys":[2064.039999851957],"total_keys":1,"block":2,"trial":178,"stimulus":5,"robot":2,"valence":"win","action":"no-go","sham":0,"trial_type":"pit-trial","trial_index":209,"time_elapsed":965136,"internal_node_id":"0.0-184.0","task_version":"battery-v0.2-trt","session":2},{"rune":"U","rune_set":"bacs1","hex":"#3366ff99","correct":32,"choice":32,"rt":409.8000000230968,"accuracy":1,"outcome":"+1","keys":[1911.199999973178],"total_keys":1,"block":2,"trial":179,"stimulus":7,"robot":1,"valence":"win","action":"go","sham":1,"trial_type":"pit-trial","trial_index":210,"time_elapsed":968251,"internal_node_id":"0.0-185.0","task_version":"battery-v0.2-trt","session":2},{"rune":"S","rune_set":"bacs1","hex":"#f73b6a7A","correct":-1,"choice":-1,"rt":-1,"accuracy":1,"outcome":"-1","keys":[],"total_keys":0,"block":2,"trial":180,"stimulus":6,"robot":4,"valence":"lose","action":"no-go","sham":0,"trial_type":"pit-trial","trial_index":211,"time_elapsed":972256,"internal_node_id":"0.0-186.0","task_version":"battery-v0.2-trt","session":2},{"rune":"S","rune_set":"bacs1","hex":"#f73b6a7A","correct":-1,"choice":-1,"rt":-1,"accuracy":1,"outcome":"-1","keys":[],"total_keys":0,"block":2,"trial":181,"stimulus":6,"robot":4,"valence":"lose","action":"no-go","sham":0,"trial_type":"pit-trial","trial_index":212,"time_elapsed":976261,"internal_node_id":"0.0-187.0","task_version":"battery-v0.2-trt","session":2},{"rune":"D","rune_set":"bacs1","hex":"#f73b6a7A","correct":-1,"choice":-1,"rt":-1,"accuracy":1,"outcome":"-1","keys":[],"total_keys":0,"block":2,"trial":182,"stimulus":4,"robot":4,"valence":"lose","action":"no-go","sham":0,"trial_type":"pit-trial","trial_index":213,"time_elapsed":980268,"internal_node_id":"0.0-188.0","task_version":"battery-v0.2-trt","session":2},{"rune":"U","rune_set":"bacs1","hex":"#3366ff99","correct":32,"choice":32,"rt":391.3299997802824,"accuracy":1,"outcome":"+10","keys":[1892.0400000642985],"total_keys":1,"block":2,"trial":183,"stimulus":7,"robot":1,"valence":"win","action":"go","sham":0,"trial_type":"pit-trial","trial_index":214,"time_elapsed":983365,"internal_node_id":"0.0-189.0","task_version":"battery-v0.2-trt","session":2},{"rune":"K","rune_set":"bacs1","hex":"#3366ff99","correct":-1,"choice":32,"rt":493.53999993763864,"accuracy":0,"outcome":"+10","keys":[1994.569999864325],"total_keys":1,"block":2,"trial":184,"stimulus":5,"robot":2,"valence":"win","action":"no-go","sham":1,"trial_type":"pit-trial","trial_index":215,"time_elapsed":986564,"internal_node_id":"0.0-190.0","task_version":"battery-v0.2-trt","session":2},{"rune":"D","rune_set":"bacs1","hex":"#f73b6a7A","correct":-1,"choice":-1,"rt":-1,"accuracy":1,"outcome":"-1","keys":[],"total_keys":0,"block":2,"trial":185,"stimulus":4,"robot":4,"valence":"lose","action":"no-go","sham":0,"trial_type":"pit-trial","trial_index":216,"time_elapsed":990572,"internal_node_id":"0.0-191.0","task_version":"battery-v0.2-trt","session":2},{"rune":"S","rune_set":"bacs1","hex":"#f73b6a7A","correct":-1,"choice":-1,"rt":-1,"accuracy":1,"outcome":"-1","keys":[],"total_keys":0,"block":2,"trial":186,"stimulus":6,"robot":4,"valence":"lose","action":"no-go","sham":0,"trial_type":"pit-trial","trial_index":217,"time_elapsed":994579,"internal_node_id":"0.0-192.0","task_version":"battery-v0.2-trt","session":2},{"rune":"K","rune_set":"bacs1","hex":"#3366ff99","correct":-1,"choice":32,"rt":463.53999990969896,"accuracy":0,"outcome":"+1","keys":[1963.579999981448],"total_keys":1,"block":2,"trial":187,"stimulus":5,"robot":2,"valence":"win","action":"no-go","sham":0,"trial_type":"pit-trial","trial_index":218,"time_elapsed":997748,"internal_node_id":"0.0-193.0","task_version":"battery-v0.2-trt","session":2},{"rune":"U","rune_set":"bacs1","hex":"#3366ff99","correct":32,"choice":32,"rt":365.3450000565499,"accuracy":1,"outcome":"+10","keys":[1866.4249998982996],"total_keys":1,"block":2,"trial":188,"stimulus":7,"robot":1,"valence":"win","action":"go","sham":0,"trial_type":"pit-trial","trial_index":219,"time_elapsed":1000818,"internal_node_id":"0.0-194.0","task_version":"battery-v0.2-trt","session":2},{"rune":"K","rune_set":"bacs1","hex":"#3366ff99","correct":-1,"choice":32,"rt":399.02500016614795,"accuracy":0,"outcome":"+1","keys":[1899.6049999259412],"total_keys":1,"block":2,"trial":189,"stimulus":5,"robot":2,"valence":"win","action":"no-go","sham":0,"trial_type":"pit-trial","trial_index":220,"time_elapsed":1003922,"internal_node_id":"0.0-195.0","task_version":"battery-v0.2-trt","session":2},{"rune":"S","rune_set":"bacs1","hex":"#f73b6a7A","correct":-1,"choice":-1,"rt":-1,"accuracy":1,"outcome":"-1","keys":[],"total_keys":0,"block":2,"trial":190,"stimulus":6,"robot":4,"valence":"lose","action":"no-go","sham":0,"trial_type":"pit-trial","trial_index":221,"time_elapsed":1007928,"internal_node_id":"0.0-196.0","task_version":"battery-v0.2-trt","session":2},{"rune":"U","rune_set":"bacs1","hex":"#3366ff99","correct":32,"choice":32,"rt":378.14499996602535,"accuracy":1,"outcome":"+1","keys":[1879.7899999190122],"total_keys":1,"block":2,"trial":191,"stimulus":7,"robot":1,"valence":"win","action":"go","sham":1,"trial_type":"pit-trial","trial_index":222,"time_elapsed":1011011,"internal_node_id":"0.0-197.0","task_version":"battery-v0.2-trt","session":2},{"rune":"D","rune_set":"bacs1","hex":"#f73b6a7A","correct":-1,"choice":-1,"rt":-1,"accuracy":1,"outcome":"-1","keys":[],"total_keys":0,"block":2,"trial":192,"stimulus":4,"robot":4,"valence":"lose","action":"no-go","sham":0,"trial_type":"pit-trial","trial_index":223,"time_elapsed":1015016,"internal_node_id":"0.0-198.0","task_version":"battery-v0.2-trt","session":2},{"rune":"M","rune_set":"bacs1","hex":"#3366ff99","correct":32,"choice":32,"rt":640.8500000834465,"accuracy":1,"outcome":"+10","keys":[2142.1149999368936,2318.269999930635],"total_keys":2,"block":2,"trial":193,"stimulus":8,"robot":1,"valence":"win","action":"go","sham":0,"trial_type":"pit-trial","trial_index":224,"time_elapsed":1018362,"internal_node_id":"0.0-199.0","task_version":"battery-v0.2-trt","session":2},{"rune":"U","rune_set":"bacs1","hex":"#3366ff99","correct":32,"choice":32,"rt":457.08499988541007,"accuracy":1,"outcome":"+10","keys":[1957.7750000171363],"total_keys":1,"block":2,"trial":194,"stimulus":7,"robot":1,"valence":"win","action":"go","sham":0,"trial_type":"pit-trial","trial_index":225,"time_elapsed":1021524,"internal_node_id":"0.0-200.0","task_version":"battery-v0.2-trt","session":2},{"rune":"K","rune_set":"bacs1","hex":"#3366ff99","correct":-1,"choice":32,"rt":662.4350000638515,"accuracy":0,"outcome":"+1","keys":[2163.504999829456],"total_keys":1,"block":2,"trial":195,"stimulus":5,"robot":2,"valence":"win","action":"no-go","sham":0,"trial_type":"pit-trial","trial_index":226,"time_elapsed":1024892,"internal_node_id":"0.0-201.0","task_version":"battery-v0.2-trt","session":2},{"rune":"S","rune_set":"bacs1","hex":"#f73b6a7A","correct":-1,"choice":-1,"rt":-1,"accuracy":1,"outcome":"-1","keys":[],"total_keys":0,"block":2,"trial":196,"stimulus":6,"robot":4,"valence":"lose","action":"no-go","sham":0,"trial_type":"pit-trial","trial_index":227,"time_elapsed":1028899,"internal_node_id":"0.0-202.0","task_version":"battery-v0.2-trt","session":2},{"rune":"K","rune_set":"bacs1","hex":"#3366ff99","correct":-1,"choice":-1,"rt":-1,"accuracy":1,"outcome":"+10","keys":[],"total_keys":0,"block":2,"trial":197,"stimulus":5,"robot":2,"valence":"win","action":"no-go","sham":0,"trial_type":"pit-trial","trial_index":228,"time_elapsed":1032904,"internal_node_id":"0.0-203.0","task_version":"battery-v0.2-trt","session":2},{"rune":"U","rune_set":"bacs1","hex":"#3366ff99","correct":32,"choice":32,"rt":634.7799999639392,"accuracy":1,"outcome":"+10","keys":[2135.0600000005215],"total_keys":1,"block":2,"trial":198,"stimulus":7,"robot":1,"valence":"win","action":"go","sham":0,"trial_type":"pit-trial","trial_index":229,"time_elapsed":1036243,"internal_node_id":"0.0-204.0","task_version":"battery-v0.2-trt","session":2},{"rune":"M","rune_set":"bacs1","hex":"#3366ff99","correct":32,"choice":32,"rt":853.730000089854,"accuracy":1,"outcome":"+10","keys":[2356.015000026673,2579.9000000115484],"total_keys":2,"block":2,"trial":199,"stimulus":8,"robot":1,"valence":"win","action":"go","sham":0,"trial_type":"pit-trial","trial_index":230,"time_elapsed":1039802,"internal_node_id":"0.0-205.0","task_version":"battery-v0.2-trt","session":2},{"rune":"S","rune_set":"bacs1","hex":"#f73b6a7A","correct":-1,"choice":-1,"rt":-1,"accuracy":1,"outcome":"-1","keys":[],"total_keys":0,"block":2,"trial":200,"stimulus":6,"robot":4,"valence":"lose","action":"no-go","sham":0,"trial_type":"pit-trial","trial_index":231,"time_elapsed":1043807,"internal_node_id":"0.0-206.0","task_version":"battery-v0.2-trt","session":2},{"rune":"P","rune_set":"bacs1","hex":"#3366ff99","correct":-1,"choice":32,"rt":786.1399999819696,"accuracy":0,"outcome":"+1","keys":[2287.4900000169873],"total_keys":1,"block":2,"trial":201,"stimulus":9,"robot":2,"valence":"win","action":"no-go","sham":0,"trial_type":"pit-trial","trial_index":232,"time_elapsed":1047298,"internal_node_id":"0.0-207.0","task_version":"battery-v0.2-trt","session":2},{"rune":"K","rune_set":"bacs1","hex":"#3366ff99","correct":-1,"choice":-1,"rt":-1,"accuracy":1,"outcome":"+10","keys":[],"total_keys":0,"block":2,"trial":202,"stimulus":5,"robot":2,"valence":"win","action":"no-go","sham":0,"trial_type":"pit-trial","trial_index":233,"time_elapsed":1051302,"internal_node_id":"0.0-208.0","task_version":"battery-v0.2-trt","session":2},{"rune":"H","rune_set":"bacs1","hex":"#f73b6a7A","correct":32,"choice":-1,"rt":-1,"accuracy":0,"outcome":"-1","keys":[],"total_keys":0,"block":2,"trial":203,"stimulus":10,"robot":3,"valence":"lose","action":"go","sham":1,"trial_type":"pit-trial","trial_index":234,"time_elapsed":1055307,"internal_node_id":"0.0-209.0","task_version":"battery-v0.2-trt","session":2},{"rune":"M","rune_set":"bacs1","hex":"#3366ff99","correct":32,"choice":32,"rt":647.594999987632,"accuracy":1,"outcome":"+10","keys":[2148.3249999582767],"total_keys":1,"block":2,"trial":204,"stimulus":8,"robot":1,"valence":"win","action":"go","sham":0,"trial_type":"pit-trial","trial_index":235,"time_elapsed":1058659,"internal_node_id":"0.0-210.0","task_version":"battery-v0.2-trt","session":2},{"rune":"K","rune_set":"bacs1","hex":"#3366ff99","correct":-1,"choice":-1,"rt":-1,"accuracy":1,"outcome":"+1","keys":[],"total_keys":0,"block":2,"trial":205,"stimulus":5,"robot":2,"valence":"win","action":"no-go","sham":1,"trial_type":"pit-trial","trial_index":236,"time_elapsed":1062664,"internal_node_id":"0.0-211.0","task_version":"battery-v0.2-trt","session":2},{"rune":"M","rune_set":"bacs1","hex":"#3366ff99","correct":32,"choice":32,"rt":482.2899999562651,"accuracy":1,"outcome":"+10","keys":[1982.3700000997633],"total_keys":1,"block":2,"trial":206,"stimulus":8,"robot":1,"valence":"win","action":"go","sham":0,"trial_type":"pit-trial","trial_index":237,"time_elapsed":1065851,"internal_node_id":"0.0-212.0","task_version":"battery-v0.2-trt","session":2},{"rune":"H","rune_set":"bacs1","hex":"#f73b6a7A","correct":32,"choice":-1,"rt":-1,"accuracy":0,"outcome":"-10","keys":[],"total_keys":0,"block":2,"trial":207,"stimulus":10,"robot":3,"valence":"lose","action":"go","sham":0,"trial_type":"pit-trial","trial_index":238,"time_elapsed":1069857,"internal_node_id":"0.0-213.0","task_version":"battery-v0.2-trt","session":2},{"rune":"P","rune_set":"bacs1","hex":"#3366ff99","correct":-1,"choice":-1,"rt":-1,"accuracy":1,"outcome":"+10","keys":[],"total_keys":0,"block":2,"trial":208,"stimulus":9,"robot":2,"valence":"win","action":"no-go","sham":0,"trial_type":"pit-trial","trial_index":239,"time_elapsed":1073864,"internal_node_id":"0.0-214.0","task_version":"battery-v0.2-trt","session":2},{"rune":"M","rune_set":"bacs1","hex":"#3366ff99","correct":32,"choice":32,"rt":506.04999996721745,"accuracy":1,"outcome":"+10","keys":[2006.3950000330806],"total_keys":1,"block":2,"trial":209,"stimulus":8,"robot":1,"valence":"win","action":"go","sham":0,"trial_type":"pit-trial","trial_index":240,"time_elapsed":1077075,"internal_node_id":"0.0-215.0","task_version":"battery-v0.2-trt","session":2},{"rune":"H","rune_set":"bacs1","hex":"#f73b6a7A","correct":32,"choice":32,"rt":687.0899999048561,"accuracy":1,"outcome":"-1","keys":[2187.1499998960644],"total_keys":1,"block":2,"trial":210,"stimulus":10,"robot":3,"valence":"lose","action":"go","sham":0,"trial_type":"pit-trial","trial_index":241,"time_elapsed":1080467,"internal_node_id":"0.0-216.0","task_version":"battery-v0.2-trt","session":2},{"rune":"P","rune_set":"bacs1","hex":"#3366ff99","correct":-1,"choice":-1,"rt":-1,"accuracy":1,"outcome":"+10","keys":[],"total_keys":0,"block":2,"trial":211,"stimulus":9,"robot":2,"valence":"win","action":"no-go","sham":0,"trial_type":"pit-trial","trial_index":242,"time_elapsed":1084473,"internal_node_id":"0.0-217.0","task_version":"battery-v0.2-trt","session":2},{"rune":"Y","rune_set":"bacs1","hex":"#3366ff99","correct":-1,"choice":32,"rt":784.8100000992417,"accuracy":0,"outcome":"+1","keys":[2285.819999873638],"total_keys":1,"block":2,"trial":212,"stimulus":11,"robot":2,"valence":"win","action":"no-go","sham":0,"trial_type":"pit-trial","trial_index":243,"time_elapsed":1087963,"internal_node_id":"0.0-218.0","task_version":"battery-v0.2-trt","session":2},{"rune":"H","rune_set":"bacs1","hex":"#f73b6a7A","correct":32,"choice":32,"rt":789.6650000475347,"accuracy":1,"outcome":"-1","keys":[2290.8149999566376],"total_keys":1,"block":2,"trial":213,"stimulus":10,"robot":3,"valence":"lose","action":"go","sham":0,"trial_type":"pit-trial","trial_index":244,"time_elapsed":1091459,"internal_node_id":"0.0-219.0","task_version":"battery-v0.2-trt","session":2},{"rune":"P","rune_set":"bacs1","hex":"#3366ff99","correct":-1,"choice":-1,"rt":-1,"accuracy":1,"outcome":"+10","keys":[],"total_keys":0,"block":2,"trial":214,"stimulus":9,"robot":2,"valence":"win","action":"no-go","sham":0,"trial_type":"pit-trial","trial_index":245,"time_elapsed":1095465,"internal_node_id":"0.0-220.0","task_version":"battery-v0.2-trt","session":2},{"rune":"M","rune_set":"bacs1","hex":"#3366ff99","correct":32,"choice":32,"rt":488.24500013142824,"accuracy":1,"outcome":"+10","keys":[1988.7200000230223],"total_keys":1,"block":2,"trial":215,"stimulus":8,"robot":1,"valence":"win","action":"go","sham":0,"trial_type":"pit-trial","trial_index":246,"time_elapsed":1098659,"internal_node_id":"0.0-221.0","task_version":"battery-v0.2-trt","session":2},{"rune":"Y","rune_set":"bacs1","hex":"#3366ff99","correct":-1,"choice":32,"rt":614.1099999658763,"accuracy":0,"outcome":"+1","keys":[2115.254999836907],"total_keys":1,"block":2,"trial":216,"stimulus":11,"robot":2,"valence":"win","action":"no-go","sham":0,"trial_type":"pit-trial","trial_index":247,"time_elapsed":1101979,"internal_node_id":"0.0-222.0","task_version":"battery-v0.2-trt","session":2},{"rune":"H","rune_set":"bacs1","hex":"#f73b6a7A","correct":32,"choice":32,"rt":743.7199999112636,"accuracy":1,"outcome":"-1","keys":[2243.955000070855],"total_keys":1,"block":2,"trial":217,"stimulus":10,"robot":3,"valence":"lose","action":"go","sham":0,"trial_type":"pit-trial","trial_index":248,"time_elapsed":1105427,"internal_node_id":"0.0-223.0","task_version":"battery-v0.2-trt","session":2},{"rune":"M","rune_set":"bacs1","hex":"#3366ff99","correct":32,"choice":32,"rt":478.61999995075166,"accuracy":1,"outcome":"+10","keys":[1979.3450001161546],"total_keys":1,"block":2,"trial":218,"stimulus":8,"robot":1,"valence":"win","action":"go","sham":0,"trial_type":"pit-trial","trial_index":249,"time_elapsed":1108609,"internal_node_id":"0.0-224.0","task_version":"battery-v0.2-trt","session":2},{"rune":"Y","rune_set":"bacs1","hex":"#3366ff99","correct":-1,"choice":-1,"rt":-1,"accuracy":1,"outcome":"+10","keys":[],"total_keys":0,"block":2,"trial":219,"stimulus":11,"robot":2,"valence":"win","action":"no-go","sham":0,"trial_type":"pit-trial","trial_index":250,"time_elapsed":1112613,"internal_node_id":"0.0-225.0","task_version":"battery-v0.2-trt","session":2},{"rune":"P","rune_set":"bacs1","hex":"#3366ff99","correct":-1,"choice":-1,"rt":-1,"accuracy":1,"outcome":"+10","keys":[],"total_keys":0,"block":2,"trial":220,"stimulus":9,"robot":2,"valence":"win","action":"no-go","sham":0,"trial_type":"pit-trial","trial_index":251,"time_elapsed":1116618,"internal_node_id":"0.0-226.0","task_version":"battery-v0.2-trt","session":2},{"rune":"M","rune_set":"bacs1","hex":"#3366ff99","correct":32,"choice":32,"rt":512.7650001086295,"accuracy":1,"outcome":"+10","keys":[2013.120000017807],"total_keys":1,"block":2,"trial":221,"stimulus":8,"robot":1,"valence":"win","action":"go","sham":0,"trial_type":"pit-trial","trial_index":252,"time_elapsed":1119834,"internal_node_id":"0.0-227.0","task_version":"battery-v0.2-trt","session":2},{"rune":"H","rune_set":"bacs1","hex":"#f73b6a7A","correct":32,"choice":32,"rt":645.795000018552,"accuracy":1,"outcome":"-1","keys":[2147.9699998162687],"total_keys":1,"block":2,"trial":222,"stimulus":10,"robot":3,"valence":"lose","action":"go","sham":0,"trial_type":"pit-trial","trial_index":253,"time_elapsed":1123187,"internal_node_id":"0.0-228.0","task_version":"battery-v0.2-trt","session":2},{"rune":"Y","rune_set":"bacs1","hex":"#3366ff99","correct":-1,"choice":-1,"rt":-1,"accuracy":1,"outcome":"+10","keys":[],"total_keys":0,"block":2,"trial":223,"stimulus":11,"robot":2,"valence":"win","action":"no-go","sham":0,"trial_type":"pit-trial","trial_index":254,"time_elapsed":1127191,"internal_node_id":"0.0-229.0","task_version":"battery-v0.2-trt","session":2},{"rune":"P","rune_set":"bacs1","hex":"#3366ff99","correct":-1,"choice":-1,"rt":-1,"accuracy":1,"outcome":"+10","keys":[],"total_keys":0,"block":2,"trial":224,"stimulus":9,"robot":2,"valence":"win","action":"no-go","sham":0,"trial_type":"pit-trial","trial_index":255,"time_elapsed":1131198,"internal_node_id":"0.0-230.0","task_version":"battery-v0.2-trt","session":2},{"rune":"Y","rune_set":"bacs1","hex":"#3366ff99","correct":-1,"choice":-1,"rt":-1,"accuracy":1,"outcome":"+10","keys":[],"total_keys":0,"block":2,"trial":225,"stimulus":11,"robot":2,"valence":"win","action":"no-go","sham":0,"trial_type":"pit-trial","trial_index":256,"time_elapsed":1135202,"internal_node_id":"0.0-231.0","task_version":"battery-v0.2-trt","session":2},{"rune":"H","rune_set":"bacs1","hex":"#f73b6a7A","correct":32,"choice":32,"rt":480.6150000076741,"accuracy":1,"outcome":"-1","keys":[1981.5249999519438],"total_keys":1,"block":2,"trial":226,"stimulus":10,"robot":3,"valence":"lose","action":"go","sham":0,"trial_type":"pit-trial","trial_index":257,"time_elapsed":1138389,"internal_node_id":"0.0-232.0","task_version":"battery-v0.2-trt","session":2},{"rune":"P","rune_set":"bacs1","hex":"#3366ff99","correct":-1,"choice":-1,"rt":-1,"accuracy":1,"outcome":"+10","keys":[],"total_keys":0,"block":2,"trial":227,"stimulus":9,"robot":2,"valence":"win","action":"no-go","sham":0,"trial_type":"pit-trial","trial_index":258,"time_elapsed":1142408,"internal_node_id":"0.0-233.0","task_version":"battery-v0.2-trt","session":2},{"rune":"M","rune_set":"bacs1","hex":"#3366ff99","correct":32,"choice":32,"rt":504.939999897033,"accuracy":1,"outcome":"+10","keys":[2005.769999930635],"total_keys":1,"block":2,"trial":228,"stimulus":8,"robot":1,"valence":"win","action":"go","sham":0,"trial_type":"pit-trial","trial_index":259,"time_elapsed":1145618,"internal_node_id":"0.0-234.0","task_version":"battery-v0.2-trt","session":2},{"rune":"Y","rune_set":"bacs1","hex":"#3366ff99","correct":-1,"choice":-1,"rt":-1,"accuracy":1,"outcome":"+10","keys":[],"total_keys":0,"block":2,"trial":229,"stimulus":11,"robot":2,"valence":"win","action":"no-go","sham":0,"trial_type":"pit-trial","trial_index":260,"time_elapsed":1149624,"internal_node_id":"0.0-235.0","task_version":"battery-v0.2-trt","session":2},{"rune":"H","rune_set":"bacs1","hex":"#f73b6a7A","correct":32,"choice":32,"rt":455.40500013157725,"accuracy":1,"outcome":"-10","keys":[1957.1200001519173],"total_keys":1,"block":2,"trial":230,"stimulus":10,"robot":3,"valence":"lose","action":"go","sham":1,"trial_type":"pit-trial","trial_index":261,"time_elapsed":1152786,"internal_node_id":"0.0-236.0","task_version":"battery-v0.2-trt","session":2},{"rune":"M","rune_set":"bacs1","hex":"#3366ff99","correct":32,"choice":32,"rt":496.45500001497567,"accuracy":1,"outcome":"+10","keys":[1996.9349999446422],"total_keys":1,"block":2,"trial":231,"stimulus":8,"robot":1,"valence":"win","action":"go","sham":0,"trial_type":"pit-trial","trial_index":262,"time_elapsed":1155986,"internal_node_id":"0.0-237.0","task_version":"battery-v0.2-trt","session":2},{"rune":"P","rune_set":"bacs1","hex":"#3366ff99","correct":-1,"choice":-1,"rt":-1,"accuracy":1,"outcome":"+10","keys":[],"total_keys":0,"block":2,"trial":232,"stimulus":9,"robot":2,"valence":"win","action":"no-go","sham":0,"trial_type":"pit-trial","trial_index":263,"time_elapsed":1159991,"internal_node_id":"0.0-238.0","task_version":"battery-v0.2-trt","session":2},{"rune":"P","rune_set":"bacs1","hex":"#3366ff99","correct":-1,"choice":-1,"rt":-1,"accuracy":1,"outcome":"+10","keys":[],"total_keys":0,"block":2,"trial":233,"stimulus":9,"robot":2,"valence":"win","action":"no-go","sham":0,"trial_type":"pit-trial","trial_index":264,"time_elapsed":1164008,"internal_node_id":"0.0-239.0","task_version":"battery-v0.2-trt","session":2},{"rune":"M","rune_set":"bacs1","hex":"#3366ff99","correct":32,"choice":32,"rt":513.2699999958277,"accuracy":1,"outcome":"+10","keys":[2013.7150001246482],"total_keys":1,"block