[{"view_history":"[{\"page_index\":0,\"viewing_time\":1380.0250000786036}]","rt":1380.3450000705197,"trial_type":"instructions","trial_index":0,"time_elapsed":1413,"internal_node_id":"0.0-0.0","task_version":"battery-v0.2-trt","session":2},{"slider_type":"valence","raw_loc":534,"loc":0.568,"trial_type":"affective-slider","trial_index":1,"time_elapsed":4340,"internal_node_id":"0.0-1.0","task_version":"battery-v0.2-trt","session":2},{"responses":{"Q03":"0","Q05":"0","Q01":"0","Q08":"3","Q02":"0","Q04":"0","Q07":"0","Q06":"0"},"rt":11636.08500000555,"item_order":[2,4,0,7,1,3,6,5],"radio_events":[3156.7100000102073,4122.524999896996,5618.4249999932945,6994.399999966845,8306.299999938346,9106.449999962933,10314.434999949299,10850.295000011101],"key_events":[],"mouse_events":[3156.7100000102073,4122.524999896996,4906.495000002906,5618.4249999932945,6994.399999966845,8306.299999938346,9106.449999962933,9738.464999943972,10314.434999949299,10850.295000011101,11634.57999995444],"straightlining":0.875,"zigzagging":0.2857142857142857,"survey":"dass_d","trial_type":"survey-template","trial_index":2,"time_elapsed":15983,"internal_node_id":"0.0-2.0","task_version":"battery-v0.2-trt","session":2,"infrequency":0},{"responses":{"Q02":"0","Q01":"0","Q04":"1","Q08":"0","Q07":"0","Q06":"0","Q03":"0","Q05":"1"},"rt":11475.934999994934,"item_order":[1,0,3,7,6,5,2,4],"radio_events":[3018.5200000414625,3906.5300000365824,5083.175000036135,6178.315000026487,7042.634999961592,7890.555000049062,8770.565000013448,10706.699999980628],"key_events":[],"mouse_events":[1730.5649999761954,3018.5200000414625,3906.5300000365824,5083.175000036135,6178.315000026487,7042.634999961592,7890.555000049062,8770.565000013448,9682.574999984354,10706.699999980628,11474.73999997601],"straightlining":0.75,"zigzagging":0.42857142857142855,"survey":"gad7","trial_type":"survey-template","trial_index":3,"time_elapsed":27462,"internal_node_id":"0.0-3.0","task_version":"battery-v0.2-trt","session":2,"infrequency":0},{"view_history":"[{\"page_index\":0,\"viewing_time\":1706.304999999702},{\"page_index\":1,\"viewing_time\":2943.7850000103936},{\"page_index\":2,\"viewing_time\":3480.1399999996647},{\"page_index\":3,\"viewing_time\":3319.9749999912456},{\"page_index\":4,\"viewing_time\":3136.2450000597164},{\"page_index\":5,\"viewing_time\":2160.009999992326},{\"page_index\":6,\"viewing_time\":1439.7299999836832},{\"page_index\":7,\"viewing_time\":1649.1099999984726},{\"page_index\":8,\"viewing_time\":1630.8049999643117},{\"page_index\":9,\"viewing_time\":1679.9650000175461}]","rt":23146.62000001408,"trial_type":"pit-instructions","trial_index":4,"time_elapsed":50613,"internal_node_id":"0.0-4.0-0.0","task_version":"battery-v0.2-trt","session":2},{"rune":"1","rune_set":"elianto","hex":"#3366ff99","correct":32,"choice":32,"rt":773.369999951683,"accuracy":1,"outcome":"+10","keys":[2274.8549999669194],"total_keys":1,"block":0,"practice":1,"trial_type":"pit-trial","trial_index":5,"time_elapsed":54094,"internal_node_id":"0.0-4.0-1.0-0.0","task_version":"battery-v0.2-trt","session":2},{"rune":"1","rune_set":"elianto","hex":"#3366ff99","correct":32,"choice":32,"rt":504.0699999080971,"accuracy":1,"outcome":"+10","keys":[2004.4500000076368],"total_keys":1,"block":0,"practice":1,"trial_type":"pit-trial","trial_index":6,"time_elapsed":57305,"internal_node_id":"0.0-4.0-1.1-0.1","task_version":"battery-v0.2-trt","session":2},{"rune":"1","rune_set":"elianto","hex":"#3366ff99","correct":32,"choice":32,"rt":254.02500003110617,"accuracy":1,"outcome":"+10","keys":[1755.4399999789894],"total_keys":1,"block":0,"practice":1,"trial_type":"pit-trial","trial_index":7,"time_elapsed":60265,"internal_node_id":"0.0-4.0-1.2-0.2","task_version":"battery-v0.2-trt","session":2},{"rune":"1","rune_set":"elianto","hex":"#3366ff99","correct":32,"choice":32,"rt":214.96000001206994,"accuracy":1,"outcome":"+10","keys":[1715.2099999366328],"total_keys":1,"block":0,"practice":1,"trial_type":"pit-trial","trial_index":8,"time_elapsed":63186,"internal_node_id":"0.0-4.0-1.3-0.3","task_version":"battery-v0.2-trt","session":2},{"trial_type":"call-function","trial_index":9,"time_elapsed":63189,"internal_node_id":"0.0-4.0-2.0","task_version":"battery-v0.2-trt","session":2},{"view_history":"[{\"page_index\":0,\"viewing_time\":2846.44999995362},{\"page_index\":1,\"viewing_time\":1936.184999998659}]","rt":4783.004999975674,"trial_type":"pit-instructions","trial_index":10,"time_elapsed":67973,"internal_node_id":"0.0-4.0-3.0","task_version":"battery-v0.2-trt","session":2},{"rune":"2","rune_set":"elianto","hex":"#3366ff99","correct":-1,"choice":-1,"rt":-1,"accuracy":1,"outcome":"+10","keys":[],"total_keys":0,"block":0,"practice":2,"trial_type":"pit-trial","trial_index":11,"time_elapsed":71977,"internal_node_id":"0.0-4.0-4.0-0.0","task_version":"battery-v0.2-trt","session":2},{"rune":"2","rune_set":"elianto","hex":"#3366ff99","correct":-1,"choice":-1,"rt":-1,"accuracy":1,"outcome":"+10","keys":[],"total_keys":0,"block":0,"practice":2,"trial_type":"pit-trial","trial_index":12,"time_elapsed":75983,"internal_node_id":"0.0-4.0-4.1-0.1","task_version":"battery-v0.2-trt","session":2},{"rune":"2","rune_set":"elianto","hex":"#3366ff99","correct":-1,"choice":-1,"rt":-1,"accuracy":1,"outcome":"+10","keys":[],"total_keys":0,"block":0,"practice":2,"trial_type":"pit-trial","trial_index":13,"time_elapsed":79988,"internal_node_id":"0.0-4.0-4.2-0.2","task_version":"battery-v0.2-trt","session":2},{"rune":"2","rune_set":"elianto","hex":"#3366ff99","correct":-1,"choice":-1,"rt":-1,"accuracy":1,"outcome":"+10","keys":[],"total_keys":0,"block":0,"practice":2,"trial_type":"pit-trial","trial_index":14,"time_elapsed":83994,"internal_node_id":"0.0-4.0-4.3-0.3","task_version":"battery-v0.2-trt","session":2},{"trial_type":"call-function","trial_index":15,"time_elapsed":83996,"internal_node_id":"0.0-4.0-5.0","task_version":"battery-v0.2-trt","session":2},{"view_history":"[{\"page_index\":0,\"viewing_time\":10869.975000037812},{\"page_index\":1,\"viewing_time\":2343.8549999846146}]","rt":13214.21000000555,"trial_type":"pit-instructions","trial_index":16,"time_elapsed":97213,"internal_node_id":"0.0-4.0-6.0","task_version":"battery-v0.2-trt","session":2},{"rune":"3","rune_set":"elianto","hex":"#f73b6a7A","correct":-1,"choice":-1,"rt":-1,"accuracy":1,"outcome":"-1","keys":[],"total_keys":0,"block":0,"practice":3,"trial_type":"pit-trial","trial_index":17,"time_elapsed":101217,"internal_node_id":"0.0-4.0-7.0-0.0","task_version":"battery-v0.2-trt","session":2},{"rune":"3","rune_set":"elianto","hex":"#f73b6a7A","correct":-1,"choice":-1,"rt":-1,"accuracy":1,"outcome":"-1","keys":[],"total_keys":0,"block":0,"practice":3,"trial_type":"pit-trial","trial_index":18,"time_elapsed":105234,"internal_node_id":"0.0-4.0-7.1-0.1","task_version":"battery-v0.2-trt","session":2},{"rune":"3","rune_set":"elianto","hex":"#f73b6a7A","correct":-1,"choice":-1,"rt":-1,"accuracy":1,"outcome":"-1","keys":[],"total_keys":0,"block":0,"practice":3,"trial_type":"pit-trial","trial_index":19,"time_elapsed":109240,"internal_node_id":"0.0-4.0-7.2-0.2","task_version":"battery-v0.2-trt","session":2},{"rune":"3","rune_set":"elianto","hex":"#f73b6a7A","correct":-1,"choice":-1,"rt":-1,"accuracy":1,"outcome":"-1","keys":[],"total_keys":0,"block":0,"practice":3,"trial_type":"pit-trial","trial_index":20,"time_elapsed":113244,"internal_node_id":"0.0-4.0-7.3-0.3","task_version":"battery-v0.2-trt","session":2},{"trial_type":"call-function","trial_index":21,"time_elapsed":113247,"internal_node_id":"0.0-4.0-8.0","task_version":"battery-v0.2-trt","session":2},{"view_history":"[{\"page_index\":0,\"viewing_time\":2860.675000003539},{\"page_index\":1,\"viewing_time\":959.9500000476837}]","rt":3820.9949999582022,"trial_type":"pit-instructions","trial_index":22,"time_elapsed":117068,"internal_node_id":"0.0-4.0-9.0","task_version":"battery-v0.2-trt","session":2},{"rune":"4","rune_set":"elianto","hex":"#f73b6a7A","correct":32,"choice":-1,"rt":-1,"accuracy":0,"outcome":"-10","keys":[1385.6350000714883],"total_keys":1,"block":0,"practice":4,"trial_type":"pit-trial","trial_index":23,"time_elapsed":121073,"internal_node_id":"0.0-4.0-10.0-0.0","task_version":"battery-v0.2-trt","session":2},{"rune":"4","rune_set":"elianto","hex":"#f73b6a7A","correct":32,"choice":-1,"rt":-1,"accuracy":0,"outcome":"-10","keys":[],"total_keys":0,"block":0,"practice":4,"trial_type":"pit-trial","trial_index":24,"time_elapsed":125079,"internal_node_id":"0.0-4.0-10.1-0.1","task_version":"battery-v0.2-trt","session":2},{"rune":"4","rune_set":"elianto","hex":"#f73b6a7A","correct":32,"choice":32,"rt":64.4849999807775,"accuracy":1,"outcome":"-1","keys":[1078.224999946542,1565.0100000202656],"total_keys":2,"block":0,"practice":4,"trial_type":"pit-trial","trial_index":25,"time_elapsed":127855,"internal_node_id":"0.0-4.0-10.2-0.2","task_version":"battery-v0.2-trt","session":2},{"rune":"4","rune_set":"elianto","hex":"#f73b6a7A","correct":32,"choice":32,"rt":313.3099999977276,"accuracy":1,"outcome":"-1","keys":[1813.7099999003112],"total_keys":1,"block":0,"practice":4,"trial_type":"pit-trial","trial_index":26,"time_elapsed":130873,"internal_node_id":"0.0-4.0-10.3-0.3","task_version":"battery-v0.2-trt","session":2},{"rune":"4","rune_set":"elianto","hex":"#f73b6a7A","correct":32,"choice":32,"rt":279.6650000382215,"accuracy":1,"outcome":"-1","keys":[1779.7899999422953],"total_keys":1,"block":0,"practice":4,"trial_type":"pit-trial","trial_index":27,"time_elapsed":133858,"internal_node_id":"0.0-4.0-10.4-0.4","task_version":"battery-v0.2-trt","session":2},{"trial_type":"call-function","trial_index":28,"time_elapsed":133860,"internal_node_id":"0.0-4.0-11.0","task_version":"battery-v0.2-trt","session":2},{"view_history":"[{\"page_index\":0,\"viewing_time\":1199.4299999205396},{\"page_index\":1,\"viewing_time\":1208.0100000603124},{\"page_index\":2,\"viewing_time\":711.9549999479204},{\"page_index\":3,\"viewing_time\":784.3550000106916},{\"page_index\":4,\"viewing_time\":967.865000013262},{\"page_index\":5,\"viewing_time\":807.9249999718741}]","rt":5679.919999907725,"trial_type":"pit-instructions","trial_index":29,"time_elapsed":139540,"internal_node_id":"0.0-4.0-12.0","task_version":"battery-v0.2-trt","session":2},{"responses":["Press SPACE","+10","-1","True","True"],"num_errors":0,"rt":11238.134999992326,"trial_type":"pit-comprehension","trial_index":30,"time_elapsed":150782,"internal_node_id":"0.0-4.0-13.0","task_version":"battery-v0.2-trt","session":2},{"view_history":"[{\"page_index\":0,\"viewing_time\":1049.9350000172853},{\"page_index\":1,\"viewing_time\":1535.7500000391155}]","rt":2586.0699999611825,"trial_type":"pit-instructions","trial_index":31,"time_elapsed":153372,"internal_node_id":"0.0-5.0","task_version":"battery-v0.2-trt","session":2},{"rune":"I","rune_set":"bacs1","hex":"#f73b6a7A","correct":32,"choice":-1,"rt":-1,"accuracy":0,"outcome":"-10","keys":[1336.074999999255],"total_keys":1,"block":1,"trial":1,"stimulus":2,"robot":3,"valence":"lose","action":"go","sham":0,"trial_type":"pit-trial","trial_index":32,"time_elapsed":157379,"internal_node_id":"0.0-6.0","task_version":"battery-v0.2-trt","session":2},{"rune":"O","rune_set":"bacs1","hex":"#3366ff99","correct":32,"choice":32,"rt":654.3850000016391,"accuracy":1,"outcome":"+10","keys":[2154.9299999605864],"total_keys":1,"block":1,"trial":2,"stimulus":3,"robot":1,"valence":"win","action":"go","sham":0,"trial_type":"pit-trial","trial_index":33,"time_elapsed":160738,"internal_node_id":"0.0-7.0","task_version":"battery-v0.2-trt","session":2},{"rune":"N","rune_set":"bacs1","hex":"#f73b6a7A","correct":-1,"choice":-1,"rt":-1,"accuracy":1,"outcome":"-1","keys":[],"total_keys":0,"block":1,"trial":3,"stimulus":0,"robot":4,"valence":"lose","action":"no-go","sham":0,"trial_type":"pit-trial","trial_index":34,"time_elapsed":164743,"internal_node_id":"0.0-8.0","task_version":"battery-v0.2-trt","session":2},{"rune":"G","rune_set":"bacs1","hex":"#f73b6a7A","correct":32,"choice":32,"rt":585.9150000615045,"accuracy":1,"outcome":"-1","keys":[2085.964999976568],"total_keys":1,"block":1,"trial":4,"stimulus":1,"robot":3,"valence":"lose","action":"go","sham":0,"trial_type":"pit-trial","trial_index":35,"time_elapsed":168034,"internal_node_id":"0.0-9.0","task_version":"battery-v0.2-trt","session":2},{"rune":"G","rune_set":"bacs1","hex":"#f73b6a7A","correct":32,"choice":32,"rt":438.774999929592,"accuracy":1,"outcome":"-1","keys":[1939.5500000100583],"total_keys":1,"block":1,"trial":5,"stimulus":1,"robot":3,"valence":"lose","action":"go","sham":0,"trial_type":"pit-trial","trial_index":36,"time_elapsed":171179,"internal_node_id":"0.0-10.0","task_version":"battery-v0.2-trt","session":2},{"rune":"O","rune_set":"bacs1","hex":"#3366ff99","correct":32,"choice":32,"rt":349.5600000023842,"accuracy":1,"outcome":"+10","keys":[1850.8700000820681],"total_keys":1,"block":1,"trial":6,"stimulus":3,"robot":1,"valence":"win","action":"go","sham":0,"trial_type":"pit-trial","trial_index":37,"time_elapsed":174233,"internal_node_id":"0.0-11.0","task_version":"battery-v0.2-trt","session":2},{"rune":"I","rune_set":"bacs1","hex":"#f73b6a7A","correct":32,"choice":-1,"rt":-1,"accuracy":0,"outcome":"-10","keys":[],"total_keys":0,"block":1,"trial":7,"stimulus":2,"robot":3,"valence":"lose","action":"go","sham":0,"trial_type":"pit-trial","trial_index":38,"time_elapsed":178238,"internal_node_id":"0.0-12.0","task_version":"battery-v0.2-trt","session":2},{"rune":"N","rune_set":"bacs1","hex":"#f73b6a7A","correct":-1,"choice":32,"rt":595.4549999441952,"accuracy":0,"outcome":"-10","keys":[2096.3299999712035],"total_keys":1,"block":1,"trial":8,"stimulus":0,"robot":4,"valence":"lose","action":"no-go","sham":0,"trial_type":"pit-trial","trial_index":39,"time_elapsed":181538,"internal_node_id":"0.0-13.0","task_version":"battery-v0.2-trt","session":2},{"rune":"I","rune_set":"bacs1","hex":"#f73b6a7A","correct":32,"choice":32,"rt":639.2600000835955,"accuracy":1,"outcome":"-1","keys":[2139.489999972284],"total_keys":1,"block":1,"trial":9,"stimulus":2,"robot":3,"valence":"lose","action":"go","sham":0,"trial_type":"pit-trial","trial_index":40,"time_elapsed":184882,"internal_node_id":"0.0-14.0","task_version":"battery-v0.2-trt","session":2},{"rune":"G","rune_set":"bacs1","hex":"#f73b6a7A","correct":32,"choice":32,"rt":630.6150000309572,"accuracy":1,"outcome":"-10","keys":[2130.974999978207],"total_keys":1,"block":1,"trial":10,"stimulus":1,"robot":3,"valence":"lose","action":"go","sham":1,"trial_type":"pit-trial","trial_index":41,"time_elapsed":188218,"internal_node_id":"0.0-15.0","task_version":"battery-v0.2-trt","session":2},{"rune":"N","rune_set":"bacs1","hex":"#f73b6a7A","correct":-1,"choice":-1,"rt":-1,"accuracy":1,"outcome":"-1","keys":[],"total_keys":0,"block":1,"trial":11,"stimulus":0,"robot":4,"valence":"lose","action":"no-go","sham":0,"trial_type":"pit-trial","trial_index":42,"time_elapsed":192224,"internal_node_id":"0.0-16.0","task_version":"battery-v0.2-trt","session":2},{"rune":"O","rune_set":"bacs1","hex":"#3366ff99","correct":32,"choice":32,"rt":472.0550000201911,"accuracy":1,"outcome":"+10","keys":[1972.6149999769405],"total_keys":1,"block":1,"trial":12,"stimulus":3,"robot":1,"valence":"win","action":"go","sham":0,"trial_type":"pit-trial","trial_index":43,"time_elapsed":195401,"internal_node_id":"0.0-17.0","task_version":"battery-v0.2-trt","session":2},{"rune":"G","rune_set":"bacs1","hex":"#f73b6a7A","correct":32,"choice":-1,"rt":-1,"accuracy":0,"outcome":"-1","keys":[],"total_keys":0,"block":1,"trial":13,"stimulus":1,"robot":3,"valence":"lose","action":"go","sham":1,"trial_type":"pit-trial","trial_index":44,"time_elapsed":199404,"internal_node_id":"0.0-18.0","task_version":"battery-v0.2-trt","session":2},{"rune":"N","rune_set":"bacs1","hex":"#f73b6a7A","correct":-1,"choice":-1,"rt":-1,"accuracy":1,"outcome":"-1","keys":[],"total_keys":0,"block":1,"trial":14,"stimulus":0,"robot":4,"valence":"lose","action":"no-go","sham":0,"trial_type":"pit-trial","trial_index":45,"time_elapsed":203408,"internal_node_id":"0.0-19.0","task_version":"battery-v0.2-trt","session":2},{"rune":"O","rune_set":"bacs1","hex":"#3366ff99","correct":32,"choice":32,"rt":431.914999964647,"accuracy":1,"outcome":"+10","keys":[1933.240000042133],"total_keys":1,"block":1,"trial":15,"stimulus":3,"robot":1,"valence":"win","action":"go","sham":0,"trial_type":"pit-trial","trial_index":46,"time_elapsed":206548,"internal_node_id":"0.0-20.0","task_version":"battery-v0.2-trt","session":2},{"rune":"I","rune_set":"bacs1","hex":"#f73b6a7A","correct":32,"choice":32,"rt":357.8449999913573,"accuracy":1,"outcome":"-1","keys":[1858.5800000000745],"total_keys":1,"block":1,"trial":16,"stimulus":2,"robot":3,"valence":"lose","action":"go","sham":0,"trial_type":"pit-trial","trial_index":47,"time_elapsed":209609,"internal_node_id":"0.0-21.0","task_version":"battery-v0.2-trt","session":2},{"rune":"G","rune_set":"bacs1","hex":"#f73b6a7A","correct":32,"choice":-1,"rt":-1,"accuracy":0,"outcome":"-10","keys":[],"total_keys":0,"block":1,"trial":17,"stimulus":1,"robot":3,"valence":"lose","action":"go","sham":0,"trial_type":"pit-trial","trial_index":48,"time_elapsed":213614,"internal_node_id":"0.0-22.0","task_version":"battery-v0.2-trt","session":2},{"rune":"O","rune_set":"bacs1","hex":"#3366ff99","correct":32,"choice":32,"rt":419.37500005587935,"accuracy":1,"outcome":"+10","keys":[1919.9299999745563],"total_keys":1,"block":1,"trial":18,"stimulus":3,"robot":1,"valence":"win","action":"go","sham":0,"trial_type":"pit-trial","trial_index":49,"time_elapsed":216738,"internal_node_id":"0.0-23.0","task_version":"battery-v0.2-trt","session":2},{"rune":"N","rune_set":"bacs1","hex":"#f73b6a7A","correct":-1,"choice":-1,"rt":-1,"accuracy":1,"outcome":"-10","keys":[],"total_keys":0,"block":1,"trial":19,"stimulus":0,"robot":4,"valence":"lose","action":"no-go","sham":1,"trial_type":"pit-trial","trial_index":50,"time_elapsed":220743,"internal_node_id":"0.0-24.0","task_version":"battery-v0.2-trt","session":2},{"rune":"I","rune_set":"bacs1","hex":"#f73b6a7A","correct":32,"choice":32,"rt":370.17499993089586,"accuracy":1,"outcome":"-1","keys":[1871.030000038445],"total_keys":1,"block":1,"trial":20,"stimulus":2,"robot":3,"valence":"lose","action":"go","sham":0,"trial_type":"pit-trial","trial_index":51,"time_elapsed":223819,"internal_node_id":"0.0-25.0","task_version":"battery-v0.2-trt","session":2},{"rune":"N","rune_set":"bacs1","hex":"#f73b6a7A","correct":-1,"choice":32,"rt":279.1300000390038,"accuracy":0,"outcome":"-10","keys":[1780.3599999751896],"total_keys":1,"block":1,"trial":21,"stimulus":0,"robot":4,"valence":"lose","action":"no-go","sham":0,"trial_type":"pit-trial","trial_index":52,"time_elapsed":226803,"internal_node_id":"0.0-26.0","task_version":"battery-v0.2-trt","session":2},{"rune":"I","rune_set":"bacs1","hex":"#f73b6a7A","correct":32,"choice":32,"rt":469.3299999926239,"accuracy":1,"outcome":"-1","keys":[1969.9600000167266],"total_keys":1,"block":1,"trial":22,"stimulus":2,"robot":3,"valence":"lose","action":"go","sham":0,"trial_type":"pit-trial","trial_index":53,"time_elapsed":229989,"internal_node_id":"0.0-27.0","task_version":"battery-v0.2-trt","session":2},{"rune":"O","rune_set":"bacs1","hex":"#3366ff99","correct":32,"choice":32,"rt":418.65499992854893,"accuracy":1,"outcome":"+10","keys":[1920.3350000316277],"total_keys":1,"block":1,"trial":23,"stimulus":3,"robot":1,"valence":"win","action":"go","sham":0,"trial_type":"pit-trial","trial_index":54,"time_elapsed":233114,"internal_node_id":"0.0-28.0","task_version":"battery-v0.2-trt","session":2},{"rune":"G","rune_set":"bacs1","hex":"#f73b6a7A","correct":32,"choice":32,"rt":958.7799999862909,"accuracy":1,"outcome":"-1","keys":[2459.004999953322],"total_keys":1,"block":1,"trial":24,"stimulus":1,"robot":3,"valence":"lose","action":"go","sham":0,"trial_type":"pit-trial","trial_index":55,"time_elapsed":236777,"internal_node_id":"0.0-29.0","task_version":"battery-v0.2-trt","session":2},{"rune":"G","rune_set":"bacs1","hex":"#f73b6a7A","correct":32,"choice":-1,"rt":-1,"accuracy":0,"outcome":"-10","keys":[],"total_keys":0,"block":1,"trial":25,"stimulus":1,"robot":3,"valence":"lose","action":"go","sham":0,"trial_type":"pit-trial","trial_index":56,"time_elapsed":240797,"internal_node_id":"0.0-30.0","task_version":"battery-v0.2-trt","session":2},{"rune":"N","rune_set":"bacs1","hex":"#f73b6a7A","correct":-1,"choice":-1,"rt":-1,"accuracy":1,"outcome":"-1","keys":[],"total_keys":0,"block":1,"trial":26,"stimulus":0,"robot":4,"valence":"lose","action":"no-go","sham":0,"trial_type":"pit-trial","trial_index":57,"time_elapsed":244803,"internal_node_id":"0.0-31.0","task_version":"battery-v0.2-trt","session":2},{"rune":"O","rune_set":"bacs1","hex":"#3366ff99","correct":32,"choice":32,"rt":430.07500004023314,"accuracy":1,"outcome":"+10","keys":[1930.4599999450147],"total_keys":1,"block":1,"trial":27,"stimulus":3,"robot":1,"valence":"win","action":"go","sham":0,"trial_type":"pit-trial","trial_index":58,"time_elapsed":247938,"internal_node_id":"0.0-32.0","task_version":"battery-v0.2-trt","session":2},{"rune":"I","rune_set":"bacs1","hex":"#f73b6a7A","correct":32,"choice":32,"rt":319.36000008136034,"accuracy":1,"outcome":"-10","keys":[1819.7050000308082],"total_keys":1,"block":1,"trial":28,"stimulus":2,"robot":3,"valence":"lose","action":"go","sham":1,"trial_type":"pit-trial","trial_index":59,"time_elapsed":250966,"internal_node_id":"0.0-33.0","task_version":"battery-v0.2-trt","session":2},{"rune":"N","rune_set":"bacs1","hex":"#f73b6a7A","correct":-1,"choice":-1,"rt":-1,"accuracy":1,"outcome":"-1","keys":[],"total_keys":0,"block":1,"trial":29,"stimulus":0,"robot":4,"valence":"lose","action":"no-go","sham":0,"trial_type":"pit-trial","trial_index":60,"time_elapsed":254970,"internal_node_id":"0.0-34.0","task_version":"battery-v0.2-trt","session":2},{"rune":"G","rune_set":"bacs1","hex":"#f73b6a7A","correct":32,"choice":32,"rt":519.5600000442937,"accuracy":1,"outcome":"-1","keys":[2019.5850000018254],"total_keys":1,"block":1,"trial":30,"stimulus":1,"robot":3,"valence":"lose","action":"go","sham":0,"trial_type":"pit-trial","trial_index":61,"time_elapsed":258195,"internal_node_id":"0.0-35.0","task_version":"battery-v0.2-trt","session":2},{"rune":"I","rune_set":"bacs1","hex":"#f73b6a7A","correct":32,"choice":32,"rt":533.7199999485165,"accuracy":1,"outcome":"-1","keys":[2033.9949999470264],"total_keys":1,"block":1,"trial":31,"stimulus":2,"robot":3,"valence":"lose","action":"go","sham":0,"trial_type":"pit-trial","trial_index":62,"time_elapsed":261433,"internal_node_id":"0.0-36.0","task_version":"battery-v0.2-trt","session":2},{"rune":"O","rune_set":"bacs1","hex":"#3366ff99","correct":32,"choice":32,"rt":406.13000001758337,"accuracy":1,"outcome":"+1","keys":[1907.7749999705702],"total_keys":1,"block":1,"trial":32,"stimulus":3,"robot":1,"valence":"win","action":"go","sham":1,"trial_type":"pit-trial","trial_index":63,"time_elapsed":264546,"internal_node_id":"0.0-37.0","task_version":"battery-v0.2-trt","session":2},{"rune":"G","rune_set":"bacs1","hex":"#f73b6a7A","correct":32,"choice":32,"rt":918.6700000427663,"accuracy":1,"outcome":"-1","keys":[2419.469999964349],"total_keys":1,"block":1,"trial":33,"stimulus":1,"robot":3,"valence":"lose","action":"go","sham":0,"trial_type":"pit-trial","trial_index":64,"time_elapsed":268170,"internal_node_id":"0.0-38.0","task_version":"battery-v0.2-trt","session":2},{"rune":"O","rune_set":"bacs1","hex":"#3366ff99","correct":32,"choice":32,"rt":450.8999999379739,"accuracy":1,"outcome":"+1","keys":[1951.5749999554828],"total_keys":1,"block":1,"trial":34,"stimulus":3,"robot":1,"valence":"win","action":"go","sham":1,"trial_type":"pit-trial","trial_index":65,"time_elapsed":271330,"internal_node_id":"0.0-39.0","task_version":"battery-v0.2-trt","session":2},{"rune":"N","rune_set":"bacs1","hex":"#f73b6a7A","correct":-1,"choice":-1,"rt":-1,"accuracy":1,"outcome":"-1","keys":[],"total_keys":0,"block":1,"trial":35,"stimulus":0,"robot":4,"valence":"lose","action":"no-go","sham":0,"trial_type":"pit-trial","trial_index":66,"time_elapsed":275337,"internal_node_id":"0.0-40.0","task_version":"battery-v0.2-trt","session":2},{"rune":"D","rune_set":"bacs1","hex":"#f73b6a7A","correct":-1,"choice":32,"rt":696.4249999728054,"accuracy":0,"outcome":"-10","keys":[2196.5600000694394],"total_keys":1,"block":1,"trial":36,"stimulus":4,"robot":4,"valence":"lose","action":"no-go","sham":0,"trial_type":"pit-trial","trial_index":67,"time_elapsed":278738,"internal_node_id":"0.0-41.0","task_version":"battery-v0.2-trt","session":2},{"rune":"G","rune_set":"bacs1","hex":"#f73b6a7A","correct":32,"choice":32,"rt":565.4499999945983,"accuracy":1,"outcome":"-1","keys":[2067.170000053011],"total_keys":1,"block":1,"trial":37,"stimulus":1,"robot":3,"valence":"lose","action":"go","sham":0,"trial_type":"pit-trial","trial_index":68,"time_elapsed":282010,"internal_node_id":"0.0-42.0","task_version":"battery-v0.2-trt","session":2},{"rune":"O","rune_set":"bacs1","hex":"#3366ff99","correct":32,"choice":32,"rt":470.90999991633,"accuracy":1,"outcome":"+10","keys":[1971.229999908246],"total_keys":1,"block":1,"trial":38,"stimulus":3,"robot":1,"valence":"win","action":"go","sham":0,"trial_type":"pit-trial","trial_index":69,"time_elapsed":285184,"internal_node_id":"0.0-43.0","task_version":"battery-v0.2-trt","session":2},{"rune":"N","rune_set":"bacs1","hex":"#f73b6a7A","correct":-1,"choice":-1,"rt":-1,"accuracy":1,"outcome":"-1","keys":[],"total_keys":0,"block":1,"trial":39,"stimulus":0,"robot":4,"valence":"lose","action":"no-go","sham":0,"trial_type":"pit-trial","trial_index":70,"time_elapsed":289189,"internal_node_id":"0.0-44.0","task_version":"battery-v0.2-trt","session":2},{"rune":"D","rune_set":"bacs1","hex":"#f73b6a7A","correct":-1,"choice":-1,"rt":-1,"accuracy":1,"outcome":"-1","keys":[],"total_keys":0,"block":1,"trial":40,"stimulus":4,"robot":4,"valence":"lose","action":"no-go","sham":0,"trial_type":"pit-trial","trial_index":71,"time_elapsed":293194,"internal_node_id":"0.0-45.0","task_version":"battery-v0.2-trt","session":2},{"rune":"K","rune_set":"bacs1","hex":"#3366ff99","correct":-1,"choice":32,"rt":797.8550000116229,"accuracy":0,"outcome":"+1","keys":[2299.1199999814853],"total_keys":1,"block":1,"trial":41,"stimulus":5,"robot":2,"valence":"win","action":"no-go","sham":0,"trial_type":"pit-trial","trial_index":72,"time_elapsed":296697,"internal_node_id":"0.0-46.0","task_version":"battery-v0.2-trt","session":2},{"rune":"N","rune_set":"bacs1","hex":"#f73b6a7A","correct":-1,"choice":-1,"rt":-1,"accuracy":1,"outcome":"-1","keys":[],"total_keys":0,"block":1,"trial":42,"stimulus":0,"robot":4,"valence":"lose","action":"no-go","sham":0,"trial_type":"pit-trial","trial_index":73,"time_elapsed":300704,"internal_node_id":"0.0-47.0","task_version":"battery-v0.2-trt","session":2},{"rune":"D","rune_set":"bacs1","hex":"#f73b6a7A","correct":-1,"choice":-1,"rt":-1,"accuracy":1,"outcome":"-1","keys":[],"total_keys":0,"block":1,"trial":43,"stimulus":4,"robot":4,"valence":"lose","action":"no-go","sham":0,"trial_type":"pit-trial","trial_index":74,"time_elapsed":304709,"internal_node_id":"0.0-48.0","task_version":"battery-v0.2-trt","session":2},{"rune":"G","rune_set":"bacs1","hex":"#f73b6a7A","correct":32,"choice":32,"rt":691.4549999637529,"accuracy":1,"outcome":"-1","keys":[2192.2349999658763],"total_keys":1,"block":1,"trial":44,"stimulus":1,"robot":3,"valence":"lose","action":"go","sham":0,"trial_type":"pit-trial","trial_index":75,"time_elapsed":308105,"internal_node_id":"0.0-49.0","task_version":"battery-v0.2-trt","session":2},{"rune":"K","rune_set":"bacs1","hex":"#3366ff99","correct":-1,"choice":32,"rt":925.6449999520555,"accuracy":0,"outcome":"+1","keys":[2427.294999943115],"total_keys":1,"block":1,"trial":45,"stimulus":5,"robot":2,"valence":"win","action":"no-go","sham":0,"trial_type":"pit-trial","trial_index":76,"time_elapsed":311737,"internal_node_id":"0.0-50.0","task_version":"battery-v0.2-trt","session":2},{"rune":"G","rune_set":"bacs1","hex":"#f73b6a7A","correct":32,"choice":32,"rt":695.7999999867752,"accuracy":1,"outcome":"-1","keys":[2195.9000000497326],"total_keys":1,"block":1,"trial":46,"stimulus":1,"robot":3,"valence":"lose","action":"go","sham":0,"trial_type":"pit-trial","trial_index":77,"time_elapsed":315138,"internal_node_id":"0.0-51.0","task_version":"battery-v0.2-trt","session":2},{"rune":"D","rune_set":"bacs1","hex":"#f73b6a7A","correct":-1,"choice":-1,"rt":-1,"accuracy":1,"outcome":"-10","keys":[],"total_keys":0,"block":1,"trial":47,"stimulus":4,"robot":4,"valence":"lose","action":"no-go","sham":1,"trial_type":"pit-trial","trial_index":78,"time_elapsed":319158,"internal_node_id":"0.0-52.0","task_version":"battery-v0.2-trt","session":2},{"rune":"N","rune_set":"bacs1","hex":"#f73b6a7A","correct":-1,"choice":-1,"rt":-1,"accuracy":1,"outcome":"-1","keys":[],"total_keys":0,"block":1,"trial":48,"stimulus":0,"robot":4,"valence":"lose","action":"no-go","sham":0,"trial_type":"pit-trial","trial_index":79,"time_elapsed":323163,"internal_node_id":"0.0-53.0","task_version":"battery-v0.2-trt","session":2},{"rune":"D","rune_set":"bacs1","hex":"#f73b6a7A","correct":-1,"choice":-1,"rt":-1,"accuracy":1,"outcome":"-1","keys":[],"total_keys":0,"block":1,"trial":49,"stimulus":4,"robot":4,"valence":"lose","action":"no-go","sham":0,"trial_type":"pit-trial","trial_index":80,"time_elapsed":327167,"internal_node_id":"0.0-54.0","task_version":"battery-v0.2-trt","session":2},{"rune":"S","rune_set":"bacs1","hex":"#f73b6a7A","correct":-1,"choice":32,"rt":745.7700000377372,"accuracy":0,"outcome":"-10","keys":[2245.945000089705],"total_keys":1,"block":1,"trial":50,"stimulus":6,"robot":4,"valence":"lose","action":"no-go","sham":0,"trial_type":"pit-trial","trial_index":81,"time_elapsed":330618,"internal_node_id":"0.0-55.0","task_version":"battery-v0.2-trt","session":2},{"rune":"U","rune_set":"bacs1","hex":"#3366ff99","correct":32,"choice":32,"rt":789.3199999816716,"accuracy":1,"outcome":"+10","keys":[2290.984999970533],"total_keys":1,"block":1,"trial":51,"stimulus":7,"robot":1,"valence":"win","action":"go","sham":0,"trial_type":"pit-trial","trial_index":82,"time_elapsed":334114,"internal_node_id":"0.0-56.0","task_version":"battery-v0.2-trt","session":2},{"rune":"K","rune_set":"bacs1","hex":"#3366ff99","correct":-1,"choice":-1,"rt":-1,"accuracy":1,"outcome":"+10","keys":[],"total_keys":0,"block":1,"trial":52,"stimulus":5,"robot":2,"valence":"win","action":"no-go","sham":0,"trial_type":"pit-trial","trial_index":83,"time_elapsed":338119,"internal_node_id":"0.0-57.0","task_version":"battery-v0.2-trt","session":2},{"rune":"D","rune_set":"bacs1","hex":"#f73b6a7A","correct":-1,"choice":-1,"rt":-1,"accuracy":1,"outcome":"-10","keys":[],"total_keys":0,"block":1,"trial":53,"stimulus":4,"robot":4,"valence":"lose","action":"no-go","sham":1,"trial_type":"pit-trial","trial_index":84,"time_elapsed":342123,"internal_node_id":"0.0-58.0","task_version":"battery-v0.2-trt","session":2},{"rune":"S","rune_set":"bacs1","hex":"#f73b6a7A","correct":-1,"choice":-1,"rt":-1,"accuracy":1,"outcome":"-1","keys":[],"total_keys":0,"block":1,"trial":54,"stimulus":6,"robot":4,"valence":"lose","action":"no-go","sham":0,"trial_type":"pit-trial","trial_index":85,"time_elapsed":346130,"internal_node_id":"0.0-59.0","task_version":"battery-v0.2-trt","session":2},{"rune":"K","rune_set":"bacs1","hex":"#3366ff99","correct":-1,"choice":-1,"rt":-1,"accuracy":1,"outcome":"+1","keys":[],"total_keys":0,"block":1,"trial":55,"stimulus":5,"robot":2,"valence":"win","action":"no-go","sham":1,"trial_type":"pit-trial","trial_index":86,"time_elapsed":350135,"internal_node_id":"0.0-60.0","task_version":"battery-v0.2-trt","session":2},{"rune":"U","rune_set":"bacs1","hex":"#3366ff99","correct":32,"choice":32,"rt":337.1099999640137,"accuracy":1,"outcome":"+10","keys":[1837.80000009574],"total_keys":1,"block":1,"trial":56,"stimulus":7,"robot":1,"valence":"win","action":"go","sham":0,"trial_type":"pit-trial","trial_index":87,"time_elapsed":353177,"internal_node_id":"0.0-61.0","task_version":"battery-v0.2-trt","session":2},{"rune":"D","rune_set":"bacs1","hex":"#f73b6a7A","correct":-1,"choice":32,"rt":463.2149999961257,"accuracy":0,"outcome":"-10","keys":[1963.2700000656769],"total_keys":1,"block":1,"trial":57,"stimulus":4,"robot":4,"valence":"lose","action":"no-go","sham":0,"trial_type":"pit-trial","trial_index":88,"time_elapsed":356345,"internal_node_id":"0.0-62.0","task_version":"battery-v0.2-trt","session":2},{"rune":"U","rune_set":"bacs1","hex":"#3366ff99","correct":32,"choice":32,"rt":477.2550000343472,"accuracy":1,"outcome":"+10","keys":[1979.2149999411777],"total_keys":1,"block":1,"trial":58,"stimulus":7,"robot":1,"valence":"win","action":"go","sham":0,"trial_type":"pit-trial","trial_index":89,"time_elapsed":359529,"internal_node_id":"0.0-63.0","task_version":"battery-v0.2-trt","session":2},{"rune":"S","rune_set":"bacs1","hex":"#f73b6a7A","correct":-1,"choice":-1,"rt":-1,"accuracy":1,"outcome":"-1","keys":[],"total_keys":0,"block":1,"trial":59,"stimulus":6,"robot":4,"valence":"lose","action":"no-go","sham":0,"trial_type":"pit-trial","trial_index":90,"time_elapsed":363535,"internal_node_id":"0.0-64.0","task_version":"battery-v0.2-trt","session":2},{"rune":"K","rune_set":"bacs1","hex":"#3366ff99","correct":-1,"choice":-1,"rt":-1,"accuracy":1,"outcome":"+10","keys":[],"total_keys":0,"block":1,"trial":60,"stimulus":5,"robot":2,"valence":"win","action":"no-go","sham":0,"trial_type":"pit-trial","trial_index":91,"time_elapsed":367540,"internal_node_id":"0.0-65.0","task_version":"battery-v0.2-trt","session":2},{"rune":"K","rune_set":"bacs1","hex":"#3366ff99","correct":-1,"choice":-1,"rt":-1,"accuracy":1,"outcome":"+10","keys":[],"total_keys":0,"block":1,"trial":61,"stimulus":5,"robot":2,"valence":"win","action":"no-go","sham":0,"trial_type":"pit-trial","trial_index":92,"time_elapsed":371545,"internal_node_id":"0.0-66.0","task_version":"battery-v0.2-trt","session":2},{"rune":"D","rune_set":"bacs1","hex":"#f73b6a7A","correct":-1,"choice":-1,"rt":-1,"accuracy":1,"outcome":"-10","keys":[],"total_keys":0,"block":1,"trial":62,"stimulus":4,"robot":4,"valence":"lose","action":"no-go","sham":1,"trial_type":"pit-trial","trial_index":93,"time_elapsed":375549,"internal_node_id":"0.0-67.0","task_version":"battery-v0.2-trt","session":2},{"rune":"U","rune_set":"bacs1","hex":"#3366ff99","correct":32,"choice":32,"rt":323.54000001214445,"accuracy":1,"outcome":"+10","keys":[1824.2849999805912],"total_keys":1,"block":1,"trial":63,"stimulus":7,"robot":1,"valence":"win","action":"go","sham":0,"trial_type":"pit-trial","trial_index":94,"time_elapsed":378578,"internal_node_id":"0.0-68.0","task_version":"battery-v0.2-trt","session":2},{"rune":"S","rune_set":"bacs1","hex":"#f73b6a7A","correct":-1,"choice":-1,"rt":-1,"accuracy":1,"outcome":"-1","keys":[],"total_keys":0,"block":1,"trial":64,"stimulus":6,"robot":4,"valence":"lose","action":"no-go","sham":0,"trial_type":"pit-trial","trial_index":95,"time_elapsed":382584,"internal_node_id":"0.0-69.0","task_version":"battery-v0.2-trt","session":2},{"rune":"S","rune_set":"bacs1","hex":"#f73b6a7A","correct":-1,"choice":-1,"rt":-1,"accuracy":1,"outcome":"-10","keys":[],"total_keys":0,"block":1,"trial":65,"stimulus":6,"robot":4,"valence":"lose","action":"no-go","sham":1,"trial_type":"pit-trial","trial_index":96,"time_elapsed":386596,"internal_node_id":"0.0-70.0","task_version":"battery-v0.2-trt","session":2},{"rune":"U","rune_set":"bacs1","hex":"#3366ff99","correct":32,"choice":32,"rt":308.09000006411225,"accuracy":1,"outcome":"+10","keys":[1808.9599999366328],"total_keys":1,"block":1,"trial":66,"stimulus":7,"robot":1,"valence":"win","action":"go","sham":0,"trial_type":"pit-trial","trial_index":97,"time_elapsed":389610,"internal_node_id":"0.0-71.0","task_version":"battery-v0.2-trt","session":2},{"rune":"K","rune_set":"bacs1","hex":"#3366ff99","correct":-1,"choice":-1,"rt":-1,"accuracy":1,"outcome":"+10","keys":[],"total_keys":0,"block":1,"trial":67,"stimulus":5,"robot":2,"valence":"win","action":"no-go","sham":0,"trial_type":"pit-trial","trial_index":98,"time_elapsed":393616,"internal_node_id":"0.0-72.0","task_version":"battery-v0.2-trt","session":2},{"rune":"D","rune_set":"bacs1","hex":"#f73b6a7A","correct":-1,"choice":32,"rt":472.1150000113994,"accuracy":0,"outcome":"-10","keys":[1972.7100000018254],"total_keys":1,"block":1,"trial":68,"stimulus":4,"robot":4,"valence":"lose","action":"no-go","sham":0,"trial_type":"pit-trial","trial_index":99,"time_elapsed":396793,"internal_node_id":"0.0-73.0","task_version":"battery-v0.2-trt","session":2},{"rune":"K","rune_set":"bacs1","hex":"#3366ff99","correct":-1,"choice":-1,"rt":-1,"accuracy":1,"outcome":"+10","keys":[],"total_keys":0,"block":1,"trial":69,"stimulus":5,"robot":2,"valence":"win","action":"no-go","sham":0,"trial_type":"pit-trial","trial_index":100,"time_elapsed":400812,"internal_node_id":"0.0-74.0","task_version":"battery-v0.2-trt","session":2},{"rune":"S","rune_set":"bacs1","hex":"#f73b6a7A","correct":-1,"choice":-1,"rt":-1,"accuracy":1,"outcome":"-10","keys":[],"total_keys":0,"block":1,"trial":70,"stimulus":6,"robot":4,"valence":"lose","action":"no-go","sham":1,"trial_type":"pit-trial","trial_index":101,"time_elapsed":404817,"internal_node_id":"0.0-75.0","task_version":"battery-v0.2-trt","session":2},{"rune":"U","rune_set":"bacs1","hex":"#3366ff99","correct":32,"choice":32,"rt":422.35500004608184,"accuracy":1,"outcome":"+10","keys":[1924.100000062026],"total_keys":1,"block":1,"trial":71,"stimulus":7,"robot":1,"valence":"win","action":"go","sham":0,"trial_type":"pit-trial","trial_index":102,"time_elapsed":407946,"internal_node_id":"0.0-76.0","task_version":"battery-v0.2-trt","session":2},{"rune":"D","rune_set":"bacs1","hex":"#f73b6a7A","correct":-1,"choice":-1,"rt":-1,"accuracy":1,"outcome":"-1","keys":[],"total_keys":0,"block":1,"trial":72,"stimulus":4,"robot":4,"valence":"lose","action":"no-go","sham":0,"trial_type":"pit-trial","trial_index":103,"time_elapsed":411951,"internal_node_id":"0.0-77.0","task_version":"battery-v0.2-trt","session":2},{"rune":"U","rune_set":"bacs1","hex":"#3366ff99","correct":32,"choice":32,"rt":481.8600000580773,"accuracy":1,"outcome":"+1","keys":[1982.590000028722],"total_keys":1,"block":1,"trial":73,"stimulus":7,"robot":1,"valence":"win","action":"go","sham":1,"trial_type":"pit-trial","trial_index":104,"time_elapsed":415138,"internal_node_id":"0.0-78.0","task_version":"battery-v0.2-trt","session":2},{"rune":"K","rune_set":"bacs1","hex":"#3366ff99","correct":-1,"choice":-1,"rt":-1,"accuracy":1,"outcome":"+1","keys":[],"total_keys":0,"block":1,"trial":74,"stimulus":5,"robot":2,"valence":"win","action":"no-go","sham":1,"trial_type":"pit-trial","trial_index":105,"time_elapsed":419144,"internal_node_id":"0.0-79.0","task_version":"battery-v0.2-trt","session":2},{"rune":"S","rune_set":"bacs1","hex":"#f73b6a7A","correct":-1,"choice":-1,"rt":-1,"accuracy":1,"outcome":"-1","keys":[],"total_keys":0,"block":1,"trial":75,"stimulus":6,"robot":4,"valence":"lose","action":"no-go","sham":0,"trial_type":"pit-trial","trial_index":106,"time_elapsed":423149,"internal_node_id":"0.0-80.0","task_version":"battery-v0.2-trt","session":2},{"rune":"M","rune_set":"bacs1","hex":"#3366ff99","correct":32,"choice":32,"rt":826.024999958463,"accuracy":1,"outcome":"+10","keys":[2327.354999957606],"total_keys":1,"block":1,"trial":76,"stimulus":8,"robot":1,"valence":"win","action":"go","sham":0,"trial_type":"pit-trial","trial_index":107,"time_elapsed":426681,"internal_node_id":"0.0-81.0","task_version":"battery-v0.2-trt","session":2},{"rune":"K","rune_set":"bacs1","hex":"#3366ff99","correct":-1,"choice":-1,"rt":-1,"accuracy":1,"outcome":"+10","keys":[],"total_keys":0,"block":1,"trial":77,"stimulus":5,"robot":2,"valence":"win","action":"no-go","sham":0,"trial_type":"pit-trial","trial_index":108,"time_elapsed":430701,"internal_node_id":"0.0-82.0","task_version":"battery-v0.2-trt","session":2},{"rune":"U","rune_set":"bacs1","hex":"#3366ff99","correct":32,"choice":32,"rt":442.37999990582466,"accuracy":1,"outcome":"+10","keys":[1943.6200000345707],"total_keys":1,"block":1,"trial":78,"stimulus":7,"robot":1,"valence":"win","action":"go","sham":0,"trial_type":"pit-trial","trial_index":109,"time_elapsed":433848,"internal_node_id":"0.0-83.0","task_version":"battery-v0.2-trt","session":2},{"rune":"M","rune_set":"bacs1","hex":"#3366ff99","correct":32,"choice":32,"rt":400.7249999558553,"accuracy":1,"outcome":"+10","keys":[1901.6149999806657],"total_keys":1,"block":1,"trial":79,"stimulus":8,"robot":1,"valence":"win","action":"go","sham":0,"trial_type":"pit-trial","trial_index":110,"time_elapsed":436953,"internal_node_id":"0.0-84.0","task_version":"battery-v0.2-trt","session":2},{"rune":"S","rune_set":"bacs1","hex":"#f73b6a7A","correct":-1,"choice":-1,"rt":-1,"accuracy":1,"outcome":"-1","keys":[],"total_keys":0,"block":1,"trial":80,"stimulus":6,"robot":4,"valence":"lose","action":"no-go","sham":0,"trial_type":"pit-trial","trial_index":111,"time_elapsed":440959,"internal_node_id":"0.0-85.0","task_version":"battery-v0.2-trt","session":2},{"rune":"K","rune_set":"bacs1","hex":"#3366ff99","correct":-1,"choice":-1,"rt":-1,"accuracy":1,"outcome":"+10","keys":[],"total_keys":0,"block":1,"trial":81,"stimulus":5,"robot":2,"valence":"win","action":"no-go","sham":0,"trial_type":"pit-trial","trial_index":112,"time_elapsed":444964,"internal_node_id":"0.0-86.0","task_version":"battery-v0.2-trt","session":2},{"rune":"M","rune_set":"bacs1","hex":"#3366ff99","correct":32,"choice":32,"rt":563.9449999434873,"accuracy":1,"outcome":"+10","keys":[2064.810000010766],"total_keys":1,"block":1,"trial":82,"stimulus":8,"robot":1,"valence":"win","action":"go","sham":0,"trial_type":"pit-trial","trial_index":113,"time_elapsed":448233,"internal_node_id":"0.0-87.0","task_version":"battery-v0.2-trt","session":2},{"rune":"H","rune_set":"bacs1","hex":"#f73b6a7A","correct":32,"choice":32,"rt":631.2550000147894,"accuracy":1,"outcome":"-10","keys":[2132.0200000191107],"total_keys":1,"block":1,"trial":83,"stimulus":10,"robot":3,"valence":"lose","action":"go","sham":1,"trial_type":"pit-trial","trial_index":114,"time_elapsed":451570,"internal_node_id":"0.0-88.0","task_version":"battery-v0.2-trt","session":2},{"rune":"P","rune_set":"bacs1","hex":"#3366ff99","correct":-1,"choice":32,"rt":654.1000000433996,"accuracy":0,"outcome":"+1","keys":[2154.994999989867],"total_keys":1,"block":1,"trial":84,"stimulus":9,"robot":2,"valence":"win","action":"no-go","sham":0,"trial_type":"pit-trial","trial_index":115,"time_elapsed":454929,"internal_node_id":"0.0-89.0","task_version":"battery-v0.2-trt","session":2},{"rune":"K","rune_set":"bacs1","hex":"#3366ff99","correct":-1,"choice":-1,"rt":-1,"accuracy":1,"outcome":"+10","keys":[],"total_keys":0,"block":1,"trial":85,"stimulus":5,"robot":2,"valence":"win","action":"no-go","sham":0,"trial_type":"pit-trial","trial_index":116,"time_elapsed":458934,"internal_node_id":"0.0-90.0","task_version":"battery-v0.2-trt","session":2},{"rune":"M","rune_set":"bacs1","hex":"#3366ff99","correct":32,"choice":32,"rt":634.4599999720231,"accuracy":1,"outcome":"+1","keys":[2134.6250000642613],"total_keys":1,"block":1,"trial":86,"stimulus":8,"robot":1,"valence":"win","action":"go","sham":1,"trial_type":"pit-trial","trial_index":117,"time_elapsed":462274,"internal_node_id":"0.0-91.0","task_version":"battery-v0.2-trt","session":2},{"rune":"P","rune_set":"bacs1","hex":"#3366ff99","correct":-1,"choice":-1,"rt":-1,"accuracy":1,"outcome":"+10","keys":[],"total_keys":0,"block":1,"trial":87,"stimulus":9,"robot":2,"valence":"win","action":"no-go","sham":0,"trial_type":"pit-trial","trial_index":118,"time_elapsed":466280,"internal_node_id":"0.0-92.0","task_version":"battery-v0.2-trt","session":2},{"rune":"H","rune_set":"bacs1","hex":"#f73b6a7A","correct":32,"choice":-1,"rt":-1,"accuracy":0,"outcome":"-10","keys":[],"total_keys":0,"block":1,"trial":88,"stimulus":10,"robot":3,"valence":"lose","action":"go","sham":0,"trial_type":"pit-trial","trial_index":119,"time_elapsed":470285,"internal_node_id":"0.0-93.0","task_version":"battery-v0.2-trt","session":2},{"rune":"H","rune_set":"bacs1","hex":"#f73b6a7A","correct":32,"choice":32,"rt":586.9650000240654,"accuracy":1,"outcome":"-1","keys":[2088.1199999712408],"total_keys":1,"block":1,"trial":89,"stimulus":10,"robot":3,"valence":"lose","action":"go","sham":0,"trial_type":"pit-trial","trial_index":120,"time_elapsed":473577,"internal_node_id":"0.0-94.0","task_version":"battery-v0.2-trt","session":2},{"rune":"M","rune_set":"bacs1","hex":"#3366ff99","correct":32,"choice":32,"rt":622.6650000317022,"accuracy":1,"outcome":"+10","keys":[2123.670000000857],"total_keys":1,"block":1,"trial":90,"stimulus":8,"robot":1,"valence":"win","action":"go","sham":0,"trial_type":"pit-trial","trial_index":121,"time_elapsed":476905,"internal_node_id":"0.0-95.0","task_version":"battery-v0.2-trt","session":2},{"rune":"P","rune_set":"bacs1","hex":"#3366ff99","correct":-1,"choice":-1,"rt":-1,"accuracy":1,"outcome":"+10","keys":[],"total_keys":0,"block":1,"trial":91,"stimulus":9,"robot":2,"valence":"win","action":"no-go","sham":0,"trial_type":"pit-trial","trial_index":122,"time_elapsed":480909,"internal_node_id":"0.0-96.0","task_version":"battery-v0.2-trt","session":2},{"rune":"Y","rune_set":"bacs1","hex":"#3366ff99","correct":-1,"choice":32,"rt":698.8949999213219,"accuracy":0,"outcome":"+1","keys":[2199.640000006184],"total_keys":1,"block":1,"trial":92,"stimulus":11,"robot":2,"valence":"win","action":"no-go","sham":0,"trial_type":"pit-trial","trial_index":123,"time_elapsed":484314,"internal_node_id":"0.0-97.0","task_version":"battery-v0.2-trt","session":2},{"rune":"P","rune_set":"bacs1","hex":"#3366ff99","correct":-1,"choice":-1,"rt":-1,"accuracy":1,"outcome":"+10","keys":[],"total_keys":0,"block":1,"trial":93,"stimulus":9,"robot":2,"valence":"win","action":"no-go","sham":0,"trial_type":"pit-trial","trial_index":124,"time_elapsed":488318,"internal_node_id":"0.0-98.0","task_version":"battery-v0.2-trt","session":2},{"rune":"H","rune_set":"bacs1","hex":"#f73b6a7A","correct":32,"choice":32,"rt":337.8650000086054,"accuracy":1,"outcome":"-1","keys":[1838.3199999807402],"total_keys":1,"block":1,"trial":94,"stimulus":10,"robot":3,"valence":"lose","action":"go","sham":0,"trial_type":"pit-trial","trial_index":125,"time_elapsed":491361,"internal_node_id":"0.0-99.0","task_version":"battery-v0.2-trt","session":2},{"rune":"M","rune_set":"bacs1","hex":"#3366ff99","correct":32,"choice":32,"rt":799.5249999221414,"accuracy":1,"outcome":"+1","keys":[2299.5750000700355],"total_keys":1,"block":1,"trial":95,"stimulus":8,"robot":1,"valence":"win","action":"go","sham":1,"trial_type":"pit-trial","trial_index":126,"time_elapsed":494865,"internal_node_id":"0.0-100.0","task_version":"battery-v0.2-trt","session":2},{"rune":"Y","rune_set":"bacs1","hex":"#3366ff99","correct":-1,"choice":32,"rt":1141.814999980852,"accuracy":0,"outcome":"+10","keys":[2643.0399999953806],"total_keys":1,"block":1,"trial":96,"stimulus":11,"robot":2,"valence":"win","action":"no-go","sham":1,"trial_type":"pit-trial","trial_index":127,"time_elapsed":498712,"internal_node_id":"0.0-101.0","task_version":"battery-v0.2-trt","session":2},{"rune":"Y","rune_set":"bacs1","hex":"#3366ff99","correct":-1,"choice":32,"rt":527.6099999900907,"accuracy":0,"outcome":"+1","keys":[2028.5099999746308],"total_keys":1,"block":1,"trial":97,"stimulus":11,"robot":2,"valence":"win","action":"no-go","sham":0,"trial_type":"pit-trial","trial_index":128,"time_elapsed":501946,"internal_node_id":"0.0-102.0","task_version":"battery-v0.2-trt","session":2},{"rune":"M","rune_set":"bacs1","hex":"#3366ff99","correct":32,"choice":32,"rt":526.1900000041351,"accuracy":1,"outcome":"+10","keys":[2026.854999945499],"total_keys":1,"block":1,"trial":98,"stimulus":8,"robot":1,"valence":"win","action":"go","sham":0,"trial_type":"pit-trial","trial_index":129,"time_elapsed":505177,"internal_node_id":"0.0-103.0","task_version":"battery-v0.2-trt","session":2},{"rune":"H","rune_set":"bacs1","hex":"#f73b6a7A","correct":32,"choice":32,"rt":487.2700000414625,"accuracy":1,"outcome":"-1","keys":[1987.5349999638274],"total_keys":1,"block":1,"trial":99,"stimulus":10,"robot":3,"valence":"lose","action":"go","sham":0,"trial_type":"pit-trial","trial_index":130,"time_elapsed":508368,"internal_node_id":"0.0-104.0","task_version":"battery-v0.2-trt","session":2},{"rune":"P","rune_set":"bacs1","hex":"#3366ff99","correct":-1,"choice":-1,"rt":-1,"accuracy":1,"outcome":"+1","keys":[],"total_keys":0,"block":1,"trial":100,"stimulus":9,"robot":2,"valence":"win","action":"no-go","sham":1,"trial_type":"pit-trial","trial_index":131,"time_elapsed":512374,"internal_node_id":"0.0-105.0","task_version":"battery-v0.2-trt","session":2},{"rune":"Y","rune_set":"bacs1","hex":"#3366ff99","correct":-1,"choice":32,"rt":569.870000006631,"accuracy":0,"outcome":"+10","keys":[2070.2499999897555],"total_keys":1,"block":1,"trial":101,"stimulus":11,"robot":2,"valence":"win","action":"no-go","sham":1,"trial_type":"pit-trial","trial_index":132,"time_elapsed":515649,"internal_node_id":"0.0-106.0","task_version":"battery-v0.2-trt","session":2},{"rune":"P","rune_set":"bacs1","hex":"#3366ff99","correct":-1,"choice":-1,"rt":-1,"accuracy":1,"outcome":"+10","keys":[],"total_keys":0,"block":1,"trial":102,"stimulus":9,"robot":2,"valence":"win","action":"no-go","sham":0,"trial_type":"pit-trial","trial_index":133,"time_elapsed":519654,"internal_node_id":"0.0-107.0","task_version":"battery-v0.2-trt","session":2},{"rune":"H","rune_set":"bacs1","hex":"#f73b6a7A","correct":32,"choice":32,"rt":497.620000038296,"accuracy":1,"outcome":"-1","keys":[1998.6700000008568],"total_keys":1,"block":1,"trial":103,"stimulus":10,"robot":3,"valence":"lose","action":"go","sham":0,"trial_type":"pit-trial","trial_index":134,"time_elapsed":522857,"internal_node_id":"0.0-108.0","task_version":"battery-v0.2-trt","session":2},{"rune":"M","rune_set":"bacs1","hex":"#3366ff99","correct":32,"choice":32,"rt":527.3149999557063,"accuracy":1,"outcome":"+10","keys":[2028.0900000361726],"total_keys":1,"block":1,"trial":104,"stimulus":8,"robot":1,"valence":"win","action":"go","sham":0,"trial_type":"pit-trial","trial_index":135,"time_elapsed":526090,"internal_node_id":"0.0-109.0","task_version":"battery-v0.2-trt","session":2},{"rune":"H","rune_set":"bacs1","hex":"#f73b6a7A","correct":32,"choice":32,"rt":405.4550000000745,"accuracy":1,"outcome":"-1","keys":[1906.1699999729171],"total_keys":1,"block":1,"trial":105,"stimulus":10,"robot":3,"valence":"lose","action":"go","sham":0,"trial_type":"pit-trial","trial_index":136,"time_elapsed":529201,"internal_node_id":"0.0-110.0","task_version":"battery-v0.2-trt","session":2},{"rune":"M","rune_set":"bacs1","hex":"#3366ff99","correct":32,"choice":32,"rt":454.84499994199723,"accuracy":1,"outcome":"+1","keys":[1955.3050000686198],"total_keys":1,"block":1,"trial":106,"stimulus":8,"robot":1,"valence":"win","action":"go","sham":1,"trial_type":"pit-trial","trial_index":137,"time_elapsed":532361,"internal_node_id":"0.0-111.0","task_version":"battery-v0.2-trt","session":2},{"rune":"Y","rune_set":"bacs1","hex":"#3366ff99","correct":-1,"choice":32,"rt":511.1099999630824,"accuracy":0,"outcome":"+1","keys":[2011.4199999952689],"total_keys":1,"block":1,"trial":107,"stimulus":11,"robot":2,"valence":"win","action":"no-go","sham":0,"trial_type":"pit-trial","trial_index":138,"time_elapsed":535577,"internal_node_id":"0.0-112.0","task_version":"battery-v0.2-trt","session":2},{"rune":"P","rune_set":"bacs1","hex":"#3366ff99","correct":-1,"choice":-1,"rt":-1,"accuracy":1,"outcome":"+10","keys":[],"total_keys":0,"block":1,"trial":108,"stimulus":9,"robot":2,"valence":"win","action":"no-go","sham":0,"trial_type":"pit-trial","trial_index":139,"time_elapsed":539583,"internal_node_id":"0.0-113.0","task_version":"battery-v0.2-trt","session":2},{"rune":"H","rune_set":"bacs1","hex":"#f73b6a7A","correct":32,"choice":32,"rt":496.9949999358505,"accuracy":1,"outcome":"-1","keys":[1998.3299999730662],"total_keys":1,"block":1,"trial":109,"stimulus":10,"robot":3,"valence":"lose","action":"go","sham":0,"trial_type":"pit-trial","trial_index":140,"time_elapsed":542785,"internal_node_id":"0.0-114.0","task_version":"battery-v0.2-trt","session":2},{"rune":"M","rune_set":"bacs1","hex":"#3366ff99","correct":32,"choice":32,"rt":455.2200000034645,"accuracy":1,"outcome":"+10","keys":[1955.3549999836832],"total_keys":1,"block":1,"trial":110,"stimulus":8,"robot":1,"valence":"win","action":"go","sham":0,"trial_type":"pit-trial","trial_index":141,"time_elapsed":545945,"internal_node_id":"0.0-115.0","task_version":"battery-v0.2-trt","session":2},{"rune":"P","rune_set":"bacs1","hex":"#3366ff99","correct":-1,"choice":-1,"rt":-1,"accuracy":1,"outcome":"+10","keys":[],"total_keys":0,"block":1,"trial":111,"stimulus":9,"robot":2,"valence":"win","action":"no-go","sham":0,"trial_type":"pit-trial","trial_index":142,"time_elapsed":549958,"internal_node_id":"0.0-116.0","task_version":"battery-v0.2-trt","session":2},{"rune":"Y","rune_set":"bacs1","hex":"#3366ff99","correct":-1,"choice":32,"rt":338.1499999668449,"accuracy":0,"outcome":"+1","keys":[1838.3400000166148],"total_keys":1,"block":1,"trial":112,"stimulus":11,"robot":2,"valence":"win","action":"no-go","sham":0,"trial_type":"pit-trial","trial_index":143,"time_elapsed":553001,"internal_node_id":"0.0-117.0","task_version":"battery-v0.2-trt","session":2},{"rune":"H","rune_set":"bacs1","hex":"#f73b6a7A","correct":32,"choice":32,"rt":351.13999992609024,"accuracy":1,"outcome":"-10","keys":[1851.4649999560788],"total_keys":1,"block":1,"trial":113,"stimulus":10,"robot":3,"valence":"lose","action":"go","sham":1,"trial_type":"pit-trial","trial_index":144,"time_elapsed":556057,"internal_node_id":"0.0-118.0","task_version":"battery-v0.2-trt","session":2},{"rune":"Y","rune_set":"bacs1","hex":"#3366ff99","correct":-1,"choice":32,"rt":495.00500003341585,"accuracy":0,"outcome":"+10","keys":[1995.409999974072],"total_keys":1,"block":1,"trial":114,"stimulus":11,"robot":2,"valence":"win","action":"no-go","sham":1,"trial_type":"pit-trial","trial_index":145,"time_elapsed":559257,"internal_node_id":"0.0-119.0","task_version":"battery-v0.2-trt","session":2},{"rune":"P","rune_set":"bacs1","hex":"#3366ff99","correct":-1,"choice":-1,"rt":-1,"accuracy":1,"outcome":"+10","keys":[],"total_keys":0,"block":1,"trial":115,"stimulus":9,"robot":2,"valence":"win","action":"no-go","sham":0,"trial_type":"pit-trial","trial_index":146,"time_elapsed":563263,"internal_node_id":"0.0-120.0","task_version":"battery-v0.2-trt","session":2},{"rune":"M","rune_set":"bacs1","hex":"#3366ff99","correct":32,"choice":32,"rt":600.5550000118092,"accuracy":1,"outcome":"+1","keys":[2101.6100000124425],"total_keys":1,"block":1,"trial":116,"stimulus":8,"robot":1,"valence":"win","action":"go","sham":1,"trial_type":"pit-trial","trial_index":147,"time_elapsed":566570,"internal_node_id":"0.0-121.0","task_version":"battery-v0.2-trt","session":2},{"rune":"M","rune_set":"bacs1","hex":"#3366ff99","correct":32,"choice":32,"rt":517.7549999207258,"accuracy":1,"outcome":"+10","keys":[2018.489999929443],"total_keys":1,"block":1,"trial":117,"stimulus":8,"robot":1,"valence":"win","action":"go","sham":0,"trial_type":"pit-trial","trial_index":148,"time_elapsed":569793,"internal_node_id":"0.0-122.0","task_version":"battery-v0.2-trt","session":2},{"rune":"Y","rune_set":"bacs1","hex":"#3366ff99","correct":-1,"choice":32,"rt":503.13500000629574,"accuracy":0,"outcome":"+1","keys":[2004.2550000362098],"total_keys":1,"block":1,"trial":118,"stimulus":11,"robot":2,"valence":"win","action":"no-go","sham":0,"trial_type":"pit-trial","trial_index":149,"time_elapsed":573002,"internal_node_id":"0.0-123.0","task_version":"battery-v0.2-trt","session":2},{"rune":"H","rune_set":"bacs1","hex":"#f73b6a7A","correct":32,"choice":32,"rt":494.90499997045845,"accuracy":1,"outcome":"-1","keys":[1995.5299999564886],"total_keys":1,"block":1,"trial":119,"stimulus":10,"robot":3,"valence":"lose","action":"go","sham":0,"trial_type":"pit-trial","trial_index":150,"time_elapsed":576201,"internal_node_id":"0.0-124.0","task_version":"battery-v0.2-trt","session":2},{"rune":"P","rune_set":"bacs1","hex":"#3366ff99","correct":-1,"choice":-1,"rt":-1,"accuracy":1,"outcome":"+10","keys":[],"total_keys":0,"block":1,"trial":120,"stimulus":9,"robot":2,"valence":"win","action":"no-go","sham":0,"trial_type":"pit-trial","trial_index":151,"time_elapsed":580206,"internal_node_id":"0.0-125.0","task_version":"battery-v0.2-trt","session":2},{"view_history":"[{\"page_index\":0,\"viewing_time\":15372.280000010505},{\"page_index\":1,\"viewing_time\":879.4700000435114}]","rt":16252.240000059828,"trial_type":"pit-instructions","trial_index":152,"time_elapsed":596460,"internal_node_id":"0.0-126.0","task_version":"battery-v0.2-trt","session":2},{"rune":"C","rune_set":"bacs1","hex":"#f73b6a7A","correct":-1,"choice":32,"rt":91.34000004269183,"accuracy":0,"outcome":"-10","keys":[1591.8250000104308,2079.3850000482053],"total_keys":2,"block":2,"trial":121,"stimulus":2,"robot":4,"valence":"lose","action":"no-go","sham":0,"trial_type":"pit-trial","trial_index":153,"time_elapsed":599256,"internal_node_id":"0.0-127.0","task_version":"battery-v0.2-trt","session":2},{"rune":"L","rune_set":"bacs1","hex":"#f73b6a7A","correct":32,"choice":32,"rt":864.4550000317395,"accuracy":1,"outcome":"-1","keys":[2364.575000014156],"total_keys":1,"block":2,"trial":122,"stimulus":1,"robot":3,"valence":"lose","action":"go","sham":0,"trial_type":"pit-trial","trial_index":154,"time_elapsed":602826,"internal_node_id":"0.0-128.0","task_version":"battery-v0.2-trt","session":2},{"rune":"Q","rune_set":"bacs1","hex":"#3366ff99","correct":32,"choice":32,"rt":486.4000000525266,"accuracy":1,"outcome":"+10","keys":[1986.5550000686198],"total_keys":1,"block":2,"trial":123,"stimulus":0,"robot":1,"valence":"win","action":"go","sham":0,"trial_type":"pit-trial","trial_index":155,"time_elapsed":606017,"internal_node_id":"0.0-129.0","task_version":"battery-v0.2-trt","session":2},{"rune":"A","rune_set":"bacs1","hex":"#3366ff99","correct":-1,"choice":32,"rt":662.9550000652671,"accuracy":0,"outcome":"+1","keys":[2163.2100000279024],"total_keys":1,"block":2,"trial":124,"stimulus":3,"robot":2,"valence":"win","action":"no-go","sham":0,"trial_type":"pit-trial","trial_index":156,"time_elapsed":609385,"internal_node_id":"0.0-130.0","task_version":"battery-v0.2-trt","session":2},{"rune":"A","rune_set":"bacs1","hex":"#3366ff99","correct":-1,"choice":-1,"rt":-1,"accuracy":1,"outcome":"+1","keys":[],"total_keys":0,"block":2,"trial":125,"stimulus":3,"robot":2,"valence":"win","action":"no-go","sham":1,"trial_type":"pit-trial","trial_index":157,"time_elapsed":613390,"internal_node_id":"0.0-131.0","task_version":"battery-v0.2-trt","session":2},{"rune":"C","rune_set":"bacs1","hex":"#f73b6a7A","correct":-1,"choice":-1,"rt":-1,"accuracy":1,"outcome":"-1","keys":[],"total_keys":0,"block":2,"trial":126,"stimulus":2,"robot":4,"valence":"lose","action":"no-go","sham":0,"trial_type":"pit-trial","trial_index":158,"time_elapsed":617396,"internal_node_id":"0.0-132.0","task_version":"battery-v0.2-trt","session":2},{"rune":"Q","rune_set":"bacs1","hex":"#3366ff99","correct":32,"choice":-1,"rt":-1,"accuracy":0,"outcome":"+1","keys":[],"total_keys":0,"block":2,"trial":127,"stimulus":0,"robot":1,"valence":"win","action":"go","sham":0,"trial_type":"pit-trial","trial_index":159,"time_elapsed":621402,"internal_node_id":"0.0-133.0","task_version":"battery-v0.2-trt","session":2},{"rune":"L","rune_set":"bacs1","hex":"#f73b6a7A","correct":32,"choice":32,"rt":678.9499999722466,"accuracy":1,"outcome":"-10","keys":[2178.9750000461936],"total_keys":1,"block":2,"trial":128,"stimulus":1,"robot":3,"valence":"lose","action":"go","sham":1,"trial_type":"pit-trial","trial_index":160,"time_elapsed":624785,"internal_node_id":"0.0-134.0","task_version":"battery-v0.2-trt","session":2},{"rune":"L","rune_set":"bacs1","hex":"#f73b6a7A","correct":32,"choice":-1,"rt":-1,"accuracy":0,"outcome":"-1","keys":[],"total_keys":0,"block":2,"trial":129,"stimulus":1,"robot":3,"valence":"lose","action":"go","sham":1,"trial_type":"pit-trial","trial_index":161,"time_elapsed":628791,"internal_node_id":"0.0-135.0","task_version":"battery-v0.2-trt","session":2},{"rune":"C","rune_set":"bacs1","hex":"#f73b6a7A","correct":-1,"choice":-1,"rt":-1,"accuracy":1,"outcome":"-1","keys":[],"total_keys":0,"block":2,"trial":130,"stimulus":2,"robot":4,"valence":"lose","action":"no-go","sham":0,"trial_type":"pit-trial","trial_index":162,"time_elapsed":632796,"internal_node_id":"0.0-136.0","task_version":"battery-v0.2-trt","session":2},{"rune":"Q","rune_set":"bacs1","hex":"#3366ff99","correct":32,"choice":32,"rt":596.324999933131,"accuracy":1,"outcome":"+10","keys":[2097.3249999806285],"total_keys":1,"block":2,"trial":131,"stimulus":0,"robot":1,"valence":"win","action":"go","sham":0,"trial_type":"pit-trial","trial_index":163,"time_elapsed":636097,"internal_node_id":"0.0-137.0","task_version":"battery-v0.2-trt","session":2},{"rune":"A","rune_set":"bacs1","hex":"#3366ff99","correct":-1,"choice":32,"rt":423.6350000137463,"accuracy":0,"outcome":"+1","keys":[1924.1150000598282],"total_keys":1,"block":2,"trial":132,"stimulus":3,"robot":2,"valence":"win","action":"no-go","sham":0,"trial_type":"pit-trial","trial_index":164,"time_elapsed":639226,"internal_node_id":"0.0-138.0","task_version":"battery-v0.2-trt","session":2},{"rune":"Q","rune_set":"bacs1","hex":"#3366ff99","correct":32,"choice":32,"rt":398.5450000036508,"accuracy":1,"outcome":"+10","keys":[1899.0700000431389],"total_keys":1,"block":2,"trial":133,"stimulus":0,"robot":1,"valence":"win","action":"go","sham":0,"trial_type":"pit-trial","trial_index":165,"time_elapsed":642329,"internal_node_id":"0.0-139.0","task_version":"battery-v0.2-trt","session":2},{"rune":"A","rune_set":"bacs1","hex":"#3366ff99","correct":-1,"choice":-1,"rt":-1,"accuracy":1,"outcome":"+10","keys":[],"total_keys":0,"block":2,"trial":134,"stimulus":3,"robot":2,"valence":"win","action":"no-go","sham":0,"trial_type":"pit-trial","trial_index":166,"time_elapsed":646336,"internal_node_id":"0.0-140.0","task_version":"battery-v0.2-trt","session":2},{"rune":"L","rune_set":"bacs1","hex":"#f73b6a7A","correct":32,"choice":-1,"rt":-1,"accuracy":0,"outcome":"-10","keys":[],"total_keys":0,"block":2,"trial":135,"stimulus":1,"robot":3,"valence":"lose","action":"go","sham":0,"trial_type":"pit-trial","trial_index":167,"time_elapsed":650342,"internal_node_id":"0.0-141.0","task_version":"battery-v0.2-trt","session":2},{"rune":"C","rune_set":"bacs1","hex":"#f73b6a7A","correct":-1,"choice":-1,"rt":-1,"accuracy":1,"outcome":"-1","keys":[],"total_keys":0,"block":2,"trial":136,"stimulus":2,"robot":4,"valence":"lose","action":"no-go","sham":0,"trial_type":"pit-trial","trial_index":168,"time_elapsed":654348,"internal_node_id":"0.0-142.0","task_version":"battery-v0.2-trt","session":2},{"rune":"Q","rune_set":"bacs1","hex":"#3366ff99","correct":32,"choice":32,"rt":1210.0249999202788,"accuracy":1,"outcome":"+10","keys":[2711.5750000812113],"total_keys":1,"block":2,"trial":137,"stimulus":0,"robot":1,"valence":"win","action":"go","sham":0,"trial_type":"pit-trial","trial_index":169,"time_elapsed":658263,"internal_node_id":"0.0-143.0","task_version":"battery-v0.2-trt","session":2},{"rune":"L","rune_set":"bacs1","hex":"#f73b6a7A","correct":32,"choice":32,"rt":481.41499992925674,"accuracy":1,"outcome":"-1","keys":[1981.9900000002235],"total_keys":1,"block":2,"trial":138,"stimulus":1,"robot":3,"valence":"lose","action":"go","sham":0,"trial_type":"pit-trial","trial_index":170,"time_elapsed":661450,"internal_node_id":"0.0-144.0","task_version":"battery-v0.2-trt","session":2},{"rune":"C","rune_set":"bacs1","hex":"#f73b6a7A","correct":-1,"choice":-1,"rt":-1,"accuracy":1,"outcome":"-1","keys":[],"total_keys":0,"block":2,"trial":139,"stimulus":2,"robot":4,"valence":"lose","action":"no-go","sham":0,"trial_type":"pit-trial","trial_index":171,"time_elapsed":665454,"internal_node_id":"0.0-145.0","task_version":"battery-v0.2-trt","session":2},{"rune":"A","rune_set":"bacs1","hex":"#3366ff99","correct":-1,"choice":-1,"rt":-1,"accuracy":1,"outcome":"+10","keys":[],"total_keys":0,"block":2,"trial":140,"stimulus":3,"robot":2,"valence":"win","action":"no-go","sham":0,"trial_type":"pit-trial","trial_index":172,"time_elapsed":669472,"internal_node_id":"0.0-146.0","task_version":"battery-v0.2-trt","session":2},{"rune":"Q","rune_set":"bacs1","hex":"#3366ff99","correct":32,"choice":32,"rt":568.7499999767169,"accuracy":1,"outcome":"+10","keys":[2069.5299999788404],"total_keys":1,"block":2,"trial":141,"stimulus":0,"robot":1,"valence":"win","action":"go","sham":0,"trial_type":"pit-trial","trial_index":173,"time_elapsed":672746,"internal_node_id":"0.0-147.0","task_version":"battery-v0.2-trt","session":2},{"rune":"A","rune_set":"bacs1","hex":"#3366ff99","correct":-1,"choice":-1,"rt":-1,"accuracy":1,"outcome":"+10","keys":[],"total_keys":0,"block":2,"trial":142,"stimulus":3,"robot":2,"valence":"win","action":"no-go","sham":0,"trial_type":"pit-trial","trial_index":174,"time_elapsed":676750,"internal_node_id":"0.0-148.0","task_version":"battery-v0.2-trt","session":2},{"rune":"C","rune_set":"bacs1","hex":"#f73b6a7A","correct":-1,"choice":-1,"rt":-1,"accuracy":1,"outcome":"-1","keys":[],"total_keys":0,"block":2,"trial":143,"stimulus":2,"robot":4,"valence":"lose","action":"no-go","sham":0,"trial_type":"pit-trial","trial_index":175,"time_elapsed":680756,"internal_node_id":"0.0-149.0","task_version":"battery-v0.2-trt","session":2},{"rune":"L","rune_set":"bacs1","hex":"#f73b6a7A","correct":32,"choice":32,"rt":388.24999995995313,"accuracy":1,"outcome":"-1","keys":[1889.5999999949709],"total_keys":1,"block":2,"trial":144,"stimulus":1,"robot":3,"valence":"lose","action":"go","sham":0,"trial_type":"pit-trial","trial_index":176,"time_elapsed":683849,"internal_node_id":"0.0-150.0","task_version":"battery-v0.2-trt","session":2},{"rune":"C","rune_set":"bacs1","hex":"#f73b6a7A","correct":-1,"choice":-1,"rt":-1,"accuracy":1,"outcome":"-1","keys":[],"total_keys":0,"block":2,"trial":145,"stimulus":2,"robot":4,"valence":"lose","action":"no-go","sham":0,"trial_type":"pit-trial","trial_index":177,"time_elapsed":687855,"internal_node_id":"0.0-151.0","task_version":"battery-v0.2-trt","session":2},{"rune":"Q","rune_set":"bacs1","hex":"#3366ff99","correct":32,"choice":32,"rt":481.21500003617257,"accuracy":1,"outcome":"+1","keys":[1981.9500000448897],"total_keys":1,"block":2,"trial":146,"stimulus":0,"robot":1,"valence":"win","action":"go","sham":1,"trial_type":"pit-trial","trial_index":178,"time_elapsed":691041,"internal_node_id":"0.0-152.0","task_version":"battery-v0.2-trt","session":2},{"rune":"A","rune_set":"bacs1","hex":"#3366ff99","correct":-1,"choice":32,"rt":399.22999998088926,"accuracy":0,"outcome":"+1","keys":[1900.2049999544397],"total_keys":1,"block":2,"trial":147,"stimulus":3,"robot":2,"valence":"win","action":"no-go","sham":0,"trial_type":"pit-trial","trial_index":179,"time_elapsed":694146,"internal_node_id":"0.0-153.0","task_version":"battery-v0.2-trt","session":2},{"rune":"L","rune_set":"bacs1","hex":"#f73b6a7A","correct":32,"choice":32,"rt":598.7100000493228,"accuracy":1,"outcome":"-1","keys":[2098.809999995865],"total_keys":1,"block":2,"trial":148,"stimulus":1,"robot":3,"valence":"lose","action":"go","sham":0,"trial_type":"pit-trial","trial_index":180,"time_elapsed":697449,"internal_node_id":"0.0-154.0","task_version":"battery-v0.2-trt","session":2},{"rune":"C","rune_set":"bacs1","hex":"#f73b6a7A","correct":-1,"choice":-1,"rt":-1,"accuracy":1,"outcome":"-1","keys":[],"total_keys":0,"block":2,"trial":149,"stimulus":2,"robot":4,"valence":"lose","action":"no-go","sham":0,"trial_type":"pit-trial","trial_index":181,"time_elapsed":701453,"internal_node_id":"0.0-155.0","task_version":"battery-v0.2-trt","session":2},{"rune":"Q","rune_set":"bacs1","hex":"#3366ff99","correct":32,"choice":32,"rt":393.0199999595061,"accuracy":1,"outcome":"+10","keys":[1893.5399999609217],"total_keys":1,"block":2,"trial":150,"stimulus":0,"robot":1,"valence":"win","action":"go","sham":0,"trial_type":"pit-trial","trial_index":182,"time_elapsed":704553,"internal_node_id":"0.0-156.0","task_version":"battery-v0.2-trt","session":2},{"rune":"L","rune_set":"bacs1","hex":"#f73b6a7A","correct":32,"choice":32,"rt":957.145000109449,"accuracy":1,"outcome":"-1","keys":[2459.029999910854],"total_keys":1,"block":2,"trial":151,"stimulus":1,"robot":3,"valence":"lose","action":"go","sham":0,"trial_type":"pit-trial","trial_index":183,"time_elapsed":708217,"internal_node_id":"0.0-157.0","task_version":"battery-v0.2-trt","session":2},{"rune":"A","rune_set":"bacs1","hex":"#3366ff99","correct":-1,"choice":-1,"rt":-1,"accuracy":1,"outcome":"+1","keys":[],"total_keys":0,"block":2,"trial":152,"stimulus":3,"robot":2,"valence":"win","action":"no-go","sham":1,"trial_type":"pit-trial","trial_index":184,"time_elapsed":712222,"internal_node_id":"0.0-158.0","task_version":"battery-v0.2-trt","session":2},{"rune":"A","rune_set":"bacs1","hex":"#3366ff99","correct":-1,"choice":-1,"rt":-1,"accuracy":1,"outcome":"+10","keys":[],"total_keys":0,"block":2,"trial":153,"stimulus":3,"robot":2,"valence":"win","action":"no-go","sham":0,"trial_type":"pit-trial","trial_index":185,"time_elapsed":716227,"internal_node_id":"0.0-159.0","task_version":"battery-v0.2-trt","session":2},{"rune":"F","rune_set":"bacs1","hex":"#f73b6a7A","correct":-1,"choice":32,"rt":813.39999998454,"accuracy":0,"outcome":"-10","keys":[2313.67499998305],"total_keys":1,"block":2,"trial":154,"stimulus":4,"robot":4,"valence":"lose","action":"no-go","sham":0,"trial_type":"pit-trial","trial_index":186,"time_elapsed":719746,"internal_node_id":"0.0-160.0","task_version":"battery-v0.2-trt","session":2},{"rune":"L","rune_set":"bacs1","hex":"#f73b6a7A","correct":32,"choice":32,"rt":950.124999973923,"accuracy":1,"outcome":"-1","keys":[2450.5850001005456],"total_keys":1,"block":2,"trial":155,"stimulus":1,"robot":3,"valence":"lose","action":"go","sham":0,"trial_type":"pit-trial","trial_index":187,"time_elapsed":723401,"internal_node_id":"0.0-161.0","task_version":"battery-v0.2-trt","session":2},{"rune":"Q","rune_set":"bacs1","hex":"#3366ff99","correct":32,"choice":32,"rt":398.2550000073388,"accuracy":1,"outcome":"+10","keys":[1900.080000050366],"total_keys":1,"block":2,"trial":156,"stimulus":0,"robot":1,"valence":"win","action":"go","sham":0,"trial_type":"pit-trial","trial_index":188,"time_elapsed":726505,"internal_node_id":"0.0-162.0","task_version":"battery-v0.2-trt","session":2},{"rune":"A","rune_set":"bacs1","hex":"#3366ff99","correct":-1,"choice":-1,"rt":-1,"accuracy":1,"outcome":"+10","keys":[],"total_keys":0,"block":2,"trial":157,"stimulus":3,"robot":2,"valence":"win","action":"no-go","sham":0,"trial_type":"pit-trial","trial_index":189,"time_elapsed":730510,"internal_node_id":"0.0-163.0","task_version":"battery-v0.2-trt","session":2},{"rune":"L","rune_set":"bacs1","hex":"#f73b6a7A","correct":32,"choice":32,"rt":674.3899999419227,"accuracy":1,"outcome":"-1","keys":[2174.7849999228492],"total_keys":1,"block":2,"trial":158,"stimulus":1,"robot":3,"valence":"lose","action":"go","sham":0,"trial_type":"pit-trial","trial_index":190,"time_elapsed":733889,"internal_node_id":"0.0-164.0","task_version":"battery-v0.2-trt","session":2},{"rune":"F","rune_set":"bacs1","hex":"#f73b6a7A","correct":-1,"choice":-1,"rt":-1,"accuracy":1,"outcome":"-10","keys":[],"total_keys":0,"block":2,"trial":159,"stimulus":4,"robot":4,"valence":"lose","action":"no-go","sham":1,"trial_type":"pit-trial","trial_index":191,"time_elapsed":737895,"internal_node_id":"0.0-165.0","task_version":"battery-v0.2-trt","session":2},{"rune":"Q","rune_set":"bacs1","hex":"#3366ff99","correct":32,"choice":32,"rt":321.60500006284565,"accuracy":1,"outcome":"+1","keys":[1821.9149999786168],"total_keys":1,"block":2,"trial":160,"stimulus":0,"robot":1,"valence":"win","action":"go","sham":1,"trial_type":"pit-trial","trial_index":192,"time_elapsed":740921,"internal_node_id":"0.0-166.0","task_version":"battery-v0.2-trt","session":2},{"rune":"F","rune_set":"bacs1","hex":"#f73b6a7A","correct":-1,"choice":32,"rt":504.1450000135228,"accuracy":0,"outcome":"-10","keys":[2004.2699999175966],"total_keys":1,"block":2,"trial":161,"stimulus":4,"robot":4,"valence":"lose","action":"no-go","sham":0,"trial_type":"pit-trial","trial_index":193,"time_elapsed":744129,"internal_node_id":"0.0-167.0","task_version":"battery-v0.2-trt","session":2},{"rune":"T","rune_set":"bacs1","hex":"#f73b6a7A","correct":32,"choice":32,"rt":686.6649999283254,"accuracy":1,"outcome":"-1","keys":[2187.139999936335],"total_keys":1,"block":2,"trial":162,"stimulus":5,"robot":3,"valence":"lose","action":"go","sham":0,"trial_type":"pit-trial","trial_index":194,"time_elapsed":747535,"internal_node_id":"0.0-168.0","task_version":"battery-v0.2-trt","session":2},{"rune":"A","rune_set":"bacs1","hex":"#3366ff99","correct":-1,"choice":32,"rt":768.9849999733269,"accuracy":0,"outcome":"+1","keys":[2269.6250000735745],"total_keys":1,"block":2,"trial":163,"stimulus":3,"robot":2,"valence":"win","action":"no-go","sham":0,"trial_type":"pit-trial","trial_index":195,"time_elapsed":751009,"internal_node_id":"0.0-169.0","task_version":"battery-v0.2-trt","session":2},{"rune":"Q","rune_set":"bacs1","hex":"#3366ff99","correct":32,"choice":32,"rt":399.585000006482,"accuracy":1,"outcome":"+10","keys":[1900.080000050366],"total_keys":1,"block":2,"trial":164,"stimulus":0,"robot":1,"valence":"win","action":"go","sham":0,"trial_type":"pit-trial","trial_index":196,"time_elapsed":754114,"internal_node_id":"0.0-170.0","task_version":"battery-v0.2-trt","session":2},{"rune":"F","rune_set":"bacs1","hex":"#f73b6a7A","correct":-1,"choice":-1,"rt":-1,"accuracy":1,"outcome":"-1","keys":[],"total_keys":0,"block":2,"trial":165,"stimulus":4,"robot":4,"valence":"lose","action":"no-go","sham":0,"trial_type":"pit-trial","trial_index":197,"time_elapsed":758133,"internal_node_id":"0.0-171.0","task_version":"battery-v0.2-trt","session":2},{"rune":"A","rune_set":"bacs1","hex":"#3366ff99","correct":-1,"choice":-1,"rt":-1,"accuracy":1,"outcome":"+10","keys":[],"total_keys":0,"block":2,"trial":166,"stimulus":3,"robot":2,"valence":"win","action":"no-go","sham":0,"trial_type":"pit-trial","trial_index":198,"time_elapsed":762139,"internal_node_id":"0.0-172.0","task_version":"battery-v0.2-trt","session":2},{"rune":"Q","rune_set":"bacs1","hex":"#3366ff99","correct":32,"choice":32,"rt":637.6900000032037,"accuracy":1,"outcome":"+10","keys":[2138.3900000946596],"total_keys":1,"block":2,"trial":167,"stimulus":0,"robot":1,"valence":"win","action":"go","sham":0,"trial_type":"pit-trial","trial_index":199,"time_elapsed":765481,"internal_node_id":"0.0-173.0","task_version":"battery-v0.2-trt","session":2},{"rune":"T","rune_set":"bacs1","hex":"#f73b6a7A","correct":32,"choice":32,"rt":294.9999999254942,"accuracy":1,"outcome":"-1","keys":[1795.5800000345334],"total_keys":1,"block":2,"trial":168,"stimulus":5,"robot":3,"valence":"lose","action":"go","sham":0,"trial_type":"pit-trial","trial_index":200,"time_elapsed":768481,"internal_node_id":"0.0-174.0","task_version":"battery-v0.2-trt","session":2},{"rune":"F","rune_set":"bacs1","hex":"#f73b6a7A","correct":-1,"choice":-1,"rt":-1,"accuracy":1,"outcome":"-1","keys":[],"total_keys":0,"block":2,"trial":169,"stimulus":4,"robot":4,"valence":"lose","action":"no-go","sham":0,"trial_type":"pit-trial","trial_index":201,"time_elapsed":772486,"internal_node_id":"0.0-175.0","task_version":"battery-v0.2-trt","session":2},{"rune":"V","rune_set":"bacs1","hex":"#3366ff99","correct":-1,"choice":32,"rt":666.6399999521673,"accuracy":0,"outcome":"+1","keys":[2167.399999918416],"total_keys":1,"block":2,"trial":170,"stimulus":7,"robot":2,"valence":"win","action":"no-go","sham":0,"trial_type":"pit-trial","trial_index":202,"time_elapsed":775858,"internal_node_id":"0.0-176.0","task_version":"battery-v0.2-trt","session":2},{"rune":"T","rune_set":"bacs1","hex":"#f73b6a7A","correct":32,"choice":32,"rt":662.7699999371544,"accuracy":1,"outcome":"-10","keys":[2163.0749999312684],"total_keys":1,"block":2,"trial":171,"stimulus":5,"robot":3,"valence":"lose","action":"go","sham":1,"trial_type":"pit-trial","trial_index":203,"time_elapsed":779225,"internal_node_id":"0.0-177.0","task_version":"battery-v0.2-trt","session":2},{"rune":"E","rune_set":"bacs1","hex":"#3366ff99","correct":-1,"choice":32,"rt":799.6900000143796,"accuracy":0,"outcome":"+1","keys":[2299.7599999653175],"total_keys":1,"block":2,"trial":172,"stimulus":6,"robot":2,"valence":"win","action":"no-go","sham":0,"trial_type":"pit-trial","trial_index":204,"time_elapsed":782729,"internal_node_id":"0.0-178.0","task_version":"battery-v0.2-trt","session":2},{"rune":"E","rune_set":"bacs1","hex":"#3366ff99","correct":-1,"choice":32,"rt":671.4899999788031,"accuracy":0,"outcome":"+1","keys":[2171.734999981709],"total_keys":1,"block":2,"trial":173,"stimulus":6,"robot":2,"valence":"win","action":"no-go","sham":0,"trial_type":"pit-trial","trial_index":205,"time_elapsed":786105,"internal_node_id":"0.0-179.0","task_version":"battery-v0.2-trt","session":2},{"rune":"V","rune_set":"bacs1","hex":"#3366ff99","correct":-1,"choice":32,"rt":631.7350000608712,"accuracy":0,"outcome":"+1","keys":[2132.465000031516],"total_keys":1,"block":2,"trial":174,"stimulus":7,"robot":2,"valence":"win","action":"no-go","sham":0,"trial_type":"pit-trial","trial_index":206,"time_elapsed":789441,"internal_node_id":"0.0-180.0","task_version":"battery-v0.2-trt","session":2},{"rune":"T","rune_set":"bacs1","hex":"#f73b6a7A","correct":32,"choice":32,"rt":583.00500002224,"accuracy":1,"outcome":"-10","keys":[2084.419999970123],"total_keys":1,"block":2,"trial":175,"stimulus":5,"robot":3,"valence":"lose","action":"go","sham":1,"trial_type":"pit-trial","trial_index":207,"time_elapsed":792728,"internal_node_id":"0.0-181.0","task_version":"battery-v0.2-trt","session":2},{"rune":"F","rune_set":"bacs1","hex":"#f73b6a7A","correct":-1,"choice":-1,"rt":-1,"accuracy":1,"outcome":"-1","keys":[],"total_keys":0,"block":2,"trial":176,"stimulus":4,"robot":4,"valence":"lose","action":"no-go","sham":0,"trial_type":"pit-trial","trial_index":208,"time_elapsed":796735,"internal_node_id":"0.0-182.0","task_version":"battery-v0.2-trt","session":2},{"rune":"F","rune_set":"bacs1","hex":"#f73b6a7A","correct":-1,"choice":-1,"rt":-1,"accuracy":1,"outcome":"-1","keys":[],"total_keys":0,"block":2,"trial":177,"stimulus":4,"robot":4,"valence":"lose","action":"no-go","sham":0,"trial_type":"pit-trial","trial_index":209,"time_elapsed":800741,"internal_node_id":"0.0-183.0","task_version":"battery-v0.2-trt","session":2},{"rune":"T","rune_set":"bacs1","hex":"#f73b6a7A","correct":32,"choice":32,"rt":531.9599999347702,"accuracy":1,"outcome":"-1","keys":[2032.5799999991432],"total_keys":1,"block":2,"trial":178,"stimulus":5,"robot":3,"valence":"lose","action":"go","sham":0,"trial_type":"pit-trial","trial_index":210,"time_elapsed":803977,"internal_node_id":"0.0-184.0","task_version":"battery-v0.2-trt","session":2},{"rune":"V","rune_set":"bacs1","hex":"#3366ff99","correct":-1,"choice":-1,"rt":-1,"accuracy":1,"outcome":"+10","keys":[],"total_keys":0,"block":2,"trial":179,"stimulus":7,"robot":2,"valence":"win","action":"no-go","sham":0,"trial_type":"pit-trial","trial_index":211,"time_elapsed":807983,"internal_node_id":"0.0-185.0","task_version":"battery-v0.2-trt","session":2},{"rune":"E","rune_set":"bacs1","hex":"#3366ff99","correct":-1,"choice":-1,"rt":-1,"accuracy":1,"outcome":"+1","keys":[],"total_keys":0,"block":2,"trial":180,"stimulus":6,"robot":2,"valence":"win","action":"no-go","sham":1,"trial_type":"pit-trial","trial_index":212,"time_elapsed":811987,"internal_node_id":"0.0-186.0","task_version":"battery-v0.2-trt","session":2},{"rune":"F","rune_set":"bacs1","hex":"#f73b6a7A","correct":-1,"choice":-1,"rt":-1,"accuracy":1,"outcome":"-1","keys":[],"total_keys":0,"block":2,"trial":181,"stimulus":4,"robot":4,"valence":"lose","action":"no-go","sham":0,"trial_type":"pit-trial","trial_index":213,"time_elapsed":815992,"internal_node_id":"0.0-187.0","task_version":"battery-v0.2-trt","session":2},{"rune":"T","rune_set":"bacs1","hex":"#f73b6a7A","correct":32,"choice":32,"rt":384.8800000268966,"accuracy":1,"outcome":"-1","keys":[1885.0100000854582],"total_keys":1,"block":2,"trial":182,"stimulus":5,"robot":3,"valence":"lose","action":"go","sham":0,"trial_type":"pit-trial","trial_index":214,"time_elapsed":819081,"internal_node_id":"0.0-188.0","task_version":"battery-v0.2-trt","session":2},{"rune":"E","rune_set":"bacs1","hex":"#3366ff99","correct":-1,"choice":32,"rt":472.89000009186566,"accuracy":0,"outcome":"+1","keys":[1973.1500000925735],"total_keys":1,"block":2,"trial":183,"stimulus":6,"robot":2,"valence":"win","action":"no-go","sham":0,"trial_type":"pit-trial","trial_index":215,"time_elapsed":822257,"internal_node_id":"0.0-189.0","task_version":"battery-v0.2-trt","session":2},{"rune":"V","rune_set":"bacs1","hex":"#3366ff99","correct":-1,"choice":-1,"rt":-1,"accuracy":1,"outcome":"+10","keys":[],"total_keys":0,"block":2,"trial":184,"stimulus":7,"robot":2,"valence":"win","action":"no-go","sham":0,"trial_type":"pit-trial","trial_index":216,"time_elapsed":826263,"internal_node_id":"0.0-190.0","task_version":"battery-v0.2-trt","session":2},{"rune":"V","rune_set":"bacs1","hex":"#3366ff99","correct":-1,"choice":-1,"rt":-1,"accuracy":1,"outcome":"+10","keys":[],"total_keys":0,"block":2,"trial":185,"stimulus":7,"robot":2,"valence":"win","action":"no-go","sham":0,"trial_type":"pit-trial","trial_index":217,"time_elapsed":830268,"internal_node_id":"0.0-191.0","task_version":"battery-v0.2-trt","session":2},{"rune":"E","rune_set":"bacs1","hex":"#3366ff99","correct":-1,"choice":32,"rt":532.355000032112,"accuracy":0,"outcome":"+1","keys":[2032.854999997653],"total_keys":1,"block":2,"trial":186,"stimulus":6,"robot":2,"valence":"win","action":"no-go","sham":0,"trial_type":"pit-trial","trial_index":218,"time_elapsed":833505,"internal_node_id":"0.0-192.0","task_version":"battery-v0.2-trt","session":2},{"rune":"T","rune_set":"bacs1","hex":"#f73b6a7A","correct":32,"choice":32,"rt":310.8650000067428,"accuracy":1,"outcome":"-1","keys":[1811.8300000205636],"total_keys":1,"block":2,"trial":187,"stimulus":5,"robot":3,"valence":"lose","action":"go","sham":0,"trial_type":"pit-trial","trial_index":219,"time_elapsed":836522,"internal_node_id":"0.0-193.0","task_version":"battery-v0.2-trt","session":2},{"rune":"F","rune_set":"bacs1","hex":"#f73b6a7A","correct":-1,"choice":-1,"rt":-1,"accuracy":1,"outcome":"-1","keys":[],"total_keys":0,"block":2,"trial":188,"stimulus":4,"robot":4,"valence":"lose","action":"no-go","sham":0,"trial_type":"pit-trial","trial_index":220,"time_elapsed":840528,"internal_node_id":"0.0-194.0","task_version":"battery-v0.2-trt","session":2},{"rune":"F","rune_set":"bacs1","hex":"#f73b6a7A","correct":-1,"choice":-1,"rt":-1,"accuracy":1,"outcome":"-1","keys":[],"total_keys":0,"block":2,"trial":189,"stimulus":4,"robot":4,"valence":"lose","action":"no-go","sham":0,"trial_type":"pit-trial","trial_index":221,"time_elapsed":844548,"internal_node_id":"0.0-195.0","task_version":"battery-v0.2-trt","session":2},{"rune":"E","rune_set":"bacs1","hex":"#3366ff99","correct":-1,"choice":-1,"rt":-1,"accuracy":1,"outcome":"+1","keys":[],"total_keys":0,"block":2,"trial":190,"stimulus":6,"robot":2,"valence":"win","action":"no-go","sham":1,"trial_type":"pit-trial","trial_index":222,"time_elapsed":848554,"internal_node_id":"0.0-196.0","task_version":"battery-v0.2-trt","session":2},{"rune":"V","rune_set":"bacs1","hex":"#3366ff99","correct":-1,"choice":-1,"rt":-1,"accuracy":1,"outcome":"+10","keys":[],"total_keys":0,"block":2,"trial":191,"stimulus":7,"robot":2,"valence":"win","action":"no-go","sham":0,"trial_type":"pit-trial","trial_index":223,"time_elapsed":852560,"internal_node_id":"0.0-197.0","task_version":"battery-v0.2-trt","session":2},{"rune":"T","rune_set":"bacs1","hex":"#f73b6a7A","correct":32,"choice":32,"rt":608.295000041835,"accuracy":1,"outcome":"-1","keys":[2109.4250000314787],"total_keys":1,"block":2,"trial":192,"stimulus":5,"robot":3,"valence":"lose","action":"go","sham":0,"trial_type":"pit-trial","trial_index":224,"time_elapsed":855873,"internal_node_id":"0.0-198.0","task_version":"battery-v0.2-trt","session":2},{"rune":"V","rune_set":"bacs1","hex":"#3366ff99","correct":-1,"choice":-1,"rt":-1,"accuracy":1,"outcome":"+10","keys":[],"total_keys":0,"block":2,"trial":193,"stimulus":7,"robot":2,"valence":"win","action":"no-go","sham":0,"trial_type":"pit-trial","trial_index":225,"time_elapsed":859881,"internal_node_id":"0.0-199.0","task_version":"battery-v0.2-trt","session":2},{"rune":"F","rune_set":"bacs1","hex":"#f73b6a7A","correct":-1,"choice":-1,"rt":-1,"accuracy":1,"outcome":"-1","keys":[],"total_keys":0,"block":2,"trial":194,"stimulus":4,"robot":4,"valence":"lose","action":"no-go","sham":0,"trial_type":"pit-trial","trial_index":226,"time_elapsed":863886,"internal_node_id":"0.0-200.0","task_version":"battery-v0.2-trt","session":2},{"rune":"E","rune_set":"bacs1","hex":"#3366ff99","correct":-1,"choice":32,"rt":290.29000003356487,"accuracy":0,"outcome":"+1","keys":[1791.069999919273],"total_keys":1,"block":2,"trial":195,"stimulus":6,"robot":2,"valence":"win","action":"no-go","sham":0,"trial_type":"pit-trial","trial_index":227,"time_elapsed":866881,"internal_node_id":"0.0-201.0","task_version":"battery-v0.2-trt","session":2},{"rune":"T","rune_set":"bacs1","hex":"#f73b6a7A","correct":32,"choice":-1,"rt":-1,"accuracy":0,"outcome":"-10","keys":[],"total_keys":0,"block":2,"trial":196,"stimulus":5,"robot":3,"valence":"lose","action":"go","sham":0,"trial_type":"pit-trial","trial_index":228,"time_elapsed":870887,"internal_node_id":"0.0-202.0","task_version":"battery-v0.2-trt","session":2},{"rune":"V","rune_set":"bacs1","hex":"#3366ff99","correct":-1,"choice":-1,"rt":-1,"accuracy":1,"outcome":"+10","keys":[],"total_keys":0,"block":2,"trial":197,"stimulus":7,"robot":2,"valence":"win","action":"no-go","sham":0,"trial_type":"pit-trial","trial_index":229,"time_elapsed":874892,"internal_node_id":"0.0-203.0","task_version":"battery-v0.2-trt","session":2},{"rune":"F","rune_set":"bacs1","hex":"#f73b6a7A","correct":-1,"choice":-1,"rt":-1,"accuracy":1,"outcome":"-10","keys":[],"total_keys":0,"block":2,"trial":198,"stimulus":4,"robot":4,"valence":"lose","action":"no-go","sham":1,"trial_type":"pit-trial","trial_index":230,"time_elapsed":878898,"internal_node_id":"0.0-204.0","task_version":"battery-v0.2-trt","session":2},{"rune":"T","rune_set":"bacs1","hex":"#f73b6a7A","correct":32,"choice":32,"rt":351.204999955371,"accuracy":1,"outcome":"-10","keys":[1851.6700000036508],"total_keys":1,"block":2,"trial":199,"stimulus":5,"robot":3,"valence":"lose","action":"go","sham":1,"trial_type":"pit-trial","trial_index":231,"time_elapsed":881954,"internal_node_id":"0.0-205.0","task_version":"battery-v0.2-trt","session":2},{"rune":"E","rune_set":"bacs1","hex":"#3366ff99","correct":-1,"choice":-1,"rt":-1,"accuracy":1,"outcome":"+10","keys":[],"total_keys":0,"block":2,"trial":200,"stimulus":6,"robot":2,"valence":"win","action":"no-go","sham":0,"trial_type":"pit-trial","trial_index":232,"time_elapsed":885959,"internal_node_id":"0.0-206.0","task_version":"battery-v0.2-trt","session":2},{"rune":"T","rune_set":"bacs1","hex":"#f73b6a7A","correct":32,"choice":32,"rt":321.35499990545213,"accuracy":1,"outcome":"-1","keys":[1821.9849999295548],"total_keys":1,"block":2,"trial":201,"stimulus":5,"robot":3,"valence":"lose","action":"go","sham":0,"trial_type":"pit-trial","trial_index":233,"time_elapsed":888986,"internal_node_id":"0.0-207.0","task_version":"battery-v0.2-trt","session":2},{"rune":"R","rune_set":"bacs1","hex":"#3366ff99","correct":32,"choice":32,"rt":765.4349999502301,"accuracy":1,"outcome":"+10","keys":[2267.329999944195],"total_keys":1,"block":2,"trial":202,"stimulus":8,"robot":1,"valence":"win","action":"go","sham":0,"trial_type":"pit-trial","trial_index":234,"time_elapsed":892457,"internal_node_id":"0.0-208.0","task_version":"battery-v0.2-trt","session":2},{"rune":"J","rune_set":"bacs1","hex":"#f73b6a7A","correct":-1,"choice":32,"rt":655.4400000022724,"accuracy":0,"outcome":"-10","keys":[2155.739999958314],"total_keys":1,"block":2,"trial":203,"stimulus":9,"robot":4,"valence":"lose","action":"no-go","sham":0,"trial_type":"pit-trial","trial_index":235,"time_elapsed":895818,"internal_node_id":"0.0-209.0","task_version":"battery-v0.2-trt","session":2},{"rune":"V","rune_set":"bacs1","hex":"#3366ff99","correct":-1,"choice":-1,"rt":-1,"accuracy":1,"outcome":"+10","keys":[],"total_keys":0,"block":2,"trial":204,"stimulus":7,"robot":2,"valence":"win","action":"no-go","sham":0,"trial_type":"pit-trial","trial_index":236,"time_elapsed":899824,"internal_node_id":"0.0-210.0","task_version":"battery-v0.2-trt","session":2},{"rune":"T","rune_set":"bacs1","hex":"#f73b6a7A","correct":32,"choice":32,"rt":584.4950000755489,"accuracy":1,"outcome":"-1","keys":[2085.120000061579],"total_keys":1,"block":2,"trial":205,"stimulus":5,"robot":3,"valence":"lose","action":"go","sham":0,"trial_type":"pit-trial","trial_index":237,"time_elapsed":903113,"internal_node_id":"0.0-211.0","task_version":"battery-v0.2-trt","session":2},{"rune":"J","rune_set":"bacs1","hex":"#f73b6a7A","correct":-1,"choice":-1,"rt":-1,"accuracy":1,"outcome":"-1","keys":[],"total_keys":0,"block":2,"trial":206,"stimulus":9,"robot":4,"valence":"lose","action":"no-go","sham":0,"trial_type":"pit-trial","trial_index":238,"time_elapsed":907118,"internal_node_id":"0.0-212.0","task_version":"battery-v0.2-trt","session":2},{"rune":"V","rune_set":"bacs1","hex":"#3366ff99","correct":-1,"choice":-1,"rt":-1,"accuracy":1,"outcome":"+10","keys":[],"total_keys":0,"block":2,"trial":207,"stimulus":7,"robot":2,"valence":"win","action":"no-go","sham":0,"trial_type":"pit-trial","trial_index":239,"time_elapsed":911125,"internal_node_id":"0.0-213.0","task_version":"battery-v0.2-trt","session":2},{"rune":"R","rune_set":"bacs1","hex":"#3366ff99","correct":32,"choice":-1,"rt":-1,"accuracy":0,"outcome":"+1","keys":[],"total_keys":0,"block":2,"trial":208,"stimulus":8,"robot":1,"valence":"win","action":"go","sham":0,"trial_type":"pit-trial","trial_index":240,"time_elapsed":915143,"internal_node_id":"0.0-214.0","task_version":"battery-v0.2-trt","session":2},{"rune":"J","rune_set":"bacs1","hex":"#f73b6a7A","correct":-1,"choice":-1,"rt":-1,"accuracy":1,"outcome":"-1","keys":[],"total_keys":0,"block":2,"trial":209,"stimulus":9,"robot":4,"valence":"lose","action":"no-go","sham":0,"trial_type":"pit-trial","trial_index":241,"time_elapsed":919148,"internal_node_id":"0.0-215.0","task_version":"battery-v0.2-trt","session":2},{"rune":"Z","rune_set":"bacs1","hex":"#f73b6a7A","correct":32,"choice":32,"rt":748.0600000126287,"accuracy":1,"outcome":"-1","keys":[2248.6250000074506],"total_keys":1,"block":2,"trial":210,"stimulus":10,"robot":3,"valence":"lose","action":"go","sham":0,"trial_type":"pit-trial","trial_index":242,"time_elapsed":922605,"internal_node_id":"0.0-216.0","task_version":"battery-v0.2-trt","session":2},{"rune":"B","rune_set":"bacs1","hex":"#3366ff99","correct":32,"choice":32,"rt":843.5199999948964,"accuracy":1,"outcome":"+10","keys":[2344.234999967739],"total_keys":1,"block":2,"trial":211,"stimulus":11,"robot":1,"valence":"win","action":"go","sham":0,"trial_type":"pit-trial","trial_index":243,"time_elapsed":926154,"internal_node_id":"0.0-217.0","task_version":"battery-v0.2-trt","session":2},{"rune":"R","rune_set":"bacs1","hex":"#3366ff99","correct":32,"choice":32,"rt":477.80500003136694,"accuracy":1,"outcome":"+10","keys":[1978.9299999829382],"total_keys":1,"block":2,"trial":212,"stimulus":8,"robot":1,"valence":"win","action":"go","sham":0,"trial_type":"pit-trial","trial_index":244,"time_elapsed":929336,"internal_node_id":"0.0-218.0","task_version":"battery-v0.2-trt","session":2},{"rune":"J","rune_set":"bacs1","hex":"#f73b6a7A","correct":-1,"choice":-1,"rt":-1,"accuracy":1,"outcome":"-1","keys":[],"total_keys":0,"block":2,"trial":213,"stimulus":9,"robot":4,"valence":"lose","action":"no-go","sham":0,"trial_type":"pit-trial","trial_index":245,"time_elapsed":933341,"internal_node_id":"0.0-219.0","task_version":"battery-v0.2-trt","session":2},{"rune":"R","rune_set":"bacs1","hex":"#3366ff99","correct":32,"choice":32,"rt":418.9200000837445,"accuracy":1,"outcome":"+10","keys":[1919.6600000141189],"total_keys":1,"block":2,"trial":214,"stimulus":8,"robot":1,"valence":"win","action":"go","sham":0,"trial_type":"pit-trial","trial_index":246,"time_elapsed":936465,"internal_node_id":"0.0-220.0","task_version":"battery-v0.2-trt","session":2},{"rune":"Z","rune_set":"bacs1","hex":"#f73b6a7A","correct":32,"choice":-1,"rt":-1,"accuracy":0,"outcome":"-10","keys":[],"total_keys":0,"block":2,"trial":215,"stimulus":10,"robot":3,"valence":"lose","action":"go","sham":0,"trial_type":"pit-trial","trial_index":247,"time_elapsed":940471,"internal_node_id":"0.0-221.0","task_version":"battery-v0.2-trt","session":2},{"rune":"B","rune_set":"bacs1","hex":"#3366ff99","correct":32,"choice":32,"rt":560.994999948889,"accuracy":1,"outcome":"+10","keys":[2061.9900000747293],"total_keys":1,"block":2,"trial":216,"stimulus":11,"robot":1,"valence":"win","action":"go","sham":0,"trial_type":"pit-trial","trial_index":248,"time_elapsed":943737,"internal_node_id":"0.0-222.0","task_version":"battery-v0.2-trt","session":2},{"rune":"Z","rune_set":"bacs1","hex":"#f73b6a7A","correct":32,"choice":32,"rt":503.484999993816,"accuracy":1,"outcome":"-1","keys":[2003.7299999967217],"total_keys":1,"block":2,"trial":217,"stimulus":10,"robot":3,"valence":"lose","action":"go","sham":0,"trial_type":"pit-trial","trial_index":249,"time_elapsed":946945,"internal_node_id":"0.0-223.0","task_version":"battery-v0.2-trt","session":2},{"rune":"R","rune_set":"bacs1","hex":"#3366ff99","correct":32,"choice":32,"rt":487.5200000824407,"accuracy":1,"outcome":"+1","keys":[1988.1549999117851],"total_keys":1,"block":2,"trial":218,"stimulus":8,"robot":1,"valence":"win","action":"go","sham":1,"trial_type":"pit-trial","trial_index":250,"time_elapsed":950137,"internal_node_id":"0.0-224.0","task_version":"battery-v0.2-trt","session":2},{"rune":"J","rune_set":"bacs1","hex":"#f73b6a7A","correct":-1,"choice":-1,"rt":-1,"accuracy":1,"outcome":"-1","keys":[],"total_keys":0,"block":2,"trial":219,"stimulus":9,"robot":4,"valence":"lose","action":"no-go","sham":0,"trial_type":"pit-trial","trial_index":251,"time_elapsed":954143,"internal_node_id":"0.0-225.0","task_version":"battery-v0.2-trt","session":2},{"rune":"B","rune_set":"bacs1","hex":"#3366ff99","correct":32,"choice":32,"rt":585.7400000095367,"accuracy":1,"outcome":"+1","keys":[2086.1499999882653],"total_keys":1,"block":2,"trial":220,"stimulus":11,"robot":1,"valence":"win","action":"go","sham":1,"trial_type":"pit-trial","trial_index":252,"time_elapsed":957433,"internal_node_id":"0.0-226.0","task_version":"battery-v0.2-trt","session":2},{"rune":"R","rune_set":"bacs1","hex":"#3366ff99","correct":32,"choice":32,"rt":415.184999932535,"accuracy":1,"outcome":"+10","keys":[1915.6899999361485],"total_keys":1,"block":2,"trial":221,"stimulus":8,"robot":1,"valence":"win","action":"go","sham":0,"trial_type":"pit-trial","trial_index":253,"time_elapsed":960553,"internal_node_id":"0.0-227.0","task_version":"battery-v0.2-trt","session":2},{"rune":"Z","rune_set":"bacs1","hex":"#f73b6a7A","correct":32,"choice":-1,"rt":-1,"accuracy":0,"outcome":"-10","keys":[],"total_keys":0,"block":2,"trial":222,"stimulus":10,"robot":3,"valence":"lose","action":"go","sham":0,"trial_type":"pit-trial","trial_index":254,"time_elapsed":964559,"internal_node_id":"0.0-228.0","task_version":"battery-v0.2-trt","session":2},{"rune":"B","rune_set":"bacs1","hex":"#3366ff99","correct":32,"choice":-1,"rt":-1,"accuracy":0,"outcome":"+1","keys":[],"total_keys":0,"block":2,"trial":223,"stimulus":11,"robot":1,"valence":"win","action":"go","sham":0,"trial_type":"pit-trial","trial_index":255,"time_elapsed":968564,"internal_node_id":"0.0-229.0","task_version":"battery-v0.2-trt","session":2},{"rune":"J","rune_set":"bacs1","hex":"#f73b6a7A","correct":-1,"choice":-1,"rt":-1,"accuracy":1,"outcome":"-1","keys":[],"total_keys":0,"block":2,"trial":224,"stimulus":9,"robot":4,"valence":"lose","action":"no-go","sham":0,"trial_type":"pit-trial","trial_index":256,"time_elapsed":972569,"internal_node_id":"0.0-230.0","task_version":"battery-v0.2-trt","session":2},{"rune":"J","rune_set":"bacs1","hex":"#f73b6a7A","correct":-1,"choice":-1,"rt":-1,"accuracy":1,"outcome":"-1","keys":[],"total_keys":0,"block":2,"trial":225,"stimulus":9,"robot":4,"valence":"lose","action":"no-go","sham":0,"trial_type":"pit-trial","trial_index":257,"time_elapsed":976573,"internal_node_id":"0.0-231.0","task_version":"battery-v0.2-trt","session":2},{"rune":"R","rune_set":"bacs1","hex":"#3366ff99","correct":32,"choice":32,"rt":459.69499996863306,"accuracy":1,"outcome":"+10","keys":[1959.9900000030175],"total_keys":1,"block":2,"trial":226,"stimulus":8,"robot":1,"valence":"win","action":"go","sham":0,"trial_type":"pit-trial","trial_index":258,"time_elapsed":979738,"internal_node_id":"0.0-232.0","task_version":"battery-v0.2-trt","session":2},{"rune":"Z","rune_set":"bacs1","hex":"#f73b6a7A","correct":32,"choice":32,"rt":390.5399999348447,"accuracy":1,"outcome":"-10","keys":[1890.6899999128655],"total_keys":1,"block":2,"trial":227,"stimulus":10,"robot":3,"valence":"lose","action":"go","sham":1,"trial_type":"pit-trial","trial_index":259,"time_elapsed":982833,"internal_node_id":"0.0-233.0","task_version":"battery-v0.2-trt","session":2},{"rune":"B","rune_set":"bacs1","hex":"#3366ff99","correct":32,"choice":32,"rt":1007.0150000974536,"accuracy":1,"outcome":"+10","keys":[2507.5149999465793],"total_keys":1,"block":2,"trial":228,"stimulus":11,"robot":1,"valence":"win","action":"go","sham":0,"trial_type":"pit-trial","trial_index":260,"time_elapsed":986546,"internal_node_id":"0.0-234.0","task_version":"battery-v0.2-trt","session":2},{"rune":"Z","rune_set":"bacs1","hex":"#f73b6a7A","correct":32,"choice":-1,"rt":-1,"accuracy":0,"outcome":"-10","keys":[],"total_keys":0,"block":2,"trial":229,"stimulus":10,"robot":3,"valence":"lose","action":"go","sham":0,"trial_type":"pit-trial","trial_index":261,"time_elapsed":990552,"internal_node_id":"0.0-235.0","task_version":"battery-v0.2-trt","session":2},{"rune":"R","rune_set":"bacs1","hex":"#3366ff99","correct":32,"choice":32,"rt":432.7100000809878,"accuracy":1,"outcome":"+10","keys":[1933.5800000699237],"total_keys":1,"block":2,"trial":230,"stimulus":8,"robot":1,"valence":"win","action":"go","sham":0,"trial_type":"pit-trial","trial_index":262,"time_elapsed":993690,"internal_node_id":"0.0-236.0","task_version":"battery-v0.2-trt","session":2},{"rune":"J","rune_set":"bacs1","hex":"#f73b6a7A","correct":-1,"choice":-1,"rt":-1,"accuracy":1,"outcome":"-1","keys":[],"total_keys":0,"block":2,"trial":231,"stimulus":9,"robot":4,"valence":"lose","action":"no-go","sham":0,"trial_type":"pit-trial","trial_index":263,"time_elapsed":997695,"internal_node_id":"0.0-237.0","task_version":"battery-v0.2-trt","session":2},{"rune":"B","rune_set":"bacs1","hex":"#3366ff99","correct":32,"choice":32,"rt":537.7400000579655,"accuracy":1,"outcome":"+10","keys":[2038.8050000183284],"total_keys":1,"block":2,"trial":232,"stimulus":11,"robot":1,"valence":"win","action":"go","sham":0,"trial_type":"pit-trial","trial_index":264,"time_elapsed":1000938,"internal_node_id":"0.0-238.0","task_version":"battery-v0.2-trt","session":2},{"rune":"Z","rune_set":"bacs1","hex":"#f73b6a7A","correct":32,"choice":32,"rt":343.1700000073761,"accuracy":1,"outcome":"-1","keys":[1843.4750000014901],"total_keys":1,"block":2,"trial":233,"stimulus":10,"robot":3,"valence":"lose","action":