[{"view_history":"[{\"page_index\":0,\"viewing_time\":2197.0000001601875}]","rt":2198.0000000912696,"trial_type":"instructions","trial_index":0,"time_elapsed":2211,"internal_node_id":"0.0-0.0","task_version":"battery-v0.2-trt","session":2},{"slider_type":"valence","raw_loc":556.8181762695312,"loc":0.6136363525390625,"trial_type":"affective-slider","trial_index":1,"time_elapsed":8297,"internal_node_id":"0.0-1.0","task_version":"battery-v0.2-trt","session":2},{"responses":{"Q02":"0","Q07":"0","Q03":"0","Q05":"0","Q06":"0","Q08":"3","Q01":"0","Q04":"1"},"rt":30324.00000002235,"item_order":[1,6,2,4,5,7,0,3],"radio_events":[5501.999999862164,6476.000000024214,7633.9999998454,8675.999999977648,9433.999999891967,10405.999999959022,12837.999999988824,17163.99999987334,21997.999999905005],"key_events":[],"mouse_events":[5501.999999862164,6476.000000024214,7633.9999998454,8675.999999977648,9433.999999891967,10405.999999959022,12051.99999990873,12837.999999988824,17163.99999987334,21997.999999905005,30321.999999927357],"straightlining":0.75,"zigzagging":0.42857142857142855,"survey":"dass_d","trial_type":"survey-template","trial_index":2,"time_elapsed":38634,"internal_node_id":"0.0-2.0","task_version":"battery-v0.2-trt","session":2,"infrequency":0},{"responses":{"Q02":"0","Q03":"0","Q05":"0","Q01":"0","Q06":"1","Q04":"0","Q07":"0","Q08":"0"},"rt":16844.00000004098,"item_order":[1,2,4,0,5,3,6,7],"radio_events":[4904.000000096858,5838.000000221655,6681.00000009872,7638.00000003539,9676.000000210479,11368.000000016764,12363.000000128523,13568.000000203028],"key_events":[],"mouse_events":[3978.0000001192093,4904.000000096858,5838.000000221655,6681.00000009872,7638.00000003539,9676.000000210479,11368.000000016764,12363.000000128523,13568.000000203028,16842.000000178814],"straightlining":0.875,"zigzagging":0.2857142857142857,"survey":"gad7","trial_type":"survey-template","trial_index":3,"time_elapsed":55484,"internal_node_id":"0.0-3.0","task_version":"battery-v0.2-trt","session":2,"infrequency":0},{"view_history":"[{\"page_index\":0,\"viewing_time\":1697.0000001601875},{\"page_index\":1,\"viewing_time\":5790.999999968335},{\"page_index\":2,\"viewing_time\":1915.000000037253},{\"page_index\":3,\"viewing_time\":1761.9999998714775},{\"page_index\":4,\"viewing_time\":1790.999999968335},{\"page_index\":5,\"viewing_time\":2471.000000135973},{\"page_index\":6,\"viewing_time\":1682.0000000298023},{\"page_index\":7,\"viewing_time\":3035.999999847263},{\"page_index\":8,\"viewing_time\":2964.000000152737},{\"page_index\":9,\"viewing_time\":2687.9999998491257}]","rt":25798.000000184402,"trial_type":"pit-instructions","trial_index":4,"time_elapsed":81287,"internal_node_id":"0.0-4.0-0.0","task_version":"battery-v0.2-trt","session":2},{"rune":"1","rune_set":"elianto","hex":"#3366ff99","correct":32,"choice":32,"rt":488.0000001285225,"accuracy":1,"outcome":"+10","keys":[1989.0000000596046],"total_keys":1,"block":0,"practice":1,"trial_type":"pit-trial","trial_index":5,"time_elapsed":84485,"internal_node_id":"0.0-4.0-1.0-0.0","task_version":"battery-v0.2-trt","session":2},{"rune":"1","rune_set":"elianto","hex":"#3366ff99","correct":32,"choice":32,"rt":429.0000000037253,"accuracy":1,"outcome":"+10","keys":[1929.9999999348074],"total_keys":1,"block":0,"practice":1,"trial_type":"pit-trial","trial_index":6,"time_elapsed":87627,"internal_node_id":"0.0-4.0-1.1-0.1","task_version":"battery-v0.2-trt","session":2},{"rune":"1","rune_set":"elianto","hex":"#3366ff99","correct":32,"choice":32,"rt":351.0000000242144,"accuracy":1,"outcome":"+10","keys":[1850.0000000931323],"total_keys":1,"block":0,"practice":1,"trial_type":"pit-trial","trial_index":7,"time_elapsed":90684,"internal_node_id":"0.0-4.0-1.2-0.2","task_version":"battery-v0.2-trt","session":2},{"rune":"1","rune_set":"elianto","hex":"#3366ff99","correct":32,"choice":32,"rt":391.9999999925494,"accuracy":1,"outcome":"+10","keys":[1893.0000001564622],"total_keys":1,"block":0,"practice":1,"trial_type":"pit-trial","trial_index":8,"time_elapsed":93784,"internal_node_id":"0.0-4.0-1.3-0.3","task_version":"battery-v0.2-trt","session":2},{"trial_type":"call-function","trial_index":9,"time_elapsed":93788,"internal_node_id":"0.0-4.0-2.0","task_version":"battery-v0.2-trt","session":2},{"view_history":"[{\"page_index\":0,\"viewing_time\":2800.000000046566},{\"page_index\":1,\"viewing_time\":2424.000000115484}]","rt":5225.000000093132,"trial_type":"pit-instructions","trial_index":10,"time_elapsed":99015,"internal_node_id":"0.0-4.0-3.0","task_version":"battery-v0.2-trt","session":2},{"rune":"2","rune_set":"elianto","hex":"#3366ff99","correct":-1,"choice":-1,"rt":-1,"accuracy":1,"outcome":"+10","keys":[],"total_keys":0,"block":0,"practice":2,"trial_type":"pit-trial","trial_index":11,"time_elapsed":103019,"internal_node_id":"0.0-4.0-4.0-0.0","task_version":"battery-v0.2-trt","session":2},{"rune":"2","rune_set":"elianto","hex":"#3366ff99","correct":-1,"choice":-1,"rt":-1,"accuracy":1,"outcome":"+10","keys":[],"total_keys":0,"block":0,"practice":2,"trial_type":"pit-trial","trial_index":12,"time_elapsed":107025,"internal_node_id":"0.0-4.0-4.1-0.1","task_version":"battery-v0.2-trt","session":2},{"rune":"2","rune_set":"elianto","hex":"#3366ff99","correct":-1,"choice":-1,"rt":-1,"accuracy":1,"outcome":"+10","keys":[],"total_keys":0,"block":0,"practice":2,"trial_type":"pit-trial","trial_index":13,"time_elapsed":111032,"internal_node_id":"0.0-4.0-4.2-0.2","task_version":"battery-v0.2-trt","session":2},{"rune":"2","rune_set":"elianto","hex":"#3366ff99","correct":-1,"choice":-1,"rt":-1,"accuracy":1,"outcome":"+10","keys":[],"total_keys":0,"block":0,"practice":2,"trial_type":"pit-trial","trial_index":14,"time_elapsed":115039,"internal_node_id":"0.0-4.0-4.3-0.3","task_version":"battery-v0.2-trt","session":2},{"trial_type":"call-function","trial_index":15,"time_elapsed":115043,"internal_node_id":"0.0-4.0-5.0","task_version":"battery-v0.2-trt","session":2},{"view_history":"[{\"page_index\":0,\"viewing_time\":2600.9999997913837},{\"page_index\":1,\"viewing_time\":1662.0000000111759}]","rt":4263.999999966472,"trial_type":"pit-instructions","trial_index":16,"time_elapsed":119311,"internal_node_id":"0.0-4.0-6.0","task_version":"battery-v0.2-trt","session":2},{"rune":"3","rune_set":"elianto","hex":"#f73b6a7A","correct":-1,"choice":32,"rt":491.00000015459955,"accuracy":0,"outcome":"-10","keys":[1992.0000000856817],"total_keys":1,"block":0,"practice":3,"trial_type":"pit-trial","trial_index":17,"time_elapsed":122506,"internal_node_id":"0.0-4.0-7.0-0.0","task_version":"battery-v0.2-trt","session":2},{"rune":"3","rune_set":"elianto","hex":"#f73b6a7A","correct":-1,"choice":-1,"rt":-1,"accuracy":1,"outcome":"-1","keys":[],"total_keys":0,"block":0,"practice":3,"trial_type":"pit-trial","trial_index":18,"time_elapsed":126512,"internal_node_id":"0.0-4.0-7.1-0.1","task_version":"battery-v0.2-trt","session":2},{"rune":"3","rune_set":"elianto","hex":"#f73b6a7A","correct":-1,"choice":-1,"rt":-1,"accuracy":1,"outcome":"-1","keys":[],"total_keys":0,"block":0,"practice":3,"trial_type":"pit-trial","trial_index":19,"time_elapsed":130518,"internal_node_id":"0.0-4.0-7.2-0.2","task_version":"battery-v0.2-trt","session":2},{"rune":"3","rune_set":"elianto","hex":"#f73b6a7A","correct":-1,"choice":-1,"rt":-1,"accuracy":1,"outcome":"-1","keys":[],"total_keys":0,"block":0,"practice":3,"trial_type":"pit-trial","trial_index":20,"time_elapsed":134523,"internal_node_id":"0.0-4.0-7.3-0.3","task_version":"battery-v0.2-trt","session":2},{"trial_type":"call-function","trial_index":21,"time_elapsed":134527,"internal_node_id":"0.0-4.0-8.0","task_version":"battery-v0.2-trt","session":2},{"view_history":"[{\"page_index\":0,\"viewing_time\":2476.0000000242144},{\"page_index\":1,\"viewing_time\":1141.0000000614673}]","rt":3618.000000016764,"trial_type":"pit-instructions","trial_index":22,"time_elapsed":138146,"internal_node_id":"0.0-4.0-9.0","task_version":"battery-v0.2-trt","session":2},{"rune":"4","rune_set":"elianto","hex":"#f73b6a7A","correct":32,"choice":32,"rt":673.0000001844019,"accuracy":1,"outcome":"-1","keys":[2173.000000184402],"total_keys":1,"block":0,"practice":4,"trial_type":"pit-trial","trial_index":23,"time_elapsed":141522,"internal_node_id":"0.0-4.0-10.0-0.0","task_version":"battery-v0.2-trt","session":2},{"rune":"4","rune_set":"elianto","hex":"#f73b6a7A","correct":32,"choice":32,"rt":152.99999993294477,"accuracy":1,"outcome":"-1","keys":[1653.999999864027],"total_keys":1,"block":0,"practice":4,"trial_type":"pit-trial","trial_index":24,"time_elapsed":144382,"internal_node_id":"0.0-4.0-10.1-0.1","task_version":"battery-v0.2-trt","session":2},{"rune":"4","rune_set":"elianto","hex":"#f73b6a7A","correct":32,"choice":32,"rt":245.0000001117587,"accuracy":1,"outcome":"-1","keys":[1746.0000000428408],"total_keys":1,"block":0,"practice":4,"trial_type":"pit-trial","trial_index":25,"time_elapsed":147334,"internal_node_id":"0.0-4.0-10.2-0.2","task_version":"battery-v0.2-trt","session":2},{"rune":"4","rune_set":"elianto","hex":"#f73b6a7A","correct":32,"choice":32,"rt":486.99999996460974,"accuracy":1,"outcome":"-1","keys":[1987.9999998956919],"total_keys":1,"block":0,"practice":4,"trial_type":"pit-trial","trial_index":26,"time_elapsed":150528,"internal_node_id":"0.0-4.0-10.3-0.3","task_version":"battery-v0.2-trt","session":2},{"trial_type":"call-function","trial_index":27,"time_elapsed":150532,"internal_node_id":"0.0-4.0-11.0","task_version":"battery-v0.2-trt","session":2},{"view_history":"[{\"page_index\":0,\"viewing_time\":2207.999999867752},{\"page_index\":1,\"viewing_time\":1459.999999962747},{\"page_index\":2,\"viewing_time\":1320.0000000651926},{\"page_index\":3,\"viewing_time\":1611.0000000335276},{\"page_index\":4,\"viewing_time\":1593.000000109896},{\"page_index\":5,\"viewing_time\":1179.9999999348074}]","rt":9371.999999973923,"trial_type":"pit-instructions","trial_index":28,"time_elapsed":159907,"internal_node_id":"0.0-4.0-12.0","task_version":"battery-v0.2-trt","session":2},{"responses":["Press SPACE","+10","-1","True","True"],"num_errors":0,"rt":14702.99999997951,"trial_type":"pit-comprehension","trial_index":29,"time_elapsed":174614,"internal_node_id":"0.0-4.0-13.0","task_version":"battery-v0.2-trt","session":2},{"view_history":"[{\"page_index\":0,\"viewing_time\":1212.000000057742},{\"page_index\":1,\"viewing_time\":2037.999999942258}]","rt":3250.999999931082,"trial_type":"pit-instructions","trial_index":30,"time_elapsed":177871,"internal_node_id":"0.0-5.0","task_version":"battery-v0.2-trt","session":2},{"rune":"J","rune_set":"bacs1","hex":"#f73b6a7A","correct":32,"choice":32,"rt":532.0000001229346,"accuracy":1,"outcome":"-1","keys":[2033.9999999850988],"total_keys":1,"block":1,"trial":1,"stimulus":2,"robot":3,"valence":"lose","action":"go","sham":0,"trial_type":"pit-trial","trial_index":31,"time_elapsed":181111,"internal_node_id":"0.0-6.0","task_version":"battery-v0.2-trt","session":2},{"rune":"B","rune_set":"bacs1","hex":"#f73b6a7A","correct":-1,"choice":32,"rt":668.9999999944121,"accuracy":0,"outcome":"-10","keys":[2168.999999994412],"total_keys":1,"block":1,"trial":2,"stimulus":0,"robot":4,"valence":"lose","action":"no-go","sham":0,"trial_type":"pit-trial","trial_index":32,"time_elapsed":184486,"internal_node_id":"0.0-7.0","task_version":"battery-v0.2-trt","session":2},{"rune":"R","rune_set":"bacs1","hex":"#3366ff99","correct":32,"choice":32,"rt":656.9999998901039,"accuracy":1,"outcome":"+10","keys":[2156.999999890104],"total_keys":1,"block":1,"trial":3,"stimulus":3,"robot":1,"valence":"win","action":"go","sham":0,"trial_type":"pit-trial","trial_index":33,"time_elapsed":187848,"internal_node_id":"0.0-8.0","task_version":"battery-v0.2-trt","session":2},{"rune":"Z","rune_set":"bacs1","hex":"#f73b6a7A","correct":32,"choice":-1,"rt":-1,"accuracy":0,"outcome":"-10","keys":[],"total_keys":0,"block":1,"trial":4,"stimulus":1,"robot":3,"valence":"lose","action":"go","sham":0,"trial_type":"pit-trial","trial_index":34,"time_elapsed":191855,"internal_node_id":"0.0-9.0","task_version":"battery-v0.2-trt","session":2},{"rune":"R","rune_set":"bacs1","hex":"#3366ff99","correct":32,"choice":32,"rt":742.0000000856817,"accuracy":1,"outcome":"+1","keys":[2242.0000000856817],"total_keys":1,"block":1,"trial":5,"stimulus":3,"robot":1,"valence":"win","action":"go","sham":1,"trial_type":"pit-trial","trial_index":35,"time_elapsed":195305,"internal_node_id":"0.0-10.0","task_version":"battery-v0.2-trt","session":2},{"rune":"Z","rune_set":"bacs1","hex":"#f73b6a7A","correct":32,"choice":32,"rt":955.0000000745058,"accuracy":1,"outcome":"-1","keys":[2456.000000005588],"total_keys":1,"block":1,"trial":6,"stimulus":1,"robot":3,"valence":"lose","action":"go","sham":0,"trial_type":"pit-trial","trial_index":36,"time_elapsed":198968,"internal_node_id":"0.0-11.0","task_version":"battery-v0.2-trt","session":2},{"rune":"J","rune_set":"bacs1","hex":"#f73b6a7A","correct":32,"choice":32,"rt":621.0000000428408,"accuracy":1,"outcome":"-10","keys":[2121.000000042841],"total_keys":1,"block":1,"trial":7,"stimulus":2,"robot":3,"valence":"lose","action":"go","sham":1,"trial_type":"pit-trial","trial_index":37,"time_elapsed":202296,"internal_node_id":"0.0-12.0","task_version":"battery-v0.2-trt","session":2},{"rune":"B","rune_set":"bacs1","hex":"#f73b6a7A","correct":-1,"choice":-1,"rt":-1,"accuracy":1,"outcome":"-1","keys":[],"total_keys":0,"block":1,"trial":8,"stimulus":0,"robot":4,"valence":"lose","action":"no-go","sham":0,"trial_type":"pit-trial","trial_index":38,"time_elapsed":206300,"internal_node_id":"0.0-13.0","task_version":"battery-v0.2-trt","session":2},{"rune":"J","rune_set":"bacs1","hex":"#f73b6a7A","correct":32,"choice":32,"rt":617.0000000856817,"accuracy":1,"outcome":"-10","keys":[2118.000000016764],"total_keys":1,"block":1,"trial":9,"stimulus":2,"robot":3,"valence":"lose","action":"go","sham":1,"trial_type":"pit-trial","trial_index":39,"time_elapsed":209625,"internal_node_id":"0.0-14.0","task_version":"battery-v0.2-trt","session":2},{"rune":"Z","rune_set":"bacs1","hex":"#f73b6a7A","correct":32,"choice":32,"rt":576.0000001173466,"accuracy":1,"outcome":"-1","keys":[2076.0000001173466],"total_keys":1,"block":1,"trial":10,"stimulus":1,"robot":3,"valence":"lose","action":"go","sham":0,"trial_type":"pit-trial","trial_index":40,"time_elapsed":212908,"internal_node_id":"0.0-15.0","task_version":"battery-v0.2-trt","session":2},{"rune":"R","rune_set":"bacs1","hex":"#3366ff99","correct":32,"choice":32,"rt":959.9999999627471,"accuracy":1,"outcome":"+10","keys":[2460.999999893829],"total_keys":1,"block":1,"trial":11,"stimulus":3,"robot":1,"valence":"win","action":"go","sham":0,"trial_type":"pit-trial","trial_index":41,"time_elapsed":216575,"internal_node_id":"0.0-16.0","task_version":"battery-v0.2-trt","session":2},{"rune":"B","rune_set":"bacs1","hex":"#f73b6a7A","correct":-1,"choice":-1,"rt":-1,"accuracy":1,"outcome":"-1","keys":[],"total_keys":0,"block":1,"trial":12,"stimulus":0,"robot":4,"valence":"lose","action":"no-go","sham":0,"trial_type":"pit-trial","trial_index":42,"time_elapsed":220583,"internal_node_id":"0.0-17.0","task_version":"battery-v0.2-trt","session":2},{"rune":"R","rune_set":"bacs1","hex":"#3366ff99","correct":32,"choice":32,"rt":692.9999999701977,"accuracy":1,"outcome":"+10","keys":[2192.9999999701977],"total_keys":1,"block":1,"trial":13,"stimulus":3,"robot":1,"valence":"win","action":"go","sham":0,"trial_type":"pit-trial","trial_index":43,"time_elapsed":223983,"internal_node_id":"0.0-18.0","task_version":"battery-v0.2-trt","session":2},{"rune":"Z","rune_set":"bacs1","hex":"#f73b6a7A","correct":32,"choice":32,"rt":678.0000000726432,"accuracy":1,"outcome":"-1","keys":[2179.0000000037253],"total_keys":1,"block":1,"trial":14,"stimulus":1,"robot":3,"valence":"lose","action":"go","sham":0,"trial_type":"pit-trial","trial_index":44,"time_elapsed":227369,"internal_node_id":"0.0-19.0","task_version":"battery-v0.2-trt","session":2},{"rune":"J","rune_set":"bacs1","hex":"#f73b6a7A","correct":32,"choice":-1,"rt":-1,"accuracy":0,"outcome":"-10","keys":[],"total_keys":0,"block":1,"trial":15,"stimulus":2,"robot":3,"valence":"lose","action":"go","sham":0,"trial_type":"pit-trial","trial_index":45,"time_elapsed":231376,"internal_node_id":"0.0-20.0","task_version":"battery-v0.2-trt","session":2},{"rune":"B","rune_set":"bacs1","hex":"#f73b6a7A","correct":-1,"choice":-1,"rt":-1,"accuracy":1,"outcome":"-1","keys":[],"total_keys":0,"block":1,"trial":16,"stimulus":0,"robot":4,"valence":"lose","action":"no-go","sham":0,"trial_type":"pit-trial","trial_index":46,"time_elapsed":235380,"internal_node_id":"0.0-21.0","task_version":"battery-v0.2-trt","session":2},{"rune":"Z","rune_set":"bacs1","hex":"#f73b6a7A","correct":32,"choice":32,"rt":587.9999999888241,"accuracy":1,"outcome":"-1","keys":[2088.9999999199063],"total_keys":1,"block":1,"trial":17,"stimulus":1,"robot":3,"valence":"lose","action":"go","sham":0,"trial_type":"pit-trial","trial_index":47,"time_elapsed":238675,"internal_node_id":"0.0-22.0","task_version":"battery-v0.2-trt","session":2},{"rune":"J","rune_set":"bacs1","hex":"#f73b6a7A","correct":32,"choice":32,"rt":657.0000001229346,"accuracy":1,"outcome":"-1","keys":[2158.0000000540167],"total_keys":1,"block":1,"trial":18,"stimulus":2,"robot":3,"valence":"lose","action":"go","sham":0,"trial_type":"pit-trial","trial_index":48,"time_elapsed":242039,"internal_node_id":"0.0-23.0","task_version":"battery-v0.2-trt","session":2},{"rune":"B","rune_set":"bacs1","hex":"#f73b6a7A","correct":-1,"choice":-1,"rt":-1,"accuracy":1,"outcome":"-1","keys":[],"total_keys":0,"block":1,"trial":19,"stimulus":0,"robot":4,"valence":"lose","action":"no-go","sham":0,"trial_type":"pit-trial","trial_index":49,"time_elapsed":246046,"internal_node_id":"0.0-24.0","task_version":"battery-v0.2-trt","session":2},{"rune":"R","rune_set":"bacs1","hex":"#3366ff99","correct":32,"choice":32,"rt":571.9999999273568,"accuracy":1,"outcome":"+10","keys":[2071.999999927357],"total_keys":1,"block":1,"trial":20,"stimulus":3,"robot":1,"valence":"win","action":"go","sham":0,"trial_type":"pit-trial","trial_index":50,"time_elapsed":249328,"internal_node_id":"0.0-25.0","task_version":"battery-v0.2-trt","session":2},{"rune":"J","rune_set":"bacs1","hex":"#f73b6a7A","correct":32,"choice":32,"rt":670.9999998565763,"accuracy":1,"outcome":"-10","keys":[2171.9999997876585],"total_keys":1,"block":1,"trial":21,"stimulus":2,"robot":3,"valence":"lose","action":"go","sham":1,"trial_type":"pit-trial","trial_index":51,"time_elapsed":252705,"internal_node_id":"0.0-26.0","task_version":"battery-v0.2-trt","session":2},{"rune":"R","rune_set":"bacs1","hex":"#3366ff99","correct":32,"choice":32,"rt":587.9999999888241,"accuracy":1,"outcome":"+1","keys":[2088.9999999199063],"total_keys":1,"block":1,"trial":22,"stimulus":3,"robot":1,"valence":"win","action":"go","sham":1,"trial_type":"pit-trial","trial_index":52,"time_elapsed":256000,"internal_node_id":"0.0-27.0","task_version":"battery-v0.2-trt","session":2},{"rune":"B","rune_set":"bacs1","hex":"#f73b6a7A","correct":-1,"choice":-1,"rt":-1,"accuracy":1,"outcome":"-10","keys":[],"total_keys":0,"block":1,"trial":23,"stimulus":0,"robot":4,"valence":"lose","action":"no-go","sham":1,"trial_type":"pit-trial","trial_index":53,"time_elapsed":260005,"internal_node_id":"0.0-28.0","task_version":"battery-v0.2-trt","session":2},{"rune":"Z","rune_set":"bacs1","hex":"#f73b6a7A","correct":32,"choice":32,"rt":737.9999998956919,"accuracy":1,"outcome":"-1","keys":[2237.999999895692],"total_keys":1,"block":1,"trial":24,"stimulus":1,"robot":3,"valence":"lose","action":"go","sham":0,"trial_type":"pit-trial","trial_index":54,"time_elapsed":263450,"internal_node_id":"0.0-29.0","task_version":"battery-v0.2-trt","session":2},{"rune":"J","rune_set":"bacs1","hex":"#f73b6a7A","correct":32,"choice":32,"rt":793.9999999944121,"accuracy":1,"outcome":"-1","keys":[2295.000000158325],"total_keys":1,"block":1,"trial":25,"stimulus":2,"robot":3,"valence":"lose","action":"go","sham":0,"trial_type":"pit-trial","trial_index":55,"time_elapsed":266953,"internal_node_id":"0.0-30.0","task_version":"battery-v0.2-trt","session":2},{"rune":"R","rune_set":"bacs1","hex":"#3366ff99","correct":32,"choice":32,"rt":611.0000000335276,"accuracy":1,"outcome":"+10","keys":[2112.0000001974404],"total_keys":1,"block":1,"trial":26,"stimulus":3,"robot":1,"valence":"win","action":"go","sham":0,"trial_type":"pit-trial","trial_index":56,"time_elapsed":270272,"internal_node_id":"0.0-31.0","task_version":"battery-v0.2-trt","session":2},{"rune":"B","rune_set":"bacs1","hex":"#f73b6a7A","correct":-1,"choice":-1,"rt":-1,"accuracy":1,"outcome":"-10","keys":[],"total_keys":0,"block":1,"trial":27,"stimulus":0,"robot":4,"valence":"lose","action":"no-go","sham":1,"trial_type":"pit-trial","trial_index":57,"time_elapsed":274279,"internal_node_id":"0.0-32.0","task_version":"battery-v0.2-trt","session":2},{"rune":"Z","rune_set":"bacs1","hex":"#f73b6a7A","correct":32,"choice":32,"rt":716.0000000149012,"accuracy":1,"outcome":"-1","keys":[2216.000000014901],"total_keys":1,"block":1,"trial":28,"stimulus":1,"robot":3,"valence":"lose","action":"go","sham":0,"trial_type":"pit-trial","trial_index":58,"time_elapsed":277702,"internal_node_id":"0.0-33.0","task_version":"battery-v0.2-trt","session":2},{"rune":"Z","rune_set":"bacs1","hex":"#f73b6a7A","correct":32,"choice":32,"rt":706.9999999366701,"accuracy":1,"outcome":"-1","keys":[2206.000000005588],"total_keys":1,"block":1,"trial":29,"stimulus":1,"robot":3,"valence":"lose","action":"go","sham":0,"trial_type":"pit-trial","trial_index":59,"time_elapsed":281115,"internal_node_id":"0.0-34.0","task_version":"battery-v0.2-trt","session":2},{"rune":"J","rune_set":"bacs1","hex":"#f73b6a7A","correct":32,"choice":32,"rt":727.0000001881272,"accuracy":1,"outcome":"-1","keys":[2227.000000188127],"total_keys":1,"block":1,"trial":30,"stimulus":2,"robot":3,"valence":"lose","action":"go","sham":0,"trial_type":"pit-trial","trial_index":60,"time_elapsed":284549,"internal_node_id":"0.0-35.0","task_version":"battery-v0.2-trt","session":2},{"rune":"R","rune_set":"bacs1","hex":"#3366ff99","correct":32,"choice":32,"rt":594.9999999720603,"accuracy":1,"outcome":"+1","keys":[2095.9999999031425],"total_keys":1,"block":1,"trial":31,"stimulus":3,"robot":1,"valence":"win","action":"go","sham":1,"trial_type":"pit-trial","trial_index":61,"time_elapsed":287851,"internal_node_id":"0.0-36.0","task_version":"battery-v0.2-trt","session":2},{"rune":"B","rune_set":"bacs1","hex":"#f73b6a7A","correct":-1,"choice":-1,"rt":-1,"accuracy":1,"outcome":"-1","keys":[],"total_keys":0,"block":1,"trial":32,"stimulus":0,"robot":4,"valence":"lose","action":"no-go","sham":0,"trial_type":"pit-trial","trial_index":62,"time_elapsed":291854,"internal_node_id":"0.0-37.0","task_version":"battery-v0.2-trt","session":2},{"rune":"B","rune_set":"bacs1","hex":"#f73b6a7A","correct":-1,"choice":-1,"rt":-1,"accuracy":1,"outcome":"-10","keys":[],"total_keys":0,"block":1,"trial":33,"stimulus":0,"robot":4,"valence":"lose","action":"no-go","sham":1,"trial_type":"pit-trial","trial_index":63,"time_elapsed":295860,"internal_node_id":"0.0-38.0","task_version":"battery-v0.2-trt","session":2},{"rune":"V","rune_set":"bacs1","hex":"#f73b6a7A","correct":-1,"choice":32,"rt":1121.0000000428408,"accuracy":0,"outcome":"-10","keys":[2621.999999973923],"total_keys":1,"block":1,"trial":34,"stimulus":4,"robot":4,"valence":"lose","action":"no-go","sham":0,"trial_type":"pit-trial","trial_index":64,"time_elapsed":299688,"internal_node_id":"0.0-39.0","task_version":"battery-v0.2-trt","session":2},{"rune":"Z","rune_set":"bacs1","hex":"#f73b6a7A","correct":32,"choice":32,"rt":787.0000000111759,"accuracy":1,"outcome":"-1","keys":[2287.999999942258],"total_keys":1,"block":1,"trial":35,"stimulus":1,"robot":3,"valence":"lose","action":"go","sham":0,"trial_type":"pit-trial","trial_index":65,"time_elapsed":303189,"internal_node_id":"0.0-40.0","task_version":"battery-v0.2-trt","session":2},{"rune":"R","rune_set":"bacs1","hex":"#3366ff99","correct":32,"choice":32,"rt":763.0000000353903,"accuracy":1,"outcome":"+1","keys":[2263.9999999664724],"total_keys":1,"block":1,"trial":36,"stimulus":3,"robot":1,"valence":"win","action":"go","sham":1,"trial_type":"pit-trial","trial_index":66,"time_elapsed":306661,"internal_node_id":"0.0-41.0","task_version":"battery-v0.2-trt","session":2},{"rune":"Z","rune_set":"bacs1","hex":"#f73b6a7A","correct":32,"choice":32,"rt":688.0000000819564,"accuracy":1,"outcome":"-1","keys":[2189.0000000130385],"total_keys":1,"block":1,"trial":37,"stimulus":1,"robot":3,"valence":"lose","action":"go","sham":0,"trial_type":"pit-trial","trial_index":67,"time_elapsed":310057,"internal_node_id":"0.0-42.0","task_version":"battery-v0.2-trt","session":2},{"rune":"B","rune_set":"bacs1","hex":"#f73b6a7A","correct":-1,"choice":-1,"rt":-1,"accuracy":1,"outcome":"-1","keys":[],"total_keys":0,"block":1,"trial":38,"stimulus":0,"robot":4,"valence":"lose","action":"no-go","sham":0,"trial_type":"pit-trial","trial_index":68,"time_elapsed":314066,"internal_node_id":"0.0-43.0","task_version":"battery-v0.2-trt","session":2},{"rune":"R","rune_set":"bacs1","hex":"#3366ff99","correct":32,"choice":-1,"rt":-1,"accuracy":0,"outcome":"+1","keys":[],"total_keys":0,"block":1,"trial":39,"stimulus":3,"robot":1,"valence":"win","action":"go","sham":0,"trial_type":"pit-trial","trial_index":69,"time_elapsed":318072,"internal_node_id":"0.0-44.0","task_version":"battery-v0.2-trt","session":2},{"rune":"V","rune_set":"bacs1","hex":"#f73b6a7A","correct":-1,"choice":-1,"rt":-1,"accuracy":1,"outcome":"-1","keys":[],"total_keys":0,"block":1,"trial":40,"stimulus":4,"robot":4,"valence":"lose","action":"no-go","sham":0,"trial_type":"pit-trial","trial_index":70,"time_elapsed":322078,"internal_node_id":"0.0-45.0","task_version":"battery-v0.2-trt","session":2},{"rune":"E","rune_set":"bacs1","hex":"#3366ff99","correct":-1,"choice":32,"rt":856.0000001452863,"accuracy":0,"outcome":"+1","keys":[2356.0000001452863],"total_keys":1,"block":1,"trial":41,"stimulus":5,"robot":2,"valence":"win","action":"no-go","sham":0,"trial_type":"pit-trial","trial_index":71,"time_elapsed":325641,"internal_node_id":"0.0-46.0","task_version":"battery-v0.2-trt","session":2},{"rune":"Z","rune_set":"bacs1","hex":"#f73b6a7A","correct":32,"choice":32,"rt":861.9999999646097,"accuracy":1,"outcome":"-1","keys":[2362.999999895692],"total_keys":1,"block":1,"trial":42,"stimulus":1,"robot":3,"valence":"lose","action":"go","sham":0,"trial_type":"pit-trial","trial_index":72,"time_elapsed":329210,"internal_node_id":"0.0-47.0","task_version":"battery-v0.2-trt","session":2},{"rune":"V","rune_set":"bacs1","hex":"#f73b6a7A","correct":-1,"choice":-1,"rt":-1,"accuracy":1,"outcome":"-1","keys":[],"total_keys":0,"block":1,"trial":43,"stimulus":4,"robot":4,"valence":"lose","action":"no-go","sham":0,"trial_type":"pit-trial","trial_index":73,"time_elapsed":333217,"internal_node_id":"0.0-48.0","task_version":"battery-v0.2-trt","session":2},{"rune":"B","rune_set":"bacs1","hex":"#f73b6a7A","correct":-1,"choice":-1,"rt":-1,"accuracy":1,"outcome":"-1","keys":[],"total_keys":0,"block":1,"trial":44,"stimulus":0,"robot":4,"valence":"lose","action":"no-go","sham":0,"trial_type":"pit-trial","trial_index":74,"time_elapsed":337224,"internal_node_id":"0.0-49.0","task_version":"battery-v0.2-trt","session":2},{"rune":"B","rune_set":"bacs1","hex":"#f73b6a7A","correct":-1,"choice":-1,"rt":-1,"accuracy":1,"outcome":"-1","keys":[],"total_keys":0,"block":1,"trial":45,"stimulus":0,"robot":4,"valence":"lose","action":"no-go","sham":0,"trial_type":"pit-trial","trial_index":75,"time_elapsed":341230,"internal_node_id":"0.0-50.0","task_version":"battery-v0.2-trt","session":2},{"rune":"E","rune_set":"bacs1","hex":"#3366ff99","correct":-1,"choice":-1,"rt":-1,"accuracy":1,"outcome":"+10","keys":[],"total_keys":0,"block":1,"trial":46,"stimulus":5,"robot":2,"valence":"win","action":"no-go","sham":0,"trial_type":"pit-trial","trial_index":76,"time_elapsed":345235,"internal_node_id":"0.0-51.0","task_version":"battery-v0.2-trt","session":2},{"rune":"V","rune_set":"bacs1","hex":"#f73b6a7A","correct":-1,"choice":-1,"rt":-1,"accuracy":1,"outcome":"-1","keys":[],"total_keys":0,"block":1,"trial":47,"stimulus":4,"robot":4,"valence":"lose","action":"no-go","sham":0,"trial_type":"pit-trial","trial_index":77,"time_elapsed":349241,"internal_node_id":"0.0-52.0","task_version":"battery-v0.2-trt","session":2},{"rune":"Z","rune_set":"bacs1","hex":"#f73b6a7A","correct":32,"choice":32,"rt":859.9999998696148,"accuracy":1,"outcome":"-1","keys":[2361.0000000335276],"total_keys":1,"block":1,"trial":48,"stimulus":1,"robot":3,"valence":"lose","action":"go","sham":0,"trial_type":"pit-trial","trial_index":78,"time_elapsed":352809,"internal_node_id":"0.0-53.0","task_version":"battery-v0.2-trt","session":2},{"rune":"V","rune_set":"bacs1","hex":"#f73b6a7A","correct":-1,"choice":-1,"rt":-1,"accuracy":1,"outcome":"-10","keys":[],"total_keys":0,"block":1,"trial":49,"stimulus":4,"robot":4,"valence":"lose","action":"no-go","sham":1,"trial_type":"pit-trial","trial_index":79,"time_elapsed":356816,"internal_node_id":"0.0-54.0","task_version":"battery-v0.2-trt","session":2},{"rune":"F","rune_set":"bacs1","hex":"#3366ff99","correct":32,"choice":32,"rt":869.9999998789281,"accuracy":1,"outcome":"+10","keys":[2371.000000042841],"total_keys":1,"block":1,"trial":50,"stimulus":7,"robot":1,"valence":"win","action":"go","sham":0,"trial_type":"pit-trial","trial_index":80,"time_elapsed":360392,"internal_node_id":"0.0-55.0","task_version":"battery-v0.2-trt","session":2},{"rune":"T","rune_set":"bacs1","hex":"#f73b6a7A","correct":-1,"choice":-1,"rt":-1,"accuracy":1,"outcome":"-10","keys":[],"total_keys":0,"block":1,"trial":51,"stimulus":6,"robot":4,"valence":"lose","action":"no-go","sham":1,"trial_type":"pit-trial","trial_index":81,"time_elapsed":364398,"internal_node_id":"0.0-56.0","task_version":"battery-v0.2-trt","session":2},{"rune":"E","rune_set":"bacs1","hex":"#3366ff99","correct":-1,"choice":-1,"rt":-1,"accuracy":1,"outcome":"+10","keys":[],"total_keys":0,"block":1,"trial":52,"stimulus":5,"robot":2,"valence":"win","action":"no-go","sham":0,"trial_type":"pit-trial","trial_index":82,"time_elapsed":368403,"internal_node_id":"0.0-57.0","task_version":"battery-v0.2-trt","session":2},{"rune":"V","rune_set":"bacs1","hex":"#f73b6a7A","correct":-1,"choice":-1,"rt":-1,"accuracy":1,"outcome":"-1","keys":[],"total_keys":0,"block":1,"trial":53,"stimulus":4,"robot":4,"valence":"lose","action":"no-go","sham":0,"trial_type":"pit-trial","trial_index":83,"time_elapsed":372410,"internal_node_id":"0.0-58.0","task_version":"battery-v0.2-trt","session":2},{"rune":"T","rune_set":"bacs1","hex":"#f73b6a7A","correct":-1,"choice":32,"rt":752.0000000949949,"accuracy":0,"outcome":"-1","keys":[2253.000000026077],"total_keys":1,"block":1,"trial":54,"stimulus":6,"robot":4,"valence":"lose","action":"no-go","sham":1,"trial_type":"pit-trial","trial_index":84,"time_elapsed":375869,"internal_node_id":"0.0-59.0","task_version":"battery-v0.2-trt","session":2},{"rune":"E","rune_set":"bacs1","hex":"#3366ff99","correct":-1,"choice":-1,"rt":-1,"accuracy":1,"outcome":"+10","keys":[],"total_keys":0,"block":1,"trial":55,"stimulus":5,"robot":2,"valence":"win","action":"no-go","sham":0,"trial_type":"pit-trial","trial_index":85,"time_elapsed":379875,"internal_node_id":"0.0-60.0","task_version":"battery-v0.2-trt","session":2},{"rune":"F","rune_set":"bacs1","hex":"#3366ff99","correct":32,"choice":32,"rt":656.0000001918525,"accuracy":1,"outcome":"+10","keys":[2157.0000001229346],"total_keys":1,"block":1,"trial":56,"stimulus":7,"robot":1,"valence":"win","action":"go","sham":0,"trial_type":"pit-trial","trial_index":86,"time_elapsed":383239,"internal_node_id":"0.0-61.0","task_version":"battery-v0.2-trt","session":2},{"rune":"T","rune_set":"bacs1","hex":"#f73b6a7A","correct":-1,"choice":32,"rt":661.9999997783452,"accuracy":0,"outcome":"-1","keys":[2161.999999778345],"total_keys":1,"block":1,"trial":57,"stimulus":6,"robot":4,"valence":"lose","action":"no-go","sham":1,"trial_type":"pit-trial","trial_index":87,"time_elapsed":386608,"internal_node_id":"0.0-62.0","task_version":"battery-v0.2-trt","session":2},{"rune":"F","rune_set":"bacs1","hex":"#3366ff99","correct":32,"choice":32,"rt":577.9999999795109,"accuracy":1,"outcome":"+10","keys":[2087.000000057742],"total_keys":1,"block":1,"trial":58,"stimulus":7,"robot":1,"valence":"win","action":"go","sham":0,"trial_type":"pit-trial","trial_index":88,"time_elapsed":389902,"internal_node_id":"0.0-63.0","task_version":"battery-v0.2-trt","session":2},{"rune":"V","rune_set":"bacs1","hex":"#f73b6a7A","correct":-1,"choice":-1,"rt":-1,"accuracy":1,"outcome":"-1","keys":[],"total_keys":0,"block":1,"trial":59,"stimulus":4,"robot":4,"valence":"lose","action":"no-go","sham":0,"trial_type":"pit-trial","trial_index":89,"time_elapsed":393906,"internal_node_id":"0.0-64.0","task_version":"battery-v0.2-trt","session":2},{"rune":"E","rune_set":"bacs1","hex":"#3366ff99","correct":-1,"choice":-1,"rt":-1,"accuracy":1,"outcome":"+10","keys":[],"total_keys":0,"block":1,"trial":60,"stimulus":5,"robot":2,"valence":"win","action":"no-go","sham":0,"trial_type":"pit-trial","trial_index":90,"time_elapsed":397910,"internal_node_id":"0.0-65.0","task_version":"battery-v0.2-trt","session":2},{"rune":"E","rune_set":"bacs1","hex":"#3366ff99","correct":-1,"choice":-1,"rt":-1,"accuracy":1,"outcome":"+10","keys":[],"total_keys":0,"block":1,"trial":61,"stimulus":5,"robot":2,"valence":"win","action":"no-go","sham":0,"trial_type":"pit-trial","trial_index":91,"time_elapsed":401917,"internal_node_id":"0.0-66.0","task_version":"battery-v0.2-trt","session":2},{"rune":"T","rune_set":"bacs1","hex":"#f73b6a7A","correct":-1,"choice":32,"rt":702.9999999795109,"accuracy":0,"outcome":"-1","keys":[2204.0000001434237],"total_keys":1,"block":1,"trial":62,"stimulus":6,"robot":4,"valence":"lose","action":"no-go","sham":1,"trial_type":"pit-trial","trial_index":92,"time_elapsed":405326,"internal_node_id":"0.0-67.0","task_version":"battery-v0.2-trt","session":2},{"rune":"V","rune_set":"bacs1","hex":"#f73b6a7A","correct":-1,"choice":-1,"rt":-1,"accuracy":1,"outcome":"-1","keys":[],"total_keys":0,"block":1,"trial":63,"stimulus":4,"robot":4,"valence":"lose","action":"no-go","sham":0,"trial_type":"pit-trial","trial_index":93,"time_elapsed":409332,"internal_node_id":"0.0-68.0","task_version":"battery-v0.2-trt","session":2},{"rune":"F","rune_set":"bacs1","hex":"#3366ff99","correct":32,"choice":32,"rt":654.0000000968575,"accuracy":1,"outcome":"+10","keys":[2154.0000000968575],"total_keys":1,"block":1,"trial":64,"stimulus":7,"robot":1,"valence":"win","action":"go","sham":0,"trial_type":"pit-trial","trial_index":94,"time_elapsed":412694,"internal_node_id":"0.0-69.0","task_version":"battery-v0.2-trt","session":2},{"rune":"E","rune_set":"bacs1","hex":"#3366ff99","correct":-1,"choice":-1,"rt":-1,"accuracy":1,"outcome":"+1","keys":[],"total_keys":0,"block":1,"trial":65,"stimulus":5,"robot":2,"valence":"win","action":"no-go","sham":1,"trial_type":"pit-trial","trial_index":95,"time_elapsed":416700,"internal_node_id":"0.0-70.0","task_version":"battery-v0.2-trt","session":2},{"rune":"F","rune_set":"bacs1","hex":"#3366ff99","correct":32,"choice":32,"rt":582.0000001695007,"accuracy":1,"outcome":"+1","keys":[2083.000000100583],"total_keys":1,"block":1,"trial":66,"stimulus":7,"robot":1,"valence":"win","action":"go","sham":1,"trial_type":"pit-trial","trial_index":96,"time_elapsed":419988,"internal_node_id":"0.0-71.0","task_version":"battery-v0.2-trt","session":2},{"rune":"V","rune_set":"bacs1","hex":"#f73b6a7A","correct":-1,"choice":-1,"rt":-1,"accuracy":1,"outcome":"-10","keys":[],"total_keys":0,"block":1,"trial":67,"stimulus":4,"robot":4,"valence":"lose","action":"no-go","sham":1,"trial_type":"pit-trial","trial_index":97,"time_elapsed":423995,"internal_node_id":"0.0-72.0","task_version":"battery-v0.2-trt","session":2},{"rune":"T","rune_set":"bacs1","hex":"#f73b6a7A","correct":-1,"choice":32,"rt":733.0000000074506,"accuracy":0,"outcome":"-10","keys":[2234.0000001713634],"total_keys":1,"block":1,"trial":68,"stimulus":6,"robot":4,"valence":"lose","action":"no-go","sham":0,"trial_type":"pit-trial","trial_index":98,"time_elapsed":427435,"internal_node_id":"0.0-73.0","task_version":"battery-v0.2-trt","session":2},{"rune":"E","rune_set":"bacs1","hex":"#3366ff99","correct":-1,"choice":-1,"rt":-1,"accuracy":1,"outcome":"+1","keys":[],"total_keys":0,"block":1,"trial":69,"stimulus":5,"robot":2,"valence":"win","action":"no-go","sham":1,"trial_type":"pit-trial","trial_index":99,"time_elapsed":431441,"internal_node_id":"0.0-74.0","task_version":"battery-v0.2-trt","session":2},{"rune":"V","rune_set":"bacs1","hex":"#f73b6a7A","correct":-1,"choice":-1,"rt":-1,"accuracy":1,"outcome":"-1","keys":[],"total_keys":0,"block":1,"trial":70,"stimulus":4,"robot":4,"valence":"lose","action":"no-go","sham":0,"trial_type":"pit-trial","trial_index":100,"time_elapsed":435448,"internal_node_id":"0.0-75.0","task_version":"battery-v0.2-trt","session":2},{"rune":"T","rune_set":"bacs1","hex":"#f73b6a7A","correct":-1,"choice":32,"rt":702.9999999795109,"accuracy":0,"outcome":"-10","keys":[2202.999999979511],"total_keys":1,"block":1,"trial":71,"stimulus":6,"robot":4,"valence":"lose","action":"no-go","sham":0,"trial_type":"pit-trial","trial_index":101,"time_elapsed":438858,"internal_node_id":"0.0-76.0","task_version":"battery-v0.2-trt","session":2},{"rune":"F","rune_set":"bacs1","hex":"#3366ff99","correct":32,"choice":32,"rt":580.0000000745058,"accuracy":1,"outcome":"+10","keys":[2081.000000005588],"total_keys":1,"block":1,"trial":72,"stimulus":7,"robot":1,"valence":"win","action":"go","sham":0,"trial_type":"pit-trial","trial_index":102,"time_elapsed":442144,"internal_node_id":"0.0-77.0","task_version":"battery-v0.2-trt","session":2},{"rune":"F","rune_set":"bacs1","hex":"#3366ff99","correct":32,"choice":32,"rt":540.0000000372529,"accuracy":1,"outcome":"+10","keys":[2040.999999968335],"total_keys":1,"block":1,"trial":73,"stimulus":7,"robot":1,"valence":"win","action":"go","sham":0,"trial_type":"pit-trial","trial_index":103,"time_elapsed":445393,"internal_node_id":"0.0-78.0","task_version":"battery-v0.2-trt","session":2},{"rune":"A","rune_set":"bacs1","hex":"#3366ff99","correct":32,"choice":32,"rt":976.0000000242144,"accuracy":1,"outcome":"+10","keys":[2476.9999999552965],"total_keys":1,"block":1,"trial":74,"stimulus":8,"robot":1,"valence":"win","action":"go","sham":0,"trial_type":"pit-trial","trial_index":104,"time_elapsed":449076,"internal_node_id":"0.0-79.0","task_version":"battery-v0.2-trt","session":2},{"rune":"T","rune_set":"bacs1","hex":"#f73b6a7A","correct":-1,"choice":32,"rt":725.9999997913837,"accuracy":0,"outcome":"-10","keys":[2226.9999999552965],"total_keys":1,"block":1,"trial":75,"stimulus":6,"robot":4,"valence":"lose","action":"no-go","sham":0,"trial_type":"pit-trial","trial_index":105,"time_elapsed":452509,"internal_node_id":"0.0-80.0","task_version":"battery-v0.2-trt","session":2},{"rune":"E","rune_set":"bacs1","hex":"#3366ff99","correct":-1,"choice":-1,"rt":-1,"accuracy":1,"outcome":"+10","keys":[],"total_keys":0,"block":1,"trial":76,"stimulus":5,"robot":2,"valence":"win","action":"no-go","sham":0,"trial_type":"pit-trial","trial_index":106,"time_elapsed":456517,"internal_node_id":"0.0-81.0","task_version":"battery-v0.2-trt","session":2},{"rune":"F","rune_set":"bacs1","hex":"#3366ff99","correct":32,"choice":32,"rt":685.0000000558794,"accuracy":1,"outcome":"+10","keys":[2185.9999999869615],"total_keys":1,"block":1,"trial":77,"stimulus":7,"robot":1,"valence":"win","action":"go","sham":0,"trial_type":"pit-trial","trial_index":107,"time_elapsed":459909,"internal_node_id":"0.0-82.0","task_version":"battery-v0.2-trt","session":2},{"rune":"E","rune_set":"bacs1","hex":"#3366ff99","correct":-1,"choice":-1,"rt":-1,"accuracy":1,"outcome":"+1","keys":[],"total_keys":0,"block":1,"trial":78,"stimulus":5,"robot":2,"valence":"win","action":"no-go","sham":1,"trial_type":"pit-trial","trial_index":108,"time_elapsed":463917,"internal_node_id":"0.0-83.0","task_version":"battery-v0.2-trt","session":2},{"rune":"A","rune_set":"bacs1","hex":"#3366ff99","correct":32,"choice":32,"rt":555.9999998658895,"accuracy":1,"outcome":"+10","keys":[2088.9999999199063],"total_keys":1,"block":1,"trial":79,"stimulus":8,"robot":1,"valence":"win","action":"go","sham":0,"trial_type":"pit-trial","trial_index":109,"time_elapsed":467212,"internal_node_id":"0.0-84.0","task_version":"battery-v0.2-trt","session":2},{"rune":"T","rune_set":"bacs1","hex":"#f73b6a7A","correct":-1,"choice":32,"rt":531.9999998901039,"accuracy":0,"outcome":"-1","keys":[2182.9999999608845],"total_keys":1,"block":1,"trial":80,"stimulus":6,"robot":4,"valence":"lose","action":"no-go","sham":1,"trial_type":"pit-trial","trial_index":110,"time_elapsed":470611,"internal_node_id":"0.0-85.0","task_version":"battery-v0.2-trt","session":2},{"rune":"A","rune_set":"bacs1","hex":"#3366ff99","correct":32,"choice":32,"rt":641.9999999925494,"accuracy":1,"outcome":"+10","keys":[2148.0000000447035],"total_keys":1,"block":1,"trial":81,"stimulus":8,"robot":1,"valence":"win","action":"go","sham":0,"trial_type":"pit-trial","trial_index":111,"time_elapsed":473999,"internal_node_id":"0.0-86.0","task_version":"battery-v0.2-trt","session":2},{"rune":"C","rune_set":"bacs1","hex":"#3366ff99","correct":-1,"choice":-1,"rt":-1,"accuracy":1,"outcome":"+10","keys":[],"total_keys":0,"block":1,"trial":82,"stimulus":9,"robot":2,"valence":"win","action":"no-go","sham":0,"trial_type":"pit-trial","trial_index":112,"time_elapsed":478006,"internal_node_id":"0.0-87.0","task_version":"battery-v0.2-trt","session":2},{"rune":"L","rune_set":"bacs1","hex":"#f73b6a7A","correct":32,"choice":-1,"rt":-1,"accuracy":0,"outcome":"-10","keys":[],"total_keys":0,"block":1,"trial":83,"stimulus":10,"robot":3,"valence":"lose","action":"go","sham":0,"trial_type":"pit-trial","trial_index":113,"time_elapsed":482014,"internal_node_id":"0.0-88.0","task_version":"battery-v0.2-trt","session":2},{"rune":"E","rune_set":"bacs1","hex":"#3366ff99","correct":-1,"choice":-1,"rt":-1,"accuracy":1,"outcome":"+10","keys":[],"total_keys":0,"block":1,"trial":84,"stimulus":5,"robot":2,"valence":"win","action":"no-go","sham":0,"trial_type":"pit-trial","trial_index":114,"time_elapsed":486021,"internal_node_id":"0.0-89.0","task_version":"battery-v0.2-trt","session":2},{"rune":"A","rune_set":"bacs1","hex":"#3366ff99","correct":32,"choice":32,"rt":621.999999973923,"accuracy":1,"outcome":"+10","keys":[2123.0000001378357],"total_keys":1,"block":1,"trial":85,"stimulus":8,"robot":1,"valence":"win","action":"go","sham":0,"trial_type":"pit-trial","trial_index":115,"time_elapsed":489349,"internal_node_id":"0.0-90.0","task_version":"battery-v0.2-trt","session":2},{"rune":"C","rune_set":"bacs1","hex":"#3366ff99","correct":-1,"choice":-1,"rt":-1,"accuracy":1,"outcome":"+1","keys":[],"total_keys":0,"block":1,"trial":86,"stimulus":9,"robot":2,"valence":"win","action":"no-go","sham":1,"trial_type":"pit-trial","trial_index":116,"time_elapsed":493354,"internal_node_id":"0.0-91.0","task_version":"battery-v0.2-trt","session":2},{"rune":"E","rune_set":"bacs1","hex":"#3366ff99","correct":-1,"choice":-1,"rt":-1,"accuracy":1,"outcome":"+10","keys":[],"total_keys":0,"block":1,"trial":87,"stimulus":5,"robot":2,"valence":"win","action":"no-go","sham":0,"trial_type":"pit-trial","trial_index":117,"time_elapsed":497361,"internal_node_id":"0.0-92.0","task_version":"battery-v0.2-trt","session":2},{"rune":"L","rune_set":"bacs1","hex":"#f73b6a7A","correct":32,"choice":32,"rt":730.9999999124557,"accuracy":1,"outcome":"-1","keys":[2231.999999843538],"total_keys":1,"block":1,"trial":88,"stimulus":10,"robot":3,"valence":"lose","action":"go","sham":0,"trial_type":"pit-trial","trial_index":118,"time_elapsed":500800,"internal_node_id":"0.0-93.0","task_version":"battery-v0.2-trt","session":2},{"rune":"C","rune_set":"bacs1","hex":"#3366ff99","correct":-1,"choice":32,"rt":760.9999999403954,"accuracy":0,"outcome":"+1","keys":[2260.9999999403954],"total_keys":1,"block":1,"trial":89,"stimulus":9,"robot":2,"valence":"win","action":"no-go","sham":0,"trial_type":"pit-trial","trial_index":119,"time_elapsed":504267,"internal_node_id":"0.0-94.0","task_version":"battery-v0.2-trt","session":2},{"rune":"L","rune_set":"bacs1","hex":"#f73b6a7A","correct":32,"choice":32,"rt":756.0000000521541,"accuracy":1,"outcome":"-1","keys":[2256.000000052154],"total_keys":1,"block":1,"trial":90,"stimulus":10,"robot":3,"valence":"lose","action":"go","sham":0,"trial_type":"pit-trial","trial_index":120,"time_elapsed":507729,"internal_node_id":"0.0-95.0","task_version":"battery-v0.2-trt","session":2},{"rune":"A","rune_set":"bacs1","hex":"#3366ff99","correct":32,"choice":32,"rt":662.999999942258,"accuracy":1,"outcome":"+1","keys":[2162.999999942258],"total_keys":1,"block":1,"trial":91,"stimulus":8,"robot":1,"valence":"win","action":"go","sham":1,"trial_type":"pit-trial","trial_index":121,"time_elapsed":511097,"internal_node_id":"0.0-96.0","task_version":"battery-v0.2-trt","session":2},{"rune":"Q","rune_set":"bacs1","hex":"#3366ff99","correct":-1,"choice":32,"rt":989.9999999906868,"accuracy":0,"outcome":"+1","keys":[2490.999999921769],"total_keys":1,"block":1,"trial":92,"stimulus":11,"robot":2,"valence":"win","action":"no-go","sham":0,"trial_type":"pit-trial","trial_index":122,"time_elapsed":514795,"internal_node_id":"0.0-97.0","task_version":"battery-v0.2-trt","session":2},{"rune":"L","rune_set":"bacs1","hex":"#f73b6a7A","correct":32,"choice":32,"rt":682.0000000298023,"accuracy":1,"outcome":"-1","keys":[2182.0000000298023],"total_keys":1,"block":1,"trial":93,"stimulus":10,"robot":3,"valence":"lose","action":"go","sham":0,"trial_type":"pit-trial","trial_index":123,"time_elapsed":518185,"internal_node_id":"0.0-98.0","task_version":"battery-v0.2-trt","session":2},{"rune":"C","rune_set":"bacs1","hex":"#3366ff99","correct":-1,"choice":32,"rt":705.0000000745058,"accuracy":0,"outcome":"+10","keys":[2207.0000001695007],"total_keys":1,"block":1,"trial":94,"stimulus":9,"robot":2,"valence":"win","action":"no-go","sham":1,"trial_type":"pit-trial","trial_index":124,"time_elapsed":521601,"internal_node_id":"0.0-99.0","task_version":"battery-v0.2-trt","session":2},{"rune":"A","rune_set":"bacs1","hex":"#3366ff99","correct":32,"choice":32,"rt":707.9999998677522,"accuracy":1,"outcome":"+10","keys":[2209.000000031665],"total_keys":1,"block":1,"trial":95,"stimulus":8,"robot":1,"valence":"win","action":"go","sham":0,"trial_type":"pit-trial","trial_index":125,"time_elapsed":525018,"internal_node_id":"0.0-100.0","task_version":"battery-v0.2-trt","session":2},{"rune":"Q","rune_set":"bacs1","hex":"#3366ff99","correct":-1,"choice":32,"rt":1134.000000078231,"accuracy":0,"outcome":"+1","keys":[2635.000000009313],"total_keys":1,"block":1,"trial":96,"stimulus":11,"robot":2,"valence":"win","action":"no-go","sham":0,"trial_type":"pit-trial","trial_index":126,"time_elapsed":528859,"internal_node_id":"0.0-101.0","task_version":"battery-v0.2-trt","session":2},{"rune":"C","rune_set":"bacs1","hex":"#3366ff99","correct":-1,"choice":32,"rt":815.9999998752028,"accuracy":0,"outcome":"+1","keys":[2315.999999875203],"total_keys":1,"block":1,"trial":97,"stimulus":9,"robot":2,"valence":"win","action":"no-go","sham":0,"trial_type":"pit-trial","trial_index":127,"time_elapsed":532382,"internal_node_id":"0.0-102.0","task_version":"battery-v0.2-trt","session":2},{"rune":"L","rune_set":"bacs1","hex":"#f73b6a7A","correct":32,"choice":32,"rt":611.0000000335276,"accuracy":1,"outcome":"-1","keys":[2111.0000000335276],"total_keys":1,"block":1,"trial":98,"stimulus":10,"robot":3,"valence":"lose","action":"go","sham":0,"trial_type":"pit-trial","trial_index":128,"time_elapsed":535699,"internal_node_id":"0.0-103.0","task_version":"battery-v0.2-trt","session":2},{"rune":"A","rune_set":"bacs1","hex":"#3366ff99","correct":32,"choice":32,"rt":686.9999999180436,"accuracy":1,"outcome":"+1","keys":[2186.9999999180436],"total_keys":1,"block":1,"trial":99,"stimulus":8,"robot":1,"valence":"win","action":"go","sham":1,"trial_type":"pit-trial","trial_index":129,"time_elapsed":539092,"internal_node_id":"0.0-104.0","task_version":"battery-v0.2-trt","session":2},{"rune":"Q","rune_set":"bacs1","hex":"#3366ff99","correct":-1,"choice":-1,"rt":-1,"accuracy":1,"outcome":"+10","keys":[],"total_keys":0,"block":1,"trial":100,"stimulus":11,"robot":2,"valence":"win","action":"no-go","sham":0,"trial_type":"pit-trial","trial_index":130,"time_elapsed":543099,"internal_node_id":"0.0-105.0","task_version":"battery-v0.2-trt","session":2},{"rune":"L","rune_set":"bacs1","hex":"#f73b6a7A","correct":32,"choice":32,"rt":604.9999999813735,"accuracy":1,"outcome":"-1","keys":[2108.9999999385327],"total_keys":1,"block":1,"trial":101,"stimulus":10,"robot":3,"valence":"lose","action":"go","sham":0,"trial_type":"pit-trial","trial_index":131,"time_elapsed":546416,"internal_node_id":"0.0-106.0","task_version":"battery-v0.2-trt","session":2},{"rune":"A","rune_set":"bacs1","hex":"#3366ff99","correct":32,"choice":32,"rt":683.9999998919666,"accuracy":1,"outcome":"+10","keys":[2183.9999998919666],"total_keys":1,"block":1,"trial":102,"stimulus":8,"robot":1,"valence":"win","action":"go","sham":0,"trial_type":"pit-trial","trial_index":132,"time_elapsed":549809,"internal_node_id":"0.0-107.0","task_version":"battery-v0.2-trt","session":2},{"rune":"Q","rune_set":"bacs1","hex":"#3366ff99","correct":-1,"choice":-1,"rt":-1,"accuracy":1,"outcome":"+10","keys":[],"total_keys":0,"block":1,"trial":103,"stimulus":11,"robot":2,"valence":"win","action":"no-go","sham":0,"trial_type":"pit-trial","trial_index":133,"time_elapsed":553815,"internal_node_id":"0.0-108.0","task_version":"battery-v0.2-trt","session":2},{"rune":"C","rune_set":"bacs1","hex":"#3366ff99","correct":-1,"choice":32,"rt":716.0000000149012,"accuracy":0,"outcome":"+1","keys":[2216.000000014901],"total_keys":1,"block":1,"trial":104,"stimulus":9,"robot":2,"valence":"win","action":"no-go","sham":0,"trial_type":"pit-trial","trial_index":134,"time_elapsed":557238,"internal_node_id":"0.0-109.0","task_version":"battery-v0.2-trt","session":2},{"rune":"A","rune_set":"bacs1","hex":"#3366ff99","correct":32,"choice":32,"rt":679.9999999348074,"accuracy":1,"outcome":"+10","keys":[2180.9999998658895],"total_keys":1,"block":1,"trial":105,"stimulus":8,"robot":1,"valence":"win","action":"go","sham":0,"trial_type":"pit-trial","trial_index":135,"time_elapsed":560626,"internal_node_id":"0.0-110.0","task_version":"battery-v0.2-trt","session":2},{"rune":"L","rune_set":"bacs1","hex":"#f73b6a7A","correct":32,"choice":32,"rt":706.9999999366701,"accuracy":1,"outcome":"-10","keys":[2207.999999867752],"total_keys":1,"block":1,"trial":106,"stimulus":10,"robot":3,"valence":"lose","action":"go","sham":1,"trial_type":"pit-trial","trial_index":136,"time_elapsed":564042,"internal_node_id":"0.0-111.0","task_version":"battery-v0.2-trt","session":2},{"rune":"Q","rune_set":"bacs1","hex":"#3366ff99","correct":-1,"choice":-1,"rt":-1,"accuracy":1,"outcome":"+10","keys":[],"total_keys":0,"block":1,"trial":107,"stimulus":11,"robot":2,"valence":"win","action":"no-go","sham":0,"trial_type":"pit-trial","trial_index":137,"time_elapsed":568049,"internal_node_id":"0.0-112.0","task_version":"battery-v0.2-trt","session":2},{"rune":"C","rune_set":"bacs1","hex":"#3366ff99","correct":-1,"choice":-1,"rt":-1,"accuracy":1,"outcome":"+1","keys":[],"total_keys":0,"block":1,"trial":108,"stimulus":9,"robot":2,"valence":"win","action":"no-go","sham":1,"trial_type":"pit-trial","trial_index":138,"time_elapsed":572055,"internal_node_id":"0.0-113.0","task_version":"battery-v0.2-trt","session":2},{"rune":"Q","rune_set":"bacs1","hex":"#3366ff99","correct":-1,"choice":-1,"rt":-1,"accuracy":1,"outcome":"+10","keys":[],"total_keys":0,"block":1,"trial":109,"stimulus":11,"robot":2,"valence":"win","action":"no-go","sham":0,"trial_type":"pit-trial","trial_index":139,"time_elapsed":576064,"internal_node_id":"0.0-114.0","task_version":"battery-v0.2-trt","session":2},{"rune":"A","rune_set":"bacs1","hex":"#3366ff99","correct":32,"choice":32,"rt":707.9999998677522,"accuracy":1,"outcome":"+10","keys":[2207.999999867752],"total_keys":1,"block":1,"trial":110,"stimulus":8,"robot":1,"valence":"win","action":"go","sham":0,"trial_type":"pit-trial","trial_index":140,"time_elapsed":579477,"internal_node_id":"0.0-115.0","task_version":"battery-v0.2-trt","session":2},{"rune":"L","rune_set":"bacs1","hex":"#f73b6a7A","correct":32,"choice":32,"rt":682.0000000298023,"accuracy":1,"outcome":"-1","keys":[2182.0000000298023],"total_keys":1,"block":1,"trial":111,"stimulus":10,"robot":3,"valence":"lose","action":"go","sham":0,"trial_type":"pit-trial","trial_index":141,"time_elapsed":582869,"internal_node_id":"0.0-116.0","task_version":"battery-v0.2-trt","session":2},{"rune":"C","rune_set":"bacs1","hex":"#3366ff99","correct":-1,"choice":-1,"rt":-1,"accuracy":1,"outcome":"+10","keys":[],"total_keys":0,"block":1,"trial":112,"stimulus":9,"robot":2,"valence":"win","action":"no-go","sham":0,"trial_type":"pit-trial","trial_index":142,"time_elapsed":586875,"internal_node_id":"0.0-117.0","task_version":"battery-v0.2-trt","session":2},{"rune":"Q","rune_set":"bacs1","hex":"#3366ff99","correct":-1,"choice":-1,"rt":-1,"accuracy":1,"outcome":"+10","keys":[],"total_keys":0,"block":1,"trial":113,"stimulus":11,"robot":2,"valence":"win","action":"no-go","sham":0,"trial_type":"pit-trial","trial_index":143,"time_elapsed":590882,"internal_node_id":"0.0-118.0","task_version":"battery-v0.2-trt","session":2},{"rune":"A","rune_set":"bacs1","hex":"#3366ff99","correct":32,"choice":32,"rt":594.0000000409782,"accuracy":1,"outcome":"+10","keys":[2094.9999999720603],"total_keys":1,"block":1,"trial":114,"stimulus":8,"robot":1,"valence":"win","action":"go","sham":0,"trial_type":"pit-trial","trial_index":144,"time_elapsed":594184,"internal_node_id":"0.0-119.0","task_version":"battery-v0.2-trt","session":2},{"rune":"C","rune_set":"bacs1","hex":"#3366ff99","correct":-1,"choice":-1,"rt":-1,"accuracy":1,"outcome":"+10","keys":[],"total_keys":0,"block":1,"trial":115,"stimulus":9,"robot":2,"valence":"win","action":"no-go","sham":0,"trial_type":"pit-trial","trial_index":145,"time_elapsed":598191,"internal_node_id":"0.0-120.0","task_version":"battery-v0.2-trt","session":2},{"rune":"L","rune_set":"bacs1","hex":"#f73b6a7A","correct":32,"choice":32,"rt":672.9999999515712,"accuracy":1,"outcome":"-1","keys":[2172.999999951571],"total_keys":1,"block":1,"trial":116,"stimulus":10,"robot":3,"valence":"lose","action":"go","sham":0,"trial_type":"pit-trial","trial_index":146,"time_elapsed":601571,"internal_node_id":"0.0-121.0","task_version":"battery-v0.2-trt","session":2},{"rune":"A","rune_set":"bacs1","hex":"#3366ff99","correct":32,"choice":32,"rt":691.0000001080334,"accuracy":1,"outcome":"+10","keys":[2192.0000000391155],"total_keys":1,"block":1,"trial":117,"stimulus":8,"robot":1,"valence":"win","action":"go","sham":0,"trial_type":"pit-trial","trial_index":147,"time_elapsed":604969,"internal_node_id":"0.0-122.0","task_version":"battery-v0.2-trt","session":2},{"rune":"C","rune_set":"bacs1","hex":"#3366ff99","correct":-1,"choice":-1,"rt":-1,"accuracy":1,"outcome":"+10","keys":[],"total_keys":0,"block":1,"trial":118,"stimulus":9,"robot":2,"valence":"win","action":"no-go","sham":0,"trial_type":"pit-trial","trial_index":148,"time_elapsed":609004,"internal_node_id":"0.0-123.0","task_version":"battery-v0.2-trt","session":2},{"rune":"L","rune_set":"bacs1","hex":"#f73b6a7A","correct":32,"choice":32,"rt":604.9999999813735,"accuracy":1,"outcome":"-1","keys":[2106.0000001452863],"total_keys":1,"block":1,"trial":119,"stimulus":10,"robot":3,"valence":"lose","action":"go","sham":0,"trial_type":"pit-trial","trial_index":149,"time_elapsed":612318,"internal_node_id":"0.0-124.0","task_version":"battery-v0.2-trt","session":2},{"rune":"Q","rune_set":"bacs1","hex":"#3366ff99","correct":-1,"choice":-1,"rt":-1,"accuracy":1,"outcome":"+10","keys":[],"total_keys":0,"block":1,"trial":120,"stimulus":11,"robot":2,"valence":"win","action":"no-go","sham":0,"trial_type":"pit-trial","trial_index":150,"time_elapsed":616323,"internal_node_id":"0.0-125.0","task_version":"battery-v0.2-trt","session":2},{"view_history":"[{\"page_index\":0,\"viewing_time\":7450.0000001862645},{\"page_index\":1,\"viewing_time\":14626.999999862164}]","rt":22077.99999997951,"trial_type":"pit-instructions","trial_index":151,"time_elapsed":638405,"internal_node_id":"0.0-126.0","task_version":"battery-v0.2-trt","session":2},{"rune":"P","rune_set":"bacs1","hex":"#f73b6a7A","correct":-1,"choice":32,"rt":808.9999998919666,"accuracy":0,"outcome":"-10","keys":[2338.9999999199063],"total_keys":1,"block":2,"trial":121,"stimulus":2,"robot":4,"valence":"lose","action":"no-go","sham":0,"trial_type":"pit-trial","trial_index":152,"time_elapsed":641950,"internal_node_id":"0.0-127.0","task_version":"battery-v0.2-trt","session":2},{"rune":"M","rune_set":"bacs1","hex":"#3366ff99","correct":-1,"choice":32,"rt":648.0000000447035,"accuracy":0,"outcome":"+1","keys":[2148.9999999757856],"total_keys":1,"block":2,"trial":122,"stimulus":3,"robot":2,"valence":"win","action":"no-go","sham":0,"trial_type":"pit-trial","trial_index":153,"time_elapsed":645305,"internal_node_id":"0.0-128.0","task_version":"battery-v0.2-trt","session":2},{"rune":"H","rune_set":"bacs1","hex":"#f73b6a7A","correct":32,"choice":32,"rt":736.0000000335276,"accuracy":1,"outcome":"-1","keys":[2236.9999999646097],"total_keys":1,"block":2,"trial":123,"stimulus":1,"robot":3,"valence":"lose","action":"go","sham":0,"trial_type":"pit-trial","trial_index":154,"time_elapsed":648749,"internal_node_id":"0.0-129.0","task_version":"battery-v0.2-trt","session":2},{"rune":"Y","rune_set":"bacs1","hex":"#3366ff99","correct":32,"choice":32,"rt":635.9999999403954,"accuracy":1,"outcome":"+10","keys":[2136.9999998714775],"total_keys":1,"block":2,"trial":124,"stimulus":0,"robot":1,"valence":"win","action":"go","sham":0,"trial_type":"pit-trial","trial_index":155,"time_elapsed":652090,"internal_node_id":"0.0-130.0","task_version":"battery-v0.2-trt","session":2},{"rune":"M","rune_set":"bacs1","hex":"#3366ff99","correct":-1,"choice":-1,"rt":-1,"accuracy":1,"outcome":"+10","keys":[],"total_keys":0,"block":2,"trial":125,"stimulus":3,"robot":2,"valence":"win","action":"no-go","sham":0,"trial_type":"pit-trial","trial_index":156,"time_elapsed":656097,"internal_node_id":"0.0-131.0","task_version":"battery-v0.2-trt","session":2},{"rune":"Y","rune_set":"bacs1","hex":"#3366ff99","correct":32,"choice":32,"rt":700.999999884516,"accuracy":1,"outcome":"+10","keys":[2199.999999953434],"total_keys":1,"block":2,"trial":126,"stimulus":0,"robot":1,"valence":"win","action":"go","sham":0,"trial_type":"pit-trial","trial_index":157,"time_elapsed":659504,"internal_node_id":"0.0-132.0","task_version":"battery-v0.2-trt","session":2},{"rune":"P","rune_set":"bacs1","hex":"#f73b6a7A","correct":-1,"choice":-1,"rt":-1,"accuracy":1,"outcome":"-10","keys":[],"total_keys":0,"block":2,"trial":127,"stimulus":2,"robot":4,"valence":"lose","action":"no-go","sham":1,"trial_type":"pit-trial","trial_index":158,"time_elapsed":663509,"internal_node_id":"0.0-133.0","task_version":"battery-v0.2-trt","session":2},{"rune":"H","rune_set":"bacs1","hex":"#f73b6a7A","correct":32,"choice":32,"rt":452.0000000484288,"accuracy":1,"outcome":"-1","keys":[1952.0000000484288],"total_keys":1,"block":2,"trial":128,"stimulus":1,"robot":3,"valence":"lose","action":"go","sham":0,"trial_type":"pit-trial","trial_index":159,"time_elapsed":666666,"internal_node_id":"0.0-134.0","task_version":"battery-v0.2-trt","session":2},{"rune":"H","rune_set":"bacs1","hex":"#f73b6a7A","correct":32,"choice":32,"rt":636.9999998714775,"accuracy":1,"outcome":"-1","keys":[2136.9999998714775],"total_keys":1,"block":2,"trial":129,"stimulus":1,"robot":3,"valence":"lose","action":"go","sham":0,"trial_type":"pit-trial","trial_index":160,"time_elapsed":670010,"internal_node_id":"0.0-135.0","task_version":"battery-v0.2-trt","session":2},{"rune":"M","rune_set":"bacs1","hex":"#3366ff99","correct":-1,"choice":-1,"rt":-1,"accuracy":1,"outcome":"+1","keys":[],"total_keys":0,"block":2,"trial":130,"stimulus":3,"robot":2,"valence":"win","action":"no-go","sham":1,"trial_type":"pit-trial","trial_index":161,"time_elapsed":674016,"internal_node_id":"0.0-136.0","task_version":"battery-v0.2-trt","session":2},{"rune":"Y","rune_set":"bacs1","hex":"#3366ff99","correct":32,"choice":32,"rt":494.99999987892807,"accuracy":1,"outcome":"+10","keys":[1995.9999998100102],"total_keys":1,"block":2,"trial":131,"stimulus":0,"robot":1,"valence":"win","action":"go","sham":0,"trial_type":"pit-trial","trial_index":162,"time_elapsed":677219,"internal_node_id":"0.0-137.0","task_version":"battery-v0.2-trt","session":2},{"rune":"P","rune_set":"bacs1","hex":"#f73b6a7A","correct":-1,"choice":-1,"rt":-1,"accuracy":1,"outcome":"-1","keys":[],"total_keys":0,"block":2,"trial":132,"stimulus":2,"robot":4,"valence":"lose","action":"no-go","sham":0,"trial_type":"pit-trial","trial_index":163,"time_elapsed":681225,"internal_node_id":"0.0-138.0","task_version":"battery-v0.2-trt","session":2},{"rune":"H","rune_set":"bacs1","hex":"#f73b6a7A","correct":32,"choice":32,"rt":445.9999999962747,"accuracy":1,"outcome":"-1","keys":[1947.0000001601875],"total_keys":1,"block":2,"trial":133,"stimulus":1,"robot":3,"valence":"lose","action":"go","sham":0,"trial_type":"pit-trial","trial_index":164,"time_elapsed":684377,"internal_node_id":"0.0-139.0","task_version":"battery-v0.2-trt","session":2},{"rune":"Y","rune_set":"bacs1","hex":"#3366ff99","correct":32,"choice":32,"rt":611.0000000335276,"accuracy":1,"outcome":"+10","keys":[2112.0000001974404],"total_keys":1,"block":2,"trial":134,"stimulus":0,"robot":1,"valence":"win","action":"go","sham":0,"trial_type":"pit-trial","trial_index":165,"time_elapsed":687719,"internal_node_id":"0.0-140.0","task_version":"battery-v0.2-trt","session":2},{"rune":"M","rune_set":"bacs1","hex":"#3366ff99","correct":-1,"choice":-1,"rt":-1,"accuracy":1,"outcome":"+10","keys":[],"total_keys":0,"block":2,"trial":135,"stimulus":3,"robot":2,"valence":"win","action":"no-go","sham":0,"trial_type":"pit-trial","trial_index":166,"time_elapsed":691721,"internal_node_id":"0.0-141.0","task_version":"battery-v0.2-trt","session":2},{"rune":"P","rune_set":"bacs1","hex":"#f73b6a7A","correct":-1,"choice":-1,"rt":-1,"accuracy":1,"outcome":"-10","keys":[],"total_keys":0,"block":2,"trial":136,"stimulus":2,"robot":4,"valence":"lose","action":"no-go","sham":1,"trial_type":"pit-trial","trial_index":167,"time_elapsed":695726,"internal_node_id":"0.0-142.0","task_version":"battery-v0.2-trt","session":2},{"rune":"Y","rune_set":"bacs1","hex":"#3366ff99","correct":32,"choice":32,"rt":567.9999999701977,"accuracy":1,"outcome":"+10","keys":[2067.9999999701977],"total_keys":1,"block":2,"trial":137,"stimulus":0,"robot":1,"valence":"win","action":"go","sham":0,"trial_type":"pit-trial","trial_index":168,"time_elapsed":699001,"internal_node_id":"0.0-143.0","task_version":"battery-v0.2-trt","session":2},{"rune":"P","rune_set":"bacs1","hex":"#f73b6a7A","correct":-1,"choice":32,"rt":728.0000001192093,"accuracy":0,"outcome":"-10","keys":[2229.0000000502914],"total_keys":1,"block":2,"trial":138,"stimulus":2,"robot":4,"valence":"lose","action":"no-go","sham":0,"trial_type":"pit-trial","trial_index":169,"time_elapsed":702436,"internal_node_id":"0.0-144.0","task_version":"battery-v0.2-trt","session":2},{"rune":"H","rune_set":"bacs1","hex":"#f73b6a7A","correct":32,"choice":32,"rt":635.0000000093132,"accuracy":1,"outcome":"-1","keys":[2135.000000009313],"total_keys":1,"block":2,"trial":139,"stimulus":1,"robot":3,"valence":"lose","action":"go","sham":0,"trial_type":"pit-trial","trial_index":170,"time_elapsed":705778,"internal_node_id":"0.0-145.0","task_version":"battery-v0.2-trt","session":2},{"rune":"M","rune_set":"bacs1","hex":"#3366ff99","correct":-1,"choice":-1,"rt":-1,"accuracy":1,"outcome":"+10","keys":[],"total_keys":0,"block":2,"trial":140,"stimulus":3,"robot":2,"valence":"win","action":"no-go","sham":0,"trial_type":"pit-trial","trial_index":171,"time_elapsed":709786,"internal_node_id":"0.0-146.0","task_version":"battery-v0.2-trt","session":2},{"rune":"M","rune_set":"bacs1","hex":"#3366ff99","correct":-1,"choice":-1,"rt":-1,"accuracy":1,"outcome":"+10","keys":[],"total_keys":0,"block":2,"trial":141,"stimulus":3,"robot":2,"valence":"win","action":"no-go","sham":0,"trial_type":"pit-trial","trial_index":172,"time_elapsed":713791,"internal_node_id":"0.0-147.0","task_version":"battery-v0.2-trt","session":2},{"rune":"Y","rune_set":"bacs1","hex":"#3366ff99","correct":32,"choice":32,"rt":518.0000001564622,"accuracy":1,"outcome":"+1","keys":[2019.0000000875443],"total_keys":1,"block":2,"trial":142,"stimulus":0,"robot":1,"valence":"win","action":"go","sham":1,"trial_type":"pit-trial","trial_index":173,"time_elapsed":717017,"internal_node_id":"0.0-148.0","task_version":"battery-v0.2-trt","session":2},{"rune":"H","rune_set":"bacs1","hex":"#f73b6a7A","correct":32,"choice":32,"rt":739.9999999906868,"accuracy":1,"outcome":"-1","keys":[2240.999999921769],"total_keys":1,"block":2,"trial":143,"stimulus":1,"robot":3,"valence":"lose","action":"go","sham":0,"trial_type":"pit-trial","trial_index":174,"time_elapsed":720463,"internal_node_id":"0.0-149.0","task_version":"battery-v0.2-trt","session":2},{"rune":"P","rune_set":"bacs1","hex":"#f73b6a7A","correct":-1,"choice":32,"rt":818.0000002030283,"accuracy":0,"outcome":"-10","keys":[2319.0000001341105],"total_keys":1,"block":2,"trial":144,"stimulus":2,"robot":4,"valence":"lose","action":"no-go","sham":0,"trial_type":"pit-trial","trial_index":175,"time_elapsed":723988,"internal_node_id":"0.0-150.0","task_version":"battery-v0.2-trt","session":2},{"rune":"M","rune_set":"bacs1","hex":"#3366ff99","correct":-1,"choice":-1,"rt":-1,"accuracy":1,"outcome":"+10","keys":[],"total_keys":0,"block":2,"trial":145,"stimulus":3,"robot":2,"valence":"win","action":"no-go","sham":0,"trial_type":"pit-trial","trial_index":176,"time_elapsed":727994,"internal_node_id":"0.0-151.0","task_version":"battery-v0.2-trt","session":2},{"rune":"P","rune_set":"bacs1","hex":"#f73b6a7A","correct":-1,"choice":-1,"rt":-1,"accuracy":1,"outcome":"-1","keys":[],"total_keys":0,"block":2,"trial":146,"stimulus":2,"robot":4,"valence":"lose","action":"no-go","sham":0,"trial_type":"pit-trial","trial_index":177,"time_elapsed":732002,"internal_node_id":"0.0-152.0","task_version":"battery-v0.2-trt","session":2},{"rune":"H","rune_set":"bacs1","hex":"#f73b6a7A","correct":32,"choice":32,"rt":586.9999998249114,"accuracy":1,"outcome":"-1","keys":[2087.999999988824],"total_keys":1,"block":2,"trial":147,"stimulus":1,"robot":3,"valence":"lose","action":"go","sham":0,"trial_type":"pit-trial","trial_index":178,"time_elapsed":735296,"internal_node_id":"0.0-153.0","task_version":"battery-v0.2-trt","session":2},{"rune":"Y","rune_set":"bacs1","hex":"#3366ff99","correct":32,"choice":32,"rt":648.0000000447035,"accuracy":1,"outcome":"+10","keys":[2146.9999998807907],"total_keys":1,"block":2,"trial":148,"stimulus":0,"robot":1,"valence":"win","action":"go","sham":0,"trial_type":"pit-trial","trial_index":179,"time_elapsed":738651,"internal_node_id":"0.0-154.0","task_version":"battery-v0.2-trt","session":2},{"rune":"H","rune_set":"bacs1","hex":"#f73b6a7A","correct":32,"choice":32,"rt":595.9999999031425,"accuracy":1,"outcome":"-1","keys":[2097.000000067055],"total_keys":1,"block":2,"trial":149,"stimulus":1,"robot":3,"valence":"lose","action":"go","sham":0,"trial_type":"pit-trial","trial_index":180,"time_elapsed":741954,"internal_node_id":"0.0-155.0","task_version":"battery-v0.2-trt","session":2},{"rune":"Y","rune_set":"bacs1","hex":"#3366ff99","correct":32,"choice":32,"rt":577.0000000484288,"accuracy":1,"outcome":"+10","keys":[2077.999999979511],"total_keys":1,"block":2,"trial":150,"stimulus":0,"robot":1,"valence":"win","action":"go","sham":0,"trial_type":"pit-trial","trial_index":181,"time_elapsed":745237,"internal_node_id":"0.0-156.0","task_version":"battery-v0.2-trt","session":2},{"rune":"M","rune_set":"bacs1","hex":"#3366ff99","correct":-1,"choice":-1,"rt":-1,"accuracy":1,"outcome":"+1","keys":[],"total_keys":0,"block":2,"trial":151,"stimulus":3,"robot":2,"valence":"win","action":"no-go","sham":1,"trial_type":"pit-trial","trial_index":182,"time_elapsed":749247,"internal_node_id":"0.0-157.0","task_version":"battery-v0.2-trt","session":2},{"rune":"P","rune_set":"bacs1","hex":"#f73b6a7A","correct":-1,"choice":-1,"rt":-1,"accuracy":1,"outcome":"-1","keys":[],"total_keys":0,"block":2,"trial":152,"stimulus":2,"robot":4,"valence":"lose","action":"no-go","sham":0,"trial_type":"pit-trial","trial_index":183,"time_elapsed":753253,"internal_node_id":"0.0-158.0","task_version":"battery-v0.2-trt","session":2},{"rune":"Y","rune_set":"bacs1","hex":"#3366ff99","correct":32,"choice":32,"rt":564.9999999441206,"accuracy":1,"outcome":"+1","keys":[2065.999999875203],"total_keys":1,"block":2,"trial":153,"stimulus":0,"robot":1,"valence":"win","action":"go","sham":1,"trial_type":"pit-trial","trial_index":184,"time_elapsed":756523,"internal_node_id":"0.0-159.0","task_version":"battery-v0.2-trt","session":2},{"rune":"U","rune_set":"bacs1","hex":"#f73b6a7A","correct":-1,"choice":-1,"rt":-1,"accuracy":1,"outcome":"-10","keys":[],"total_keys":0,"block":2,"trial":154,"stimulus":4,"robot":4,"valence":"lose","action":"no-go","sham":1,"trial_type":"pit-trial","trial_index":185,"time_elapsed":760527,"internal_node_id":"0.0-160.0","task_version":"battery-v0.2-trt","session":2},{"rune":"M","rune_set":"bacs1","hex":"#3366ff99","correct":-1,"choice":-1,"rt":-1,"accuracy":1,"outcome":"+1","keys":[],"total_keys":0,"block":2,"trial":155,"stimulus":3,"robot":2,"valence":"win","action":"no-go","sham":1,"trial_type":"pit-trial","trial_index":186,"time_elapsed":764533,"internal_node_id":"0.0-161.0","task_version":"battery-v0.2-trt","session":2},{"rune":"H","rune_set":"bacs1","hex":"#f73b6a7A","correct":32,"choice":32,"rt":635.0000000093132,"accuracy":1,"outcome":"-10","keys":[2135.9999999403954],"total_keys":1,"block":2,"trial":156,"stimulus":1,"robot":3,"valence":"lose","action":"go","sham":1,"trial_type":"pit-trial","trial_index":187,"time_elapsed":767876,"internal_node_id":"0.0-162.0","task_version":"battery-v0.2-trt","session":2},{"rune":"Y","rune_set":"bacs1","hex":"#3366ff99","correct":32,"choice":32,"rt":893.0000001564622,"accuracy":1,"outcome":"+10","keys":[2393.000000156462],"total_keys":1,"block":2,"trial":157,"stimulus":0,"robot":1,"valence":"win","action":"go","sham":0,"trial_type":"pit-trial","trial_index":188,"time_elapsed":771477,"internal_node_id":"0.0-163.0","task_version":"battery-v0.2-trt","session":2},{"rune":"U","rune_set":"bacs1","hex":"#f73b6a7A","correct":-1,"choice":32,"rt":705.0000000745058,"accuracy":0,"outcome":"-10","keys":[2205.000000074506],"total_keys":1,"block":2,"trial":158,"stimulus":4,"robot":4,"valence":"lose","action":"no-go","sham":0,"trial_type":"pit-trial","trial_index":189,"time_elapsed":774890,"internal_node_id":"0.0-164.0","task_version":"battery-v0.2-trt","session":2},{"rune":"H","rune_set":"bacs1","hex":"#f73b6a7A","correct":32,"choice":32,"rt":697.0000001601875,"accuracy":1,"outcome":"-10","keys":[2197.0000001601875],"total_keys":1,"block":2,"trial":159,"stimulus":1,"robot":3,"valence":"lose","action":"go","sham":1,"trial_type":"pit-trial","trial_index":190,"time_elapsed":778292,"internal_node_id":"0.0-165.0","task_version":"battery-v0.2-trt","session":2},{"rune":"M","rune_set":"bacs1","hex":"#3366ff99","correct":-1,"choice":-1,"rt":-1,"accuracy":1,"outcome":"+1","keys":[],"total_keys":0,"block":2,"trial":160,"stimulus":3,"robot":2,"valence":"win","action":"no-go","sham":1,"trial_type":"pit-trial","trial_index":191,"time_elapsed":782298,"internal_node_id":"0.0-166.0","task_version":"battery-v0.2-trt","session":2},{"rune":"U","rune_set":"bacs1","hex":"#f73b6a7A","correct":-1,"choice":32,"rt":742.0000000856817,"accuracy":0,"outcome":"-10","keys":[2241.0000001545995],"total_keys":1,"block":2,"trial":161,"stimulus":4,"robot":4,"valence":"lose","action":"no-go","sham":0,"trial_type":"pit-trial","trial_index":192,"time_elapsed":785747,"internal_node_id":"0.0-167.0","task_version":"battery-v0.2-trt","session":2},{"rune":"S","rune_set":"bacs1","hex":"#f73b6a7A","correct":32,"choice":32,"rt":1004.9999998882413,"accuracy":1,"outcome":"-1","keys":[2504.9999998882413],"total_keys":1,"block":2,"trial":162,"stimulus":5,"robot":3,"valence":"lose","action":"go","sham":0,"trial_type":"pit-trial","trial_index":193,"time_elapsed":789458,"internal_node_id":"0.0-168.0","task_version":"battery-v0.2-trt","session":2},{"rune":"Y","rune_set":"bacs1","hex":"#3366ff99","correct":32,"choice":32,"rt":794.9999999254942,"accuracy":1,"outcome":"+10","keys":[2294.999999925494],"total_keys":1,"block":2,"trial":163,"stimulus":0,"robot":1,"valence":"win","action":"go","sham":0,"trial_type":"pit-trial","trial_index":194,"time_elapsed":792960,"internal_node_id":"0.0-169.0","task_version":"battery-v0.2-trt","session":2},{"rune":"M","rune_set":"bacs1","hex":"#3366ff99","correct":-1,"choice":-1,"rt":-1,"accuracy":1,"outcome":"+1","keys":[],"total_keys":0,"block":2,"trial":164,"stimulus":3,"robot":2,"valence":"win","action":"no-go","sham":1,"trial_type":"pit-trial","trial_index":195,"time_elapsed":796965,"internal_node_id":"0.0-170.0","task_version":"battery-v0.2-trt","session":2},{"rune":"M","rune_set":"bacs1","hex":"#3366ff99","correct":-1,"choice":-1,"rt":-1,"accuracy":1,"outcome":"+10","keys":[],"total_keys":0,"block":2,"trial":165,"stimulus":3,"robot":2,"valence":"win","action":"no-go","sham":0,"trial_type":"pit-trial","trial_index":196,"time_elapsed":800970,"internal_node_id":"0.0-171.0","task_version":"battery-v0.2-trt","session":2},{"rune":"S","rune_set":"bacs1","hex":"#f73b6a7A","correct":32,"choice":32,"rt":655.0000000279397,"accuracy":1,"outcome":"-1","keys":[2155.999999959022],"total_keys":1,"block":2,"trial":166,"stimulus":5,"robot":3,"valence":"lose","action":"go","sham":0,"trial_type":"pit-trial","trial_index":197,"time_elapsed":804332,"internal_node_id":"0.0-172.0","task_version":"battery-v0.2-trt","session":2},{"rune":"Y","rune_set":"bacs1","hex":"#3366ff99","correct":32,"choice":32,"rt":770.0000000186265,"accuracy":1,"outcome":"+10","keys":[2271.000000182539],"total_keys":1,"block":2,"trial":167,"stimulus":0,"robot":1,"valence":"win","action":"go","sham":0,"trial_type":"pit-trial","trial_index":198,"time_elapsed":807810,"internal_node_id":"0.0-173.0","task_version":"battery-v0.2-trt","session":2},{"rune":"U","rune_set":"bacs1","hex":"#f73b6a7A","correct":-1,"choice":-1,"rt":-1,"accuracy":1,"outcome":"-1","keys":[],"total_keys":0,"block":2,"trial":168,"stimulus":4,"robot":4,"valence":"lose","action":"no-go","sham":0,"trial_type":"pit-trial","trial_index":199,"time_elapsed":811816,"internal_node_id":"0.0-174.0","task_version":"battery-v0.2-trt","session":2},{"rune":"K","rune_set":"bacs1","hex":"#3366ff99","correct":-1,"choice":32,"rt":1027.0000000018626,"accuracy":0,"outcome":"+1","keys":[2528.0000001657754],"total_keys":1,"block":2,"trial":169,"stimulus":6,"robot":2,"valence":"win","action":"no-go","sham":0,"trial_type":"pit-trial","trial_index":200,"time_elapsed":815551,"internal_node_id":"0.0-175.0","task_version":"battery-v0.2-trt","session":2},{"rune":"S","rune_set":"bacs1","hex":"#f73b6a7A","correct":32,"choice":32,"rt":671.000000089407,"accuracy":1,"outcome":"-1","keys":[2171.000000089407],"total_keys":1,"block":2,"trial":170,"stimulus":5,"robot":3,"valence":"lose","action":"go","sham":0,"trial_type":"pit-trial","trial_index":201,"time_elapsed":818928,"internal_node_id":"0.0-176.0","task_version":"battery-v0.2-trt","session":2},{"rune":"D","rune_set":"bacs1","hex":"#3366ff99","correct":-1,"choice":32,"rt":922.9999999515712,"accuracy":0,"outcome":"+1","keys":[2422.999999951571],"total_keys":1,"block":2,"trial":171,"stimulus":7,"robot":2,"valence":"win","action":"no-go","sham":0,"trial_type":"pit-trial","trial_index":202,"time_elapsed":822559,"internal_node_id":"0.0-177.0","task_version":"battery-v0.2-trt","session":2},{"rune":"U","rune_set":"bacs1","hex":"#f73b6a7A","correct":-1,"choice":-1,"rt":-1,"accuracy":1,"outcome":"-10","keys":[],"total_keys":0,"block":2,"trial":172,"stimulus":4,"robot":4,"valence":"lose","action":"no-go","sham":1,"trial_type":"pit-trial","trial_index":203,"time_elapsed":826566,"internal_node_id":"0.0-178.0","task_version":"battery-v0.2-trt","session":2},{"rune":"S","rune_set":"bacs1","hex":"#f73b6a7A","correct":32,"choice":32,"rt":500,"accuracy":1,"outcome":"-1","keys":[2001.0000001639128],"total_keys":1,"block":2,"trial":173,"stimulus":5,"robot":3,"valence":"lose","action":"go","sham":0,"trial_type":"pit-trial","trial_index":204,"time_elapsed":829774,"internal_node_id":"0.0-179.0","task_version":"battery-v0.2-trt","session":2},{"rune":"D","rune_set":"bacs1","hex":"#3366ff99","correct":-1,"choice":-1,"rt":-1,"accuracy":1,"outcome":"+10","keys":[],"total_keys":0,"block":2,"trial":174,"stimulus":7,"robot":2,"valence":"win","action":"no-go","sham":0,"trial_type":"pit-trial","trial_index":205,"time_elapsed":833780,"internal_node_id":"0.0-180.0","task_version":"battery-v0.2-trt","session":2},{"rune":"K","rune_set":"bacs1","hex":"#3366ff99","correct":-1,"choice":-1,"rt":-1,"accuracy":1,"outcome":"+10","keys":[],"total_keys":0,"block":2,"trial":175,"stimulus":6,"robot":2,"valence":"win","action":"no-go","sham":0,"trial_type":"pit-trial","trial_index":206,"time_elapsed":837786,"internal_node_id":"0.0-181.0","task_version":"battery-v0.2-trt","session":2},{"rune":"U","rune_set":"bacs1","hex":"#f73b6a7A","correct":-1,"choice":-1,"rt":-1,"accuracy":1,"outcome":"-1","keys":[],"total_keys":0,"block":2,"trial":176,"stimulus":4,"robot":4,"valence":"lose","action":"no-go","sham":0,"trial_type":"pit-trial","trial_index":207,"time_elapsed":841789,"internal_node_id":"0.0-182.0","task_version":"battery-v0.2-trt","session":2},{"rune":"S","rune_set":"bacs1","hex":"#f73b6a7A","correct":32,"choice":32,"rt":443.9999999012798,"accuracy":1,"outcome":"-1","keys":[1944.999999832362],"total_keys":1,"block":2,"trial":177,"stimulus":5,"robot":3,"valence":"lose","action":"go","sham":0,"trial_type":"pit-trial","trial_index":208,"time_elapsed":844941,"internal_node_id":"0.0-183.0","task_version":"battery-v0.2-trt","session":2},{"rune":"K","rune_set":"bacs1","hex":"#3366ff99","correct":-1,"choice":-1,"rt":-1,"accuracy":1,"outcome":"+10","keys":[],"total_keys":0,"block":2,"trial":178,"stimulus":6,"robot":2,"valence":"win","action":"no-go","sham":0,"trial_type":"pit-trial","trial_index":209,"time_elapsed":848949,"internal_node_id":"0.0-184.0","task_version":"battery-v0.2-trt","session":2},{"rune":"U","rune_set":"bacs1","hex":"#f73b6a7A","correct":-1,"choice":-1,"rt":-1,"accuracy":1,"outcome":"-1","keys":[],"total_keys":0,"block":2,"trial":179,"stimulus":4,"robot":4,"valence":"lose","action":"no-go","sham":0,"trial_type":"pit-trial","trial_index":210,"time_elapsed":852955,"internal_node_id":"0.0-185.0","task_version":"battery-v0.2-trt","session":2},{"rune":"D","rune_set":"bacs1","hex":"#3366ff99","correct":-1,"choice":-1,"rt":-1,"accuracy":1,"outcome":"+10","keys":[],"total_keys":0,"block":2,"trial":180,"stimulus":7,"robot":2,"valence":"win","action":"no-go","sham":0,"trial_type":"pit-trial","trial_index":211,"time_elapsed":856962,"internal_node_id":"0.0-186.0","task_version":"battery-v0.2-trt","session":2},{"rune":"U","rune_set":"bacs1","hex":"#f73b6a7A","correct":-1,"choice":-1,"rt":-1,"accuracy":1,"outcome":"-1","keys":[],"total_keys":0,"block":2,"trial":181,"stimulus":4,"robot":4,"valence":"lose","action":"no-go","sham":0,"trial_type":"pit-trial","trial_index":212,"time_elapsed":860969,"internal_node_id":"0.0-187.0","task_version":"battery-v0.2-trt","session":2},{"rune":"K","rune_set":"bacs1","hex":"#3366ff99","correct":-1,"choice":-1,"rt":-1,"accuracy":1,"outcome":"+1","keys":[],"total_keys":0,"block":2,"trial":182,"stimulus":6,"robot":2,"valence":"win","action":"no-go","sham":1,"trial_type":"pit-trial","trial_index":213,"time_elapsed":864976,"internal_node_id":"0.0-188.0","task_version":"battery-v0.2-trt","session":2},{"rune":"S","rune_set":"bacs1","hex":"#f73b6a7A","correct":32,"choice":32,"rt":692.9999999701977,"accuracy":1,"outcome":"-1","keys":[2193.99999990128],"total_keys":1,"block":2,"trial":183,"stimulus":5,"robot":3,"valence":"lose","action":"go","sham":0,"trial_type":"pit-trial","trial_index":214,"time_elapsed":868375,"internal_node_id":"0.0-189.0","task_version":"battery-v0.2-trt","session":2},{"rune":"D","rune_set":"bacs1","hex":"#3366ff99","correct":-1,"choice":-1,"rt":-1,"accuracy":1,"outcome":"+1","keys":[],"total_keys":0,"block":2,"trial":184,"stimulus":7,"robot":2,"valence":"win","action":"no-go","sham":1,"trial_type":"pit-trial","trial_index":215,"time_elapsed":872383,"internal_node_id":"0.0-190.0","task_version":"battery-v0.2-trt","session":2},{"rune":"K","rune_set":"bacs1","hex":"#3366ff99","correct":-1,"choice":-1,"rt":-1,"accuracy":1,"outcome":"+10","keys":[],"total_keys":0,"block":2,"trial":185,"stimulus":6,"robot":2,"valence":"win","action":"no-go","sham":0,"trial_type":"pit-trial","trial_index":216,"time_elapsed":876389,"internal_node_id":"0.0-191.0","task_version":"battery-v0.2-trt","session":2},{"rune":"S","rune_set":"bacs1","hex":"#f73b6a7A","correct":32,"choice":32,"rt":640.0000001303852,"accuracy":1,"outcome":"-1","keys":[2140.000000130385],"total_keys":1,"block":2,"trial":186,"stimulus":5,"robot":3,"valence":"lose","action":"go","sham":0,"trial_type":"pit-trial","trial_index":217,"time_elapsed":879737,"internal_node_id":"0.0-192.0","task_version":"battery-v0.2-trt","session":2},{"rune":"D","rune_set":"bacs1","hex":"#3366ff99","correct":-1,"choice":-1,"rt":-1,"accuracy":1,"outcome":"+10","keys":[],"total_keys":0,"block":2,"trial":187,"stimulus":7,"robot":2,"valence":"win","action":"no-go","sham":0,"trial_type":"pit-trial","trial_index":218,"time_elapsed":883744,"internal_node_id":"0.0-193.0","task_version":"battery-v0.2-trt","session":2},{"rune":"U","rune_set":"bacs1","hex":"#f73b6a7A","correct":-1,"choice":-1,"rt":-1,"accuracy":1,"outcome":"-10","keys":[],"total_keys":0,"block":2,"trial":188,"stimulus":4,"robot":4,"valence":"lose","action":"no-go","sham":1,"trial_type":"pit-trial","trial_index":219,"time_elapsed":887751,"internal_node_id":"0.0-194.0","task_version":"battery-v0.2-trt","session":2},{"rune":"S","rune_set":"bacs1","hex":"#f73b6a7A","correct":32,"choice":32,"rt":486.99999996460974,"accuracy":1,"outcome":"-1","keys":[1987.9999998956919],"total_keys":1,"block":2,"trial":189,"stimulus":5,"robot":3,"valence":"lose","action":"go","sham":0,"trial_type":"pit-trial","trial_index":220,"time_elapsed":890948,"internal_node_id":"0.0-195.0","task_version":"battery-v0.2-trt","session":2},{"rune":"D","rune_set":"bacs1","hex":"#3366ff99","correct":-1,"choice":-1,"rt":-1,"accuracy":1,"outcome":"+10","keys":[],"total_keys":0,"block":2,"trial":190,"stimulus":7,"robot":2,"valence":"win","action":"no-go","sham":0,"trial_type":"pit-trial","trial_index":221,"time_elapsed":894953,"internal_node_id":"0.0-196.0","task_version":"battery-v0.2-trt","session":2},{"rune":"K","rune_set":"bacs1","hex":"#3366ff99","correct":-1,"choice":-1,"rt":-1,"accuracy":1,"outcome":"+10","keys":[],"total_keys":0,"block":2,"trial":191,"stimulus":6,"robot":2,"valence":"win","action":"no-go","sham":0,"trial_type":"pit-trial","trial_index":222,"time_elapsed":898961,"internal_node_id":"0.0-197.0","task_version":"battery-v0.2-trt","session":2},{"rune":"U","rune_set":"bacs1","hex":"#f73b6a7A","correct":-1,"choice":-1,"rt":-1,"accuracy":1,"outcome":"-1","keys":[],"total_keys":0,"block":2,"trial":192,"stimulus":4,"robot":4,"valence":"lose","action":"no-go","sham":0,"trial_type":"pit-trial","trial_index":223,"time_elapsed":902968,"internal_node_id":"0.0-198.0","task_version":"battery-v0.2-trt","session":2},{"rune":"U","rune_set":"bacs1","hex":"#f73b6a7A","correct":-1,"choice":-1,"rt":-1,"accuracy":1,"outcome":"-10","keys":[],"total_keys":0,"block":2,"trial":193,"stimulus":4,"robot":4,"valence":"lose","action":"no-go","sham":1,"trial_type":"pit-trial","trial_index":224,"time_elapsed":906974,"internal_node_id":"0.0-199.0","task_version":"battery-v0.2-trt","session":2},{"rune":"S","rune_set":"bacs1","hex":"#f73b6a7A","correct":32,"choice":32,"rt":612.0000001974404,"accuracy":1,"outcome":"-1","keys":[2113.0000001285225],"total_keys":1,"block":2,"trial":194,"stimulus":5,"robot":3,"valence":"lose","action":"go","sham":0,"trial_type":"pit-trial","trial_index":225,"time_elapsed":910293,"internal_node_id":"0.0-200.0","task_version":"battery-v0.2-trt","session":2},{"rune":"D","rune_set":"bacs1","hex":"#3366ff99","correct":-1,"choice":-1,"rt":-1,"accuracy":1,"outcome":"+1","keys":[],"total_keys":0,"block":2,"trial":195,"stimulus":7,"robot":2,"valence":"win","action":"no-go","sham":1,"trial_type":"pit-trial","trial_index":226,"time_elapsed":914299,"internal_node_id":"0.0-201.0","task_version":"battery-v0.2-trt","session":2},{"rune":"K","rune_set":"bacs1","hex":"#3366ff99","correct":-1,"choice":-1,"rt":-1,"accuracy":1,"outcome":"+1","keys":[],"total_keys":0,"block":2,"trial":196,"stimulus":6,"robot":2,"valence":"win","action":"no-go","sham":1,"trial_type":"pit-trial","trial_index":227,"time_elapsed":918330,"internal_node_id":"0.0-202.0","task_version":"battery-v0.2-trt","session":2},{"rune":"S","rune_set":"bacs1","hex":"#f73b6a7A","correct":32,"choice":32,"rt":566.0000001080334,"accuracy":1,"outcome":"-1","keys":[2067.0000000391155],"total_keys":1,"block":2,"trial":197,"stimulus":5,"robot":3,"valence":"lose","action":"go","sham":0,"trial_type":"pit-trial","trial_index":228,"time_elapsed":921603,"internal_node_id":"0.0-203.0","task_version":"battery-v0.2-trt","session":2},{"rune":"D","rune_set":"bacs1","hex":"#3366ff99","correct":-1,"choice":-1,"rt":-1,"accuracy":1,"outcome":"+10","keys":[],"total_keys":0,"block":2,"trial":198,"stimulus":7,"robot":2,"valence":"win","action":"no-go","sham":0,"trial_type":"pit-trial","trial_index":229,"time_elapsed":925609,"internal_node_id":"0.0-204.0","task_version":"battery-v0.2-trt","session":2},{"rune":"K","rune_set":"bacs1","hex":"#3366ff99","correct":-1,"choice":-1,"rt":-1,"accuracy":1,"outcome":"+10","keys":[],"total_keys":0,"block":2,"trial":199,"stimulus":6,"robot":2,"valence":"win","action":"no-go","sham":0,"trial_type":"pit-trial","trial_index":230,"time_elapsed":929615,"internal_node_id":"0.0-205.0","task_version":"battery-v0.2-trt","session":2},{"rune":"U","rune_set":"bacs1","hex":"#f73b6a7A","correct":-1,"choice":-1,"rt":-1,"accuracy":1,"outcome":"-1","keys":[],"total_keys":0,"block":2,"trial":200,"stimulus":4,"robot":4,"valence":"lose","action":"no-go","sham":0,"trial_type":"pit-trial","trial_index":231,"time_elapsed":933617,"internal_node_id":"0.0-206.0","task_version":"battery-v0.2-trt","session":2},{"rune":"D","rune_set":"bacs1","hex":"#3366ff99","correct":-1,"choice":-1,"rt":-1,"accuracy":1,"outcome":"+10","keys":[],"total_keys":0,"block":2,"trial":201,"stimulus":7,"robot":2,"valence":"win","action":"no-go","sham":0,"trial_type":"pit-trial","trial_index":232,"time_elapsed":937624,"internal_node_id":"0.0-207.0","task_version":"battery-v0.2-trt","session":2},{"rune":"O","rune_set":"bacs1","hex":"#3366ff99","correct":32,"choice":-1,"rt":-1,"accuracy":0,"outcome":"+1","keys":[],"total_keys":0,"block":2,"trial":202,"stimulus":8,"robot":1,"valence":"win","action":"go","sham":0,"trial_type":"pit-trial","trial_index":233,"time_elapsed":941630,"internal_node_id":"0.0-208.0","task_version":"battery-v0.2-trt","session":2},{"rune":"I","rune_set":"bacs1","hex":"#f73b6a7A","correct":-1,"choice":32,"rt":972.0000000670552,"accuracy":0,"outcome":"-10","keys":[2472.9999999981374],"total_keys":1,"block":2,"trial":203,"stimulus":9,"robot":4,"valence":"lose","action":"no-go","sham":0,"trial_type":"pit-trial","trial_index":234,"time_elapsed":945308,"internal_node_id":"0.0-209.0","task_version":"battery-v0.2-trt","session":2},{"rune":"S","rune_set":"bacs1","hex":"#f73b6a7A","correct":32,"choice":32,"rt":706.0000000055879,"accuracy":1,"outcome":"-1","keys":[2207.0000001695007],"total_keys":1,"block":2,"trial":204,"stimulus":5,"robot":3,"valence":"lose","action":"go","sham":0,"trial_type":"pit-trial","trial_index":235,"time_elapsed":948721,"internal_node_id":"0.0-210.0","task_version":"battery-v0.2-trt","session":2},{"rune":"O","rune_set":"bacs1","hex":"#3366ff99","correct":32,"choice":32,"rt":705.9999997727573,"accuracy":1,"outcome":"+10","keys":[2205.9999997727573],"total_keys":1,"block":2,"trial":205,"stimulus":8,"robot":1,"valence":"win","action":"go","sham":0,"trial_type":"pit-trial","trial_index":236,"time_elapsed":952133,"internal_node_id":"0.0-211.0","task_version":"battery-v0.2-trt","session":2},{"rune":"I","rune_set":"bacs1","hex":"#f73b6a7A","correct":-1,"choice":-1,"rt":-1,"accuracy":1,"outcome":"-1","keys":[],"total_keys":0,"block":2,"trial":206,"stimulus":9,"robot":4,"valence":"lose","action":"no-go","sham":0,"trial_type":"pit-trial","trial_index":237,"time_elapsed":956141,"internal_node_id":"0.0-212.0","task_version":"battery-v0.2-trt","session":2},{"rune":"S","rune_set":"bacs1","hex":"#f73b6a7A","correct":32,"choice":32,"rt":700.999999884516,"accuracy":1,"outcome":"-1","keys":[2200.999999884516],"total_keys":1,"block":2,"trial":207,"stimulus":5,"robot":3,"valence":"lose","action":"go","sham":0,"trial_type":"pit-trial","trial_index":238,"time_elapsed":959549,"internal_node_id":"0.0-213.0","task_version":"battery-v0.2-trt","session":2},{"rune":"D","rune_set":"bacs1","hex":"#3366ff99","correct":-1,"choice":-1,"rt":-1,"accuracy":1,"outcome":"+10","keys":[],"total_keys":0,"block":2,"trial":208,"stimulus":7,"robot":2,"valence":"win","action":"no-go","sham":0,"trial_type":"pit-trial","trial_index":239,"time_elapsed":963554,"internal_node_id":"0.0-214.0","task_version":"battery-v0.2-trt","session":2},{"rune":"O","rune_set":"bacs1","hex":"#3366ff99","correct":32,"choice":32,"rt":523.0000000447035,"accuracy":1,"outcome":"+10","keys":[2023.0000000447035],"total_keys":1,"block":2,"trial":209,"stimulus":8,"robot":1,"valence":"win","action":"go","sham":0,"trial_type":"pit-trial","trial_index":240,"time_elapsed":966783,"internal_node_id":"0.0-215.0","task_version":"battery-v0.2-trt","session":2},{"rune":"G","rune_set":"bacs1","hex":"#f73b6a7A","correct":32,"choice":32,"rt":911.0000000800937,"accuracy":1,"outcome":"-10","keys":[2410.0000001490116],"total_keys":1,"block":2,"trial":210,"stimulus":10,"robot":3,"valence":"lose","action":"go","sham":1,"trial_type":"pit-trial","trial_index":241,"time_elapsed":970400,"internal_node_id":"0.0-216.0","task_version":"battery-v0.2-trt","session":2},{"rune":"I","rune_set":"bacs1","hex":"#f73b6a7A","correct":-1,"choice":-1,"rt":-1,"accuracy":1,"outcome":"-1","keys":[],"total_keys":0,"block":2,"trial":211,"stimulus":9,"robot":4,"valence":"lose","action":"no-go","sham":0,"trial_type":"pit-trial","trial_index":242,"time_elapsed":974407,"internal_node_id":"0.0-217.0","task_version":"battery-v0.2-trt","session":2},{"rune":"N","rune_set":"bacs1","hex":"#3366ff99","correct":32,"choice":32,"rt":935.0000000558794,"accuracy":1,"outcome":"+1","keys":[2435.9999999869615],"total_keys":1,"block":2,"trial":212,"stimulus":11,"robot":1,"valence":"win","action":"go","sham":1,"trial_type":"pit-trial","trial_index":243,"time_elapsed":978048,"internal_node_id":"0.0-218.0","task_version":"battery-v0.2-trt","session":2},{"rune":"N","rune_set":"bacs1","hex":"#3366ff99","correct":32,"choice":-1,"rt":-1,"accuracy":0,"outcome":"+10","keys":[],"total_keys":0,"block":2,"trial":213,"stimulus":11,"robot":1,"valence":"win","action":"go","sham":1,"trial_type":"pit-trial","trial_index":244,"time_elapsed":982056,"internal_node_id":"0.0-219.0","task_version":"battery-v0.2-trt","session":2},{"rune":"I","rune_set":"bacs1","hex":"#f73b6a7A","correct":-1,"choice":-1,"rt":-1,"accuracy":1,"outcome":"-1","keys":[],"total_keys":0,"block":2,"trial":214,"stimulus":9,"robot":4,"valence":"lose","action":"no-go","sham":0,"trial_type":"pit-trial","trial_index":245,"time_elapsed":986060,"internal_node_id":"0.0-220.0","task_version":"battery-v0.2-trt","session":2},{"rune":"O","rune_set":"bacs1","hex":"#3366ff99","correct":32,"choice":32,"rt":486.0000000335276,"accuracy":1,"outcome":"+10","keys":[1986.9999999646097],"total_keys":1,"block":2,"trial":215,"stimulus":8,"robot":1,"valence":"win","action":"go","sham":0,"trial_type":"pit-trial","trial_index":246,"time_elapsed":989253,"internal_node_id":"0.0-221.0","task_version":"battery-v0.2-trt","session":2},{"rune":"G","rune_set":"bacs1","hex":"#f73b6a7A","correct":32,"choice":-1,"rt":-1,"accuracy":0,"outcome":"-1","keys":[],"total_keys":0,"block":2,"trial":216,"stimulus":10,"robot":3,"valence":"lose","action":"go","sham":1,"trial_type":"pit-trial","trial_index":247,"time_elapsed":993261,"internal_node_id":"0.0-222.0","task_version":"battery-v0.2-trt","session":2},{"rune":"G","rune_set":"bacs1","hex":"#f73b6a7A","correct":32,"choice":-1,"rt":-1,"accuracy":0,"outcome":"-10","keys":[],"total_keys":0,"block":2,"trial":217,"stimulus":10,"robot":3,"valence":"lose","action":"go","sham":0,"trial_type":"pit-trial","trial_index":248,"time_elapsed":997268,"internal_node_id":"0.0-223.0","task_version":"battery-v0.2-trt","session":2},{"rune":"N","rune_set":"bacs1","hex":"#3366ff99","correct":32,"choice":-1,"rt":-1,"accuracy":0,"outcome":"+1","keys":[],"total_keys":0,"block":2,"trial":218,"stimulus":11,"robot":1,"valence":"win","action":"go","sham":0,"trial_type":"pit-trial","trial_index":249,"time_elapsed":1001276,"internal_node_id":"0.0-224.0","task_version":"battery-v0.2-trt","session":2},{"rune":"O","rune_set":"bacs1","hex":"#3366ff99","correct":32,"choice":32,"rt":562.0000001508743,"accuracy":1,"outcome":"+10","keys":[2062.0000001508743],"total_keys":1,"block":2,"trial":219,"stimulus":8,"robot":1,"valence":"win","action":"go","sham":0,"trial_type":"pit-trial","trial_index":250,"time_elapsed":1004543,"internal_node_id":"0.0-225.0","task_version":"battery-v0.2-trt","session":2},{"rune":"I","rune_set":"bacs1","hex":"#f73b6a7A","correct":-1,"choice":-1,"rt":-1,"accuracy":1,"outcome":"-1","keys":[],"total_keys":0,"block":2,"trial":220,"stimulus":9,"robot":4,"valence":"lose","action":"no-go","sham":0,"trial_type":"pit-trial","trial_index":251,"time_elapsed":1008549,"internal_node_id":"0.0-226.0","task_version":"battery-v0.2-trt","session":2},{"rune":"O","rune_set":"bacs1","hex":"#3366ff99","correct":32,"choice":32,"rt":630.9999998193234,"accuracy":1,"outcome":"+10","keys":[2131.999999983236],"total_keys":1,"block":2,"trial":221,"stimulus":8,"robot":1,"valence":"win","action":"go","sham":0,"trial_type":"pit-trial","trial_index":252,"time_elapsed":1011886,"internal_node_id":"0.0-227.0","task_version":"battery-v0.2-trt","session":2},{"rune":"N","rune_set":"bacs1","hex":"#3366ff99","correct":32,"choice":-1,"rt":-1,"accuracy":0,"outcome":"+1","keys":[],"total_keys":0,"block":2,"trial":222,"stimulus":11,"robot":1,"valence":"win","action":"go","sham":0,"trial_type":"pit-trial","trial_index":253,"time_elapsed":1015892,"internal_node_id":"0.0-228.0","task_version":"battery-v0.2-trt","session":2},{"rune":"G","rune_set":"bacs1","hex":"#f73b6a7A","correct":32,"choice":-1,"rt":-1,"accuracy":0,"outcome":"-10","keys":[],"total_keys":0,"block":2,"trial":223,"stimulus":10,"robot":3,"valence":"lose","action":"go","sham":0,"trial_type":"pit-trial","trial_index":254,"time_elapsed":1019898,"internal_node_id":"0.0-229.0","task_version":"battery-v0.2-trt","session":2},{"rune":"I","rune_set":"bacs1","hex":"#f73b6a7A","correct":-1,"choice":-1,"rt":-1,"accuracy":1,"outcome":"-1","keys":[],"total_keys":0,"block":2,"trial":224,"stimulus":9,"robot":4,"valence":"lose","action":"no-go","sham":0,"trial_type":"pit-trial","trial_index":255,"time_elapsed":1023904,"internal_node_id":"0.0-230.0","task_version":"battery-v0.2-trt","session":2},{"rune":"N","rune_set":"bacs1","hex":"#3366ff99","correct":32,"choice":32,"rt":542.9999998304993,"accuracy":1,"outcome":"+10","keys":[2043.999999994412],"total_keys":1,"block":2,"trial":225,"stimulus":11,"robot":1,"valence":"win","action":"go","sham":0,"trial_type":"pit-trial","trial_index":256,"time_elapsed":1027153,"internal_node_id":"0.0-231.0","task_version":"battery-v0.2-trt","session":2},{"rune":"O","rune_set":"bacs1","hex":"#3366ff99","correct":32,"choice":32,"rt":550.0000000465661,"accuracy":1,"outcome":"+10","keys":[2050.000000046566],"total_keys":1,"block":2,"trial":226,"stimulus":8,"robot":1,"valence":"win","action":"go","sham":0,"trial_type":"pit-trial","trial_index":257,"time_elapsed":1030410,"internal_node_id":"0.0-232.0","task_version":"battery-v0.2-trt","session":2},{"rune":"I","rune_set":"bacs1","hex":"#f73b6a7A","correct":-1,"choice":-1,"rt":-1,"accuracy":1,"outcome":"-1","keys":[],"total_keys":0,"block":2,"trial":227,"stimulus":9,"robot":4,"valence":"lose","action":"no-go","sham":0,"trial_type":"pit-trial","trial_index":258,"time_elapsed":1034417,"internal_node_id":"0.0-233.0","task_version":"battery-v0.2-trt","session":2},{"rune":"G","rune_set":"bacs1","hex":"#f73b6a7A","correct":32,"choice":-1,"rt":-1,"accuracy":0,"outcome":"-10","keys":[],"total_keys":0,"block":2,"trial":228,"stimulus":10,"robot":3,"valence":"lose","action":"go","sham":0,"trial_type":"pit-trial","trial_index":259,"time_elapsed":1038426,"internal_node_id":"0.0-234.0","task_version":"battery-v0.2-trt","session":2},{"rune":"I","rune_set":"bacs1","hex":"#f73b6a7A","correct":-1,"choice":-1,"rt":-1,"accuracy":1,"outcome":"-10","keys":[],"total_keys":0,"block":2,"trial":229,"stimulus":9,"robot":4,"valence":"lose","action":"no-go","sham":1,"trial_type":"pit-trial","trial_index":260,"time_elapsed":1042431,"internal_node_id":"0.0-235.0","task_version":"battery-v0.2-trt","session":2},{"rune":"O","rune_set":"bacs1","hex":"#3366ff99","correct":32,"choice":32,"rt":442.9999999701977,"accuracy":1,"outcome":"+1","keys":[1943.9999999012798],"total_keys":1,"block":2,"trial":230,"stimulus":8,"robot":1,"valence":"win","action":"go","sham":1,"trial_type":"pit-trial","trial_index":261,"time_elapsed":1045581,"internal_node_id":"0.0-236.0","task_version":"battery-v0.2-trt","session":2},{"rune":"G","rune_set":"bacs1","hex":"#f73b6a7A","correct":32,"choice":-1,"rt":-1,"accuracy":0,"outcome":"-10","keys":[],"total_keys":0,"block":2,"trial":231,"stimulus":10,"robot":3,"valence":"lose","action":"go","sham":0,"trial_type":"pit-trial","trial_index":262,"time_elapsed":1049587,"internal_node_id":"0.0-237.0","task_version":"battery-v0.2-trt","session":2},{"rune":"N","rune_set":"bacs1","hex":"#3366ff99","correct":32,"choice":32,"rt":587.000000057742,"accuracy":1,"outcome":"+10","keys":[2102.9999998863786],"total_keys":1,"block":2,"trial":232,"stimulus":11,"robot":1,"valence":"win","action":"go","sham":0,"trial_type":"pit-trial","trial_index":263,"time_elapsed":1052896,"internal_node_id":"0.0-238.0","task_version":"battery-v0.2-trt","session":2},{"rune":"O","rune_set":"bacs1","hex":"#3366ff99","correct":32,"choice":32,"rt":603.9999998174608,"accuracy":1,"outcome":"+1","keys":[2104.9999999813735],"total_keys":1,"block":2,"trial":233,"stimulus":8,"robot":1,"valence":"win","action":"go","sham":1,"trial_type":"pit-trial","trial_index":264,"time_elapsed":1056206,"internal_node_id":"0.0-239.0","task_version":"battery-v0.2-trt","session":2},{"rune":"I","rune_set":"bacs1","hex":"#f73b6a7A","correct":-1,"choice":-1,"rt":-1,"accuracy":1,"outcome":"-10","keys":[],"total_keys":0,"block":2,"trial":234,"stimulus":9,"robot":4,"valence":"lose","action":"no-go","sham":1,"trial_type":"pit-trial","trial_index":265,"time_elapsed":1060209,"internal_node_id":"0.0-240.0","