[{"view_history":"[{\"page_index\":0,\"viewing_time\":4079.3049999629147}]","rt":4080.134999996517,"trial_type":"instructions","trial_index":0,"time_elapsed":4092,"internal_node_id":"0.0-0.0","task_version":"battery-v0.2-trt","session":2},{"slider_type":"valence","raw_loc":537,"loc":0.574,"trial_type":"affective-slider","trial_index":1,"time_elapsed":10550,"internal_node_id":"0.0-1.0","task_version":"battery-v0.2-trt","session":2},{"responses":{"Q06":"0","Q07":"0","Q01":"0","Q04":"0","Q02":"0","Q05":"0","Q03":"0","Q08":"0"},"rt":22948.44499998726,"item_order":[5,6,0,3,1,4,2,7],"radio_events":[7338.709999981802,11249.814999988303,12947.440000018105,13747.540000011213,15088.699999963865,18098.254999960773,19491.934999998193,21355.199999990873],"key_events":[],"mouse_events":[7338.709999981802,11249.814999988303,12947.440000018105,13747.540000011213,15088.699999963865,18098.254999960773,19491.934999998193,21355.199999990873,22947.059999976773],"straightlining":1,"zigzagging":0,"survey":"dass_d","trial_type":"survey-template","trial_index":2,"time_elapsed":33503,"internal_node_id":"0.0-2.0","task_version":"battery-v0.2-trt","session":2,"infrequency":1},{"responses":{"Q02":"0","Q03":"0","Q06":"0","Q05":"0","Q01":"0","Q07":"0","Q08":"0","Q04":"0"},"rt":29503.020000003744,"item_order":[1,2,5,4,0,6,7,3],"radio_events":[6627.370000001974,8005.6149999727495,11605.51999998279,12979.104999976698,13946.974999969825,14875.51500002155,16127.734999987297,17741.83000001358],"key_events":[],"mouse_events":[6627.370000001974,8005.6149999727495,8922.17500001425,10667.88500000257,11605.51999998279,12979.104999976698,13946.974999969825,14875.51500002155,16127.734999987297,17741.83000001358,29501.40999996802],"straightlining":1,"zigzagging":0,"survey":"gad7","trial_type":"survey-template","trial_index":3,"time_elapsed":63010,"internal_node_id":"0.0-3.0","task_version":"battery-v0.2-trt","session":2,"infrequency":0},{"view_history":"[{\"page_index\":0,\"viewing_time\":2276.9550000084564},{\"page_index\":1,\"viewing_time\":3159.3299999949522},{\"page_index\":2,\"viewing_time\":5091.974999988452},{\"page_index\":3,\"viewing_time\":2620.2850000117905},{\"page_index\":4,\"viewing_time\":13167.779999959748},{\"page_index\":5,\"viewing_time\":3154.630000004545},{\"page_index\":6,\"viewing_time\":4865.374999993946},{\"page_index\":7,\"viewing_time\":26248.480000009295},{\"page_index\":8,\"viewing_time\":11227.840000006836},{\"page_index\":9,\"viewing_time\":12289.47999997763}]","rt":84102.8149999911,"trial_type":"pit-instructions","trial_index":4,"time_elapsed":147118,"internal_node_id":"0.0-4.0-0.0","task_version":"battery-v0.2-trt","session":2},{"rune":"1","rune_set":"elianto","hex":"#3366ff99","correct":32,"choice":32,"rt":536.774999985937,"accuracy":1,"outcome":"+10","keys":[2037.2699999716133],"total_keys":1,"block":0,"practice":1,"trial_type":"pit-trial","trial_index":5,"time_elapsed":150364,"internal_node_id":"0.0-4.0-1.0-0.0","task_version":"battery-v0.2-trt","session":2},{"rune":"1","rune_set":"elianto","hex":"#3366ff99","correct":32,"choice":32,"rt":378.9200000464916,"accuracy":1,"outcome":"+10","keys":[1880.2599999471568],"total_keys":1,"block":0,"practice":1,"trial_type":"pit-trial","trial_index":6,"time_elapsed":153450,"internal_node_id":"0.0-4.0-1.1-0.1","task_version":"battery-v0.2-trt","session":2},{"rune":"1","rune_set":"elianto","hex":"#3366ff99","correct":32,"choice":32,"rt":484.0499999700114,"accuracy":1,"outcome":"+10","keys":[1984.3949999776669],"total_keys":1,"block":0,"practice":1,"trial_type":"pit-trial","trial_index":7,"time_elapsed":156638,"internal_node_id":"0.0-4.0-1.2-0.2","task_version":"battery-v0.2-trt","session":2},{"rune":"1","rune_set":"elianto","hex":"#3366ff99","correct":32,"choice":32,"rt":434.89500001305714,"accuracy":1,"outcome":"+10","keys":[1935.2249999647029],"total_keys":1,"block":0,"practice":1,"trial_type":"pit-trial","trial_index":8,"time_elapsed":159777,"internal_node_id":"0.0-4.0-1.3-0.3","task_version":"battery-v0.2-trt","session":2},{"trial_type":"call-function","trial_index":9,"time_elapsed":159778,"internal_node_id":"0.0-4.0-2.0","task_version":"battery-v0.2-trt","session":2},{"view_history":"[{\"page_index\":0,\"viewing_time\":6729.240000015125},{\"page_index\":1,\"viewing_time\":1913.925000000745}]","rt":8643.71500001289,"trial_type":"pit-instructions","trial_index":10,"time_elapsed":168423,"internal_node_id":"0.0-4.0-3.0","task_version":"battery-v0.2-trt","session":2},{"rune":"2","rune_set":"elianto","hex":"#3366ff99","correct":-1,"choice":-1,"rt":-1,"accuracy":1,"outcome":"+10","keys":[],"total_keys":0,"block":0,"practice":2,"trial_type":"pit-trial","trial_index":11,"time_elapsed":172431,"internal_node_id":"0.0-4.0-4.0-0.0","task_version":"battery-v0.2-trt","session":2},{"rune":"2","rune_set":"elianto","hex":"#3366ff99","correct":-1,"choice":-1,"rt":-1,"accuracy":1,"outcome":"+10","keys":[],"total_keys":0,"block":0,"practice":2,"trial_type":"pit-trial","trial_index":12,"time_elapsed":176435,"internal_node_id":"0.0-4.0-4.1-0.1","task_version":"battery-v0.2-trt","session":2},{"rune":"2","rune_set":"elianto","hex":"#3366ff99","correct":-1,"choice":-1,"rt":-1,"accuracy":1,"outcome":"+10","keys":[],"total_keys":0,"block":0,"practice":2,"trial_type":"pit-trial","trial_index":13,"time_elapsed":180443,"internal_node_id":"0.0-4.0-4.2-0.2","task_version":"battery-v0.2-trt","session":2},{"rune":"2","rune_set":"elianto","hex":"#3366ff99","correct":-1,"choice":-1,"rt":-1,"accuracy":1,"outcome":"+10","keys":[],"total_keys":0,"block":0,"practice":2,"trial_type":"pit-trial","trial_index":14,"time_elapsed":184447,"internal_node_id":"0.0-4.0-4.3-0.3","task_version":"battery-v0.2-trt","session":2},{"trial_type":"call-function","trial_index":15,"time_elapsed":184449,"internal_node_id":"0.0-4.0-5.0","task_version":"battery-v0.2-trt","session":2},{"view_history":"[{\"page_index\":0,\"viewing_time\":8874.544999969658},{\"page_index\":1,\"viewing_time\":5208.340000011958}]","rt":14083.294999960344,"trial_type":"pit-instructions","trial_index":16,"time_elapsed":198534,"internal_node_id":"0.0-4.0-6.0","task_version":"battery-v0.2-trt","session":2},{"rune":"3","rune_set":"elianto","hex":"#f73b6a7A","correct":-1,"choice":32,"rt":359.02499995427206,"accuracy":0,"outcome":"-10","keys":[1862.2200000099838],"total_keys":1,"block":0,"practice":3,"trial_type":"pit-trial","trial_index":17,"time_elapsed":201600,"internal_node_id":"0.0-4.0-7.0-0.0","task_version":"battery-v0.2-trt","session":2},{"rune":"3","rune_set":"elianto","hex":"#f73b6a7A","correct":-1,"choice":-1,"rt":-1,"accuracy":1,"outcome":"-1","keys":[],"total_keys":0,"block":0,"practice":3,"trial_type":"pit-trial","trial_index":18,"time_elapsed":205605,"internal_node_id":"0.0-4.0-7.1-0.1","task_version":"battery-v0.2-trt","session":2},{"rune":"3","rune_set":"elianto","hex":"#f73b6a7A","correct":-1,"choice":-1,"rt":-1,"accuracy":1,"outcome":"-1","keys":[],"total_keys":0,"block":0,"practice":3,"trial_type":"pit-trial","trial_index":19,"time_elapsed":209612,"internal_node_id":"0.0-4.0-7.2-0.2","task_version":"battery-v0.2-trt","session":2},{"rune":"3","rune_set":"elianto","hex":"#f73b6a7A","correct":-1,"choice":-1,"rt":-1,"accuracy":1,"outcome":"-1","keys":[],"total_keys":0,"block":0,"practice":3,"trial_type":"pit-trial","trial_index":20,"time_elapsed":213616,"internal_node_id":"0.0-4.0-7.3-0.3","task_version":"battery-v0.2-trt","session":2},{"trial_type":"call-function","trial_index":21,"time_elapsed":213618,"internal_node_id":"0.0-4.0-8.0","task_version":"battery-v0.2-trt","session":2},{"view_history":"[{\"page_index\":0,\"viewing_time\":1711.5849999827333},{\"page_index\":1,\"viewing_time\":1163.37999998359}]","rt":2875.5399999790825,"trial_type":"pit-instructions","trial_index":22,"time_elapsed":216494,"internal_node_id":"0.0-4.0-9.0","task_version":"battery-v0.2-trt","session":2},{"rune":"4","rune_set":"elianto","hex":"#f73b6a7A","correct":32,"choice":32,"rt":415.4349999735132,"accuracy":1,"outcome":"-1","keys":[1921.405000030063],"total_keys":1,"block":0,"practice":4,"trial_type":"pit-trial","trial_index":23,"time_elapsed":219618,"internal_node_id":"0.0-4.0-10.0-0.0","task_version":"battery-v0.2-trt","session":2},{"rune":"4","rune_set":"elianto","hex":"#f73b6a7A","correct":32,"choice":32,"rt":250.70500001311302,"accuracy":1,"outcome":"-1","keys":[1754.4099999940954],"total_keys":1,"block":0,"practice":4,"trial_type":"pit-trial","trial_index":24,"time_elapsed":222576,"internal_node_id":"0.0-4.0-10.1-0.1","task_version":"battery-v0.2-trt","session":2},{"rune":"4","rune_set":"elianto","hex":"#f73b6a7A","correct":32,"choice":32,"rt":232.78999998001382,"accuracy":1,"outcome":"-1","keys":[1734.9599999724887],"total_keys":1,"block":0,"practice":4,"trial_type":"pit-trial","trial_index":25,"time_elapsed":225516,"internal_node_id":"0.0-4.0-10.2-0.2","task_version":"battery-v0.2-trt","session":2},{"rune":"4","rune_set":"elianto","hex":"#f73b6a7A","correct":32,"choice":32,"rt":259.66999999945983,"accuracy":1,"outcome":"-1","keys":[1760.8599999803118],"total_keys":1,"block":0,"practice":4,"trial_type":"pit-trial","trial_index":26,"time_elapsed":228480,"internal_node_id":"0.0-4.0-10.3-0.3","task_version":"battery-v0.2-trt","session":2},{"trial_type":"call-function","trial_index":27,"time_elapsed":228482,"internal_node_id":"0.0-4.0-11.0","task_version":"battery-v0.2-trt","session":2},{"view_history":"[{\"page_index\":0,\"viewing_time\":1490.3300000005402},{\"page_index\":1,\"viewing_time\":3272.02999999281},{\"page_index\":2,\"viewing_time\":3759.3899999628775},{\"page_index\":3,\"viewing_time\":1286.034999997355},{\"page_index\":4,\"viewing_time\":1933.9750000508502},{\"page_index\":5,\"viewing_time\":1396.565000002738}]","rt":13138.854999968316,"trial_type":"pit-instructions","trial_index":28,"time_elapsed":241622,"internal_node_id":"0.0-4.0-12.0","task_version":"battery-v0.2-trt","session":2},{"responses":["Press SPACE","+10","-1","True","True"],"num_errors":0,"rt":22158.029999991413,"trial_type":"pit-comprehension","trial_index":29,"time_elapsed":263783,"internal_node_id":"0.0-4.0-13.0","task_version":"battery-v0.2-trt","session":2},{"view_history":"[{\"page_index\":0,\"viewing_time\":2980.9600000153296},{\"page_index\":1,\"viewing_time\":4313.9500000397675}]","rt":7295.4500000341795,"trial_type":"pit-instructions","trial_index":30,"time_elapsed":271084,"internal_node_id":"0.0-5.0","task_version":"battery-v0.2-trt","session":2},{"rune":"A","rune_set":"bacs2","hex":"#f73b6a7A","correct":32,"choice":32,"rt":487.36000002827495,"accuracy":1,"outcome":"-10","keys":[1988.43999998644],"total_keys":1,"block":1,"trial":1,"stimulus":2,"robot":3,"valence":"lose","action":"go","sham":1,"trial_type":"pit-trial","trial_index":31,"time_elapsed":274276,"internal_node_id":"0.0-6.0","task_version":"battery-v0.2-trt","session":2},{"rune":"U","rune_set":"bacs2","hex":"#3366ff99","correct":32,"choice":32,"rt":419.5550000295043,"accuracy":1,"outcome":"+10","keys":[1922.3450000281446],"total_keys":1,"block":1,"trial":2,"stimulus":3,"robot":1,"valence":"win","action":"go","sham":0,"trial_type":"pit-trial","trial_index":32,"time_elapsed":277401,"internal_node_id":"0.0-7.0","task_version":"battery-v0.2-trt","session":2},{"rune":"F","rune_set":"bacs2","hex":"#f73b6a7A","correct":32,"choice":32,"rt":507.55999999819323,"accuracy":1,"outcome":"-1","keys":[2008.1950000021607],"total_keys":1,"block":1,"trial":3,"stimulus":1,"robot":3,"valence":"lose","action":"go","sham":0,"trial_type":"pit-trial","trial_index":33,"time_elapsed":280612,"internal_node_id":"0.0-8.0","task_version":"battery-v0.2-trt","session":2},{"rune":"N","rune_set":"bacs2","hex":"#f73b6a7A","correct":-1,"choice":32,"rt":461.07000001939014,"accuracy":0,"outcome":"-10","keys":[1962.8149999771267],"total_keys":1,"block":1,"trial":4,"stimulus":0,"robot":4,"valence":"lose","action":"no-go","sham":0,"trial_type":"pit-trial","trial_index":34,"time_elapsed":283778,"internal_node_id":"0.0-9.0","task_version":"battery-v0.2-trt","session":2},{"rune":"A","rune_set":"bacs2","hex":"#f73b6a7A","correct":32,"choice":-1,"rt":-1,"accuracy":0,"outcome":"-10","keys":[],"total_keys":0,"block":1,"trial":5,"stimulus":2,"robot":3,"valence":"lose","action":"go","sham":0,"trial_type":"pit-trial","trial_index":35,"time_elapsed":287786,"internal_node_id":"0.0-10.0","task_version":"battery-v0.2-trt","session":2},{"rune":"N","rune_set":"bacs2","hex":"#f73b6a7A","correct":-1,"choice":32,"rt":737.1949999942444,"accuracy":0,"outcome":"-10","keys":[2239.7650000057183],"total_keys":1,"block":1,"trial":6,"stimulus":0,"robot":4,"valence":"lose","action":"no-go","sham":0,"trial_type":"pit-trial","trial_index":36,"time_elapsed":291230,"internal_node_id":"0.0-11.0","task_version":"battery-v0.2-trt","session":2},{"rune":"F","rune_set":"bacs2","hex":"#f73b6a7A","correct":32,"choice":32,"rt":595.5200000316836,"accuracy":1,"outcome":"-1","keys":[2096.5800000121817],"total_keys":1,"block":1,"trial":7,"stimulus":1,"robot":3,"valence":"lose","action":"go","sham":0,"trial_type":"pit-trial","trial_index":37,"time_elapsed":294531,"internal_node_id":"0.0-12.0","task_version":"battery-v0.2-trt","session":2},{"rune":"U","rune_set":"bacs2","hex":"#3366ff99","correct":32,"choice":32,"rt":473.3799999812618,"accuracy":1,"outcome":"+10","keys":[1974.7250000364147],"total_keys":1,"block":1,"trial":8,"stimulus":3,"robot":1,"valence":"win","action":"go","sham":0,"trial_type":"pit-trial","trial_index":38,"time_elapsed":297711,"internal_node_id":"0.0-13.0","task_version":"battery-v0.2-trt","session":2},{"rune":"F","rune_set":"bacs2","hex":"#f73b6a7A","correct":32,"choice":32,"rt":515.6500000157394,"accuracy":1,"outcome":"-1","keys":[2016.689999960363],"total_keys":1,"block":1,"trial":9,"stimulus":1,"robot":3,"valence":"lose","action":"go","sham":0,"trial_type":"pit-trial","trial_index":39,"time_elapsed":300933,"internal_node_id":"0.0-14.0","task_version":"battery-v0.2-trt","session":2},{"rune":"N","rune_set":"bacs2","hex":"#f73b6a7A","correct":-1,"choice":-1,"rt":-1,"accuracy":1,"outcome":"-1","keys":[],"total_keys":0,"block":1,"trial":10,"stimulus":0,"robot":4,"valence":"lose","action":"no-go","sham":0,"trial_type":"pit-trial","trial_index":40,"time_elapsed":304943,"internal_node_id":"0.0-15.0","task_version":"battery-v0.2-trt","session":2},{"rune":"U","rune_set":"bacs2","hex":"#3366ff99","correct":32,"choice":32,"rt":524.8399999691173,"accuracy":1,"outcome":"+10","keys":[2026.6900000278838],"total_keys":1,"block":1,"trial":11,"stimulus":3,"robot":1,"valence":"win","action":"go","sham":0,"trial_type":"pit-trial","trial_index":41,"time_elapsed":308175,"internal_node_id":"0.0-16.0","task_version":"battery-v0.2-trt","session":2},{"rune":"A","rune_set":"bacs2","hex":"#f73b6a7A","correct":32,"choice":-1,"rt":-1,"accuracy":0,"outcome":"-1","keys":[],"total_keys":0,"block":1,"trial":12,"stimulus":2,"robot":3,"valence":"lose","action":"go","sham":1,"trial_type":"pit-trial","trial_index":42,"time_elapsed":312181,"internal_node_id":"0.0-17.0","task_version":"battery-v0.2-trt","session":2},{"rune":"A","rune_set":"bacs2","hex":"#f73b6a7A","correct":32,"choice":-1,"rt":-1,"accuracy":0,"outcome":"-10","keys":[],"total_keys":0,"block":1,"trial":13,"stimulus":2,"robot":3,"valence":"lose","action":"go","sham":0,"trial_type":"pit-trial","trial_index":43,"time_elapsed":316186,"internal_node_id":"0.0-18.0","task_version":"battery-v0.2-trt","session":2},{"rune":"U","rune_set":"bacs2","hex":"#3366ff99","correct":32,"choice":32,"rt":464.1150000388734,"accuracy":1,"outcome":"+10","keys":[1965.6449999893084],"total_keys":1,"block":1,"trial":14,"stimulus":3,"robot":1,"valence":"win","action":"go","sham":0,"trial_type":"pit-trial","trial_index":44,"time_elapsed":319360,"internal_node_id":"0.0-19.0","task_version":"battery-v0.2-trt","session":2},{"rune":"N","rune_set":"bacs2","hex":"#f73b6a7A","correct":-1,"choice":32,"rt":790.3999999980442,"accuracy":0,"outcome":"-10","keys":[2290.740000025835],"total_keys":1,"block":1,"trial":15,"stimulus":0,"robot":4,"valence":"lose","action":"no-go","sham":0,"trial_type":"pit-trial","trial_index":45,"time_elapsed":322853,"internal_node_id":"0.0-20.0","task_version":"battery-v0.2-trt","session":2},{"rune":"F","rune_set":"bacs2","hex":"#f73b6a7A","correct":32,"choice":32,"rt":414.0649999608286,"accuracy":1,"outcome":"-1","keys":[1914.8999999742955],"total_keys":1,"block":1,"trial":16,"stimulus":1,"robot":3,"valence":"lose","action":"go","sham":0,"trial_type":"pit-trial","trial_index":46,"time_elapsed":325971,"internal_node_id":"0.0-21.0","task_version":"battery-v0.2-trt","session":2},{"rune":"U","rune_set":"bacs2","hex":"#3366ff99","correct":32,"choice":32,"rt":459.2749999719672,"accuracy":1,"outcome":"+1","keys":[1959.5749999862164],"total_keys":1,"block":1,"trial":17,"stimulus":3,"robot":1,"valence":"win","action":"go","sham":1,"trial_type":"pit-trial","trial_index":47,"time_elapsed":329133,"internal_node_id":"0.0-22.0","task_version":"battery-v0.2-trt","session":2},{"rune":"F","rune_set":"bacs2","hex":"#f73b6a7A","correct":32,"choice":32,"rt":604.4950000359677,"accuracy":1,"outcome":"-1","keys":[2106.939999968745],"total_keys":1,"block":1,"trial":18,"stimulus":1,"robot":3,"valence":"lose","action":"go","sham":0,"trial_type":"pit-trial","trial_index":48,"time_elapsed":332443,"internal_node_id":"0.0-23.0","task_version":"battery-v0.2-trt","session":2},{"rune":"N","rune_set":"bacs2","hex":"#f73b6a7A","correct":-1,"choice":-1,"rt":-1,"accuracy":1,"outcome":"-1","keys":[],"total_keys":0,"block":1,"trial":19,"stimulus":0,"robot":4,"valence":"lose","action":"no-go","sham":0,"trial_type":"pit-trial","trial_index":49,"time_elapsed":336449,"internal_node_id":"0.0-24.0","task_version":"battery-v0.2-trt","session":2},{"rune":"A","rune_set":"bacs2","hex":"#f73b6a7A","correct":32,"choice":-1,"rt":-1,"accuracy":0,"outcome":"-10","keys":[],"total_keys":0,"block":1,"trial":20,"stimulus":2,"robot":3,"valence":"lose","action":"go","sham":0,"trial_type":"pit-trial","trial_index":50,"time_elapsed":340454,"internal_node_id":"0.0-25.0","task_version":"battery-v0.2-trt","session":2},{"rune":"N","rune_set":"bacs2","hex":"#f73b6a7A","correct":-1,"choice":-1,"rt":-1,"accuracy":1,"outcome":"-10","keys":[],"total_keys":0,"block":1,"trial":21,"stimulus":0,"robot":4,"valence":"lose","action":"no-go","sham":1,"trial_type":"pit-trial","trial_index":51,"time_elapsed":344463,"internal_node_id":"0.0-26.0","task_version":"battery-v0.2-trt","session":2},{"rune":"U","rune_set":"bacs2","hex":"#3366ff99","correct":32,"choice":32,"rt":502.27499997708946,"accuracy":1,"outcome":"+10","keys":[2004.1399999754503],"total_keys":1,"block":1,"trial":22,"stimulus":3,"robot":1,"valence":"win","action":"go","sham":0,"trial_type":"pit-trial","trial_index":52,"time_elapsed":347670,"internal_node_id":"0.0-27.0","task_version":"battery-v0.2-trt","session":2},{"rune":"F","rune_set":"bacs2","hex":"#f73b6a7A","correct":32,"choice":32,"rt":597.9600000428036,"accuracy":1,"outcome":"-10","keys":[2098.5550000332296],"total_keys":1,"block":1,"trial":23,"stimulus":1,"robot":3,"valence":"lose","action":"go","sham":1,"trial_type":"pit-trial","trial_index":53,"time_elapsed":350971,"internal_node_id":"0.0-28.0","task_version":"battery-v0.2-trt","session":2},{"rune":"A","rune_set":"bacs2","hex":"#f73b6a7A","correct":32,"choice":-1,"rt":-1,"accuracy":0,"outcome":"-10","keys":[],"total_keys":0,"block":1,"trial":24,"stimulus":2,"robot":3,"valence":"lose","action":"go","sham":0,"trial_type":"pit-trial","trial_index":54,"time_elapsed":354977,"internal_node_id":"0.0-29.0","task_version":"battery-v0.2-trt","session":2},{"rune":"F","rune_set":"bacs2","hex":"#f73b6a7A","correct":32,"choice":32,"rt":630.4499999969266,"accuracy":1,"outcome":"-1","keys":[2130.699999979697],"total_keys":1,"block":1,"trial":25,"stimulus":1,"robot":3,"valence":"lose","action":"go","sham":0,"trial_type":"pit-trial","trial_index":55,"time_elapsed":358310,"internal_node_id":"0.0-30.0","task_version":"battery-v0.2-trt","session":2},{"rune":"N","rune_set":"bacs2","hex":"#f73b6a7A","correct":-1,"choice":-1,"rt":-1,"accuracy":1,"outcome":"-1","keys":[],"total_keys":0,"block":1,"trial":26,"stimulus":0,"robot":4,"valence":"lose","action":"no-go","sham":0,"trial_type":"pit-trial","trial_index":56,"time_elapsed":362321,"internal_node_id":"0.0-31.0","task_version":"battery-v0.2-trt","session":2},{"rune":"U","rune_set":"bacs2","hex":"#3366ff99","correct":32,"choice":32,"rt":556.0850000474602,"accuracy":1,"outcome":"+10","keys":[2056.4800000283867],"total_keys":1,"block":1,"trial":27,"stimulus":3,"robot":1,"valence":"win","action":"go","sham":0,"trial_type":"pit-trial","trial_index":57,"time_elapsed":365580,"internal_node_id":"0.0-32.0","task_version":"battery-v0.2-trt","session":2},{"rune":"A","rune_set":"bacs2","hex":"#f73b6a7A","correct":32,"choice":32,"rt":451.16500003496185,"accuracy":1,"outcome":"-10","keys":[1951.984999992419],"total_keys":1,"block":1,"trial":28,"stimulus":2,"robot":3,"valence":"lose","action":"go","sham":1,"trial_type":"pit-trial","trial_index":58,"time_elapsed":368737,"internal_node_id":"0.0-33.0","task_version":"battery-v0.2-trt","session":2},{"rune":"N","rune_set":"bacs2","hex":"#f73b6a7A","correct":-1,"choice":-1,"rt":-1,"accuracy":1,"outcome":"-1","keys":[],"total_keys":0,"block":1,"trial":29,"stimulus":0,"robot":4,"valence":"lose","action":"no-go","sham":0,"trial_type":"pit-trial","trial_index":59,"time_elapsed":372743,"internal_node_id":"0.0-34.0","task_version":"battery-v0.2-trt","session":2},{"rune":"U","rune_set":"bacs2","hex":"#3366ff99","correct":32,"choice":32,"rt":509.19999997131526,"accuracy":1,"outcome":"+10","keys":[2010.3949999902397],"total_keys":1,"block":1,"trial":30,"stimulus":3,"robot":1,"valence":"win","action":"go","sham":0,"trial_type":"pit-trial","trial_index":60,"time_elapsed":375957,"internal_node_id":"0.0-35.0","task_version":"battery-v0.2-trt","session":2},{"rune":"A","rune_set":"bacs2","hex":"#f73b6a7A","correct":32,"choice":-1,"rt":-1,"accuracy":0,"outcome":"-10","keys":[],"total_keys":0,"block":1,"trial":31,"stimulus":2,"robot":3,"valence":"lose","action":"go","sham":0,"trial_type":"pit-trial","trial_index":61,"time_elapsed":379961,"internal_node_id":"0.0-36.0","task_version":"battery-v0.2-trt","session":2},{"rune":"F","rune_set":"bacs2","hex":"#f73b6a7A","correct":32,"choice":32,"rt":542.7149999886751,"accuracy":1,"outcome":"-1","keys":[2058.5299999802373],"total_keys":1,"block":1,"trial":32,"stimulus":1,"robot":3,"valence":"lose","action":"go","sham":0,"trial_type":"pit-trial","trial_index":62,"time_elapsed":383223,"internal_node_id":"0.0-37.0","task_version":"battery-v0.2-trt","session":2},{"rune":"N","rune_set":"bacs2","hex":"#f73b6a7A","correct":-1,"choice":-1,"rt":-1,"accuracy":1,"outcome":"-1","keys":[],"total_keys":0,"block":1,"trial":33,"stimulus":0,"robot":4,"valence":"lose","action":"no-go","sham":0,"trial_type":"pit-trial","trial_index":63,"time_elapsed":387233,"internal_node_id":"0.0-38.0","task_version":"battery-v0.2-trt","session":2},{"rune":"S","rune_set":"bacs2","hex":"#f73b6a7A","correct":-1,"choice":32,"rt":684.2949999845587,"accuracy":0,"outcome":"-1","keys":[2184.430000022985],"total_keys":1,"block":1,"trial":34,"stimulus":4,"robot":4,"valence":"lose","action":"no-go","sham":1,"trial_type":"pit-trial","trial_index":64,"time_elapsed":390624,"internal_node_id":"0.0-39.0","task_version":"battery-v0.2-trt","session":2},{"rune":"U","rune_set":"bacs2","hex":"#3366ff99","correct":32,"choice":32,"rt":524.8249999713153,"accuracy":1,"outcome":"+10","keys":[2026.8250000081025],"total_keys":1,"block":1,"trial":35,"stimulus":3,"robot":1,"valence":"win","action":"go","sham":0,"trial_type":"pit-trial","trial_index":65,"time_elapsed":393855,"internal_node_id":"0.0-40.0","task_version":"battery-v0.2-trt","session":2},{"rune":"F","rune_set":"bacs2","hex":"#f73b6a7A","correct":32,"choice":32,"rt":518.9000000245869,"accuracy":1,"outcome":"-1","keys":[2019.0699999802746],"total_keys":1,"block":1,"trial":36,"stimulus":1,"robot":3,"valence":"lose","action":"go","sham":0,"trial_type":"pit-trial","trial_index":66,"time_elapsed":397077,"internal_node_id":"0.0-41.0","task_version":"battery-v0.2-trt","session":2},{"rune":"F","rune_set":"bacs2","hex":"#f73b6a7A","correct":32,"choice":32,"rt":513.4499999694526,"accuracy":1,"outcome":"-1","keys":[2015.735000022687],"total_keys":1,"block":1,"trial":37,"stimulus":1,"robot":3,"valence":"lose","action":"go","sham":0,"trial_type":"pit-trial","trial_index":67,"time_elapsed":400296,"internal_node_id":"0.0-42.0","task_version":"battery-v0.2-trt","session":2},{"rune":"S","rune_set":"bacs2","hex":"#f73b6a7A","correct":-1,"choice":32,"rt":580.4199999547563,"accuracy":0,"outcome":"-10","keys":[2082.460000005085],"total_keys":1,"block":1,"trial":38,"stimulus":4,"robot":4,"valence":"lose","action":"no-go","sham":0,"trial_type":"pit-trial","trial_index":68,"time_elapsed":403581,"internal_node_id":"0.0-43.0","task_version":"battery-v0.2-trt","session":2},{"rune":"U","rune_set":"bacs2","hex":"#3366ff99","correct":32,"choice":32,"rt":539.1900000395253,"accuracy":1,"outcome":"+10","keys":[2040.389999980107],"total_keys":1,"block":1,"trial":39,"stimulus":3,"robot":1,"valence":"win","action":"go","sham":0,"trial_type":"pit-trial","trial_index":69,"time_elapsed":406826,"internal_node_id":"0.0-44.0","task_version":"battery-v0.2-trt","session":2},{"rune":"N","rune_set":"bacs2","hex":"#f73b6a7A","correct":-1,"choice":-1,"rt":-1,"accuracy":1,"outcome":"-10","keys":[],"total_keys":0,"block":1,"trial":40,"stimulus":0,"robot":4,"valence":"lose","action":"no-go","sham":1,"trial_type":"pit-trial","trial_index":70,"time_elapsed":410834,"internal_node_id":"0.0-45.0","task_version":"battery-v0.2-trt","session":2},{"rune":"N","rune_set":"bacs2","hex":"#f73b6a7A","correct":-1,"choice":-1,"rt":-1,"accuracy":1,"outcome":"-10","keys":[],"total_keys":0,"block":1,"trial":41,"stimulus":0,"robot":4,"valence":"lose","action":"no-go","sham":1,"trial_type":"pit-trial","trial_index":71,"time_elapsed":414840,"internal_node_id":"0.0-46.0","task_version":"battery-v0.2-trt","session":2},{"rune":"S","rune_set":"bacs2","hex":"#f73b6a7A","correct":-1,"choice":32,"rt":734.519999998156,"accuracy":0,"outcome":"-10","keys":[2235.4300000006333],"total_keys":1,"block":1,"trial":42,"stimulus":4,"robot":4,"valence":"lose","action":"no-go","sham":0,"trial_type":"pit-trial","trial_index":72,"time_elapsed":418278,"internal_node_id":"0.0-47.0","task_version":"battery-v0.2-trt","session":2},{"rune":"L","rune_set":"bacs2","hex":"#3366ff99","correct":-1,"choice":32,"rt":674.1000000038184,"accuracy":0,"outcome":"+1","keys":[2176.0099999955855],"total_keys":1,"block":1,"trial":43,"stimulus":5,"robot":2,"valence":"win","action":"no-go","sham":0,"trial_type":"pit-trial","trial_index":73,"time_elapsed":421658,"internal_node_id":"0.0-48.0","task_version":"battery-v0.2-trt","session":2},{"rune":"F","rune_set":"bacs2","hex":"#f73b6a7A","correct":32,"choice":32,"rt":516.8749999720603,"accuracy":1,"outcome":"-1","keys":[2017.0650000218302],"total_keys":1,"block":1,"trial":44,"stimulus":1,"robot":3,"valence":"lose","action":"go","sham":0,"trial_type":"pit-trial","trial_index":74,"time_elapsed":424878,"internal_node_id":"0.0-49.0","task_version":"battery-v0.2-trt","session":2},{"rune":"L","rune_set":"bacs2","hex":"#3366ff99","correct":-1,"choice":-1,"rt":-1,"accuracy":1,"outcome":"+10","keys":[],"total_keys":0,"block":1,"trial":45,"stimulus":5,"robot":2,"valence":"win","action":"no-go","sham":0,"trial_type":"pit-trial","trial_index":75,"time_elapsed":428886,"internal_node_id":"0.0-50.0","task_version":"battery-v0.2-trt","session":2},{"rune":"F","rune_set":"bacs2","hex":"#f73b6a7A","correct":32,"choice":32,"rt":578.6749999970198,"accuracy":1,"outcome":"-10","keys":[2079.7550000133924],"total_keys":1,"block":1,"trial":46,"stimulus":1,"robot":3,"valence":"lose","action":"go","sham":1,"trial_type":"pit-trial","trial_index":76,"time_elapsed":432169,"internal_node_id":"0.0-51.0","task_version":"battery-v0.2-trt","session":2},{"rune":"S","rune_set":"bacs2","hex":"#f73b6a7A","correct":-1,"choice":-1,"rt":-1,"accuracy":1,"outcome":"-10","keys":[],"total_keys":0,"block":1,"trial":47,"stimulus":4,"robot":4,"valence":"lose","action":"no-go","sham":1,"trial_type":"pit-trial","trial_index":77,"time_elapsed":436179,"internal_node_id":"0.0-52.0","task_version":"battery-v0.2-trt","session":2},{"rune":"N","rune_set":"bacs2","hex":"#f73b6a7A","correct":-1,"choice":-1,"rt":-1,"accuracy":1,"outcome":"-1","keys":[],"total_keys":0,"block":1,"trial":48,"stimulus":0,"robot":4,"valence":"lose","action":"no-go","sham":0,"trial_type":"pit-trial","trial_index":78,"time_elapsed":440185,"internal_node_id":"0.0-53.0","task_version":"battery-v0.2-trt","session":2},{"rune":"S","rune_set":"bacs2","hex":"#f73b6a7A","correct":-1,"choice":32,"rt":934.5749999629334,"accuracy":0,"outcome":"-10","keys":[2434.9849999998696],"total_keys":1,"block":1,"trial":49,"stimulus":4,"robot":4,"valence":"lose","action":"no-go","sham":0,"trial_type":"pit-trial","trial_index":79,"time_elapsed":443827,"internal_node_id":"0.0-54.0","task_version":"battery-v0.2-trt","session":2},{"rune":"R","rune_set":"bacs2","hex":"#3366ff99","correct":32,"choice":32,"rt":701.2749999994412,"accuracy":1,"outcome":"+10","keys":[2202.9099999926984],"total_keys":1,"block":1,"trial":50,"stimulus":7,"robot":1,"valence":"win","action":"go","sham":0,"trial_type":"pit-trial","trial_index":80,"time_elapsed":447235,"internal_node_id":"0.0-55.0","task_version":"battery-v0.2-trt","session":2},{"rune":"L","rune_set":"bacs2","hex":"#3366ff99","correct":-1,"choice":-1,"rt":-1,"accuracy":1,"outcome":"+10","keys":[],"total_keys":0,"block":1,"trial":51,"stimulus":5,"robot":2,"valence":"win","action":"no-go","sham":0,"trial_type":"pit-trial","trial_index":81,"time_elapsed":451241,"internal_node_id":"0.0-56.0","task_version":"battery-v0.2-trt","session":2},{"rune":"P","rune_set":"bacs2","hex":"#f73b6a7A","correct":-1,"choice":32,"rt":749.9550000065938,"accuracy":0,"outcome":"-10","keys":[2251.059999980498],"total_keys":1,"block":1,"trial":52,"stimulus":6,"robot":4,"valence":"lose","action":"no-go","sham":0,"trial_type":"pit-trial","trial_index":82,"time_elapsed":454695,"internal_node_id":"0.0-57.0","task_version":"battery-v0.2-trt","session":2},{"rune":"P","rune_set":"bacs2","hex":"#f73b6a7A","correct":-1,"choice":-1,"rt":-1,"accuracy":1,"outcome":"-10","keys":[],"total_keys":0,"block":1,"trial":53,"stimulus":6,"robot":4,"valence":"lose","action":"no-go","sham":1,"trial_type":"pit-trial","trial_index":83,"time_elapsed":458703,"internal_node_id":"0.0-58.0","task_version":"battery-v0.2-trt","session":2},{"rune":"R","rune_set":"bacs2","hex":"#3366ff99","correct":32,"choice":32,"rt":618.6000000452623,"accuracy":1,"outcome":"+10","keys":[2119.6599999675527],"total_keys":1,"block":1,"trial":54,"stimulus":7,"robot":1,"valence":"win","action":"go","sham":0,"trial_type":"pit-trial","trial_index":84,"time_elapsed":462026,"internal_node_id":"0.0-59.0","task_version":"battery-v0.2-trt","session":2},{"rune":"L","rune_set":"bacs2","hex":"#3366ff99","correct":-1,"choice":32,"rt":718.7249999842606,"accuracy":0,"outcome":"+1","keys":[2218.955000047572],"total_keys":1,"block":1,"trial":55,"stimulus":5,"robot":2,"valence":"win","action":"no-go","sham":0,"trial_type":"pit-trial","trial_index":85,"time_elapsed":465447,"internal_node_id":"0.0-60.0","task_version":"battery-v0.2-trt","session":2},{"rune":"S","rune_set":"bacs2","hex":"#f73b6a7A","correct":-1,"choice":-1,"rt":-1,"accuracy":1,"outcome":"-1","keys":[],"total_keys":0,"block":1,"trial":56,"stimulus":4,"robot":4,"valence":"lose","action":"no-go","sham":0,"trial_type":"pit-trial","trial_index":86,"time_elapsed":469455,"internal_node_id":"0.0-61.0","task_version":"battery-v0.2-trt","session":2},{"rune":"L","rune_set":"bacs2","hex":"#3366ff99","correct":-1,"choice":-1,"rt":-1,"accuracy":1,"outcome":"+10","keys":[],"total_keys":0,"block":1,"trial":57,"stimulus":5,"robot":2,"valence":"win","action":"no-go","sham":0,"trial_type":"pit-trial","trial_index":87,"time_elapsed":473463,"internal_node_id":"0.0-62.0","task_version":"battery-v0.2-trt","session":2},{"rune":"P","rune_set":"bacs2","hex":"#f73b6a7A","correct":-1,"choice":-1,"rt":-1,"accuracy":1,"outcome":"-10","keys":[],"total_keys":0,"block":1,"trial":58,"stimulus":6,"robot":4,"valence":"lose","action":"no-go","sham":1,"trial_type":"pit-trial","trial_index":88,"time_elapsed":477468,"internal_node_id":"0.0-63.0","task_version":"battery-v0.2-trt","session":2},{"rune":"R","rune_set":"bacs2","hex":"#3366ff99","correct":32,"choice":32,"rt":638.2049999665469,"accuracy":1,"outcome":"+10","keys":[2139.7850000066683],"total_keys":1,"block":1,"trial":59,"stimulus":7,"robot":1,"valence":"win","action":"go","sham":0,"trial_type":"pit-trial","trial_index":89,"time_elapsed":480810,"internal_node_id":"0.0-64.0","task_version":"battery-v0.2-trt","session":2},{"rune":"S","rune_set":"bacs2","hex":"#f73b6a7A","correct":-1,"choice":-1,"rt":-1,"accuracy":1,"outcome":"-10","keys":[],"total_keys":0,"block":1,"trial":60,"stimulus":4,"robot":4,"valence":"lose","action":"no-go","sham":1,"trial_type":"pit-trial","trial_index":90,"time_elapsed":484820,"internal_node_id":"0.0-65.0","task_version":"battery-v0.2-trt","session":2},{"rune":"R","rune_set":"bacs2","hex":"#3366ff99","correct":32,"choice":32,"rt":495.21999998250976,"accuracy":1,"outcome":"+10","keys":[2000.5699999746867],"total_keys":1,"block":1,"trial":61,"stimulus":7,"robot":1,"valence":"win","action":"go","sham":0,"trial_type":"pit-trial","trial_index":91,"time_elapsed":488026,"internal_node_id":"0.0-66.0","task_version":"battery-v0.2-trt","session":2},{"rune":"P","rune_set":"bacs2","hex":"#f73b6a7A","correct":-1,"choice":-1,"rt":-1,"accuracy":1,"outcome":"-1","keys":[],"total_keys":0,"block":1,"trial":62,"stimulus":6,"robot":4,"valence":"lose","action":"no-go","sham":0,"trial_type":"pit-trial","trial_index":92,"time_elapsed":492033,"internal_node_id":"0.0-67.0","task_version":"battery-v0.2-trt","session":2},{"rune":"L","rune_set":"bacs2","hex":"#3366ff99","correct":-1,"choice":-1,"rt":-1,"accuracy":1,"outcome":"+1","keys":[],"total_keys":0,"block":1,"trial":63,"stimulus":5,"robot":2,"valence":"win","action":"no-go","sham":1,"trial_type":"pit-trial","trial_index":93,"time_elapsed":496037,"internal_node_id":"0.0-68.0","task_version":"battery-v0.2-trt","session":2},{"rune":"S","rune_set":"bacs2","hex":"#f73b6a7A","correct":-1,"choice":-1,"rt":-1,"accuracy":1,"outcome":"-1","keys":[],"total_keys":0,"block":1,"trial":64,"stimulus":4,"robot":4,"valence":"lose","action":"no-go","sham":0,"trial_type":"pit-trial","trial_index":94,"time_elapsed":500042,"internal_node_id":"0.0-69.0","task_version":"battery-v0.2-trt","session":2},{"rune":"L","rune_set":"bacs2","hex":"#3366ff99","correct":-1,"choice":-1,"rt":-1,"accuracy":1,"outcome":"+10","keys":[],"total_keys":0,"block":1,"trial":65,"stimulus":5,"robot":2,"valence":"win","action":"no-go","sham":0,"trial_type":"pit-trial","trial_index":95,"time_elapsed":504048,"internal_node_id":"0.0-70.0","task_version":"battery-v0.2-trt","session":2},{"rune":"S","rune_set":"bacs2","hex":"#f73b6a7A","correct":-1,"choice":-1,"rt":-1,"accuracy":1,"outcome":"-1","keys":[],"total_keys":0,"block":1,"trial":66,"stimulus":4,"robot":4,"valence":"lose","action":"no-go","sham":0,"trial_type":"pit-trial","trial_index":96,"time_elapsed":508057,"internal_node_id":"0.0-71.0","task_version":"battery-v0.2-trt","session":2},{"rune":"R","rune_set":"bacs2","hex":"#3366ff99","correct":32,"choice":32,"rt":600.2850000513718,"accuracy":1,"outcome":"+10","keys":[2103.069999953732],"total_keys":1,"block":1,"trial":67,"stimulus":7,"robot":1,"valence":"win","action":"go","sham":0,"trial_type":"pit-trial","trial_index":97,"time_elapsed":511365,"internal_node_id":"0.0-72.0","task_version":"battery-v0.2-trt","session":2},{"rune":"P","rune_set":"bacs2","hex":"#f73b6a7A","correct":-1,"choice":-1,"rt":-1,"accuracy":1,"outcome":"-1","keys":[],"total_keys":0,"block":1,"trial":68,"stimulus":6,"robot":4,"valence":"lose","action":"no-go","sham":0,"trial_type":"pit-trial","trial_index":98,"time_elapsed":515371,"internal_node_id":"0.0-73.0","task_version":"battery-v0.2-trt","session":2},{"rune":"P","rune_set":"bacs2","hex":"#f73b6a7A","correct":-1,"choice":-1,"rt":-1,"accuracy":1,"outcome":"-1","keys":[],"total_keys":0,"block":1,"trial":69,"stimulus":6,"robot":4,"valence":"lose","action":"no-go","sham":0,"trial_type":"pit-trial","trial_index":99,"time_elapsed":519376,"internal_node_id":"0.0-74.0","task_version":"battery-v0.2-trt","session":2},{"rune":"L","rune_set":"bacs2","hex":"#3366ff99","correct":-1,"choice":-1,"rt":-1,"accuracy":1,"outcome":"+10","keys":[],"total_keys":0,"block":1,"trial":70,"stimulus":5,"robot":2,"valence":"win","action":"no-go","sham":0,"trial_type":"pit-trial","trial_index":100,"time_elapsed":523382,"internal_node_id":"0.0-75.0","task_version":"battery-v0.2-trt","session":2},{"rune":"S","rune_set":"bacs2","hex":"#f73b6a7A","correct":-1,"choice":-1,"rt":-1,"accuracy":1,"outcome":"-10","keys":[],"total_keys":0,"block":1,"trial":71,"stimulus":4,"robot":4,"valence":"lose","action":"no-go","sham":1,"trial_type":"pit-trial","trial_index":101,"time_elapsed":527387,"internal_node_id":"0.0-76.0","task_version":"battery-v0.2-trt","session":2},{"rune":"R","rune_set":"bacs2","hex":"#3366ff99","correct":32,"choice":32,"rt":579.8549999599345,"accuracy":1,"outcome":"+10","keys":[2083.329999994021],"total_keys":1,"block":1,"trial":72,"stimulus":7,"robot":1,"valence":"win","action":"go","sham":0,"trial_type":"pit-trial","trial_index":102,"time_elapsed":530678,"internal_node_id":"0.0-77.0","task_version":"battery-v0.2-trt","session":2},{"rune":"V","rune_set":"bacs2","hex":"#3366ff99","correct":32,"choice":32,"rt":750.2000000094995,"accuracy":1,"outcome":"+10","keys":[2250.995000009425],"total_keys":1,"block":1,"trial":73,"stimulus":8,"robot":1,"valence":"win","action":"go","sham":0,"trial_type":"pit-trial","trial_index":103,"time_elapsed":534134,"internal_node_id":"0.0-78.0","task_version":"battery-v0.2-trt","session":2},{"rune":"R","rune_set":"bacs2","hex":"#3366ff99","correct":32,"choice":32,"rt":563.2500000065193,"accuracy":1,"outcome":"+1","keys":[2064.8049999726936],"total_keys":1,"block":1,"trial":74,"stimulus":7,"robot":1,"valence":"win","action":"go","sham":1,"trial_type":"pit-trial","trial_index":104,"time_elapsed":537402,"internal_node_id":"0.0-79.0","task_version":"battery-v0.2-trt","session":2},{"rune":"P","rune_set":"bacs2","hex":"#f73b6a7A","correct":-1,"choice":32,"rt":1002.5599999935366,"accuracy":0,"outcome":"-10","keys":[2503.5849999985658],"total_keys":1,"block":1,"trial":75,"stimulus":6,"robot":4,"valence":"lose","action":"no-go","sham":0,"trial_type":"pit-trial","trial_index":105,"time_elapsed":541110,"internal_node_id":"0.0-80.0","task_version":"battery-v0.2-trt","session":2},{"rune":"L","rune_set":"bacs2","hex":"#3366ff99","correct":-1,"choice":-1,"rt":-1,"accuracy":1,"outcome":"+10","keys":[],"total_keys":0,"block":1,"trial":76,"stimulus":5,"robot":2,"valence":"win","action":"no-go","sham":0,"trial_type":"pit-trial","trial_index":106,"time_elapsed":545116,"internal_node_id":"0.0-81.0","task_version":"battery-v0.2-trt","session":2},{"rune":"L","rune_set":"bacs2","hex":"#3366ff99","correct":-1,"choice":-1,"rt":-1,"accuracy":1,"outcome":"+10","keys":[],"total_keys":0,"block":1,"trial":77,"stimulus":5,"robot":2,"valence":"win","action":"no-go","sham":0,"trial_type":"pit-trial","trial_index":107,"time_elapsed":549126,"internal_node_id":"0.0-82.0","task_version":"battery-v0.2-trt","session":2},{"rune":"P","rune_set":"bacs2","hex":"#f73b6a7A","correct":-1,"choice":-1,"rt":-1,"accuracy":1,"outcome":"-1","keys":[],"total_keys":0,"block":1,"trial":78,"stimulus":6,"robot":4,"valence":"lose","action":"no-go","sham":0,"trial_type":"pit-trial","trial_index":108,"time_elapsed":553132,"internal_node_id":"0.0-83.0","task_version":"battery-v0.2-trt","session":2},{"rune":"R","rune_set":"bacs2","hex":"#3366ff99","correct":32,"choice":32,"rt":637.3299999977462,"accuracy":1,"outcome":"+10","keys":[2139.6400000085123],"total_keys":1,"block":1,"trial":79,"stimulus":7,"robot":1,"valence":"win","action":"go","sham":0,"trial_type":"pit-trial","trial_index":109,"time_elapsed":556474,"internal_node_id":"0.0-84.0","task_version":"battery-v0.2-trt","session":2},{"rune":"V","rune_set":"bacs2","hex":"#3366ff99","correct":32,"choice":32,"rt":659.1499999631196,"accuracy":1,"outcome":"+10","keys":[2159.5249999663793],"total_keys":1,"block":1,"trial":80,"stimulus":8,"robot":1,"valence":"win","action":"go","sham":0,"trial_type":"pit-trial","trial_index":110,"time_elapsed":559836,"internal_node_id":"0.0-85.0","task_version":"battery-v0.2-trt","session":2},{"rune":"K","rune_set":"bacs2","hex":"#3366ff99","correct":-1,"choice":32,"rt":686.4000000059605,"accuracy":0,"outcome":"+1","keys":[2186.790000007022],"total_keys":1,"block":1,"trial":81,"stimulus":9,"robot":2,"valence":"win","action":"no-go","sham":0,"trial_type":"pit-trial","trial_index":111,"time_elapsed":563226,"internal_node_id":"0.0-86.0","task_version":"battery-v0.2-trt","session":2},{"rune":"V","rune_set":"bacs2","hex":"#3366ff99","correct":32,"choice":32,"rt":866.8099999777041,"accuracy":1,"outcome":"+10","keys":[2367.580000020098],"total_keys":1,"block":1,"trial":82,"stimulus":8,"robot":1,"valence":"win","action":"go","sham":0,"trial_type":"pit-trial","trial_index":112,"time_elapsed":566797,"internal_node_id":"0.0-87.0","task_version":"battery-v0.2-trt","session":2},{"rune":"B","rune_set":"bacs2","hex":"#f73b6a7A","correct":32,"choice":32,"rt":693.8350000418723,"accuracy":1,"outcome":"-1","keys":[2194.710000010673],"total_keys":1,"block":1,"trial":83,"stimulus":10,"robot":3,"valence":"lose","action":"go","sham":0,"trial_type":"pit-trial","trial_index":113,"time_elapsed":570194,"internal_node_id":"0.0-88.0","task_version":"battery-v0.2-trt","session":2},{"rune":"L","rune_set":"bacs2","hex":"#3366ff99","correct":-1,"choice":-1,"rt":-1,"accuracy":1,"outcome":"+10","keys":[],"total_keys":0,"block":1,"trial":84,"stimulus":5,"robot":2,"valence":"win","action":"no-go","sham":0,"trial_type":"pit-trial","trial_index":114,"time_elapsed":574203,"internal_node_id":"0.0-89.0","task_version":"battery-v0.2-trt","session":2},{"rune":"B","rune_set":"bacs2","hex":"#f73b6a7A","correct":32,"choice":32,"rt":562.05000000773,"accuracy":1,"outcome":"-1","keys":[2063.480000011623],"total_keys":1,"block":1,"trial":85,"stimulus":10,"robot":3,"valence":"lose","action":"go","sham":0,"trial_type":"pit-trial","trial_index":115,"time_elapsed":577469,"internal_node_id":"0.0-90.0","task_version":"battery-v0.2-trt","session":2},{"rune":"K","rune_set":"bacs2","hex":"#3366ff99","correct":-1,"choice":-1,"rt":-1,"accuracy":1,"outcome":"+1","keys":[],"total_keys":0,"block":1,"trial":86,"stimulus":9,"robot":2,"valence":"win","action":"no-go","sham":1,"trial_type":"pit-trial","trial_index":116,"time_elapsed":581479,"internal_node_id":"0.0-91.0","task_version":"battery-v0.2-trt","session":2},{"rune":"L","rune_set":"bacs2","hex":"#3366ff99","correct":-1,"choice":-1,"rt":-1,"accuracy":1,"outcome":"+10","keys":[],"total_keys":0,"block":1,"trial":87,"stimulus":5,"robot":2,"valence":"win","action":"no-go","sham":0,"trial_type":"pit-trial","trial_index":117,"time_elapsed":585486,"internal_node_id":"0.0-92.0","task_version":"battery-v0.2-trt","session":2},{"rune":"V","rune_set":"bacs2","hex":"#3366ff99","correct":32,"choice":32,"rt":628.9749999996275,"accuracy":1,"outcome":"+1","keys":[2129.96499997098],"total_keys":1,"block":1,"trial":88,"stimulus":8,"robot":1,"valence":"win","action":"go","sham":1,"trial_type":"pit-trial","trial_index":118,"time_elapsed":588823,"internal_node_id":"0.0-93.0","task_version":"battery-v0.2-trt","session":2},{"rune":"K","rune_set":"bacs2","hex":"#3366ff99","correct":-1,"choice":32,"rt":661.835000035353,"accuracy":0,"outcome":"+10","keys":[2163.3549999678507],"total_keys":1,"block":1,"trial":89,"stimulus":9,"robot":2,"valence":"win","action":"no-go","sham":1,"trial_type":"pit-trial","trial_index":119,"time_elapsed":592191,"internal_node_id":"0.0-94.0","task_version":"battery-v0.2-trt","session":2},{"rune":"M","rune_set":"bacs2","hex":"#3366ff99","correct":-1,"choice":32,"rt":620.4499999876134,"accuracy":0,"outcome":"+1","keys":[2121.2950000190176],"total_keys":1,"block":1,"trial":90,"stimulus":11,"robot":2,"valence":"win","action":"no-go","sham":0,"trial_type":"pit-trial","trial_index":120,"time_elapsed":595515,"internal_node_id":"0.0-95.0","task_version":"battery-v0.2-trt","session":2},{"rune":"V","rune_set":"bacs2","hex":"#3366ff99","correct":32,"choice":32,"rt":633.475000038743,"accuracy":1,"outcome":"+10","keys":[2135.6200000154786],"total_keys":1,"block":1,"trial":91,"stimulus":8,"robot":1,"valence":"win","action":"go","sham":0,"trial_type":"pit-trial","trial_index":121,"time_elapsed":598856,"internal_node_id":"0.0-96.0","task_version":"battery-v0.2-trt","session":2},{"rune":"B","rune_set":"bacs2","hex":"#f73b6a7A","correct":32,"choice":32,"rt":626.7900000093505,"accuracy":1,"outcome":"-1","keys":[2128.484999993816],"total_keys":1,"block":1,"trial":92,"stimulus":10,"robot":3,"valence":"lose","action":"go","sham":0,"trial_type":"pit-trial","trial_index":122,"time_elapsed":602188,"internal_node_id":"0.0-97.0","task_version":"battery-v0.2-trt","session":2},{"rune":"V","rune_set":"bacs2","hex":"#3366ff99","correct":32,"choice":32,"rt":739.1850000130944,"accuracy":1,"outcome":"+1","keys":[2239.5499999984168],"total_keys":1,"block":1,"trial":93,"stimulus":8,"robot":1,"valence":"win","action":"go","sham":1,"trial_type":"pit-trial","trial_index":123,"time_elapsed":605630,"internal_node_id":"0.0-98.0","task_version":"battery-v0.2-trt","session":2},{"rune":"M","rune_set":"bacs2","hex":"#3366ff99","correct":-1,"choice":-1,"rt":-1,"accuracy":1,"outcome":"+1","keys":[],"total_keys":0,"block":1,"trial":94,"stimulus":11,"robot":2,"valence":"win","action":"no-go","sham":1,"trial_type":"pit-trial","trial_index":124,"time_elapsed":609636,"internal_node_id":"0.0-99.0","task_version":"battery-v0.2-trt","session":2},{"rune":"K","rune_set":"bacs2","hex":"#3366ff99","correct":-1,"choice":32,"rt":767.8500000038184,"accuracy":0,"outcome":"+10","keys":[2268.819999997504],"total_keys":1,"block":1,"trial":95,"stimulus":9,"robot":2,"valence":"win","action":"no-go","sham":1,"trial_type":"pit-trial","trial_index":125,"time_elapsed":613107,"internal_node_id":"0.0-100.0","task_version":"battery-v0.2-trt","session":2},{"rune":"B","rune_set":"bacs2","hex":"#f73b6a7A","correct":32,"choice":32,"rt":618.6650000163354,"accuracy":1,"outcome":"-1","keys":[2120.200000004843],"total_keys":1,"block":1,"trial":96,"stimulus":10,"robot":3,"valence":"lose","action":"go","sham":0,"trial_type":"pit-trial","trial_index":126,"time_elapsed":616430,"internal_node_id":"0.0-101.0","task_version":"battery-v0.2-trt","session":2},{"rune":"M","rune_set":"bacs2","hex":"#3366ff99","correct":-1,"choice":32,"rt":565.0799999712035,"accuracy":0,"outcome":"+1","keys":[2066.609999979846],"total_keys":1,"block":1,"trial":97,"stimulus":11,"robot":2,"valence":"win","action":"no-go","sham":0,"trial_type":"pit-trial","trial_index":127,"time_elapsed":619700,"internal_node_id":"0.0-102.0","task_version":"battery-v0.2-trt","session":2},{"rune":"K","rune_set":"bacs2","hex":"#3366ff99","correct":-1,"choice":32,"rt":706.9899999769405,"accuracy":0,"outcome":"+1","keys":[2207.6799999922514],"total_keys":1,"block":1,"trial":98,"stimulus":9,"robot":2,"valence":"win","action":"no-go","sham":0,"trial_type":"pit-trial","trial_index":128,"time_elapsed":623112,"internal_node_id":"0.0-103.0","task_version":"battery-v0.2-trt","session":2},{"rune":"B","rune_set":"bacs2","hex":"#f73b6a7A","correct":32,"choice":32,"rt":612.4350000172853,"accuracy":1,"outcome":"-1","keys":[2112.7249999553896],"total_keys":1,"block":1,"trial":99,"stimulus":10,"robot":3,"valence":"lose","action":"go","sham":0,"trial_type":"pit-trial","trial_index":129,"time_elapsed":626428,"internal_node_id":"0.0-104.0","task_version":"battery-v0.2-trt","session":2},{"rune":"V","rune_set":"bacs2","hex":"#3366ff99","correct":32,"choice":32,"rt":802.3800000082701,"accuracy":1,"outcome":"+10","keys":[2303.424999990966],"total_keys":1,"block":1,"trial":100,"stimulus":8,"robot":1,"valence":"win","action":"go","sham":0,"trial_type":"pit-trial","trial_index":130,"time_elapsed":629935,"internal_node_id":"0.0-105.0","task_version":"battery-v0.2-trt","session":2},{"rune":"B","rune_set":"bacs2","hex":"#f73b6a7A","correct":32,"choice":32,"rt":589.1100000008009,"accuracy":1,"outcome":"-1","keys":[2090.4199999640696],"total_keys":1,"block":1,"trial":101,"stimulus":10,"robot":3,"valence":"lose","action":"go","sham":0,"trial_type":"pit-trial","trial_index":131,"time_elapsed":633228,"internal_node_id":"0.0-106.0","task_version":"battery-v0.2-trt","session":2},{"rune":"V","rune_set":"bacs2","hex":"#3366ff99","correct":32,"choice":32,"rt":659.1849999967963,"accuracy":1,"outcome":"+10","keys":[2159.7750000073574],"total_keys":1,"block":1,"trial":102,"stimulus":8,"robot":1,"valence":"win","action":"go","sham":0,"trial_type":"pit-trial","trial_index":132,"time_elapsed":636591,"internal_node_id":"0.0-107.0","task_version":"battery-v0.2-trt","session":2},{"rune":"M","rune_set":"bacs2","hex":"#3366ff99","correct":-1,"choice":-1,"rt":-1,"accuracy":1,"outcome":"+10","keys":[],"total_keys":0,"block":1,"trial":103,"stimulus":11,"robot":2,"valence":"win","action":"no-go","sham":0,"trial_type":"pit-trial","trial_index":133,"time_elapsed":640601,"internal_node_id":"0.0-108.0","task_version":"battery-v0.2-trt","session":2},{"rune":"K","rune_set":"bacs2","hex":"#3366ff99","correct":-1,"choice":-1,"rt":-1,"accuracy":1,"outcome":"+10","keys":[],"total_keys":0,"block":1,"trial":104,"stimulus":9,"robot":2,"valence":"win","action":"no-go","sham":0,"trial_type":"pit-trial","trial_index":134,"time_elapsed":644607,"internal_node_id":"0.0-109.0","task_version":"battery-v0.2-trt","session":2},{"rune":"K","rune_set":"bacs2","hex":"#3366ff99","correct":-1,"choice":-1,"rt":-1,"accuracy":1,"outcome":"+10","keys":[],"total_keys":0,"block":1,"trial":105,"stimulus":9,"robot":2,"valence":"win","action":"no-go","sham":0,"trial_type":"pit-trial","trial_index":135,"time_elapsed":648617,"internal_node_id":"0.0-110.0","task_version":"battery-v0.2-trt","session":2},{"rune":"B","rune_set":"bacs2","hex":"#f73b6a7A","correct":32,"choice":32,"rt":644.4999999948777,"accuracy":1,"outcome":"-1","keys":[2144.945000007283],"total_keys":1,"block":1,"trial":106,"stimulus":10,"robot":3,"valence":"lose","action":"go","sham":0,"trial_type":"pit-trial","trial_index":136,"time_elapsed":651965,"internal_node_id":"0.0-111.0","task_version":"battery-v0.2-trt","session":2},{"rune":"V","rune_set":"bacs2","hex":"#3366ff99","correct":32,"choice":32,"rt":1146.3649999932386,"accuracy":1,"outcome":"+10","keys":[2647.9799999506213],"total_keys":1,"block":1,"trial":107,"stimulus":8,"robot":1,"valence":"win","action":"go","sham":0,"trial_type":"pit-trial","trial_index":137,"time_elapsed":655817,"internal_node_id":"0.0-112.0","task_version":"battery-v0.2-trt","session":2},{"rune":"M","rune_set":"bacs2","hex":"#3366ff99","correct":-1,"choice":-1,"rt":-1,"accuracy":1,"outcome":"+10","keys":[],"total_keys":0,"block":1,"trial":108,"stimulus":11,"robot":2,"valence":"win","action":"no-go","sham":0,"trial_type":"pit-trial","trial_index":138,"time_elapsed":659821,"internal_node_id":"0.0-113.0","task_version":"battery-v0.2-trt","session":2},{"rune":"B","rune_set":"bacs2","hex":"#f73b6a7A","correct":32,"choice":32,"rt":615.9500000067055,"accuracy":1,"outcome":"-1","keys":[2116.9649999937974],"total_keys":1,"block":1,"trial":109,"stimulus":10,"robot":3,"valence":"lose","action":"go","sham":0,"trial_type":"pit-trial","trial_index":139,"time_elapsed":663141,"internal_node_id":"0.0-114.0","task_version":"battery-v0.2-trt","session":2},{"rune":"M","rune_set":"bacs2","hex":"#3366ff99","correct":-1,"choice":-1,"rt":-1,"accuracy":1,"outcome":"+10","keys":[],"total_keys":0,"block":1,"trial":110,"stimulus":11,"robot":2,"valence":"win","action":"no-go","sham":0,"trial_type":"pit-trial","trial_index":140,"time_elapsed":667146,"internal_node_id":"0.0-115.0","task_version":"battery-v0.2-trt","session":2},{"rune":"K","rune_set":"bacs2","hex":"#3366ff99","correct":-1,"choice":-1,"rt":-1,"accuracy":1,"outcome":"+10","keys":[],"total_keys":0,"block":1,"trial":111,"stimulus":9,"robot":2,"valence":"win","action":"no-go","sham":0,"trial_type":"pit-trial","trial_index":141,"time_elapsed":671151,"internal_node_id":"0.0-116.0","task_version":"battery-v0.2-trt","session":2},{"rune":"V","rune_set":"bacs2","hex":"#3366ff99","correct":32,"choice":32,"rt":696.8399999896064,"accuracy":1,"outcome":"+10","keys":[2198.4599999850616],"total_keys":1,"block":1,"trial":112,"stimulus":8,"robot":1,"valence":"win","action":"go","sham":0,"trial_type":"pit-trial","trial_index":142,"time_elapsed":674553,"internal_node_id":"0.0-117.0","task_version":"battery-v0.2-trt","session":2},{"rune":"B","rune_set":"bacs2","hex":"#f73b6a7A","correct":32,"choice":32,"rt":619.0449999994598,"accuracy":1,"outcome":"-1","keys":[2121.7600000090897],"total_keys":1,"block":1,"trial":113,"stimulus":10,"robot":3,"valence":"lose","action":"go","sham":0,"trial_type":"pit-trial","trial_index":143,"time_elapsed":677877,"internal_node_id":"0.0-118.0","task_version":"battery-v0.2-trt","session":2},{"rune":"M","rune_set":"bacs2","hex":"#3366ff99","correct":-1,"choice":-1,"rt":-1,"accuracy":1,"outcome":"+10","keys":[],"total_keys":0,"block":1,"trial":114,"stimulus":11,"robot":2,"valence":"win","action":"no-go","sham":0,"trial_type":"pit-trial","trial_index":144,"time_elapsed":681883,"internal_node_id":"0.0-119.0","task_version":"battery-v0.2-trt","session":2},{"rune":"K","rune_set":"bacs2","hex":"#3366ff99","correct":-1,"choice":-1,"rt":-1,"accuracy":1,"outcome":"+10","keys":[],"total_keys":0,"block":1,"trial":115,"stimulus":9,"robot":2,"valence":"win","action":"no-go","sham":0,"trial_type":"pit-trial","trial_index":145,"time_elapsed":685888,"internal_node_id":"0.0-120.0","task_version":"battery-v0.2-trt","session":2},{"rune":"V","rune_set":"bacs2","hex":"#3366ff99","correct":32,"choice":32,"rt":752.329999988433,"accuracy":1,"outcome":"+10","keys":[2254.0099999750964],"total_keys":1,"block":1,"trial":116,"stimulus":8,"robot":1,"valence":"win","action":"go","sham":0,"trial_type":"pit-trial","trial_index":146,"time_elapsed":689344,"internal_node_id":"0.0-121.0","task_version":"battery-v0.2-trt","session":2},{"rune":"V","rune_set":"bacs2","hex":"#3366ff99","correct":32,"choice":32,"rt":1054.4699999736622,"accuracy":1,"outcome":"+1","keys":[2554.5949999941513],"total_keys":1,"block":1,"trial":117,"stimulus":8,"robot":1,"valence":"win","action":"go","sham":1,"trial_type":"pit-trial","trial_index":147,"time_elapsed":693102,"internal_node_id":"0.0-122.0","task_version":"battery-v0.2-trt","session":2},{"rune":"K","rune_set":"bacs2","hex":"#3366ff99","correct":-1,"choice":-1,"rt":-1,"accuracy":1,"outcome":"+10","keys":[],"total_keys":0,"block":1,"trial":118,"stimulus":9,"robot":2,"valence":"win","action":"no-go","sham":0,"trial_type":"pit-trial","trial_index":148,"time_elapsed":697110,"internal_node_id":"0.0-123.0","task_version":"battery-v0.2-trt","session":2},{"rune":"B","rune_set":"bacs2","hex":"#f73b6a7A","correct":32,"choice":32,"rt":729.4099999708124,"accuracy":1,"outcome":"-1","keys":[2231.8949999753386],"total_keys":1,"block":1,"trial":119,"stimulus":10,"robot":3,"valence":"lose","action":"go","sham":0,"trial_type":"pit-trial","trial_index":149,"time_elapsed":700545,"internal_node_id":"0.0-124.0","task_version":"battery-v0.2-trt","session":2},{"rune":"M","rune_set":"bacs2","hex":"#3366ff99","correct":-1,"choice":-1,"rt":-1,"accuracy":1,"outcome":"+10","keys":[],"total_keys":0,"block":1,"trial":120,"stimulus":11,"robot":2,"valence":"win","action":"no-go","sham":0,"trial_type":"pit-trial","trial_index":150,"time_elapsed":704555,"internal_node_id":"0.0-125.0","task_version":"battery-v0.2-trt","session":2},{"view_history":"[{\"page_index\":0,\"viewing_time\":2371.530000003986},{\"page_index\":1,\"viewing_time\":2707.91499997722}]","rt":5079.989999998361,"trial_type":"pit-instructions","trial_index":151,"time_elapsed":709637,"internal_node_id":"0.0-126.0","task_version":"battery-v0.2-trt","session":2},{"rune":"Y","rune_set":"bacs2","hex":"#3366ff99","correct":32,"choice":32,"rt":641.4099999819882,"accuracy":1,"outcome":"+10","keys":[2141.7299999739043],"total_keys":1,"block":2,"trial":121,"stimulus":0,"robot":1,"valence":"win","action":"go","sham":0,"trial_type":"pit-trial","trial_index":152,"time_elapsed":712982,"internal_node_id":"0.0-127.0","task_version":"battery-v0.2-trt","session":2},{"rune":"Q","rune_set":"bacs2","hex":"#f73b6a7A","correct":-1,"choice":32,"rt":618.6149999848567,"accuracy":0,"outcome":"-10","keys":[2120.040000008885],"total_keys":1,"block":2,"trial":122,"stimulus":2,"robot":4,"valence":"lose","action":"no-go","sham":0,"trial_type":"pit-trial","trial_index":153,"time_elapsed":716305,"internal_node_id":"0.0-128.0","task_version":"battery-v0.2-trt","session":2},{"rune":"T","rune_set":"bacs2","hex":"#f73b6a7A","correct":32,"choice":32,"rt":677.1300000254996,"accuracy":1,"outcome":"-10","keys":[2178.1150000169873],"total_keys":1,"block":2,"trial":123,"stimulus":1,"robot":3,"valence":"lose","action":"go","sham":1,"trial_type":"pit-trial","trial_index":154,"time_elapsed":719687,"internal_node_id":"0.0-129.0","task_version":"battery-v0.2-trt","session":2},{"rune":"H","rune_set":"bacs2","hex":"#3366ff99","correct":-1,"choice":32,"rt":802.6750000426546,"accuracy":0,"outcome":"+1","keys":[2303.7449999828823],"total_keys":1,"block":2,"trial":124,"stimulus":3,"robot":2,"valence":"win","action":"no-go","sham":0,"trial_type":"pit-trial","trial_index":155,"time_elapsed":723195,"internal_node_id":"0.0-130.0","task_version":"battery-v0.2-trt","session":2},{"rune":"Y","rune_set":"bacs2","hex":"#3366ff99","correct":32,"choice":32,"rt":764.2399999895133,"accuracy":1,"outcome":"+1","keys":[2264.420000021346],"total_keys":1,"block":2,"trial":125,"stimulus":0,"robot":1,"valence":"win","action":"go","sham":1,"trial_type":"pit-trial","trial_index":156,"time_elapsed":726663,"internal_node_id":"0.0-131.0","task_version":"battery-v0.2-trt","session":2},{"rune":"T","rune_set":"bacs2","hex":"#f73b6a7A","correct":32,"choice":-1,"rt":-1,"accuracy":0,"outcome":"-10","keys":[],"total_keys":0,"block":2,"trial":126,"stimulus":1,"robot":3,"valence":"lose","action":"go","sham":0,"trial_type":"pit-trial","trial_index":157,"time_elapsed":730668,"internal_node_id":"0.0-132.0","task_version":"battery-v0.2-trt","session":2},{"rune":"Q","rune_set":"bacs2","hex":"#f73b6a7A","correct":-1,"choice":-1,"rt":-1,"accuracy":1,"outcome":"-1","keys":[],"total_keys":0,"block":2,"trial":127,"stimulus":2,"robot":4,"valence":"lose","action":"no-go","sham":0,"trial_type":"pit-trial","trial_index":158,"time_elapsed":734676,"internal_node_id":"0.0-133.0","task_version":"battery-v0.2-trt","session":2},{"rune":"H","rune_set":"bacs2","hex":"#3366ff99","correct":-1,"choice":-1,"rt":-1,"accuracy":1,"outcome":"+10","keys":[],"total_keys":0,"block":2,"trial":128,"stimulus":3,"robot":2,"valence":"win","action":"no-go","sham":0,"trial_type":"pit-trial","trial_index":159,"time_elapsed":738684,"internal_node_id":"0.0-134.0","task_version":"battery-v0.2-trt","session":2},{"rune":"H","rune_set":"bacs2","hex":"#3366ff99","correct":-1,"choice":-1,"rt":-1,"accuracy":1,"outcome":"+10","keys":[],"total_keys":0,"block":2,"trial":129,"stimulus":3,"robot":2,"valence":"win","action":"no-go","sham":0,"trial_type":"pit-trial","trial_index":160,"time_elapsed":742688,"internal_node_id":"0.0-135.0","task_version":"battery-v0.2-trt","session":2},{"rune":"Q","rune_set":"bacs2","hex":"#f73b6a7A","correct":-1,"choice":-1,"rt":-1,"accuracy":1,"outcome":"-1","keys":[],"total_keys":0,"block":2,"trial":130,"stimulus":2,"robot":4,"valence":"lose","action":"no-go","sham":0,"trial_type":"pit-trial","trial_index":161,"time_elapsed":746692,"internal_node_id":"0.0-136.0","task_version":"battery-v0.2-trt","session":2},{"rune":"T","rune_set":"bacs2","hex":"#f73b6a7A","correct":32,"choice":-1,"rt":-1,"accuracy":0,"outcome":"-10","keys":[],"total_keys":0,"block":2,"trial":131,"stimulus":1,"robot":3,"valence":"lose","action":"go","sham":0,"trial_type":"pit-trial","trial_index":162,"time_elapsed":750700,"internal_node_id":"0.0-137.0","task_version":"battery-v0.2-trt","session":2},{"rune":"Y","rune_set":"bacs2","hex":"#3366ff99","correct":32,"choice":32,"rt":1021.8800000147894,"accuracy":1,"outcome":"+10","keys":[2523.629999952391],"total_keys":1,"block":2,"trial":132,"stimulus":0,"robot":1,"valence":"win","action":"go","sham":0,"trial_type":"pit-trial","trial_index":163,"time_elapsed":754428,"internal_node_id":"0.0-138.0","task_version":"battery-v0.2-trt","session":2},{"rune":"T","rune_set":"bacs2","hex":"#f73b6a7A","correct":32,"choice":32,"rt":1006.7699999781325,"accuracy":1,"outcome":"-1","keys":[2512.7099999808706],"total_keys":1,"block":2,"trial":133,"stimulus":1,"robot":3,"valence":"lose","action":"go","sham":0,"trial_type":"pit-trial","trial_index":164,"time_elapsed":758144,"internal_node_id":"0.0-139.0","task_version":"battery-v0.2-trt","session":2},{"rune":"Y","rune_set":"bacs2","hex":"#3366ff99","correct":32,"choice":32,"rt":721.3249999913387,"accuracy":1,"outcome":"+10","keys":[2223.549999995157],"total_keys":1,"block":2,"trial":134,"stimulus":0,"robot":1,"valence":"win","action":"go","sham":0,"trial_type":"pit-trial","trial_index":165,"time_elapsed":761574,"internal_node_id":"0.0-140.0","task_version":"battery-v0.2-trt","session":2},{"rune":"H","rune_set":"bacs2","hex":"#3366ff99","correct":-1,"choice":-1,"rt":-1,"accuracy":1,"outcome":"+1","keys":[],"total_keys":0,"block":2,"trial":135,"stimulus":3,"robot":2,"valence":"win","action":"no-go","sham":1,"trial_type":"pit-trial","trial_index":166,"time_elapsed":765577,"internal_node_id":"0.0-141.0","task_version":"battery-v0.2-trt","session":2},{"rune":"Q","rune_set":"bacs2","hex":"#f73b6a7A","correct":-1,"choice":-1,"rt":-1,"accuracy":1,"outcome":"-1","keys":[],"total_keys":0,"block":2,"trial":136,"stimulus":2,"robot":4,"valence":"lose","action":"no-go","sham":0,"trial_type":"pit-trial","trial_index":167,"time_elapsed":769585,"internal_node_id":"0.0-142.0","task_version":"battery-v0.2-trt","session":2},{"rune":"Y","rune_set":"bacs2","hex":"#3366ff99","correct":32,"choice":32,"rt":679.1200000443496,"accuracy":1,"outcome":"+1","keys":[2181.0050000203773],"total_keys":1,"block":2,"trial":137,"stimulus":0,"robot":1,"valence":"win","action":"go","sham":1,"trial_type":"pit-trial","trial_index":168,"time_elapsed":772968,"internal_node_id":"0.0-143.0","task_version":"battery-v0.2-trt","session":2},{"rune":"H","rune_set":"bacs2","hex":"#3366ff99","correct":-1,"choice":-1,"rt":-1,"accuracy":1,"outcome":"+10","keys":[],"total_keys":0,"block":2,"trial":138,"stimulus":3,"robot":2,"valence":"win","action":"no-go","sham":0,"trial_type":"pit-trial","trial_index":169,"time_elapsed":776973,"internal_node_id":"0.0-144.0","task_version":"battery-v0.2-trt","session":2},{"rune":"Q","rune_set":"bacs2","hex":"#f73b6a7A","correct":-1,"choice":-1,"rt":-1,"accuracy":1,"outcome":"-10","keys":[],"total_keys":0,"block":2,"trial":139,"stimulus":2,"robot":4,"valence":"lose","action":"no-go","sham":1,"trial_type":"pit-trial","trial_index":170,"time_elapsed":780979,"internal_node_id":"0.0-145.0","task_version":"battery-v0.2-trt","session":2},{"rune":"T","rune_set":"bacs2","hex":"#f73b6a7A","correct":32,"choice":32,"rt":880.2000000141561,"accuracy":1,"outcome":"-1","keys":[2382.355000008829],"total_keys":1,"block":2,"trial":140,"stimulus":1,"robot":3,"valence":"lose","action":"go","sham":0,"trial_type":"pit-trial","trial_index":171,"time_elapsed":784565,"internal_node_id":"0.0-146.0","task_version":"battery-v0.2-trt","session":2},{"rune":"Q","rune_set":"bacs2","hex":"#f73b6a7A","correct":-1,"choice":-1,"rt":-1,"accuracy":1,"outcome":"-1","keys":[],"total_keys":0,"block":2,"trial":141,"stimulus":2,"robot":4,"valence":"lose","action":"no-go","sham":0,"trial_type":"pit-trial","trial_index":172,"time_elapsed":788573,"internal_node_id":"0.0-147.0","task_version":"battery-v0.2-trt","session":2},{"rune":"H","rune_set":"bacs2","hex":"#3366ff99","correct":-1,"choice":-1,"rt":-1,"accuracy":1,"outcome":"+10","keys":[],"total_keys":0,"block":2,"trial":142,"stimulus":3,"robot":2,"valence":"win","action":"no-go","sham":0,"trial_type":"pit-trial","trial_index":173,"time_elapsed":792579,"internal_node_id":"0.0-148.0","task_version":"battery-v0.2-trt","session":2},{"rune":"T","rune_set":"bacs2","hex":"#f73b6a7A","correct":32,"choice":32,"rt":855.2700000000186,"accuracy":1,"outcome":"-1","keys":[2356.0099999886006],"total_keys":1,"block":2,"trial":143,"stimulus":1,"robot":3,"valence":"lose","action":"go","sham":0,"trial_type":"pit-trial","trial_index":174,"time_elapsed":796142,"internal_node_id":"0.0-149.0","task_version":"battery-v0.2-trt","session":2},{"rune":"Y","rune_set":"bacs2","hex":"#3366ff99","correct":32,"choice":32,"rt":774.0750000230037,"accuracy":1,"outcome":"+1","keys":[2274.904999998398],"total_keys":1,"block":2,"trial":144,"stimulus":0,"robot":1,"valence":"win","action":"go","sham":1,"trial_type":"pit-trial","trial_index":175,"time_elapsed":799619,"internal_node_id":"0.0-150.0","task_version":"battery-v0.2-trt","session":2},{"rune":"Y","rune_set":"bacs2","hex":"#3366ff99","correct":32,"choice":32,"rt":723.0550000094809,"accuracy":1,"outcome":"+10","keys":[2226.864999975078],"total_keys":1,"block":2,"trial":145,"stimulus":0,"robot":1,"valence":"win","action":"go","sham":0,"trial_type":"pit-trial","trial_index":176,"time_elapsed":803049,"internal_node_id":"0.0-151.0","task_version":"battery-v0.2-trt","session":2},{"rune":"T","rune_set":"bacs2","hex":"#f73b6a7A","correct":32,"choice":32,"rt":768.8250000355765,"accuracy":1,"outcome":"-1","keys":[2271.810000005644],"total_keys":1,"block":2,"trial":146,"stimulus":1,"robot":3,"valence":"lose","action":"go","sham":0,"trial_type":"pit-trial","trial_index":177,"time_elapsed":806524,"internal_node_id":"0.0-152.0","task_version":"battery-v0.2-trt","session":2},{"rune":"H","rune_set":"bacs2","hex":"#3366ff99","correct":-1,"choice":-1,"rt":-1,"accuracy":1,"outcome":"+10","keys":[],"total_keys":0,"block":2,"trial":147,"stimulus":3,"robot":2,"valence":"win","action":"no-go","sham":0,"trial_type":"pit-trial","trial_index":178,"time_elapsed":810533,"internal_node_id":"0.0-153.0","task_version":"battery-v0.2-trt","session":2},{"rune":"Q","rune_set":"bacs2","hex":"#f73b6a7A","correct":-1,"choice":-1,"rt":-1,"accuracy":1,"outcome":"-1","keys":[],"total_keys":0,"block":2,"trial":148,"stimulus":2,"robot":4,"valence":"lose","action":"no-go","sham":0,"trial_type":"pit-trial","trial_index":179,"time_elapsed":814542,"internal_node_id":"0.0-154.0","task_version":"battery-v0.2-trt","session":2},{"rune":"H","rune_set":"bacs2","hex":"#3366ff99","correct":-1,"choice":-1,"rt":-1,"accuracy":1,"outcome":"+10","keys":[],"total_keys":0,"block":2,"trial":149,"stimulus":3,"robot":2,"valence":"win","action":"no-go","sham":0,"trial_type":"pit-trial","trial_index":180,"time_elapsed":818546,"internal_node_id":"0.0-155.0","task_version":"battery-v0.2-trt","session":2},{"rune":"T","rune_set":"bacs2","hex":"#f73b6a7A","correct":32,"choice":32,"rt":711.4150000270456,"accuracy":1,"outcome":"-1","keys":[2211.9999999995343],"total_keys":1,"block":2,"trial":150,"stimulus":1,"robot":3,"valence":"lose","action":"go","sham":0,"trial_type":"pit-trial","trial_index":181,"time_elapsed":821962,"internal_node_id":"0.0-156.0","task_version":"battery-v0.2-trt","session":2},{"rune":"Q","rune_set":"bacs2","hex":"#f73b6a7A","correct":-1,"choice":-1,"rt":-1,"accuracy":1,"outcome":"-1","keys":[],"total_keys":0,"block":2,"trial":151,"stimulus":2,"robot":4,"valence":"lose","action":"no-go","sham":0,"trial_type":"pit-trial","trial_index":182,"time_elapsed":825967,"internal_node_id":"0.0-157.0","task_version":"battery-v0.2-trt","session":2},{"rune":"Y","rune_set":"bacs2","hex":"#3366ff99","correct":32,"choice":32,"rt":685.0550000090152,"accuracy":1,"outcome":"+10","keys":[2186.4449999993667],"total_keys":1,"block":2,"trial":152,"stimulus":0,"robot":1,"valence":"win","action":"go","sham":0,"trial_type":"pit-trial","trial_index":183,"time_elapsed":829359,"internal_node_id":"0.0-158.0","task_version":"battery-v0.2-trt","session":2},{"rune":"E","rune_set":"bacs2","hex":"#f73b6a7A","correct":-1,"choice":32,"rt":913.025000016205,"accuracy":0,"outcome":"-10","keys":[2416.8399999616668],"total_keys":1,"block":2,"trial":153,"stimulus":4,"robot":4,"valence":"lose","action":"no-go","sham":0,"trial_type":"pit-trial","trial_index":184,"time_elapsed":832979,"internal_node_id":"0.0-159.0","task_version":"battery-v0.2-trt","session":2},{"rune":"T","rune_set":"bacs2","hex":"#f73b6a7A","correct":32,"choice":32,"rt":1128.809999965597,"accuracy":1,"outcome":"-10","keys":[2631.040000007488],"total_keys":1,"block":2,"trial":154,"stimulus":1,"robot":3,"valence":"lose","action":"go","sham":1,"trial_type":"pit-trial","trial_index":185,"time_elapsed":836815,"internal_node_id":"0.0-160.0","task_version":"battery-v0.2-trt","session":2},{"rune":"Y","rune_set":"bacs2","hex":"#3366ff99","correct":32,"choice":32,"rt":699.8100000200793,"accuracy":1,"outcome":"+10","keys":[2200.2600000123493],"total_keys":1,"block":2,"trial":155,"stimulus":0,"robot":1,"valence":"win","action":"go","sham":0,"trial_type":"pit-trial","trial_index":186,"time_elapsed":840218,"internal_node_id":"0.0-161.0","task_version":"battery-v0.2-trt","session":2},{"rune":"H","rune_set":"bacs2","hex":"#3366ff99","correct":-1,"choice":-1,"rt":-1,"accuracy":1,"outcome":"+1","keys":[],"total_keys":0,"block":2,"trial":156,"stimulus":3,"robot":2,"valence":"win","action":"no-go","sham":1,"trial_type":"pit-trial","trial_index":187,"time_elapsed":844223,"internal_node_id":"0.0-162.0","task_version":"battery-v0.2-trt","session":2},{"rune":"Y","rune_set":"bacs2","hex":"#3366ff99","correct":32,"choice":32,"rt":638.0600000265986,"accuracy":1,"outcome":"+10","keys":[2138.7249999679625],"total_keys":1,"block":2,"trial":157,"stimulus":0,"robot":1,"valence":"win","action":"go","sham":0,"trial_type":"pit-trial","trial_index":188,"time_elapsed":847567,"internal_node_id":"0.0-163.0","task_version":"battery-v0.2-trt","session":2},{"rune":"E","rune_set":"bacs2","hex":"#f73b6a7A","correct":-1,"choice":-1,"rt":-1,"accuracy":1,"outcome":"-1","keys":[],"total_keys":0,"block":2,"trial":158,"stimulus":4,"robot":4,"valence":"lose","action":"no-go","sham":0,"trial_type":"pit-trial","trial_index":189,"time_elapsed":851573,"internal_node_id":"0.0-164.0","task_version":"battery-v0.2-trt","session":2},{"rune":"T","rune_set":"bacs2","hex":"#f73b6a7A","correct":32,"choice":32,"rt":1189.925000013318,"accuracy":1,"outcome":"-1","keys":[2690.4900000081398],"total_keys":1,"block":2,"trial":159,"stimulus":1,"robot":3,"valence":"lose","action":"go","sham":0,"trial_type":"pit-trial","trial_index":190,"time_elapsed":855467,"internal_node_id":"0.0-165.0","task_version":"battery-v0.2-trt","session":2},{"rune":"H","rune_set":"bacs2","hex":"#3366ff99","correct":-1,"choice":-1,"rt":-1,"accuracy":1,"outcome":"+1","keys":[],"total_keys":0,"block":2,"trial":160,"stimulus":3,"robot":2,"valence":"win","action":"no-go","sham":1,"trial_type":"pit-trial","trial_index":191,"time_elapsed":859475,"internal_node_id":"0.0-166.0","task_version":"battery-v0.2-trt","session":2},{"rune":"Y","rune_set":"bacs2","hex":"#3366ff99","correct":32,"choice":32,"rt":683.4849999868311,"accuracy":1,"outcome":"+10","keys":[2183.804999978747],"total_keys":1,"block":2,"trial":161,"stimulus":0,"robot":1,"valence":"win","action":"go","sham":0,"trial_type":"pit-trial","trial_index":192,"time_elapsed":862864,"internal_node_id":"0.0-167.0","task_version":"battery-v0.2-trt","session":2},{"rune":"C","rune_set":"bacs2","hex":"#f73b6a7A","correct":32,"choice":32,"rt":796.2049999623559,"accuracy":1,"outcome":"-1","keys":[2296.344999980647],"total_keys":1,"block":2,"trial":162,"stimulus":5,"robot":3,"valence":"lose","action":"go","sham":0,"trial_type":"pit-trial","trial_index":193,"time_elapsed":866363,"internal_node_id":"0.0-168.0","task_version":"battery-v0.2-trt","session":2},{"rune":"E","rune_set":"bacs2","hex":"#f73b6a7A","correct":-1,"choice":-1,"rt":-1,"accuracy":1,"outcome":"-1","keys":[],"total_keys":0,"block":2,"trial":163,"stimulus":4,"robot":4,"valence":"lose","action":"no-go","sham":0,"trial_type":"pit-trial","trial_index":194,"time_elapsed":870372,"internal_node_id":"0.0-169.0","task_version":"battery-v0.2-trt","session":2},{"rune":"H","rune_set":"bacs2","hex":"#3366ff99","correct":-1,"choice":-1,"rt":-1,"accuracy":1,"outcome":"+10","keys":[],"total_keys":0,"block":2,"trial":164,"stimulus":3,"robot":2,"valence":"win","action":"no-go","sham":0,"trial_type":"pit-trial","trial_index":195,"time_elapsed":874379,"internal_node_id":"0.0-170.0","task_version":"battery-v0.2-trt","session":2},{"rune":"C","rune_set":"bacs2","hex":"#f73b6a7A","correct":32,"choice":32,"rt":699.1999999736436,"accuracy":1,"outcome":"-1","keys":[2200.089999998454],"total_keys":1,"block":2,"trial":165,"stimulus":5,"robot":3,"valence":"lose","action":"go","sham":0,"trial_type":"pit-trial","trial_index":196,"time_elapsed":877782,"internal_node_id":"0.0-171.0","task_version":"battery-v0.2-trt","session":2},{"rune":"E","rune_set":"bacs2","hex":"#f73b6a7A","correct":-1,"choice":-1,"rt":-1,"accuracy":1,"outcome":"-10","keys":[],"total_keys":0,"block":2,"trial":166,"stimulus":4,"robot":4,"valence":"lose","action":"no-go","sham":1,"trial_type":"pit-trial","trial_index":197,"time_elapsed":881792,"internal_node_id":"0.0-172.0","task_version":"battery-v0.2-trt","session":2},{"rune":"H","rune_set":"bacs2","hex":"#3366ff99","correct":-1,"choice":-1,"rt":-1,"accuracy":1,"outcome":"+10","keys":[],"total_keys":0,"block":2,"trial":167,"stimulus":3,"robot":2,"valence":"win","action":"no-go","sham":0,"trial_type":"pit-trial","trial_index":198,"time_elapsed":885798,"internal_node_id":"0.0-173.0","task_version":"battery-v0.2-trt","session":2},{"rune":"Y","rune_set":"bacs2","hex":"#3366ff99","correct":32,"choice":32,"rt":710.0050000008196,"accuracy":1,"outcome":"+10","keys":[2210.3449999704026],"total_keys":1,"block":2,"trial":168,"stimulus":0,"robot":1,"valence":"win","action":"go","sham":0,"trial_type":"pit-trial","trial_index":199,"time_elapsed":889212,"internal_node_id":"0.0-174.0","task_version":"battery-v0.2-trt","session":2},{"rune":"C","rune_set":"bacs2","hex":"#f73b6a7A","correct":32,"choice":32,"rt":721.5500000165775,"accuracy":1,"outcome":"-10","keys":[2223.584999970626],"total_keys":1,"block":2,"trial":169,"stimulus":5,"robot":3,"valence":"lose","action":"go","sham":1,"trial_type":"pit-trial","trial_index":200,"time_elapsed":892641,"internal_node_id":"0.0-175.0","task_version":"battery-v0.2-trt","session":2},{"rune":"O","rune_set":"bacs2","hex":"#3366ff99","correct":-1,"choice":32,"rt":761.8699999875389,"accuracy":0,"outcome":"+10","keys":[2264.4750000326894],"total_keys":1,"block":2,"trial":170,"stimulus":6,"robot":2,"valence":"win","action":"no-go","sham":1,"trial_type":"pit-trial","trial_index":201,"time_elapsed":896108,"internal_node_id":"0.0-176.0","task_version":"battery-v0.2-trt","session":2},{"rune":"E","rune_set":"bacs2","hex":"#f73b6a7A","correct":-1,"choice":-1,"rt":-1,"accuracy":1,"outcome":"-1","keys":[],"total_keys":0,"block":2,"trial":171,"stimulus":4,"robot":4,"valence":"lose","action":"no-go","sham":0,"trial_type":"pit-trial","trial_index":202,"time_elapsed":900113,"internal_node_id":"0.0-177.0","task_version":"battery-v0.2-trt","session":2},{"rune":"G","rune_set":"bacs2","hex":"#3366ff99","correct":-1,"choice":32,"rt":766.2150000105612,"accuracy":0,"outcome":"+1","keys":[2266.4850000292063],"total_keys":1,"block":2,"trial":172,"stimulus":7,"robot":2,"valence":"win","action":"no-go","sham":0,"trial_type":"pit-trial","trial_index":203,"time_elapsed":903585,"internal_node_id":"0.0-178.0","task_version":"battery-v0.2-trt","session":2},{"rune":"O","rune_set":"bacs2","hex":"#3366ff99","correct":-1,"choice":32,"rt":635.2700000279583,"accuracy":0,"outcome":"+1","keys":[2136.3850000198],"total_keys":1,"block":2,"trial":173,"stimulus":6,"robot":2,"valence":"win","action":"no-go","sham":0,"trial_type":"pit-trial","trial_index":204,"time_elapsed":906924,"internal_node_id":"0.0-179.0","task_version":"battery-v0.2-trt","session":2},{"rune":"G","rune_set":"bacs2","hex":"#3366ff99","correct":-1,"choice":32,"rt":843.265000032261,"accuracy":0,"outcome":"+1","keys":[2343.7149999663234],"total_keys":1,"block":2,"trial":174,"stimulus":7,"robot":2,"valence":"win","action":"no-go","sham":0,"trial_type":"pit-trial","trial_index":205,"time_elapsed":910471,"internal_node_id":"0.0-180.0","task_version":"battery-v0.2-trt","session":2},{"rune":"E","rune_set":"bacs2","hex":"#f73b6a7A","correct":-1,"choice":-1,"rt":-1,"accuracy":1,"outcome":"-1","keys":[],"total_keys":0,"block":2,"trial":175,"stimulus":4,"robot":4,"valence":"lose","action":"no-go","sham":0,"trial_type":"pit-trial","trial_index":206,"time_elapsed":914477,"internal_node_id":"0.0-181.0","task_version":"battery-v0.2-trt","session":2},{"rune":"C","rune_set":"bacs2","hex":"#f73b6a7A","correct":32,"choice":32,"rt":879.6349999611266,"accuracy":1,"outcome":"-1","keys":[2380.7099999976344],"total_keys":1,"block":2,"trial":176,"stimulus":5,"robot":3,"valence":"lose","action":"go","sham":0,"trial_type":"pit-trial","trial_index":207,"time_elapsed":918060,"internal_node_id":"0.0-182.0","task_version":"battery-v0.2-trt","session":2},{"rune":"C","rune_set":"bacs2","hex":"#f73b6a7A","correct":32,"choice":32,"rt":791.7599999927916,"accuracy":1,"outcome":"-10","keys":[2295.559999998659],"total_keys":1,"block":2,"trial":177,"stimulus":5,"robot":3,"valence":"lose","action":"go","sham":1,"trial_type":"pit-trial","trial_index":208,"time_elapsed":921560,"internal_node_id":"0.0-183.0","task_version":"battery-v0.2-trt","session":2},{"rune":"G","rune_set":"bacs2","hex":"#3366ff99","correct":-1,"choice":-1,"rt":-1,"accuracy":1,"outcome":"+1","keys":[],"total_keys":0,"block":2,"trial":178,"stimulus":7,"robot":2,"valence":"win","action":"no-go","sham":1,"trial_type":"pit-trial","trial_index":209,"time_elapsed":925573,"internal_node_id":"0.0-184.0","task_version":"battery-v0.2-trt","session":2},{"rune":"O","rune_set":"bacs2","hex":"#3366ff99","correct":-1,"choice":32,"rt":611.2599999760278,"accuracy":0,"outcome":"+1","keys":[2112.360000028275],"total_keys":1,"block":2,"trial":179,"stimulus":6,"robot":2,"valence":"win","action":"no-go","sham":0,"trial_type":"pit-trial","trial_index":210,"time_elapsed":928890,"internal_node_id":"0.0-185.0","task_version":"battery-v0.2-trt","session":2},{"rune":"E","rune_set":"bacs2","hex":"#f73b6a7A","correct":-1,"choice":-1,"rt":-1,"accuracy":1,"outcome":"-1","keys":[],"total_keys":0,"block":2,"trial":180,"stimulus":4,"robot":4,"valence":"lose","action":"no-go","sham":0,"trial_type":"pit-trial","trial_index":211,"time_elapsed":932899,"internal_node_id":"0.0-186.0","task_version":"battery-v0.2-trt","session":2},{"rune":"E","rune_set":"bacs2","hex":"#f73b6a7A","correct":-1,"choice":-1,"rt":-1,"accuracy":1,"outcome":"-1","keys":[],"total_keys":0,"block":2,"trial":181,"stimulus":4,"robot":4,"valence":"lose","action":"no-go","sham":0,"trial_type":"pit-trial","trial_index":212,"time_elapsed":936909,"internal_node_id":"0.0-187.0","task_version":"battery-v0.2-trt","session":2},{"rune":"G","rune_set":"bacs2","hex":"#3366ff99","correct":-1,"choice":-1,"rt":-1,"accuracy":1,"outcome":"+10","keys":[],"total_keys":0,"block":2,"trial":182,"stimulus":7,"robot":2,"valence":"win","action":"no-go","sham":0,"trial_type":"pit-trial","trial_index":213,"time_elapsed":940914,"internal_node_id":"0.0-188.0","task_version":"battery-v0.2-trt","session":2},{"rune":"C","rune_set":"bacs2","hex":"#f73b6a7A","correct":32,"choice":32,"rt":702.1149999927729,"accuracy":1,"outcome":"-1","keys":[2203.144999977667],"total_keys":1,"block":2,"trial":183,"stimulus":5,"robot":3,"valence":"lose","action":"go","sham":0,"trial_type":"pit-trial","trial_index":214,"time_elapsed":944321,"internal_node_id":"0.0-189.0","task_version":"battery-v0.2-trt","session":2},{"rune":"O","rune_set":"bacs2","hex":"#3366ff99","correct":-1,"choice":32,"rt":665.050000010524,"accuracy":0,"outcome":"+1","keys":[2169.7799999965355],"total_keys":1,"block":2,"trial":184,"stimulus":6,"robot":2,"valence":"win","action":"no-go","sham":0,"trial_type":"pit-trial","trial_index":215,"time_elapsed":947696,"internal_node_id":"0.0-190.0","task_version":"battery-v0.2-trt","session":2},{"rune":"C","rune_set":"bacs2","hex":"#f73b6a7A","correct":32,"choice":32,"rt":649.6399999596179,"accuracy":1,"outcome":"-1","keys":[2149.890000000596],"total_keys":1,"block":2,"trial":185,"stimulus":5,"robot":3,"valence":"lose","action":"go","sham":0,"trial_type":"pit-trial","trial_index":216,"time_elapsed":951051,"internal_node_id":"0.0-191.0","task_version":"battery-v0.2-trt","session":2},{"rune":"O","rune_set":"bacs2","hex":"#3366ff99","correct":-1,"choice":32,"rt":565.0799999712035,"accuracy":0,"outcome":"+10","keys":[2065.5700000352226],"total_keys":1,"block":2,"trial":186,"stimulus":6,"robot":2,"valence":"win","action":"no-go","sham":1,"trial_type":"pit-trial","trial_index":217,"time_elapsed":954320,"internal_node_id":"0.0-192.0","task_version":"battery-v0.2-trt","session":2},{"rune":"E","rune_set":"bacs2","hex":"#f73b6a7A","correct":-1,"choice":-1,"rt":-1,"accuracy":1,"outcome":"-10","keys":[],"total_keys":0,"block":2,"trial":187,"stimulus":4,"robot":4,"valence":"lose","action":"no-go","sham":1,"trial_type":"pit-trial","trial_index":218,"time_elapsed":958325,"internal_node_id":"0.0-193.0","task_version":"battery-v0.2-trt","session":2},{"rune":"G","rune_set":"bacs2","hex":"#3366ff99","correct":-1,"choice":-1,"rt":-1,"accuracy":1,"outcome":"+10","keys":[],"total_keys":0,"block":2,"trial":188,"stimulus":7,"robot":2,"valence":"win","action":"no-go","sham":0,"trial_type":"pit-trial","trial_index":219,"time_elapsed":962333,"internal_node_id":"0.0-194.0","task_version":"battery-v0.2-trt","session":2},{"rune":"O","rune_set":"bacs2","hex":"#3366ff99","correct":-1,"choice":32,"rt":846.3449999690056,"accuracy":0,"outcome":"+1","keys":[2346.7149999924004],"total_keys":1,"block":2,"trial":189,"stimulus":6,"robot":2,"valence":"win","action":"no-go","sham":0,"trial_type":"pit-trial","trial_index":220,"time_elapsed":965886,"internal_node_id":"0.0-195.0","task_version":"battery-v0.2-trt","session":2},{"rune":"E","rune_set":"bacs2","hex":"#f73b6a7A","correct":-1,"choice":-1,"rt":-1,"accuracy":1,"outcome":"-1","keys":[],"total_keys":0,"block":2,"trial":190,"stimulus":4,"robot":4,"valence":"lose","action":"no-go","sham":0,"trial_type":"pit-trial","trial_index":221,"time_elapsed":969891,"internal_node_id":"0.0-196.0","task_version":"battery-v0.2-trt","session":2},{"rune":"C","rune_set":"bacs2","hex":"#f73b6a7A","correct":32,"choice":32,"rt":679.4350000564009,"accuracy":1,"outcome":"-1","keys":[2179.5850000344217],"total_keys":1,"block":2,"trial":191,"stimulus":5,"robot":3,"valence":"lose","action":"go","sham":0,"trial_type":"pit-trial","trial_index":222,"time_elapsed":973273,"internal_node_id":"0.0-197.0","task_version":"battery-v0.2-trt","session":2},{"rune":"G","rune_set":"bacs2","hex":"#3366ff99","correct":-1,"choice":-1,"rt":-1,"accuracy":1,"outcome":"+1","keys":[],"total_keys":0,"block":2,"trial":192,"stimulus":7,"robot":2,"valence":"win","action":"no-go","sham":1,"trial_type":"pit-trial","trial_index":223,"time_elapsed":977279,"internal_node_id":"0.0-198.0","task_version":"battery-v0.2-trt","session":2},{"rune":"C","rune_set":"bacs2","hex":"#f73b6a7A","correct":32,"choice":32,"rt":653.2250000163913,"accuracy":1,"outcome":"-1","keys":[2154.5899999910034],"total_keys":1,"block":2,"trial":193,"stimulus":5,"robot":3,"valence":"lose","action":"go","sham":0,"trial_type":"pit-trial","trial_index":224,"time_elapsed":980639,"internal_node_id":"0.0-199.0","task_version":"battery-v0.2-trt","session":2},{"rune":"E","rune_set":"bacs2","hex":"#f73b6a7A","correct":-1,"choice":-1,"rt":-1,"accuracy":1,"outcome":"-1","keys":[],"total_keys":0,"block":2,"trial":194,"stimulus":4,"robot":4,"valence":"lose","action":"no-go","sham":0,"trial_type":"pit-trial","trial_index":225,"time_elapsed":984645,"internal_node_id":"0.0-200.0","task_version":"battery-v0.2-trt","session":2},{"rune":"G","rune_set":"bacs2","hex":"#3366ff99","correct":-1,"choice":-1,"rt":-1,"accuracy":1,"outcome":"+10","keys":[],"total_keys":0,"block":2,"trial":195,"stimulus":7,"robot":2,"valence":"win","action":"no-go","sham":0,"trial_type":"pit-trial","trial_index":226,"time_elapsed":988655,"internal_node_id":"0.0-201.0","task_version":"battery-v0.2-trt","session":2},{"rune":"O","rune_set":"bacs2","hex":"#3366ff99","correct":-1,"choice":-1,"rt":-1,"accuracy":1,"outcome":"+10","keys":[],"total_keys":0,"block":2,"trial":196,"stimulus":6,"robot":2,"valence":"win","action":"no-go","sham":0,"trial_type":"pit-trial","trial_index":227,"time_elapsed":992661,"internal_node_id":"0.0-202.0","task_version":"battery-v0.2-trt","session":2},{"rune":"G","rune_set":"bacs2","hex":"#3366ff99","correct":-1,"choice":-1,"rt":-1,"accuracy":1,"outcome":"+1","keys":[],"total_keys":0,"block":2,"trial":197,"stimulus":7,"robot":2,"valence":"win","action":"no-go","sham":1,"trial_type":"pit-trial","trial_index":228,"time_elapsed":996671,"internal_node_id":"0.0-203.0","task_version":"battery-v0.2-trt","session":2},{"rune":"O","rune_set":"bacs2","hex":"#3366ff99","correct":-1,"choice":-1,"rt":-1,"accuracy":1,"outcome":"+10","keys":[],"total_keys":0,"block":2,"trial":198,"stimulus":6,"robot":2,"valence":"win","action":"no-go","sham":0,"trial_type":"pit-trial","trial_index":229,"time_elapsed":1000677,"internal_node_id":"0.0-204.0","task_version":"battery-v0.2-trt","session":2},{"rune":"C","rune_set":"bacs2","hex":"#f73b6a7A","correct":32,"choice":32,"rt":590.9949999768287,"accuracy":1,"outcome":"-10","keys":[2091.5050000185147],"total_keys":1,"block":2,"trial":199,"stimulus":5,"robot":3,"valence":"lose","action":"go","sham":1,"trial_type":"pit-trial","trial_index":230,"time_elapsed":1003971,"internal_node_id":"0.0-205.0","task_version":"battery-v0.2-trt","session":2},{"rune":"E","rune_set":"bacs2","hex":"#f73b6a7A","correct":-1,"choice":-1,"rt":-1,"accuracy":1,"outcome":"-1","keys":[],"total_keys":0,"block":2,"trial":200,"stimulus":4,"robot":4,"valence":"lose","action":"no-go","sham":0,"trial_type":"pit-trial","trial_index":231,"time_elapsed":1007975,"internal_node_id":"0.0-206.0","task_version":"battery-v0.2-trt","session":2},{"rune":"Z","rune_set":"bacs2","hex":"#3366ff99","correct":32,"choice":32,"rt":711.0550000215881,"accuracy":1,"outcome":"+1","keys":[2211.3449999596924],"total_keys":1,"block":2,"trial":201,"stimulus":8,"robot":1,"valence":"win","action":"go","sham":1,"trial_type":"pit-trial","trial_index":232,"time_elapsed":1011390,"internal_node_id":"0.0-207.0","task_version":"battery-v0.2-trt","session":2},{"rune":"G","rune_set":"bacs2","hex":"#3366ff99","correct":-1,"choice":-1,"rt":-1,"accuracy":1,"outcome":"+1","keys":[],"total_keys":0,"block":2,"trial":202,"stimulus":7,"robot":2,"valence":"win","action":"no-go","sham":1,"trial_type":"pit-trial","trial_index":233,"time_elapsed":1015396,"internal_node_id":"0.0-208.0","task_version":"battery-v0.2-trt","session":2},{"rune":"C","rune_set":"bacs2","hex":"#f73b6a7A","correct":32,"choice":32,"rt":576.7099999939092,"accuracy":1,"outcome":"-1","keys":[2077.259999990929],"total_keys":1,"block":2,"trial":203,"stimulus":5,"robot":3,"valence":"lose","action":"go","sham":0,"trial_type":"pit-trial","trial_index":234,"time_elapsed":1018676,"internal_node_id":"0.0-209.0","task_version":"battery-v0.2-trt","session":2},{"rune":"X","rune_set":"bacs2","hex":"#f73b6a7A","correct":-1,"choice":32,"rt":769.5350000285544,"accuracy":0,"outcome":"-1","keys":[2271.6399999917485],"total_keys":1,"block":2,"trial":204,"stimulus":9,"robot":4,"valence":"lose","action":"no-go","sham":1,"trial_type":"pit-trial","trial_index":235,"time_elapsed":1022150,"internal_node_id":"0.0-210.0","task_version":"battery-v0.2-trt","session":2},{"rune":"Z","rune_set":"bacs2","hex":"#3366ff99","correct":32,"choice":-1,"rt":-1,"accuracy":0,"outcome":"+1","keys":[],"total_keys":0,"block":2,"trial":205,"stimulus":8,"robot":1,"valence":"win","action":"go","sham":0,"trial_type":"pit-trial","trial_index":236,"time_elapsed":1026160,"internal_node_id":"0.0-211.0","task_version":"battery-v0.2-trt","session":2},{"rune":"X","rune_set":"bacs2","hex":"#f73b6a7A","correct":-1,"choice":-1,"rt":-1,"accuracy":1,"outcome":"-1","keys":[],"total_keys":0,"block":2,"trial":206,"stimulus":9,"robot":4,"valence":"lose","action":"no-go","sham":0,"trial_type":"pit-trial","trial_index":237,"time_elapsed":1030164,"internal_node_id":"0.0-212.0","task_version":"battery-v0.2-trt","session":2},{"rune":"G","rune_set":"bacs2","hex":"#3366ff99","correct":-1,"choice":-1,"rt":-1,"accuracy":1,"outcome":"+1","keys":[],"total_keys":0,"block":2,"trial":207,"stimulus":7,"robot":2,"valence":"win","action":"no-go","sham":1,"trial_type":"pit-trial","trial_index":238,"time_elapsed":1034172,"internal_node_id":"0.0-213.0","task_version":"battery-v0.2-trt","session":2},{"rune":"C","rune_set":"bacs2","hex":"#f73b6a7A","correct":32,"choice":32,"rt":702.095000015106,"accuracy":1,"outcome":"-1","keys":[2206.095000030473],"total_keys":1,"block":2,"trial":208,"stimulus":5,"robot":3,"valence":"lose","action":"go","sham":0,"trial_type":"pit-trial","trial_index":239,"time_elapsed":1037584,"internal_node_id":"0.0-214.0","task_version":"battery-v0.2-trt","session":2},{"rune":"J","rune_set":"bacs2","hex":"#3366ff99","correct":32,"choice":32,"rt":742.2350000124425,"accuracy":1,"outcome":"+10","keys":[2243.1050000013784],"total_keys":1,"block":2,"trial":209,"stimulus":11,"robot":1,"valence":"win","action":"go","sham":0,"trial_type":"pit-trial","trial_index":240,"time_elapsed":1041030,"internal_node_id":"0.0-215.0","task_version":"battery-v0.2-trt","session":2},{"rune":"W","rune_set":"bacs2","hex":"#f73b6a7A","correct":32,"choice":32,"rt":773.5250000259839,"accuracy":1,"outcome":"-1","keys":[2274.425000010524],"total_keys":1,"block":2,"trial":210,"stimulus":10,"robot":3,"valence":"lose","action":"go","sham":0,"trial_type":"pit-trial","trial_index":241,"time_elapsed":1044508,"internal_node_id":"0.0-216.0","task_version":"battery-v0.2-trt","session":2},{"rune":"X","rune_set":"bacs2","hex":"#f73b6a7A","correct":-1,"choice":-1,"rt":-1,"accuracy":1,"outcome":"-1","keys":[],"total_keys":0,"block":2,"trial":211,"stimulus":9,"robot":4,"valence":"lose","action":"no-go","sham":0,"trial_type":"pit-trial","trial_index":242,"time_elapsed":1048514,"internal_node_id":"0.0-217.0","task_version":"battery-v0.2-trt","session":2},{"rune":"Z","rune_set":"bacs2","hex":"#3366ff99","correct":32,"choice":-1,"rt":-1,"accuracy":0,"outcome":"+10","keys":[],"total_keys":0,"block":2,"trial":212,"stimulus":8,"robot":1,"valence":"win","action":"go","sham":1,"trial_type":"pit-trial","trial_index":243,"time_elapsed":1052521,"internal_node_id":"0.0-218.0","task_version":"battery-v0.2-trt","session":2},{"rune":"W","rune_set":"bacs2","hex":"#f73b6a7A","correct":32,"choice":32,"rt":1006.9849999854341,"accuracy":1,"outcome":"-1","keys":[2507.6349999872036],"total_keys":1,"block":2,"trial":213,"stimulus":10,"robot":3,"valence":"lose","action":"go","sham":0,"trial_type":"pit-trial","trial_index":244,"time_elapsed":1056232,"internal_node_id":"0.0-219.0","task_version":"battery-v0.2-trt","session":2},{"rune":"X","rune_set":"bacs2","hex":"#f73b6a7A","correct":-1,"choice":-1,"rt":-1,"accuracy":1,"outcome":"-1","keys":[],"total_keys":0,"block":2,"trial":214,"stimulus":9,"robot":4,"valence":"lose","action":"no-go","sham":0,"trial_type":"pit-trial","trial_index":245,"time_elapsed":1060241,"internal_node_id":"0.0-220.0","task_version":"battery-v0.2-trt","session":2},{"rune":"Z","rune_set":"bacs2","hex":"#3366ff99","correct":32,"choice":-1,"rt":-1,"accuracy":0,"outcome":"+1","keys":[],"total_keys":0,"block":2,"trial":215,"stimulus":8,"robot":1,"valence":"win","action":"go","sham":0,"trial_type":"pit-trial","trial_index":246,"time_elapsed":1064249,"internal_node_id":"0.0-221.0","task_version":"battery-v0.2-trt","session":2},{"rune":"J","rune_set":"bacs2","hex":"#3366ff99","correct":32,"choice":32,"rt":683.7999999988824,"accuracy":1,"outcome":"+10","keys":[2184.605000016745],"total_keys":1,"block":2,"trial":216,"stimulus":11,"robot":1,"valence":"win","action":"go","sham":0,"trial_type":"pit-trial","trial_index":247,"time_elapsed":1067637,"internal_node_id":"0.0-222.0","task_version":"battery-v0.2-trt","session":2},{"rune":"X","rune_set":"bacs2","hex":"#f73b6a7A","correct":-1,"choice":-1,"rt":-1,"accuracy":1,"outcome":"-1","keys":[],"total_keys":0,"block":2,"trial":217,"stimulus":9,"robot":4,"valence":"lose","action":"no-go","sham":0,"trial_type":"pit-trial","trial_index":248,"time_elapsed":1071645,"internal_node_id":"0.0-223.0","task_version":"battery-v0.2-trt","session":2},{"rune":"J","rune_set":"bacs2","hex":"#3366ff99","correct":32,"choice":32,"rt":728.6650000023656,"accuracy":1,"outcome":"+10","keys":[2231.8450000020675],"total_keys":1,"block":2,"trial":218,"stimulus":11,"robot":1,"valence":"win","action":"go","sham":0,"trial_type":"pit-trial","trial_index":249,"time_elapsed":1075079,"internal_node_id":"0.0-224.0","task_version":"battery-v0.2-trt","session":2},{"rune":"Z","rune_set":"bacs2","hex":"#3366ff99","correct":32,"choice":32,"rt":820.5599999637343,"accuracy":1,"outcome":"+10","keys":[2322.8399999788962],"total_keys":1,"block":2,"trial":219,"stimulus":8,"robot":1,"valence":"win","action":"go","sham":0,"trial_type":"pit-trial","trial_index":250,"time_elapsed":1078605,"internal_node_id":"0.0-225.0","task_version":"battery-v0.2-trt","session":2},{"rune":"W","rune_set":"bacs2","hex":"#f73b6a7A","correct":32,"choice":32,"rt":811.0100000048988,"accuracy":1,"outcome":"-1","keys":[2311.585000017658],"total_keys":1,"block":2,"trial":220,"stimulus":10,"robot":3,"valence":"lose","action":"go","sham":0,"trial_type":"pit-trial","trial_index":251,"time_elapsed":1082120,"internal_node_id":"0.0-226.0","task_version":"battery-v0.2-trt","session":2},{"rune":"X","rune_set":"bacs2","hex":"#f73b6a7A","correct":-1,"choice":-1,"rt":-1,"accuracy":1,"outcome":"-1","keys":[],"total_keys":0,"block":2,"trial":221,"stimulus":9,"robot":4,"valence":"lose","action":"no-go","sham":0,"trial_type":"pit-trial","trial_index":252,"time_elapsed":1086130,"internal_node_id":"0.0-227.0","task_version":"battery-v0.2-trt","session":2},{"rune":"Z","rune_set":"bacs2","hex":"#3366ff99","correct":32,"choice":32,"rt":587.3950000386685,"accuracy":1,"outcome":"+1","keys":[2088.724999979604],"total_keys":1,"block":2,"trial":222,"stimulus":8,"robot":1,"valence":"win","action":"go","sham":1,"trial_type":"pit-trial","trial_index":253,"time_elapsed":1089421,"internal_node_id":"0.0-228.0","task_version":"battery-v0.2-trt","session":2},{"rune":"W","rune_set":"bacs2","hex":"#f73b6a7A","correct":32,"choice":32,"rt":899.6700000134297,"accuracy":1,"outcome":"-1","keys":[2400.1399999833666],"total_keys":1,"block":2,"trial":223,"stimulus":10,"robot":3,"valence":"lose","action":"go","sham":0,"trial_type":"pit-trial","trial_index":254,"time_elapsed":1093026,"internal_node_id":"0.0-229.0","task_version":"battery-v0.2-trt","session":2},{"rune":"J","rune_set":"bacs2","hex":"#3366ff99","correct":32,"choice":32,"rt":562.6599999959581,"accuracy":1,"outcome":"+1","keys":[2064.654999994673],"total_keys":1,"block":2,"trial":224,"stimulus":11,"robot":1,"valence":"win","action":"go","sham":1,"trial_type":"pit-trial","trial_index":255,"time_elapsed":1096294,"internal_node_id":"0.0-230.0","task_version":"battery-v0.2-trt","session":2},{"rune":"X","rune_set":"bacs2","hex":"#f73b6a7A","correct":-1,"choice":-1,"rt":-1,"accuracy":1,"outcome":"-1","keys":[],"total_keys":0,"block":2,"trial":225,"stimulus":9,"robot":4,"valence":"lose","action":"no-go","sham":0,"trial_type":"pit-trial","trial_index":256,"time_elapsed":1100302,"internal_node_id":"0.0-231.0","task_version":"battery-v0.2-trt","session":2},{"rune":"Z","rune_set":"bacs2","hex":"#3366ff99","correct":32,"choice":32,"rt":627.585000009276,"accuracy":1,"outcome":"+1","keys":[2127.745000005234],"total_keys":1,"block":2,"trial":226,"stimulus":8,"robot":1,"valence":"win","action":"go","sham":1,"trial_type":"pit-trial","trial_index":257,"time_elapsed":1103634,"internal_node_id":"0.0-232.0","task_version":"battery-v0.2-trt","session":2},{"rune":"J","rune_set":"bacs2","hex":"#3366ff99","correct":32,"choice":32,"rt":683.9299999992363,"accuracy":1,"outcome":"+10","keys":[2184.7149999812245],"total_keys":1,"block":2,"trial":227,"stimulus":11,"robot":1,"valence":"win","action":"go","sham":0,"trial_type":"pit-trial","trial_index":258,"time_elapsed":1107022,"internal_node_id":"0.0-233.0","task_version":"battery-v0.2-trt","session":2},{"rune":"W","rune_set":"bacs2","hex":"#f73b6a7A","correct":32,"choice":32,"rt":723.4600000083447,"accuracy":1,"outcome":"-10","keys":[2223.790000018198],"total_keys":1,"block":2,"trial":228,"stimulus":10,"robot":3,"valence":"lose","action":"go","sham":1,"trial_type":"pit-trial","trial_index":259,"time_elapsed":1110451,"internal_node_id":"0.0-234.0","task_version":"battery-v0.2-trt","session":2},{"rune":"W","rune_set":"bacs2","hex":"#f73b6a7A","correct":32,"choice":32,"rt":692.1799999545328,"accuracy":1,"outcome":"-1","keys":[2192.9849999723956],"total_keys":1,"block":2,"trial":229,"stimulus":10,"robot":3,"valence":"lose","action":"go","sham":0,"trial_type":"pit-trial","trial_index":260,"time_elapsed":1113847,"internal_node_id":"0.0-235.0","task_version":"battery-v0.2-trt","session":2},{"rune":"J","rune_set":"bacs2","hex":"#3366ff99","correct":32,"choice":32,"rt":540.7199999899603,"accuracy":1,"outcome":"+10","keys":[2046.7800000333227],"total_keys":1,"block":2,"trial":230,"stimulus":11,"robot":1,"valence":"win","action":"go","sham":0,"trial_type":"pit-trial","trial_index":261,"time_elapsed":1117097,"internal_node_id":"0.0-236.0","task_version":"battery-v0.2-trt","session":2},{"rune":"X","rune_set":"bacs2","hex":"#f73b6a7A","correct":-1,"choice":-1,"rt":-1,"accuracy":1,"outcome":"-1","keys":[],"total_keys":0,"block":2,"trial":231,"stimulus":9,"robot":4,"valence":"lose","action":"no-go","sham":0,"trial_type":"pit-trial","trial_index":262,"time_elapsed":1121102,"internal_node_id":"0.0-237.0","task_version":"battery-v0.2-trt","session":2},{"rune":"Z","rune_set":"bacs2","hex":"#3366ff99","correct":32,"choice":-1,"rt":-1,"accuracy":0,"outcome":"+1","keys":[],"total_keys":0,"block":2,"trial":232,"stimulus":8,"robot":1,"valence":"win","action":"go","sham":0,"trial_type":"pit-trial","trial_index":263,"time_elapsed":1125108,"internal_node_id":"0.0-238.0","task_version":"battery-v0.2-trt","session":2},{"rune":"W","rune_set":"bacs2","hex":"#f73b6a7A","correct":32,"choice":32,"rt":639.00000002468,"accuracy":1,"outcome":"-1","keys":[2144.3749999743886],"total_keys":1,"block":2,"trial":233,"stimulus":10,"robot":3,"valence":"lose","action":"go","sham":0,"trial_type":"pit-trial","trial_index":264,"time_elapsed":1128455,"internal_node_id":"0.0-239.0","task_version":"battery-v0.2-trt","session":2},{"rune":"X","rune_set":"bacs2","hex":"#f73b6a7A","correct":-1,"choice":-1,"rt":-1,"accuracy":1,"outcome":"-1","keys":[],"total_keys":0,"block":2,"trial":234,"stimulus":9,"robot":4,"valence":"lose","action