[{"slider_type":"valence","raw_loc":722,"loc":0.944,"trial_type":"affective-slider","trial_index":0,"time_elapsed":3915,"internal_node_id":"0.0-0.0","task_version":"test-retest"},{"responses":{"Q12":"3","Q04":"2","Q09":"3","Q02":"3","Q06":"3","Q05":"3","Q01":"1","Q08":"3","Q07":"3","Q03":"3","Q13":"0","Q11":"3","Q10":"3"},"rt":88008.43999997596,"survey":"bisbas","trial_type":"survey-template","trial_index":1,"time_elapsed":91934,"internal_node_id":"0.0-1.0","task_version":"test-retest"},{"responses":{"Q07":"0","Q06":"0","Q05":"0","Q03":"0","Q01":"0","Q08":"0","Q04":"0","Q02":"0"},"rt":16820.90999998036,"survey":"gad7","trial_type":"survey-template","trial_index":2,"time_elapsed":108761,"internal_node_id":"0.0-2.0","task_version":"test-retest"},{"responses":{"Q14":"0","Q02":"0","Q01":"0","Q10":"0","Q08":"0","Q07":"0","Q13":"0","Q12":"0","Q06":"0","Q15":"0","Q09":"0","Q03":"0","Q05":"0","Q11":"0","Q04":"0"},"rt":65788.28499998781,"survey":"7up7down","trial_type":"survey-template","trial_index":3,"time_elapsed":174557,"internal_node_id":"0.0-3.0","task_version":"test-retest"},{"value":false,"trial_type":"call-function","trial_index":4,"time_elapsed":174563,"internal_node_id":"0.0-4.0","task_version":"test-retest"},{"view_history":"[{\"page_index\":0,\"viewing_time\":1917.2799999942072},{\"page_index\":1,\"viewing_time\":2228.934999991907},{\"page_index\":2,\"viewing_time\":6689.320000004955},{\"page_index\":3,\"viewing_time\":3533.6850000021514},{\"page_index\":4,\"viewing_time\":63.87499999254942}]","rt":14437.069999985397,"trial_type":"pit-instructions","trial_index":5,"time_elapsed":189012,"internal_node_id":"0.0-5.0-0.0","task_version":"test-retest"},{"Rune":"rune_00_ingz","Hex":"#FFFFF080","Correct":32,"Choice":32,"RT":932.5649999955203,"Accuracy":1,"Outcome":"+10","Keys":[2433.309999993071],"TotalKeys":1,"Block":0,"Action":"Go","trial_type":"pit-trial","trial_index":6,"time_elapsed":192459,"internal_node_id":"0.0-5.0-1.0-0.0","task_version":"test-retest"},{"Rune":"rune_00_ingz","Hex":"#FFFFF080","Correct":32,"Choice":32,"RT":395.7700000028126,"Accuracy":1,"Outcome":"+10","Keys":[1896.7350000166334],"TotalKeys":1,"Block":0,"Action":"Go","trial_type":"pit-trial","trial_index":7,"time_elapsed":195367,"internal_node_id":"0.0-5.0-1.0-0.1","task_version":"test-retest"},{"Rune":"rune_00_ingz","Hex":"#FFFFF080","Correct":32,"Choice":-1,"RT":-1,"Accuracy":0,"Outcome":"+0","Keys":[1372.750000009546],"TotalKeys":1,"Block":0,"Action":"Go","trial_type":"pit-trial","trial_index":8,"time_elapsed":199375,"internal_node_id":"0.0-5.0-1.0-0.2","task_version":"test-retest"},{"Rune":"rune_00_ingz","Hex":"#FFFFF080","Correct":32,"Choice":-1,"RT":-1,"Accuracy":0,"Outcome":"+0","Keys":[1262.2950000222772],"TotalKeys":1,"Block":0,"Action":"Go","trial_type":"pit-trial","trial_index":9,"time_elapsed":203385,"internal_node_id":"0.0-5.0-1.0-0.3","task_version":"test-retest"},{"view_history":"[{\"page_index\":0,\"viewing_time\":3381.020000000717}]","rt":3381.7649999982677,"trial_type":"pit-instructions","trial_index":10,"time_elapsed":206771,"internal_node_id":"0.0-5.0-2.0","task_version":"test-retest"},{"Rune":"rune_00_isaz","Hex":"#FFFFF080","Correct":-1,"Choice":-1,"RT":-1,"Accuracy":1,"Outcome":"+10","Keys":[],"TotalKeys":0,"Block":0,"Action":"No-Go","trial_type":"pit-trial","trial_index":11,"time_elapsed":210778,"internal_node_id":"0.0-5.0-3.0-0.0","task_version":"test-retest"},{"Rune":"rune_00_isaz","Hex":"#FFFFF080","Correct":-1,"Choice":32,"RT":38.89999998500571,"Accuracy":0,"Outcome":"+0","Keys":[1540.6800000055227],"TotalKeys":1,"Block":0,"Action":"No-Go","trial_type":"pit-trial","trial_index":12,"time_elapsed":213324,"internal_node_id":"0.0-5.0-3.0-0.1","task_version":"test-retest"},{"Rune":"rune_00_isaz","Hex":"#FFFFF080","Correct":-1,"Choice":32,"RT":820.4149999946821,"Accuracy":0,"Outcome":"+0","Keys":[2321.6950000205543],"TotalKeys":1,"Block":0,"Action":"No-Go","trial_type":"pit-trial","trial_index":13,"time_elapsed":216661,"internal_node_id":"0.0-5.0-3.0-0.2","task_version":"test-retest"},{"Rune":"rune_00_isaz","Hex":"#FFFFF080","Correct":-1,"Choice":-1,"RT":-1,"Accuracy":1,"Outcome":"+10","Keys":[1196.6299999912735],"TotalKeys":1,"Block":0,"Action":"No-Go","trial_type":"pit-trial","trial_index":14,"time_elapsed":220667,"internal_node_id":"0.0-5.0-3.0-0.3","task_version":"test-retest"},{"view_history":"[{\"page_index\":0,\"viewing_time\":4456.555000011576},{\"page_index\":1,\"viewing_time\":15431.595000001835},{\"page_index\":2,\"viewing_time\":8263.349999993807},{\"page_index\":3,\"viewing_time\":8467.494999989867},{\"page_index\":4,\"viewing_time\":5949.164999998175},{\"page_index\":5,\"viewing_time\":4757.310000015423},{\"page_index\":6,\"viewing_time\":2567.9550000058953},{\"page_index\":7,\"viewing_time\":2391.589999984717}]","rt":52286.74000001047,"trial_type":"pit-instructions","trial_index":15,"time_elapsed":272959,"internal_node_id":"0.0-5.0-4.0","task_version":"test-retest"},{"responses":["Do nothing","+10","-1","True","Yes"],"num_errors":0,"rt":15118.534999986878,"trial_type":"pit-comprehension","trial_index":16,"time_elapsed":288091,"internal_node_id":"0.0-5.0-5.0","task_version":"test-retest"},{"trial_type":"call-function","trial_index":17,"time_elapsed":288105,"internal_node_id":"0.0-6.0","task_version":"test-retest"},{"view_history":"[{\"page_index\":0,\"viewing_time\":2107.53000000841},{\"page_index\":1,\"viewing_time\":28462.534999998752}]","rt":30571.410000004107,"trial_type":"pit-instructions","trial_index":18,"time_elapsed":318682,"internal_node_id":"0.0-7.0","task_version":"test-retest"},{"Rune":"rune_02_haglaz","Hex":"#ffcc3399","Correct":-1,"Choice":32,"RT":771.2799999862909,"Accuracy":0,"Outcome":"-1","Keys":[2271.6399999917485],"TotalKeys":1,"Block":1,"Trial":1,"Robot":4,"Valence":"Lose","Action":"No-Go","Sham":1,"Color":"yellow","trial_type":"pit-trial","trial_index":19,"time_elapsed":321972,"internal_node_id":"0.0-8.0","task_version":"test-retest"},{"Rune":"rune_02_raido","Hex":"#ffcc3399","Correct":32,"Choice":-1,"RT":-1,"Accuracy":0,"Outcome":"-10","Keys":[],"TotalKeys":0,"Block":1,"Trial":2,"Robot":3,"Valence":"Lose","Action":"Go","Sham":0,"Color":"yellow","trial_type":"pit-trial","trial_index":20,"time_elapsed":325982,"internal_node_id":"0.0-9.0","task_version":"test-retest"},{"Rune":"rune_02_cen","Hex":"#3366ff99","Correct":32,"Choice":-1,"RT":-1,"Accuracy":0,"Outcome":"+1","Keys":[],"TotalKeys":0,"Block":1,"Trial":3,"Robot":1,"Valence":"Win","Action":"Go","Sham":0,"Color":"blue","trial_type":"pit-trial","trial_index":21,"time_elapsed":329991,"internal_node_id":"0.0-10.0","task_version":"test-retest"},{"Rune":"rune_02_os","Hex":"#3366ff99","Correct":-1,"Choice":-1,"RT":-1,"Accuracy":1,"Outcome":"+10","Keys":[],"TotalKeys":0,"Block":1,"Trial":4,"Robot":2,"Valence":"Win","Action":"No-Go","Sham":0,"Color":"blue","trial_type":"pit-trial","trial_index":22,"time_elapsed":334015,"internal_node_id":"0.0-11.0","task_version":"test-retest"},{"Rune":"rune_02_haglaz","Hex":"#ffcc3399","Correct":-1,"Choice":32,"RT":693.7800000014249,"Accuracy":0,"Outcome":"-10","Keys":[2195.639999990817],"TotalKeys":1,"Block":1,"Trial":5,"Robot":4,"Valence":"Lose","Action":"No-Go","Sham":0,"Color":"yellow","trial_type":"pit-trial","trial_index":23,"time_elapsed":337223,"internal_node_id":"0.0-12.0","task_version":"test-retest"},{"Rune":"rune_02_cen","Hex":"#3366ff99","Correct":32,"Choice":32,"RT":1268.9449999888893,"Accuracy":1,"Outcome":"+1","Keys":[2770.0199999962933],"TotalKeys":1,"Block":1,"Trial":6,"Robot":1,"Valence":"Win","Action":"Go","Sham":1,"Color":"blue","trial_type":"pit-trial","trial_index":24,"time_elapsed":341005,"internal_node_id":"0.0-13.0","task_version":"test-retest"},{"Rune":"rune_02_os","Hex":"#3366ff99","Correct":-1,"Choice":32,"RT":1439.9050000065472,"Accuracy":0,"Outcome":"+10","Keys":[2942.0249999966472],"TotalKeys":1,"Block":1,"Trial":7,"Robot":2,"Valence":"Win","Action":"No-Go","Sham":1,"Color":"blue","trial_type":"pit-trial","trial_index":25,"time_elapsed":344958,"internal_node_id":"0.0-14.0","task_version":"test-retest"},{"Rune":"rune_02_raido","Hex":"#ffcc3399","Correct":32,"Choice":-1,"RT":-1,"Accuracy":0,"Outcome":"-10","Keys":[],"TotalKeys":0,"Block":1,"Trial":8,"Robot":3,"Valence":"Lose","Action":"Go","Sham":0,"Color":"yellow","trial_type":"pit-trial","trial_index":26,"time_elapsed":348968,"internal_node_id":"0.0-15.0","task_version":"test-retest"},{"Rune":"rune_02_cen","Hex":"#3366ff99","Correct":32,"Choice":-1,"RT":-1,"Accuracy":0,"Outcome":"+1","Keys":[3472.269999998389],"TotalKeys":1,"Block":1,"Trial":9,"Robot":1,"Valence":"Win","Action":"Go","Sham":0,"Color":"blue","trial_type":"pit-trial","trial_index":27,"time_elapsed":352976,"internal_node_id":"0.0-16.0","task_version":"test-retest"},{"Rune":"rune_02_os","Hex":"#3366ff99","Correct":-1,"Choice":-1,"RT":-1,"Accuracy":1,"Outcome":"+10","Keys":[3643.2799999893177],"TotalKeys":1,"Block":1,"Trial":10,"Robot":2,"Valence":"Win","Action":"No-Go","Sham":0,"Color":"blue","trial_type":"pit-trial","trial_index":28,"time_elapsed":356986,"internal_node_id":"0.0-17.0","task_version":"test-retest"},{"Rune":"rune_02_raido","Hex":"#ffcc3399","Correct":32,"Choice":32,"RT":1176.0800000047311,"Accuracy":1,"Outcome":"-1","Keys":[2676.6650000063237],"TotalKeys":1,"Block":1,"Trial":11,"Robot":3,"Valence":"Lose","Action":"Go","Sham":0,"Color":"yellow","trial_type":"pit-trial","trial_index":29,"time_elapsed":360670,"internal_node_id":"0.0-18.0","task_version":"test-retest"},{"Rune":"rune_02_haglaz","Hex":"#ffcc3399","Correct":-1,"Choice":32,"RT":1356.8500000110362,"Accuracy":0,"Outcome":"-10","Keys":[2857.3449999967124],"TotalKeys":1,"Block":1,"Trial":12,"Robot":4,"Valence":"Lose","Action":"No-Go","Sham":0,"Color":"yellow","trial_type":"pit-trial","trial_index":30,"time_elapsed":364537,"internal_node_id":"0.0-19.0","task_version":"test-retest"},{"Rune":"rune_02_raido","Hex":"#ffcc3399","Correct":32,"Choice":32,"RT":1266.685000009602,"Accuracy":1,"Outcome":"-10","Keys":[2768.0099999997765],"TotalKeys":1,"Block":1,"Trial":13,"Robot":3,"Valence":"Lose","Action":"Go","Sham":1,"Color":"yellow","trial_type":"pit-trial","trial_index":31,"time_elapsed":368314,"internal_node_id":"0.0-20.0","task_version":"test-retest"},{"Rune":"rune_02_haglaz","Hex":"#ffcc3399","Correct":-1,"Choice":-1,"RT":-1,"Accuracy":1,"Outcome":"-1","Keys":[],"TotalKeys":0,"Block":1,"Trial":14,"Robot":4,"Valence":"Lose","Action":"No-Go","Sham":0,"Color":"yellow","trial_type":"pit-trial","trial_index":32,"time_elapsed":372324,"internal_node_id":"0.0-21.0","task_version":"test-retest"},{"Rune":"rune_02_cen","Hex":"#3366ff99","Correct":32,"Choice":32,"RT":1267.3300000024028,"Accuracy":1,"Outcome":"+10","Keys":[2767.5600000075065],"TotalKeys":1,"Block":1,"Trial":15,"Robot":1,"Valence":"Win","Action":"Go","Sham":0,"Color":"blue","trial_type":"pit-trial","trial_index":33,"time_elapsed":376102,"internal_node_id":"0.0-22.0","task_version":"test-retest"},{"Rune":"rune_02_os","Hex":"#3366ff99","Correct":-1,"Choice":-1,"RT":-1,"Accuracy":1,"Outcome":"+10","Keys":[],"TotalKeys":0,"Block":1,"Trial":16,"Robot":2,"Valence":"Win","Action":"No-Go","Sham":0,"Color":"blue","trial_type":"pit-trial","trial_index":34,"time_elapsed":380115,"internal_node_id":"0.0-23.0","task_version":"test-retest"},{"Rune":"rune_02_haglaz","Hex":"#ffcc3399","Correct":-1,"Choice":-1,"RT":-1,"Accuracy":1,"Outcome":"-1","Keys":[],"TotalKeys":0,"Block":1,"Trial":17,"Robot":4,"Valence":"Lose","Action":"No-Go","Sham":0,"Color":"yellow","trial_type":"pit-trial","trial_index":35,"time_elapsed":384125,"internal_node_id":"0.0-24.0","task_version":"test-retest"},{"Rune":"rune_02_os","Hex":"#3366ff99","Correct":-1,"Choice":32,"RT":1128.885000012815,"Accuracy":0,"Outcome":"+1","Keys":[2629.574999999022],"TotalKeys":1,"Block":1,"Trial":18,"Robot":2,"Valence":"Win","Action":"No-Go","Sham":0,"Color":"blue","trial_type":"pit-trial","trial_index":36,"time_elapsed":387762,"internal_node_id":"0.0-25.0","task_version":"test-retest"},{"Rune":"rune_02_raido","Hex":"#ffcc3399","Correct":32,"Choice":-1,"RT":-1,"Accuracy":0,"Outcome":"-10","Keys":[],"TotalKeys":0,"Block":1,"Trial":19,"Robot":3,"Valence":"Lose","Action":"Go","Sham":0,"Color":"yellow","trial_type":"pit-trial","trial_index":37,"time_elapsed":391769,"internal_node_id":"0.0-26.0","task_version":"test-retest"},{"Rune":"rune_02_cen","Hex":"#3366ff99","Correct":32,"Choice":32,"RT":1056.6749999998137,"Accuracy":1,"Outcome":"+10","Keys":[2559.099999984028],"TotalKeys":1,"Block":1,"Trial":20,"Robot":1,"Valence":"Win","Action":"Go","Sham":0,"Color":"blue","trial_type":"pit-trial","trial_index":38,"time_elapsed":395335,"internal_node_id":"0.0-27.0","task_version":"test-retest"},{"Rune":"rune_02_os","Hex":"#3366ff99","Correct":-1,"Choice":-1,"RT":-1,"Accuracy":1,"Outcome":"+1","Keys":[],"TotalKeys":0,"Block":1,"Trial":21,"Robot":2,"Valence":"Win","Action":"No-Go","Sham":1,"Color":"blue","trial_type":"pit-trial","trial_index":39,"time_elapsed":399345,"internal_node_id":"0.0-28.0","task_version":"test-retest"},{"Rune":"rune_02_raido","Hex":"#ffcc3399","Correct":32,"Choice":32,"RT":1050.729999988107,"Accuracy":1,"Outcome":"-1","Keys":[2552.529999986291],"TotalKeys":1,"Block":1,"Trial":22,"Robot":3,"Valence":"Lose","Action":"Go","Sham":0,"Color":"yellow","trial_type":"pit-trial","trial_index":40,"time_elapsed":402908,"internal_node_id":"0.0-29.0","task_version":"test-retest"},{"Rune":"rune_02_cen","Hex":"#3366ff99","Correct":32,"Choice":32,"RT":887.6349999918602,"Accuracy":1,"Outcome":"+10","Keys":[2389.12999999593],"TotalKeys":1,"Block":1,"Trial":23,"Robot":1,"Valence":"Win","Action":"Go","Sham":0,"Color":"blue","trial_type":"pit-trial","trial_index":41,"time_elapsed":406307,"internal_node_id":"0.0-30.0","task_version":"test-retest"},{"Rune":"rune_02_haglaz","Hex":"#ffcc3399","Correct":-1,"Choice":-1,"RT":-1,"Accuracy":1,"Outcome":"-1","Keys":[],"TotalKeys":0,"Block":1,"Trial":24,"Robot":4,"Valence":"Lose","Action":"No-Go","Sham":0,"Color":"yellow","trial_type":"pit-trial","trial_index":42,"time_elapsed":410319,"internal_node_id":"0.0-31.0","task_version":"test-retest"},{"Rune":"rune_02_haglaz","Hex":"#ffcc3399","Correct":-1,"Choice":-1,"RT":-1,"Accuracy":1,"Outcome":"-10","Keys":[],"TotalKeys":0,"Block":1,"Trial":25,"Robot":4,"Valence":"Lose","Action":"No-Go","Sham":1,"Color":"yellow","trial_type":"pit-trial","trial_index":43,"time_elapsed":414331,"internal_node_id":"0.0-32.0","task_version":"test-retest"},{"Rune":"rune_02_raido","Hex":"#ffcc3399","Correct":32,"Choice":32,"RT":721.9150000018999,"Accuracy":1,"Outcome":"-1","Keys":[2223.249999980908],"TotalKeys":1,"Block":1,"Trial":26,"Robot":3,"Valence":"Lose","Action":"Go","Sham":0,"Color":"yellow","trial_type":"pit-trial","trial_index":44,"time_elapsed":417564,"internal_node_id":"0.0-33.0","task_version":"test-retest"},{"Rune":"rune_02_os","Hex":"#3366ff99","Correct":-1,"Choice":-1,"RT":-1,"Accuracy":1,"Outcome":"+10","Keys":[],"TotalKeys":0,"Block":1,"Trial":27,"Robot":2,"Valence":"Win","Action":"No-Go","Sham":0,"Color":"blue","trial_type":"pit-trial","trial_index":45,"time_elapsed":421576,"internal_node_id":"0.0-34.0","task_version":"test-retest"},{"Rune":"rune_02_cen","Hex":"#3366ff99","Correct":32,"Choice":32,"RT":1211.0999999858905,"Accuracy":1,"Outcome":"+10","Keys":[2711.6300000052433],"TotalKeys":1,"Block":1,"Trial":28,"Robot":1,"Valence":"Win","Action":"Go","Sham":0,"Color":"blue","trial_type":"pit-trial","trial_index":46,"time_elapsed":425298,"internal_node_id":"0.0-35.0","task_version":"test-retest"},{"Rune":"rune_02_os","Hex":"#3366ff99","Correct":-1,"Choice":-1,"RT":-1,"Accuracy":1,"Outcome":"+10","Keys":[],"TotalKeys":0,"Block":1,"Trial":29,"Robot":2,"Valence":"Win","Action":"No-Go","Sham":0,"Color":"blue","trial_type":"pit-trial","trial_index":47,"time_elapsed":429309,"internal_node_id":"0.0-36.0","task_version":"test-retest"},{"Rune":"rune_02_haglaz","Hex":"#ffcc3399","Correct":-1,"Choice":-1,"RT":-1,"Accuracy":1,"Outcome":"-1","Keys":[],"TotalKeys":0,"Block":1,"Trial":30,"Robot":4,"Valence":"Lose","Action":"No-Go","Sham":0,"Color":"yellow","trial_type":"pit-trial","trial_index":48,"time_elapsed":433321,"internal_node_id":"0.0-37.0","task_version":"test-retest"},{"Rune":"rune_02_raido","Hex":"#ffcc3399","Correct":32,"Choice":-1,"RT":-1,"Accuracy":0,"Outcome":"-1","Keys":[],"TotalKeys":0,"Block":1,"Trial":31,"Robot":3,"Valence":"Lose","Action":"Go","Sham":1,"Color":"yellow","trial_type":"pit-trial","trial_index":49,"time_elapsed":437332,"internal_node_id":"0.0-38.0","task_version":"test-retest"},{"Rune":"rune_02_cen","Hex":"#3366ff99","Correct":32,"Choice":32,"RT":1105.0699999905191,"Accuracy":1,"Outcome":"+10","Keys":[2606.4100000075996],"TotalKeys":1,"Block":1,"Trial":32,"Robot":1,"Valence":"Win","Action":"Go","Sham":0,"Color":"blue","trial_type":"pit-trial","trial_index":50,"time_elapsed":440947,"internal_node_id":"0.0-39.0","task_version":"test-retest"},{"Rune":"rune_02_haglaz","Hex":"#ffcc3399","Correct":-1,"Choice":-1,"RT":-1,"Accuracy":1,"Outcome":"-1","Keys":[],"TotalKeys":0,"Block":1,"Trial":33,"Robot":4,"Valence":"Lose","Action":"No-Go","Sham":0,"Color":"yellow","trial_type":"pit-trial","trial_index":51,"time_elapsed":444954,"internal_node_id":"0.0-40.0","task_version":"test-retest"},{"Rune":"rune_02_cen","Hex":"#3366ff99","Correct":32,"Choice":32,"RT":721.1050000041723,"Accuracy":1,"Outcome":"+1","Keys":[2221.4099999982864],"TotalKeys":1,"Block":1,"Trial":34,"Robot":1,"Valence":"Win","Action":"Go","Sham":1,"Color":"blue","trial_type":"pit-trial","trial_index":52,"time_elapsed":448184,"internal_node_id":"0.0-41.0","task_version":"test-retest"},{"Rune":"rune_02_os","Hex":"#3366ff99","Correct":-1,"Choice":-1,"RT":-1,"Accuracy":1,"Outcome":"+10","Keys":[],"TotalKeys":0,"Block":1,"Trial":35,"Robot":2,"Valence":"Win","Action":"No-Go","Sham":0,"Color":"blue","trial_type":"pit-trial","trial_index":53,"time_elapsed":452195,"internal_node_id":"0.0-42.0","task_version":"test-retest"},{"Rune":"rune_02_raido","Hex":"#ffcc3399","Correct":32,"Choice":32,"RT":1371.2949999899138,"Accuracy":1,"Outcome":"-1","Keys":[2875.480000016978],"TotalKeys":1,"Block":1,"Trial":36,"Robot":3,"Valence":"Lose","Action":"Go","Sham":0,"Color":"yellow","trial_type":"pit-trial","trial_index":54,"time_elapsed":456077,"internal_node_id":"0.0-43.0","task_version":"test-retest"},{"Rune":"rune_02_raido","Hex":"#ffcc3399","Correct":32,"Choice":32,"RT":668.1450000032783,"Accuracy":1,"Outcome":"-1","Keys":[2169.045000016922],"TotalKeys":1,"Block":1,"Trial":37,"Robot":3,"Valence":"Lose","Action":"Go","Sham":0,"Color":"yellow","trial_type":"pit-trial","trial_index":55,"time_elapsed":459256,"internal_node_id":"0.0-44.0","task_version":"test-retest"},{"Rune":"rune_02_os","Hex":"#3366ff99","Correct":-1,"Choice":-1,"RT":-1,"Accuracy":1,"Outcome":"+10","Keys":[],"TotalKeys":0,"Block":1,"Trial":38,"Robot":2,"Valence":"Win","Action":"No-Go","Sham":0,"Color":"blue","trial_type":"pit-trial","trial_index":56,"time_elapsed":463269,"internal_node_id":"0.0-45.0","task_version":"test-retest"},{"Rune":"rune_02_haglaz","Hex":"#ffcc3399","Correct":-1,"Choice":-1,"RT":-1,"Accuracy":1,"Outcome":"-1","Keys":[],"TotalKeys":0,"Block":1,"Trial":39,"Robot":4,"Valence":"Lose","Action":"No-Go","Sham":0,"Color":"yellow","trial_type":"pit-trial","trial_index":57,"time_elapsed":467282,"internal_node_id":"0.0-46.0","task_version":"test-retest"},{"Rune":"rune_02_cen","Hex":"#3366ff99","Correct":32,"Choice":32,"RT":898.0800000135787,"Accuracy":1,"Outcome":"+10","Keys":[2398.4850000124425],"TotalKeys":1,"Block":1,"Trial":40,"Robot":1,"Valence":"Win","Action":"Go","Sham":0,"Color":"blue","trial_type":"pit-trial","trial_index":58,"time_elapsed":470692,"internal_node_id":"0.0-47.0","task_version":"test-retest"},{"Rune":"rune_02_haglaz","Hex":"#ffcc3399","Correct":-1,"Choice":-1,"RT":-1,"Accuracy":1,"Outcome":"-1","Keys":[],"TotalKeys":0,"Block":1,"Trial":41,"Robot":4,"Valence":"Lose","Action":"No-Go","Sham":0,"Color":"yellow","trial_type":"pit-trial","trial_index":59,"time_elapsed":474702,"internal_node_id":"0.0-48.0","task_version":"test-retest"},{"Rune":"rune_02_os","Hex":"#3366ff99","Correct":-1,"Choice":-1,"RT":-1,"Accuracy":1,"Outcome":"+10","Keys":[],"TotalKeys":0,"Block":1,"Trial":42,"Robot":2,"Valence":"Win","Action":"No-Go","Sham":0,"Color":"blue","trial_type":"pit-trial","trial_index":60,"time_elapsed":478718,"internal_node_id":"0.0-49.0","task_version":"test-retest"},{"Rune":"rune_02_raido","Hex":"#ffcc3399","Correct":32,"Choice":-1,"RT":-1,"Accuracy":0,"Outcome":"-10","Keys":[],"TotalKeys":0,"Block":1,"Trial":43,"Robot":3,"Valence":"Lose","Action":"Go","Sham":0,"Color":"yellow","trial_type":"pit-trial","trial_index":61,"time_elapsed":482724,"internal_node_id":"0.0-50.0","task_version":"test-retest"},{"Rune":"rune_02_cen","Hex":"#3366ff99","Correct":32,"Choice":32,"RT":702.4099999980535,"Accuracy":1,"Outcome":"+10","Keys":[2202.885000006063],"TotalKeys":1,"Block":1,"Trial":44,"Robot":1,"Valence":"Win","Action":"Go","Sham":0,"Color":"blue","trial_type":"pit-trial","trial_index":62,"time_elapsed":485935,"internal_node_id":"0.0-51.0","task_version":"test-retest"},{"Rune":"rune_02_raido","Hex":"#ffcc3399","Correct":32,"Choice":32,"RT":782.774999999674,"Accuracy":1,"Outcome":"-10","Keys":[2283.3000000100583],"TotalKeys":1,"Block":1,"Trial":45,"Robot":3,"Valence":"Lose","Action":"Go","Sham":1,"Color":"yellow","trial_type":"pit-trial","trial_index":63,"time_elapsed":489229,"internal_node_id":"0.0-52.0","task_version":"test-retest"},{"Rune":"rune_02_cen","Hex":"#3366ff99","Correct":32,"Choice":32,"RT":483.79499997827224,"Accuracy":1,"Outcome":"+10","Keys":[1983.8699999963865],"TotalKeys":1,"Block":1,"Trial":46,"Robot":1,"Valence":"Win","Action":"Go","Sham":0,"Color":"blue","trial_type":"pit-trial","trial_index":64,"time_elapsed":492223,"internal_node_id":"0.0-53.0","task_version":"test-retest"},{"Rune":"rune_02_haglaz","Hex":"#ffcc3399","Correct":-1,"Choice":-1,"RT":-1,"Accuracy":1,"Outcome":"-1","Keys":[],"TotalKeys":0,"Block":1,"Trial":47,"Robot":4,"Valence":"Lose","Action":"No-Go","Sham":0,"Color":"yellow","trial_type":"pit-trial","trial_index":65,"time_elapsed":496231,"internal_node_id":"0.0-54.0","task_version":"test-retest"},{"Rune":"rune_02_os","Hex":"#3366ff99","Correct":-1,"Choice":-1,"RT":-1,"Accuracy":1,"Outcome":"+1","Keys":[],"TotalKeys":0,"Block":1,"Trial":48,"Robot":2,"Valence":"Win","Action":"No-Go","Sham":1,"Color":"blue","trial_type":"pit-trial","trial_index":66,"time_elapsed":500243,"internal_node_id":"0.0-55.0","task_version":"test-retest"},{"Rune":"rune_02_cen","Hex":"#3366ff99","Correct":32,"Choice":32,"RT":611.9250000047032,"Accuracy":1,"Outcome":"+10","Keys":[2112.3850000149105],"TotalKeys":1,"Block":1,"Trial":49,"Robot":1,"Valence":"Win","Action":"Go","Sham":0,"Color":"blue","trial_type":"pit-trial","trial_index":67,"time_elapsed":503367,"internal_node_id":"0.0-56.0","task_version":"test-retest"},{"Rune":"rune_02_haglaz","Hex":"#ffcc3399","Correct":-1,"Choice":-1,"RT":-1,"Accuracy":1,"Outcome":"-10","Keys":[],"TotalKeys":0,"Block":1,"Trial":50,"Robot":4,"Valence":"Lose","Action":"No-Go","Sham":1,"Color":"yellow","trial_type":"pit-trial","trial_index":68,"time_elapsed":507384,"internal_node_id":"0.0-57.0","task_version":"test-retest"},{"Rune":"rune_02_raido","Hex":"#ffcc3399","Correct":32,"Choice":32,"RT":573.6500000057276,"Accuracy":1,"Outcome":"-1","Keys":[2074.7799999953713],"TotalKeys":1,"Block":1,"Trial":51,"Robot":3,"Valence":"Lose","Action":"Go","Sham":0,"Color":"yellow","trial_type":"pit-trial","trial_index":69,"time_elapsed":510470,"internal_node_id":"0.0-58.0","task_version":"test-retest"},{"Rune":"rune_02_os","Hex":"#3366ff99","Correct":-1,"Choice":-1,"RT":-1,"Accuracy":1,"Outcome":"+10","Keys":[],"TotalKeys":0,"Block":1,"Trial":52,"Robot":2,"Valence":"Win","Action":"No-Go","Sham":0,"Color":"blue","trial_type":"pit-trial","trial_index":70,"time_elapsed":514482,"internal_node_id":"0.0-59.0","task_version":"test-retest"},{"Rune":"rune_02_cen","Hex":"#3366ff99","Correct":32,"Choice":32,"RT":506.0599999851547,"Accuracy":1,"Outcome":"+10","Keys":[2006.150000001071],"TotalKeys":1,"Block":1,"Trial":53,"Robot":1,"Valence":"Win","Action":"Go","Sham":0,"Color":"blue","trial_type":"pit-trial","trial_index":71,"time_elapsed":517497,"internal_node_id":"0.0-60.0","task_version":"test-retest"},{"Rune":"rune_02_haglaz","Hex":"#ffcc3399","Correct":-1,"Choice":-1,"RT":-1,"Accuracy":1,"Outcome":"-1","Keys":[],"TotalKeys":0,"Block":1,"Trial":54,"Robot":4,"Valence":"Lose","Action":"No-Go","Sham":0,"Color":"yellow","trial_type":"pit-trial","trial_index":72,"time_elapsed":521508,"internal_node_id":"0.0-61.0","task_version":"test-retest"},{"Rune":"rune_02_raido","Hex":"#ffcc3399","Correct":32,"Choice":32,"RT":614.5550000073854,"Accuracy":1,"Outcome":"-1","Keys":[2115.864999999758],"TotalKeys":1,"Block":1,"Trial":55,"Robot":3,"Valence":"Lose","Action":"Go","Sham":0,"Color":"yellow","trial_type":"pit-trial","trial_index":73,"time_elapsed":524634,"internal_node_id":"0.0-62.0","task_version":"test-retest"},{"Rune":"rune_02_os","Hex":"#3366ff99","Correct":-1,"Choice":-1,"RT":-1,"Accuracy":1,"Outcome":"+10","Keys":[],"TotalKeys":0,"Block":1,"Trial":56,"Robot":2,"Valence":"Win","Action":"No-Go","Sham":0,"Color":"blue","trial_type":"pit-trial","trial_index":74,"time_elapsed":528646,"internal_node_id":"0.0-63.0","task_version":"test-retest"},{"Rune":"rune_02_haglaz","Hex":"#ffcc3399","Correct":-1,"Choice":-1,"RT":-1,"Accuracy":1,"Outcome":"-1","Keys":[],"TotalKeys":0,"Block":1,"Trial":57,"Robot":4,"Valence":"Lose","Action":"No-Go","Sham":0,"Color":"yellow","trial_type":"pit-trial","trial_index":75,"time_elapsed":532656,"internal_node_id":"0.0-64.0","task_version":"test-retest"},{"Rune":"rune_02_raido","Hex":"#ffcc3399","Correct":32,"Choice":32,"RT":554.3850000249222,"Accuracy":1,"Outcome":"-1","Keys":[2056.1349999916274],"TotalKeys":1,"Block":1,"Trial":58,"Robot":3,"Valence":"Lose","Action":"Go","Sham":0,"Color":"yellow","trial_type":"pit-trial","trial_index":76,"time_elapsed":535721,"internal_node_id":"0.0-65.0","task_version":"test-retest"},{"Rune":"rune_02_os","Hex":"#3366ff99","Correct":-1,"Choice":-1,"RT":-1,"Accuracy":1,"Outcome":"+10","Keys":[],"TotalKeys":0,"Block":1,"Trial":59,"Robot":2,"Valence":"Win","Action":"No-Go","Sham":0,"Color":"blue","trial_type":"pit-trial","trial_index":77,"time_elapsed":539727,"internal_node_id":"0.0-66.0","task_version":"test-retest"},{"Rune":"rune_02_cen","Hex":"#3366ff99","Correct":32,"Choice":32,"RT":670.4250000184402,"Accuracy":1,"Outcome":"+1","Keys":[2171.039999986533],"TotalKeys":1,"Block":1,"Trial":60,"Robot":1,"Valence":"Win","Action":"Go","Sham":1,"Color":"blue","trial_type":"pit-trial","trial_index":78,"time_elapsed":542907,"internal_node_id":"0.0-67.0","task_version":"test-retest"},{"value":false,"trial_type":"call-function","trial_index":79,"time_elapsed":542918,"internal_node_id":"0.0-68.0","task_version":"test-retest"},{"view_history":"[{\"page_index\":0,\"viewing_time\":28179.690000019036},{\"page_index\":1,\"viewing_time\":1089.8899999738205}]","rt":29270.340000017313,"trial_type":"pit-instructions","trial_index":80,"time_elapsed":572191,"internal_node_id":"0.0-69.0","task_version":"test-retest"},{"Rune":"rune_02_haglaz","Hex":"#ffcc3399","Correct":-1,"Choice":-1,"RT":-1,"Accuracy":1,"Outcome":"-1","Keys":[],"TotalKeys":0,"Block":1,"Trial":61,"Robot":4,"Valence":"Lose","Action":"No-Go","Sham":0,"Color":"yellow","trial_type":"pit-trial","trial_index":81,"time_elapsed":576701,"internal_node_id":"0.0-70.0","task_version":"test-retest"},{"Rune":"rune_02_raido","Hex":"#ffcc3399","Correct":32,"Choice":32,"RT":979.6300000161864,"Accuracy":1,"Outcome":"-10","Keys":[2480.374999984633],"TotalKeys":1,"Block":1,"Trial":62,"Robot":3,"Valence":"Lose","Action":"Go","Sham":1,"Color":"yellow","trial_type":"pit-trial","trial_index":82,"time_elapsed":580186,"internal_node_id":"0.0-71.0","task_version":"test-retest"},{"Rune":"rune_02_os","Hex":"#3366ff99","Correct":-1,"Choice":-1,"RT":-1,"Accuracy":1,"Outcome":"+10","Keys":[],"TotalKeys":0,"Block":1,"Trial":63,"Robot":2,"Valence":"Win","Action":"No-Go","Sham":0,"Color":"blue","trial_type":"pit-trial","trial_index":83,"time_elapsed":584191,"internal_node_id":"0.0-72.0","task_version":"test-retest"},{"Rune":"rune_02_cen","Hex":"#3366ff99","Correct":32,"Choice":32,"RT":499.54499999876134,"Accuracy":1,"Outcome":"+10","Keys":[1999.6850000170525],"TotalKeys":1,"Block":1,"Trial":64,"Robot":1,"Valence":"Win","Action":"Go","Sham":0,"Color":"blue","trial_type":"pit-trial","trial_index":84,"time_elapsed":587195,"internal_node_id":"0.0-73.0","task_version":"test-retest"},{"Rune":"rune_02_os","Hex":"#3366ff99","Correct":-1,"Choice":-1,"RT":-1,"Accuracy":1,"Outcome":"+10","Keys":[],"TotalKeys":0,"Block":1,"Trial":65,"Robot":2,"Valence":"Win","Action":"No-Go","Sham":0,"Color":"blue","trial_type":"pit-trial","trial_index":85,"time_elapsed":591204,"internal_node_id":"0.0-74.0","task_version":"test-retest"},{"Rune":"rune_02_haglaz","Hex":"#ffcc3399","Correct":-1,"Choice":-1,"RT":-1,"Accuracy":1,"Outcome":"-1","Keys":[],"TotalKeys":0,"Block":1,"Trial":66,"Robot":4,"Valence":"Lose","Action":"No-Go","Sham":0,"Color":"yellow","trial_type":"pit-trial","trial_index":86,"time_elapsed":595214,"internal_node_id":"0.0-75.0","task_version":"test-retest"},{"Rune":"rune_02_raido","Hex":"#ffcc3399","Correct":32,"Choice":32,"RT":567.4200000066776,"Accuracy":1,"Outcome":"-1","Keys":[2068.744999996852],"TotalKeys":1,"Block":1,"Trial":67,"Robot":3,"Valence":"Lose","Action":"Go","Sham":0,"Color":"yellow","trial_type":"pit-trial","trial_index":87,"time_elapsed":598290,"internal_node_id":"0.0-76.0","task_version":"test-retest"},{"Rune":"rune_02_cen","Hex":"#3366ff99","Correct":32,"Choice":32,"RT":590.680000022985,"Accuracy":1,"Outcome":"+10","Keys":[2091.3799999980256],"TotalKeys":1,"Block":1,"Trial":68,"Robot":1,"Valence":"Win","Action":"Go","Sham":0,"Color":"blue","trial_type":"pit-trial","trial_index":88,"time_elapsed":601391,"internal_node_id":"0.0-77.0","task_version":"test-retest"},{"Rune":"rune_02_haglaz","Hex":"#ffcc3399","Correct":-1,"Choice":-1,"RT":-1,"Accuracy":1,"Outcome":"-10","Keys":[],"TotalKeys":0,"Block":1,"Trial":69,"Robot":4,"Valence":"Lose","Action":"No-Go","Sham":1,"Color":"yellow","trial_type":"pit-trial","trial_index":89,"time_elapsed":605402,"internal_node_id":"0.0-78.0","task_version":"test-retest"},{"Rune":"rune_02_raido","Hex":"#ffcc3399","Correct":32,"Choice":32,"RT":564.4399999873713,"Accuracy":1,"Outcome":"-1","Keys":[2066.8750000186265],"TotalKeys":1,"Block":1,"Trial":70,"Robot":3,"Valence":"Lose","Action":"Go","Sham":0,"Color":"yellow","trial_type":"pit-trial","trial_index":90,"time_elapsed":608478,"internal_node_id":"0.0-79.0","task_version":"test-retest"},{"Rune":"rune_02_os","Hex":"#3366ff99","Correct":-1,"Choice":-1,"RT":-1,"Accuracy":1,"Outcome":"+10","Keys":[],"TotalKeys":0,"Block":1,"Trial":71,"Robot":2,"Valence":"Win","Action":"No-Go","Sham":0,"Color":"blue","trial_type":"pit-trial","trial_index":91,"time_elapsed":612489,"internal_node_id":"0.0-80.0","task_version":"test-retest"},{"Rune":"rune_02_cen","Hex":"#3366ff99","Correct":32,"Choice":32,"RT":478.5400000109803,"Accuracy":1,"Outcome":"+1","Keys":[1979.9300000013318],"TotalKeys":1,"Block":1,"Trial":72,"Robot":1,"Valence":"Win","Action":"Go","Sham":1,"Color":"blue","trial_type":"pit-trial","trial_index":92,"time_elapsed":615479,"internal_node_id":"0.0-81.0","task_version":"test-retest"},{"Rune":"rune_02_os","Hex":"#3366ff99","Correct":-1,"Choice":-1,"RT":-1,"Accuracy":1,"Outcome":"+1","Keys":[],"TotalKeys":0,"Block":1,"Trial":73,"Robot":2,"Valence":"Win","Action":"No-Go","Sham":1,"Color":"blue","trial_type":"pit-trial","trial_index":93,"time_elapsed":619489,"internal_node_id":"0.0-82.0","task_version":"test-retest"},{"Rune":"rune_02_cen","Hex":"#3366ff99","Correct":32,"Choice":32,"RT":452.61500001652166,"Accuracy":1,"Outcome":"+10","Keys":[1953.8699999975506],"TotalKeys":1,"Block":1,"Trial":74,"Robot":1,"Valence":"Win","Action":"Go","Sham":0,"Color":"blue","trial_type":"pit-trial","trial_index":94,"time_elapsed":622447,"internal_node_id":"0.0-83.0","task_version":"test-retest"},{"Rune":"rune_02_haglaz","Hex":"#ffcc3399","Correct":-1,"Choice":-1,"RT":-1,"Accuracy":1,"Outcome":"-1","Keys":[],"TotalKeys":0,"Block":1,"Trial":75,"Robot":4,"Valence":"Lose","Action":"No-Go","Sham":0,"Color":"yellow","trial_type":"pit-trial","trial_index":95,"time_elapsed":626454,"internal_node_id":"0.0-84.0","task_version":"test-retest"},{"Rune":"rune_02_raido","Hex":"#ffcc3399","Correct":32,"Choice":32,"RT":751.6349999932572,"Accuracy":1,"Outcome":"-1","Keys":[2252.1150000102352],"TotalKeys":1,"Block":1,"Trial":76,"Robot":3,"Valence":"Lose","Action":"Go","Sham":0,"Color":"yellow","trial_type":"pit-trial","trial_index":96,"time_elapsed":629715,"internal_node_id":"0.0-85.0","task_version":"test-retest"},{"Rune":"rune_02_cen","Hex":"#3366ff99","Correct":32,"Choice":32,"RT":516.6049999825191,"Accuracy":1,"Outcome":"+10","Keys":[2017.4799999804236],"TotalKeys":1,"Block":1,"Trial":77,"Robot":1,"Valence":"Win","Action":"Go","Sham":0,"Color":"blue","trial_type":"pit-trial","trial_index":97,"time_elapsed":632737,"internal_node_id":"0.0-86.0","task_version":"test-retest"},{"Rune":"rune_02_os","Hex":"#3366ff99","Correct":-1,"Choice":-1,"RT":-1,"Accuracy":1,"Outcome":"+10","Keys":[],"TotalKeys":0,"Block":1,"Trial":78,"Robot":2,"Valence":"Win","Action":"No-Go","Sham":0,"Color":"blue","trial_type":"pit-trial","trial_index":98,"time_elapsed":636744,"internal_node_id":"0.0-87.0","task_version":"test-retest"},{"Rune":"rune_02_raido","Hex":"#ffcc3399","Correct":32,"Choice":32,"RT":556.6349999862723,"Accuracy":1,"Outcome":"-1","Keys":[2056.715000013355],"TotalKeys":1,"Block":1,"Trial":79,"Robot":3,"Valence":"Lose","Action":"Go","Sham":0,"Color":"yellow","trial_type":"pit-trial","trial_index":99,"time_elapsed":639808,"internal_node_id":"0.0-88.0","task_version":"test-retest"},{"Rune":"rune_02_haglaz","Hex":"#ffcc3399","Correct":-1,"Choice":-1,"RT":-1,"Accuracy":1,"Outcome":"-1","Keys":[],"TotalKeys":0,"Block":1,"Trial":80,"Robot":4,"Valence":"Lose","Action":"No-Go","Sham":0,"Color":"yellow","trial_type":"pit-trial","trial_index":100,"time_elapsed":643818,"internal_node_id":"0.0-89.0","task_version":"test-retest"},{"Rune":"rune_02_os","Hex":"#3366ff99","Correct":-1,"Choice":-1,"RT":-1,"Accuracy":1,"Outcome":"+10","Keys":[],"TotalKeys":0,"Block":1,"Trial":81,"Robot":2,"Valence":"Win","Action":"No-Go","Sham":0,"Color":"blue","trial_type":"pit-trial","trial_index":101,"time_elapsed":647829,"internal_node_id":"0.0-90.0","task_version":"test-retest"},{"Rune":"rune_02_cen","Hex":"#3366ff99","Correct":32,"Choice":32,"RT":489.60999998962507,"Accuracy":1,"Outcome":"+10","Keys":[1988.8999999966472],"TotalKeys":1,"Block":1,"Trial":82,"Robot":1,"Valence":"Win","Action":"Go","Sham":0,"Color":"blue","trial_type":"pit-trial","trial_index":102,"time_elapsed":650827,"internal_node_id":"0.0-91.0","task_version":"test-retest"},{"Rune":"rune_02_haglaz","Hex":"#ffcc3399","Correct":-1,"Choice":-1,"RT":-1,"Accuracy":1,"Outcome":"-1","Keys":[],"TotalKeys":0,"Block":1,"Trial":83,"Robot":4,"Valence":"Lose","Action":"No-Go","Sham":0,"Color":"yellow","trial_type":"pit-trial","trial_index":103,"time_elapsed":654834,"internal_node_id":"0.0-92.0","task_version":"test-retest"},{"Rune":"rune_02_raido","Hex":"#ffcc3399","Correct":32,"Choice":32,"RT":596.1700000043493,"Accuracy":1,"Outcome":"-10","Keys":[2096.7950000194833],"TotalKeys":1,"Block":1,"Trial":84,"Robot":3,"Valence":"Lose","Action":"Go","Sham":1,"Color":"yellow","trial_type":"pit-trial","trial_index":104,"time_elapsed":657941,"internal_node_id":"0.0-93.0","task_version":"test-retest"},{"Rune":"rune_02_cen","Hex":"#3366ff99","Correct":32,"Choice":32,"RT":538.9349999895785,"Accuracy":1,"Outcome":"+10","Keys":[2040.0649999792222],"TotalKeys":1,"Block":1,"Trial":85,"Robot":1,"Valence":"Win","Action":"Go","Sham":0,"Color":"blue","trial_type":"pit-trial","trial_index":105,"time_elapsed":660990,"internal_node_id":"0.0-94.0","task_version":"test-retest"},{"Rune":"rune_02_raido","Hex":"#ffcc3399","Correct":32,"Choice":32,"RT":489.9349999905098,"Accuracy":1,"Outcome":"-1","Keys":[1990.9249999909662],"TotalKeys":1,"Block":1,"Trial":86,"Robot":3,"Valence":"Lose","Action":"Go","Sham":0,"Color":"yellow","trial_type":"pit-trial","trial_index":106,"time_elapsed":663994,"internal_node_id":"0.0-95.0","task_version":"test-retest"},{"Rune":"rune_02_haglaz","Hex":"#ffcc3399","Correct":-1,"Choice":-1,"RT":-1,"Accuracy":1,"Outcome":"-1","Keys":[],"TotalKeys":0,"Block":1,"Trial":87,"Robot":4,"Valence":"Lose","Action":"No-Go","Sham":0,"Color":"yellow","trial_type":"pit-trial","trial_index":107,"time_elapsed":668004,"internal_node_id":"0.0-96.0","task_version":"test-retest"},{"Rune":"rune_02_os","Hex":"#3366ff99","Correct":-1,"Choice":32,"RT":1351.6149999923073,"Accuracy":0,"Outcome":"+1","Keys":[2852.4749999924097],"TotalKeys":1,"Block":1,"Trial":88,"Robot":2,"Valence":"Win","Action":"No-Go","Sham":0,"Color":"blue","trial_type":"pit-trial","trial_index":108,"time_elapsed":671866,"internal_node_id":"0.0-97.0","task_version":"test-retest"},{"Rune":"rune_02_cen","Hex":"#3366ff99","Correct":32,"Choice":32,"RT":555.8599999931175,"Accuracy":1,"Outcome":"+10","Keys":[2057.4849999975413],"TotalKeys":1,"Block":1,"Trial":89,"Robot":1,"Valence":"Win","Action":"Go","Sham":0,"Color":"blue","trial_type":"pit-trial","trial_index":109,"time_elapsed":674938,"internal_node_id":"0.0-98.0","task_version":"test-retest"},{"Rune":"rune_02_os","Hex":"#3366ff99","Correct":-1,"Choice":-1,"RT":-1,"Accuracy":1,"Outcome":"+1","Keys":[],"TotalKeys":0,"Block":1,"Trial":90,"Robot":2,"Valence":"Win","Action":"No-Go","Sham":1,"Color":"blue","trial_type":"pit-trial","trial_index":110,"time_elapsed":678951,"internal_node_id":"0.0-99.0","task_version":"test-retest"},{"Rune":"rune_02_haglaz","Hex":"#ffcc3399","Correct":-1,"Choice":-1,"RT":-1,"Accuracy":1,"Outcome":"-1","Keys":[],"TotalKeys":0,"Block":1,"Trial":91,"Robot":4,"Valence":"Lose","Action":"No-Go","Sham":0,"Color":"yellow","trial_type":"pit-trial","trial_index":111,"time_elapsed":682959,"internal_node_id":"0.0-100.0","task_version":"test-retest"},{"Rune":"rune_02_raido","Hex":"#ffcc3399","Correct":32,"Choice":32,"RT":689.4050000119023,"Accuracy":1,"Outcome":"-1","Keys":[2189.780000015162],"TotalKeys":1,"Block":1,"Trial":92,"Robot":3,"Valence":"Lose","Action":"Go","Sham":0,"Color":"yellow","trial_type":"pit-trial","trial_index":112,"time_elapsed":686159,"internal_node_id":"0.0-101.0","task_version":"test-retest"},{"Rune":"rune_02_raido","Hex":"#ffcc3399","Correct":32,"Choice":32,"RT":1303.2599999860395,"Accuracy":1,"Outcome":"-1","Keys":[2803.5800000070594],"TotalKeys":1,"Block":1,"Trial":93,"Robot":3,"Valence":"Lose","Action":"Go","Sham":0,"Color":"yellow","trial_type":"pit-trial","trial_index":113,"time_elapsed":689972,"internal_node_id":"0.0-102.0","task_version":"test-retest"},{"Rune":"rune_02_haglaz","Hex":"#ffcc3399","Correct":-1,"Choice":-1,"RT":-1,"Accuracy":1,"Outcome":"-10","Keys":[],"TotalKeys":0,"Block":1,"Trial":94,"Robot":4,"Valence":"Lose","Action":"No-Go","Sham":1,"Color":"yellow","trial_type":"pit-trial","trial_index":114,"time_elapsed":693983,"internal_node_id":"0.0-103.0","task_version":"test-retest"},{"Rune":"rune_02_cen","Hex":"#3366ff99","Correct":32,"Choice":32,"RT":424.9650000128895,"Accuracy":1,"Outcome":"+1","Keys":[1924.9499999859836],"TotalKeys":1,"Block":1,"Trial":95,"Robot":1,"Valence":"Win","Action":"Go","Sham":1,"Color":"blue","trial_type":"pit-trial","trial_index":115,"time_elapsed":696920,"internal_node_id":"0.0-104.0","task_version":"test-retest"},{"Rune":"rune_02_os","Hex":"#3366ff99","Correct":-1,"Choice":-1,"RT":-1,"Accuracy":1,"Outcome":"+10","Keys":[],"TotalKeys":0,"Block":1,"Trial":96,"Robot":2,"Valence":"Win","Action":"No-Go","Sham":0,"Color":"blue","trial_type":"pit-trial","trial_index":116,"time_elapsed":700932,"internal_node_id":"0.0-105.0","task_version":"test-retest"},{"Rune":"rune_02_raido","Hex":"#ffcc3399","Correct":32,"Choice":32,"RT":521.8049999966752,"Accuracy":1,"Outcome":"-1","Keys":[2025.6100000115111],"TotalKeys":1,"Block":1,"Trial":97,"Robot":3,"Valence":"Lose","Action":"Go","Sham":0,"Color":"yellow","trial_type":"pit-trial","trial_index":117,"time_elapsed":703965,"internal_node_id":"0.0-106.0","task_version":"test-retest"},{"Rune":"rune_02_haglaz","Hex":"#ffcc3399","Correct":-1,"Choice":-1,"RT":-1,"Accuracy":1,"Outcome":"-1","Keys":[],"TotalKeys":0,"Block":1,"Trial":98,"Robot":4,"Valence":"Lose","Action":"No-Go","Sham":0,"Color":"yellow","trial_type":"pit-trial","trial_index":118,"time_elapsed":707976,"internal_node_id":"0.0-107.0","task_version":"test-retest"},{"Rune":"rune_02_os","Hex":"#3366ff99","Correct":-1,"Choice":-1,"RT":-1,"Accuracy":1,"Outcome":"+10","Keys":[],"TotalKeys":0,"Block":1,"Trial":99,"Robot":2,"Valence":"Win","Action":"No-Go","Sham":0,"Color":"blue","trial_type":"pit-trial","trial_index":119,"time_elapsed":711986,"internal_node_id":"0.0-108.0","task_version":"test-retest"},{"Rune":"rune_02_cen","Hex":"#3366ff99","Correct":32,"Choice":32,"RT":548.4200000064448,"Accuracy":1,"Outcome":"+10","Keys":[2049.200000008568],"TotalKeys":1,"Block":1,"Trial":100,"Robot":1,"Valence":"Win","Action":"Go","Sham":0,"Color":"blue","trial_type":"pit-trial","trial_index":120,"time_elapsed":715045,"internal_node_id":"0.0-109.0","task_version":"test-retest"},{"Rune":"rune_02_raido","Hex":"#ffcc3399","Correct":32,"Choice":32,"RT":830.1750000100583,"Accuracy":1,"Outcome":"-1","Keys":[2332.4650000140537],"TotalKeys":1,"Block":1,"Trial":101,"Robot":3,"Valence":"Lose","Action":"Go","Sham":0,"Color":"yellow","trial_type":"pit-trial","trial_index":121,"time_elapsed":718387,"internal_node_id":"0.0-110.0","task_version":"test-retest"},{"Rune":"rune_02_os","Hex":"#3366ff99","Correct":-1,"Choice":-1,"RT":-1,"Accuracy":1,"Outcome":"+10","Keys":[],"TotalKeys":0,"Block":1,"Trial":102,"Robot":2,"Valence":"Win","Action":"No-Go","Sham":0,"Color":"blue","trial_type":"pit-trial","trial_index":122,"time_elapsed":722397,"internal_node_id":"0.0-111.0","task_version":"test-retest"},{"Rune":"rune_02_cen","Hex":"#3366ff99","Correct":32,"Choice":32,"RT":452.52000002074055,"Accuracy":1,"Outcome":"+1","Keys":[1952.6149999874178],"TotalKeys":1,"Block":1,"Trial":103,"Robot":1,"Valence":"Win","Action":"Go","Sham":1,"Color":"blue","trial_type":"pit-trial","trial_index":123,"time_elapsed":725360,"internal_node_id":"0.0-112.0","task_version":"test-retest"},{"Rune":"rune_02_haglaz","Hex":"#ffcc3399","Correct":-1,"Choice":-1,"RT":-1,"Accuracy":1,"Outcome":"-1","Keys":[],"TotalKeys":0,"Block":1,"Trial":104,"Robot":4,"Valence":"Lose","Action":"No-Go","Sham":0,"Color":"yellow","trial_type":"pit-trial","trial_index":124,"time_elapsed":729378,"internal_node_id":"0.0-113.0","task_version":"test-retest"},{"Rune":"rune_02_os","Hex":"#3366ff99","Correct":-1,"Choice":-1,"RT":-1,"Accuracy":1,"Outcome":"+10","Keys":[],"TotalKeys":0,"Block":1,"Trial":105,"Robot":2,"Valence":"Win","Action":"No-Go","Sham":0,"Color":"blue","trial_type":"pit-trial","trial_index":125,"time_elapsed":733391,"internal_node_id":"0.0-114.0","task_version":"test-retest"},{"Rune":"rune_02_raido","Hex":"#ffcc3399","Correct":32,"Choice":32,"RT":617.5050000019837,"Accuracy":1,"Outcome":"-1","Keys":[2118.5849999892525],"TotalKeys":1,"Block":1,"Trial":106,"Robot":3,"Valence":"Lose","Action":"Go","Sham":0,"Color":"yellow","trial_type":"pit-trial","trial_index":126,"time_elapsed":736519,"internal_node_id":"0.0-115.0","task_version":"test-retest"},{"Rune":"rune_02_haglaz","Hex":"#ffcc3399","Correct":-1,"Choice":-1,"RT":-1,"Accuracy":1,"Outcome":"-1","Keys":[],"TotalKeys":0,"Block":1,"Trial":107,"Robot":4,"Valence":"Lose","Action":"No-Go","Sham":0,"Color":"yellow","trial_type":"pit-trial","trial_index":127,"time_elapsed":740530,"internal_node_id":"0.0-116.0","task_version":"test-retest"},{"Rune":"rune_02_cen","Hex":"#3366ff99","Correct":32,"Choice":32,"RT":542.2850000031758,"Accuracy":1,"Outcome":"+10","Keys":[2043.5649999999441],"TotalKeys":1,"Block":1,"Trial":108,"Robot":1,"Valence":"Win","Action":"Go","Sham":0,"Color":"blue","trial_type":"pit-trial","trial_index":128,"time_elapsed":743585,"internal_node_id":"0.0-117.0","task_version":"test-retest"},{"Rune":"rune_02_haglaz","Hex":"#ffcc3399","Correct":-1,"Choice":-1,"RT":-1,"Accuracy":1,"Outcome":"-1","Keys":[],"TotalKeys":0,"Block":1,"Trial":109,"Robot":4,"Valence":"Lose","Action":"No-Go","Sham":0,"Color":"yellow","trial_type":"pit-trial","trial_index":129,"time_elapsed":747597,"internal_node_id":"0.0-118.0","task_version":"test-retest"},{"Rune":"rune_02_cen","Hex":"#3366ff99","Correct":32,"Choice":32,"RT":479.92499999236315,"Accuracy":1,"Outcome":"+10","Keys":[1980.8800000173505],"TotalKeys":1,"Block":1,"Trial":110,"Robot":1,"Valence":"Win","Action":"Go","Sham":0,"Color":"blue","trial_type":"pit-trial","trial_index":130,"time_elapsed":750588,"internal_node_id":"0.0-119.0","task_version":"test-retest"},{"Rune":"rune_02_raido","Hex":"#ffcc3399","Correct":32,"Choice":32,"RT":605.3599999868311,"Accuracy":1,"Outcome":"-10","Keys":[2106.1850000114646],"TotalKeys":1,"Block":1,"Trial":111,"Robot":3,"Valence":"Lose","Action":"Go","Sham":1,"Color":"yellow","trial_type":"pit-trial","trial_index":131,"time_elapsed":753702,"internal_node_id":"0.0-120.0","task_version":"test-retest"},{"Rune":"rune_02_os","Hex":"#3366ff99","Correct":-1,"Choice":-1,"RT":-1,"Accuracy":1,"Outcome":"+10","Keys":[],"TotalKeys":0,"Block":1,"Trial":112,"Robot":2,"Valence":"Win","Action":"No-Go","Sham":0,"Color":"blue","trial_type":"pit-trial","trial_index":132,"time_elapsed":757707,"internal_node_id":"0.0-121.0","task_version":"test-retest"},{"Rune":"rune_02_cen","Hex":"#3366ff99","Correct":32,"Choice":32,"RT":490.25499998242594,"Accuracy":1,"Outcome":"+10","Keys":[1991.1549999960698],"TotalKeys":1,"Block":1,"Trial":113,"Robot":1,"Valence":"Win","Action":"Go","Sham":0,"Color":"blue","trial_type":"pit-trial","trial_index":133,"time_elapsed":760703,"internal_node_id":"0.0-122.0","task_version":"test-retest"},{"Rune":"rune_02_os","Hex":"#3366ff99","Correct":-1,"Choice":-1,"RT":-1,"Accuracy":1,"Outcome":"+1","Keys":[],"TotalKeys":0,"Block":1,"Trial":114,"Robot":2,"Valence":"Win","Action":"No-Go","Sham":1,"Color":"blue","trial_type":"pit-trial","trial_index":134,"time_elapsed":764710,"internal_node_id":"0.0-123.0","task_version":"test-retest"},{"Rune":"rune_02_haglaz","Hex":"#ffcc3399","Correct":-1,"Choice":-1,"RT":-1,"Accuracy":1,"Outcome":"-10","Keys":[],"TotalKeys":0,"Block":1,"Trial":115,"Robot":4,"Valence":"Lose","Action":"No-Go","Sham":1,"Color":"yellow","trial_type":"pit-trial","trial_index":135,"time_elapsed":768717,"internal_node_id":"0.0-124.0","task_version":"test-retest"},{"Rune":"rune_02_raido","Hex":"#ffcc3399","Correct":32,"Choice":32,"RT":477.92499998467974,"Accuracy":1,"Outcome":"-1","Keys":[1978.270000021439],"TotalKeys":1,"Block":1,"Trial":116,"Robot":3,"Valence":"Lose","Action":"Go","Sham":0,"Color":"yellow","trial_type":"pit-trial","trial_index":136,"time_elapsed":771701,"internal_node_id":"0.0-125.0","task_version":"test-retest"},{"Rune":"rune_02_os","Hex":"#3366ff99","Correct":-1,"Choice":-1,"RT":-1,"Accuracy":1,"Outcome":"+10","Keys":[],"TotalKeys":0,"Block":1,"Trial":117,"Robot":2,"Valence":"Win","Action":"No-Go","Sham":0,"Color":"blue","trial_type":"pit-trial","trial_index":137,"time_elapsed":775709,"internal_node_id":"0.0-126.0","task_version":"test-retest"},{"Rune":"rune_02_haglaz","Hex":"#ffcc3399","Correct":-1,"Choice":-1,"RT":-1,"Accuracy":1,"Outcome":"-1","Keys":[],"TotalKeys":0,"Block":1,"Trial":118,"Robot":4,"Valence":"Lose","Action":"No-Go","Sham":0,"Color":"yellow","trial_type":"pit-trial","trial_index":138,"time_elapsed":779718,"internal_node_id":"0.0-127.0","task_version":"test-retest"},{"Rune":"rune_02_cen","Hex":"#3366ff99","Correct":32,"Choice":32,"RT":496.08000001171604,"Accuracy":1,"Outcome":"+10","Keys":[1996.499999979278],"TotalKeys":1,"Block":1,"Trial":119,"Robot":1,"Valence":"Win","Action":"Go","Sham":0,"Color":"blue","trial_type":"pit-trial","trial_index":139,"time_elapsed":782720,"internal_node_id":"0.0-128.0","task_version":"test-retest"},{"Rune":"rune_02_raido","Hex":"#ffcc3399","Correct":32,"Choice":32,"RT":476.2150000024121,"Accuracy":1,"Outcome":"-1","Keys":[1976.4949999807868],"TotalKeys":1,"Block":1,"Trial":120,"Robot":3,"Valence":"Lose","Action":"Go","Sham":0,"Color":"yellow","trial_type":"pit-trial","trial_index":140,"time_elapsed":785703,"internal_node_id":"0.0-129.0","task_version":"test-retest"},{"view_history":"[{\"page_index\":0,\"viewing_time\":4928.369999979623},{\"page_index\":1,\"viewing_time\":4083.600000012666},{\"page_index\":2,\"viewing_time\":15922.044999984792}]","rt":24934.769999992568,"trial_type":"pit-instructions","trial_index":141,"time_elapsed":810644,"internal_node_id":"0.0-130.0","task_version":"test-retest"},{"Rune":"rune_01_yr","Hex":"#3366ff99","Correct":32,"Choice":-1,"RT":-1,"Accuracy":0,"Outcome":"+1","Keys":[],"TotalKeys":0,"Block":2,"Trial":121,"Robot":1,"Valence":"Win","Action":"Go","Sham":0,"Color":"blue","trial_type":"pit-trial","trial_index":142,"time_elapsed":814655,"internal_node_id":"0.0-131.0","task_version":"test-retest"},{"Rune":"rune_01_ear","Hex":"#ffcc3399","Correct":-1,"Choice":-1,"RT":-1,"Accuracy":1,"Outcome":"-10","Keys":[],"TotalKeys":0,"Block":2,"Trial":122,"Robot":4,"Valence":"Lose","Action":"No-Go","Sham":1,"Color":"yellow","trial_type":"pit-trial","trial_index":143,"time_elapsed":818665,"internal_node_id":"0.0-132.0","task_version":"test-retest"},{"Rune":"rune_01_ingwaz","Hex":"#3366ff99","Correct":-1,"Choice":-1,"RT":-1,"Accuracy":1,"Outcome":"+10","Keys":[],"TotalKeys":0,"Block":2,"Trial":123,"Robot":2,"Valence":"Win","Action":"No-Go","Sham":0,"Color":"blue","trial_type":"pit-trial","trial_index":144,"time_elapsed":822676,"internal_node_id":"0.0-133.0","task_version":"test-retest"},{"Rune":"rune_01_ger","Hex":"#ffcc3399","Correct":32,"Choice":-1,"RT":-1,"Accuracy":0,"Outcome":"-10","Keys":[],"TotalKeys":0,"Block":2,"Trial":124,"Robot":3,"Valence":"Lose","Action":"Go","Sham":0,"Color":"yellow","trial_type":"pit-trial","trial_index":145,"time_elapsed":826695,"internal_node_id":"0.0-134.0","task_version":"test-retest"},{"Rune":"rune_01_ger","Hex":"#ffcc3399","Correct":32,"Choice":-1,"RT":-1,"Accuracy":0,"Outcome":"-10","Keys":[],"TotalKeys":0,"Block":2,"Trial":125,"Robot":3,"Valence":"Lose","Action":"Go","Sham":0,"Color":"yellow","trial_type":"pit-trial","trial_index":146,"time_elapsed":830710,"internal_node_id":"0.0-135.0","task_version":"test-retest"},{"Rune":"rune_01_ear","Hex":"#ffcc3399","Correct":-1,"Choice":32,"RT":932.4199999973644,"Accuracy":0,"Outcome":"-10","Keys":[2432.9999999899883],"TotalKeys":1,"Block":2,"Trial":126,"Robot":4,"Valence":"Lose","Action":"No-Go","Sham":0,"Color":"yellow","trial_type":"pit-trial","trial_index":147,"time_elapsed":834150,"internal_node_id":"0.0-136.0","task_version":"test-retest"},{"Rune":"rune_01_yr","Hex":"#3366ff99","Correct":32,"Choice":32,"RT":602.565000008326,"Accuracy":1,"Outcome":"+1","Keys":[2102.7999999932945],"TotalKeys":1,"Block":2,"Trial":127,"Robot":1,"Valence":"Win","Action":"Go","Sham":1,"Color":"blue","trial_type":"pit-trial","trial_index":148,"time_elapsed":837263,"internal_node_id":"0.0-137.0","task_version":"test-retest"},{"Rune":"rune_01_ingwaz","Hex":"#3366ff99","Correct":-1,"Choice":-1,"RT":-1,"Accuracy":1,"Outcome":"+1","Keys":[],"TotalKeys":0,"Block":2,"Trial":128,"Robot":2,"Valence":"Win","Action":"No-Go","Sham":1,"Color":"blue","trial_type":"pit-trial","trial_index":149,"time_elapsed":841275,"internal_node_id":"0.0-138.0","task_version":"test-retest"},{"Rune":"rune_01_yr","Hex":"#3366ff99","Correct":32,"Choice":32,"RT":685.4349999921396,"Accuracy":1,"Outcome":"+10","Keys":[2186.3550000125542],"TotalKeys":1,"Block":2,"Trial":129,"Robot":1,"Valence":"Win","Action":"Go","Sham":0,"Color":"blue","trial_type":"pit-trial","trial_index":150,"time_elapsed":844471,"internal_node_id":"0.0-139.0","task_version":"test-retest"},{"Rune":"rune_01_ear","Hex":"#ffcc3399","Correct":-1,"Choice":32,"RT":701.7749999940861,"Accuracy":0,"Outcome":"-10","Keys":[2202.720000001136],"TotalKeys":1,"Block":2,"Trial":130,"Robot":4,"Valence":"Lose","Action":"No-Go","Sham":0,"Color":"yellow","trial_type":"pit-trial","trial_index":151,"time_elapsed":847684,"internal_node_id":"0.0-140.0","task_version":"test-retest"},{"Rune":"rune_01_ingwaz","Hex":"#3366ff99","Correct":-1,"Choice":-1,"RT":-1,"Accuracy":1,"Outcome":"+10","Keys":[],"TotalKeys":0,"Block":2,"Trial":131,"Robot":2,"Valence":"Win","Action":"No-Go","Sham":0,"Color":"blue","trial_type":"pit-trial","trial_index":152,"time_elapsed":851696,"internal_node_id":"0.0-141.0","task_version":"test-retest"},{"Rune":"rune_01_ger","Hex":"#ffcc3399","Correct":32,"Choice":32,"RT":904.4099999882746,"Accuracy":1,"Outcome":"-1","Keys":[2404.58000000217],"TotalKeys":1,"Block":2,"Trial":132,"Robot":3,"Valence":"Lose","Action":"Go","Sham":0,"Color":"yellow","trial_type":"pit-trial","trial_index":153,"time_elapsed":855110,"internal_node_id":"0.0-142.0","task_version":"test-retest"},{"Rune":"rune_01_ear","Hex":"#ffcc3399","Correct":-1,"Choice":32,"RT":577.4899999960326,"Accuracy":0,"Outcome":"-10","Keys":[2078.3700000029057],"TotalKeys":1,"Block":2,"Trial":133,"Robot":4,"Valence":"Lose","Action":"No-Go","Sham":0,"Color":"yellow","trial_type":"pit-trial","trial_index":154,"time_elapsed":858199,"internal_node_id":"0.0-143.0","task_version":"test-retest"},{"Rune":"rune_01_ingwaz","Hex":"#3366ff99","Correct":-1,"Choice":-1,"RT":-1,"Accuracy":1,"Outcome":"+10","Keys":[],"TotalKeys":0,"Block":2,"Trial":134,"Robot":2,"Valence":"Win","Action":"No-Go","Sham":0,"Color":"blue","trial_type":"pit-trial","trial_index":155,"time_elapsed":862210,"internal_node_id":"0.0-144.0","task_version":"test-retest"},{"Rune":"rune_01_yr","Hex":"#3366ff99","Correct":32,"Choice":32,"RT":550.3350000071805,"Accuracy":1,"Outcome":"+10","Keys":[2051.065000006929],"TotalKeys":1,"Block":2,"Trial":135,"Robot":1,"Valence":"Win","Action":"Go","Sham":0,"Color":"blue","trial_type":"pit-trial","trial_index":156,"time_elapsed":865272,"internal_node_id":"0.0-145.0","task_version":"test-retest"},{"Rune":"rune_01_ger","Hex":"#ffcc3399","Correct":32,"Choice":32,"RT":390.1250000053551,"Accuracy":1,"Outcome":"-10","Keys":[1891.444999986561],"TotalKeys":1,"Block":2,"Trial":136,"Robot":3,"Valence":"Lose","Action":"Go","Sham":1,"Color":"yellow","trial_type":"pit-trial","trial_index":157,"time_elapsed":868174,"internal_node_id":"0.0-146.0","task_version":"test-retest"},{"Rune":"rune_01_ingwaz","Hex":"#3366ff99","Correct":-1,"Choice":-1,"RT":-1,"Accuracy":1,"Outcome":"+10","Keys":[],"TotalKeys":0,"Block":2,"Trial":137,"Robot":2,"Valence":"Win","Action":"No-Go","Sham":0,"Color":"blue","trial_type":"pit-trial","trial_index":158,"time_elapsed":872187,"internal_node_id":"0.0-147.0","task_version":"test-retest"},{"Rune":"rune_01_ear","Hex":"#ffcc3399","Correct":-1,"Choice":32,"RT":1071.799999976065,"Accuracy":0,"Outcome":"-10","Keys":[2572.9799999971874],"TotalKeys":1,"Block":2,"Trial":138,"Robot":4,"Valence":"Lose","Action":"No-Go","Sham":0,"Color":"yellow","trial_type":"pit-trial","trial_index":159,"time_elapsed":875776,"internal_node_id":"0.0-148.0","task_version":"test-retest"},{"Rune":"rune_01_yr","Hex":"#3366ff99","Correct":32,"Choice":32,"RT":524.7350000136066,"Accuracy":1,"Outcome":"+10","Keys":[2024.810000002617],"TotalKeys":1,"Block":2,"Trial":139,"Robot":1,"Valence":"Win","Action":"Go","Sham":0,"Color":"blue","trial_type":"pit-trial","trial_index":160,"time_elapsed":878809,"internal_node_id":"0.0-149.0","task_version":"test-retest"},{"Rune":"rune_01_ger","Hex":"#ffcc3399","Correct":32,"Choice":32,"RT":590.234999981476,"Accuracy":1,"Outcome":"-1","Keys":[2091.9250000151806],"TotalKeys":1,"Block":2,"Trial":140,"Robot":3,"Valence":"Lose","Action":"Go","Sham":0,"Color":"yellow","trial_type":"pit-trial","trial_index":161,"time_elapsed":881911,"internal_node_id":"0.0-150.0","task_version":"test-retest"},{"Rune":"rune_01_ingwaz","Hex":"#3366ff99","Correct":-1,"Choice":-1,"RT":-1,"Accuracy":1,"Outcome":"+1","Keys":[],"TotalKeys":0,"Block":2,"Trial":141,"Robot":2,"Valence":"Win","Action":"No-Go","Sham":1,"Color":"blue","trial_type":"pit-trial","trial_index":162,"time_elapsed":885920,"internal_node_id":"0.0-151.0","task_version":"test-retest"},{"Rune":"rune_01_ger","Hex":"#ffcc3399","Correct":32,"Choice":-1,"RT":-1,"Accuracy":0,"Outcome":"-10","Keys":[3161.9300000020303],"TotalKeys":1,"Block":2,"Trial":142,"Robot":3,"Valence":"Lose","Action":"Go","Sham":0,"Color":"yellow","trial_type":"pit-trial","trial_index":163,"time_elapsed":889931,"internal_node_id":"0.0-152.0","task_version":"test-retest"},{"Rune":"rune_01_yr","Hex":"#3366ff99","Correct":32,"Choice":32,"RT":610.2350000001024,"Accuracy":1,"Outcome":"+10","Keys":[2110.3500000026543],"TotalKeys":1,"Block":2,"Trial":143,"Robot":1,"Valence":"Win","Action":"Go","Sham":0,"Color":"blue","trial_type":"pit-trial","trial_index":164,"time_elapsed":893052,"internal_node_id":"0.0-153.0","task_version":"test-retest"},{"Rune":"rune_01_ear","Hex":"#ffcc3399","Correct":-1,"Choice":32,"RT":652.1599999978207,"Accuracy":0,"Outcome":"-10","Keys":[2152.299999987008],"TotalKeys":1,"Block":2,"Trial":144,"Robot":4,"Valence":"Lose","Action":"No-Go","Sham":0,"Color":"yellow","trial_type":"pit-trial","trial_index":165,"time_elapsed":896213,"internal_node_id":"0.0-154.0","task_version":"test-retest"},{"Rune":"rune_01_ear","Hex":"#ffcc3399","Correct":-1,"Choice":-1,"RT":-1,"Accuracy":1,"Outcome":"-10","Keys":[],"TotalKeys":0,"Block":2,"Trial":145,"Robot":4,"Valence":"Lose","Action":"No-Go","Sham":1,"Color":"yellow","trial_type":"pit-trial","trial_index":166,"time_elapsed":900225,"internal_node_id":"0.0-155.0","task_version":"test-retest"},{"Rune":"rune_01_yr","Hex":"#3366ff99","Correct":32,"Choice":32,"RT":539.5600000047125,"Accuracy":1,"Outcome":"+10","Keys":[2040.8150000148453],"TotalKeys":1,"Block":2,"Trial":146,"Robot":1,"Valence":"Win","Action":"Go","Sham":0,"Color":"blue","trial_type":"pit-trial","trial_index":167,"time_elapsed":903275,"internal_node_id":"0.0-156.0","task_version":"test-retest"},{"Rune":"rune_01_ger","Hex":"#ffcc3399","Correct":32,"Choice":32,"RT":870.1900000160094,"Accuracy":1,"Outcome":"-1","Keys":[2372.074999992037],"TotalKeys":1,"Block":2,"Trial":147,"Robot":3,"Valence":"Lose","Action":"Go","Sham":0,"Color":"yellow","trial_type":"pit-trial","trial_index":168,"time_elapsed":906654,"internal_node_id":"0.0-157.0","task_version":"test-retest"},{"Rune":"rune_01_ingwaz","Hex":"#3366ff99","Correct":-1,"Choice":-1,"RT":-1,"Accuracy":1,"Outcome":"+10","Keys":[],"TotalKeys":0,"Block":2,"Trial":148,"Robot":2,"Valence":"Win","Action":"No-Go","Sham":0,"Color":"blue","trial_type":"pit-trial","trial_index":169,"time_elapsed":910660,"internal_node_id":"0.0-158.0","task_version":"test-retest"},{"Rune":"rune_01_ear","Hex":"#ffcc3399","Correct":-1,"Choice":-1,"RT":-1,"Accuracy":1,"Outcome":"-1","Keys":[],"TotalKeys":0,"Block":2,"Trial":149,"Robot":4,"Valence":"Lose","Action":"No-Go","Sham":0,"Color":"yellow","trial_type":"pit-trial","trial_index":170,"time_elapsed":914672,"internal_node_id":"0.0-159.0","task_version":"test-retest"},{"Rune":"rune_01_yr","Hex":"#3366ff99","Correct":32,"Choice":32,"RT":745.1900000160094,"Accuracy":1,"Outcome":"+10","Keys":[2248.7250000122003],"TotalKeys":1,"Block":2,"Trial":150,"Robot":1,"Valence":"Win","Action":"Go","Sham":0,"Color":"blue","trial_type":"pit-trial","trial_index":171,"time_elapsed":917931,"internal_node_id":"0.0-160.0","task_version":"test-retest"},{"Rune":"rune_01_ger","Hex":"#ffcc3399","Correct":32,"Choice":32,"RT":1332.3050000180956,"Accuracy":1,"Outcome":"-10","Keys":[2833.245000016177],"TotalKeys":1,"Block":2,"Trial":151,"Robot":3,"Valence":"Lose","Action":"Go","Sham":1,"Color":"yellow","trial_type":"pit-trial","trial_index":172,"time_elapsed":921773,"internal_node_id":"0.0-161.0","task_version":"test-retest"},{"Rune":"rune_01_ingwaz","Hex":"#3366ff99","Correct":-1,"Choice":-1,"RT":-1,"Accuracy":1,"Outcome":"+10","Keys":[],"TotalKeys":0,"Block":2,"Trial":152,"Robot":2,"Valence":"Win","Action":"No-Go","Sham":0,"Color":"blue","trial_type":"pit-trial","trial_index":173,"time_elapsed":925779,"internal_node_id":"0.0-162.0","task_version":"test-retest"},{"Rune":"rune_01_ear","Hex":"#ffcc3399","Correct":-1,"Choice":-1,"RT":-1,"Accuracy":1,"Outcome":"-1","Keys":[],"TotalKeys":0,"Block":2,"Trial":153,"Robot":4,"Valence":"Lose","Action":"No-Go","Sham":0,"Color":"yellow","trial_type":"pit-trial","trial_index":174,"time_elapsed":929789,"internal_node_id":"0.0-163.0","task_version":"test-retest"},{"Rune":"rune_01_ingwaz","Hex":"#3366ff99","Correct":-1,"Choice":-1,"RT":-1,"Accuracy":1,"Outcome":"+10","Keys":[],"TotalKeys":0,"Block":2,"Trial":154,"Robot":2,"Valence":"Win","Action":"No-Go","Sham":0,"Color":"blue","trial_type":"pit-trial","trial_index":175,"time_elapsed":933795,"internal_node_id":"0.0-164.0","task_version":"test-retest"},{"Rune":"rune_01_yr","Hex":"#3366ff99","Correct":32,"Choice":32,"RT":643.4299999964423,"Accuracy":1,"Outcome":"+1","Keys":[2143.9249999821186],"TotalKeys":1,"Block":2,"Trial":155,"Robot":1,"Valence":"Win","Action":"Go","Sham":1,"Color":"blue","trial_type":"pit-trial","trial_index":176,"time_elapsed":936950,"internal_node_id":"0.0-165.0","task_version":"test-retest"},{"Rune":"rune_01_ger","Hex":"#ffcc3399","Correct":32,"Choice":32,"RT":866.455000010319,"Accuracy":1,"Outcome":"-1","Keys":[2367.0949999941513],"TotalKeys":1,"Block":2,"Trial":156,"Robot":3,"Valence":"Lose","Action":"Go","Sham":0,"Color":"yellow","trial_type":"pit-trial","trial_index":177,"time_elapsed":940325,"internal_node_id":"0.0-166.0","task_version":"test-retest"},{"Rune":"rune_01_yr","Hex":"#3366ff99","Correct":32,"Choice":32,"RT":539.9800000013784,"Accuracy":1,"Outcome":"+10","Keys":[2038.300000014715],"TotalKeys":1,"Block":2,"Trial":157,"Robot":1,"Valence":"Win","Action":"Go","Sham":0,"Color":"blue","trial_type":"pit-trial","trial_index":178,"time_elapsed":943386,"internal_node_id":"0.0-167.0","task_version":"test-retest"},{"Rune":"rune_01_ear","Hex":"#ffcc3399","Correct":-1,"Choice":-1,"RT":-1,"Accuracy":1,"Outcome":"-1","Keys":[],"TotalKeys":0,"Block":2,"Trial":158,"Robot":4,"Valence":"Lose","Action":"No-Go","Sham":0,"Color":"yellow","trial_type":"pit-trial","trial_index":179,"time_elapsed":947394,"internal_node_id":"0.0-168.0","task_version":"test-retest"},{"Rune":"rune_01_ger","Hex":"#ffcc3399","Correct":32,"Choice":32,"RT":753.2699999865144,"Accuracy":1,"Outcome":"-1","Keys":[2254.38500000746],"TotalKeys":1,"Block":2,"Trial":159,"Robot":3,"Valence":"Lose","Action":"Go","Sham":0,"Color":"yellow","trial_type":"pit-trial","trial_index":180,"time_elapsed":950659,"internal_node_id":"0.0-169.0","task_version":"test-retest"},{"Rune":"rune_01_ingwaz","Hex":"#3366ff99","Correct":-1,"Choice":-1,"RT":-1,"Accuracy":1,"Outcome":"+10","Keys":[],"TotalKeys":0,"Block":2,"Trial":160,"Robot":2,"Valence":"Win","Action":"No-Go","Sham":0,"Color":"blue","trial_type":"pit-trial","trial_index":181,"time_elapsed":954668,"internal_node_id":"0.0-170.0","task_version":"test-retest"},{"Rune":"rune_01_yr","Hex":"#3366ff99","Correct":32,"Choice":32,"RT":667.8050000045914,"Accuracy":1,"Outcome":"+10","Keys":[2168.1050000188407],"TotalKeys":1,"Block":2,"Trial":161,"Robot":1,"Valence":"Win","Action":"Go","Sham":0,"Color":"blue","trial_type":"pit-trial","trial_index":182,"time_elapsed":957842,"internal_node_id":"0.0-171.0","task_version":"test-retest"},{"Rune":"rune_01_ear","Hex":"#ffcc3399","Correct":-1,"Choice":-1,"RT":-1,"Accuracy":1,"Outcome":"-1","Keys":[],"TotalKeys":0,"Block":2,"Trial":162,"Robot":4,"Valence":"Lose","Action":"No-Go","Sham":0,"Color":"yellow","trial_type":"pit-trial","trial_index":183,"time_elapsed":961848,"internal_node_id":"0.0-172.0","task_version":"test-retest"},{"Rune":"rune_01_ger","Hex":"#ffcc3399","Correct":32,"Choice":32,"RT":524.5350000041071,"Accuracy":1,"Outcome":"-1","Keys":[2025.309999997262],"TotalKeys":1,"Block":2,"Trial":163,"Robot":3,"Valence":"Lose","Action":"Go","Sham":0,"Color":"yellow","trial_type":"pit-trial","trial_index":184,"time_elapsed":964884,"internal_node_id":"0.0-173.0","task_version":"test-retest"},{"Rune":"rune_01_ingwaz","Hex":"#3366ff99","Correct":-1,"Choice":-1,"RT":-1,"Accuracy":1,"Outcome":"+10","Keys":[],"TotalKeys":0,"Block":2,"Trial":164,"Robot":2,"Valence":"Win","Action":"No-Go","Sham":0,"Color":"blue","trial_type":"pit-trial","trial_index":185,"time_elapsed":968893,"internal_node_id":"0.0-174.0","task_version":"test-retest"},{"Rune":"rune_01_yr","Hex":"#3366ff99","Correct":32,"Choice":32,"RT":490.64000000362284,"Accuracy":1,"Outcome":"+10","Keys":[1991.2400000030175],"TotalKeys":1,"Block":2,"Trial":165,"Robot":1,"Valence":"Win","Action":"Go","Sham":0,"Color":"blue","trial_type":"pit-trial","trial_index":186,"time_elapsed":971894,"internal_node_id":"0.0-175.0","task_version":"test-retest"},{"Rune":"rune_01_ingwaz","Hex":"#3366ff99","Correct":-1,"Choice":-1,"RT":-1,"Accuracy":1,"Outcome":"+1","Keys":[],"TotalKeys":0,"Block":2,"Trial":166,"Robot":2,"Valence":"Win","Action":"No-Go","Sham":1,"Color":"blue","trial_type":"pit-trial","trial_index":187,"time_elapsed":975904,"internal_node_id":"0.0-176.0","task_version":"test-retest"},{"Rune":"rune_01_ger","Hex":"#ffcc3399","Correct":32,"Choice":32,"RT":641.2399999971967,"Accuracy":1,"Outcome":"-10","Keys":[2142.3500000091735],"TotalKeys":1,"Block":2,"Trial":167,"Robot":3,"Valence":"Lose","Action":"Go","Sham":1,"Color":"yellow","trial_type":"pit-trial","trial_index":188,"time_elapsed":979061,"internal_node_id":"0.0-177.0","task_version":"test-retest"},{"Rune":"rune_01_ear","Hex":"#ffcc3399","Correct":-1,"Choice":-1,"RT":-1,"Accuracy":1,"Outcome":"-1","Keys":[],"TotalKeys":0,"Block":2,"Trial":168,"Robot":4,"Valence":"Lose","Action":"No-Go","Sham":0,"Color":"yellow","trial_type":"pit-trial","trial_index":189,"time_elapsed":983069,"internal_node_id":"0.0-178.0","task_version":"test-retest"},{"Rune":"rune_01_ingwaz","Hex":"#3366ff99","Correct":-1,"Choice":-1,"RT":-1,"Accuracy":1,"Outcome":"+10","Keys":[],"TotalKeys":0,"Block":2,"Trial":169,"Robot":2,"Valence":"Win","Action":"No-Go","Sham":0,"Color":"blue","trial_type":"pit-trial","trial_index":190,"time_elapsed":987086,"internal_node_id":"0.0-179.0","task_version":"test-retest"},{"Rune":"rune_01_ear","Hex":"#ffcc3399","Correct":-1,"Choice":-1,"RT":-1,"Accuracy":1,"Outcome":"-10","Keys":[],"TotalKeys":0,"Block":2,"Trial":170,"Robot":4,"Valence":"Lose","Action":"No-Go","Sham":1,"Color":"yellow","trial_type":"pit-trial","trial_index":191,"time_elapsed":991171,"internal_node_id":"0.0-180.0","task_version":"test-retest"},{"Rune":"rune_01_ger","Hex":"#ffcc3399","Correct":32,"Choice":32,"RT":609.6200000029057,"Accuracy":1,"Outcome":"-1","Keys":[2111.225000000559],"TotalKeys":1,"Block":2,"Trial":171,"Robot":3,"Valence":"Lose","Action":"Go","Sham":0,"Color":"yellow","trial_type":"pit-trial","trial_index":192,"time_elapsed":994288,"internal_node_id":"0.0-181.0","task_version":"test-retest"},{"Rune":"rune_01_yr","Hex":"#3366ff99","Correct":32,"Choice":32,"RT":581.674999993993,"Accuracy":1,"Outcome":"+10","Keys":[2082.08999998169],"TotalKeys":1,"Block":2,"Trial":172,"Robot":1,"Valence":"Win","Action":"Go","Sham":0,"Color":"blue","trial_type":"pit-trial","trial_index":193,"time_elapsed":997377,"internal_node_id":"0.0-182.0","task_version":"test-retest"},{"Rune":"rune_01_ear","Hex":"#ffcc3399","Correct":-1,"Choice":-1,"RT":-1,"Accuracy":1,"Outcome":"-1","Keys":[],"TotalKeys":0,"Block":2,"Trial":173,"Robot":4,"Valence":"Lose","Action":"No-Go","Sham":0,"Color":"yellow","trial_type":"pit-trial","trial_index":194,"time_elapsed":1001385,"internal_node_id":"0.0-183.0","task_version":"test-retest"},{"Rune":"rune_01_yr","Hex":"#3366ff99","Correct":32,"Choice":32,"RT":432.024999987334,"Accuracy":1,"Outcome":"+10","Keys":[1933.2500000018626],"TotalKeys":1,"Block":2,"Trial":174,"Robot":1,"Valence":"Win","Action":"Go","Sham":0,"Color":"blue","trial_type":"pit-trial","trial_index":195,"time_elapsed":1004330,"internal_node_id":"0.0-184.0","task_version":"test-retest"},{"Rune":"rune_01_ger","Hex":"#ffcc3399","Correct":32,"Choice":32,"RT":562.3699999996461,"Accuracy":1,"Outcome":"-1","Keys":[2063.5650000185706],"TotalKeys":1,"Block":2,"Trial":175,"Robot":3,"Valence":"Lose","Action":"Go","Sham":0,"Color":"yellow","trial_type":"pit-trial","trial_index":196,"time_elapsed":1007409,"internal_node_id":"0.0-185.0","task_version":"test-retest"},{"Rune":"rune_01_ingwaz","Hex":"#3366ff99","Correct":-1,"Choice":-1,"RT":-1,"Accuracy":1,"Outcome":"+10","Keys":[],"TotalKeys":0,"Block":2,"Trial":176,"Robot":2,"Valence":"Win","Action":"No-Go","Sham":0,"Color":"blue","trial_type":"pit-trial","trial_index":197,"time_elapsed":1011417,"internal_node_id":"0.0-186.0","task_version":"test-retest"},{"Rune":"rune_01_yr","Hex":"#3366ff99","Correct":32,"Choice":32,"RT":426.2049999961164,"Accuracy":1,"Outcome":"+1","Keys":[1927.510000008624],"TotalKeys":1,"Block":2,"Trial":177,"Robot":1,"Valence":"Win","Action":"Go","Sham":1,"Color":"blue","trial_type":"pit-trial","trial_index":198,"time_elapsed":1014355,"internal_node_id":"0.0-187.0","task_version":"test-retest"},{"Rune":"rune_01_ear","Hex":"#ffcc3399","Correct":-1,"Choice":-1,"RT":-1,"Accuracy":1,"Outcome":"-1","Keys":[],"TotalKeys":0,"Block":2,"Trial":178,"Robot":4,"Valence":"Lose","Action":"No-Go","Sham":0,"Color":"yellow","trial_type":"pit-trial","trial_index":199,"time_elapsed":1018366,"internal_node_id":"0.0-188.0","task_version":"test-retest"},{"Rune":"rune_01_ger","Hex":"#ffcc3399","Correct":32,"Choice":32,"RT":457.9950000043027,"Accuracy":1,"Outcome":"-1","Keys":[1960.3400000196416],"TotalKeys":1,"Block":2,"Trial":179,"Robot":3,"Valence":"Lose","Action":"Go","Sham":0,"Color":"yellow","trial_type":"pit-trial","trial_index":200,"time_elapsed":1021340,"internal_node_id":"0.0-189.0","task_version":"test-retest"},{"Rune":"rune_01_ingwaz","Hex":"#3366ff99","Correct":-1,"Choice":-1,"RT":-1,"Accuracy":1,"Outcome":"+10","Keys":[],"TotalKeys":0,"Block":2,"Trial":180,"Robot":2,"Valence":"Win","Action":"No-Go","Sham":0,"Color":"blue","trial_type":"pit-trial","trial_index":201,"time_elapsed":1025348,"internal_node_id":"0.0-190.0","task_version":"test-retest"},{"view_history":"[{\"page_index\":0,\"viewing_time\":3550.7999999972526},{\"page_index\":1,\"viewing_time\":2469.169999996666}]","rt":6022.100000001956,"trial_type":"pit-instructions","trial_index":202,"time_elapsed":1031372,"internal_node_id":"0.0-191.0","task_version":"test-retest"},{"Rune":"rune_01_ingwaz","Hex":"#3366ff99","Correct":-1,"Choice":-1,"RT":-1,"Accuracy":1,"Outcome":"+10","Keys":[],"TotalKeys":0,"Block":2,"Trial":181,"Robot":2,"Valence":"Win","Action":"No-Go","Sham":0,"Color":"blue","trial_type":"pit-trial","trial_index":203,"time_elapsed":1035393,"internal_node_id":"0.0-192.0","task_version":"test-retest"},{"Rune":"rune_01_yr","Hex":"#3366ff99","Correct":32,"Choice":32,"RT":408.61499999300577,"Accuracy":1,"Outcome":"+10","Keys":[1909.9299999943469],"TotalKeys":1,"Block":2,"Trial":182,"Robot":1,"Valence":"Win","Action":"Go","Sham":0,"Color":"blue","trial_type":"pit-trial","trial_index":204,"time_elapsed":1038312,"internal_node_id":"0.0-193.0","task_version":"test-retest"},{"Rune":"rune_01_ger","Hex":"#ffcc3399","Correct":32,"Choice":32,"RT":373.2849999796599,"Accuracy":1,"Outcome":"-10","Keys":[1874.6850000170525],"TotalKeys":1,"Block":2,"Trial":183,"Robot":3,"Valence":"Lose","Action":"Go","Sham":1,"Color":"yellow","trial_type":"pit-trial","trial_index":205,"time_elapsed":1041194,"internal_node_id":"0.0-194.0","task_version":"test-retest"},{"Rune":"rune_01_ear","Hex":"#ffcc3399","Correct":-1,"Choice":-1,"RT":-1,"Accuracy":1,"Outcome":"-1","Keys":[],"TotalKeys":0,"Block":2,"Trial":184,"Robot":4,"Valence":"Lose","Action":"No-Go","Sham":0,"Color":"yellow","trial_type":"pit-trial","trial_index":206,"time_elapsed":1045206,"internal_node_id":"0.0-195.0","task_version":"test-retest"},{"Rune":"rune_01_yr","Hex":"#3366ff99","Correct":32,"Choice":32,"RT":425.40499998722225,"Accuracy":1,"Outcome":"+10","Keys":[1926.5850000083447],"TotalKeys":1,"Block":2,"Trial":185,"Robot":1,"Valence":"Win","Action":"Go","Sham":0,"Color":"blue","trial_type":"pit-trial","trial_index":207,"time_elapsed":1048142,"internal_node_id":"0.0-196.0","task_version":"test-retest"},{"Rune":"rune_01_ingwaz","Hex":"#3366ff99","Correct":-1,"Choice":-1,"RT":-1,"Accuracy":1,"Outcome":"+10","Keys":[],"TotalKeys":0,"Block":2,"Trial":186,"Robot":2,"Valence":"Win","Action":"No-Go","Sham":0,"Color":"blue","trial_type":"pit-trial","trial_index":208,"time_elapsed":1052151,"internal_node_id":"0.0-197.0","task_version":"test-retest"},{"Rune":"rune_01_ger","Hex":"#ffcc3399","Correct":32,"Choice":32,"RT":368.91499999910593,"Accuracy":1,"Outcome":"-1","Keys":[1872.3600000084843],"TotalKeys":1,"Block":2,"Trial":187,"Robot":3,"Valence":"Lose","Action":"Go","Sham":0,"Color":"yellow","trial_type":"pit-trial","trial_index":209,"time_elapsed":1055031,"internal_node_id":"0.0-198.0","task_version":"test-retest"},{"Rune":"rune_01_ear","Hex":"#ffcc3399","Correct":-1,"Choice":-1,"RT":-1,"Accuracy":1,"Outcome":"-1","Keys":[],"TotalKeys":0,"Block":2,"Trial":188,"Robot":4,"Valence":"Lose","Action":"No-Go","Sham":0,"Color":"yellow","trial_type":"pit-trial","trial_index":210,"time_elapsed":1059044,"internal_node_id":"0.0-199.0","task_version":"test-retest"},{"Rune":"rune_01_ger","Hex":"#ffcc3399","Correct":32,"Choice":32,"RT":450.85500000277534,"Accuracy":1,"Outcome":"-1","Keys":[1951.8950000056066],"TotalKeys":1,"Block":2,"Trial":189,"Robot":3,"Valence":"Lose","Action":"Go","Sham":0,"Color":"yellow","trial_type":"pit-trial","trial_index":211,"time_elapsed":1062005,"internal_node_id":"0.0-200.0","task_version":"test-retest"},{"Rune":"rune_01_yr","Hex":"#3366ff99","Correct":32,"Choice":32,"RT":403.135000000475,"Accuracy":1,"Outcome":"+1","Keys":[1903.7799999932759],"TotalKeys":1,"Block":2,"Trial":190,"Robot":1,"Valence":"Win","Action":"Go","Sham":1,"Color":"blue","trial_type":"pit-trial","trial_index":212,"time_elapsed":1064921,"internal_node_id":"0.0-201.0","task_version":"test-retest"},{"Rune":"rune_01_ingwaz","Hex":"#3366ff99","Correct":-1,"Choice":-1,"RT":-1,"Accuracy":1,"Outcome":"+10","Keys":[],"TotalKeys":0,"Block":2,"Trial":191,"Robot":2,"Valence":"Win","Action":"No-Go","Sham":0,"Color":"blue","trial_type":"pit-trial","trial_index":213,"time_elapsed":1068934,"internal_node_id":"0.0-202.0","task_version":"test-retest"},{"Rune":"rune_01_ear","Hex":"#ffcc3399","Correct":-1,"Choice":-1,"RT":-1,"Accuracy":1,"Outcome":"-10","Keys":[],"TotalKeys":0,"Block":2,"Trial":192,"Robot":4,"Valence":"Lose","Action":"No-Go","Sham":1,"Color":"yellow","trial_type":"pit-trial","trial_index":214,"time_elapsed":1072948,"internal_node_id":"0.0-203.0","task_version":"test-retest"},{"Rune":"rune_01_yr","Hex":"#3366ff99","Correct":32,"Choice":32,"RT":404.8450000118464,"Accuracy":1,"Outcome":"+10","Keys":[1905.6449999916367],"TotalKeys":1,"Block":2,"Trial":193,"Robot":1,"Valence":"Win","Action":"Go","Sham":0,"Color":"blue","trial_type":"pit-trial","trial_index":215,"time_elapsed":1075864,"internal_node_id":"0.0-204.0","task_version":"test-retest"},{"Rune":"rune_01_ingwaz","Hex":"#3366ff99","Correct":-1,"Choice":-1,"RT":-1,"Accuracy":1,"Outcome":"+1","Keys":[],"TotalKeys":0,"Block":2,"Trial":194,"Robot":2,"Valence":"Win","Action":"No-Go","Sham":1,"Color":"blue","trial_type":"pit-trial","trial_index":216,"time_elapsed":1079877,"internal_node_id":"0.0-205.0","task_version":"test-retest"},{"Rune":"rune_01_ger","Hex":"#ffcc3399","Correct":32,"Choice":32,"RT":405.2500000107102,"Accuracy":1,"Outcome":"-1","Keys":[1906.2600000179373],"TotalKeys":1,"Block":2,"Trial":195,"Robot":3,"Valence":"Lose","Action":"Go","Sham":0,"Color":"yellow","trial_type":"pit-trial","trial_index":217,"time_elapsed":1082791,"internal_node_id":"0.0-206.0","task_version":"test-retest"},{"Rune":"rune_01_ear","Hex":"#ffcc3399","Correct":-1,"Choice":-1,"RT":-1,"Accuracy":1,"Outcome":"-1","Keys":[],"TotalKeys":0,"Block":2,"Trial":196,"Robot":4,"Valence":"Lose","Action":"No-Go","Sham":0,"Color":"yellow","trial_type":"pit-trial","trial_index":218,"time_elapsed":1086798,"internal_node_id":"0.0-207.0","task_version":"test-retest"},{"Rune":"rune_01_ger","Hex":"#ffcc3399","Correct":32,"Choice":32,"RT":457.5499999918975,"Accuracy":1,"Outcome":"-1","Keys":[1959.8650000116322],"TotalKeys":1,"Block":2,"Trial":197,"Robot":3,"Valence":"Lose","Action":"Go","Sham":0,"Color":"yellow","trial_type":"pit-trial","trial_index":219,"time_elapsed":1089762,"internal_node_id":"0.0-208.0","task_version":"test-retest"},{"Rune":"rune_01_ingwaz","Hex":"#3366ff99","Correct":-1,"Choice":-1,"RT":-1,"Accuracy":1,"Outcome":"+10","Keys":[],"TotalKeys":0,"Block":2,"Trial":198,"Robot":2,"Valence":"Win","Action":"No-Go","Sham":0,"Color":"blue","trial_type":"pit-trial","trial_index":220,"time_elapsed":1093768,"internal_node_id":"0.0-209.0","task_version":"test-retest"},{"Rune":"rune_01_yr","Hex":"#3366ff99","Correct":32,"Choice":32,"RT":752.2050000261515,"Accuracy":1,"Outcome":"+10","Keys":[2253.049999999348],"TotalKeys":1,"Block":2,"Trial":199,"Robot":1,"Valence":"Win","Action":"Go","Sham":0,"Color":"blue","trial_type":"pit-trial","trial_index":221,"time_elapsed":1097027,"internal_node_id":"0.0-210.0","task_version":"test-retest"},{"Rune":"rune_01_ear","Hex":"#ffcc3399","Correct":-1,"Choice":-1,"RT":-1,"Accuracy":1,"Outcome":"-1","Keys":[],"TotalKeys":0,"Block":2,"Trial":200,"Robot":4,"Valence":"Lose","Action":"No-Go","Sham":0,"Color":"yellow","trial_type":"pit-trial","trial_index":222,"time_elapsed":1101041,"internal_node_id":"0.0-211.0","task_version":"test-retest"},{"Rune":"rune_01_ingwaz","Hex":"#3366ff99","Correct":-1,"Choice":-1,"RT":-1,"Accuracy":1,"Outcome":"+10","Keys":[],"TotalKeys":0,"Block":2,"Trial":201,"Robot":2,"Valence":"Win","Action":"No-Go","Sham":0,"Color":"blue","trial_type":"pit-trial","trial_index":223,"time_elapsed":1105052,"internal_node_id":"0.0-212.0","task_version":"test-retest"},{"Rune":"rune_01_ger","Hex":"#ffcc3399","Correct":32,"Choice":32,"RT":557.1800000034273,"Accuracy":1,"Outcome":"-10","Keys":[2058.374999993248],"TotalKeys":1,"Block":2,"Trial":202,"Robot":3,"Valence":"Lose","Action":"Go","Sham":1,"Color":"yellow","trial_type":"pit-trial","trial_index":224,"time_elapsed":1108119,"internal_node_id":"0.0-213.0","task_version":"test-retest"},{"Rune":"rune_01_ear","Hex":"#ffcc3399","Correct":-1,"Choice":-1,"RT":-1,"Accuracy":1,"Outcome":"-1","Keys":[],"TotalKeys":0,"Block":2,"Trial":203,"Robot":4,"Valence":"Lose","Action":"No-Go","Sham":0,"Color":"yellow","trial_type":"pit-trial","trial_index":225,"time_elapsed":1112127,"internal_node_id":"0.0-214.0","task_version":"test-retest"},{"Rune":"rune_01_yr","Hex":"#3366ff99","Correct":32,"Choice":32,"RT":407.1750000002794,"Accuracy":1,"Outcome":"+10","Keys":[1908.0850000027567],"TotalKeys":1,"Block":2,"Trial":204,"Robot":1,"Valence":"Win","Action":"Go","Sham":0,"Color":"blue","trial_type":"pit-trial","trial_index":226,"time_elapsed":1115054,"internal_node_id":"0.0-215.0","task_version":"test-retest"},{"Rune":"rune_01_ingwaz","Hex":"#3366ff99","Correct":-1,"Choice":-1,"RT":-1,"Accuracy":1,"Outcome":"+10","Keys":[],"TotalKeys":0,"Block":2,"Trial":205,"Robot":2,"Valence":"Win","Action":"No-Go","Sham":0,"Color":"blue","trial_type":"pit-trial","trial_index":227,"time_elapsed":1119065,"internal_node_id":"0.0-216.0","task_version":"test-retest"},{"Rune":"rune_01_ear","Hex":"#ffcc3399","Correct":-1,"Choice":-1,"RT":-1,"Accuracy":1,"Outcome":"-1","Keys":[],"TotalKeys":0,"Block":2,"Trial":206,"Robot":4,"Valence":"Lose","Action":"No-Go","Sham":0,"Color":"yellow","trial_type":"pit-trial","trial_index":228,"time_elapsed":1123072,"internal_node_id":"0.0-217.0","task_version":"test-retest"},{"Rune":"rune_01_ger","Hex":"#ffcc3399","Correct":32,"Choice":32,"RT":507.1449999813922,"Accuracy":1,"Outcome":"-1","Keys":[2008.34999998915],"TotalKeys":1,"Block":2,"Trial":207,"Robot":3,"Valence":"Lose","Action":"Go","Sham":0,"Color":"yellow","trial_type":"pit-trial","trial_index":229,"time_elapsed":1126095,"internal_node_id":"0.0-218.0","task_version":"test-retest"},{"Rune":"rune_01_yr","Hex":"#3366ff99","Correct":32,"Choice":32,"RT":460.6649999914225,"Accuracy":1,"Outcome":"+10","Keys":[1961.219999997411],"TotalKeys":1,"Block":2,"Trial":208,"Robot":1,"Valence":"Win","Action":"Go","Sham":0,"Color":"blue","trial_type":"pit-trial","trial_index":230,"time_elapsed":1129067,"internal_node_id":"0.0-219.0","task_version":"test-retest"},{"Rune":"rune_01_ger","Hex":"#ffcc3399","Correct":32,"Choice":32,"RT":531.4549999893643,"Accuracy":1,"Outcome":"-1","Keys":[2032.4449999898206],"TotalKeys":1,"Block":2,"Trial":209,"Robot":3,"Valence":"Lose","Action":"Go","Sham":0,"Color":"yellow","trial_type":"pit-trial","trial_index":231,"time_elapsed":1132111,"internal_node_id":"0.0-220.0","task_version":"test-retest"},{"Rune":"rune_01_ear","Hex":"#ffcc3399","Correct":-1,"Choice":-1,"RT":-1,"Accuracy":1,"Outcome":"-1","Keys":[],"TotalKeys":0,"Block":2,"Trial":210,"Robot":4,"Valence":"Lose","Action":"No-Go","Sham":0,"Color":"yellow","trial_type":"pit-trial","trial_index":232,"time_elapsed":1136124,"internal_node_id":"0.0-221.0","task_version":"test-retest"},{"Rune":"rune_01_yr","Hex":"#3366ff99","Correct":32,"Choice":32,"RT":364.39999999129213,"Accuracy":1,"Outcome":"+10","Keys":[1865.7200000016019],"TotalKeys":1,"Block":2,"Trial":211,"Robot":1,"Valence":"Win","Action":"Go","Sham":0,"Color":"blue","trial_type":"pit-trial","trial_index":233,"time_elapsed":1139000,"internal_node_id":"0.0-222.0","task_version":"test-retest"},{"Rune":"rune_01_ingwaz","Hex":"#3366ff99","Correct":-1,"Choice":-1,"RT":-1,"Accuracy":1,"Outcome":"+1","Keys":[],"TotalKeys":0,"Block":2,"Trial":212,"Robot":2,"Valence":"Win","Action":"No-Go","Sham":1,"Color":"blue","trial_type":"pit-trial","trial_index":234,"time_elapsed":1143008,"internal_node_id":"0.0-223.0","task_version":"test-retest"},{"Rune":"rune_01_yr","Hex":"#3366ff99","Correct":32,"Choice":32,"RT":394.9200000206474,"Accuracy":1,"Outcome":"+1","Keys":[1895.0999999942724],"TotalKeys":1,"Block":2,"Trial":213,"Robot":1,"Valence":"Win","Action":"Go","Sham":1,"Color":"blue","trial_type":"pit-trial","trial_index":235,"time_elapsed":1145915,"internal_node_id":"0.0-224.0","task_version":"test-retest"},{"Rune":"rune_01_ingwaz","Hex":"#3366ff99","Correct":-1,"Choice":-1,"RT":-1,"Accuracy":1,"Outcome":"+10","Keys":[],"TotalKeys":0,"Block":2,"Trial":214,"Robot":2,"Valence":"Win","Action":"No-Go","Sham":0,"Color":"blue","trial_type":"pit-trial","trial_index":236,"time_elapsed":1149956,"internal_node_id":"0.0-225.0","task_version":"test-retest"},{"Rune":"rune_01_ear","Hex":"#ffcc3399","Correct":-1,"Choice":-1,"RT":-1,"Accuracy":1,"Outcome":"-10","Keys":[],"TotalKeys":0,"Block":2,"Trial":215,"Robot":4,"Valence":"Lose","Action":"No-Go","Sham":1,"Color":"yellow","trial_type":"pit-trial","trial_index":237,"time_elapsed":1153976,"internal_node_id":"0.0-226.0","task_version":"test-retest"},{"Rune":"rune_01_ger","Hex":"#ffcc3399","Correct":32,"Choice":32,"RT":535.9649999882095,"Accuracy":1,"Outcome":"-1","Keys":[2037.4599999922793],"TotalKeys":1,"Block":2,"Trial":216,"Robot":3,"Valence":"Lose","Action":"Go","Sham":0,"Color":"yellow","trial_type":"pit-trial","trial_index":238,"time_elapsed":1157024,"internal_node_id":"0.0-227.0","task_version":"test-retest"},{"Rune":"rune_01_yr","Hex":"#3366ff99","Correct":32,"Choice":32,"RT":347.0600000000559,"Accuracy":1,"Outcome":"+10","Keys":[1847.570000012638],"TotalKeys":1,"Block":2,"Trial":217,"Robot":1,"Valence":"Win","Action":"Go","Sham":0,"Color":"blue","trial_type":"pit-trial","trial_index":239,"time_elapsed":1159880,"internal_node_id":"0.0-228.0","task_version":"test-retest"},{"Rune":"rune_01_ingwaz","Hex":"#3366ff99","Correct":-1,"Choice":-1,"RT":-1,"Accuracy":1,"Outcome":"+10","Keys":[],"TotalKeys":0,"Block":2,"Trial":218,"Robot":2,"Valence":"Win","Action":"No-Go","Sham":0,"Color":"blue","trial_type":"pit-trial","trial_index":240,"time_elapsed":1163890,"internal_node_id":"0.0-229.0","task_version":"test-retest"},{"Rune":"rune_01_ear","Hex":"#ffcc3399","Correct":-1,"Choice":-1,"RT":-1,"Accuracy":1,"Outcome":"-1","Keys":[],"TotalKeys":0,"Block":2,"Trial":219,"Robot":4,"Valence":"Lose","Action":"No-Go","Sham":0,"Color":"yellow","trial_type":"pit-trial","trial_index":241,"time_elapsed":1167898,"internal_node_id":"0.0-230.0","task_version":"test-retest"},{"Rune":"rune_01_ger","Hex":"#ffcc3399","Correct":32,"Choice":32,"RT":520.539999997709,"Accuracy":1,"Outcome":"-1","Keys":[2022.2199999843724],"TotalKeys":1,"Block":2,"Trial":220,"Robot":3,"Valence":"Lose","Action":"Go","Sham":0,"Color":"yellow","trial_type":"pit-trial","trial_index":242,"time_elapsed":1170930,"internal_node_id":"0.0-231.0","task_version":"test-retest"},{"Rune":"rune_01_ingwaz","Hex":"#3366ff99","Correct":-1,"Choice":-1,"RT":-1,"Accuracy":1,"Outcome":"+10","Keys":[],"TotalKeys":0,"Block":2,"Trial":221,"Robot":2,"Valence":"Win","Action":"No-Go","Sham":0,"Color":"blue","trial_type":"pit-trial","trial_index":243,"time_elapsed":1174942,"internal_node_id":"0.0-232.0","task_version":"test-retest"},{"Rune":"rune_01_yr","Hex":"#3366ff99","Correct":32,"Choice":32,"RT":330.340000014985,"Accuracy":1,"Outcome":"+1","Keys":[1830.8800000231713],"TotalKeys":1,"Block":2,"Trial":222,"Robot":1,"Valence":"Win","Action":"Go","Sham":1,"Color":"blue","trial_type":"pit-trial","trial_index":244,"time_elapsed":1177789,"internal_node_id":"0.0-233.0","task_version":"test-retest"},{"Rune":"rune_01_ear","Hex":"#ffcc3399","Correct":-1,"Choice":-1,"RT":-1,"Accuracy":1,"Outcome":"-1","Keys":[],"TotalKeys":0,"Block":2,"Trial":223,"Robot":4,"Valence":"Lose","Action":"No-Go","Sham":0,"Color":"yellow","trial_type":"pit-trial","trial_index":245,"time_elapsed":1181798,"internal_node_id":"0.0-234.0","task_version":"test-retest"},{"Rune":"rune_01_ger","Hex":"#ffcc3399","Correct":32,"Choice":32,"RT":361.56499999924563,"Accuracy":1,"Outcome":"-1","Keys":[1862.5999999931082],"TotalKeys":1,"Block":2,"Trial":224,"Robot":3,"Valence":"Lose","Action":"Go","Sham":0,"Color":"yellow","trial_type":"pit-trial","trial_index":246,"time_elapsed":1184669,"internal_node_id":"0.0-235.0","task_version":"test-retest"},{"Rune":"rune_01_ger","Hex":"#ffcc3399","Correct":32,"Choice":32,"RT":329.91000000038184,"Accuracy":1,"Outcome":"-1","Keys":[1830.275000014808],"TotalKeys":1,"Block":2,"Trial":225,"Robot":3,"Valence":"Lose","Action":"Go","Sham":0,"Color":"yellow","trial_type":"pit-trial","trial_index":247,"time_elapsed":1187509,"internal_node_id":"0.0-236.0","task_version":"test-retest"},{"Rune":"rune_01_ingwaz","Hex":"#3366ff99","Correct":-1,"Choice":-1,"RT":-1,"Accuracy":1,"Outcome":"+10","Keys":[],"TotalKeys":0,"Block":2,"Trial":226,"Robot":2,"Valence":"Win","Action":"No-Go","Sham":0,"Color":"blue","trial_type":"pit-trial","trial_index":248,"time_elapsed":1191522,"internal_node_id":"0.0-237.0","task_version":"test-retest"},{"Rune":"rune_01_yr","Hex":"#3366ff99","Correct":32,"Choice":32,"RT":396.7399999964982,"Accuracy":1,"Outcome":"+10","Keys":[1897.5900000077672],"TotalKeys":1,"Block":2,"Trial":227,"Robot":1,"Valence":"Win","Action":"Go","Sham":0,"Color":"blue","trial_type":"pit-trial","trial_index":249,"time_elapsed":1194431,"internal_node_id":"0.0-238.0","task_version":"test-retest"},{"Rune":"rune_01_ear","Hex":"#ffcc3399","Correct":-1,"Choice":-1,"RT":-1,"Accuracy":1,"Outcome":"-1","Keys":[],"TotalKeys":0,"Block":2,"Trial":228,"Robot":4,"Valence":"Lose","Action":"No-Go","Sham":0,"Color":"yellow","trial_type":"pit-trial","trial_index":250,"time_elapsed":1198440,"internal_node_id":"0.0-239.0","task_version":"test-retest"},{"Rune":"rune_01_ger","Hex":"#ffcc3399","Correct":32,"Choice":32,"RT":681.6450000042096,"Accuracy":1,"Outcome":"-10","Keys":[2183.855000010226],"TotalKeys":1,"Block":2,"Trial":229,"Robot":3,"Valence":"Lose","Action":"Go","Sham":1,"Color":"yellow","trial_type":"pit-trial","trial_index":251,"time_elapsed":1201634,"internal_node_id":"0.0-240.0","task_version":"test-retest"},{"Rune":"rune_01_ear","Hex":"#ffcc3399","Correct":-1,"Choice":-1,"RT":-1,"Accuracy":1,"Outcome":"-1","Keys":[],"TotalKeys":0,"Block":2,"Trial":230,"Robot":4,"Valence":"Lose","Action":"No-Go","Sham":0,"Color":"yellow","trial_type":"pit-trial","trial_index":252,"time_elapsed":1205645,"internal_node_id":"0.0-241.0","task_version":"test-retest"},{"Rune":"rune_01_ingwaz","Hex":"#3366ff99","Correct":-1,"Choice":-1,"RT":-1,"Accuracy":1,"Outcome":"+10","Keys":[],"TotalKeys":0,"Block":2,"Trial":231,"Robot":2,"Valence":"Win","Action":"No-Go","Sham":0,"Color":"blue","trial_type":"pit-trial","trial_index":253,"time_elapsed":1209658,"internal_node_id":"0.0-242.0","task_version":"test-retest"},{"Rune":"rune_01_yr","Hex":"#3366ff99","Correct":32,"Choice":32,"RT":426.0450000001583,"Accuracy":1,"Outcome":"+10","Keys":[1926.1149999802],"TotalKeys":1,"Block":2,"Trial":232,"Robot":1,"Valence":"Win","Action":"Go","Sham":0,"Color":"blue","trial_type":"pit-trial","trial_index":254,"time_elapsed":1212597,"internal_node_id":"0.0-243.0","task_version":"test-retest"},{"Rune":"rune_01_ear","Hex":"#ffcc3399","Correct":-1,"Choice":-1,"RT":-1,"Accuracy":1,"Outcome":"-10","Keys":[],"TotalKeys":0,"Block":2,"Trial":233,"Robot":4,"Valence":"Lose","Action":"No-Go","Sham":1,"Color":"yellow","trial_type":"pit-trial","trial_index":255,"time_elapsed":1216616,"internal_node_id":"0.0-244.0","task_version":"test-retest"},{"Rune":"rune_01_ingwaz","Hex":"#3366ff99","Correct":-1,"Choice":-1,"RT":-1,"Accuracy":1,"Outcome":"+1","Keys":[],"TotalKeys":0,"Block":2,"Trial":234,"Robot":2,"Valence":"Win","Action":"No-Go","Sham":1,"Color":"blue","trial_type":"pit-trial","trial_index":256,"time_elapsed":1220643,"internal_node_id":"0.0-245.0","task_version":"test-retest"},{"Rune":"rune_01_ger","Hex":"#ffcc3399","Correct":32,"Choice":32,"RT":417.94000001391396,"Accuracy":1,"Outcome":"-1","Keys":[1919.0249999810476],"TotalKeys":1,"Block":2,"Trial":235,"Robot":3,"Valence":"Lose","Action":"Go","Sham":0,"Color":"yellow","trial_type":"pit-trial","trial_index":257,"time_elapsed":1223574,"internal_node_id":"0.0-246.0","task_version":"test-retest"},{"Rune":"rune_01_yr","Hex":"#3366ff99","Correct":32,"Choice":32,"RT":324.63499999721535,"Accuracy":1,"Outcome":"+10","Keys":[1825.0800000096206],"TotalKeys":1,"Block":2,"Trial":236,"Robot":1,"Valence":"Win","Action":"Go","Sham":0,"Color":"blue","trial_type":"pit-trial","trial_index":258,"time_elapsed":1226414,"internal_node_id":"0.0-247.0","task_version":"test-retest"},{"Rune":"rune_01_yr","Hex":"#3366ff99","Correct":32,"Choice":32,"RT":402.74499999941327,"Accuracy":1,"Outcome":"+10","Keys":[1904.5849999820348],"TotalKeys":1,"Block":2,"Trial":237,"Robot":1,"Valence":"Win","Action":"Go","Sham":0,"Color":"blue","trial_type":"pit-trial","trial_index":259,"time_elapsed":1229324,"internal_node_id":"0.0-248.0","task_version":"test-retest"},{"Rune":"rune_01_ger","Hex":"#ffcc3399","Correct":32,"Choice":32,"RT":399.55500001087785,"Accuracy":1,"Outcome":"-1","Keys":[1899.7900000249501],"TotalKeys":1,"Block":2,"Trial":238,"Robot":3,"Valence":"Lose","Action":"Go","Sham":0,"Color":"yellow","trial_type":"pit-trial","trial_index":260,"time_elapsed":1232235,"internal_node_id":"0.0-249.0","task_version":"test-retest"},{"Rune":"rune_01_ear","Hex":"#ffcc3399","Correct":-1,"Choice":-1,"RT":-1,"Accuracy":1,"Outcome":"-1","Keys":[],"TotalKeys":0,"Block":2,"Trial":239,"Robot":4,"Valence":"Lose","Action":"No-Go","Sham":0,"Color":"yellow","trial_type":"pit-trial","trial_index":261,"time_elapsed":1236245,"internal_node_id":"0.0-250.0","task_version":"test-retest"},{"Rune":"rune_01_ingwaz","Hex":"#3366ff99","Correct":-1,"Choice":-1,"RT":-1,"Accuracy":1,"Outcome":"+10","Keys":[],"TotalKeys":0,"Block":2,"Trial":240,"Robot":2,"Valence":"Win","Action":"No-Go","Sham":0,"Color":"blue","trial_type":"pit-trial","trial_index":262,"time_elapsed":1240255,"internal_node_id":"0.0-251.0","task_version":"test-retest"},{"view_history":"[{\"page_index\":0,\"viewing_time\":4611.805000022287}]","rt":4613.039999996545,"trial_type":"pit-instructions","trial_index":263,"time_elapsed":1244870,"internal_node_id":"0.0-252.0","task_version":"test-retest"},{"rt":15726.090000011027,"responses":{"age":"31","gender-categorical":"Male","gender-free-response":"","ethnicity":"Not Hispanic or Latino","race":"White","language":"Yes","fluency":"Very well"},"survey":"demographics","trial_type":"survey-demo","trial_index":264,"time_elapsed":1260617,"internal_node_id":"0.0-253.0","task_version":"test-retest"},{"rt":55542.444999999134,"responses":{"difficulty":"4","fun":"3","clarity":"4","strategy":"trial and error, once I feel one is locked down focus on the next until all are clear.","feedback":"Thanks!"},"survey":"debrief","trial_type":"survey-debrief","trial_index":265,"time_elapsed":1316172,"internal_node_id":"0.0-254.0","task_version":"test-retest"},{"rt":2783.9749999984633,"stimulus":"You earned a bonus of $1.37 out of $1.5.<br><br>Press any key to complete the experiment.","key_press":68,"trial_type":"html-keyboard-response","trial_index":266,"time_elapsed":1318966,"internal_node_id":"0.0-255.0","task_version":"test-retest","accuracy":0.9083333333333333,"bonus":1.37,"interactions":"[{\"event\":\"blur\",\"trial\":1,\"time\":16123},{\"event\":\"focus\",\"trial\":1,\"time\":17761},{\"event\":\"blur\",\"trial\":1,\"time\":55138},{\"event\":\"focus\",\"trial\":1,\"time\":55809},{\"event\":\"blur\",\"trial\":15,\"time\":234047},{\"event\":\"focus\",\"trial\":15,\"time\":235574},{\"event\":\"blur\",\"trial\":81,\"time\":576137},{\"event\":\"focus\",\"trial\":82,\"time\":577102},{\"event\":\"blur\",\"trial\":141,\"time\":797224},{\"event\":\"focus\",\"trial\":141,\"time\":799487},{\"event\":\"blur\",\"trial\":265,\"time\":1263808},{\"event\":\"focus\",\"trial\":265,\"time\":1266434}]"}]