[{"slider_type":"valence","raw_loc":554,"loc":0.608,"trial_type":"affective-slider","trial_index":0,"time_elapsed":4938,"internal_node_id":"0.0-0.0","task_version":"test-retest-t2"},{"responses":{"Q06":"2","Q08":"0","Q01":"2","Q04":"2","Q07":"2","Q02":"2","Q05":"1","Q03":"2"},"rt":19885.859999980312,"survey":"gad7","trial_type":"survey-template","trial_index":1,"time_elapsed":24828,"internal_node_id":"0.0-1.0","task_version":"test-retest-t2"},{"view_history":"[{\"page_index\":0,\"viewing_time\":4357.194999989588},{\"page_index\":1,\"viewing_time\":861.9799999869429},{\"page_index\":2,\"viewing_time\":2286.0450000152923},{\"page_index\":3,\"viewing_time\":2423.5999999800697},{\"page_index\":4,\"viewing_time\":2314.2949999892153},{\"page_index\":5,\"viewing_time\":2633.8899999973364}]","rt":14877.844999951776,"trial_type":"pit-instructions","trial_index":2,"time_elapsed":39709,"internal_node_id":"0.0-2.0-0.0","task_version":"test-retest-t2"},{"Rune":"rune_00_ingz","Hex":"#FFFFF080","Correct":32,"Choice":32,"RT":282.9749999800697,"Accuracy":1,"Outcome":"+10","Keys":[1783.7299999664538],"TotalKeys":1,"Block":0,"Action":"Go","trial_type":"pit-trial","trial_index":3,"time_elapsed":42496,"internal_node_id":"0.0-2.0-1.0-0.0","task_version":"test-retest-t2"},{"Rune":"rune_00_ingz","Hex":"#FFFFF080","Correct":32,"Choice":32,"RT":160.3200000245124,"Accuracy":1,"Outcome":"+10","Keys":[1660.8949999790639],"TotalKeys":1,"Block":0,"Action":"Go","trial_type":"pit-trial","trial_index":4,"time_elapsed":45160,"internal_node_id":"0.0-2.0-1.0-0.1","task_version":"test-retest-t2"},{"Rune":"rune_00_ingz","Hex":"#FFFFF080","Correct":32,"Choice":32,"RT":171.10500001581386,"Accuracy":1,"Outcome":"+10","Keys":[1671.3849999941885],"TotalKeys":1,"Block":0,"Action":"Go","trial_type":"pit-trial","trial_index":5,"time_elapsed":47834,"internal_node_id":"0.0-2.0-1.0-0.2","task_version":"test-retest-t2"},{"Rune":"rune_00_ingz","Hex":"#FFFFF080","Correct":32,"Choice":32,"RT":136.0199999762699,"Accuracy":1,"Outcome":"+10","Keys":[1637.1649999637157],"TotalKeys":1,"Block":0,"Action":"Go","trial_type":"pit-trial","trial_index":6,"time_elapsed":50474,"internal_node_id":"0.0-2.0-1.0-0.3","task_version":"test-retest-t2"},{"view_history":"[{\"page_index\":0,\"viewing_time\":1863.184999965597}]","rt":1863.504999957513,"trial_type":"pit-instructions","trial_index":7,"time_elapsed":52339,"internal_node_id":"0.0-2.0-2.0","task_version":"test-retest-t2"},{"Rune":"rune_00_isaz","Hex":"#FFFFF080","Correct":-1,"Choice":-1,"RT":-1,"Accuracy":1,"Outcome":"+10","Keys":[],"TotalKeys":0,"Block":0,"Action":"No-Go","trial_type":"pit-trial","trial_index":8,"time_elapsed":56343,"internal_node_id":"0.0-2.0-3.0-0.0","task_version":"test-retest-t2"},{"Rune":"rune_00_isaz","Hex":"#FFFFF080","Correct":-1,"Choice":-1,"RT":-1,"Accuracy":1,"Outcome":"+10","Keys":[],"TotalKeys":0,"Block":0,"Action":"No-Go","trial_type":"pit-trial","trial_index":9,"time_elapsed":60348,"internal_node_id":"0.0-2.0-3.0-0.1","task_version":"test-retest-t2"},{"Rune":"rune_00_isaz","Hex":"#FFFFF080","Correct":-1,"Choice":-1,"RT":-1,"Accuracy":1,"Outcome":"+10","Keys":[],"TotalKeys":0,"Block":0,"Action":"No-Go","trial_type":"pit-trial","trial_index":10,"time_elapsed":64351,"internal_node_id":"0.0-2.0-3.0-0.2","task_version":"test-retest-t2"},{"Rune":"rune_00_isaz","Hex":"#FFFFF080","Correct":-1,"Choice":-1,"RT":-1,"Accuracy":1,"Outcome":"+10","Keys":[],"TotalKeys":0,"Block":0,"Action":"No-Go","trial_type":"pit-trial","trial_index":11,"time_elapsed":68354,"internal_node_id":"0.0-2.0-3.0-0.3","task_version":"test-retest-t2"},{"view_history":"[{\"page_index\":0,\"viewing_time\":7251.775000011548},{\"page_index\":1,\"viewing_time\":8834.210000000894},{\"page_index\":2,\"viewing_time\":2351.7250000149943},{\"page_index\":3,\"viewing_time\":3179.9499999615364},{\"page_index\":4,\"viewing_time\":1985.9850000357255},{\"page_index\":5,\"viewing_time\":3458.2400000072084},{\"page_index\":6,\"viewing_time\":2081.8549999967217},{\"page_index\":7,\"viewing_time\":1649.5649999706075}]","rt":30793.645000027027,"trial_type":"pit-instructions","trial_index":12,"time_elapsed":99148,"internal_node_id":"0.0-2.0-4.0","task_version":"test-retest-t2"},{"responses":["Do nothing","+10","-1","True","Yes"],"num_errors":0,"rt":13930.630000017118,"trial_type":"pit-comprehension","trial_index":13,"time_elapsed":113081,"internal_node_id":"0.0-2.0-5.0","task_version":"test-retest-t2"},{"trial_type":"call-function","trial_index":14,"time_elapsed":113083,"internal_node_id":"0.0-3.0","task_version":"test-retest-t2"},{"view_history":"[{\"page_index\":0,\"viewing_time\":1295.6049999920651},{\"page_index\":1,\"viewing_time\":2370.0449999887496},{\"page_index\":2,\"viewing_time\":1925.9000000311062}]","rt":5591.870000003837,"trial_type":"pit-instructions","trial_index":15,"time_elapsed":118676,"internal_node_id":"0.0-4.0","task_version":"test-retest-t2"},{"Rune":"rune_05_ior","Hex":"#3366ff99","Correct":-1,"Choice":32,"RT":713.5999999591149,"Accuracy":0,"Outcome":"+1","Keys":[2214.9699999717996],"TotalKeys":1,"Block":1,"Trial":1,"Robot":2,"Valence":"Win","Action":"No-Go","Sham":0,"Color":"blue","trial_type":"pit-trial","trial_index":16,"time_elapsed":121895,"internal_node_id":"0.0-5.0","task_version":"test-retest-t2"},{"Rune":"rune_05_tiwaz","Hex":"#3366ff99","Correct":32,"Choice":32,"RT":576.2800000375137,"Accuracy":1,"Outcome":"+10","Keys":[2077.3099999642],"TotalKeys":1,"Block":1,"Trial":2,"Robot":1,"Valence":"Win","Action":"Go","Sham":0,"Color":"blue","trial_type":"pit-trial","trial_index":17,"time_elapsed":124974,"internal_node_id":"0.0-6.0","task_version":"test-retest-t2"},{"Rune":"rune_05_gebo","Hex":"#ffcc3399","Correct":32,"Choice":-1,"RT":-1,"Accuracy":0,"Outcome":"-10","Keys":[],"TotalKeys":0,"Block":1,"Trial":3,"Robot":3,"Valence":"Lose","Action":"Go","Sham":0,"Color":"yellow","trial_type":"pit-trial","trial_index":18,"time_elapsed":128977,"internal_node_id":"0.0-7.0","task_version":"test-retest-t2"},{"Rune":"rune_05_jeran","Hex":"#ffcc3399","Correct":-1,"Choice":-1,"RT":-1,"Accuracy":1,"Outcome":"-1","Keys":[],"TotalKeys":0,"Block":1,"Trial":4,"Robot":4,"Valence":"Lose","Action":"No-Go","Sham":0,"Color":"yellow","trial_type":"pit-trial","trial_index":19,"time_elapsed":132980,"internal_node_id":"0.0-8.0","task_version":"test-retest-t2"},{"Rune":"rune_05_ior","Hex":"#3366ff99","Correct":-1,"Choice":-1,"RT":-1,"Accuracy":1,"Outcome":"+1","Keys":[],"TotalKeys":0,"Block":1,"Trial":5,"Robot":2,"Valence":"Win","Action":"No-Go","Sham":1,"Color":"blue","trial_type":"pit-trial","trial_index":20,"time_elapsed":136984,"internal_node_id":"0.0-9.0","task_version":"test-retest-t2"},{"Rune":"rune_05_tiwaz","Hex":"#3366ff99","Correct":32,"Choice":32,"RT":378.8949999725446,"Accuracy":1,"Outcome":"+10","Keys":[1880.2799999830313],"TotalKeys":1,"Block":1,"Trial":6,"Robot":1,"Valence":"Win","Action":"Go","Sham":0,"Color":"blue","trial_type":"pit-trial","trial_index":21,"time_elapsed":139866,"internal_node_id":"0.0-10.0","task_version":"test-retest-t2"},{"Rune":"rune_05_jeran","Hex":"#ffcc3399","Correct":-1,"Choice":-1,"RT":-1,"Accuracy":1,"Outcome":"-1","Keys":[],"TotalKeys":0,"Block":1,"Trial":7,"Robot":4,"Valence":"Lose","Action":"No-Go","Sham":0,"Color":"yellow","trial_type":"pit-trial","trial_index":22,"time_elapsed":143870,"internal_node_id":"0.0-11.0","task_version":"test-retest-t2"},{"Rune":"rune_05_gebo","Hex":"#ffcc3399","Correct":32,"Choice":32,"RT":378.58499999856576,"Accuracy":1,"Outcome":"-1","Keys":[1879.3099999893457],"TotalKeys":1,"Block":1,"Trial":8,"Robot":3,"Valence":"Lose","Action":"Go","Sham":0,"Color":"yellow","trial_type":"pit-trial","trial_index":23,"time_elapsed":146752,"internal_node_id":"0.0-12.0","task_version":"test-retest-t2"},{"Rune":"rune_05_jeran","Hex":"#ffcc3399","Correct":-1,"Choice":-1,"RT":-1,"Accuracy":1,"Outcome":"-1","Keys":[],"TotalKeys":0,"Block":1,"Trial":9,"Robot":4,"Valence":"Lose","Action":"No-Go","Sham":0,"Color":"yellow","trial_type":"pit-trial","trial_index":24,"time_elapsed":150756,"internal_node_id":"0.0-13.0","task_version":"test-retest-t2"},{"Rune":"rune_05_ior","Hex":"#3366ff99","Correct":-1,"Choice":-1,"RT":-1,"Accuracy":1,"Outcome":"+10","Keys":[],"TotalKeys":0,"Block":1,"Trial":10,"Robot":2,"Valence":"Win","Action":"No-Go","Sham":0,"Color":"blue","trial_type":"pit-trial","trial_index":25,"time_elapsed":154759,"internal_node_id":"0.0-14.0","task_version":"test-retest-t2"},{"Rune":"rune_05_gebo","Hex":"#ffcc3399","Correct":32,"Choice":32,"RT":623.8300000550225,"Accuracy":1,"Outcome":"-1","Keys":[2124.164999986533],"TotalKeys":1,"Block":1,"Trial":11,"Robot":3,"Valence":"Lose","Action":"Go","Sham":0,"Color":"yellow","trial_type":"pit-trial","trial_index":26,"time_elapsed":157886,"internal_node_id":"0.0-15.0","task_version":"test-retest-t2"},{"Rune":"rune_05_tiwaz","Hex":"#3366ff99","Correct":32,"Choice":32,"RT":599.1899999789894,"Accuracy":1,"Outcome":"+1","Keys":[2099.97999999905],"TotalKeys":1,"Block":1,"Trial":12,"Robot":1,"Valence":"Win","Action":"Go","Sham":1,"Color":"blue","trial_type":"pit-trial","trial_index":27,"time_elapsed":160988,"internal_node_id":"0.0-16.0","task_version":"test-retest-t2"},{"Rune":"rune_05_jeran","Hex":"#ffcc3399","Correct":-1,"Choice":32,"RT":436.95499998284504,"Accuracy":0,"Outcome":"-10","Keys":[1938.6700000031851],"TotalKeys":1,"Block":1,"Trial":13,"Robot":4,"Valence":"Lose","Action":"No-Go","Sham":0,"Color":"yellow","trial_type":"pit-trial","trial_index":28,"time_elapsed":163930,"internal_node_id":"0.0-17.0","task_version":"test-retest-t2"},{"Rune":"rune_05_ior","Hex":"#3366ff99","Correct":-1,"Choice":-1,"RT":-1,"Accuracy":1,"Outcome":"+10","Keys":[],"TotalKeys":0,"Block":1,"Trial":14,"Robot":2,"Valence":"Win","Action":"No-Go","Sham":0,"Color":"blue","trial_type":"pit-trial","trial_index":29,"time_elapsed":167934,"internal_node_id":"0.0-18.0","task_version":"test-retest-t2"},{"Rune":"rune_05_gebo","Hex":"#ffcc3399","Correct":32,"Choice":32,"RT":641.8749999720603,"Accuracy":1,"Outcome":"-10","Keys":[2142.470000020694],"TotalKeys":1,"Block":1,"Trial":15,"Robot":3,"Valence":"Lose","Action":"Go","Sham":1,"Color":"yellow","trial_type":"pit-trial","trial_index":30,"time_elapsed":171079,"internal_node_id":"0.0-19.0","task_version":"test-retest-t2"},{"Rune":"rune_05_tiwaz","Hex":"#3366ff99","Correct":32,"Choice":-1,"RT":-1,"Accuracy":0,"Outcome":"+1","Keys":[],"TotalKeys":0,"Block":1,"Trial":16,"Robot":1,"Valence":"Win","Action":"Go","Sham":0,"Color":"blue","trial_type":"pit-trial","trial_index":31,"time_elapsed":175083,"internal_node_id":"0.0-20.0","task_version":"test-retest-t2"},{"Rune":"rune_05_ior","Hex":"#3366ff99","Correct":-1,"Choice":-1,"RT":-1,"Accuracy":1,"Outcome":"+10","Keys":[],"TotalKeys":0,"Block":1,"Trial":17,"Robot":2,"Valence":"Win","Action":"No-Go","Sham":0,"Color":"blue","trial_type":"pit-trial","trial_index":32,"time_elapsed":179087,"internal_node_id":"0.0-21.0","task_version":"test-retest-t2"},{"Rune":"rune_05_gebo","Hex":"#ffcc3399","Correct":32,"Choice":32,"RT":580.7149999891408,"Accuracy":1,"Outcome":"-1","Keys":[2082.349999982398],"TotalKeys":1,"Block":1,"Trial":18,"Robot":3,"Valence":"Lose","Action":"Go","Sham":0,"Color":"yellow","trial_type":"pit-trial","trial_index":33,"time_elapsed":182172,"internal_node_id":"0.0-22.0","task_version":"test-retest-t2"},{"Rune":"rune_05_tiwaz","Hex":"#3366ff99","Correct":32,"Choice":32,"RT":766.6849999804981,"Accuracy":1,"Outcome":"+10","Keys":[2267.5700000254437],"TotalKeys":1,"Block":1,"Trial":19,"Robot":1,"Valence":"Win","Action":"Go","Sham":0,"Color":"blue","trial_type":"pit-trial","trial_index":34,"time_elapsed":185443,"internal_node_id":"0.0-23.0","task_version":"test-retest-t2"},{"Rune":"rune_05_jeran","Hex":"#ffcc3399","Correct":-1,"Choice":32,"RT":912.0800000382587,"Accuracy":0,"Outcome":"-1","Keys":[2413.914999982808],"TotalKeys":1,"Block":1,"Trial":20,"Robot":4,"Valence":"Lose","Action":"No-Go","Sham":1,"Color":"yellow","trial_type":"pit-trial","trial_index":35,"time_elapsed":188859,"internal_node_id":"0.0-24.0","task_version":"test-retest-t2"},{"Rune":"rune_05_tiwaz","Hex":"#3366ff99","Correct":32,"Choice":-1,"RT":-1,"Accuracy":0,"Outcome":"+1","Keys":[],"TotalKeys":0,"Block":1,"Trial":21,"Robot":1,"Valence":"Win","Action":"Go","Sham":0,"Color":"blue","trial_type":"pit-trial","trial_index":36,"time_elapsed":192862,"internal_node_id":"0.0-25.0","task_version":"test-retest-t2"},{"Rune":"rune_05_jeran","Hex":"#ffcc3399","Correct":-1,"Choice":-1,"RT":-1,"Accuracy":1,"Outcome":"-1","Keys":[],"TotalKeys":0,"Block":1,"Trial":22,"Robot":4,"Valence":"Lose","Action":"No-Go","Sham":0,"Color":"yellow","trial_type":"pit-trial","trial_index":37,"time_elapsed":196865,"internal_node_id":"0.0-26.0","task_version":"test-retest-t2"},{"Rune":"rune_05_ior","Hex":"#3366ff99","Correct":-1,"Choice":-1,"RT":-1,"Accuracy":1,"Outcome":"+10","Keys":[],"TotalKeys":0,"Block":1,"Trial":23,"Robot":2,"Valence":"Win","Action":"No-Go","Sham":0,"Color":"blue","trial_type":"pit-trial","trial_index":38,"time_elapsed":200868,"internal_node_id":"0.0-27.0","task_version":"test-retest-t2"},{"Rune":"rune_05_gebo","Hex":"#ffcc3399","Correct":32,"Choice":-1,"RT":-1,"Accuracy":0,"Outcome":"-10","Keys":[],"TotalKeys":0,"Block":1,"Trial":24,"Robot":3,"Valence":"Lose","Action":"Go","Sham":0,"Color":"yellow","trial_type":"pit-trial","trial_index":39,"time_elapsed":204873,"internal_node_id":"0.0-28.0","task_version":"test-retest-t2"},{"Rune":"rune_05_gebo","Hex":"#ffcc3399","Correct":32,"Choice":32,"RT":619.0050000441261,"Accuracy":1,"Outcome":"-10","Keys":[2119.7749999701045],"TotalKeys":1,"Block":1,"Trial":25,"Robot":3,"Valence":"Lose","Action":"Go","Sham":1,"Color":"yellow","trial_type":"pit-trial","trial_index":40,"time_elapsed":207996,"internal_node_id":"0.0-29.0","task_version":"test-retest-t2"},{"Rune":"rune_05_tiwaz","Hex":"#3366ff99","Correct":32,"Choice":32,"RT":699.3100000545382,"Accuracy":1,"Outcome":"+10","Keys":[2200.2700000302866],"TotalKeys":1,"Block":1,"Trial":26,"Robot":1,"Valence":"Win","Action":"Go","Sham":0,"Color":"blue","trial_type":"pit-trial","trial_index":41,"time_elapsed":211198,"internal_node_id":"0.0-30.0","task_version":"test-retest-t2"},{"Rune":"rune_05_ior","Hex":"#3366ff99","Correct":-1,"Choice":-1,"RT":-1,"Accuracy":1,"Outcome":"+10","Keys":[],"TotalKeys":0,"Block":1,"Trial":27,"Robot":2,"Valence":"Win","Action":"No-Go","Sham":0,"Color":"blue","trial_type":"pit-trial","trial_index":42,"time_elapsed":215202,"internal_node_id":"0.0-31.0","task_version":"test-retest-t2"},{"Rune":"rune_05_jeran","Hex":"#ffcc3399","Correct":-1,"Choice":32,"RT":1485.694999981206,"Accuracy":0,"Outcome":"-10","Keys":[2985.7799999881536],"TotalKeys":1,"Block":1,"Trial":28,"Robot":4,"Valence":"Lose","Action":"No-Go","Sham":0,"Color":"yellow","trial_type":"pit-trial","trial_index":43,"time_elapsed":219191,"internal_node_id":"0.0-32.0","task_version":"test-retest-t2"},{"Rune":"rune_05_tiwaz","Hex":"#3366ff99","Correct":32,"Choice":32,"RT":792.7200000267476,"Accuracy":1,"Outcome":"+1","Keys":[2293.660000024829],"TotalKeys":1,"Block":1,"Trial":29,"Robot":1,"Valence":"Win","Action":"Go","Sham":1,"Color":"blue","trial_type":"pit-trial","trial_index":44,"time_elapsed":222486,"internal_node_id":"0.0-33.0","task_version":"test-retest-t2"},{"Rune":"rune_05_ior","Hex":"#3366ff99","Correct":-1,"Choice":-1,"RT":-1,"Accuracy":1,"Outcome":"+10","Keys":[],"TotalKeys":0,"Block":1,"Trial":30,"Robot":2,"Valence":"Win","Action":"No-Go","Sham":0,"Color":"blue","trial_type":"pit-trial","trial_index":45,"time_elapsed":226490,"internal_node_id":"0.0-34.0","task_version":"test-retest-t2"},{"Rune":"rune_05_gebo","Hex":"#ffcc3399","Correct":32,"Choice":32,"RT":773.0999999912456,"Accuracy":1,"Outcome":"-1","Keys":[2273.9549999823794],"TotalKeys":1,"Block":1,"Trial":31,"Robot":3,"Valence":"Lose","Action":"Go","Sham":0,"Color":"yellow","trial_type":"pit-trial","trial_index":46,"time_elapsed":229766,"internal_node_id":"0.0-35.0","task_version":"test-retest-t2"},{"Rune":"rune_05_jeran","Hex":"#ffcc3399","Correct":-1,"Choice":-1,"RT":-1,"Accuracy":1,"Outcome":"-1","Keys":[],"TotalKeys":0,"Block":1,"Trial":32,"Robot":4,"Valence":"Lose","Action":"No-Go","Sham":0,"Color":"yellow","trial_type":"pit-trial","trial_index":47,"time_elapsed":233770,"internal_node_id":"0.0-36.0","task_version":"test-retest-t2"},{"Rune":"rune_05_jeran","Hex":"#ffcc3399","Correct":-1,"Choice":-1,"RT":-1,"Accuracy":1,"Outcome":"-10","Keys":[],"TotalKeys":0,"Block":1,"Trial":33,"Robot":4,"Valence":"Lose","Action":"No-Go","Sham":1,"Color":"yellow","trial_type":"pit-trial","trial_index":48,"time_elapsed":237772,"internal_node_id":"0.0-37.0","task_version":"test-retest-t2"},{"Rune":"rune_05_gebo","Hex":"#ffcc3399","Correct":32,"Choice":32,"RT":598.5099999816157,"Accuracy":1,"Outcome":"-1","Keys":[168.1949999765493,2099.2049999767914],"TotalKeys":2,"Block":1,"Trial":34,"Robot":3,"Valence":"Lose","Action":"Go","Sham":0,"Color":"yellow","trial_type":"pit-trial","trial_index":49,"time_elapsed":240873,"internal_node_id":"0.0-38.0","task_version":"test-retest-t2"},{"Rune":"rune_05_tiwaz","Hex":"#3366ff99","Correct":32,"Choice":32,"RT":754.9449999933131,"Accuracy":1,"Outcome":"+10","Keys":[2255.9849999961443],"TotalKeys":1,"Block":1,"Trial":35,"Robot":1,"Valence":"Win","Action":"Go","Sham":0,"Color":"blue","trial_type":"pit-trial","trial_index":50,"time_elapsed":244132,"internal_node_id":"0.0-39.0","task_version":"test-retest-t2"},{"Rune":"rune_05_ior","Hex":"#3366ff99","Correct":-1,"Choice":32,"RT":314.23499999800697,"Accuracy":0,"Outcome":"+1","Keys":[1814.9100000155158],"TotalKeys":1,"Block":1,"Trial":36,"Robot":2,"Valence":"Win","Action":"No-Go","Sham":0,"Color":"blue","trial_type":"pit-trial","trial_index":51,"time_elapsed":246949,"internal_node_id":"0.0-40.0","task_version":"test-retest-t2"},{"Rune":"rune_05_ior","Hex":"#3366ff99","Correct":-1,"Choice":32,"RT":441.274999990128,"Accuracy":0,"Outcome":"+10","Keys":[1943.135000008624],"TotalKeys":1,"Block":1,"Trial":37,"Robot":2,"Valence":"Win","Action":"No-Go","Sham":1,"Color":"blue","trial_type":"pit-trial","trial_index":52,"time_elapsed":249894,"internal_node_id":"0.0-41.0","task_version":"test-retest-t2"},{"Rune":"rune_05_gebo","Hex":"#ffcc3399","Correct":32,"Choice":32,"RT":816.7150000226684,"Accuracy":1,"Outcome":"-1","Keys":[2318.0150000262074],"TotalKeys":1,"Block":1,"Trial":38,"Robot":3,"Valence":"Lose","Action":"Go","Sham":0,"Color":"yellow","trial_type":"pit-trial","trial_index":53,"time_elapsed":253214,"internal_node_id":"0.0-42.0","task_version":"test-retest-t2"},{"Rune":"rune_05_tiwaz","Hex":"#3366ff99","Correct":32,"Choice":32,"RT":1101.569999998901,"Accuracy":1,"Outcome":"+10","Keys":[2601.9949999754317],"TotalKeys":1,"Block":1,"Trial":39,"Robot":1,"Valence":"Win","Action":"Go","Sham":0,"Color":"blue","trial_type":"pit-trial","trial_index":54,"time_elapsed":256818,"internal_node_id":"0.0-43.0","task_version":"test-retest-t2"},{"Rune":"rune_05_jeran","Hex":"#ffcc3399","Correct":-1,"Choice":-1,"RT":-1,"Accuracy":1,"Outcome":"-1","Keys":[],"TotalKeys":0,"Block":1,"Trial":40,"Robot":4,"Valence":"Lose","Action":"No-Go","Sham":0,"Color":"yellow","trial_type":"pit-trial","trial_index":55,"time_elapsed":260821,"internal_node_id":"0.0-44.0","task_version":"test-retest-t2"},{"Rune":"rune_05_tiwaz","Hex":"#3366ff99","Correct":32,"Choice":32,"RT":524.425000010524,"Accuracy":1,"Outcome":"+10","Keys":[2024.8300000093877],"TotalKeys":1,"Block":1,"Trial":41,"Robot":1,"Valence":"Win","Action":"Go","Sham":0,"Color":"blue","trial_type":"pit-trial","trial_index":56,"time_elapsed":263848,"internal_node_id":"0.0-45.0","task_version":"test-retest-t2"},{"Rune":"rune_05_ior","Hex":"#3366ff99","Correct":-1,"Choice":-1,"RT":-1,"Accuracy":1,"Outcome":"+10","Keys":[],"TotalKeys":0,"Block":1,"Trial":42,"Robot":2,"Valence":"Win","Action":"No-Go","Sham":0,"Color":"blue","trial_type":"pit-trial","trial_index":57,"time_elapsed":267851,"internal_node_id":"0.0-46.0","task_version":"test-retest-t2"},{"Rune":"rune_05_gebo","Hex":"#ffcc3399","Correct":32,"Choice":32,"RT":870.5550000304356,"Accuracy":1,"Outcome":"-1","Keys":[2372.014999971725],"TotalKeys":1,"Block":1,"Trial":43,"Robot":3,"Valence":"Lose","Action":"Go","Sham":0,"Color":"yellow","trial_type":"pit-trial","trial_index":58,"time_elapsed":271226,"internal_node_id":"0.0-47.0","task_version":"test-retest-t2"},{"Rune":"rune_05_jeran","Hex":"#ffcc3399","Correct":-1,"Choice":-1,"RT":-1,"Accuracy":1,"Outcome":"-1","Keys":[],"TotalKeys":0,"Block":1,"Trial":44,"Robot":4,"Valence":"Lose","Action":"No-Go","Sham":0,"Color":"yellow","trial_type":"pit-trial","trial_index":59,"time_elapsed":275228,"internal_node_id":"0.0-48.0","task_version":"test-retest-t2"},{"Rune":"rune_05_gebo","Hex":"#ffcc3399","Correct":32,"Choice":32,"RT":866.7950000381097,"Accuracy":1,"Outcome":"-1","Keys":[2367.87000001641],"TotalKeys":1,"Block":1,"Trial":45,"Robot":3,"Valence":"Lose","Action":"Go","Sham":0,"Color":"yellow","trial_type":"pit-trial","trial_index":60,"time_elapsed":278597,"internal_node_id":"0.0-49.0","task_version":"test-retest-t2"},{"Rune":"rune_05_ior","Hex":"#3366ff99","Correct":-1,"Choice":-1,"RT":-1,"Accuracy":1,"Outcome":"+10","Keys":[],"TotalKeys":0,"Block":1,"Trial":46,"Robot":2,"Valence":"Win","Action":"No-Go","Sham":0,"Color":"blue","trial_type":"pit-trial","trial_index":61,"time_elapsed":282601,"internal_node_id":"0.0-50.0","task_version":"test-retest-t2"},{"Rune":"rune_05_tiwaz","Hex":"#3366ff99","Correct":32,"Choice":32,"RT":446.50499999988824,"Accuracy":1,"Outcome":"+10","Keys":[1948.0050000129268],"TotalKeys":1,"Block":1,"Trial":47,"Robot":1,"Valence":"Win","Action":"Go","Sham":0,"Color":"blue","trial_type":"pit-trial","trial_index":62,"time_elapsed":285551,"internal_node_id":"0.0-51.0","task_version":"test-retest-t2"},{"Rune":"rune_05_jeran","Hex":"#ffcc3399","Correct":-1,"Choice":-1,"RT":-1,"Accuracy":1,"Outcome":"-1","Keys":[],"TotalKeys":0,"Block":1,"Trial":48,"Robot":4,"Valence":"Lose","Action":"No-Go","Sham":0,"Color":"yellow","trial_type":"pit-trial","trial_index":63,"time_elapsed":289556,"internal_node_id":"0.0-52.0","task_version":"test-retest-t2"},{"Rune":"rune_05_jeran","Hex":"#ffcc3399","Correct":-1,"Choice":-1,"RT":-1,"Accuracy":1,"Outcome":"-1","Keys":[],"TotalKeys":0,"Block":1,"Trial":49,"Robot":4,"Valence":"Lose","Action":"No-Go","Sham":0,"Color":"yellow","trial_type":"pit-trial","trial_index":64,"time_elapsed":293559,"internal_node_id":"0.0-53.0","task_version":"test-retest-t2"},{"Rune":"rune_05_ior","Hex":"#3366ff99","Correct":-1,"Choice":-1,"RT":-1,"Accuracy":1,"Outcome":"+1","Keys":[],"TotalKeys":0,"Block":1,"Trial":50,"Robot":2,"Valence":"Win","Action":"No-Go","Sham":1,"Color":"blue","trial_type":"pit-trial","trial_index":65,"time_elapsed":297564,"internal_node_id":"0.0-54.0","task_version":"test-retest-t2"},{"Rune":"rune_05_tiwaz","Hex":"#3366ff99","Correct":32,"Choice":32,"RT":411.28000000026077,"Accuracy":1,"Outcome":"+10","Keys":[1911.774999985937],"TotalKeys":1,"Block":1,"Trial":51,"Robot":1,"Valence":"Win","Action":"Go","Sham":0,"Color":"blue","trial_type":"pit-trial","trial_index":66,"time_elapsed":300478,"internal_node_id":"0.0-55.0","task_version":"test-retest-t2"},{"Rune":"rune_05_gebo","Hex":"#ffcc3399","Correct":32,"Choice":32,"RT":1289.9650000035763,"Accuracy":1,"Outcome":"-1","Keys":[2790.5899999896064],"TotalKeys":1,"Block":1,"Trial":52,"Robot":3,"Valence":"Lose","Action":"Go","Sham":0,"Color":"yellow","trial_type":"pit-trial","trial_index":67,"time_elapsed":304271,"internal_node_id":"0.0-56.0","task_version":"test-retest-t2"},{"Rune":"rune_05_tiwaz","Hex":"#3366ff99","Correct":32,"Choice":32,"RT":595.2849999885075,"Accuracy":1,"Outcome":"+10","Keys":[2095.450000022538],"TotalKeys":1,"Block":1,"Trial":53,"Robot":1,"Valence":"Win","Action":"Go","Sham":0,"Color":"blue","trial_type":"pit-trial","trial_index":68,"time_elapsed":307369,"internal_node_id":"0.0-57.0","task_version":"test-retest-t2"},{"Rune":"rune_05_ior","Hex":"#3366ff99","Correct":-1,"Choice":-1,"RT":-1,"Accuracy":1,"Outcome":"+10","Keys":[],"TotalKeys":0,"Block":1,"Trial":54,"Robot":2,"Valence":"Win","Action":"No-Go","Sham":0,"Color":"blue","trial_type":"pit-trial","trial_index":69,"time_elapsed":311371,"internal_node_id":"0.0-58.0","task_version":"test-retest-t2"},{"Rune":"rune_05_jeran","Hex":"#ffcc3399","Correct":-1,"Choice":-1,"RT":-1,"Accuracy":1,"Outcome":"-10","Keys":[],"TotalKeys":0,"Block":1,"Trial":55,"Robot":4,"Valence":"Lose","Action":"No-Go","Sham":1,"Color":"yellow","trial_type":"pit-trial","trial_index":70,"time_elapsed":315373,"internal_node_id":"0.0-59.0","task_version":"test-retest-t2"},{"Rune":"rune_05_gebo","Hex":"#ffcc3399","Correct":32,"Choice":32,"RT":573.7500000395812,"Accuracy":1,"Outcome":"-10","Keys":[2074.5350000215694],"TotalKeys":1,"Block":1,"Trial":56,"Robot":3,"Valence":"Lose","Action":"Go","Sham":1,"Color":"yellow","trial_type":"pit-trial","trial_index":71,"time_elapsed":318450,"internal_node_id":"0.0-60.0","task_version":"test-retest-t2"},{"Rune":"rune_05_ior","Hex":"#3366ff99","Correct":-1,"Choice":-1,"RT":-1,"Accuracy":1,"Outcome":"+10","Keys":[],"TotalKeys":0,"Block":1,"Trial":57,"Robot":2,"Valence":"Win","Action":"No-Go","Sham":0,"Color":"blue","trial_type":"pit-trial","trial_index":72,"time_elapsed":322453,"internal_node_id":"0.0-61.0","task_version":"test-retest-t2"},{"Rune":"rune_05_gebo","Hex":"#ffcc3399","Correct":32,"Choice":32,"RT":567.2400000039488,"Accuracy":1,"Outcome":"-1","Keys":[2067.505000042729],"TotalKeys":1,"Block":1,"Trial":58,"Robot":3,"Valence":"Lose","Action":"Go","Sham":0,"Color":"yellow","trial_type":"pit-trial","trial_index":73,"time_elapsed":325523,"internal_node_id":"0.0-62.0","task_version":"test-retest-t2"},{"Rune":"rune_05_tiwaz","Hex":"#3366ff99","Correct":32,"Choice":32,"RT":462.77500002179295,"Accuracy":1,"Outcome":"+1","Keys":[1963.7499999953434],"TotalKeys":1,"Block":1,"Trial":59,"Robot":1,"Valence":"Win","Action":"Go","Sham":1,"Color":"blue","trial_type":"pit-trial","trial_index":74,"time_elapsed":328488,"internal_node_id":"0.0-63.0","task_version":"test-retest-t2"},{"Rune":"rune_05_jeran","Hex":"#ffcc3399","Correct":-1,"Choice":-1,"RT":-1,"Accuracy":1,"Outcome":"-1","Keys":[],"TotalKeys":0,"Block":1,"Trial":60,"Robot":4,"Valence":"Lose","Action":"No-Go","Sham":0,"Color":"yellow","trial_type":"pit-trial","trial_index":75,"time_elapsed":332491,"internal_node_id":"0.0-64.0","task_version":"test-retest-t2"},{"value":false,"trial_type":"call-function","trial_index":76,"time_elapsed":332492,"internal_node_id":"0.0-65.0","task_version":"test-retest-t2"},{"view_history":"[{\"page_index\":0,\"viewing_time\":2384.729999990668},{\"page_index\":1,\"viewing_time\":946.4300000108778}]","rt":3331.449999997858,"trial_type":"pit-instructions","trial_index":77,"time_elapsed":335824,"internal_node_id":"0.0-66.0","task_version":"test-retest-t2"},{"Rune":"rune_05_gebo","Hex":"#ffcc3399","Correct":32,"Choice":32,"RT":549.1950000287034,"Accuracy":1,"Outcome":"-1","Keys":[2050.730000017211],"TotalKeys":1,"Block":1,"Trial":61,"Robot":3,"Valence":"Lose","Action":"Go","Sham":0,"Color":"yellow","trial_type":"pit-trial","trial_index":78,"time_elapsed":338879,"internal_node_id":"0.0-67.0","task_version":"test-retest-t2"},{"Rune":"rune_05_jeran","Hex":"#ffcc3399","Correct":-1,"Choice":-1,"RT":-1,"Accuracy":1,"Outcome":"-1","Keys":[],"TotalKeys":0,"Block":1,"Trial":62,"Robot":4,"Valence":"Lose","Action":"No-Go","Sham":0,"Color":"yellow","trial_type":"pit-trial","trial_index":79,"time_elapsed":342883,"internal_node_id":"0.0-68.0","task_version":"test-retest-t2"},{"Rune":"rune_05_ior","Hex":"#3366ff99","Correct":-1,"Choice":-1,"RT":-1,"Accuracy":1,"Outcome":"+1","Keys":[],"TotalKeys":0,"Block":1,"Trial":63,"Robot":2,"Valence":"Win","Action":"No-Go","Sham":1,"Color":"blue","trial_type":"pit-trial","trial_index":80,"time_elapsed":346889,"internal_node_id":"0.0-69.0","task_version":"test-retest-t2"},{"Rune":"rune_05_tiwaz","Hex":"#3366ff99","Correct":32,"Choice":32,"RT":369.6500000078231,"Accuracy":1,"Outcome":"+10","Keys":[1870.48500002129],"TotalKeys":1,"Block":1,"Trial":64,"Robot":1,"Valence":"Win","Action":"Go","Sham":0,"Color":"blue","trial_type":"pit-trial","trial_index":81,"time_elapsed":349763,"internal_node_id":"0.0-70.0","task_version":"test-retest-t2"},{"Rune":"rune_05_tiwaz","Hex":"#3366ff99","Correct":32,"Choice":32,"RT":564.2450000159442,"Accuracy":1,"Outcome":"+10","Keys":[2064.8550000041723],"TotalKeys":1,"Block":1,"Trial":65,"Robot":1,"Valence":"Win","Action":"Go","Sham":0,"Color":"blue","trial_type":"pit-trial","trial_index":82,"time_elapsed":352831,"internal_node_id":"0.0-71.0","task_version":"test-retest-t2"},{"Rune":"rune_05_gebo","Hex":"#ffcc3399","Correct":32,"Choice":32,"RT":577.5949999806471,"Accuracy":1,"Outcome":"-1","Keys":[2077.7149999630637],"TotalKeys":1,"Block":1,"Trial":66,"Robot":3,"Valence":"Lose","Action":"Go","Sham":0,"Color":"yellow","trial_type":"pit-trial","trial_index":83,"time_elapsed":355911,"internal_node_id":"0.0-72.0","task_version":"test-retest-t2"},{"Rune":"rune_05_jeran","Hex":"#ffcc3399","Correct":-1,"Choice":-1,"RT":-1,"Accuracy":1,"Outcome":"-1","Keys":[],"TotalKeys":0,"Block":1,"Trial":67,"Robot":4,"Valence":"Lose","Action":"No-Go","Sham":0,"Color":"yellow","trial_type":"pit-trial","trial_index":84,"time_elapsed":359914,"internal_node_id":"0.0-73.0","task_version":"test-retest-t2"},{"Rune":"rune_05_ior","Hex":"#3366ff99","Correct":-1,"Choice":-1,"RT":-1,"Accuracy":1,"Outcome":"+10","Keys":[],"TotalKeys":0,"Block":1,"Trial":68,"Robot":2,"Valence":"Win","Action":"No-Go","Sham":0,"Color":"blue","trial_type":"pit-trial","trial_index":85,"time_elapsed":363917,"internal_node_id":"0.0-74.0","task_version":"test-retest-t2"},{"Rune":"rune_05_ior","Hex":"#3366ff99","Correct":-1,"Choice":-1,"RT":-1,"Accuracy":1,"Outcome":"+10","Keys":[],"TotalKeys":0,"Block":1,"Trial":69,"Robot":2,"Valence":"Win","Action":"No-Go","Sham":0,"Color":"blue","trial_type":"pit-trial","trial_index":86,"time_elapsed":367920,"internal_node_id":"0.0-75.0","task_version":"test-retest-t2"},{"Rune":"rune_05_tiwaz","Hex":"#3366ff99","Correct":32,"Choice":32,"RT":714.1350000165403,"Accuracy":1,"Outcome":"+10","Keys":[2214.8850000230595],"TotalKeys":1,"Block":1,"Trial":70,"Robot":1,"Valence":"Win","Action":"Go","Sham":0,"Color":"blue","trial_type":"pit-trial","trial_index":87,"time_elapsed":371138,"internal_node_id":"0.0-76.0","task_version":"test-retest-t2"},{"Rune":"rune_05_gebo","Hex":"#ffcc3399","Correct":32,"Choice":32,"RT":432.5400000088848,"Accuracy":1,"Outcome":"-1","Keys":[1932.6000000000931],"TotalKeys":1,"Block":1,"Trial":71,"Robot":3,"Valence":"Lose","Action":"Go","Sham":0,"Color":"yellow","trial_type":"pit-trial","trial_index":88,"time_elapsed":374073,"internal_node_id":"0.0-77.0","task_version":"test-retest-t2"},{"Rune":"rune_05_jeran","Hex":"#ffcc3399","Correct":-1,"Choice":-1,"RT":-1,"Accuracy":1,"Outcome":"-1","Keys":[],"TotalKeys":0,"Block":1,"Trial":72,"Robot":4,"Valence":"Lose","Action":"No-Go","Sham":0,"Color":"yellow","trial_type":"pit-trial","trial_index":89,"time_elapsed":378076,"internal_node_id":"0.0-78.0","task_version":"test-retest-t2"},{"Rune":"rune_05_tiwaz","Hex":"#3366ff99","Correct":32,"Choice":32,"RT":600.9649999905378,"Accuracy":1,"Outcome":"+1","Keys":[2101.0549999773502],"TotalKeys":1,"Block":1,"Trial":73,"Robot":1,"Valence":"Win","Action":"Go","Sham":1,"Color":"blue","trial_type":"pit-trial","trial_index":90,"time_elapsed":381179,"internal_node_id":"0.0-79.0","task_version":"test-retest-t2"},{"Rune":"rune_05_ior","Hex":"#3366ff99","Correct":-1,"Choice":-1,"RT":-1,"Accuracy":1,"Outcome":"+10","Keys":[],"TotalKeys":0,"Block":1,"Trial":74,"Robot":2,"Valence":"Win","Action":"No-Go","Sham":0,"Color":"blue","trial_type":"pit-trial","trial_index":91,"time_elapsed":385183,"internal_node_id":"0.0-80.0","task_version":"test-retest-t2"},{"Rune":"rune_05_gebo","Hex":"#ffcc3399","Correct":32,"Choice":32,"RT":397.0299999928102,"Accuracy":1,"Outcome":"-10","Keys":[1897.7000000304542],"TotalKeys":1,"Block":1,"Trial":75,"Robot":3,"Valence":"Lose","Action":"Go","Sham":1,"Color":"yellow","trial_type":"pit-trial","trial_index":92,"time_elapsed":388083,"internal_node_id":"0.0-81.0","task_version":"test-retest-t2"},{"Rune":"rune_05_jeran","Hex":"#ffcc3399","Correct":-1,"Choice":-1,"RT":-1,"Accuracy":1,"Outcome":"-10","Keys":[],"TotalKeys":0,"Block":1,"Trial":76,"Robot":4,"Valence":"Lose","Action":"No-Go","Sham":1,"Color":"yellow","trial_type":"pit-trial","trial_index":93,"time_elapsed":392087,"internal_node_id":"0.0-82.0","task_version":"test-retest-t2"},{"Rune":"rune_05_ior","Hex":"#3366ff99","Correct":-1,"Choice":32,"RT":452.4700000183657,"Accuracy":0,"Outcome":"+1","Keys":[1953.1699999934062],"TotalKeys":1,"Block":1,"Trial":77,"Robot":2,"Valence":"Win","Action":"No-Go","Sham":0,"Color":"blue","trial_type":"pit-trial","trial_index":94,"time_elapsed":395042,"internal_node_id":"0.0-83.0","task_version":"test-retest-t2"},{"Rune":"rune_05_jeran","Hex":"#ffcc3399","Correct":-1,"Choice":-1,"RT":-1,"Accuracy":1,"Outcome":"-1","Keys":[],"TotalKeys":0,"Block":1,"Trial":78,"Robot":4,"Valence":"Lose","Action":"No-Go","Sham":0,"Color":"yellow","trial_type":"pit-trial","trial_index":95,"time_elapsed":399047,"internal_node_id":"0.0-84.0","task_version":"test-retest-t2"},{"Rune":"rune_05_gebo","Hex":"#ffcc3399","Correct":32,"Choice":32,"RT":503.1650000018999,"Accuracy":1,"Outcome":"-1","Keys":[2003.5149999894202],"TotalKeys":1,"Block":1,"Trial":79,"Robot":3,"Valence":"Lose","Action":"Go","Sham":0,"Color":"yellow","trial_type":"pit-trial","trial_index":96,"time_elapsed":402055,"internal_node_id":"0.0-85.0","task_version":"test-retest-t2"},{"Rune":"rune_05_tiwaz","Hex":"#3366ff99","Correct":32,"Choice":32,"RT":417.23500000080094,"Accuracy":1,"Outcome":"+10","Keys":[1918.1500000413507],"TotalKeys":1,"Block":1,"Trial":80,"Robot":1,"Valence":"Win","Action":"Go","Sham":0,"Color":"blue","trial_type":"pit-trial","trial_index":97,"time_elapsed":404975,"internal_node_id":"0.0-86.0","task_version":"test-retest-t2"},{"Rune":"rune_05_ior","Hex":"#3366ff99","Correct":-1,"Choice":32,"RT":389.8900000494905,"Accuracy":0,"Outcome":"+1","Keys":[1890.8400000073016],"TotalKeys":1,"Block":1,"Trial":81,"Robot":2,"Valence":"Win","Action":"No-Go","Sham":0,"Color":"blue","trial_type":"pit-trial","trial_index":98,"time_elapsed":407869,"internal_node_id":"0.0-87.0","task_version":"test-retest-t2"},{"Rune":"rune_05_gebo","Hex":"#ffcc3399","Correct":32,"Choice":32,"RT":465.9550000214949,"Accuracy":1,"Outcome":"-1","Keys":[1966.7549999430776],"TotalKeys":1,"Block":1,"Trial":82,"Robot":3,"Valence":"Lose","Action":"Go","Sham":0,"Color":"yellow","trial_type":"pit-trial","trial_index":99,"time_elapsed":410839,"internal_node_id":"0.0-88.0","task_version":"test-retest-t2"},{"Rune":"rune_05_tiwaz","Hex":"#3366ff99","Correct":32,"Choice":32,"RT":722.7350000175647,"Accuracy":1,"Outcome":"+10","Keys":[2223.340000025928],"TotalKeys":1,"Block":1,"Trial":83,"Robot":1,"Valence":"Win","Action":"Go","Sham":0,"Color":"blue","trial_type":"pit-trial","trial_index":100,"time_elapsed":414064,"internal_node_id":"0.0-89.0","task_version":"test-retest-t2"},{"Rune":"rune_05_jeran","Hex":"#ffcc3399","Correct":-1,"Choice":-1,"RT":-1,"Accuracy":1,"Outcome":"-1","Keys":[],"TotalKeys":0,"Block":1,"Trial":84,"Robot":4,"Valence":"Lose","Action":"No-Go","Sham":0,"Color":"yellow","trial_type":"pit-trial","trial_index":101,"time_elapsed":418067,"internal_node_id":"0.0-90.0","task_version":"test-retest-t2"},{"Rune":"rune_05_jeran","Hex":"#ffcc3399","Correct":-1,"Choice":-1,"RT":-1,"Accuracy":1,"Outcome":"-10","Keys":[],"TotalKeys":0,"Block":1,"Trial":85,"Robot":4,"Valence":"Lose","Action":"No-Go","Sham":1,"Color":"yellow","trial_type":"pit-trial","trial_index":102,"time_elapsed":422072,"internal_node_id":"0.0-91.0","task_version":"test-retest-t2"},{"Rune":"rune_05_gebo","Hex":"#ffcc3399","Correct":32,"Choice":32,"RT":350.77499999897555,"Accuracy":1,"Outcome":"-10","Keys":[1852.149999991525],"TotalKeys":1,"Block":1,"Trial":86,"Robot":3,"Valence":"Lose","Action":"Go","Sham":1,"Color":"yellow","trial_type":"pit-trial","trial_index":103,"time_elapsed":424926,"internal_node_id":"0.0-92.0","task_version":"test-retest-t2"},{"Rune":"rune_05_ior","Hex":"#3366ff99","Correct":-1,"Choice":-1,"RT":-1,"Accuracy":1,"Outcome":"+10","Keys":[],"TotalKeys":0,"Block":1,"Trial":87,"Robot":2,"Valence":"Win","Action":"No-Go","Sham":0,"Color":"blue","trial_type":"pit-trial","trial_index":104,"time_elapsed":428929,"internal_node_id":"0.0-93.0","task_version":"test-retest-t2"},{"Rune":"rune_05_tiwaz","Hex":"#3366ff99","Correct":32,"Choice":32,"RT":337.7650000038557,"Accuracy":1,"Outcome":"+10","Keys":[1838.8099999865517],"TotalKeys":1,"Block":1,"Trial":88,"Robot":1,"Valence":"Win","Action":"Go","Sham":0,"Color":"blue","trial_type":"pit-trial","trial_index":105,"time_elapsed":431770,"internal_node_id":"0.0-94.0","task_version":"test-retest-t2"},{"Rune":"rune_05_gebo","Hex":"#ffcc3399","Correct":32,"Choice":32,"RT":418.390000006184,"Accuracy":1,"Outcome":"-1","Keys":[1919.2249999614432],"TotalKeys":1,"Block":1,"Trial":89,"Robot":3,"Valence":"Lose","Action":"Go","Sham":0,"Color":"yellow","trial_type":"pit-trial","trial_index":106,"time_elapsed":434691,"internal_node_id":"0.0-95.0","task_version":"test-retest-t2"},{"Rune":"rune_05_ior","Hex":"#3366ff99","Correct":-1,"Choice":-1,"RT":-1,"Accuracy":1,"Outcome":"+10","Keys":[],"TotalKeys":0,"Block":1,"Trial":90,"Robot":2,"Valence":"Win","Action":"No-Go","Sham":0,"Color":"blue","trial_type":"pit-trial","trial_index":107,"time_elapsed":438695,"internal_node_id":"0.0-96.0","task_version":"test-retest-t2"},{"Rune":"rune_05_tiwaz","Hex":"#3366ff99","Correct":32,"Choice":32,"RT":392.6249999785796,"Accuracy":1,"Outcome":"+10","Keys":[1893.625000026077],"TotalKeys":1,"Block":1,"Trial":91,"Robot":1,"Valence":"Win","Action":"Go","Sham":0,"Color":"blue","trial_type":"pit-trial","trial_index":108,"time_elapsed":441591,"internal_node_id":"0.0-97.0","task_version":"test-retest-t2"},{"Rune":"rune_05_jeran","Hex":"#ffcc3399","Correct":-1,"Choice":-1,"RT":-1,"Accuracy":1,"Outcome":"-1","Keys":[],"TotalKeys":0,"Block":1,"Trial":92,"Robot":4,"Valence":"Lose","Action":"No-Go","Sham":0,"Color":"yellow","trial_type":"pit-trial","trial_index":109,"time_elapsed":445595,"internal_node_id":"0.0-98.0","task_version":"test-retest-t2"},{"Rune":"rune_05_jeran","Hex":"#ffcc3399","Correct":-1,"Choice":-1,"RT":-1,"Accuracy":1,"Outcome":"-1","Keys":[],"TotalKeys":0,"Block":1,"Trial":93,"Robot":4,"Valence":"Lose","Action":"No-Go","Sham":0,"Color":"yellow","trial_type":"pit-trial","trial_index":110,"time_elapsed":449599,"internal_node_id":"0.0-99.0","task_version":"test-retest-t2"},{"Rune":"rune_05_tiwaz","Hex":"#3366ff99","Correct":32,"Choice":32,"RT":373.04999999469146,"Accuracy":1,"Outcome":"+10","Keys":[1873.9599999971688],"TotalKeys":1,"Block":1,"Trial":94,"Robot":1,"Valence":"Win","Action":"Go","Sham":0,"Color":"blue","trial_type":"pit-trial","trial_index":111,"time_elapsed":452476,"internal_node_id":"0.0-100.0","task_version":"test-retest-t2"},{"Rune":"rune_05_gebo","Hex":"#ffcc3399","Correct":32,"Choice":32,"RT":502.66500003635883,"Accuracy":1,"Outcome":"-1","Keys":[2003.8599999970756],"TotalKeys":1,"Block":1,"Trial":95,"Robot":3,"Valence":"Lose","Action":"Go","Sham":0,"Color":"yellow","trial_type":"pit-trial","trial_index":112,"time_elapsed":455483,"internal_node_id":"0.0-101.0","task_version":"test-retest-t2"},{"Rune":"rune_05_ior","Hex":"#3366ff99","Correct":-1,"Choice":-1,"RT":-1,"Accuracy":1,"Outcome":"+10","Keys":[],"TotalKeys":0,"Block":1,"Trial":96,"Robot":2,"Valence":"Win","Action":"No-Go","Sham":0,"Color":"blue","trial_type":"pit-trial","trial_index":113,"time_elapsed":459486,"internal_node_id":"0.0-102.0","task_version":"test-retest-t2"},{"Rune":"rune_05_gebo","Hex":"#ffcc3399","Correct":32,"Choice":32,"RT":399.68500001123175,"Accuracy":1,"Outcome":"-1","Keys":[1900.5149999866262],"TotalKeys":1,"Block":1,"Trial":97,"Robot":3,"Valence":"Lose","Action":"Go","Sham":0,"Color":"yellow","trial_type":"pit-trial","trial_index":114,"time_elapsed":462389,"internal_node_id":"0.0-103.0","task_version":"test-retest-t2"},{"Rune":"rune_05_tiwaz","Hex":"#3366ff99","Correct":32,"Choice":32,"RT":790.0849999859929,"Accuracy":1,"Outcome":"+1","Keys":[2290.900000021793],"TotalKeys":1,"Block":1,"Trial":98,"Robot":1,"Valence":"Win","Action":"Go","Sham":1,"Color":"blue","trial_type":"pit-trial","trial_index":115,"time_elapsed":465681,"internal_node_id":"0.0-104.0","task_version":"test-retest-t2"},{"Rune":"rune_05_ior","Hex":"#3366ff99","Correct":-1,"Choice":-1,"RT":-1,"Accuracy":1,"Outcome":"+1","Keys":[],"TotalKeys":0,"Block":1,"Trial":99,"Robot":2,"Valence":"Win","Action":"No-Go","Sham":1,"Color":"blue","trial_type":"pit-trial","trial_index":116,"time_elapsed":469685,"internal_node_id":"0.0-105.0","task_version":"test-retest-t2"},{"Rune":"rune_05_jeran","Hex":"#ffcc3399","Correct":-1,"Choice":-1,"RT":-1,"Accuracy":1,"Outcome":"-1","Keys":[],"TotalKeys":0,"Block":1,"Trial":100,"Robot":4,"Valence":"Lose","Action":"No-Go","Sham":0,"Color":"yellow","trial_type":"pit-trial","trial_index":117,"time_elapsed":473689,"internal_node_id":"0.0-106.0","task_version":"test-retest-t2"},{"Rune":"rune_05_jeran","Hex":"#ffcc3399","Correct":-1,"Choice":-1,"RT":-1,"Accuracy":1,"Outcome":"-1","Keys":[],"TotalKeys":0,"Block":1,"Trial":101,"Robot":4,"Valence":"Lose","Action":"No-Go","Sham":0,"Color":"yellow","trial_type":"pit-trial","trial_index":118,"time_elapsed":477693,"internal_node_id":"0.0-107.0","task_version":"test-retest-t2"},{"Rune":"rune_05_gebo","Hex":"#ffcc3399","Correct":32,"Choice":32,"RT":452.8799999970943,"Accuracy":1,"Outcome":"-10","Keys":[1954.4199999654666],"TotalKeys":1,"Block":1,"Trial":102,"Robot":3,"Valence":"Lose","Action":"Go","Sham":1,"Color":"yellow","trial_type":"pit-trial","trial_index":119,"time_elapsed":480649,"internal_node_id":"0.0-108.0","task_version":"test-retest-t2"},{"Rune":"rune_05_tiwaz","Hex":"#3366ff99","Correct":32,"Choice":32,"RT":377.9000000213273,"Accuracy":1,"Outcome":"+10","Keys":[1878.6899999831803],"TotalKeys":1,"Block":1,"Trial":103,"Robot":1,"Valence":"Win","Action":"Go","Sham":0,"Color":"blue","trial_type":"pit-trial","trial_index":120,"time_elapsed":483530,"internal_node_id":"0.0-109.0","task_version":"test-retest-t2"},{"Rune":"rune_05_ior","Hex":"#3366ff99","Correct":-1,"Choice":-1,"RT":-1,"Accuracy":1,"Outcome":"+10","Keys":[],"TotalKeys":0,"Block":1,"Trial":104,"Robot":2,"Valence":"Win","Action":"No-Go","Sham":0,"Color":"blue","trial_type":"pit-trial","trial_index":121,"time_elapsed":487533,"internal_node_id":"0.0-110.0","task_version":"test-retest-t2"},{"Rune":"rune_05_tiwaz","Hex":"#3366ff99","Correct":32,"Choice":32,"RT":278.2850000075996,"Accuracy":1,"Outcome":"+10","Keys":[1780.190000019502],"TotalKeys":1,"Block":1,"Trial":105,"Robot":1,"Valence":"Win","Action":"Go","Sham":0,"Color":"blue","trial_type":"pit-trial","trial_index":122,"time_elapsed":490316,"internal_node_id":"0.0-111.0","task_version":"test-retest-t2"},{"Rune":"rune_05_ior","Hex":"#3366ff99","Correct":-1,"Choice":-1,"RT":-1,"Accuracy":1,"Outcome":"+1","Keys":[],"TotalKeys":0,"Block":1,"Trial":106,"Robot":2,"Valence":"Win","Action":"No-Go","Sham":1,"Color":"blue","trial_type":"pit-trial","trial_index":123,"time_elapsed":494319,"internal_node_id":"0.0-112.0","task_version":"test-retest-t2"},{"Rune":"rune_05_jeran","Hex":"#ffcc3399","Correct":-1,"Choice":-1,"RT":-1,"Accuracy":1,"Outcome":"-1","Keys":[],"TotalKeys":0,"Block":1,"Trial":107,"Robot":4,"Valence":"Lose","Action":"No-Go","Sham":0,"Color":"yellow","trial_type":"pit-trial","trial_index":124,"time_elapsed":498322,"internal_node_id":"0.0-113.0","task_version":"test-retest-t2"},{"Rune":"rune_05_gebo","Hex":"#ffcc3399","Correct":32,"Choice":32,"RT":416.7850000085309,"Accuracy":1,"Outcome":"-1","Keys":[1917.0799999847077],"TotalKeys":1,"Block":1,"Trial":108,"Robot":3,"Valence":"Lose","Action":"Go","Sham":0,"Color":"yellow","trial_type":"pit-trial","trial_index":125,"time_elapsed":501242,"internal_node_id":"0.0-114.0","task_version":"test-retest-t2"},{"Rune":"rune_05_ior","Hex":"#3366ff99","Correct":-1,"Choice":-1,"RT":-1,"Accuracy":1,"Outcome":"+10","Keys":[],"TotalKeys":0,"Block":1,"Trial":109,"Robot":2,"Valence":"Win","Action":"No-Go","Sham":0,"Color":"blue","trial_type":"pit-trial","trial_index":126,"time_elapsed":505246,"internal_node_id":"0.0-115.0","task_version":"test-retest-t2"},{"Rune":"rune_05_jeran","Hex":"#ffcc3399","Correct":-1,"Choice":-1,"RT":-1,"Accuracy":1,"Outcome":"-1","Keys":[],"TotalKeys":0,"Block":1,"Trial":110,"Robot":4,"Valence":"Lose","Action":"No-Go","Sham":0,"Color":"yellow","trial_type":"pit-trial","trial_index":127,"time_elapsed":509251,"internal_node_id":"0.0-116.0","task_version":"test-retest-t2"},{"Rune":"rune_05_tiwaz","Hex":"#3366ff99","Correct":32,"Choice":32,"RT":270.40500001749024,"Accuracy":1,"Outcome":"+1","Keys":[1771.999999997206],"TotalKeys":1,"Block":1,"Trial":111,"Robot":1,"Valence":"Win","Action":"Go","Sham":1,"Color":"blue","trial_type":"pit-trial","trial_index":128,"time_elapsed":512025,"internal_node_id":"0.0-117.0","task_version":"test-retest-t2"},{"Rune":"rune_05_gebo","Hex":"#ffcc3399","Correct":32,"Choice":32,"RT":436.54500000411645,"Accuracy":1,"Outcome":"-1","Keys":[1938.0050000036135],"TotalKeys":1,"Block":1,"Trial":112,"Robot":3,"Valence":"Lose","Action":"Go","Sham":0,"Color":"yellow","trial_type":"pit-trial","trial_index":129,"time_elapsed":514965,"internal_node_id":"0.0-118.0","task_version":"test-retest-t2"},{"Rune":"rune_05_jeran","Hex":"#ffcc3399","Correct":-1,"Choice":-1,"RT":-1,"Accuracy":1,"Outcome":"-10","Keys":[],"TotalKeys":0,"Block":1,"Trial":113,"Robot":4,"Valence":"Lose","Action":"No-Go","Sham":1,"Color":"yellow","trial_type":"pit-trial","trial_index":130,"time_elapsed":518969,"internal_node_id":"0.0-119.0","task_version":"test-retest-t2"},{"Rune":"rune_05_ior","Hex":"#3366ff99","Correct":-1,"Choice":-1,"RT":-1,"Accuracy":1,"Outcome":"+10","Keys":[],"TotalKeys":0,"Block":1,"Trial":114,"Robot":2,"Valence":"Win","Action":"No-Go","Sham":0,"Color":"blue","trial_type":"pit-trial","trial_index":131,"time_elapsed":522973,"internal_node_id":"0.0-120.0","task_version":"test-retest-t2"},{"Rune":"rune_05_gebo","Hex":"#ffcc3399","Correct":32,"Choice":32,"RT":441.5449999505654,"Accuracy":1,"Outcome":"-1","Keys":[1942.049999954179],"TotalKeys":1,"Block":1,"Trial":115,"Robot":3,"Valence":"Lose","Action":"Go","Sham":0,"Color":"yellow","trial_type":"pit-trial","trial_index":132,"time_elapsed":525917,"internal_node_id":"0.0-121.0","task_version":"test-retest-t2"},{"Rune":"rune_05_tiwaz","Hex":"#3366ff99","Correct":32,"Choice":32,"RT":441.3899999926798,"Accuracy":1,"Outcome":"+10","Keys":[1942.3050000332296],"TotalKeys":1,"Block":1,"Trial":116,"Robot":1,"Valence":"Win","Action":"Go","Sham":0,"Color":"blue","trial_type":"pit-trial","trial_index":133,"time_elapsed":528862,"internal_node_id":"0.0-122.0","task_version":"test-retest-t2"},{"Rune":"rune_05_ior","Hex":"#3366ff99","Correct":-1,"Choice":-1,"RT":-1,"Accuracy":1,"Outcome":"+10","Keys":[],"TotalKeys":0,"Block":1,"Trial":117,"Robot":2,"Valence":"Win","Action":"No-Go","Sham":0,"Color":"blue","trial_type":"pit-trial","trial_index":134,"time_elapsed":532865,"internal_node_id":"0.0-123.0","task_version":"test-retest-t2"},{"Rune":"rune_05_tiwaz","Hex":"#3366ff99","Correct":32,"Choice":32,"RT":734.1599999926984,"Accuracy":1,"Outcome":"+10","Keys":[2234.4450000091456],"TotalKeys":1,"Block":1,"Trial":118,"Robot":1,"Valence":"Win","Action":"Go","Sham":0,"Color":"blue","trial_type":"pit-trial","trial_index":135,"time_elapsed":536102,"internal_node_id":"0.0-124.0","task_version":"test-retest-t2"},{"Rune":"rune_05_jeran","Hex":"#ffcc3399","Correct":-1,"Choice":-1,"RT":-1,"Accuracy":1,"Outcome":"-1","Keys":[],"TotalKeys":0,"Block":1,"Trial":119,"Robot":4,"Valence":"Lose","Action":"No-Go","Sham":0,"Color":"yellow","trial_type":"pit-trial","trial_index":136,"time_elapsed":540107,"internal_node_id":"0.0-125.0","task_version":"test-retest-t2"},{"Rune":"rune_05_gebo","Hex":"#ffcc3399","Correct":32,"Choice":32,"RT":485.8850000309758,"Accuracy":1,"Outcome":"-1","Keys":[1986.655000015162],"TotalKeys":1,"Block":1,"Trial":120,"Robot":3,"Valence":"Lose","Action":"Go","Sham":0,"Color":"yellow","trial_type":"pit-trial","trial_index":137,"time_elapsed":543097,"internal_node_id":"0.0-126.0","task_version":"test-retest-t2"},{"view_history":"[{\"page_index\":0,\"viewing_time\":58442.310000013094},{\"page_index\":1,\"viewing_time\":1138.0199999548495},{\"page_index\":2,\"viewing_time\":1038.2350000436418}]","rt":60618.940000014845,"trial_type":"pit-instructions","trial_index":138,"time_elapsed":603717,"internal_node_id":"0.0-127.0","task_version":"test-retest-t2"},{"Rune":"rune_06_cweord","Hex":"#ffcc3399","Correct":-1,"Choice":32,"RT":557.840000023134,"Accuracy":0,"Outcome":"-10","Keys":[2058.9700000127777],"TotalKeys":1,"Block":2,"Trial":121,"Robot":4,"Valence":"Lose","Action":"No-Go","Sham":0,"Color":"yellow","trial_type":"pit-trial","trial_index":139,"time_elapsed":606780,"internal_node_id":"0.0-128.0","task_version":"test-retest-t2"},{"Rune":"rune_06_ansuz","Hex":"#3366ff99","Correct":-1,"Choice":32,"RT":425.6349999923259,"Accuracy":0,"Outcome":"+1","Keys":[1927.159999962896],"TotalKeys":1,"Block":2,"Trial":122,"Robot":2,"Valence":"Win","Action":"No-Go","Sham":0,"Color":"blue","trial_type":"pit-trial","trial_index":140,"time_elapsed":609709,"internal_node_id":"0.0-129.0","task_version":"test-retest-t2"},{"Rune":"rune_06_berkanan","Hex":"#ffcc3399","Correct":32,"Choice":32,"RT":369.1949999774806,"Accuracy":1,"Outcome":"-1","Keys":[1870.389999996405],"TotalKeys":1,"Block":2,"Trial":123,"Robot":3,"Valence":"Lose","Action":"Go","Sham":0,"Color":"yellow","trial_type":"pit-trial","trial_index":141,"time_elapsed":612581,"internal_node_id":"0.0-130.0","task_version":"test-retest-t2"},{"Rune":"rune_06_ehwaz","Hex":"#3366ff99","Correct":32,"Choice":32,"RT":557.970000023488,"Accuracy":1,"Outcome":"+10","Keys":[2058.7300000479445],"TotalKeys":1,"Block":2,"Trial":124,"Robot":1,"Valence":"Win","Action":"Go","Sham":0,"Color":"blue","trial_type":"pit-trial","trial_index":142,"time_elapsed":615642,"internal_node_id":"0.0-131.0","task_version":"test-retest-t2"},{"Rune":"rune_06_berkanan","Hex":"#ffcc3399","Correct":32,"Choice":32,"RT":401.7600000370294,"Accuracy":1,"Outcome":"-1","Keys":[1902.574999956414],"TotalKeys":1,"Block":2,"Trial":125,"Robot":3,"Valence":"Lose","Action":"Go","Sham":0,"Color":"yellow","trial_type":"pit-trial","trial_index":143,"time_elapsed":618547,"internal_node_id":"0.0-132.0","task_version":"test-retest-t2"},{"Rune":"rune_06_ansuz","Hex":"#3366ff99","Correct":-1,"Choice":-1,"RT":-1,"Accuracy":1,"Outcome":"+1","Keys":[],"TotalKeys":0,"Block":2,"Trial":126,"Robot":2,"Valence":"Win","Action":"No-Go","Sham":1,"Color":"blue","trial_type":"pit-trial","trial_index":144,"time_elapsed":622551,"internal_node_id":"0.0-133.0","task_version":"test-retest-t2"},{"Rune":"rune_06_cweord","Hex":"#ffcc3399","Correct":-1,"Choice":-1,"RT":-1,"Accuracy":1,"Outcome":"-1","Keys":[],"TotalKeys":0,"Block":2,"Trial":127,"Robot":4,"Valence":"Lose","Action":"No-Go","Sham":0,"Color":"yellow","trial_type":"pit-trial","trial_index":145,"time_elapsed":626554,"internal_node_id":"0.0-134.0","task_version":"test-retest-t2"},{"Rune":"rune_06_ehwaz","Hex":"#3366ff99","Correct":32,"Choice":32,"RT":430.28500000946224,"Accuracy":1,"Outcome":"+10","Keys":[1931.0549999936484],"TotalKeys":1,"Block":2,"Trial":128,"Robot":1,"Valence":"Win","Action":"Go","Sham":0,"Color":"blue","trial_type":"pit-trial","trial_index":146,"time_elapsed":629488,"internal_node_id":"0.0-135.0","task_version":"test-retest-t2"},{"Rune":"rune_06_berkanan","Hex":"#ffcc3399","Correct":32,"Choice":32,"RT":389.0949999913573,"Accuracy":1,"Outcome":"-1","Keys":[1889.290000020992],"TotalKeys":1,"Block":2,"Trial":129,"Robot":3,"Valence":"Lose","Action":"Go","Sham":0,"Color":"yellow","trial_type":"pit-trial","trial_index":147,"time_elapsed":632380,"internal_node_id":"0.0-136.0","task_version":"test-retest-t2"},{"Rune":"rune_06_ehwaz","Hex":"#3366ff99","Correct":32,"Choice":32,"RT":301.2950000120327,"Accuracy":1,"Outcome":"+1","Keys":[1801.370000001043],"TotalKeys":1,"Block":2,"Trial":130,"Robot":1,"Valence":"Win","Action":"Go","Sham":1,"Color":"blue","trial_type":"pit-trial","trial_index":148,"time_elapsed":635183,"internal_node_id":"0.0-137.0","task_version":"test-retest-t2"},{"Rune":"rune_06_ansuz","Hex":"#3366ff99","Correct":-1,"Choice":-1,"RT":-1,"Accuracy":1,"Outcome":"+10","Keys":[],"TotalKeys":0,"Block":2,"Trial":131,"Robot":2,"Valence":"Win","Action":"No-Go","Sham":0,"Color":"blue","trial_type":"pit-trial","trial_index":149,"time_elapsed":639187,"internal_node_id":"0.0-138.0","task_version":"test-retest-t2"},{"Rune":"rune_06_cweord","Hex":"#ffcc3399","Correct":-1,"Choice":-1,"RT":-1,"Accuracy":1,"Outcome":"-1","Keys":[],"TotalKeys":0,"Block":2,"Trial":132,"Robot":4,"Valence":"Lose","Action":"No-Go","Sham":0,"Color":"yellow","trial_type":"pit-trial","trial_index":150,"time_elapsed":643190,"internal_node_id":"0.0-139.0","task_version":"test-retest-t2"},{"Rune":"rune_06_ehwaz","Hex":"#3366ff99","Correct":32,"Choice":32,"RT":384.32999997166917,"Accuracy":1,"Outcome":"+10","Keys":[1886.0700000077486],"TotalKeys":1,"Block":2,"Trial":133,"Robot":1,"Valence":"Win","Action":"Go","Sham":0,"Color":"blue","trial_type":"pit-trial","trial_index":151,"time_elapsed":646078,"internal_node_id":"0.0-140.0","task_version":"test-retest-t2"},{"Rune":"rune_06_ansuz","Hex":"#3366ff99","Correct":-1,"Choice":-1,"RT":-1,"Accuracy":1,"Outcome":"+10","Keys":[],"TotalKeys":0,"Block":2,"Trial":134,"Robot":2,"Valence":"Win","Action":"No-Go","Sham":0,"Color":"blue","trial_type":"pit-trial","trial_index":152,"time_elapsed":650080,"internal_node_id":"0.0-141.0","task_version":"test-retest-t2"},{"Rune":"rune_06_berkanan","Hex":"#ffcc3399","Correct":32,"Choice":32,"RT":385.82000002497807,"Accuracy":1,"Outcome":"-10","Keys":[1886.3799999817275],"TotalKeys":1,"Block":2,"Trial":135,"Robot":3,"Valence":"Lose","Action":"Go","Sham":1,"Color":"yellow","trial_type":"pit-trial","trial_index":153,"time_elapsed":652969,"internal_node_id":"0.0-142.0","task_version":"test-retest-t2"},{"Rune":"rune_06_cweord","Hex":"#ffcc3399","Correct":-1,"Choice":-1,"RT":-1,"Accuracy":1,"Outcome":"-1","Keys":[],"TotalKeys":0,"Block":2,"Trial":136,"Robot":4,"Valence":"Lose","Action":"No-Go","Sham":0,"Color":"yellow","trial_type":"pit-trial","trial_index":154,"time_elapsed":656972,"internal_node_id":"0.0-143.0","task_version":"test-retest-t2"},{"Rune":"rune_06_berkanan","Hex":"#ffcc3399","Correct":32,"Choice":32,"RT":358.780000009574,"Accuracy":1,"Outcome":"-1","Keys":[1860.5099999695085],"TotalKeys":1,"Block":2,"Trial":137,"Robot":3,"Valence":"Lose","Action":"Go","Sham":0,"Color":"yellow","trial_type":"pit-trial","trial_index":155,"time_elapsed":659834,"internal_node_id":"0.0-144.0","task_version":"test-retest-t2"},{"Rune":"rune_06_ansuz","Hex":"#3366ff99","Correct":-1,"Choice":-1,"RT":-1,"Accuracy":1,"Outcome":"+10","Keys":[],"TotalKeys":0,"Block":2,"Trial":138,"Robot":2,"Valence":"Win","Action":"No-Go","Sham":0,"Color":"blue","trial_type":"pit-trial","trial_index":156,"time_elapsed":663838,"internal_node_id":"0.0-145.0","task_version":"test-retest-t2"},{"Rune":"rune_06_ehwaz","Hex":"#3366ff99","Correct":32,"Choice":32,"RT":290.76500004157424,"Accuracy":1,"Outcome":"+10","Keys":[1791.7099999613129],"TotalKeys":1,"Block":2,"Trial":139,"Robot":1,"Valence":"Win","Action":"Go","Sham":0,"Color":"blue","trial_type":"pit-trial","trial_index":157,"time_elapsed":666633,"internal_node_id":"0.0-146.0","task_version":"test-retest-t2"},{"Rune":"rune_06_cweord","Hex":"#ffcc3399","Correct":-1,"Choice":-1,"RT":-1,"Accuracy":1,"Outcome":"-10","Keys":[],"TotalKeys":0,"Block":2,"Trial":140,"Robot":4,"Valence":"Lose","Action":"No-Go","Sham":1,"Color":"yellow","trial_type":"pit-trial","trial_index":158,"time_elapsed":670637,"internal_node_id":"0.0-147.0","task_version":"test-retest-t2"},{"Rune":"rune_06_ansuz","Hex":"#3366ff99","Correct":-1,"Choice":-1,"RT":-1,"Accuracy":1,"Outcome":"+10","Keys":[],"TotalKeys":0,"Block":2,"Trial":141,"Robot":2,"Valence":"Win","Action":"No-Go","Sham":0,"Color":"blue","trial_type":"pit-trial","trial_index":159,"time_elapsed":674641,"internal_node_id":"0.0-148.0","task_version":"test-retest-t2"},{"Rune":"rune_06_cweord","Hex":"#ffcc3399","Correct":-1,"Choice":-1,"RT":-1,"Accuracy":1,"Outcome":"-1","Keys":[],"TotalKeys":0,"Block":2,"Trial":142,"Robot":4,"Valence":"Lose","Action":"No-Go","Sham":0,"Color":"yellow","trial_type":"pit-trial","trial_index":160,"time_elapsed":678644,"internal_node_id":"0.0-149.0","task_version":"test-retest-t2"},{"Rune":"rune_06_ehwaz","Hex":"#3366ff99","Correct":32,"Choice":32,"RT":403.52499997243285,"Accuracy":1,"Outcome":"+10","Keys":[1904.4349999749102],"TotalKeys":1,"Block":2,"Trial":143,"Robot":1,"Valence":"Win","Action":"Go","Sham":0,"Color":"blue","trial_type":"pit-trial","trial_index":161,"time_elapsed":681551,"internal_node_id":"0.0-150.0","task_version":"test-retest-t2"},{"Rune":"rune_06_berkanan","Hex":"#ffcc3399","Correct":32,"Choice":32,"RT":424.49499998474494,"Accuracy":1,"Outcome":"-1","Keys":[1925.089999975171],"TotalKeys":1,"Block":2,"Trial":144,"Robot":3,"Valence":"Lose","Action":"Go","Sham":0,"Color":"yellow","trial_type":"pit-trial","trial_index":162,"time_elapsed":684477,"internal_node_id":"0.0-151.0","task_version":"test-retest-t2"},{"Rune":"rune_06_ansuz","Hex":"#3366ff99","Correct":-1,"Choice":-1,"RT":-1,"Accuracy":1,"Outcome":"+10","Keys":[],"TotalKeys":0,"Block":2,"Trial":145,"Robot":2,"Valence":"Win","Action":"No-Go","Sham":0,"Color":"blue","trial_type":"pit-trial","trial_index":163,"time_elapsed":688481,"internal_node_id":"0.0-152.0","task_version":"test-retest-t2"},{"Rune":"rune_06_berkanan","Hex":"#ffcc3399","Correct":32,"Choice":32,"RT":821.0800000233576,"Accuracy":1,"Outcome":"-10","Keys":[2322.9150000261143],"TotalKeys":1,"Block":2,"Trial":146,"Robot":3,"Valence":"Lose","Action":"Go","Sham":1,"Color":"yellow","trial_type":"pit-trial","trial_index":164,"time_elapsed":691807,"internal_node_id":"0.0-153.0","task_version":"test-retest-t2"},{"Rune":"rune_06_ehwaz","Hex":"#3366ff99","Correct":32,"Choice":32,"RT":601.7399999545887,"Accuracy":1,"Outcome":"+10","Keys":[2101.9949999754317],"TotalKeys":1,"Block":2,"Trial":147,"Robot":1,"Valence":"Win","Action":"Go","Sham":0,"Color":"blue","trial_type":"pit-trial","trial_index":165,"time_elapsed":694911,"internal_node_id":"0.0-154.0","task_version":"test-retest-t2"},{"Rune":"rune_06_cweord","Hex":"#ffcc3399","Correct":-1,"Choice":-1,"RT":-1,"Accuracy":1,"Outcome":"-1","Keys":[],"TotalKeys":0,"Block":2,"Trial":148,"Robot":4,"Valence":"Lose","Action":"No-Go","Sham":0,"Color":"yellow","trial_type":"pit-trial","trial_index":166,"time_elapsed":698915,"internal_node_id":"0.0-155.0","task_version":"test-retest-t2"},{"Rune":"rune_06_berkanan","Hex":"#ffcc3399","Correct":32,"Choice":32,"RT":284.6900000004098,"Accuracy":1,"Outcome":"-1","Keys":[1785.2249999996275],"TotalKeys":1,"Block":2,"Trial":149,"Robot":3,"Valence":"Lose","Action":"Go","Sham":0,"Color":"yellow","trial_type":"pit-trial","trial_index":167,"time_elapsed":701702,"internal_node_id":"0.0-156.0","task_version":"test-retest-t2"},{"Rune":"rune_06_ansuz","Hex":"#3366ff99","Correct":-1,"Choice":-1,"RT":-1,"Accuracy":1,"Outcome":"+10","Keys":[],"TotalKeys":0,"Block":2,"Trial":150,"Robot":2,"Valence":"Win","Action":"No-Go","Sham":0,"Color":"blue","trial_type":"pit-trial","trial_index":168,"time_elapsed":705705,"internal_node_id":"0.0-157.0","task_version":"test-retest-t2"},{"Rune":"rune_06_cweord","Hex":"#ffcc3399","Correct":-1,"Choice":-1,"RT":-1,"Accuracy":1,"Outcome":"-1","Keys":[],"TotalKeys":0,"Block":2,"Trial":151,"Robot":4,"Valence":"Lose","Action":"No-Go","Sham":0,"Color":"yellow","trial_type":"pit-trial","trial_index":169,"time_elapsed":709710,"internal_node_id":"0.0-158.0","task_version":"test-retest-t2"},{"Rune":"rune_06_ehwaz","Hex":"#3366ff99","Correct":32,"Choice":32,"RT":372.8700000210665,"Accuracy":1,"Outcome":"+1","Keys":[1873.6599999829195],"TotalKeys":1,"Block":2,"Trial":152,"Robot":1,"Valence":"Win","Action":"Go","Sham":1,"Color":"blue","trial_type":"pit-trial","trial_index":170,"time_elapsed":712587,"internal_node_id":"0.0-159.0","task_version":"test-retest-t2"},{"Rune":"rune_06_ansuz","Hex":"#3366ff99","Correct":-1,"Choice":-1,"RT":-1,"Accuracy":1,"Outcome":"+10","Keys":[],"TotalKeys":0,"Block":2,"Trial":153,"Robot":2,"Valence":"Win","Action":"No-Go","Sham":0,"Color":"blue","trial_type":"pit-trial","trial_index":171,"time_elapsed":716591,"internal_node_id":"0.0-160.0","task_version":"test-retest-t2"},{"Rune":"rune_06_cweord","Hex":"#ffcc3399","Correct":-1,"Choice":-1,"RT":-1,"Accuracy":1,"Outcome":"-10","Keys":[],"TotalKeys":0,"Block":2,"Trial":154,"Robot":4,"Valence":"Lose","Action":"No-Go","Sham":1,"Color":"yellow","trial_type":"pit-trial","trial_index":172,"time_elapsed":720594,"internal_node_id":"0.0-161.0","task_version":"test-retest-t2"},{"Rune":"rune_06_berkanan","Hex":"#ffcc3399","Correct":32,"Choice":32,"RT":353.3500000485219,"Accuracy":1,"Outcome":"-1","Keys":[1854.7200000029989],"TotalKeys":1,"Block":2,"Trial":155,"Robot":3,"Valence":"Lose","Action":"Go","Sham":0,"Color":"yellow","trial_type":"pit-trial","trial_index":173,"time_elapsed":723451,"internal_node_id":"0.0-162.0","task_version":"test-retest-t2"},{"Rune":"rune_06_ehwaz","Hex":"#3366ff99","Correct":32,"Choice":32,"RT":429.3300000135787,"Accuracy":1,"Outcome":"+10","Keys":[1929.7899999655783],"TotalKeys":1,"Block":2,"Trial":156,"Robot":1,"Valence":"Win","Action":"Go","Sham":0,"Color":"blue","trial_type":"pit-trial","trial_index":174,"time_elapsed":726383,"internal_node_id":"0.0-163.0","task_version":"test-retest-t2"},{"Rune":"rune_06_cweord","Hex":"#ffcc3399","Correct":-1,"Choice":-1,"RT":-1,"Accuracy":1,"Outcome":"-1","Keys":[],"TotalKeys":0,"Block":2,"Trial":157,"Robot":4,"Valence":"Lose","Action":"No-Go","Sham":0,"Color":"yellow","trial_type":"pit-trial","trial_index":175,"time_elapsed":730387,"internal_node_id":"0.0-164.0","task_version":"test-retest-t2"},{"Rune":"rune_06_ehwaz","Hex":"#3366ff99","Correct":32,"Choice":32,"RT":402.4449999560602,"Accuracy":1,"Outcome":"+10","Keys":[1903.1850000028498],"TotalKeys":1,"Block":2,"Trial":158,"Robot":1,"Valence":"Win","Action":"Go","Sham":0,"Color":"blue","trial_type":"pit-trial","trial_index":176,"time_elapsed":733293,"internal_node_id":"0.0-165.0","task_version":"test-retest-t2"},{"Rune":"rune_06_berkanan","Hex":"#ffcc3399","Correct":32,"Choice":32,"RT":435.4799999855459,"Accuracy":1,"Outcome":"-1","Keys":[1936.6799999843352],"TotalKeys":1,"Block":2,"Trial":159,"Robot":3,"Valence":"Lose","Action":"Go","Sham":0,"Color":"yellow","trial_type":"pit-trial","trial_index":177,"time_elapsed":736232,"internal_node_id":"0.0-166.0","task_version":"test-retest-t2"},{"Rune":"rune_06_ansuz","Hex":"#3366ff99","Correct":-1,"Choice":-1,"RT":-1,"Accuracy":1,"Outcome":"+1","Keys":[],"TotalKeys":0,"Block":2,"Trial":160,"Robot":2,"Valence":"Win","Action":"No-Go","Sham":1,"Color":"blue","trial_type":"pit-trial","trial_index":178,"time_elapsed":740235,"internal_node_id":"0.0-167.0","task_version":"test-retest-t2"},{"Rune":"rune_06_ehwaz","Hex":"#3366ff99","Correct":32,"Choice":32,"RT":385.99499996053055,"Accuracy":1,"Outcome":"+10","Keys":[1886.7900000186637],"TotalKeys":1,"Block":2,"Trial":161,"Robot":1,"Valence":"Win","Action":"Go","Sham":0,"Color":"blue","trial_type":"pit-trial","trial_index":179,"time_elapsed":743124,"internal_node_id":"0.0-168.0","task_version":"test-retest-t2"},{"Rune":"rune_06_berkanan","Hex":"#ffcc3399","Correct":32,"Choice":32,"RT":274.3149999878369,"Accuracy":1,"Outcome":"-1","Keys":[1776.0700000217184],"TotalKeys":1,"Block":2,"Trial":162,"Robot":3,"Valence":"Lose","Action":"Go","Sham":0,"Color":"yellow","trial_type":"pit-trial","trial_index":180,"time_elapsed":745910,"internal_node_id":"0.0-169.0","task_version":"test-retest-t2"},{"Rune":"rune_06_ansuz","Hex":"#3366ff99","Correct":-1,"Choice":-1,"RT":-1,"Accuracy":1,"Outcome":"+10","Keys":[],"TotalKeys":0,"Block":2,"Trial":163,"Robot":2,"Valence":"Win","Action":"No-Go","Sham":0,"Color":"blue","trial_type":"pit-trial","trial_index":181,"time_elapsed":749915,"internal_node_id":"0.0-170.0","task_version":"test-retest-t2"},{"Rune":"rune_06_cweord","Hex":"#ffcc3399","Correct":-1,"Choice":-1,"RT":-1,"Accuracy":1,"Outcome":"-1","Keys":[],"TotalKeys":0,"Block":2,"Trial":164,"Robot":4,"Valence":"Lose","Action":"No-Go","Sham":0,"Color":"yellow","trial_type":"pit-trial","trial_index":182,"time_elapsed":753918,"internal_node_id":"0.0-171.0","task_version":"test-retest-t2"},{"Rune":"rune_06_ansuz","Hex":"#3366ff99","Correct":-1,"Choice":-1,"RT":-1,"Accuracy":1,"Outcome":"+10","Keys":[],"TotalKeys":0,"Block":2,"Trial":165,"Robot":2,"Valence":"Win","Action":"No-Go","Sham":0,"Color":"blue","trial_type":"pit-trial","trial_index":183,"time_elapsed":757923,"internal_node_id":"0.0-172.0","task_version":"test-retest-t2"},{"Rune":"rune_06_cweord","Hex":"#ffcc3399","Correct":-1,"Choice":-1,"RT":-1,"Accuracy":1,"Outcome":"-1","Keys":[],"TotalKeys":0,"Block":2,"Trial":166,"Robot":4,"Valence":"Lose","Action":"No-Go","Sham":0,"Color":"yellow","trial_type":"pit-trial","trial_index":184,"time_elapsed":761927,"internal_node_id":"0.0-173.0","task_version":"test-retest-t2"},{"Rune":"rune_06_ehwaz","Hex":"#3366ff99","Correct":32,"Choice":32,"RT":354.18000002391636,"Accuracy":1,"Outcome":"+10","Keys":[1855.0599999725819],"TotalKeys":1,"Block":2,"Trial":167,"Robot":1,"Valence":"Win","Action":"Go","Sham":0,"Color":"blue","trial_type":"pit-trial","trial_index":185,"time_elapsed":764785,"internal_node_id":"0.0-174.0","task_version":"test-retest-t2"},{"Rune":"rune_06_berkanan","Hex":"#ffcc3399","Correct":32,"Choice":32,"RT":342.6050000125542,"Accuracy":1,"Outcome":"-1","Keys":[1843.5850000241771],"TotalKeys":1,"Block":2,"Trial":168,"Robot":3,"Valence":"Lose","Action":"Go","Sham":0,"Color":"yellow","trial_type":"pit-trial","trial_index":186,"time_elapsed":767631,"internal_node_id":"0.0-175.0","task_version":"test-retest-t2"},{"Rune":"rune_06_ansuz","Hex":"#3366ff99","Correct":-1,"Choice":-1,"RT":-1,"Accuracy":1,"Outcome":"+1","Keys":[],"TotalKeys":0,"Block":2,"Trial":169,"Robot":2,"Valence":"Win","Action":"No-Go","Sham":1,"Color":"blue","trial_type":"pit-trial","trial_index":187,"time_elapsed":771634,"internal_node_id":"0.0-176.0","task_version":"test-retest-t2"},{"Rune":"rune_06_berkanan","Hex":"#ffcc3399","Correct":32,"Choice":32,"RT":315.30499999644235,"Accuracy":1,"Outcome":"-1","Keys":[1816.0200000274926],"TotalKeys":1,"Block":2,"Trial":170,"Robot":3,"Valence":"Lose","Action":"Go","Sham":0,"Color":"yellow","trial_type":"pit-trial","trial_index":188,"time_elapsed":774452,"internal_node_id":"0.0-177.0","task_version":"test-retest-t2"},{"Rune":"rune_06_ehwaz","Hex":"#3366ff99","Correct":32,"Choice":32,"RT":331.57500001834705,"Accuracy":1,"Outcome":"+10","Keys":[1831.8599999765866],"TotalKeys":1,"Block":2,"Trial":171,"Robot":1,"Valence":"Win","Action":"Go","Sham":0,"Color":"blue","trial_type":"pit-trial","trial_index":189,"time_elapsed":777286,"internal_node_id":"0.0-178.0","task_version":"test-retest-t2"},{"Rune":"rune_06_cweord","Hex":"#ffcc3399","Correct":-1,"Choice":-1,"RT":-1,"Accuracy":1,"Outcome":"-1","Keys":[],"TotalKeys":0,"Block":2,"Trial":172,"Robot":4,"Valence":"Lose","Action":"No-Go","Sham":0,"Color":"yellow","trial_type":"pit-trial","trial_index":190,"time_elapsed":781291,"internal_node_id":"0.0-179.0","task_version":"test-retest-t2"},{"Rune":"rune_06_berkanan","Hex":"#ffcc3399","Correct":32,"Choice":32,"RT":429.02999999932945,"Accuracy":1,"Outcome":"-10","Keys":[1929.805000021588],"TotalKeys":1,"Block":2,"Trial":173,"Robot":3,"Valence":"Lose","Action":"Go","Sham":1,"Color":"yellow","trial_type":"pit-trial","trial_index":191,"time_elapsed":784223,"internal_node_id":"0.0-180.0","task_version":"test-retest-t2"},{"Rune":"rune_06_ansuz","Hex":"#3366ff99","Correct":-1,"Choice":-1,"RT":-1,"Accuracy":1,"Outcome":"+10","Keys":[],"TotalKeys":0,"Block":2,"Trial":174,"Robot":2,"Valence":"Win","Action":"No-Go","Sham":0,"Color":"blue","trial_type":"pit-trial","trial_index":192,"time_elapsed":788226,"internal_node_id":"0.0-181.0","task_version":"test-retest-t2"},{"Rune":"rune_06_cweord","Hex":"#ffcc3399","Correct":-1,"Choice":-1,"RT":-1,"Accuracy":1,"Outcome":"-10","Keys":[],"TotalKeys":0,"Block":2,"Trial":175,"Robot":4,"Valence":"Lose","Action":"No-Go","Sham":1,"Color":"yellow","trial_type":"pit-trial","trial_index":193,"time_elapsed":792230,"internal_node_id":"0.0-182.0","task_version":"test-retest-t2"},{"Rune":"rune_06_ehwaz","Hex":"#3366ff99","Correct":32,"Choice":32,"RT":268.63000000594184,"Accuracy":1,"Outcome":"+10","Keys":[1770.4249999951571],"TotalKeys":1,"Block":2,"Trial":176,"Robot":1,"Valence":"Win","Action":"Go","Sham":0,"Color":"blue","trial_type":"pit-trial","trial_index":194,"time_elapsed":795003,"internal_node_id":"0.0-183.0","task_version":"test-retest-t2"},{"Rune":"rune_06_cweord","Hex":"#ffcc3399","Correct":-1,"Choice":-1,"RT":-1,"Accuracy":1,"Outcome":"-1","Keys":[],"TotalKeys":0,"Block":2,"Trial":177,"Robot":4,"Valence":"Lose","Action":"No-Go","Sham":0,"Color":"yellow","trial_type":"pit-trial","trial_index":195,"time_elapsed":799007,"internal_node_id":"0.0-184.0","task_version":"test-retest-t2"},{"Rune":"rune_06_ansuz","Hex":"#3366ff99","Correct":-1,"Choice":-1,"RT":-1,"Accuracy":1,"Outcome":"+10","Keys":[],"TotalKeys":0,"Block":2,"Trial":178,"Robot":2,"Valence":"Win","Action":"No-Go","Sham":0,"Color":"blue","trial_type":"pit-trial","trial_index":196,"time_elapsed":803010,"internal_node_id":"0.0-185.0","task_version":"test-retest-t2"},{"Rune":"rune_06_ehwaz","Hex":"#3366ff99","Correct":32,"Choice":32,"RT":373.3749999664724,"Accuracy":1,"Outcome":"+1","Keys":[1875.0899999868125],"TotalKeys":1,"Block":2,"Trial":179,"Robot":1,"Valence":"Win","Action":"Go","Sham":1,"Color":"blue","trial_type":"pit-trial","trial_index":197,"time_elapsed":805888,"internal_node_id":"0.0-186.0","task_version":"test-retest-t2"},{"Rune":"rune_06_berkanan","Hex":"#ffcc3399","Correct":32,"Choice":32,"RT":350.71500000776723,"Accuracy":1,"Outcome":"-1","Keys":[1851.8349999794737],"TotalKeys":1,"Block":2,"Trial":180,"Robot":3,"Valence":"Lose","Action":"Go","Sham":0,"Color":"yellow","trial_type":"pit-trial","trial_index":198,"time_elapsed":808742,"internal_node_id":"0.0-187.0","task_version":"test-retest-t2"},{"view_history":"[{\"page_index\":0,\"viewing_time\":1554.6850000391714},{\"page_index\":1,\"viewing_time\":382.1899999747984}]","rt":1937.2050000238232,"trial_type":"pit-instructions","trial_index":199,"time_elapsed":810680,"internal_node_id":"0.0-188.0","task_version":"test-retest-t2"},{"Rune":"rune_06_cweord","Hex":"#ffcc3399","Correct":-1,"Choice":-1,"RT":-1,"Accuracy":1,"Outcome":"-1","Keys":[],"TotalKeys":0,"Block":2,"Trial":181,"Robot":4,"Valence":"Lose","Action":"No-Go","Sham":0,"Color":"yellow","trial_type":"pit-trial","trial_index":200,"time_elapsed":814685,"internal_node_id":"0.0-189.0","task_version":"test-retest-t2"},{"Rune":"rune_06_ehwaz","Hex":"#3366ff99","Correct":32,"Choice":32,"RT":346.4149999781512,"Accuracy":1,"Outcome":"+10","Keys":[1847.055000020191],"TotalKeys":1,"Block":2,"Trial":182,"Robot":1,"Valence":"Win","Action":"Go","Sham":0,"Color":"blue","trial_type":"pit-trial","trial_index":201,"time_elapsed":817535,"internal_node_id":"0.0-190.0","task_version":"test-retest-t2"},{"Rune":"rune_06_ansuz","Hex":"#3366ff99","Correct":-1,"Choice":-1,"RT":-1,"Accuracy":1,"Outcome":"+1","Keys":[],"TotalKeys":0,"Block":2,"Trial":183,"Robot":2,"Valence":"Win","Action":"No-Go","Sham":1,"Color":"blue","trial_type":"pit-trial","trial_index":202,"time_elapsed":821539,"internal_node_id":"0.0-191.0","task_version":"test-retest-t2"},{"Rune":"rune_06_berkanan","Hex":"#ffcc3399","Correct":32,"Choice":32,"RT":313.84999997681007,"Accuracy":1,"Outcome":"-1","Keys":[1813.9399999636225],"TotalKeys":1,"Block":2,"Trial":184,"Robot":3,"Valence":"Lose","Action":"Go","Sham":0,"Color":"yellow","trial_type":"pit-trial","trial_index":203,"time_elapsed":824356,"internal_node_id":"0.0-192.0","task_version":"test-retest-t2"},{"Rune":"rune_06_cweord","Hex":"#ffcc3399","Correct":-1,"Choice":-1,"RT":-1,"Accuracy":1,"Outcome":"-1","Keys":[],"TotalKeys":0,"Block":2,"Trial":185,"Robot":4,"Valence":"Lose","Action":"No-Go","Sham":0,"Color":"yellow","trial_type":"pit-trial","trial_index":204,"time_elapsed":828360,"internal_node_id":"0.0-193.0","task_version":"test-retest-t2"},{"Rune":"rune_06_ehwaz","Hex":"#3366ff99","Correct":32,"Choice":32,"RT":308.43999999342486,"Accuracy":1,"Outcome":"+10","Keys":[1809.16000000434],"TotalKeys":1,"Block":2,"Trial":186,"Robot":1,"Valence":"Win","Action":"Go","Sham":0,"Color":"blue","trial_type":"pit-trial","trial_index":205,"time_elapsed":831171,"internal_node_id":"0.0-194.0","task_version":"test-retest-t2"},{"Rune":"rune_06_berkanan","Hex":"#ffcc3399","Correct":32,"Choice":32,"RT":339.0199999557808,"Accuracy":1,"Outcome":"-1","Keys":[1840.9199999878183],"TotalKeys":1,"Block":2,"Trial":187,"Robot":3,"Valence":"Lose","Action":"Go","Sham":0,"Color":"yellow","trial_type":"pit-trial","trial_index":206,"time_elapsed":834013,"internal_node_id":"0.0-195.0","task_version":"test-retest-t2"},{"Rune":"rune_06_ansuz","Hex":"#3366ff99","Correct":-1,"Choice":-1,"RT":-1,"Accuracy":1,"Outcome":"+10","Keys":[],"TotalKeys":0,"Block":2,"Trial":188,"Robot":2,"Valence":"Win","Action":"No-Go","Sham":0,"Color":"blue","trial_type":"pit-trial","trial_index":207,"time_elapsed":838017,"internal_node_id":"0.0-196.0","task_version":"test-retest-t2"},{"Rune":"rune_06_cweord","Hex":"#ffcc3399","Correct":-1,"Choice":-1,"RT":-1,"Accuracy":1,"Outcome":"-1","Keys":[],"TotalKeys":0,"Block":2,"Trial":189,"Robot":4,"Valence":"Lose","Action":"No-Go","Sham":0,"Color":"yellow","trial_type":"pit-trial","trial_index":208,"time_elapsed":842020,"internal_node_id":"0.0-197.0","task_version":"test-retest-t2"},{"Rune":"rune_06_ehwaz","Hex":"#3366ff99","Correct":32,"Choice":32,"RT":375.48500002594665,"Accuracy":1,"Outcome":"+10","Keys":[1876.2450000504032,2124.1050000535324],"TotalKeys":2,"Block":2,"Trial":190,"Robot":1,"Valence":"Win","Action":"Go","Sham":0,"Color":"blue","trial_type":"pit-trial","trial_index":209,"time_elapsed":844900,"internal_node_id":"0.0-198.0","task_version":"test-retest-t2"},{"Rune":"rune_06_ansuz","Hex":"#3366ff99","Correct":-1,"Choice":-1,"RT":-1,"Accuracy":1,"Outcome":"+10","Keys":[],"TotalKeys":0,"Block":2,"Trial":191,"Robot":2,"Valence":"Win","Action":"No-Go","Sham":0,"Color":"blue","trial_type":"pit-trial","trial_index":210,"time_elapsed":848903,"internal_node_id":"0.0-199.0","task_version":"test-retest-t2"},{"Rune":"rune_06_berkanan","Hex":"#ffcc3399","Correct":32,"Choice":32,"RT":367.78000002959743,"Accuracy":1,"Outcome":"-1","Keys":[1868.7800000188872],"TotalKeys":1,"Block":2,"Trial":192,"Robot":3,"Valence":"Lose","Action":"Go","Sham":0,"Color":"yellow","trial_type":"pit-trial","trial_index":211,"time_elapsed":851774,"internal_node_id":"0.0-200.0","task_version":"test-retest-t2"},{"Rune":"rune_06_berkanan","Hex":"#ffcc3399","Correct":32,"Choice":32,"RT":366.2849999964237,"Accuracy":1,"Outcome":"-10","Keys":[1867.9049999918789],"TotalKeys":1,"Block":2,"Trial":193,"Robot":3,"Valence":"Lose","Action":"Go","Sham":1,"Color":"yellow","trial_type":"pit-trial","trial_index":212,"time_elapsed":854645,"internal_node_id":"0.0-201.0","task_version":"test-retest-t2"},{"Rune":"rune_06_ansuz","Hex":"#3366ff99","Correct":-1,"Choice":-1,"RT":-1,"Accuracy":1,"Outcome":"+10","Keys":[],"TotalKeys":0,"Block":2,"Trial":194,"Robot":2,"Valence":"Win","Action":"No-Go","Sham":0,"Color":"blue","trial_type":"pit-trial","trial_index":213,"time_elapsed":858649,"internal_node_id":"0.0-202.0","task_version":"test-retest-t2"},{"Rune":"rune_06_ehwaz","Hex":"#3366ff99","Correct":32,"Choice":32,"RT":379.47499996516854,"Accuracy":1,"Outcome":"+1","Keys":[1881.2049999833107],"TotalKeys":1,"Block":2,"Trial":195,"Robot":1,"Valence":"Win","Action":"Go","Sham":1,"Color":"blue","trial_type":"pit-trial","trial_index":214,"time_elapsed":861533,"internal_node_id":"0.0-203.0","task_version":"test-retest-t2"},{"Rune":"rune_06_cweord","Hex":"#ffcc3399","Correct":-1,"Choice":-1,"RT":-1,"Accuracy":1,"Outcome":"-10","Keys":[],"TotalKeys":0,"Block":2,"Trial":196,"Robot":4,"Valence":"Lose","Action":"No-Go","Sham":1,"Color":"yellow","trial_type":"pit-trial","trial_index":215,"time_elapsed":865537,"internal_node_id":"0.0-204.0","task_version":"test-retest-t2"},{"Rune":"rune_06_berkanan","Hex":"#ffcc3399","Correct":32,"Choice":32,"RT":320.1699999626726,"Accuracy":1,"Outcome":"-1","Keys":[1822.0150000415742],"TotalKeys":1,"Block":2,"Trial":197,"Robot":3,"Valence":"Lose","Action":"Go","Sham":0,"Color":"yellow","trial_type":"pit-trial","trial_index":216,"time_elapsed":868361,"internal_node_id":"0.0-205.0","task_version":"test-retest-t2"},{"Rune":"rune_06_ehwaz","Hex":"#3366ff99","Correct":32,"Choice":32,"RT":335.2549999835901,"Accuracy":1,"Outcome":"+10","Keys":[1836.539999989327],"TotalKeys":1,"Block":2,"Trial":198,"Robot":1,"Valence":"Win","Action":"Go","Sham":0,"Color":"blue","trial_type":"pit-trial","trial_index":217,"time_elapsed":871200,"internal_node_id":"0.0-206.0","task_version":"test-retest-t2"},{"Rune":"rune_06_ansuz","Hex":"#3366ff99","Correct":-1,"Choice":-1,"RT":-1,"Accuracy":1,"Outcome":"+10","Keys":[],"TotalKeys":0,"Block":2,"Trial":199,"Robot":2,"Valence":"Win","Action":"No-Go","Sham":0,"Color":"blue","trial_type":"pit-trial","trial_index":218,"time_elapsed":875203,"internal_node_id":"0.0-207.0","task_version":"test-retest-t2"},{"Rune":"rune_06_cweord","Hex":"#ffcc3399","Correct":-1,"Choice":-1,"RT":-1,"Accuracy":1,"Outcome":"-1","Keys":[],"TotalKeys":0,"Block":2,"Trial":200,"Robot":4,"Valence":"Lose","Action":"No-Go","Sham":0,"Color":"yellow","trial_type":"pit-trial","trial_index":219,"time_elapsed":879207,"internal_node_id":"0.0-208.0","task_version":"test-retest-t2"},{"Rune":"rune_06_berkanan","Hex":"#ffcc3399","Correct":32,"Choice":32,"RT":348.98499998962507,"Accuracy":1,"Outcome":"-1","Keys":[1850.0099999946542],"TotalKeys":1,"Block":2,"Trial":201,"Robot":3,"Valence":"Lose","Action":"Go","Sham":0,"Color":"yellow","trial_type":"pit-trial","trial_index":220,"time_elapsed":882059,"internal_node_id":"0.0-209.0","task_version":"test-retest-t2"},{"Rune":"rune_06_ansuz","Hex":"#3366ff99","Correct":-1,"Choice":-1,"RT":-1,"Accuracy":1,"Outcome":"+10","Keys":[],"TotalKeys":0,"Block":2,"Trial":202,"Robot":2,"Valence":"Win","Action":"No-Go","Sham":0,"Color":"blue","trial_type":"pit-trial","trial_index":221,"time_elapsed":886062,"internal_node_id":"0.0-210.0","task_version":"test-retest-t2"},{"Rune":"rune_06_ehwaz","Hex":"#3366ff99","Correct":32,"Choice":32,"RT":306.2250000075437,"Accuracy":1,"Outcome":"+10","Keys":[1807.7749999938533],"TotalKeys":1,"Block":2,"Trial":203,"Robot":1,"Valence":"Win","Action":"Go","Sham":0,"Color":"blue","trial_type":"pit-trial","trial_index":222,"time_elapsed":888873,"internal_node_id":"0.0-211.0","task_version":"test-retest-t2"},{"Rune":"rune_06_cweord","Hex":"#ffcc3399","Correct":-1,"Choice":-1,"RT":-1,"Accuracy":1,"Outcome":"-1","Keys":[],"TotalKeys":0,"Block":2,"Trial":204,"Robot":4,"Valence":"Lose","Action":"No-Go","Sham":0,"Color":"yellow","trial_type":"pit-trial","trial_index":223,"time_elapsed":892878,"internal_node_id":"0.0-212.0","task_version":"test-retest-t2"},{"Rune":"rune_06_ehwaz","Hex":"#3366ff99","Correct":32,"Choice":32,"RT":303.8749999832362,"Accuracy":1,"Outcome":"+10","Keys":[1805.4450000054203],"TotalKeys":1,"Block":2,"Trial":205,"Robot":1,"Valence":"Win","Action":"Go","Sham":0,"Color":"blue","trial_type":"pit-trial","trial_index":224,"time_elapsed":895686,"internal_node_id":"0.0-213.0","task_version":"test-retest-t2"},{"Rune":"rune_06_cweord","Hex":"#ffcc3399","Correct":-1,"Choice":-1,"RT":-1,"Accuracy":1,"Outcome":"-10","Keys":[],"TotalKeys":0,"Block":2,"Trial":206,"Robot":4,"Valence":"Lose","Action":"No-Go","Sham":1,"Color":"yellow","trial_type":"pit-trial","trial_index":225,"time_elapsed":899689,"internal_node_id":"0.0-214.0","task_version":"test-retest-t2"},{"Rune":"rune_06_berkanan","Hex":"#ffcc3399","Correct":32,"Choice":32,"RT":412.7849999931641,"Accuracy":1,"Outcome":"-10","Keys":[1913.959999976214],"TotalKeys":1,"Block":2,"Trial":207,"Robot":3,"Valence":"Lose","Action":"Go","Sham":1,"Color":"yellow","trial_type":"pit-trial","trial_index":226,"time_elapsed":902606,"internal_node_id":"0.0-215.0","task_version":"test-retest-t2"},{"Rune":"rune_06_ansuz","Hex":"#3366ff99","Correct":-1,"Choice":-1,"RT":-1,"Accuracy":1,"Outcome":"+10","Keys":[],"TotalKeys":0,"Block":2,"Trial":208,"Robot":2,"Valence":"Win","Action":"No-Go","Sham":0,"Color":"blue","trial_type":"pit-trial","trial_index":227,"time_elapsed":906610,"internal_node_id":"0.0-216.0","task_version":"test-retest-t2"},{"Rune":"rune_06_ehwaz","Hex":"#3366ff99","Correct":32,"Choice":32,"RT":336.23500005342066,"Accuracy":1,"Outcome":"+10","Keys":[1837.9100000020117],"TotalKeys":1,"Block":2,"Trial":209,"Robot":1,"Valence":"Win","Action":"Go","Sham":0,"Color":"blue","trial_type":"pit-trial","trial_index":228,"time_elapsed":909451,"internal_node_id":"0.0-217.0","task_version":"test-retest-t2"},{"Rune":"rune_06_ansuz","Hex":"#3366ff99","Correct":-1,"Choice":-1,"RT":-1,"Accuracy":1,"Outcome":"+10","Keys":[],"TotalKeys":0,"Block":2,"Trial":210,"Robot":2,"Valence":"Win","Action":"No-Go","Sham":0,"Color":"blue","trial_type":"pit-trial","trial_index":229,"time_elapsed":913455,"internal_node_id":"0.0-218.0","task_version":"test-retest-t2"},{"Rune":"rune_06_cweord","Hex":"#ffcc3399","Correct":-1,"Choice":-1,"RT":-1,"Accuracy":1,"Outcome":"-1","Keys":[],"TotalKeys":0,"Block":2,"Trial":211,"Robot":4,"Valence":"Lose","Action":"No-Go","Sham":0,"Color":"yellow","trial_type":"pit-trial","trial_index":230,"time_elapsed":917459,"internal_node_id":"0.0-219.0","task_version":"test-retest-t2"},{"Rune":"rune_06_berkanan","Hex":"#ffcc3399","Correct":32,"Choice":32,"RT":322.5199999869801,"Accuracy":1,"Outcome":"-1","Keys":[1823.24499997776],"TotalKeys":1,"Block":2,"Trial":212,"Robot":3,"Valence":"Lose","Action":"Go","Sham":0,"Color":"yellow","trial_type":"pit-trial","trial_index":231,"time_elapsed":920285,"internal_node_id":"0.0-220.0","task_version":"test-retest-t2"},{"Rune":"rune_06_cweord","Hex":"#ffcc3399","Correct":-1,"Choice":-1,"RT":-1,"Accuracy":1,"Outcome":"-1","Keys":[],"TotalKeys":0,"Block":2,"Trial":213,"Robot":4,"Valence":"Lose","Action":"No-Go","Sham":0,"Color":"yellow","trial_type":"pit-trial","trial_index":232,"time_elapsed":924289,"internal_node_id":"0.0-221.0","task_version":"test-retest-t2"},{"Rune":"rune_06_ansuz","Hex":"#3366ff99","Correct":-1,"Choice":-1,"RT":-1,"Accuracy":1,"Outcome":"+10","Keys":[],"TotalKeys":0,"Block":2,"Trial":214,"Robot":2,"Valence":"Win","Action":"No-Go","Sham":0,"Color":"blue","trial_type":"pit-trial","trial_index":233,"time_elapsed":928294,"internal_node_id":"0.0-222.0","task_version":"test-retest-t2"},{"Rune":"rune_06_ehwaz","Hex":"#3366ff99","Correct":32,"Choice":32,"RT":440.0799999712035,"Accuracy":1,"Outcome":"+10","Keys":[1941.0700000007637],"TotalKeys":1,"Block":2,"Trial":215,"Robot":1,"Valence":"Win","Action":"Go","Sham":0,"Color":"blue","trial_type":"pit-trial","trial_index":234,"time_elapsed":931238,"internal_node_id":"0.0-223.0","task_version":"test-retest-t2"},{"Rune":"rune_06_berkanan","Hex":"#ffcc3399","Correct":32,"Choice":32,"RT":427.07499995594844,"Accuracy":1,"Outcome":"-1","Keys":[1927.7200000360608],"TotalKeys":1,"Block":2,"Trial":216,"Robot":3,"Valence":"Lose","Action":"Go","Sham":0,"Color":"yellow","trial_type":"pit-trial","trial_index":235,"time_elapsed":934168,"internal_node_id":"0.0-224.0","task_version":"test-retest-t2"},{"Rune":"rune_06_ansuz","Hex":"#3366ff99","Correct":-1,"Choice":-1,"RT":-1,"Accuracy":1,"Outcome":"+1","Keys":[],"TotalKeys":0,"Block":2,"Trial":217,"Robot":2,"Valence":"Win","Action":"No-Go","Sham":1,"Color":"blue","trial_type":"pit-trial","trial_index":236,"time_elapsed":938172,"internal_node_id":"0.0-225.0","task_version":"test-retest-t2"},{"Rune":"rune_06_berkanan","Hex":"#ffcc3399","Correct":32,"Choice":32,"RT":286.1850000335835,"Accuracy":1,"Outcome":"-1","Keys":[1787.819999968633],"TotalKeys":1,"Block":2,"Trial":218,"Robot":3,"Valence":"Lose","Action":"Go","Sham":0,"Color":"yellow","trial_type":"pit-trial","trial_index":237,"time_elapsed":940962,"internal_node_id":"0.0-226.0","task_version":"test-retest-t2"},{"Rune":"rune_06_ehwaz","Hex":"#3366ff99","Correct":32,"Choice":32,"RT":337.83999999286607,"Accuracy":1,"Outcome":"+1","Keys":[1839.0950000029989],"TotalKeys":1,"Block":2,"Trial":219,"Robot":1,"Valence":"Win","Action":"Go","Sham":1,"Color":"blue","trial_type":"pit-trial","trial_index":238,"time_elapsed":943803,"internal_node_id":"0.0-227.0","task_version":"test-retest-t2"},{"Rune":"rune_06_cweord","Hex":"#ffcc3399","Correct":-1,"Choice":-1,"RT":-1,"Accuracy":1,"Outcome":"-1","Keys":[],"TotalKeys":0,"Block":2,"Trial":220,"Robot":4,"Valence":"Lose","Action":"No-Go","Sham":0,"Color":"yellow","trial_type":"pit-trial","trial_index":239,"time_elapsed":947807,"internal_node_id":"0.0-228.0","task_version":"test-retest-t2"},{"Rune":"rune_06_ansuz","Hex":"#3366ff99","Correct":-1,"Choice":-1,"RT":-1,"Accuracy":1,"Outcome":"+10","Keys":[],"TotalKeys":0,"Block":2,"Trial":221,"Robot":2,"Valence":"Win","Action":"No-Go","Sham":0,"Color":"blue","trial_type":"pit-trial","trial_index":240,"time_elapsed":951812,"internal_node_id":"0.0-229.0","task_version":"test-retest-t2"},{"Rune":"rune_06_ehwaz","Hex":"#3366ff99","Correct":32,"Choice":32,"RT":433.9149999432266,"Accuracy":1,"Outcome":"+10","Keys":[1934.1699999640696],"TotalKeys":1,"Block":2,"Trial":222,"Robot":1,"Valence":"Win","Action":"Go","Sham":0,"Color":"blue","trial_type":"pit-trial","trial_index":241,"time_elapsed":954749,"internal_node_id":"0.0-230.0","task_version":"test-retest-t2"},{"Rune":"rune_06_berkanan","Hex":"#ffcc3399","Correct":32,"Choice":32,"RT":432.0849999785423,"Accuracy":1,"Outcome":"-10","Keys":[1932.7949999715202],"TotalKeys":1,"Block":2,"Trial":223,"Robot":3,"Valence":"Lose","Action":"Go","Sham":1,"Color":"yellow","trial_type":"pit-trial","trial_index":242,"time_elapsed":957685,"internal_node_id":"0.0-231.0","task_version":"test-retest-t2"},{"Rune":"rune_06_cweord","Hex":"#ffcc3399","Correct":-1,"Choice":-1,"RT":-1,"Accuracy":1,"Outcome":"-1","Keys":[],"TotalKeys":0,"Block":2,"Trial":224,"Robot":4,"Valence":"Lose","Action":"No-Go","Sham":0,"Color":"yellow","trial_type":"pit-trial","trial_index":243,"time_elapsed":961688,"internal_node_id":"0.0-232.0","task_version":"test-retest-t2"},{"Rune":"rune_06_berkanan","Hex":"#ffcc3399","Correct":32,"Choice":32,"RT":401.1900000041351,"Accuracy":1,"Outcome":"-1","Keys":[1902.239999966696],"TotalKeys":1,"Block":2,"Trial":225,"Robot":3,"Valence":"Lose","Action":"Go","Sham":0,"Color":"yellow","trial_type":"pit-trial","trial_index":244,"time_elapsed":964593,"internal_node_id":"0.0-233.0","task_version":"test-retest-t2"},{"Rune":"rune_06_ehwaz","Hex":"#3366ff99","Correct":32,"Choice":32,"RT":384.11000004271045,"Accuracy":1,"Outcome":"+10","Keys":[1884.3549999874085],"TotalKeys":1,"Block":2,"Trial":226,"Robot":1,"Valence":"Win","Action":"Go","Sham":0,"Color":"blue","trial_type":"pit-trial","trial_index":245,"time_elapsed":967479,"internal_node_id":"0.0-234.0","task_version":"test-retest-t2"},{"Rune":"rune_06_ansuz","Hex":"#3366ff99","Correct":-1,"Choice":-1,"RT":-1,"Accuracy":1,"Outcome":"+1","Keys":[],"TotalKeys":0,"Block":2,"Trial":227,"Robot":2,"Valence":"Win","Action":"No-Go","Sham":1,"Color":"blue","trial_type":"pit-trial","trial_index":246,"time_elapsed":971484,"internal_node_id":"0.0-235.0","task_version":"test-retest-t2"},{"Rune":"rune_06_cweord","Hex":"#ffcc3399","Correct":-1,"Choice":-1,"RT":-1,"Accuracy":1,"Outcome":"-1","Keys":[],"TotalKeys":0,"Block":2,"Trial":228,"Robot":4,"Valence":"Lose","Action":"No-Go","Sham":0,"Color":"yellow","trial_type":"pit-trial","trial_index":247,"time_elapsed":975488,"internal_node_id":"0.0-236.0","task_version":"test-retest-t2"},{"Rune":"rune_06_ehwaz","Hex":"#3366ff99","Correct":32,"Choice":32,"RT":334.1999999829568,"Accuracy":1,"Outcome":"+1","Keys":[1834.9799999850802],"TotalKeys":1,"Block":2,"Trial":229,"Robot":1,"Valence":"Win","Action":"Go","Sham":1,"Color":"blue","trial_type":"pit-trial","trial_index":248,"time_elapsed":978326,"internal_node_id":"0.0-237.0","task_version":"test-retest-t2"},{"Rune":"rune_06_cweord","Hex":"#ffcc3399","Correct":-1,"Choice":-1,"RT":-1,"Accuracy":1,"Outcome":"-1","Keys":[],"TotalKeys":0,"Block":2,"Trial":230,"Robot":4,"Valence":"Lose","Action":"No-Go","Sham":0,"Color":"yellow","trial_type":"pit-trial","trial_index":249,"time_elapsed":982330,"internal_node_id":"0.0-238.0","task_version":"test-retest-t2"},{"Rune":"rune_06_ansuz","Hex":"#3366ff99","Correct":-1,"Choice":-1,"RT":-1,"Accuracy":1,"Outcome":"+10","Keys":[],"TotalKeys":0,"Block":2,"Trial":231,"Robot":2,"Valence":"Win","Action":"No-Go","Sham":0,"Color":"blue","trial_type":"pit-trial","trial_index":250,"time_elapsed":986333,"internal_node_id":"0.0-239.0","task_version":"test-retest-t2"},{"Rune":"rune_06_berkanan","Hex":"#ffcc3399","Correct":32,"Choice":32,"RT":371.54000002192333,"Accuracy":1,"Outcome":"-1","Keys":[1873.070000030566],"TotalKeys":1,"Block":2,"Trial":232,"Robot":3,"Valence":"Lose","Action":"Go","Sham":0,"Color":"yellow","trial_type":"pit-trial","trial_index":251,"time_elapsed":989208,"internal_node_id":"0.0-240.0","task_version":"test-retest-t2"},{"Rune":"rune_06_cweord","Hex":"#ffcc3399","Correct":-1,"Choice":-1,"RT":-1,"Accuracy":1,"Outcome":"-10","Keys":[],"TotalKeys":0,"Block":2,"Trial":233,"Robot":4,"Valence":"Lose","Action":"No-Go","Sham":1,"Color":"yellow","trial_type":"pit-trial","trial_index":252,"time_elapsed":993213,"internal_node_id":"0.0-241.0","task_version":"test-retest-t2"},{"Rune":"rune_06_ehwaz","Hex":"#3366ff99","Correct":32,"Choice":32,"RT":337.16500003356487,"Accuracy":1,"Outcome":"+10","Keys":[1838.1950000184588],"TotalKeys":1,"Block":2,"Trial":234,"Robot":1,"Valence":"Win","Action":"Go","Sham":0,"Color":"blue","trial_type":"pit-trial","trial_index":253,"time_elapsed":996054,"internal_node_id":"0.0-242.0","task_version":"test-retest-t2"},{"Rune":"rune_06_ansuz","Hex":"#3366ff99","Correct":-1,"Choice":-1,"RT":-1,"Accuracy":1,"Outcome":"+10","Keys":[],"TotalKeys":0,"Block":2,"Trial":235,"Robot":2,"Valence":"Win","Action":"No-Go","Sham":0,"Color":"blue","trial_type":"pit-trial","trial_index":254,"time_elapsed":1000057,"internal_node_id":"0.0-243.0","task_version":"test-retest-t2"},{"Rune":"rune_06_berkanan","Hex":"#ffcc3399","Correct":32,"Choice":32,"RT":378.28999996418133,"Accuracy":1,"Outcome":"-1","Keys":[1879.3099999893457],"TotalKeys":1,"Block":2,"Trial":236,"Robot":3,"Valence":"Lose","Action":"Go","Sham":0,"Color":"yellow","trial_type":"pit-trial","trial_index":255,"time_elapsed":1002939,"internal_node_id":"0.0-244.0","task_version":"test-retest-t2"},{"Rune":"rune_06_ansuz","Hex":"#3366ff99","Correct":-1,"Choice":-1,"RT":-1,"Accuracy":1,"Outcome":"+10","Keys":[],"TotalKeys":0,"Block":2,"Trial":237,"Robot":2,"Valence":"Win","Action":"No-Go","Sham":0,"Color":"blue","trial_type":"pit-trial","trial_index":256,"time_elapsed":1006943,"internal_node_id":"0.0-245.0","task_version":"test-retest-t2"},{"Rune":"rune_06_cweord","Hex":"#ffcc3399","Correct":-1,"Choice":-1,"RT":-1,"Accuracy":1,"Outcome":"-1","Keys":[],"TotalKeys":0,"Block":2,"Trial":238,"Robot":4,"Valence":"Lose","Action":"No-Go","Sham":0,"Color":"yellow","trial_type":"pit-trial","trial_index":257,"time_elapsed":1010946,"internal_node_id":"0.0-246.0","task_version":"test-retest-t2"},{"Rune":"rune_06_ehwaz","Hex":"#3366ff99","Correct":32,"Choice":32,"RT":483.5050000110641,"Accuracy":1,"Outcome":"+10","Keys":[1983.6099999956787],"TotalKeys":1,"Block":2,"Trial":239,"Robot":1,"Valence":"Win","Action":"Go","Sham":0,"Color":"blue","trial_type":"pit-trial","trial_index":258,"time_elapsed":1013933,"internal_node_id":"0.0-247.0","task_version":"test-retest-t2"},{"Rune":"rune_06_berkanan","Hex":"#ffcc3399","Correct":32,"Choice":32,"RT":333.5899999947287,"Accuracy":1,"Outcome":"-1","Keys":[1833.6550000240095],"TotalKeys":1,"Block":2,"Trial":240,"Robot":3,"Valence":"Lose","Action":"Go","Sham":0,"Color":"yellow","trial_type":"pit-trial","trial_index":259,"time_elapsed":1016769,"internal_node_id":"0.0-248.0","task_version":"test-retest-t2"},{"view_history":"[{\"page_index\":0,\"viewing_time\":1556.555000017397}]","rt":1556.9399999803863,"trial_type":"pit-instructions","trial_index":260,"time_elapsed":1018327,"internal_node_id":"0.0-249.0","task_version":"test-retest-t2"},{"rt":18360.669999965467,"responses":{"difficulty":"2","fun":"4","clarity":"5","strategy":"Remember only what I need to accept.","feedback":""},"survey":"debrief","trial_type":"survey-debrief","trial_index":261,"time_elapsed":1036690,"internal_node_id":"0.0-250.0","task_version":"test-retest-t2"},{"rt":10185.829999973066,"stimulus":"You earned a bonus of $1.42 out of $1.5.<br><br>Press any key to complete the experiment.","key_press":83,"trial_type":"html-keyboard-response","trial_index":262,"time_elapsed":1046878,"internal_node_id":"0.0-251.0","task_version":"test-retest-t2","accuracy":0.9416666666666667,"bonus":1.42,"interactions":"[{\"event\":\"blur\",\"trial\":0,\"time\":2281},{\"event\":\"focus\",\"trial\":0,\"time\":3937},{\"event\":\"blur\",\"trial\":138,\"time\":546482},{\"event\":\"focus\",\"trial\":138,\"time\":601478}]"}]