[{"slider_type":"valence","raw_loc":700,"loc":0.9,"trial_type":"affective-slider","trial_index":0,"time_elapsed":45879,"internal_node_id":"0.0-0.0","task_version":"test-retest-t2"},{"responses":{"Q02":"1","Q03":"1","Q05":"1","Q04":"1","Q01":"2","Q07":"1","Q06":"2","Q08":"0"},"rt":37852.79499999888,"survey":"gad7","trial_type":"survey-template","trial_index":1,"time_elapsed":83743,"internal_node_id":"0.0-1.0","task_version":"test-retest-t2"},{"view_history":"[{\"page_index\":0,\"viewing_time\":3767.9299999872455},{\"page_index\":1,\"viewing_time\":1199.7450000053504},{\"page_index\":2,\"viewing_time\":3799.880000005942},{\"page_index\":3,\"viewing_time\":6270.059999995283},{\"page_index\":4,\"viewing_time\":4892.550000004121},{\"page_index\":5,\"viewing_time\":2837.3649999994086}]","rt":22769.19999999518,"trial_type":"pit-instructions","trial_index":2,"time_elapsed":106521,"internal_node_id":"0.0-2.0-0.0","task_version":"test-retest-t2"},{"Rune":"rune_00_ingz","Hex":"#FFFFF080","Correct":32,"Choice":32,"RT":452.14999999734573,"Accuracy":1,"Outcome":"+10","Keys":[1952.9299999994691],"TotalKeys":1,"Block":0,"Action":"Go","trial_type":"pit-trial","trial_index":3,"time_elapsed":109484,"internal_node_id":"0.0-2.0-1.0-0.0","task_version":"test-retest-t2"},{"Rune":"rune_00_ingz","Hex":"#FFFFF080","Correct":32,"Choice":-1,"RT":-1,"Accuracy":0,"Outcome":"+0","Keys":[],"TotalKeys":0,"Block":0,"Action":"Go","trial_type":"pit-trial","trial_index":4,"time_elapsed":113492,"internal_node_id":"0.0-2.0-1.0-0.1","task_version":"test-retest-t2"},{"Rune":"rune_00_ingz","Hex":"#FFFFF080","Correct":32,"Choice":32,"RT":578.57499999227,"Accuracy":1,"Outcome":"+10","Keys":[493.094999997993,2079.8799999902258],"TotalKeys":2,"Block":0,"Action":"Go","trial_type":"pit-trial","trial_index":5,"time_elapsed":116576,"internal_node_id":"0.0-2.0-1.0-0.2","task_version":"test-retest-t2"},{"Rune":"rune_00_ingz","Hex":"#FFFFF080","Correct":32,"Choice":32,"RT":483.5650000022724,"Accuracy":1,"Outcome":"+10","Keys":[1986.1050000035902],"TotalKeys":1,"Block":0,"Action":"Go","trial_type":"pit-trial","trial_index":6,"time_elapsed":119566,"internal_node_id":"0.0-2.0-1.0-0.3","task_version":"test-retest-t2"},{"view_history":"[{\"page_index\":0,\"viewing_time\":5428.495000000112}]","rt":5429.424999994808,"trial_type":"pit-instructions","trial_index":7,"time_elapsed":125000,"internal_node_id":"0.0-2.0-2.0","task_version":"test-retest-t2"},{"Rune":"rune_00_isaz","Hex":"#FFFFF080","Correct":-1,"Choice":-1,"RT":-1,"Accuracy":1,"Outcome":"+10","Keys":[],"TotalKeys":0,"Block":0,"Action":"No-Go","trial_type":"pit-trial","trial_index":8,"time_elapsed":129009,"internal_node_id":"0.0-2.0-3.0-0.0","task_version":"test-retest-t2"},{"Rune":"rune_00_isaz","Hex":"#FFFFF080","Correct":-1,"Choice":-1,"RT":-1,"Accuracy":1,"Outcome":"+10","Keys":[],"TotalKeys":0,"Block":0,"Action":"No-Go","trial_type":"pit-trial","trial_index":9,"time_elapsed":133016,"internal_node_id":"0.0-2.0-3.0-0.1","task_version":"test-retest-t2"},{"Rune":"rune_00_isaz","Hex":"#FFFFF080","Correct":-1,"Choice":-1,"RT":-1,"Accuracy":1,"Outcome":"+10","Keys":[],"TotalKeys":0,"Block":0,"Action":"No-Go","trial_type":"pit-trial","trial_index":10,"time_elapsed":137022,"internal_node_id":"0.0-2.0-3.0-0.2","task_version":"test-retest-t2"},{"Rune":"rune_00_isaz","Hex":"#FFFFF080","Correct":-1,"Choice":-1,"RT":-1,"Accuracy":1,"Outcome":"+10","Keys":[],"TotalKeys":0,"Block":0,"Action":"No-Go","trial_type":"pit-trial","trial_index":11,"time_elapsed":141029,"internal_node_id":"0.0-2.0-3.0-0.3","task_version":"test-retest-t2"},{"view_history":"[{\"page_index\":0,\"viewing_time\":2897.7349999913713},{\"page_index\":1,\"viewing_time\":4330.3650000016205},{\"page_index\":2,\"viewing_time\":9330.15000000887},{\"page_index\":3,\"viewing_time\":3369.65500000224},{\"page_index\":4,\"viewing_time\":3620.309999998426},{\"page_index\":5,\"viewing_time\":5190.294999993057},{\"page_index\":6,\"viewing_time\":1989.8050000047078},{\"page_index\":7,\"viewing_time\":2150.0599999999395}]","rt":32879.48499999766,"trial_type":"pit-instructions","trial_index":12,"time_elapsed":173910,"internal_node_id":"0.0-2.0-4.0","task_version":"test-retest-t2"},{"responses":["Do nothing","+10","+1","True","Yes"],"num_errors":1,"rt":15825.834999996005,"trial_type":"pit-comprehension","trial_index":13,"time_elapsed":189742,"internal_node_id":"0.0-2.0-5.0","task_version":"test-retest-t2"},{"view_history":"[{\"page_index\":0,\"viewing_time\":3986.8600000045262},{\"page_index\":1,\"viewing_time\":860.0199999928009},{\"page_index\":2,\"viewing_time\":2860.0850000075297},{\"page_index\":3,\"viewing_time\":920.2550000045449},{\"page_index\":4,\"viewing_time\":809.7799999959534},{\"page_index\":5,\"viewing_time\":719.584999998915}]","rt":10157.415000008768,"trial_type":"pit-instructions","trial_index":14,"time_elapsed":199909,"internal_node_id":"0.0-2.1-0.1","task_version":"test-retest-t2"},{"Rune":"rune_00_ingz","Hex":"#FFFFF080","Correct":32,"Choice":32,"RT":489.5550000073854,"Accuracy":1,"Outcome":"+10","Keys":[1990.9349999943515],"TotalKeys":1,"Block":0,"Action":"Go","trial_type":"pit-trial","trial_index":15,"time_elapsed":202907,"internal_node_id":"0.0-2.1-1.1-0.4","task_version":"test-retest-t2"},{"Rune":"rune_00_ingz","Hex":"#FFFFF080","Correct":32,"Choice":32,"RT":335.37499999511056,"Accuracy":1,"Outcome":"+10","Keys":[1835.800000000745],"TotalKeys":1,"Block":0,"Action":"Go","trial_type":"pit-trial","trial_index":16,"time_elapsed":205752,"internal_node_id":"0.0-2.1-1.1-0.5","task_version":"test-retest-t2"},{"Rune":"rune_00_ingz","Hex":"#FFFFF080","Correct":32,"Choice":32,"RT":239.90000000048894,"Accuracy":1,"Outcome":"+10","Keys":[1741.8400000024121],"TotalKeys":1,"Block":0,"Action":"Go","trial_type":"pit-trial","trial_index":17,"time_elapsed":208510,"internal_node_id":"0.0-2.1-1.1-0.6","task_version":"test-retest-t2"},{"Rune":"rune_00_ingz","Hex":"#FFFFF080","Correct":32,"Choice":32,"RT":288.06999999505933,"Accuracy":1,"Outcome":"+10","Keys":[1789.4999999989523],"TotalKeys":1,"Block":0,"Action":"Go","trial_type":"pit-trial","trial_index":18,"time_elapsed":211307,"internal_node_id":"0.0-2.1-1.1-0.7","task_version":"test-retest-t2"},{"view_history":"[{\"page_index\":0,\"viewing_time\":1187.4399999942398}]","rt":1188.3649999945192,"trial_type":"pit-instructions","trial_index":19,"time_elapsed":212499,"internal_node_id":"0.0-2.1-2.1","task_version":"test-retest-t2"},{"Rune":"rune_00_isaz","Hex":"#FFFFF080","Correct":-1,"Choice":-1,"RT":-1,"Accuracy":1,"Outcome":"+10","Keys":[],"TotalKeys":0,"Block":0,"Action":"No-Go","trial_type":"pit-trial","trial_index":20,"time_elapsed":216507,"internal_node_id":"0.0-2.1-3.1-0.4","task_version":"test-retest-t2"},{"Rune":"rune_00_isaz","Hex":"#FFFFF080","Correct":-1,"Choice":-1,"RT":-1,"Accuracy":1,"Outcome":"+10","Keys":[],"TotalKeys":0,"Block":0,"Action":"No-Go","trial_type":"pit-trial","trial_index":21,"time_elapsed":220515,"internal_node_id":"0.0-2.1-3.1-0.5","task_version":"test-retest-t2"},{"Rune":"rune_00_isaz","Hex":"#FFFFF080","Correct":-1,"Choice":-1,"RT":-1,"Accuracy":1,"Outcome":"+10","Keys":[],"TotalKeys":0,"Block":0,"Action":"No-Go","trial_type":"pit-trial","trial_index":22,"time_elapsed":224524,"internal_node_id":"0.0-2.1-3.1-0.6","task_version":"test-retest-t2"},{"Rune":"rune_00_isaz","Hex":"#FFFFF080","Correct":-1,"Choice":-1,"RT":-1,"Accuracy":1,"Outcome":"+10","Keys":[],"TotalKeys":0,"Block":0,"Action":"No-Go","trial_type":"pit-trial","trial_index":23,"time_elapsed":228534,"internal_node_id":"0.0-2.1-3.1-0.7","task_version":"test-retest-t2"},{"view_history":"[{\"page_index\":0,\"viewing_time\":1600.0999999960186},{\"page_index\":1,\"viewing_time\":5530.1650000037625},{\"page_index\":2,\"viewing_time\":6479.560000007041},{\"page_index\":3,\"viewing_time\":539.8049999930663},{\"page_index\":4,\"viewing_time\":480.0249999971129},{\"page_index\":5,\"viewing_time\":940.0500000047032},{\"page_index\":6,\"viewing_time\":490.1700000045821},{\"page_index\":7,\"viewing_time\":550.1449999865144}]","rt":16610.899999999674,"trial_type":"pit-instructions","trial_index":24,"time_elapsed":245150,"internal_node_id":"0.0-2.1-4.1","task_version":"test-retest-t2"},{"responses":["Do nothing","+10","-1","True","Yes"],"num_errors":0,"rt":15969.57499999553,"trial_type":"pit-comprehension","trial_index":25,"time_elapsed":261124,"internal_node_id":"0.0-2.1-5.1","task_version":"test-retest-t2"},{"trial_type":"call-function","trial_index":26,"time_elapsed":261128,"internal_node_id":"0.0-3.0","task_version":"test-retest-t2"},{"view_history":"[{\"page_index\":0,\"viewing_time\":1718.7750000011874},{\"page_index\":1,\"viewing_time\":1820.7000000111293},{\"page_index\":2,\"viewing_time\":1949.544999995851}]","rt":5489.985000007437,"trial_type":"pit-instructions","trial_index":27,"time_elapsed":266620,"internal_node_id":"0.0-4.0","task_version":"test-retest-t2"},{"Rune":"rune_04_wunjo","Hex":"#3366ff99","Correct":32,"Choice":32,"RT":390.9399999974994,"Accuracy":1,"Outcome":"+10","Keys":[1893.0899999977555],"TotalKeys":1,"Block":1,"Trial":1,"Robot":1,"Valence":"Win","Action":"Go","Sham":0,"Color":"blue","trial_type":"pit-trial","trial_index":28,"time_elapsed":269522,"internal_node_id":"0.0-5.0","task_version":"test-retest-t2"},{"Rune":"rune_04_dagaz","Hex":"#ffcc3399","Correct":32,"Choice":32,"RT":415.34500000125263,"Accuracy":1,"Outcome":"-1","Keys":[1916.6850000037812],"TotalKeys":1,"Block":1,"Trial":2,"Robot":3,"Valence":"Lose","Action":"Go","Sham":0,"Color":"yellow","trial_type":"pit-trial","trial_index":29,"time_elapsed":272448,"internal_node_id":"0.0-6.0","task_version":"test-retest-t2"},{"Rune":"rune_04_ac","Hex":"#ffcc3399","Correct":-1,"Choice":32,"RT":632.7750000054948,"Accuracy":0,"Outcome":"-10","Keys":[2132.870000001276],"TotalKeys":1,"Block":1,"Trial":3,"Robot":4,"Valence":"Lose","Action":"No-Go","Sham":0,"Color":"yellow","trial_type":"pit-trial","trial_index":30,"time_elapsed":275589,"internal_node_id":"0.0-7.0","task_version":"test-retest-t2"},{"Rune":"rune_04_iwaz","Hex":"#3366ff99","Correct":-1,"Choice":32,"RT":469.954999993206,"Accuracy":0,"Outcome":"+1","Keys":[1970.9850000072038],"TotalKeys":1,"Block":1,"Trial":4,"Robot":2,"Valence":"Win","Action":"No-Go","Sham":0,"Color":"blue","trial_type":"pit-trial","trial_index":31,"time_elapsed":278568,"internal_node_id":"0.0-8.0","task_version":"test-retest-t2"},{"Rune":"rune_04_dagaz","Hex":"#ffcc3399","Correct":32,"Choice":32,"RT":971.319999996922,"Accuracy":1,"Outcome":"-1","Keys":[2472.1799999970244],"TotalKeys":1,"Block":1,"Trial":5,"Robot":3,"Valence":"Lose","Action":"Go","Sham":0,"Color":"yellow","trial_type":"pit-trial","trial_index":32,"time_elapsed":282047,"internal_node_id":"0.0-9.0","task_version":"test-retest-t2"},{"Rune":"rune_04_iwaz","Hex":"#3366ff99","Correct":-1,"Choice":-1,"RT":-1,"Accuracy":1,"Outcome":"+10","Keys":[],"TotalKeys":0,"Block":1,"Trial":6,"Robot":2,"Valence":"Win","Action":"No-Go","Sham":0,"Color":"blue","trial_type":"pit-trial","trial_index":33,"time_elapsed":286054,"internal_node_id":"0.0-10.0","task_version":"test-retest-t2"},{"Rune":"rune_04_wunjo","Hex":"#3366ff99","Correct":32,"Choice":-1,"RT":-1,"Accuracy":0,"Outcome":"+1","Keys":[3044.274999992922],"TotalKeys":1,"Block":1,"Trial":7,"Robot":1,"Valence":"Win","Action":"Go","Sham":0,"Color":"blue","trial_type":"pit-trial","trial_index":34,"time_elapsed":290063,"internal_node_id":"0.0-11.0","task_version":"test-retest-t2"},{"Rune":"rune_04_ac","Hex":"#ffcc3399","Correct":-1,"Choice":-1,"RT":-1,"Accuracy":1,"Outcome":"-10","Keys":[],"TotalKeys":0,"Block":1,"Trial":8,"Robot":4,"Valence":"Lose","Action":"No-Go","Sham":1,"Color":"yellow","trial_type":"pit-trial","trial_index":35,"time_elapsed":294072,"internal_node_id":"0.0-12.0","task_version":"test-retest-t2"},{"Rune":"rune_04_ac","Hex":"#ffcc3399","Correct":-1,"Choice":32,"RT":500.3349999897182,"Accuracy":0,"Outcome":"-10","Keys":[2002.0199999999022],"TotalKeys":1,"Block":1,"Trial":9,"Robot":4,"Valence":"Lose","Action":"No-Go","Sham":0,"Color":"yellow","trial_type":"pit-trial","trial_index":36,"time_elapsed":297081,"internal_node_id":"0.0-13.0","task_version":"test-retest-t2"},{"Rune":"rune_04_iwaz","Hex":"#3366ff99","Correct":-1,"Choice":-1,"RT":-1,"Accuracy":1,"Outcome":"+1","Keys":[],"TotalKeys":0,"Block":1,"Trial":10,"Robot":2,"Valence":"Win","Action":"No-Go","Sham":1,"Color":"blue","trial_type":"pit-trial","trial_index":37,"time_elapsed":301091,"internal_node_id":"0.0-14.0","task_version":"test-retest-t2"},{"Rune":"rune_04_dagaz","Hex":"#ffcc3399","Correct":32,"Choice":32,"RT":300.86000000301283,"Accuracy":1,"Outcome":"-1","Keys":[1801.964999991469],"TotalKeys":1,"Block":1,"Trial":11,"Robot":3,"Valence":"Lose","Action":"Go","Sham":0,"Color":"yellow","trial_type":"pit-trial","trial_index":38,"time_elapsed":303901,"internal_node_id":"0.0-15.0","task_version":"test-retest-t2"},{"Rune":"rune_04_wunjo","Hex":"#3366ff99","Correct":32,"Choice":-1,"RT":-1,"Accuracy":0,"Outcome":"+1","Keys":[3542.3549999977695],"TotalKeys":1,"Block":1,"Trial":12,"Robot":1,"Valence":"Win","Action":"Go","Sham":0,"Color":"blue","trial_type":"pit-trial","trial_index":39,"time_elapsed":307909,"internal_node_id":"0.0-16.0","task_version":"test-retest-t2"},{"Rune":"rune_04_wunjo","Hex":"#3366ff99","Correct":32,"Choice":32,"RT":357.8799999959301,"Accuracy":1,"Outcome":"+10","Keys":[1858.04000000644],"TotalKeys":1,"Block":1,"Trial":13,"Robot":1,"Valence":"Win","Action":"Go","Sham":0,"Color":"blue","trial_type":"pit-trial","trial_index":40,"time_elapsed":310775,"internal_node_id":"0.0-17.0","task_version":"test-retest-t2"},{"Rune":"rune_04_iwaz","Hex":"#3366ff99","Correct":-1,"Choice":32,"RT":377.28999998944346,"Accuracy":0,"Outcome":"+1","Keys":[1878.0100000003586],"TotalKeys":1,"Block":1,"Trial":14,"Robot":2,"Valence":"Win","Action":"No-Go","Sham":0,"Color":"blue","trial_type":"pit-trial","trial_index":41,"time_elapsed":313662,"internal_node_id":"0.0-18.0","task_version":"test-retest-t2"},{"Rune":"rune_04_ac","Hex":"#ffcc3399","Correct":-1,"Choice":-1,"RT":-1,"Accuracy":1,"Outcome":"-1","Keys":[],"TotalKeys":0,"Block":1,"Trial":15,"Robot":4,"Valence":"Lose","Action":"No-Go","Sham":0,"Color":"yellow","trial_type":"pit-trial","trial_index":42,"time_elapsed":317673,"internal_node_id":"0.0-19.0","task_version":"test-retest-t2"},{"Rune":"rune_04_dagaz","Hex":"#ffcc3399","Correct":32,"Choice":32,"RT":618.1000000069616,"Accuracy":1,"Outcome":"-10","Keys":[2118.88499998895],"TotalKeys":1,"Block":1,"Trial":16,"Robot":3,"Valence":"Lose","Action":"Go","Sham":1,"Color":"yellow","trial_type":"pit-trial","trial_index":43,"time_elapsed":320800,"internal_node_id":"0.0-20.0","task_version":"test-retest-t2"},{"Rune":"rune_04_iwaz","Hex":"#3366ff99","Correct":-1,"Choice":32,"RT":544.209999992745,"Accuracy":0,"Outcome":"+1","Keys":[2045.6900000135647],"TotalKeys":1,"Block":1,"Trial":17,"Robot":2,"Valence":"Win","Action":"No-Go","Sham":0,"Color":"blue","trial_type":"pit-trial","trial_index":44,"time_elapsed":323853,"internal_node_id":"0.0-21.0","task_version":"test-retest-t2"},{"Rune":"rune_04_dagaz","Hex":"#ffcc3399","Correct":32,"Choice":32,"RT":607.3900000046706,"Accuracy":1,"Outcome":"-1","Keys":[2109.4600000069477],"TotalKeys":1,"Block":1,"Trial":18,"Robot":3,"Valence":"Lose","Action":"Go","Sham":0,"Color":"yellow","trial_type":"pit-trial","trial_index":45,"time_elapsed":326971,"internal_node_id":"0.0-22.0","task_version":"test-retest-t2"},{"Rune":"rune_04_wunjo","Hex":"#3366ff99","Correct":32,"Choice":32,"RT":496.04499999259133,"Accuracy":1,"Outcome":"+1","Keys":[1997.5000000122236],"TotalKeys":1,"Block":1,"Trial":19,"Robot":1,"Valence":"Win","Action":"Go","Sham":1,"Color":"blue","trial_type":"pit-trial","trial_index":46,"time_elapsed":329977,"internal_node_id":"0.0-23.0","task_version":"test-retest-t2"},{"Rune":"rune_04_ac","Hex":"#ffcc3399","Correct":-1,"Choice":-1,"RT":-1,"Accuracy":1,"Outcome":"-1","Keys":[],"TotalKeys":0,"Block":1,"Trial":20,"Robot":4,"Valence":"Lose","Action":"No-Go","Sham":0,"Color":"yellow","trial_type":"pit-trial","trial_index":47,"time_elapsed":333987,"internal_node_id":"0.0-24.0","task_version":"test-retest-t2"},{"Rune":"rune_04_ac","Hex":"#ffcc3399","Correct":-1,"Choice":-1,"RT":-1,"Accuracy":1,"Outcome":"-10","Keys":[],"TotalKeys":0,"Block":1,"Trial":21,"Robot":4,"Valence":"Lose","Action":"No-Go","Sham":1,"Color":"yellow","trial_type":"pit-trial","trial_index":48,"time_elapsed":337994,"internal_node_id":"0.0-25.0","task_version":"test-retest-t2"},{"Rune":"rune_04_dagaz","Hex":"#ffcc3399","Correct":32,"Choice":32,"RT":403.6400000040885,"Accuracy":1,"Outcome":"-10","Keys":[1903.7199999875156],"TotalKeys":1,"Block":1,"Trial":22,"Robot":3,"Valence":"Lose","Action":"Go","Sham":1,"Color":"yellow","trial_type":"pit-trial","trial_index":49,"time_elapsed":340903,"internal_node_id":"0.0-26.0","task_version":"test-retest-t2"},{"Rune":"rune_04_iwaz","Hex":"#3366ff99","Correct":-1,"Choice":-1,"RT":-1,"Accuracy":1,"Outcome":"+10","Keys":[],"TotalKeys":0,"Block":1,"Trial":23,"Robot":2,"Valence":"Win","Action":"No-Go","Sham":0,"Color":"blue","trial_type":"pit-trial","trial_index":50,"time_elapsed":344913,"internal_node_id":"0.0-27.0","task_version":"test-retest-t2"},{"Rune":"rune_04_wunjo","Hex":"#3366ff99","Correct":32,"Choice":32,"RT":389.71000000310596,"Accuracy":1,"Outcome":"+10","Keys":[1890.494999999646],"TotalKeys":1,"Block":1,"Trial":24,"Robot":1,"Valence":"Win","Action":"Go","Sham":0,"Color":"blue","trial_type":"pit-trial","trial_index":51,"time_elapsed":347812,"internal_node_id":"0.0-28.0","task_version":"test-retest-t2"},{"Rune":"rune_04_wunjo","Hex":"#3366ff99","Correct":32,"Choice":32,"RT":369.9449999985518,"Accuracy":1,"Outcome":"+10","Keys":[1870.7350000040606],"TotalKeys":1,"Block":1,"Trial":25,"Robot":1,"Valence":"Win","Action":"Go","Sham":0,"Color":"blue","trial_type":"pit-trial","trial_index":52,"time_elapsed":350692,"internal_node_id":"0.0-29.0","task_version":"test-retest-t2"},{"Rune":"rune_04_iwaz","Hex":"#3366ff99","Correct":-1,"Choice":-1,"RT":-1,"Accuracy":1,"Outcome":"+10","Keys":[],"TotalKeys":0,"Block":1,"Trial":26,"Robot":2,"Valence":"Win","Action":"No-Go","Sham":0,"Color":"blue","trial_type":"pit-trial","trial_index":53,"time_elapsed":354700,"internal_node_id":"0.0-30.0","task_version":"test-retest-t2"},{"Rune":"rune_04_dagaz","Hex":"#ffcc3399","Correct":32,"Choice":32,"RT":410.85000000020955,"Accuracy":1,"Outcome":"-1","Keys":[1911.4650000119582],"TotalKeys":1,"Block":1,"Trial":27,"Robot":3,"Valence":"Lose","Action":"Go","Sham":0,"Color":"yellow","trial_type":"pit-trial","trial_index":54,"time_elapsed":357619,"internal_node_id":"0.0-31.0","task_version":"test-retest-t2"},{"Rune":"rune_04_ac","Hex":"#ffcc3399","Correct":-1,"Choice":-1,"RT":-1,"Accuracy":1,"Outcome":"-1","Keys":[],"TotalKeys":0,"Block":1,"Trial":28,"Robot":4,"Valence":"Lose","Action":"No-Go","Sham":0,"Color":"yellow","trial_type":"pit-trial","trial_index":55,"time_elapsed":361628,"internal_node_id":"0.0-32.0","task_version":"test-retest-t2"},{"Rune":"rune_04_dagaz","Hex":"#ffcc3399","Correct":32,"Choice":32,"RT":788.6799999978393,"Accuracy":1,"Outcome":"-1","Keys":[2289.8649999988265],"TotalKeys":1,"Block":1,"Trial":29,"Robot":3,"Valence":"Lose","Action":"Go","Sham":0,"Color":"yellow","trial_type":"pit-trial","trial_index":56,"time_elapsed":364926,"internal_node_id":"0.0-33.0","task_version":"test-retest-t2"},{"Rune":"rune_04_wunjo","Hex":"#3366ff99","Correct":32,"Choice":32,"RT":929.7950000036508,"Accuracy":1,"Outcome":"+10","Keys":[2430.5049999966286],"TotalKeys":1,"Block":1,"Trial":30,"Robot":1,"Valence":"Win","Action":"Go","Sham":0,"Color":"blue","trial_type":"pit-trial","trial_index":57,"time_elapsed":368365,"internal_node_id":"0.0-34.0","task_version":"test-retest-t2"},{"Rune":"rune_04_ac","Hex":"#ffcc3399","Correct":-1,"Choice":-1,"RT":-1,"Accuracy":1,"Outcome":"-1","Keys":[],"TotalKeys":0,"Block":1,"Trial":31,"Robot":4,"Valence":"Lose","Action":"No-Go","Sham":0,"Color":"yellow","trial_type":"pit-trial","trial_index":58,"time_elapsed":372375,"internal_node_id":"0.0-35.0","task_version":"test-retest-t2"},{"Rune":"rune_04_iwaz","Hex":"#3366ff99","Correct":-1,"Choice":-1,"RT":-1,"Accuracy":1,"Outcome":"+10","Keys":[],"TotalKeys":0,"Block":1,"Trial":32,"Robot":2,"Valence":"Win","Action":"No-Go","Sham":0,"Color":"blue","trial_type":"pit-trial","trial_index":59,"time_elapsed":376383,"internal_node_id":"0.0-36.0","task_version":"test-retest-t2"},{"Rune":"rune_04_ac","Hex":"#ffcc3399","Correct":-1,"Choice":-1,"RT":-1,"Accuracy":1,"Outcome":"-1","Keys":[],"TotalKeys":0,"Block":1,"Trial":33,"Robot":4,"Valence":"Lose","Action":"No-Go","Sham":0,"Color":"yellow","trial_type":"pit-trial","trial_index":60,"time_elapsed":380392,"internal_node_id":"0.0-37.0","task_version":"test-retest-t2"},{"Rune":"rune_04_iwaz","Hex":"#3366ff99","Correct":-1,"Choice":32,"RT":496.4800000016112,"Accuracy":0,"Outcome":"+10","Keys":[1997.9100000055041],"TotalKeys":1,"Block":1,"Trial":34,"Robot":2,"Valence":"Win","Action":"No-Go","Sham":1,"Color":"blue","trial_type":"pit-trial","trial_index":61,"time_elapsed":383399,"internal_node_id":"0.0-38.0","task_version":"test-retest-t2"},{"Rune":"rune_04_wunjo","Hex":"#3366ff99","Correct":32,"Choice":32,"RT":606.0450000077253,"Accuracy":1,"Outcome":"+10","Keys":[2109.2500000086147],"TotalKeys":1,"Block":1,"Trial":35,"Robot":1,"Valence":"Win","Action":"Go","Sham":0,"Color":"blue","trial_type":"pit-trial","trial_index":62,"time_elapsed":386517,"internal_node_id":"0.0-39.0","task_version":"test-retest-t2"},{"Rune":"rune_04_dagaz","Hex":"#ffcc3399","Correct":32,"Choice":-1,"RT":-1,"Accuracy":0,"Outcome":"-10","Keys":[],"TotalKeys":0,"Block":1,"Trial":36,"Robot":3,"Valence":"Lose","Action":"Go","Sham":0,"Color":"yellow","trial_type":"pit-trial","trial_index":63,"time_elapsed":390527,"internal_node_id":"0.0-40.0","task_version":"test-retest-t2"},{"Rune":"rune_04_wunjo","Hex":"#3366ff99","Correct":32,"Choice":32,"RT":450.37500000034925,"Accuracy":1,"Outcome":"+1","Keys":[1950.8500000083586],"TotalKeys":1,"Block":1,"Trial":37,"Robot":1,"Valence":"Win","Action":"Go","Sham":1,"Color":"blue","trial_type":"pit-trial","trial_index":64,"time_elapsed":393485,"internal_node_id":"0.0-41.0","task_version":"test-retest-t2"},{"Rune":"rune_04_ac","Hex":"#ffcc3399","Correct":-1,"Choice":-1,"RT":-1,"Accuracy":1,"Outcome":"-1","Keys":[],"TotalKeys":0,"Block":1,"Trial":38,"Robot":4,"Valence":"Lose","Action":"No-Go","Sham":0,"Color":"yellow","trial_type":"pit-trial","trial_index":65,"time_elapsed":397491,"internal_node_id":"0.0-42.0","task_version":"test-retest-t2"},{"Rune":"rune_04_dagaz","Hex":"#ffcc3399","Correct":32,"Choice":32,"RT":632.6249999983702,"Accuracy":1,"Outcome":"-1","Keys":[2133.289999997942],"TotalKeys":1,"Block":1,"Trial":39,"Robot":3,"Valence":"Lose","Action":"Go","Sham":0,"Color":"yellow","trial_type":"pit-trial","trial_index":66,"time_elapsed":400632,"internal_node_id":"0.0-43.0","task_version":"test-retest-t2"},{"Rune":"rune_04_iwaz","Hex":"#3366ff99","Correct":-1,"Choice":-1,"RT":-1,"Accuracy":1,"Outcome":"+10","Keys":[],"TotalKeys":0,"Block":1,"Trial":40,"Robot":2,"Valence":"Win","Action":"No-Go","Sham":0,"Color":"blue","trial_type":"pit-trial","trial_index":67,"time_elapsed":404640,"internal_node_id":"0.0-44.0","task_version":"test-retest-t2"},{"Rune":"rune_04_ac","Hex":"#ffcc3399","Correct":-1,"Choice":-1,"RT":-1,"Accuracy":1,"Outcome":"-10","Keys":[],"TotalKeys":0,"Block":1,"Trial":41,"Robot":4,"Valence":"Lose","Action":"No-Go","Sham":1,"Color":"yellow","trial_type":"pit-trial","trial_index":68,"time_elapsed":408649,"internal_node_id":"0.0-45.0","task_version":"test-retest-t2"},{"Rune":"rune_04_dagaz","Hex":"#ffcc3399","Correct":32,"Choice":32,"RT":580.1249999931315,"Accuracy":1,"Outcome":"-1","Keys":[2082.024999996065],"TotalKeys":1,"Block":1,"Trial":42,"Robot":3,"Valence":"Lose","Action":"Go","Sham":0,"Color":"yellow","trial_type":"pit-trial","trial_index":69,"time_elapsed":411739,"internal_node_id":"0.0-46.0","task_version":"test-retest-t2"},{"Rune":"rune_04_iwaz","Hex":"#3366ff99","Correct":-1,"Choice":-1,"RT":-1,"Accuracy":1,"Outcome":"+10","Keys":[],"TotalKeys":0,"Block":1,"Trial":43,"Robot":2,"Valence":"Win","Action":"No-Go","Sham":0,"Color":"blue","trial_type":"pit-trial","trial_index":70,"time_elapsed":415747,"internal_node_id":"0.0-47.0","task_version":"test-retest-t2"},{"Rune":"rune_04_wunjo","Hex":"#3366ff99","Correct":32,"Choice":-1,"RT":-1,"Accuracy":0,"Outcome":"+1","Keys":[],"TotalKeys":0,"Block":1,"Trial":44,"Robot":1,"Valence":"Win","Action":"Go","Sham":0,"Color":"blue","trial_type":"pit-trial","trial_index":71,"time_elapsed":419754,"internal_node_id":"0.0-48.0","task_version":"test-retest-t2"},{"Rune":"rune_04_wunjo","Hex":"#3366ff99","Correct":32,"Choice":32,"RT":580.7349999959115,"Accuracy":1,"Outcome":"+10","Keys":[2081.6199999972014],"TotalKeys":1,"Block":1,"Trial":45,"Robot":1,"Valence":"Win","Action":"Go","Sham":0,"Color":"blue","trial_type":"pit-trial","trial_index":72,"time_elapsed":422843,"internal_node_id":"0.0-49.0","task_version":"test-retest-t2"},{"Rune":"rune_04_ac","Hex":"#ffcc3399","Correct":-1,"Choice":-1,"RT":-1,"Accuracy":1,"Outcome":"-1","Keys":[],"TotalKeys":0,"Block":1,"Trial":46,"Robot":4,"Valence":"Lose","Action":"No-Go","Sham":0,"Color":"yellow","trial_type":"pit-trial","trial_index":73,"time_elapsed":426852,"internal_node_id":"0.0-50.0","task_version":"test-retest-t2"},{"Rune":"rune_04_dagaz","Hex":"#ffcc3399","Correct":32,"Choice":32,"RT":735.9349999896949,"Accuracy":1,"Outcome":"-1","Keys":[2235.980000012205],"TotalKeys":1,"Block":1,"Trial":47,"Robot":3,"Valence":"Lose","Action":"Go","Sham":0,"Color":"yellow","trial_type":"pit-trial","trial_index":74,"time_elapsed":430097,"internal_node_id":"0.0-51.0","task_version":"test-retest-t2"},{"Rune":"rune_04_iwaz","Hex":"#3366ff99","Correct":-1,"Choice":-1,"RT":-1,"Accuracy":1,"Outcome":"+10","Keys":[],"TotalKeys":0,"Block":1,"Trial":48,"Robot":2,"Valence":"Win","Action":"No-Go","Sham":0,"Color":"blue","trial_type":"pit-trial","trial_index":75,"time_elapsed":434105,"internal_node_id":"0.0-52.0","task_version":"test-retest-t2"},{"Rune":"rune_04_dagaz","Hex":"#ffcc3399","Correct":32,"Choice":32,"RT":367.5050000019837,"Accuracy":1,"Outcome":"-1","Keys":[1867.7199999947334],"TotalKeys":1,"Block":1,"Trial":49,"Robot":3,"Valence":"Lose","Action":"Go","Sham":0,"Color":"yellow","trial_type":"pit-trial","trial_index":76,"time_elapsed":436980,"internal_node_id":"0.0-53.0","task_version":"test-retest-t2"},{"Rune":"rune_04_ac","Hex":"#ffcc3399","Correct":-1,"Choice":-1,"RT":-1,"Accuracy":1,"Outcome":"-1","Keys":[],"TotalKeys":0,"Block":1,"Trial":50,"Robot":4,"Valence":"Lose","Action":"No-Go","Sham":0,"Color":"yellow","trial_type":"pit-trial","trial_index":77,"time_elapsed":440989,"internal_node_id":"0.0-54.0","task_version":"test-retest-t2"},{"Rune":"rune_04_iwaz","Hex":"#3366ff99","Correct":-1,"Choice":-1,"RT":-1,"Accuracy":1,"Outcome":"+10","Keys":[],"TotalKeys":0,"Block":1,"Trial":51,"Robot":2,"Valence":"Win","Action":"No-Go","Sham":0,"Color":"blue","trial_type":"pit-trial","trial_index":78,"time_elapsed":444997,"internal_node_id":"0.0-55.0","task_version":"test-retest-t2"},{"Rune":"rune_04_wunjo","Hex":"#3366ff99","Correct":32,"Choice":32,"RT":401.24000000650994,"Accuracy":1,"Outcome":"+10","Keys":[1901.4449999958742],"TotalKeys":1,"Block":1,"Trial":52,"Robot":1,"Valence":"Win","Action":"Go","Sham":0,"Color":"blue","trial_type":"pit-trial","trial_index":79,"time_elapsed":447905,"internal_node_id":"0.0-56.0","task_version":"test-retest-t2"},{"Rune":"rune_04_ac","Hex":"#ffcc3399","Correct":-1,"Choice":-1,"RT":-1,"Accuracy":1,"Outcome":"-1","Keys":[],"TotalKeys":0,"Block":1,"Trial":53,"Robot":4,"Valence":"Lose","Action":"No-Go","Sham":0,"Color":"yellow","trial_type":"pit-trial","trial_index":80,"time_elapsed":451912,"internal_node_id":"0.0-57.0","task_version":"test-retest-t2"},{"Rune":"rune_04_iwaz","Hex":"#3366ff99","Correct":-1,"Choice":-1,"RT":-1,"Accuracy":1,"Outcome":"+1","Keys":[],"TotalKeys":0,"Block":1,"Trial":54,"Robot":2,"Valence":"Win","Action":"No-Go","Sham":1,"Color":"blue","trial_type":"pit-trial","trial_index":81,"time_elapsed":455919,"internal_node_id":"0.0-58.0","task_version":"test-retest-t2"},{"Rune":"rune_04_dagaz","Hex":"#ffcc3399","Correct":32,"Choice":32,"RT":460.12999999220483,"Accuracy":1,"Outcome":"-10","Keys":[1960.2650000015274],"TotalKeys":1,"Block":1,"Trial":55,"Robot":3,"Valence":"Lose","Action":"Go","Sham":1,"Color":"yellow","trial_type":"pit-trial","trial_index":82,"time_elapsed":458884,"internal_node_id":"0.0-59.0","task_version":"test-retest-t2"},{"Rune":"rune_04_wunjo","Hex":"#3366ff99","Correct":32,"Choice":32,"RT":614.3199999933131,"Accuracy":1,"Outcome":"+10","Keys":[2115.5299999954877],"TotalKeys":1,"Block":1,"Trial":56,"Robot":1,"Valence":"Win","Action":"Go","Sham":0,"Color":"blue","trial_type":"pit-trial","trial_index":83,"time_elapsed":462006,"internal_node_id":"0.0-60.0","task_version":"test-retest-t2"},{"Rune":"rune_04_dagaz","Hex":"#ffcc3399","Correct":32,"Choice":-1,"RT":-1,"Accuracy":0,"Outcome":"-10","Keys":[],"TotalKeys":0,"Block":1,"Trial":57,"Robot":3,"Valence":"Lose","Action":"Go","Sham":0,"Color":"yellow","trial_type":"pit-trial","trial_index":84,"time_elapsed":466016,"internal_node_id":"0.0-61.0","task_version":"test-retest-t2"},{"Rune":"rune_04_ac","Hex":"#ffcc3399","Correct":-1,"Choice":-1,"RT":-1,"Accuracy":1,"Outcome":"-1","Keys":[],"TotalKeys":0,"Block":1,"Trial":58,"Robot":4,"Valence":"Lose","Action":"No-Go","Sham":0,"Color":"yellow","trial_type":"pit-trial","trial_index":85,"time_elapsed":470024,"internal_node_id":"0.0-62.0","task_version":"test-retest-t2"},{"Rune":"rune_04_wunjo","Hex":"#3366ff99","Correct":32,"Choice":32,"RT":493.8149999943562,"Accuracy":1,"Outcome":"+1","Keys":[1995.230000000447],"TotalKeys":1,"Block":1,"Trial":59,"Robot":1,"Valence":"Win","Action":"Go","Sham":1,"Color":"blue","trial_type":"pit-trial","trial_index":86,"time_elapsed":473027,"internal_node_id":"0.0-63.0","task_version":"test-retest-t2"},{"Rune":"rune_04_iwaz","Hex":"#3366ff99","Correct":-1,"Choice":-1,"RT":-1,"Accuracy":1,"Outcome":"+10","Keys":[],"TotalKeys":0,"Block":1,"Trial":60,"Robot":2,"Valence":"Win","Action":"No-Go","Sham":0,"Color":"blue","trial_type":"pit-trial","trial_index":87,"time_elapsed":477036,"internal_node_id":"0.0-64.0","task_version":"test-retest-t2"},{"value":false,"trial_type":"call-function","trial_index":88,"time_elapsed":477048,"internal_node_id":"0.0-65.0","task_version":"test-retest-t2"},{"view_history":"[{\"page_index\":0,\"viewing_time\":2696.174999990035},{\"page_index\":1,\"viewing_time\":2009.9300000001676}]","rt":4707.164999999804,"trial_type":"pit-instructions","trial_index":89,"time_elapsed":481758,"internal_node_id":"0.0-66.0","task_version":"test-retest-t2"},{"Rune":"rune_04_ac","Hex":"#ffcc3399","Correct":-1,"Choice":32,"RT":373.699999996461,"Accuracy":0,"Outcome":"-10","Keys":[1874.5250000065425],"TotalKeys":1,"Block":1,"Trial":61,"Robot":4,"Valence":"Lose","Action":"No-Go","Sham":0,"Color":"yellow","trial_type":"pit-trial","trial_index":90,"time_elapsed":484641,"internal_node_id":"0.0-67.0","task_version":"test-retest-t2"},{"Rune":"rune_04_iwaz","Hex":"#3366ff99","Correct":-1,"Choice":32,"RT":690.7900000078371,"Accuracy":0,"Outcome":"+1","Keys":[2192.0350000000326],"TotalKeys":1,"Block":1,"Trial":62,"Robot":2,"Valence":"Win","Action":"No-Go","Sham":0,"Color":"blue","trial_type":"pit-trial","trial_index":91,"time_elapsed":487837,"internal_node_id":"0.0-68.0","task_version":"test-retest-t2"},{"Rune":"rune_04_dagaz","Hex":"#ffcc3399","Correct":32,"Choice":32,"RT":754.8700000043027,"Accuracy":1,"Outcome":"-10","Keys":[2256.0149999917485],"TotalKeys":1,"Block":1,"Trial":63,"Robot":3,"Valence":"Lose","Action":"Go","Sham":1,"Color":"yellow","trial_type":"pit-trial","trial_index":92,"time_elapsed":491099,"internal_node_id":"0.0-69.0","task_version":"test-retest-t2"},{"Rune":"rune_04_wunjo","Hex":"#3366ff99","Correct":32,"Choice":32,"RT":411.14499999093823,"Accuracy":1,"Outcome":"+10","Keys":[1911.805000010645],"TotalKeys":1,"Block":1,"Trial":64,"Robot":1,"Valence":"Win","Action":"Go","Sham":0,"Color":"blue","trial_type":"pit-trial","trial_index":93,"time_elapsed":494017,"internal_node_id":"0.0-70.0","task_version":"test-retest-t2"},{"Rune":"rune_04_dagaz","Hex":"#ffcc3399","Correct":32,"Choice":-1,"RT":-1,"Accuracy":0,"Outcome":"-10","Keys":[],"TotalKeys":0,"Block":1,"Trial":65,"Robot":3,"Valence":"Lose","Action":"Go","Sham":0,"Color":"yellow","trial_type":"pit-trial","trial_index":94,"time_elapsed":498024,"internal_node_id":"0.0-71.0","task_version":"test-retest-t2"},{"Rune":"rune_04_wunjo","Hex":"#3366ff99","Correct":32,"Choice":32,"RT":520.9299999987707,"Accuracy":1,"Outcome":"+10","Keys":[2021.5699999971548],"TotalKeys":1,"Block":1,"Trial":66,"Robot":1,"Valence":"Win","Action":"Go","Sham":0,"Color":"blue","trial_type":"pit-trial","trial_index":95,"time_elapsed":501053,"internal_node_id":"0.0-72.0","task_version":"test-retest-t2"},{"Rune":"rune_04_iwaz","Hex":"#3366ff99","Correct":-1,"Choice":-1,"RT":-1,"Accuracy":1,"Outcome":"+1","Keys":[],"TotalKeys":0,"Block":1,"Trial":67,"Robot":2,"Valence":"Win","Action":"No-Go","Sham":1,"Color":"blue","trial_type":"pit-trial","trial_index":96,"time_elapsed":505060,"internal_node_id":"0.0-73.0","task_version":"test-retest-t2"},{"Rune":"rune_04_ac","Hex":"#ffcc3399","Correct":-1,"Choice":-1,"RT":-1,"Accuracy":1,"Outcome":"-1","Keys":[],"TotalKeys":0,"Block":1,"Trial":68,"Robot":4,"Valence":"Lose","Action":"No-Go","Sham":0,"Color":"yellow","trial_type":"pit-trial","trial_index":97,"time_elapsed":509069,"internal_node_id":"0.0-74.0","task_version":"test-retest-t2"},{"Rune":"rune_04_dagaz","Hex":"#ffcc3399","Correct":32,"Choice":32,"RT":544.2000000039116,"Accuracy":1,"Outcome":"-1","Keys":[2048.0249999964144],"TotalKeys":1,"Block":1,"Trial":69,"Robot":3,"Valence":"Lose","Action":"Go","Sham":0,"Color":"yellow","trial_type":"pit-trial","trial_index":98,"time_elapsed":512124,"internal_node_id":"0.0-75.0","task_version":"test-retest-t2"},{"Rune":"rune_04_ac","Hex":"#ffcc3399","Correct":-1,"Choice":-1,"RT":-1,"Accuracy":1,"Outcome":"-1","Keys":[],"TotalKeys":0,"Block":1,"Trial":70,"Robot":4,"Valence":"Lose","Action":"No-Go","Sham":0,"Color":"yellow","trial_type":"pit-trial","trial_index":99,"time_elapsed":516132,"internal_node_id":"0.0-76.0","task_version":"test-retest-t2"},{"Rune":"rune_04_wunjo","Hex":"#3366ff99","Correct":32,"Choice":32,"RT":334.6049999963725,"Accuracy":1,"Outcome":"+10","Keys":[1836.4700000092853],"TotalKeys":1,"Block":1,"Trial":71,"Robot":1,"Valence":"Win","Action":"Go","Sham":0,"Color":"blue","trial_type":"pit-trial","trial_index":100,"time_elapsed":518977,"internal_node_id":"0.0-77.0","task_version":"test-retest-t2"},{"Rune":"rune_04_iwaz","Hex":"#3366ff99","Correct":-1,"Choice":-1,"RT":-1,"Accuracy":1,"Outcome":"+10","Keys":[],"TotalKeys":0,"Block":1,"Trial":72,"Robot":2,"Valence":"Win","Action":"No-Go","Sham":0,"Color":"blue","trial_type":"pit-trial","trial_index":101,"time_elapsed":522986,"internal_node_id":"0.0-78.0","task_version":"test-retest-t2"},{"Rune":"rune_04_wunjo","Hex":"#3366ff99","Correct":32,"Choice":32,"RT":402.4000000063097,"Accuracy":1,"Outcome":"+10","Keys":[1903.2449999940582],"TotalKeys":1,"Block":1,"Trial":73,"Robot":1,"Valence":"Win","Action":"Go","Sham":0,"Color":"blue","trial_type":"pit-trial","trial_index":102,"time_elapsed":525898,"internal_node_id":"0.0-79.0","task_version":"test-retest-t2"},{"Rune":"rune_04_ac","Hex":"#ffcc3399","Correct":-1,"Choice":-1,"RT":-1,"Accuracy":1,"Outcome":"-1","Keys":[],"TotalKeys":0,"Block":1,"Trial":74,"Robot":4,"Valence":"Lose","Action":"No-Go","Sham":0,"Color":"yellow","trial_type":"pit-trial","trial_index":103,"time_elapsed":529906,"internal_node_id":"0.0-80.0","task_version":"test-retest-t2"},{"Rune":"rune_04_iwaz","Hex":"#3366ff99","Correct":-1,"Choice":-1,"RT":-1,"Accuracy":1,"Outcome":"+10","Keys":[],"TotalKeys":0,"Block":1,"Trial":75,"Robot":2,"Valence":"Win","Action":"No-Go","Sham":0,"Color":"blue","trial_type":"pit-trial","trial_index":104,"time_elapsed":533916,"internal_node_id":"0.0-81.0","task_version":"test-retest-t2"},{"Rune":"rune_04_dagaz","Hex":"#ffcc3399","Correct":32,"Choice":-1,"RT":-1,"Accuracy":0,"Outcome":"-10","Keys":[],"TotalKeys":0,"Block":1,"Trial":76,"Robot":3,"Valence":"Lose","Action":"Go","Sham":0,"Color":"yellow","trial_type":"pit-trial","trial_index":105,"time_elapsed":537924,"internal_node_id":"0.0-82.0","task_version":"test-retest-t2"},{"Rune":"rune_04_iwaz","Hex":"#3366ff99","Correct":-1,"Choice":-1,"RT":-1,"Accuracy":1,"Outcome":"+10","Keys":[],"TotalKeys":0,"Block":1,"Trial":77,"Robot":2,"Valence":"Win","Action":"No-Go","Sham":0,"Color":"blue","trial_type":"pit-trial","trial_index":106,"time_elapsed":541932,"internal_node_id":"0.0-83.0","task_version":"test-retest-t2"},{"Rune":"rune_04_wunjo","Hex":"#3366ff99","Correct":32,"Choice":32,"RT":302.8599999961443,"Accuracy":1,"Outcome":"+1","Keys":[1803.0799999978626],"TotalKeys":1,"Block":1,"Trial":78,"Robot":1,"Valence":"Win","Action":"Go","Sham":1,"Color":"blue","trial_type":"pit-trial","trial_index":107,"time_elapsed":544744,"internal_node_id":"0.0-84.0","task_version":"test-retest-t2"},{"Rune":"rune_04_ac","Hex":"#ffcc3399","Correct":-1,"Choice":-1,"RT":-1,"Accuracy":1,"Outcome":"-10","Keys":[],"TotalKeys":0,"Block":1,"Trial":79,"Robot":4,"Valence":"Lose","Action":"No-Go","Sham":1,"Color":"yellow","trial_type":"pit-trial","trial_index":108,"time_elapsed":548754,"internal_node_id":"0.0-85.0","task_version":"test-retest-t2"},{"Rune":"rune_04_dagaz","Hex":"#ffcc3399","Correct":32,"Choice":32,"RT":268.5849999979837,"Accuracy":1,"Outcome":"-1","Keys":[1770.1249999954598],"TotalKeys":1,"Block":1,"Trial":80,"Robot":3,"Valence":"Lose","Action":"Go","Sham":0,"Color":"yellow","trial_type":"pit-trial","trial_index":109,"time_elapsed":551530,"internal_node_id":"0.0-86.0","task_version":"test-retest-t2"},{"Rune":"rune_04_ac","Hex":"#ffcc3399","Correct":-1,"Choice":-1,"RT":-1,"Accuracy":1,"Outcome":"-1","Keys":[],"TotalKeys":0,"Block":1,"Trial":81,"Robot":4,"Valence":"Lose","Action":"No-Go","Sham":0,"Color":"yellow","trial_type":"pit-trial","trial_index":110,"time_elapsed":555539,"internal_node_id":"0.0-87.0","task_version":"test-retest-t2"},{"Rune":"rune_04_iwaz","Hex":"#3366ff99","Correct":-1,"Choice":-1,"RT":-1,"Accuracy":1,"Outcome":"+10","Keys":[],"TotalKeys":0,"Block":1,"Trial":82,"Robot":2,"Valence":"Win","Action":"No-Go","Sham":0,"Color":"blue","trial_type":"pit-trial","trial_index":111,"time_elapsed":559547,"internal_node_id":"0.0-88.0","task_version":"test-retest-t2"},{"Rune":"rune_04_wunjo","Hex":"#3366ff99","Correct":32,"Choice":32,"RT":366.4850000059232,"Accuracy":1,"Outcome":"+10","Keys":[1868.1950000027427],"TotalKeys":1,"Block":1,"Trial":83,"Robot":1,"Valence":"Win","Action":"Go","Sham":0,"Color":"blue","trial_type":"pit-trial","trial_index":112,"time_elapsed":562421,"internal_node_id":"0.0-89.0","task_version":"test-retest-t2"},{"Rune":"rune_04_dagaz","Hex":"#ffcc3399","Correct":32,"Choice":32,"RT":743.1500000093365,"Accuracy":1,"Outcome":"-10","Keys":[2244.8399999993853],"TotalKeys":1,"Block":1,"Trial":84,"Robot":3,"Valence":"Lose","Action":"Go","Sham":1,"Color":"yellow","trial_type":"pit-trial","trial_index":113,"time_elapsed":565674,"internal_node_id":"0.0-90.0","task_version":"test-retest-t2"},{"Rune":"rune_04_ac","Hex":"#ffcc3399","Correct":-1,"Choice":-1,"RT":-1,"Accuracy":1,"Outcome":"-1","Keys":[],"TotalKeys":0,"Block":1,"Trial":85,"Robot":4,"Valence":"Lose","Action":"No-Go","Sham":0,"Color":"yellow","trial_type":"pit-trial","trial_index":114,"time_elapsed":569683,"internal_node_id":"0.0-91.0","task_version":"test-retest-t2"},{"Rune":"rune_04_dagaz","Hex":"#ffcc3399","Correct":32,"Choice":32,"RT":620.3549999918323,"Accuracy":1,"Outcome":"-1","Keys":[2120.809999993071],"TotalKeys":1,"Block":1,"Trial":86,"Robot":3,"Valence":"Lose","Action":"Go","Sham":0,"Color":"yellow","trial_type":"pit-trial","trial_index":115,"time_elapsed":572810,"internal_node_id":"0.0-92.0","task_version":"test-retest-t2"},{"Rune":"rune_04_iwaz","Hex":"#3366ff99","Correct":-1,"Choice":-1,"RT":-1,"Accuracy":1,"Outcome":"+1","Keys":[],"TotalKeys":0,"Block":1,"Trial":87,"Robot":2,"Valence":"Win","Action":"No-Go","Sham":1,"Color":"blue","trial_type":"pit-trial","trial_index":116,"time_elapsed":576818,"internal_node_id":"0.0-93.0","task_version":"test-retest-t2"},{"Rune":"rune_04_wunjo","Hex":"#3366ff99","Correct":32,"Choice":32,"RT":663.4999999951106,"Accuracy":1,"Outcome":"+10","Keys":[2164.164999994682],"TotalKeys":1,"Block":1,"Trial":88,"Robot":1,"Valence":"Win","Action":"Go","Sham":0,"Color":"blue","trial_type":"pit-trial","trial_index":117,"time_elapsed":579990,"internal_node_id":"0.0-94.0","task_version":"test-retest-t2"},{"Rune":"rune_04_dagaz","Hex":"#ffcc3399","Correct":32,"Choice":32,"RT":503.4449999948265,"Accuracy":1,"Outcome":"-1","Keys":[2003.8099999947008],"TotalKeys":1,"Block":1,"Trial":89,"Robot":3,"Valence":"Lose","Action":"Go","Sham":0,"Color":"yellow","trial_type":"pit-trial","trial_index":118,"time_elapsed":583000,"internal_node_id":"0.0-95.0","task_version":"test-retest-t2"},{"Rune":"rune_04_ac","Hex":"#ffcc3399","Correct":-1,"Choice":-1,"RT":-1,"Accuracy":1,"Outcome":"-1","Keys":[],"TotalKeys":0,"Block":1,"Trial":90,"Robot":4,"Valence":"Lose","Action":"No-Go","Sham":0,"Color":"yellow","trial_type":"pit-trial","trial_index":119,"time_elapsed":587009,"internal_node_id":"0.0-96.0","task_version":"test-retest-t2"},{"Rune":"rune_04_wunjo","Hex":"#3366ff99","Correct":32,"Choice":32,"RT":591.8300000048475,"Accuracy":1,"Outcome":"+10","Keys":[2093.120000005001],"TotalKeys":1,"Block":1,"Trial":91,"Robot":1,"Valence":"Win","Action":"Go","Sham":0,"Color":"blue","trial_type":"pit-trial","trial_index":120,"time_elapsed":590109,"internal_node_id":"0.0-97.0","task_version":"test-retest-t2"},{"Rune":"rune_04_iwaz","Hex":"#3366ff99","Correct":-1,"Choice":-1,"RT":-1,"Accuracy":1,"Outcome":"+10","Keys":[],"TotalKeys":0,"Block":1,"Trial":92,"Robot":2,"Valence":"Win","Action":"No-Go","Sham":0,"Color":"blue","trial_type":"pit-trial","trial_index":121,"time_elapsed":594117,"internal_node_id":"0.0-98.0","task_version":"test-retest-t2"},{"Rune":"rune_04_iwaz","Hex":"#3366ff99","Correct":-1,"Choice":-1,"RT":-1,"Accuracy":1,"Outcome":"+10","Keys":[],"TotalKeys":0,"Block":1,"Trial":93,"Robot":2,"Valence":"Win","Action":"No-Go","Sham":0,"Color":"blue","trial_type":"pit-trial","trial_index":122,"time_elapsed":598126,"internal_node_id":"0.0-99.0","task_version":"test-retest-t2"},{"Rune":"rune_04_dagaz","Hex":"#ffcc3399","Correct":32,"Choice":32,"RT":329.45000000472646,"Accuracy":1,"Outcome":"-1","Keys":[1829.6949999930803],"TotalKeys":1,"Block":1,"Trial":94,"Robot":3,"Valence":"Lose","Action":"Go","Sham":0,"Color":"yellow","trial_type":"pit-trial","trial_index":123,"time_elapsed":600963,"internal_node_id":"0.0-100.0","task_version":"test-retest-t2"},{"Rune":"rune_04_ac","Hex":"#ffcc3399","Correct":-1,"Choice":-1,"RT":-1,"Accuracy":1,"Outcome":"-1","Keys":[],"TotalKeys":0,"Block":1,"Trial":95,"Robot":4,"Valence":"Lose","Action":"No-Go","Sham":0,"Color":"yellow","trial_type":"pit-trial","trial_index":124,"time_elapsed":604970,"internal_node_id":"0.0-101.0","task_version":"test-retest-t2"},{"Rune":"rune_04_wunjo","Hex":"#3366ff99","Correct":32,"Choice":-1,"RT":-1,"Accuracy":0,"Outcome":"+1","Keys":[3195.8600000070874],"TotalKeys":1,"Block":1,"Trial":96,"Robot":1,"Valence":"Win","Action":"Go","Sham":0,"Color":"blue","trial_type":"pit-trial","trial_index":125,"time_elapsed":608977,"internal_node_id":"0.0-102.0","task_version":"test-retest-t2"},{"Rune":"rune_04_ac","Hex":"#ffcc3399","Correct":-1,"Choice":-1,"RT":-1,"Accuracy":1,"Outcome":"-10","Keys":[],"TotalKeys":0,"Block":1,"Trial":97,"Robot":4,"Valence":"Lose","Action":"No-Go","Sham":1,"Color":"yellow","trial_type":"pit-trial","trial_index":126,"time_elapsed":612985,"internal_node_id":"0.0-103.0","task_version":"test-retest-t2"},{"Rune":"rune_04_dagaz","Hex":"#ffcc3399","Correct":32,"Choice":32,"RT":633.67000001017,"Accuracy":1,"Outcome":"-1","Keys":[2134.66999999946],"TotalKeys":1,"Block":1,"Trial":98,"Robot":3,"Valence":"Lose","Action":"Go","Sham":0,"Color":"yellow","trial_type":"pit-trial","trial_index":127,"time_elapsed":616126,"internal_node_id":"0.0-104.0","task_version":"test-retest-t2"},{"Rune":"rune_04_iwaz","Hex":"#3366ff99","Correct":-1,"Choice":-1,"RT":-1,"Accuracy":1,"Outcome":"+10","Keys":[],"TotalKeys":0,"Block":1,"Trial":99,"Robot":2,"Valence":"Win","Action":"No-Go","Sham":0,"Color":"blue","trial_type":"pit-trial","trial_index":128,"time_elapsed":620133,"internal_node_id":"0.0-105.0","task_version":"test-retest-t2"},{"Rune":"rune_04_wunjo","Hex":"#3366ff99","Correct":32,"Choice":32,"RT":354.8399999999674,"Accuracy":1,"Outcome":"+1","Keys":[1855.5150000029244],"TotalKeys":1,"Block":1,"Trial":100,"Robot":1,"Valence":"Win","Action":"Go","Sham":1,"Color":"blue","trial_type":"pit-trial","trial_index":129,"time_elapsed":622996,"internal_node_id":"0.0-106.0","task_version":"test-retest-t2"},{"Rune":"rune_04_wunjo","Hex":"#3366ff99","Correct":32,"Choice":32,"RT":644.3300000100862,"Accuracy":1,"Outcome":"+10","Keys":[2145.474999997532],"TotalKeys":1,"Block":1,"Trial":101,"Robot":1,"Valence":"Win","Action":"Go","Sham":0,"Color":"blue","trial_type":"pit-trial","trial_index":130,"time_elapsed":626149,"internal_node_id":"0.0-107.0","task_version":"test-retest-t2"},{"Rune":"rune_04_dagaz","Hex":"#ffcc3399","Correct":32,"Choice":32,"RT":490.7250000105705,"Accuracy":1,"Outcome":"-1","Keys":[1990.8699999941746],"TotalKeys":1,"Block":1,"Trial":102,"Robot":3,"Valence":"Lose","Action":"Go","Sham":0,"Color":"yellow","trial_type":"pit-trial","trial_index":131,"time_elapsed":629148,"internal_node_id":"0.0-108.0","task_version":"test-retest-t2"},{"Rune":"rune_04_iwaz","Hex":"#3366ff99","Correct":-1,"Choice":-1,"RT":-1,"Accuracy":1,"Outcome":"+10","Keys":[],"TotalKeys":0,"Block":1,"Trial":103,"Robot":2,"Valence":"Win","Action":"No-Go","Sham":0,"Color":"blue","trial_type":"pit-trial","trial_index":132,"time_elapsed":633158,"internal_node_id":"0.0-109.0","task_version":"test-retest-t2"},{"Rune":"rune_04_ac","Hex":"#ffcc3399","Correct":-1,"Choice":-1,"RT":-1,"Accuracy":1,"Outcome":"-1","Keys":[],"TotalKeys":0,"Block":1,"Trial":104,"Robot":4,"Valence":"Lose","Action":"No-Go","Sham":0,"Color":"yellow","trial_type":"pit-trial","trial_index":133,"time_elapsed":637167,"internal_node_id":"0.0-110.0","task_version":"test-retest-t2"},{"Rune":"rune_04_iwaz","Hex":"#3366ff99","Correct":-1,"Choice":-1,"RT":-1,"Accuracy":1,"Outcome":"+10","Keys":[],"TotalKeys":0,"Block":1,"Trial":105,"Robot":2,"Valence":"Win","Action":"No-Go","Sham":0,"Color":"blue","trial_type":"pit-trial","trial_index":134,"time_elapsed":641176,"internal_node_id":"0.0-111.0","task_version":"test-retest-t2"},{"Rune":"rune_04_dagaz","Hex":"#ffcc3399","Correct":32,"Choice":32,"RT":423.1550000113202,"Accuracy":1,"Outcome":"-10","Keys":[1924.0250000002561],"TotalKeys":1,"Block":1,"Trial":106,"Robot":3,"Valence":"Lose","Action":"Go","Sham":1,"Color":"yellow","trial_type":"pit-trial","trial_index":135,"time_elapsed":644108,"internal_node_id":"0.0-112.0","task_version":"test-retest-t2"},{"Rune":"rune_04_ac","Hex":"#ffcc3399","Correct":-1,"Choice":-1,"RT":-1,"Accuracy":1,"Outcome":"-1","Keys":[],"TotalKeys":0,"Block":1,"Trial":107,"Robot":4,"Valence":"Lose","Action":"No-Go","Sham":0,"Color":"yellow","trial_type":"pit-trial","trial_index":136,"time_elapsed":648116,"internal_node_id":"0.0-113.0","task_version":"test-retest-t2"},{"Rune":"rune_04_wunjo","Hex":"#3366ff99","Correct":32,"Choice":32,"RT":550.199999997858,"Accuracy":1,"Outcome":"+10","Keys":[2051.1350000015227],"TotalKeys":1,"Block":1,"Trial":108,"Robot":1,"Valence":"Win","Action":"Go","Sham":0,"Color":"blue","trial_type":"pit-trial","trial_index":137,"time_elapsed":651175,"internal_node_id":"0.0-114.0","task_version":"test-retest-t2"},{"Rune":"rune_04_dagaz","Hex":"#ffcc3399","Correct":32,"Choice":32,"RT":668.5250000009546,"Accuracy":1,"Outcome":"-1","Keys":[2169.2650000040885],"TotalKeys":1,"Block":1,"Trial":109,"Robot":3,"Valence":"Lose","Action":"Go","Sham":0,"Color":"yellow","trial_type":"pit-trial","trial_index":138,"time_elapsed":654353,"internal_node_id":"0.0-115.0","task_version":"test-retest-t2"},{"Rune":"rune_04_wunjo","Hex":"#3366ff99","Correct":32,"Choice":32,"RT":680.7800000096904,"Accuracy":1,"Outcome":"+10","Keys":[2180.9350000112318],"TotalKeys":1,"Block":1,"Trial":110,"Robot":1,"Valence":"Win","Action":"Go","Sham":0,"Color":"blue","trial_type":"pit-trial","trial_index":139,"time_elapsed":657541,"internal_node_id":"0.0-116.0","task_version":"test-retest-t2"},{"Rune":"rune_04_iwaz","Hex":"#3366ff99","Correct":-1,"Choice":-1,"RT":-1,"Accuracy":1,"Outcome":"+10","Keys":[],"TotalKeys":0,"Block":1,"Trial":111,"Robot":2,"Valence":"Win","Action":"No-Go","Sham":0,"Color":"blue","trial_type":"pit-trial","trial_index":140,"time_elapsed":661550,"internal_node_id":"0.0-117.0","task_version":"test-retest-t2"},{"Rune":"rune_04_ac","Hex":"#ffcc3399","Correct":-1,"Choice":-1,"RT":-1,"Accuracy":1,"Outcome":"-1","Keys":[],"TotalKeys":0,"Block":1,"Trial":112,"Robot":4,"Valence":"Lose","Action":"No-Go","Sham":0,"Color":"yellow","trial_type":"pit-trial","trial_index":141,"time_elapsed":665558,"internal_node_id":"0.0-118.0","task_version":"test-retest-t2"},{"Rune":"rune_04_iwaz","Hex":"#3366ff99","Correct":-1,"Choice":32,"RT":866.9899999949848,"Accuracy":0,"Outcome":"+1","Keys":[2369.5849999930942],"TotalKeys":1,"Block":1,"Trial":113,"Robot":2,"Valence":"Win","Action":"No-Go","Sham":0,"Color":"blue","trial_type":"pit-trial","trial_index":142,"time_elapsed":668934,"internal_node_id":"0.0-119.0","task_version":"test-retest-t2"},{"Rune":"rune_04_dagaz","Hex":"#ffcc3399","Correct":32,"Choice":32,"RT":407.6050000003306,"Accuracy":1,"Outcome":"-1","Keys":[1907.8949999966426],"TotalKeys":1,"Block":1,"Trial":114,"Robot":3,"Valence":"Lose","Action":"Go","Sham":0,"Color":"yellow","trial_type":"pit-trial","trial_index":143,"time_elapsed":671848,"internal_node_id":"0.0-120.0","task_version":"test-retest-t2"},{"Rune":"rune_04_ac","Hex":"#ffcc3399","Correct":-1,"Choice":-1,"RT":-1,"Accuracy":1,"Outcome":"-1","Keys":[],"TotalKeys":0,"Block":1,"Trial":115,"Robot":4,"Valence":"Lose","Action":"No-Go","Sham":0,"Color":"yellow","trial_type":"pit-trial","trial_index":144,"time_elapsed":675858,"internal_node_id":"0.0-121.0","task_version":"test-retest-t2"},{"Rune":"rune_04_wunjo","Hex":"#3366ff99","Correct":32,"Choice":32,"RT":372.52999999327585,"Accuracy":1,"Outcome":"+10","Keys":[1873.700000011013],"TotalKeys":1,"Block":1,"Trial":116,"Robot":1,"Valence":"Win","Action":"Go","Sham":0,"Color":"blue","trial_type":"pit-trial","trial_index":145,"time_elapsed":678739,"internal_node_id":"0.0-122.0","task_version":"test-retest-t2"},{"Rune":"rune_04_iwaz","Hex":"#3366ff99","Correct":-1,"Choice":-1,"RT":-1,"Accuracy":1,"Outcome":"+1","Keys":[],"TotalKeys":0,"Block":1,"Trial":117,"Robot":2,"Valence":"Win","Action":"No-Go","Sham":1,"Color":"blue","trial_type":"pit-trial","trial_index":146,"time_elapsed":682746,"internal_node_id":"0.0-123.0","task_version":"test-retest-t2"},{"Rune":"rune_04_dagaz","Hex":"#ffcc3399","Correct":32,"Choice":32,"RT":513.8299999962328,"Accuracy":1,"Outcome":"-1","Keys":[2015.6949999945937],"TotalKeys":1,"Block":1,"Trial":118,"Robot":3,"Valence":"Lose","Action":"Go","Sham":0,"Color":"yellow","trial_type":"pit-trial","trial_index":147,"time_elapsed":685768,"internal_node_id":"0.0-124.0","task_version":"test-retest-t2"},{"Rune":"rune_04_wunjo","Hex":"#3366ff99","Correct":32,"Choice":32,"RT":661.3949999882607,"Accuracy":1,"Outcome":"+1","Keys":[2162.6200000027893],"TotalKeys":1,"Block":1,"Trial":119,"Robot":1,"Valence":"Win","Action":"Go","Sham":1,"Color":"blue","trial_type":"pit-trial","trial_index":148,"time_elapsed":688935,"internal_node_id":"0.0-125.0","task_version":"test-retest-t2"},{"Rune":"rune_04_ac","Hex":"#ffcc3399","Correct":-1,"Choice":-1,"RT":-1,"Accuracy":1,"Outcome":"-10","Keys":[],"TotalKeys":0,"Block":1,"Trial":120,"Robot":4,"Valence":"Lose","Action":"No-Go","Sham":1,"Color":"yellow","trial_type":"pit-trial","trial_index":149,"time_elapsed":692944,"internal_node_id":"0.0-126.0","task_version":"test-retest-t2"},{"view_history":"[{\"page_index\":0,\"viewing_time\":3067.284999997355},{\"page_index\":1,\"viewing_time\":1659.5700000034412},{\"page_index\":2,\"viewing_time\":1910.3699999977835}]","rt":6638.285000008182,"trial_type":"pit-instructions","trial_index":150,"time_elapsed":699587,"internal_node_id":"0.0-127.0","task_version":"test-retest-t2"},{"Rune":"rune_03_algiz","Hex":"#ffcc3399","Correct":-1,"Choice":32,"RT":419.5999999938067,"Accuracy":0,"Outcome":"-10","Keys":[1920.5399999918882],"TotalKeys":1,"Block":2,"Trial":121,"Robot":4,"Valence":"Lose","Action":"No-Go","Sham":0,"Color":"yellow","trial_type":"pit-trial","trial_index":151,"time_elapsed":702516,"internal_node_id":"0.0-128.0","task_version":"test-retest-t2"},{"Rune":"rune_03_othalan","Hex":"#3366ff99","Correct":-1,"Choice":32,"RT":494.19499999203254,"Accuracy":0,"Outcome":"+1","Keys":[1995.8349999942584],"TotalKeys":1,"Block":2,"Trial":122,"Robot":2,"Valence":"Win","Action":"No-Go","Sham":0,"Color":"blue","trial_type":"pit-trial","trial_index":152,"time_elapsed":705523,"internal_node_id":"0.0-129.0","task_version":"test-retest-t2"},{"Rune":"rune_03_uruz","Hex":"#3366ff99","Correct":32,"Choice":32,"RT":578.8199999951757,"Accuracy":1,"Outcome":"+10","Keys":[2097.655000005034],"TotalKeys":1,"Block":2,"Trial":123,"Robot":1,"Valence":"Win","Action":"Go","Sham":0,"Color":"blue","trial_type":"pit-trial","trial_index":153,"time_elapsed":708631,"internal_node_id":"0.0-130.0","task_version":"test-retest-t2"},{"Rune":"rune_03_naudiz","Hex":"#ffcc3399","Correct":32,"Choice":32,"RT":648.365000000922,"Accuracy":1,"Outcome":"-1","Keys":[2148.8749999989523],"TotalKeys":1,"Block":2,"Trial":124,"Robot":3,"Valence":"Lose","Action":"Go","Sham":0,"Color":"yellow","trial_type":"pit-trial","trial_index":154,"time_elapsed":711787,"internal_node_id":"0.0-131.0","task_version":"test-retest-t2"},{"Rune":"rune_03_uruz","Hex":"#3366ff99","Correct":32,"Choice":32,"RT":648.3399999997346,"Accuracy":1,"Outcome":"+10","Keys":[2148.4699999855366],"TotalKeys":1,"Block":2,"Trial":125,"Robot":1,"Valence":"Win","Action":"Go","Sham":0,"Color":"blue","trial_type":"pit-trial","trial_index":155,"time_elapsed":714943,"internal_node_id":"0.0-132.0","task_version":"test-retest-t2"},{"Rune":"rune_03_algiz","Hex":"#ffcc3399","Correct":-1,"Choice":-1,"RT":-1,"Accuracy":1,"Outcome":"-10","Keys":[],"TotalKeys":0,"Block":2,"Trial":126,"Robot":4,"Valence":"Lose","Action":"No-Go","Sham":1,"Color":"yellow","trial_type":"pit-trial","trial_index":156,"time_elapsed":718951,"internal_node_id":"0.0-133.0","task_version":"test-retest-t2"},{"Rune":"rune_03_othalan","Hex":"#3366ff99","Correct":-1,"Choice":-1,"RT":-1,"Accuracy":1,"Outcome":"+10","Keys":[],"TotalKeys":0,"Block":2,"Trial":127,"Robot":2,"Valence":"Win","Action":"No-Go","Sham":0,"Color":"blue","trial_type":"pit-trial","trial_index":157,"time_elapsed":722959,"internal_node_id":"0.0-134.0","task_version":"test-retest-t2"},{"Rune":"rune_03_naudiz","Hex":"#ffcc3399","Correct":32,"Choice":32,"RT":501.6449999966426,"Accuracy":1,"Outcome":"-1","Keys":[2002.0949999889126],"TotalKeys":1,"Block":2,"Trial":128,"Robot":3,"Valence":"Lose","Action":"Go","Sham":0,"Color":"yellow","trial_type":"pit-trial","trial_index":158,"time_elapsed":725968,"internal_node_id":"0.0-135.0","task_version":"test-retest-t2"},{"Rune":"rune_03_algiz","Hex":"#ffcc3399","Correct":-1,"Choice":-1,"RT":-1,"Accuracy":1,"Outcome":"-1","Keys":[],"TotalKeys":0,"Block":2,"Trial":129,"Robot":4,"Valence":"Lose","Action":"No-Go","Sham":0,"Color":"yellow","trial_type":"pit-trial","trial_index":159,"time_elapsed":729974,"internal_node_id":"0.0-136.0","task_version":"test-retest-t2"},{"Rune":"rune_03_othalan","Hex":"#3366ff99","Correct":-1,"Choice":-1,"RT":-1,"Accuracy":1,"Outcome":"+1","Keys":[],"TotalKeys":0,"Block":2,"Trial":130,"Robot":2,"Valence":"Win","Action":"No-Go","Sham":1,"Color":"blue","trial_type":"pit-trial","trial_index":160,"time_elapsed":733980,"internal_node_id":"0.0-137.0","task_version":"test-retest-t2"},{"Rune":"rune_03_naudiz","Hex":"#ffcc3399","Correct":32,"Choice":32,"RT":565.8649999968475,"Accuracy":1,"Outcome":"-1","Keys":[2066.2999999913154],"TotalKeys":1,"Block":2,"Trial":131,"Robot":3,"Valence":"Lose","Action":"Go","Sham":0,"Color":"yellow","trial_type":"pit-trial","trial_index":161,"time_elapsed":737054,"internal_node_id":"0.0-138.0","task_version":"test-retest-t2"},{"Rune":"rune_03_uruz","Hex":"#3366ff99","Correct":32,"Choice":32,"RT":442.49000000127126,"Accuracy":1,"Outcome":"+10","Keys":[1944.4399999920279],"TotalKeys":1,"Block":2,"Trial":132,"Robot":1,"Valence":"Win","Action":"Go","Sham":0,"Color":"blue","trial_type":"pit-trial","trial_index":162,"time_elapsed":740005,"internal_node_id":"0.0-139.0","task_version":"test-retest-t2"},{"Rune":"rune_03_algiz","Hex":"#ffcc3399","Correct":-1,"Choice":-1,"RT":-1,"Accuracy":1,"Outcome":"-1","Keys":[],"TotalKeys":0,"Block":2,"Trial":133,"Robot":4,"Valence":"Lose","Action":"No-Go","Sham":0,"Color":"yellow","trial_type":"pit-trial","trial_index":163,"time_elapsed":744012,"internal_node_id":"0.0-140.0","task_version":"test-retest-t2"},{"Rune":"rune_03_othalan","Hex":"#3366ff99","Correct":-1,"Choice":-1,"RT":-1,"Accuracy":1,"Outcome":"+10","Keys":[],"TotalKeys":0,"Block":2,"Trial":134,"Robot":2,"Valence":"Win","Action":"No-Go","Sham":0,"Color":"blue","trial_type":"pit-trial","trial_index":164,"time_elapsed":748021,"internal_node_id":"0.0-141.0","task_version":"test-retest-t2"},{"Rune":"rune_03_naudiz","Hex":"#ffcc3399","Correct":32,"Choice":32,"RT":512.7449999999953,"Accuracy":1,"Outcome":"-10","Keys":[2013.9300000009825],"TotalKeys":1,"Block":2,"Trial":135,"Robot":3,"Valence":"Lose","Action":"Go","Sham":1,"Color":"yellow","trial_type":"pit-trial","trial_index":165,"time_elapsed":751042,"internal_node_id":"0.0-142.0","task_version":"test-retest-t2"},{"Rune":"rune_03_uruz","Hex":"#3366ff99","Correct":32,"Choice":32,"RT":735.0549999973737,"Accuracy":1,"Outcome":"+10","Keys":[2237.1749999874737],"TotalKeys":1,"Block":2,"Trial":136,"Robot":1,"Valence":"Win","Action":"Go","Sham":0,"Color":"blue","trial_type":"pit-trial","trial_index":166,"time_elapsed":754287,"internal_node_id":"0.0-143.0","task_version":"test-retest-t2"},{"Rune":"rune_03_naudiz","Hex":"#ffcc3399","Correct":32,"Choice":32,"RT":358.1899999990128,"Accuracy":1,"Outcome":"-1","Keys":[1859.8599999968428],"TotalKeys":1,"Block":2,"Trial":137,"Robot":3,"Valence":"Lose","Action":"Go","Sham":0,"Color":"yellow","trial_type":"pit-trial","trial_index":167,"time_elapsed":757154,"internal_node_id":"0.0-144.0","task_version":"test-retest-t2"},{"Rune":"rune_03_algiz","Hex":"#ffcc3399","Correct":-1,"Choice":-1,"RT":-1,"Accuracy":1,"Outcome":"-1","Keys":[],"TotalKeys":0,"Block":2,"Trial":138,"Robot":4,"Valence":"Lose","Action":"No-Go","Sham":0,"Color":"yellow","trial_type":"pit-trial","trial_index":168,"time_elapsed":761163,"internal_node_id":"0.0-145.0","task_version":"test-retest-t2"},{"Rune":"rune_03_uruz","Hex":"#3366ff99","Correct":32,"Choice":32,"RT":410.3250000043772,"Accuracy":1,"Outcome":"+1","Keys":[1912.6800000085495],"TotalKeys":1,"Block":2,"Trial":139,"Robot":1,"Valence":"Win","Action":"Go","Sham":1,"Color":"blue","trial_type":"pit-trial","trial_index":169,"time_elapsed":764084,"internal_node_id":"0.0-146.0","task_version":"test-retest-t2"},{"Rune":"rune_03_othalan","Hex":"#3366ff99","Correct":-1,"Choice":-1,"RT":-1,"Accuracy":1,"Outcome":"+10","Keys":[],"TotalKeys":0,"Block":2,"Trial":140,"Robot":2,"Valence":"Win","Action":"No-Go","Sham":0,"Color":"blue","trial_type":"pit-trial","trial_index":170,"time_elapsed":768096,"internal_node_id":"0.0-147.0","task_version":"test-retest-t2"},{"Rune":"rune_03_naudiz","Hex":"#ffcc3399","Correct":32,"Choice":32,"RT":434.0000000083819,"Accuracy":1,"Outcome":"-10","Keys":[1934.8400000017136],"TotalKeys":1,"Block":2,"Trial":141,"Robot":3,"Valence":"Lose","Action":"Go","Sham":1,"Color":"yellow","trial_type":"pit-trial","trial_index":171,"time_elapsed":771037,"internal_node_id":"0.0-148.0","task_version":"test-retest-t2"},{"Rune":"rune_03_uruz","Hex":"#3366ff99","Correct":32,"Choice":32,"RT":387.4649999925168,"Accuracy":1,"Outcome":"+10","Keys":[1888.0950000020675],"TotalKeys":1,"Block":2,"Trial":142,"Robot":1,"Valence":"Win","Action":"Go","Sham":0,"Color":"blue","trial_type":"pit-trial","trial_index":172,"time_elapsed":773932,"internal_node_id":"0.0-149.0","task_version":"test-retest-t2"},{"Rune":"rune_03_algiz","Hex":"#ffcc3399","Correct":-1,"Choice":-1,"RT":-1,"Accuracy":1,"Outcome":"-10","Keys":[],"TotalKeys":0,"Block":2,"Trial":143,"Robot":4,"Valence":"Lose","Action":"No-Go","Sham":1,"Color":"yellow","trial_type":"pit-trial","trial_index":173,"time_elapsed":777940,"internal_node_id":"0.0-150.0","task_version":"test-retest-t2"},{"Rune":"rune_03_othalan","Hex":"#3366ff99","Correct":-1,"Choice":-1,"RT":-1,"Accuracy":1,"Outcome":"+10","Keys":[],"TotalKeys":0,"Block":2,"Trial":144,"Robot":2,"Valence":"Win","Action":"No-Go","Sham":0,"Color":"blue","trial_type":"pit-trial","trial_index":174,"time_elapsed":781948,"internal_node_id":"0.0-151.0","task_version":"test-retest-t2"},{"Rune":"rune_03_naudiz","Hex":"#ffcc3399","Correct":32,"Choice":32,"RT":991.2400000030175,"Accuracy":1,"Outcome":"-1","Keys":[2492.1599999943282],"TotalKeys":1,"Block":2,"Trial":145,"Robot":3,"Valence":"Lose","Action":"Go","Sham":0,"Color":"yellow","trial_type":"pit-trial","trial_index":175,"time_elapsed":785449,"internal_node_id":"0.0-152.0","task_version":"test-retest-t2"},{"Rune":"rune_03_algiz","Hex":"#ffcc3399","Correct":-1,"Choice":-1,"RT":-1,"Accuracy":1,"Outcome":"-1","Keys":[],"TotalKeys":0,"Block":2,"Trial":146,"Robot":4,"Valence":"Lose","Action":"No-Go","Sham":0,"Color":"yellow","trial_type":"pit-trial","trial_index":176,"time_elapsed":789458,"internal_node_id":"0.0-153.0","task_version":"test-retest-t2"},{"Rune":"rune_03_othalan","Hex":"#3366ff99","Correct":-1,"Choice":-1,"RT":-1,"Accuracy":1,"Outcome":"+10","Keys":[],"TotalKeys":0,"Block":2,"Trial":147,"Robot":2,"Valence":"Win","Action":"No-Go","Sham":0,"Color":"blue","trial_type":"pit-trial","trial_index":177,"time_elapsed":793466,"internal_node_id":"0.0-154.0","task_version":"test-retest-t2"},{"Rune":"rune_03_uruz","Hex":"#3366ff99","Correct":32,"Choice":32,"RT":414.8949999944307,"Accuracy":1,"Outcome":"+10","Keys":[1915.9949999884702],"TotalKeys":1,"Block":2,"Trial":148,"Robot":1,"Valence":"Win","Action":"Go","Sham":0,"Color":"blue","trial_type":"pit-trial","trial_index":178,"time_elapsed":796390,"internal_node_id":"0.0-155.0","task_version":"test-retest-t2"},{"Rune":"rune_03_othalan","Hex":"#3366ff99","Correct":-1,"Choice":-1,"RT":-1,"Accuracy":1,"Outcome":"+10","Keys":[],"TotalKeys":0,"Block":2,"Trial":149,"Robot":2,"Valence":"Win","Action":"No-Go","Sham":0,"Color":"blue","trial_type":"pit-trial","trial_index":179,"time_elapsed":800398,"internal_node_id":"0.0-156.0","task_version":"test-retest-t2"},{"Rune":"rune_03_naudiz","Hex":"#ffcc3399","Correct":32,"Choice":32,"RT":681.2000000063563,"Accuracy":1,"Outcome":"-1","Keys":[2181.460000007064],"TotalKeys":1,"Block":2,"Trial":150,"Robot":3,"Valence":"Lose","Action":"Go","Sham":0,"Color":"yellow","trial_type":"pit-trial","trial_index":180,"time_elapsed":803585,"internal_node_id":"0.0-157.0","task_version":"test-retest-t2"},{"Rune":"rune_03_algiz","Hex":"#ffcc3399","Correct":-1,"Choice":-1,"RT":-1,"Accuracy":1,"Outcome":"-1","Keys":[],"TotalKeys":0,"Block":2,"Trial":151,"Robot":4,"Valence":"Lose","Action":"No-Go","Sham":0,"Color":"yellow","trial_type":"pit-trial","trial_index":181,"time_elapsed":807595,"internal_node_id":"0.0-158.0","task_version":"test-retest-t2"},{"Rune":"rune_03_uruz","Hex":"#3366ff99","Correct":32,"Choice":32,"RT":438.3899999957066,"Accuracy":1,"Outcome":"+10","Keys":[1940.8950000070035],"TotalKeys":1,"Block":2,"Trial":152,"Robot":1,"Valence":"Win","Action":"Go","Sham":0,"Color":"blue","trial_type":"pit-trial","trial_index":182,"time_elapsed":810544,"internal_node_id":"0.0-159.0","task_version":"test-retest-t2"},{"Rune":"rune_03_naudiz","Hex":"#ffcc3399","Correct":32,"Choice":32,"RT":456.0450000135461,"Accuracy":1,"Outcome":"-1","Keys":[1956.754999991972],"TotalKeys":1,"Block":2,"Trial":153,"Robot":3,"Valence":"Lose","Action":"Go","Sham":0,"Color":"yellow","trial_type":"pit-trial","trial_index":183,"time_elapsed":813508,"internal_node_id":"0.0-160.0","task_version":"test-retest-t2"},{"Rune":"rune_03_othalan","Hex":"#3366ff99","Correct":-1,"Choice":-1,"RT":-1,"Accuracy":1,"Outcome":"+1","Keys":[],"TotalKeys":0,"Block":2,"Trial":154,"Robot":2,"Valence":"Win","Action":"No-Go","Sham":1,"Color":"blue","trial_type":"pit-trial","trial_index":184,"time_elapsed":817518,"internal_node_id":"0.0-161.0","task_version":"test-retest-t2"},{"Rune":"rune_03_algiz","Hex":"#ffcc3399","Correct":-1,"Choice":-1,"RT":-1,"Accuracy":1,"Outcome":"-1","Keys":[],"TotalKeys":0,"Block":2,"Trial":155,"Robot":4,"Valence":"Lose","Action":"No-Go","Sham":0,"Color":"yellow","trial_type":"pit-trial","trial_index":185,"time_elapsed":821527,"internal_node_id":"0.0-162.0","task_version":"test-retest-t2"},{"Rune":"rune_03_uruz","Hex":"#3366ff99","Correct":32,"Choice":32,"RT":453.35499999055173,"Accuracy":1,"Outcome":"+10","Keys":[1954.699999987497],"TotalKeys":1,"Block":2,"Trial":156,"Robot":1,"Valence":"Win","Action":"Go","Sham":0,"Color":"blue","trial_type":"pit-trial","trial_index":186,"time_elapsed":824493,"internal_node_id":"0.0-163.0","task_version":"test-retest-t2"},{"Rune":"rune_03_naudiz","Hex":"#ffcc3399","Correct":32,"Choice":32,"RT":787.705000009737,"Accuracy":1,"Outcome":"-1","Keys":[2288.505000004079],"TotalKeys":1,"Block":2,"Trial":157,"Robot":3,"Valence":"Lose","Action":"Go","Sham":0,"Color":"yellow","trial_type":"pit-trial","trial_index":187,"time_elapsed":827789,"internal_node_id":"0.0-164.0","task_version":"test-retest-t2"},{"Rune":"rune_03_uruz","Hex":"#3366ff99","Correct":32,"Choice":32,"RT":679.6400000021094,"Accuracy":1,"Outcome":"+1","Keys":[2179.855000009411],"TotalKeys":1,"Block":2,"Trial":158,"Robot":1,"Valence":"Win","Action":"Go","Sham":1,"Color":"blue","trial_type":"pit-trial","trial_index":188,"time_elapsed":830976,"internal_node_id":"0.0-165.0","task_version":"test-retest-t2"},{"Rune":"rune_03_algiz","Hex":"#ffcc3399","Correct":-1,"Choice":-1,"RT":-1,"Accuracy":1,"Outcome":"-1","Keys":[],"TotalKeys":0,"Block":2,"Trial":159,"Robot":4,"Valence":"Lose","Action":"No-Go","Sham":0,"Color":"yellow","trial_type":"pit-trial","trial_index":189,"time_elapsed":834986,"internal_node_id":"0.0-166.0","task_version":"test-retest-t2"},{"Rune":"rune_03_othalan","Hex":"#3366ff99","Correct":-1,"Choice":-1,"RT":-1,"Accuracy":1,"Outcome":"+10","Keys":[],"TotalKeys":0,"Block":2,"Trial":160,"Robot":2,"Valence":"Win","Action":"No-Go","Sham":0,"Color":"blue","trial_type":"pit-trial","trial_index":190,"time_elapsed":838994,"internal_node_id":"0.0-167.0","task_version":"test-retest-t2"},{"Rune":"rune_03_naudiz","Hex":"#ffcc3399","Correct":32,"Choice":32,"RT":367.99500000779517,"Accuracy":1,"Outcome":"-1","Keys":[1868.545000004815],"TotalKeys":1,"Block":2,"Trial":161,"Robot":3,"Valence":"Lose","Action":"Go","Sham":0,"Color":"yellow","trial_type":"pit-trial","trial_index":191,"time_elapsed":841871,"internal_node_id":"0.0-168.0","task_version":"test-retest-t2"},{"Rune":"rune_03_othalan","Hex":"#3366ff99","Correct":-1,"Choice":-1,"RT":-1,"Accuracy":1,"Outcome":"+10","Keys":[],"TotalKeys":0,"Block":2,"Trial":162,"Robot":2,"Valence":"Win","Action":"No-Go","Sham":0,"Color":"blue","trial_type":"pit-trial","trial_index":192,"time_elapsed":845883,"internal_node_id":"0.0-169.0","task_version":"test-retest-t2"},{"Rune":"rune_03_algiz","Hex":"#ffcc3399","Correct":-1,"Choice":-1,"RT":-1,"Accuracy":1,"Outcome":"-10","Keys":[],"TotalKeys":0,"Block":2,"Trial":163,"Robot":4,"Valence":"Lose","Action":"No-Go","Sham":1,"Color":"yellow","trial_type":"pit-trial","trial_index":193,"time_elapsed":849892,"internal_node_id":"0.0-170.0","task_version":"test-retest-t2"},{"Rune":"rune_03_uruz","Hex":"#3366ff99","Correct":32,"Choice":32,"RT":660.8099999866681,"Accuracy":1,"Outcome":"+10","Keys":[1411.7449999903329,2161.6099999955622],"TotalKeys":2,"Block":2,"Trial":164,"Robot":1,"Valence":"Win","Action":"Go","Sham":0,"Color":"blue","trial_type":"pit-trial","trial_index":194,"time_elapsed":853062,"internal_node_id":"0.0-171.0","task_version":"test-retest-t2"},{"Rune":"rune_03_naudiz","Hex":"#ffcc3399","Correct":32,"Choice":32,"RT":449.61999999941327,"Accuracy":1,"Outcome":"-1","Keys":[1950.5250000074739],"TotalKeys":1,"Block":2,"Trial":165,"Robot":3,"Valence":"Lose","Action":"Go","Sham":0,"Color":"yellow","trial_type":"pit-trial","trial_index":195,"time_elapsed":856021,"internal_node_id":"0.0-172.0","task_version":"test-retest-t2"},{"Rune":"rune_03_uruz","Hex":"#3366ff99","Correct":32,"Choice":32,"RT":433.180000007269,"Accuracy":1,"Outcome":"+10","Keys":[1936.0250000027008],"TotalKeys":1,"Block":2,"Trial":166,"Robot":1,"Valence":"Win","Action":"Go","Sham":0,"Color":"blue","trial_type":"pit-trial","trial_index":196,"time_elapsed":858966,"internal_node_id":"0.0-173.0","task_version":"test-retest-t2"},{"Rune":"rune_03_algiz","Hex":"#ffcc3399","Correct":-1,"Choice":-1,"RT":-1,"Accuracy":1,"Outcome":"-1","Keys":[],"TotalKeys":0,"Block":2,"Trial":167,"Robot":4,"Valence":"Lose","Action":"No-Go","Sham":0,"Color":"yellow","trial_type":"pit-trial","trial_index":197,"time_elapsed":862973,"internal_node_id":"0.0-174.0","task_version":"test-retest-t2"},{"Rune":"rune_03_othalan","Hex":"#3366ff99","Correct":-1,"Choice":-1,"RT":-1,"Accuracy":1,"Outcome":"+10","Keys":[],"TotalKeys":0,"Block":2,"Trial":168,"Robot":2,"Valence":"Win","Action":"No-Go","Sham":0,"Color":"blue","trial_type":"pit-trial","trial_index":198,"time_elapsed":866982,"internal_node_id":"0.0-175.0","task_version":"test-retest-t2"},{"Rune":"rune_03_othalan","Hex":"#3366ff99","Correct":-1,"Choice":-1,"RT":-1,"Accuracy":1,"Outcome":"+10","Keys":[],"TotalKeys":0,"Block":2,"Trial":169,"Robot":2,"Valence":"Win","Action":"No-Go","Sham":0,"Color":"blue","trial_type":"pit-trial","trial_index":199,"time_elapsed":870993,"internal_node_id":"0.0-176.0","task_version":"test-retest-t2"},{"Rune":"rune_03_uruz","Hex":"#3366ff99","Correct":32,"Choice":32,"RT":580.8499999984633,"Accuracy":1,"Outcome":"+10","Keys":[2081.044999998994],"TotalKeys":1,"Block":2,"Trial":170,"Robot":1,"Valence":"Win","Action":"Go","Sham":0,"Color":"blue","trial_type":"pit-trial","trial_index":200,"time_elapsed":874082,"internal_node_id":"0.0-177.0","task_version":"test-retest-t2"},{"Rune":"rune_03_naudiz","Hex":"#ffcc3399","Correct":32,"Choice":32,"RT":576.9100000034086,"Accuracy":1,"Outcome":"-1","Keys":[2079.200000007404],"TotalKeys":1,"Block":2,"Trial":171,"Robot":3,"Valence":"Lose","Action":"Go","Sham":0,"Color":"yellow","trial_type":"pit-trial","trial_index":201,"time_elapsed":877169,"internal_node_id":"0.0-178.0","task_version":"test-retest-t2"},{"Rune":"rune_03_algiz","Hex":"#ffcc3399","Correct":-1,"Choice":-1,"RT":-1,"Accuracy":1,"Outcome":"-1","Keys":[],"TotalKeys":0,"Block":2,"Trial":172,"Robot":4,"Valence":"Lose","Action":"No-Go","Sham":0,"Color":"yellow","trial_type":"pit-trial","trial_index":202,"time_elapsed":881179,"internal_node_id":"0.0-179.0","task_version":"test-retest-t2"},{"Rune":"rune_03_othalan","Hex":"#3366ff99","Correct":-1,"Choice":-1,"RT":-1,"Accuracy":1,"Outcome":"+1","Keys":[],"TotalKeys":0,"Block":2,"Trial":173,"Robot":2,"Valence":"Win","Action":"No-Go","Sham":1,"Color":"blue","trial_type":"pit-trial","trial_index":203,"time_elapsed":885187,"internal_node_id":"0.0-180.0","task_version":"test-retest-t2"},{"Rune":"rune_03_uruz","Hex":"#3366ff99","Correct":32,"Choice":32,"RT":874.1750000044703,"Accuracy":1,"Outcome":"+10","Keys":[2375.189999991562],"TotalKeys":1,"Block":2,"Trial":174,"Robot":1,"Valence":"Win","Action":"Go","Sham":0,"Color":"blue","trial_type":"pit-trial","trial_index":204,"time_elapsed":888572,"internal_node_id":"0.0-181.0","task_version":"test-retest-t2"},{"Rune":"rune_03_naudiz","Hex":"#ffcc3399","Correct":32,"Choice":32,"RT":339.93000000191387,"Accuracy":1,"Outcome":"-10","Keys":[1840.0199999887263],"TotalKeys":1,"Block":2,"Trial":175,"Robot":3,"Valence":"Lose","Action":"Go","Sham":1,"Color":"yellow","trial_type":"pit-trial","trial_index":205,"time_elapsed":891422,"internal_node_id":"0.0-182.0","task_version":"test-retest-t2"},{"Rune":"rune_03_algiz","Hex":"#ffcc3399","Correct":-1,"Choice":-1,"RT":-1,"Accuracy":1,"Outcome":"-1","Keys":[],"TotalKeys":0,"Block":2,"Trial":176,"Robot":4,"Valence":"Lose","Action":"No-Go","Sham":0,"Color":"yellow","trial_type":"pit-trial","trial_index":206,"time_elapsed":895429,"internal_node_id":"0.0-183.0","task_version":"test-retest-t2"},{"Rune":"rune_03_uruz","Hex":"#3366ff99","Correct":32,"Choice":32,"RT":570.2699999965262,"Accuracy":1,"Outcome":"+1","Keys":[2071.5349999954924],"TotalKeys":1,"Block":2,"Trial":177,"Robot":1,"Valence":"Win","Action":"Go","Sham":1,"Color":"blue","trial_type":"pit-trial","trial_index":207,"time_elapsed":898509,"internal_node_id":"0.0-184.0","task_version":"test-retest-t2"},{"Rune":"rune_03_othalan","Hex":"#3366ff99","Correct":-1,"Choice":-1,"RT":-1,"Accuracy":1,"Outcome":"+10","Keys":[],"TotalKeys":0,"Block":2,"Trial":178,"Robot":2,"Valence":"Win","Action":"No-Go","Sham":0,"Color":"blue","trial_type":"pit-trial","trial_index":208,"time_elapsed":902518,"internal_node_id":"0.0-185.0","task_version":"test-retest-t2"},{"Rune":"rune_03_algiz","Hex":"#ffcc3399","Correct":-1,"Choice":-1,"RT":-1,"Accuracy":1,"Outcome":"-1","Keys":[],"TotalKeys":0,"Block":2,"Trial":179,"Robot":4,"Valence":"Lose","Action":"No-Go","Sham":0,"Color":"yellow","trial_type":"pit-trial","trial_index":209,"time_elapsed":906526,"internal_node_id":"0.0-186.0","task_version":"test-retest-t2"},{"Rune":"rune_03_naudiz","Hex":"#ffcc3399","Correct":32,"Choice":32,"RT":595.5249999969965,"Accuracy":1,"Outcome":"-1","Keys":[2096.47999999288],"TotalKeys":1,"Block":2,"Trial":180,"Robot":3,"Valence":"Lose","Action":"Go","Sham":0,"Color":"yellow","trial_type":"pit-trial","trial_index":210,"time_elapsed":909630,"internal_node_id":"0.0-187.0","task_version":"test-retest-t2"},{"view_history":"[{\"page_index\":0,\"viewing_time\":5746.140000002924},{\"page_index\":1,\"viewing_time\":2566.8299999961164}]","rt":8313.83499999356,"trial_type":"pit-instructions","trial_index":211,"time_elapsed":917948,"internal_node_id":"0.0-188.0","task_version":"test-retest-t2"},{"Rune":"rune_03_algiz","Hex":"#ffcc3399","Correct":-1,"Choice":-1,"RT":-1,"Accuracy":1,"Outcome":"-1","Keys":[],"TotalKeys":0,"Block":2,"Trial":181,"Robot":4,"Valence":"Lose","Action":"No-Go","Sham":0,"Color":"yellow","trial_type":"pit-trial","trial_index":212,"time_elapsed":921958,"internal_node_id":"0.0-189.0","task_version":"test-retest-t2"},{"Rune":"rune_03_othalan","Hex":"#3366ff99","Correct":-1,"Choice":-1,"RT":-1,"Accuracy":1,"Outcome":"+10","Keys":[],"TotalKeys":0,"Block":2,"Trial":182,"Robot":2,"Valence":"Win","Action":"No-Go","Sham":0,"Color":"blue","trial_type":"pit-trial","trial_index":213,"time_elapsed":925965,"internal_node_id":"0.0-190.0","task_version":"test-retest-t2"},{"Rune":"rune_03_naudiz","Hex":"#ffcc3399","Correct":32,"Choice":32,"RT":526.0199999902397,"Accuracy":1,"Outcome":"-10","Keys":[2027.249999999185],"TotalKeys":1,"Block":2,"Trial":183,"Robot":3,"Valence":"Lose","Action":"Go","Sham":1,"Color":"yellow","trial_type":"pit-trial","trial_index":214,"time_elapsed":929000,"internal_node_id":"0.0-191.0","task_version":"test-retest-t2"},{"Rune":"rune_03_uruz","Hex":"#3366ff99","Correct":32,"Choice":32,"RT":459.1750000108732,"Accuracy":1,"Outcome":"+10","Keys":[1960.1649999967776],"TotalKeys":1,"Block":2,"Trial":184,"Robot":1,"Valence":"Win","Action":"Go","Sham":0,"Color":"blue","trial_type":"pit-trial","trial_index":215,"time_elapsed":931968,"internal_node_id":"0.0-192.0","task_version":"test-retest-t2"},{"Rune":"rune_03_algiz","Hex":"#ffcc3399","Correct":-1,"Choice":-1,"RT":-1,"Accuracy":1,"Outcome":"-1","Keys":[],"TotalKeys":0,"Block":2,"Trial":185,"Robot":4,"Valence":"Lose","Action":"No-Go","Sham":0,"Color":"yellow","trial_type":"pit-trial","trial_index":216,"time_elapsed":935976,"internal_node_id":"0.0-193.0","task_version":"test-retest-t2"},{"Rune":"rune_03_othalan","Hex":"#3366ff99","Correct":-1,"Choice":-1,"RT":-1,"Accuracy":1,"Outcome":"+1","Keys":[],"TotalKeys":0,"Block":2,"Trial":186,"Robot":2,"Valence":"Win","Action":"No-Go","Sham":1,"Color":"blue","trial_type":"pit-trial","trial_index":217,"time_elapsed":939983,"internal_node_id":"0.0-194.0","task_version":"test-retest-t2"},{"Rune":"rune_03_naudiz","Hex":"#ffcc3399","Correct":32,"Choice":32,"RT":394.3250000011176,"Accuracy":1,"Outcome":"-1","Keys":[1896.1850000050617],"TotalKeys":1,"Block":2,"Trial":187,"Robot":3,"Valence":"Lose","Action":"Go","Sham":0,"Color":"yellow","trial_type":"pit-trial","trial_index":218,"time_elapsed":942887,"internal_node_id":"0.0-195.0","task_version":"test-retest-t2"},{"Rune":"rune_03_uruz","Hex":"#3366ff99","Correct":32,"Choice":-1,"RT":-1,"Accuracy":0,"Outcome":"+1","Keys":[3214.0350000117905],"TotalKeys":1,"Block":2,"Trial":188,"Robot":1,"Valence":"Win","Action":"Go","Sham":0,"Color":"blue","trial_type":"pit-trial","trial_index":219,"time_elapsed":946895,"internal_node_id":"0.0-196.0","task_version":"test-retest-t2"},{"Rune":"rune_03_algiz","Hex":"#ffcc3399","Correct":-1,"Choice":-1,"RT":-1,"Accuracy":1,"Outcome":"-1","Keys":[],"TotalKeys":0,"Block":2,"Trial":189,"Robot":4,"Valence":"Lose","Action":"No-Go","Sham":0,"Color":"yellow","trial_type":"pit-trial","trial_index":220,"time_elapsed":950900,"internal_node_id":"0.0-197.0","task_version":"test-retest-t2"},{"Rune":"rune_03_othalan","Hex":"#3366ff99","Correct":-1,"Choice":-1,"RT":-1,"Accuracy":1,"Outcome":"+10","Keys":[],"TotalKeys":0,"Block":2,"Trial":190,"Robot":2,"Valence":"Win","Action":"No-Go","Sham":0,"Color":"blue","trial_type":"pit-trial","trial_index":221,"time_elapsed":954909,"internal_node_id":"0.0-198.0","task_version":"test-retest-t2"},{"Rune":"rune_03_naudiz","Hex":"#ffcc3399","Correct":32,"Choice":32,"RT":529.0699999895878,"Accuracy":1,"Outcome":"-1","Keys":[2029.2950000002747],"TotalKeys":1,"Block":2,"Trial":191,"Robot":3,"Valence":"Lose","Action":"Go","Sham":0,"Color":"yellow","trial_type":"pit-trial","trial_index":222,"time_elapsed":957945,"internal_node_id":"0.0-199.0","task_version":"test-retest-t2"},{"Rune":"rune_03_uruz","Hex":"#3366ff99","Correct":32,"Choice":32,"RT":421.15999999805354,"Accuracy":1,"Outcome":"+10","Keys":[1921.7550000030315],"TotalKeys":1,"Block":2,"Trial":192,"Robot":1,"Valence":"Win","Action":"Go","Sham":0,"Color":"blue","trial_type":"pit-trial","trial_index":223,"time_elapsed":960874,"internal_node_id":"0.0-200.0","task_version":"test-retest-t2"},{"Rune":"rune_03_naudiz","Hex":"#ffcc3399","Correct":32,"Choice":32,"RT":484.7100000042701,"Accuracy":1,"Outcome":"-1","Keys":[1986.3299999997253],"TotalKeys":1,"Block":2,"Trial":193,"Robot":3,"Valence":"Lose","Action":"Go","Sham":0,"Color":"yellow","trial_type":"pit-trial","trial_index":224,"time_elapsed":963868,"internal_node_id":"0.0-201.0","task_version":"test-retest-t2"},{"Rune":"rune_03_algiz","Hex":"#ffcc3399","Correct":-1,"Choice":-1,"RT":-1,"Accuracy":1,"Outcome":"-1","Keys":[],"TotalKeys":0,"Block":2,"Trial":194,"Robot":4,"Valence":"Lose","Action":"No-Go","Sham":0,"Color":"yellow","trial_type":"pit-trial","trial_index":225,"time_elapsed":967879,"internal_node_id":"0.0-202.0","task_version":"test-retest-t2"},{"Rune":"rune_03_othalan","Hex":"#3366ff99","Correct":-1,"Choice":-1,"RT":-1,"Accuracy":1,"Outcome":"+10","Keys":[3516.4800000056857],"TotalKeys":1,"Block":2,"Trial":195,"Robot":2,"Valence":"Win","Action":"No-Go","Sham":0,"Color":"blue","trial_type":"pit-trial","trial_index":226,"time_elapsed":971890,"internal_node_id":"0.0-203.0","task_version":"test-retest-t2"},{"Rune":"rune_03_uruz","Hex":"#3366ff99","Correct":32,"Choice":32,"RT":296.2450000050012,"Accuracy":1,"Outcome":"+10","Keys":[1797.069999985979],"TotalKeys":1,"Block":2,"Trial":196,"Robot":1,"Valence":"Win","Action":"Go","Sham":0,"Color":"blue","trial_type":"pit-trial","trial_index":227,"time_elapsed":974695,"internal_node_id":"0.0-204.0","task_version":"test-retest-t2"},{"Rune":"rune_03_othalan","Hex":"#3366ff99","Correct":-1,"Choice":-1,"RT":-1,"Accuracy":1,"Outcome":"+10","Keys":[],"TotalKeys":0,"Block":2,"Trial":197,"Robot":2,"Valence":"Win","Action":"No-Go","Sham":0,"Color":"blue","trial_type":"pit-trial","trial_index":228,"time_elapsed":978703,"internal_node_id":"0.0-205.0","task_version":"test-retest-t2"},{"Rune":"rune_03_naudiz","Hex":"#ffcc3399","Correct":32,"Choice":32,"RT":628.5849999985658,"Accuracy":1,"Outcome":"-1","Keys":[2128.840000004857],"TotalKeys":1,"Block":2,"Trial":198,"Robot":3,"Valence":"Lose","Action":"Go","Sham":0,"Color":"yellow","trial_type":"pit-trial","trial_index":229,"time_elapsed":981839,"internal_node_id":"0.0-206.0","task_version":"test-retest-t2"},{"Rune":"rune_03_algiz","Hex":"#ffcc3399","Correct":-1,"Choice":-1,"RT":-1,"Accuracy":1,"Outcome":"-10","Keys":[],"TotalKeys":0,"Block":2,"Trial":199,"Robot":4,"Valence":"Lose","Action":"No-Go","Sham":1,"Color":"yellow","trial_type":"pit-trial","trial_index":230,"time_elapsed":985847,"internal_node_id":"0.0-207.0","task_version":"test-retest-t2"},{"Rune":"rune_03_uruz","Hex":"#3366ff99","Correct":32,"Choice":32,"RT":709.8150000092573,"Accuracy":1,"Outcome":"+1","Keys":[2210.449999998673],"TotalKeys":1,"Block":2,"Trial":200,"Robot":1,"Valence":"Win","Action":"Go","Sham":1,"Color":"blue","trial_type":"pit-trial","trial_index":231,"time_elapsed":989067,"internal_node_id":"0.0-208.0","task_version":"test-retest-t2"},{"Rune":"rune_03_algiz","Hex":"#ffcc3399","Correct":-1,"Choice":-1,"RT":-1,"Accuracy":1,"Outcome":"-1","Keys":[],"TotalKeys":0,"Block":2,"Trial":201,"Robot":4,"Valence":"Lose","Action":"No-Go","Sham":0,"Color":"yellow","trial_type":"pit-trial","trial_index":232,"time_elapsed":993077,"internal_node_id":"0.0-209.0","task_version":"test-retest-t2"},{"Rune":"rune_03_uruz","Hex":"#3366ff99","Correct":32,"Choice":32,"RT":515.9899999998743,"Accuracy":1,"Outcome":"+10","Keys":[2016.7100000107894],"TotalKeys":1,"Block":2,"Trial":202,"Robot":1,"Valence":"Win","Action":"Go","Sham":0,"Color":"blue","trial_type":"pit-trial","trial_index":233,"time_elapsed":996102,"internal_node_id":"0.0-210.0","task_version":"test-retest-t2"},{"Rune":"rune_03_othalan","Hex":"#3366ff99","Correct":-1,"Choice":-1,"RT":-1,"Accuracy":1,"Outcome":"+10","Keys":[],"TotalKeys":0,"Block":2,"Trial":203,"Robot":2,"Valence":"Win","Action":"No-Go","Sham":0,"Color":"blue","trial_type":"pit-trial","trial_index":234,"time_elapsed":1000111,"internal_node_id":"0.0-211.0","task_version":"test-retest-t2"},{"Rune":"rune_03_naudiz","Hex":"#ffcc3399","Correct":32,"Choice":32,"RT":532.4000000109663,"Accuracy":1,"Outcome":"-10","Keys":[2033.2699999999022],"TotalKeys":1,"Block":2,"Trial":204,"Robot":3,"Valence":"Lose","Action":"Go","Sham":1,"Color":"yellow","trial_type":"pit-trial","trial_index":235,"time_elapsed":1003152,"internal_node_id":"0.0-212.0","task_version":"test-retest-t2"},{"Rune":"rune_03_naudiz","Hex":"#ffcc3399","Correct":32,"Choice":32,"RT":447.5000000093132,"Accuracy":1,"Outcome":"-1","Keys":[1948.0000000039581],"TotalKeys":1,"Block":2,"Trial":205,"Robot":3,"Valence":"Lose","Action":"Go","Sham":0,"Color":"yellow","trial_type":"pit-trial","trial_index":236,"time_elapsed":1006108,"internal_node_id":"0.0-213.0","task_version":"test-retest-t2"},{"Rune":"rune_03_uruz","Hex":"#3366ff99","Correct":32,"Choice":-1,"RT":-1,"Accuracy":0,"Outcome":"+1","Keys":[],"TotalKeys":0,"Block":2,"Trial":206,"Robot":1,"Valence":"Win","Action":"Go","Sham":0,"Color":"blue","trial_type":"pit-trial","trial_index":237,"time_elapsed":1010116,"internal_node_id":"0.0-214.0","task_version":"test-retest-t2"},{"Rune":"rune_03_algiz","Hex":"#ffcc3399","Correct":-1,"Choice":-1,"RT":-1,"Accuracy":1,"Outcome":"-1","Keys":[],"TotalKeys":0,"Block":2,"Trial":207,"Robot":4,"Valence":"Lose","Action":"No-Go","Sham":0,"Color":"yellow","trial_type":"pit-trial","trial_index":238,"time_elapsed":1014123,"internal_node_id":"0.0-215.0","task_version":"test-retest-t2"},{"Rune":"rune_03_othalan","Hex":"#3366ff99","Correct":-1,"Choice":32,"RT":224.87000000546686,"Accuracy":0,"Outcome":"+10","Keys":[1725.2149999985704],"TotalKeys":1,"Block":2,"Trial":208,"Robot":2,"Valence":"Win","Action":"No-Go","Sham":1,"Color":"blue","trial_type":"pit-trial","trial_index":239,"time_elapsed":1016856,"internal_node_id":"0.0-216.0","task_version":"test-retest-t2"},{"Rune":"rune_03_naudiz","Hex":"#ffcc3399","Correct":32,"Choice":32,"RT":448.48500000080094,"Accuracy":1,"Outcome":"-1","Keys":[1949.285000009695],"TotalKeys":1,"Block":2,"Trial":209,"Robot":3,"Valence":"Lose","Action":"Go","Sham":0,"Color":"yellow","trial_type":"pit-trial","trial_index":240,"time_elapsed":1019811,"internal_node_id":"0.0-217.0","task_version":"test-retest-t2"},{"Rune":"rune_03_othalan","Hex":"#3366ff99","Correct":-1,"Choice":-1,"RT":-1,"Accuracy":1,"Outcome":"+10","Keys":[],"TotalKeys":0,"Block":2,"Trial":210,"Robot":2,"Valence":"Win","Action":"No-Go","Sham":0,"Color":"blue","trial_type":"pit-trial","trial_index":241,"time_elapsed":1023817,"internal_node_id":"0.0-218.0","task_version":"test-retest-t2"},{"Rune":"rune_03_algiz","Hex":"#ffcc3399","Correct":-1,"Choice":-1,"RT":-1,"Accuracy":1,"Outcome":"-1","Keys":[],"TotalKeys":0,"Block":2,"Trial":211,"Robot":4,"Valence":"Lose","Action":"No-Go","Sham":0,"Color":"yellow","trial_type":"pit-trial","trial_index":242,"time_elapsed":1027826,"internal_node_id":"0.0-219.0","task_version":"test-retest-t2"},{"Rune":"rune_03_uruz","Hex":"#3366ff99","Correct":32,"Choice":32,"RT":358.77000000618864,"Accuracy":1,"Outcome":"+10","Keys":[1859.405000010156],"TotalKeys":1,"Block":2,"Trial":212,"Robot":1,"Valence":"Win","Action":"Go","Sham":0,"Color":"blue","trial_type":"pit-trial","trial_index":243,"time_elapsed":1030694,"internal_node_id":"0.0-220.0","task_version":"test-retest-t2"},{"Rune":"rune_03_uruz","Hex":"#3366ff99","Correct":32,"Choice":32,"RT":544.305000003078,"Accuracy":1,"Outcome":"+10","Keys":[2046.3050000107614],"TotalKeys":1,"Block":2,"Trial":213,"Robot":1,"Valence":"Win","Action":"Go","Sham":0,"Color":"blue","trial_type":"pit-trial","trial_index":244,"time_elapsed":1033748,"internal_node_id":"0.0-221.0","task_version":"test-retest-t2"},{"Rune":"rune_03_algiz","Hex":"#ffcc3399","Correct":-1,"Choice":-1,"RT":-1,"Accuracy":1,"Outcome":"-1","Keys":[],"TotalKeys":0,"Block":2,"Trial":214,"Robot":4,"Valence":"Lose","Action":"No-Go","Sham":0,"Color":"yellow","trial_type":"pit-trial","trial_index":245,"time_elapsed":1037755,"internal_node_id":"0.0-222.0","task_version":"test-retest-t2"},{"Rune":"rune_03_othalan","Hex":"#3366ff99","Correct":-1,"Choice":-1,"RT":-1,"Accuracy":1,"Outcome":"+10","Keys":[],"TotalKeys":0,"Block":2,"Trial":215,"Robot":2,"Valence":"Win","Action":"No-Go","Sham":0,"Color":"blue","trial_type":"pit-trial","trial_index":246,"time_elapsed":1041762,"internal_node_id":"0.0-223.0","task_version":"test-retest-t2"},{"Rune":"rune_03_naudiz","Hex":"#ffcc3399","Correct":32,"Choice":32,"RT":446.8899999919813,"Accuracy":1,"Outcome":"-1","Keys":[1948.179999992135],"TotalKeys":1,"Block":2,"Trial":216,"Robot":3,"Valence":"Lose","Action":"Go","Sham":0,"Color":"yellow","trial_type":"pit-trial","trial_index":247,"time_elapsed":1044718,"internal_node_id":"0.0-224.0","task_version":"test-retest-t2"},{"Rune":"rune_03_naudiz","Hex":"#ffcc3399","Correct":32,"Choice":32,"RT":793.2550000114134,"Accuracy":1,"Outcome":"-1","Keys":[2293.6150000024354],"TotalKeys":1,"Block":2,"Trial":217,"Robot":3,"Valence":"Lose","Action":"Go","Sham":0,"Color":"yellow","trial_type":"pit-trial","trial_index":248,"time_elapsed":1048019,"internal_node_id":"0.0-225.0","task_version":"test-retest-t2"},{"Rune":"rune_03_othalan","Hex":"#3366ff99","Correct":-1,"Choice":-1,"RT":-1,"Accuracy":1,"Outcome":"+10","Keys":[],"TotalKeys":0,"Block":2,"Trial":218,"Robot":2,"Valence":"Win","Action":"No-Go","Sham":0,"Color":"blue","trial_type":"pit-trial","trial_index":249,"time_elapsed":1052028,"internal_node_id":"0.0-226.0","task_version":"test-retest-t2"},{"Rune":"rune_03_algiz","Hex":"#ffcc3399","Correct":-1,"Choice":-1,"RT":-1,"Accuracy":1,"Outcome":"-10","Keys":[],"TotalKeys":0,"Block":2,"Trial":219,"Robot":4,"Valence":"Lose","Action":"No-Go","Sham":1,"Color":"yellow","trial_type":"pit-trial","trial_index":250,"time_elapsed":1056035,"internal_node_id":"0.0-227.0","task_version":"test-retest-t2"},{"Rune":"rune_03_uruz","Hex":"#3366ff99","Correct":32,"Choice":32,"RT":433.69499999983236,"Accuracy":1,"Outcome":"+1","Keys":[1934.9649999933317],"TotalKeys":1,"Block":2,"Trial":220,"Robot":1,"Valence":"Win","Action":"Go","Sham":1,"Color":"blue","trial_type":"pit-trial","trial_index":251,"time_elapsed":1058976,"internal_node_id":"0.0-228.0","task_version":"test-retest-t2"},{"Rune":"rune_03_othalan","Hex":"#3366ff99","Correct":-1,"Choice":-1,"RT":-1,"Accuracy":1,"Outcome":"+10","Keys":[],"TotalKeys":0,"Block":2,"Trial":221,"Robot":2,"Valence":"Win","Action":"No-Go","Sham":0,"Color":"blue","trial_type":"pit-trial","trial_index":252,"time_elapsed":1062985,"internal_node_id":"0.0-229.0","task_version":"test-retest-t2"},{"Rune":"rune_03_algiz","Hex":"#ffcc3399","Correct":-1,"Choice":-1,"RT":-1,"Accuracy":1,"Outcome":"-1","Keys":[],"TotalKeys":0,"Block":2,"Trial":222,"Robot":4,"Valence":"Lose","Action":"No-Go","Sham":0,"Color":"yellow","trial_type":"pit-trial","trial_index":253,"time_elapsed":1066995,"internal_node_id":"0.0-230.0","task_version":"test-retest-t2"},{"Rune":"rune_03_uruz","Hex":"#3366ff99","Correct":32,"Choice":32,"RT":505.08499999693595,"Accuracy":1,"Outcome":"+10","Keys":[2005.5200000060722],"TotalKeys":1,"Block":2,"Trial":223,"Robot":1,"Valence":"Win","Action":"Go","Sham":0,"Color":"blue","trial_type":"pit-trial","trial_index":254,"time_elapsed":1070006,"internal_node_id":"0.0-231.0","task_version":"test-retest-t2"},{"Rune":"rune_03_naudiz","Hex":"#ffcc3399","Correct":32,"Choice":32,"RT":435.3649999976624,"Accuracy":1,"Outcome":"-1","Keys":[1936.239999995567],"TotalKeys":1,"Block":2,"Trial":224,"Robot":3,"Valence":"Lose","Action":"Go","Sham":0,"Color":"yellow","trial_type":"pit-trial","trial_index":255,"time_elapsed":1072950,"internal_node_id":"0.0-232.0","task_version":"test-retest-t2"},{"Rune":"rune_03_naudiz","Hex":"#ffcc3399","Correct":32,"Choice":32,"RT":408.59500000067055,"Accuracy":1,"Outcome":"-10","Keys":[1908.6549999921117],"TotalKeys":1,"Block":2,"Trial":225,"Robot":3,"Valence":"Lose","Action":"Go","Sham":1,"Color":"yellow","trial_type":"pit-trial","trial_index":256,"time_elapsed":1075866,"internal_node_id":"0.0-233.0","task_version":"test-retest-t2"},{"Rune":"rune_03_algiz","Hex":"#ffcc3399","Correct":-1,"Choice":-1,"RT":-1,"Accuracy":1,"Outcome":"-1","Keys":[],"TotalKeys":0,"Block":2,"Trial":226,"Robot":4,"Valence":"Lose","Action":"No-Go","Sham":0,"Color":"yellow","trial_type":"pit-trial","trial_index":257,"time_elapsed":1079874,"internal_node_id":"0.0-234.0","task_version":"test-retest-t2"},{"Rune":"rune_03_othalan","Hex":"#3366ff99","Correct":-1,"Choice":-1,"RT":-1,"Accuracy":1,"Outcome":"+10","Keys":[],"TotalKeys":0,"Block":2,"Trial":227,"Robot":2,"Valence":"Win","Action":"No-Go","Sham":0,"Color":"blue","trial_type":"pit-trial","trial_index":258,"time_elapsed":1083883,"internal_node_id":"0.0-235.0","task_version":"test-retest-t2"},{"Rune":"rune_03_uruz","Hex":"#3366ff99","Correct":32,"Choice":32,"RT":595.5850000027567,"Accuracy":1,"Outcome":"+10","Keys":[2096.0899999919347],"TotalKeys":1,"Block":2,"Trial":228,"Robot":1,"Valence":"Win","Action":"Go","Sham":0,"Color":"blue","trial_type":"pit-trial","trial_index":259,"time_elapsed":1086986,"internal_node_id":"0.0-236.0","task_version":"test-retest-t2"},{"Rune":"rune_03_uruz","Hex":"#3366ff99","Correct":32,"Choice":32,"RT":722.2000000036787,"Accuracy":1,"Outcome":"+10","Keys":[2222.7500000009313],"TotalKeys":1,"Block":2,"Trial":229,"Robot":1,"Valence":"Win","Action":"Go","Sham":0,"Color":"blue","trial_type":"pit-trial","trial_index":260,"time_elapsed":1090216,"internal_node_id":"0.0-237.0","task_version":"test-retest-t2"},{"Rune":"rune_03_othalan","Hex":"#3366ff99","Correct":-1,"Choice":-1,"RT":-1,"Accuracy":1,"Outcome":"+10","Keys":[],"TotalKeys":0,"Block":2,"Trial":230,"Robot":2,"Valence":"Win","Action":"No-Go","Sham":0,"Color":"blue","trial_type":"pit-trial","trial_index":261,"time_elapsed":1094224,"internal_node_id":"0.0-238.0","task_version":"test-retest-t2"},{"Rune":"rune_03_naudiz","Hex":"#ffcc3399","Correct":32,"Choice":32,"RT":526.4449999958742,"Accuracy":1,"Outcome":"-1","Keys":[2027.4499999941327],"TotalKeys":1,"Block":2,"Trial":231,"Robot":3,"Valence":"Lose","Action":"Go","Sham":0,"Color":"yellow","trial_type":"pit-trial","trial_index":262,"time_elapsed":1097260,"internal_node_id":"0.0-239.0","task_version":"test-retest-t2"},{"Rune":"rune_03_algiz","Hex":"#ffcc3399","Correct":-1,"Choice":-1,"RT":-1,"Accuracy":1,"Outcome":"-1","Keys":[],"TotalKeys":0,"Block":2,"Trial":232,"Robot":4,"Valence":"Lose","Action":"No-Go","Sham":0,"Color":"yellow","trial_type":"pit-trial","trial_index":263,"time_elapsed":1101269,"internal_node_id":"0.0-240.0","task_version":"test-retest-t2"},{"Rune":"rune_03_othalan","Hex":"#3366ff99","Correct":-1,"Choice":-1,"RT":-1,"Accuracy":1,"Outcome":"+10","Keys":[],"TotalKeys":0,"Block":2,"Trial":233,"Robot":2,"Valence":"Win","Action":"No-Go","Sham":0,"Color":"blue","trial_type":"pit-trial","trial_index":264,"time_elapsed":1105277,"internal_node_id":"0.0-241.0","task_version":"test-retest-t2"},{"Rune":"rune_03_naudiz","Hex":"#ffcc3399","Correct":32,"Choice":32,"RT":639.244999998482,"Accuracy":1,"Outcome":"-1","Keys":[2139.7500000018626],"TotalKeys":1,"Block":2,"Trial":234,"Robot":3,"Valence":"Lose","Action":"Go","Sham":0,"Color":"yellow","trial_type":"pit-trial","trial_index":265,"time_elapsed":1108424,"internal_node_id":"0.0-242.0","task_version":"test-retest-t2"},{"Rune":"rune_03_algiz","Hex":"#ffcc3399","Correct":-1,"Choice":-1,"RT":-1,"Accuracy":1,"Outcome":"-1","Keys":[],"TotalKeys":0,"Block":2,"Trial":235,"Robot":4,"Valence":"Lose","Action":"No-Go","Sham":0,"Color":"yellow","trial_type":"pit-trial","trial_index":266,"time_elapsed":1112433,"internal_node_id":"0.0-243.0","task_version":"test-retest-t2"},{"Rune":"rune_03_uruz","Hex":"#3366ff99","Correct":32,"Choice":32,"RT":436.0200000081677,"Accuracy":1,"Outcome":"+10","Keys":[1936.9749999896158],"TotalKeys":1,"Block":2,"Trial":236,"Robot":1,"Valence":"Win","Action":"Go","Sham":0,"Color":"blue","trial_type":"pit-trial","trial_index":267,"time_elapsed":1115377,"internal_node_id":"0.0-244.0","task_version":"test-retest-t2"},{"Rune":"rune_03_othalan","Hex":"#3366ff99","Correct":-1,"Choice":32,"RT":344.84499999973923,"Accuracy":0,"Outcome":"+10","Keys":[1845.249999998603],"TotalKeys":1,"Block":2,"Trial":237,"Robot":2,"Valence":"Win","Action":"No-Go","Sham":1,"Color":"blue","trial_type":"pit-trial","trial_index":268,"time_elapsed":1118227,"internal_node_id":"0.0-245.0","task_version":"test-retest-t2"},{"Rune":"rune_03_algiz","Hex":"#ffcc3399","Correct":-1,"Choice":-1,"RT":-1,"Accuracy":1,"Outcome":"-10","Keys":[],"TotalKeys":0,"Block":2,"Trial":238,"Robot":4,"Valence":"Lose","Action":"No-Go","Sham":1,"Color":"yellow","trial_type":"pit-trial","trial_index":269,"time_elapsed":1122236,"internal_node_id":"0.0-246.0","task_version":"test-retest-t2"},{"Rune":"rune_03_naudiz","Hex":"#ffcc3399","Correct":32,"Choice":32,"RT":921.1300000022165,"Accuracy":1,"Outcome":"-1","Keys":[2422.454999992624],"TotalKeys":1,"Block":2,"Trial":239,"Robot":3,"Valence":"Lose","Action":"Go","Sham":0,"Color":"yellow","trial_type":"pit-trial","trial_index":270,"time_elapsed":1125666,"internal_node_id":"0.0-247.0","task_version":"test-retest-t2"},{"Rune":"rune_03_uruz","Hex":"#3366ff99","Correct":32,"Choice":32,"RT":462.41000000736676,"Accuracy":1,"Outcome":"+1","Keys":[1963.3250000041444],"TotalKeys":1,"Block":2,"Trial":240,"Robot":1,"Valence":"Win","Action":"Go","Sham":1,"Color":"blue","trial_type":"pit-trial","trial_index":271,"time_elapsed":1128636,"internal_node_id":"0.0-248.0","task_version":"test-retest-t2"},{"view_history":"[{\"page_index\":0,\"viewing_time\":2411.9300000020303}]","rt":2412.935000000056,"trial_type":"pit-instructions","trial_index":272,"time_elapsed":1131053,"internal_node_id":"0.0-249.0","task_version":"test-retest-t2"},{"rt":17247.074999992037,"responses":{"difficulty":"4","fun":"5","clarity":"5","strategy":"No.","feedback":""},"survey":"debrief","trial_type":"survey-debrief","trial_index":273,"time_elapsed":1148307,"internal_node_id":"0.0-250.0","task_version":"test-retest-t2"},{"rt":6580.8799999940675,"stimulus":"You earned a bonus of $1.36 out of $1.5.<br><br>Press any key to complete the experiment.","key_press":32,"trial_type":"html-keyboard-response","trial_index":274,"time_elapsed":1154893,"internal_node_id":"0.0-251.0","task_version":"test-retest-t2","accuracy":0.9041666666666667,"bonus":1.36,"interactions":"[{\"event\":\"blur\",\"trial\":4,\"time\":111030},{\"event\":\"focus\",\"trial\":5,\"time\":113646}]"}]