[{"slider_type":"valence","raw_loc":648,"loc":0.796,"trial_type":"affective-slider","trial_index":0,"time_elapsed":12660,"internal_node_id":"0.0-0.0","task_version":"test-retest"},{"view_history":"[{\"page_index\":0,\"viewing_time\":3051.8449999799486},{\"page_index\":1,\"viewing_time\":4735.700000019278},{\"page_index\":2,\"viewing_time\":9240.090000006603},{\"page_index\":3,\"viewing_time\":6431.834999995772},{\"page_index\":4,\"viewing_time\":7600.219999992987}]","rt":31060.779999999795,"trial_type":"pit-instructions","trial_index":1,"time_elapsed":43723,"internal_node_id":"0.0-1.0-0.0","task_version":"test-retest"},{"Rune":"rune_00_ingz","Hex":"#FFFFF080","Correct":32,"Choice":32,"RT":654.6999999845866,"Accuracy":1,"Outcome":"+10","Keys":[2156.2599999888334],"TotalKeys":1,"Block":0,"Action":"Go","trial_type":"pit-trial","trial_index":2,"time_elapsed":46883,"internal_node_id":"0.0-1.0-1.0-0.0","task_version":"test-retest"},{"Rune":"rune_00_ingz","Hex":"#FFFFF080","Correct":32,"Choice":32,"RT":541.319999989355,"Accuracy":1,"Outcome":"+10","Keys":[2042.7400000044145],"TotalKeys":1,"Block":0,"Action":"Go","trial_type":"pit-trial","trial_index":3,"time_elapsed":49929,"internal_node_id":"0.0-1.0-1.0-0.1","task_version":"test-retest"},{"Rune":"rune_00_ingz","Hex":"#FFFFF080","Correct":32,"Choice":32,"RT":600.6449999986216,"Accuracy":1,"Outcome":"+10","Keys":[2100.814999983413],"TotalKeys":1,"Block":0,"Action":"Go","trial_type":"pit-trial","trial_index":4,"time_elapsed":53033,"internal_node_id":"0.0-1.0-1.0-0.2","task_version":"test-retest"},{"Rune":"rune_00_ingz","Hex":"#FFFFF080","Correct":32,"Choice":32,"RT":502.9849999991711,"Accuracy":1,"Outcome":"+10","Keys":[2004.579999978887],"TotalKeys":1,"Block":0,"Action":"Go","trial_type":"pit-trial","trial_index":5,"time_elapsed":56043,"internal_node_id":"0.0-1.0-1.0-0.3","task_version":"test-retest"},{"view_history":"[{\"page_index\":0,\"viewing_time\":5132.9400000104215}]","rt":5133.464999991702,"trial_type":"pit-instructions","trial_index":6,"time_elapsed":61178,"internal_node_id":"0.0-1.0-2.0","task_version":"test-retest"},{"Rune":"rune_00_isaz","Hex":"#FFFFF080","Correct":-1,"Choice":-1,"RT":-1,"Accuracy":1,"Outcome":"+10","Keys":[],"TotalKeys":0,"Block":0,"Action":"No-Go","trial_type":"pit-trial","trial_index":7,"time_elapsed":65184,"internal_node_id":"0.0-1.0-3.0-0.0","task_version":"test-retest"},{"Rune":"rune_00_isaz","Hex":"#FFFFF080","Correct":-1,"Choice":-1,"RT":-1,"Accuracy":1,"Outcome":"+10","Keys":[],"TotalKeys":0,"Block":0,"Action":"No-Go","trial_type":"pit-trial","trial_index":8,"time_elapsed":69188,"internal_node_id":"0.0-1.0-3.0-0.1","task_version":"test-retest"},{"Rune":"rune_00_isaz","Hex":"#FFFFF080","Correct":-1,"Choice":-1,"RT":-1,"Accuracy":1,"Outcome":"+10","Keys":[],"TotalKeys":0,"Block":0,"Action":"No-Go","trial_type":"pit-trial","trial_index":9,"time_elapsed":73194,"internal_node_id":"0.0-1.0-3.0-0.2","task_version":"test-retest"},{"Rune":"rune_00_isaz","Hex":"#FFFFF080","Correct":-1,"Choice":-1,"RT":-1,"Accuracy":1,"Outcome":"+10","Keys":[],"TotalKeys":0,"Block":0,"Action":"No-Go","trial_type":"pit-trial","trial_index":10,"time_elapsed":77199,"internal_node_id":"0.0-1.0-3.0-0.3","task_version":"test-retest"},{"view_history":"[{\"page_index\":0,\"viewing_time\":57689.28500000038},{\"page_index\":1,\"viewing_time\":13007.889999978943},{\"page_index\":2,\"viewing_time\":64999.740000028396},{\"page_index\":3,\"viewing_time\":6808.064999990165},{\"page_index\":4,\"viewing_time\":5952.159999986179},{\"page_index\":5,\"viewing_time\":9791.950000013458},{\"page_index\":6,\"viewing_time\":4095.8749999990687},{\"page_index\":7,\"viewing_time\":3816.0250000073574}]","rt":166161.64999999455,"trial_type":"pit-instructions","trial_index":11,"time_elapsed":243362,"internal_node_id":"0.0-1.0-4.0","task_version":"test-retest"},{"responses":["Do nothing","+10","-1","True","Yes"],"num_errors":0,"rt":23165.26999999769,"trial_type":"pit-comprehension","trial_index":12,"time_elapsed":266532,"internal_node_id":"0.0-1.0-5.0","task_version":"test-retest"},{"view_history":"[{\"page_index\":0,\"viewing_time\":2953.089999995427},{\"page_index\":1,\"viewing_time\":6349.770000000717}]","rt":9303.314999997383,"trial_type":"pit-instructions","trial_index":13,"time_elapsed":275839,"internal_node_id":"0.0-2.0","task_version":"test-retest"},{"Rune":"rune_02_haglaz","Hex":"#ffcc3399","Correct":-1,"Choice":-1,"RT":-1,"Accuracy":1,"Outcome":"+10","Keys":[],"TotalKeys":0,"Block":1,"Trial":1,"Robot":2,"Valence":"Win","Action":"No-Go","Sham":0,"Color":"yellow","trial_type":"pit-trial","trial_index":14,"time_elapsed":279849,"internal_node_id":"0.0-3.0","task_version":"test-retest"},{"Rune":"rune_02_raido","Hex":"#ffcc3399","Correct":32,"Choice":32,"RT":895.1799999922514,"Accuracy":1,"Outcome":"+1","Keys":[2396.550000004936],"TotalKeys":1,"Block":1,"Trial":2,"Robot":1,"Valence":"Win","Action":"Go","Sham":1,"Color":"yellow","trial_type":"pit-trial","trial_index":15,"time_elapsed":283248,"internal_node_id":"0.0-4.0","task_version":"test-retest"},{"Rune":"rune_02_cen","Hex":"#3366ff99","Correct":-1,"Choice":-1,"RT":-1,"Accuracy":1,"Outcome":"-1","Keys":[],"TotalKeys":0,"Block":1,"Trial":3,"Robot":4,"Valence":"Lose","Action":"No-Go","Sham":0,"Color":"blue","trial_type":"pit-trial","trial_index":16,"time_elapsed":287252,"internal_node_id":"0.0-5.0","task_version":"test-retest"},{"Rune":"rune_02_os","Hex":"#3366ff99","Correct":32,"Choice":32,"RT":1388.4350000007544,"Accuracy":1,"Outcome":"-10","Keys":[2889.1550000116695],"TotalKeys":1,"Block":1,"Trial":4,"Robot":3,"Valence":"Lose","Action":"Go","Sham":1,"Color":"blue","trial_type":"pit-trial","trial_index":17,"time_elapsed":291144,"internal_node_id":"0.0-6.0","task_version":"test-retest"},{"Rune":"rune_02_haglaz","Hex":"#ffcc3399","Correct":-1,"Choice":-1,"RT":-1,"Accuracy":1,"Outcome":"+10","Keys":[],"TotalKeys":0,"Block":1,"Trial":5,"Robot":2,"Valence":"Win","Action":"No-Go","Sham":0,"Color":"yellow","trial_type":"pit-trial","trial_index":18,"time_elapsed":295149,"internal_node_id":"0.0-7.0","task_version":"test-retest"},{"Rune":"rune_02_raido","Hex":"#ffcc3399","Correct":32,"Choice":-1,"RT":-1,"Accuracy":0,"Outcome":"+1","Keys":[],"TotalKeys":0,"Block":1,"Trial":6,"Robot":1,"Valence":"Win","Action":"Go","Sham":0,"Color":"yellow","trial_type":"pit-trial","trial_index":19,"time_elapsed":299153,"internal_node_id":"0.0-8.0","task_version":"test-retest"},{"Rune":"rune_02_os","Hex":"#3366ff99","Correct":32,"Choice":-1,"RT":-1,"Accuracy":0,"Outcome":"-10","Keys":[],"TotalKeys":0,"Block":1,"Trial":7,"Robot":3,"Valence":"Lose","Action":"Go","Sham":0,"Color":"blue","trial_type":"pit-trial","trial_index":20,"time_elapsed":303158,"internal_node_id":"0.0-9.0","task_version":"test-retest"},{"Rune":"rune_02_cen","Hex":"#3366ff99","Correct":-1,"Choice":-1,"RT":-1,"Accuracy":1,"Outcome":"-1","Keys":[],"TotalKeys":0,"Block":1,"Trial":8,"Robot":4,"Valence":"Lose","Action":"No-Go","Sham":0,"Color":"blue","trial_type":"pit-trial","trial_index":21,"time_elapsed":307162,"internal_node_id":"0.0-10.0","task_version":"test-retest"},{"Rune":"rune_02_os","Hex":"#3366ff99","Correct":32,"Choice":-1,"RT":-1,"Accuracy":0,"Outcome":"-10","Keys":[],"TotalKeys":0,"Block":1,"Trial":9,"Robot":3,"Valence":"Lose","Action":"Go","Sham":0,"Color":"blue","trial_type":"pit-trial","trial_index":22,"time_elapsed":311166,"internal_node_id":"0.0-11.0","task_version":"test-retest"},{"Rune":"rune_02_haglaz","Hex":"#ffcc3399","Correct":-1,"Choice":32,"RT":1161.9599999976344,"Accuracy":0,"Outcome":"+10","Keys":[2663.010000018403],"TotalKeys":1,"Block":1,"Trial":10,"Robot":2,"Valence":"Win","Action":"No-Go","Sham":1,"Color":"yellow","trial_type":"pit-trial","trial_index":23,"time_elapsed":314834,"internal_node_id":"0.0-12.0","task_version":"test-retest"},{"Rune":"rune_02_cen","Hex":"#3366ff99","Correct":-1,"Choice":32,"RT":886.4399999729358,"Accuracy":0,"Outcome":"-1","Keys":[2387.2450000199024],"TotalKeys":1,"Block":1,"Trial":11,"Robot":4,"Valence":"Lose","Action":"No-Go","Sham":1,"Color":"blue","trial_type":"pit-trial","trial_index":24,"time_elapsed":318224,"internal_node_id":"0.0-13.0","task_version":"test-retest"},{"Rune":"rune_02_raido","Hex":"#ffcc3399","Correct":32,"Choice":32,"RT":424.2950000043493,"Accuracy":1,"Outcome":"+10","Keys":[1925.3549999848474],"TotalKeys":1,"Block":1,"Trial":12,"Robot":1,"Valence":"Win","Action":"Go","Sham":0,"Color":"yellow","trial_type":"pit-trial","trial_index":25,"time_elapsed":321152,"internal_node_id":"0.0-14.0","task_version":"test-retest"},{"Rune":"rune_02_haglaz","Hex":"#ffcc3399","Correct":-1,"Choice":32,"RT":713.2149999961257,"Accuracy":0,"Outcome":"+1","Keys":[2213.404999987688],"TotalKeys":1,"Block":1,"Trial":13,"Robot":2,"Valence":"Win","Action":"No-Go","Sham":0,"Color":"yellow","trial_type":"pit-trial","trial_index":26,"time_elapsed":324368,"internal_node_id":"0.0-15.0","task_version":"test-retest"},{"Rune":"rune_02_raido","Hex":"#ffcc3399","Correct":32,"Choice":32,"RT":952.6149999874178,"Accuracy":1,"Outcome":"+10","Keys":[2452.885000006063],"TotalKeys":1,"Block":1,"Trial":14,"Robot":1,"Valence":"Win","Action":"Go","Sham":0,"Color":"yellow","trial_type":"pit-trial","trial_index":27,"time_elapsed":327825,"internal_node_id":"0.0-16.0","task_version":"test-retest"},{"Rune":"rune_02_os","Hex":"#3366ff99","Correct":32,"Choice":32,"RT":647.3849999892991,"Accuracy":1,"Outcome":"-1","Keys":[2148.3100000186823],"TotalKeys":1,"Block":1,"Trial":15,"Robot":3,"Valence":"Lose","Action":"Go","Sham":0,"Color":"blue","trial_type":"pit-trial","trial_index":28,"time_elapsed":330976,"internal_node_id":"0.0-17.0","task_version":"test-retest"},{"Rune":"rune_02_cen","Hex":"#3366ff99","Correct":-1,"Choice":32,"RT":840.5649999913294,"Accuracy":0,"Outcome":"-10","Keys":[2340.895000001183],"TotalKeys":1,"Block":1,"Trial":16,"Robot":4,"Valence":"Lose","Action":"No-Go","Sham":0,"Color":"blue","trial_type":"pit-trial","trial_index":29,"time_elapsed":334320,"internal_node_id":"0.0-18.0","task_version":"test-retest"},{"Rune":"rune_02_haglaz","Hex":"#ffcc3399","Correct":-1,"Choice":32,"RT":432.650000002468,"Accuracy":0,"Outcome":"+1","Keys":[1933.4300000045914],"TotalKeys":1,"Block":1,"Trial":17,"Robot":2,"Valence":"Win","Action":"No-Go","Sham":0,"Color":"yellow","trial_type":"pit-trial","trial_index":30,"time_elapsed":337256,"internal_node_id":"0.0-19.0","task_version":"test-retest"},{"Rune":"rune_02_cen","Hex":"#3366ff99","Correct":-1,"Choice":32,"RT":506.0249999805819,"Accuracy":0,"Outcome":"-10","Keys":[2006.0849999717902],"TotalKeys":1,"Block":1,"Trial":18,"Robot":4,"Valence":"Lose","Action":"No-Go","Sham":0,"Color":"blue","trial_type":"pit-trial","trial_index":31,"time_elapsed":340265,"internal_node_id":"0.0-20.0","task_version":"test-retest"},{"Rune":"rune_02_os","Hex":"#3366ff99","Correct":32,"Choice":32,"RT":719.3350000015926,"Accuracy":1,"Outcome":"-1","Keys":[2220.1899999927264],"TotalKeys":1,"Block":1,"Trial":19,"Robot":3,"Valence":"Lose","Action":"Go","Sham":0,"Color":"blue","trial_type":"pit-trial","trial_index":32,"time_elapsed":343488,"internal_node_id":"0.0-21.0","task_version":"test-retest"},{"Rune":"rune_02_raido","Hex":"#ffcc3399","Correct":32,"Choice":32,"RT":513.3199999982025,"Accuracy":1,"Outcome":"+10","Keys":[2013.3550000027753],"TotalKeys":1,"Block":1,"Trial":20,"Robot":1,"Valence":"Win","Action":"Go","Sham":0,"Color":"yellow","trial_type":"pit-trial","trial_index":33,"time_elapsed":346504,"internal_node_id":"0.0-22.0","task_version":"test-retest"},{"Rune":"rune_02_cen","Hex":"#3366ff99","Correct":-1,"Choice":32,"RT":568.5400000074878,"Accuracy":0,"Outcome":"-10","Keys":[2068.614999996498],"TotalKeys":1,"Block":1,"Trial":21,"Robot":4,"Valence":"Lose","Action":"No-Go","Sham":0,"Color":"blue","trial_type":"pit-trial","trial_index":34,"time_elapsed":349575,"internal_node_id":"0.0-23.0","task_version":"test-retest"},{"Rune":"rune_02_raido","Hex":"#ffcc3399","Correct":32,"Choice":32,"RT":537.0450000045821,"Accuracy":1,"Outcome":"+10","Keys":[2038.0149999982677],"TotalKeys":1,"Block":1,"Trial":22,"Robot":1,"Valence":"Win","Action":"Go","Sham":0,"Color":"yellow","trial_type":"pit-trial","trial_index":35,"time_elapsed":352616,"internal_node_id":"0.0-24.0","task_version":"test-retest"},{"Rune":"rune_02_haglaz","Hex":"#ffcc3399","Correct":-1,"Choice":32,"RT":567.1049999946263,"Accuracy":0,"Outcome":"+10","Keys":[2069.115000020247],"TotalKeys":1,"Block":1,"Trial":23,"Robot":2,"Valence":"Win","Action":"No-Go","Sham":1,"Color":"yellow","trial_type":"pit-trial","trial_index":36,"time_elapsed":355688,"internal_node_id":"0.0-25.0","task_version":"test-retest"},{"Rune":"rune_02_os","Hex":"#3366ff99","Correct":32,"Choice":32,"RT":487.27000001235865,"Accuracy":1,"Outcome":"-10","Keys":[1988.9599999878556],"TotalKeys":1,"Block":1,"Trial":24,"Robot":3,"Valence":"Lose","Action":"Go","Sham":1,"Color":"blue","trial_type":"pit-trial","trial_index":37,"time_elapsed":358681,"internal_node_id":"0.0-26.0","task_version":"test-retest"},{"Rune":"rune_02_raido","Hex":"#ffcc3399","Correct":32,"Choice":32,"RT":552.2100000234786,"Accuracy":1,"Outcome":"+1","Keys":[2052.3399999947287],"TotalKeys":1,"Block":1,"Trial":25,"Robot":1,"Valence":"Win","Action":"Go","Sham":1,"Color":"yellow","trial_type":"pit-trial","trial_index":38,"time_elapsed":361737,"internal_node_id":"0.0-27.0","task_version":"test-retest"},{"Rune":"rune_02_cen","Hex":"#3366ff99","Correct":-1,"Choice":32,"RT":592.6550000149291,"Accuracy":0,"Outcome":"-1","Keys":[2092.9049999976996],"TotalKeys":1,"Block":1,"Trial":26,"Robot":4,"Valence":"Lose","Action":"No-Go","Sham":1,"Color":"blue","trial_type":"pit-trial","trial_index":39,"time_elapsed":364833,"internal_node_id":"0.0-28.0","task_version":"test-retest"},{"Rune":"rune_02_os","Hex":"#3366ff99","Correct":32,"Choice":32,"RT":854.7850000031758,"Accuracy":1,"Outcome":"-1","Keys":[2356.1550000158604],"TotalKeys":1,"Block":1,"Trial":27,"Robot":3,"Valence":"Lose","Action":"Go","Sham":0,"Color":"blue","trial_type":"pit-trial","trial_index":40,"time_elapsed":368192,"internal_node_id":"0.0-29.0","task_version":"test-retest"},{"Rune":"rune_02_haglaz","Hex":"#ffcc3399","Correct":-1,"Choice":32,"RT":648.5500000126194,"Accuracy":0,"Outcome":"+1","Keys":[2149.2850000213366],"TotalKeys":1,"Block":1,"Trial":28,"Robot":2,"Valence":"Win","Action":"No-Go","Sham":0,"Color":"yellow","trial_type":"pit-trial","trial_index":41,"time_elapsed":371344,"internal_node_id":"0.0-30.0","task_version":"test-retest"},{"Rune":"rune_02_raido","Hex":"#ffcc3399","Correct":32,"Choice":32,"RT":704.859999998007,"Accuracy":1,"Outcome":"+10","Keys":[2205.3049999813084],"TotalKeys":1,"Block":1,"Trial":29,"Robot":1,"Valence":"Win","Action":"Go","Sham":0,"Color":"yellow","trial_type":"pit-trial","trial_index":42,"time_elapsed":374552,"internal_node_id":"0.0-31.0","task_version":"test-retest"},{"Rune":"rune_02_os","Hex":"#3366ff99","Correct":32,"Choice":32,"RT":664.4599999999627,"Accuracy":1,"Outcome":"-1","Keys":[2164.8849999764934],"TotalKeys":1,"Block":1,"Trial":30,"Robot":3,"Valence":"Lose","Action":"Go","Sham":0,"Color":"blue","trial_type":"pit-trial","trial_index":43,"time_elapsed":377721,"internal_node_id":"0.0-32.0","task_version":"test-retest"},{"Rune":"rune_02_haglaz","Hex":"#ffcc3399","Correct":-1,"Choice":32,"RT":614.4550000026356,"Accuracy":0,"Outcome":"+1","Keys":[2116.294999985257],"TotalKeys":1,"Block":1,"Trial":31,"Robot":2,"Valence":"Win","Action":"No-Go","Sham":0,"Color":"yellow","trial_type":"pit-trial","trial_index":44,"time_elapsed":380840,"internal_node_id":"0.0-33.0","task_version":"test-retest"},{"Rune":"rune_02_cen","Hex":"#3366ff99","Correct":-1,"Choice":32,"RT":752.6049999869429,"Accuracy":0,"Outcome":"-10","Keys":[2253.3049999910872],"TotalKeys":1,"Block":1,"Trial":32,"Robot":4,"Valence":"Lose","Action":"No-Go","Sham":0,"Color":"blue","trial_type":"pit-trial","trial_index":45,"time_elapsed":384096,"internal_node_id":"0.0-34.0","task_version":"test-retest"},{"Rune":"rune_02_raido","Hex":"#ffcc3399","Correct":32,"Choice":32,"RT":671.4599999831989,"Accuracy":1,"Outcome":"+10","Keys":[2173.3299999905284],"TotalKeys":1,"Block":1,"Trial":33,"Robot":1,"Valence":"Win","Action":"Go","Sham":0,"Color":"yellow","trial_type":"pit-trial","trial_index":46,"time_elapsed":387272,"internal_node_id":"0.0-35.0","task_version":"test-retest"},{"Rune":"rune_02_cen","Hex":"#3366ff99","Correct":-1,"Choice":32,"RT":592.6850000105333,"Accuracy":0,"Outcome":"-10","Keys":[2093.399999983376],"TotalKeys":1,"Block":1,"Trial":34,"Robot":4,"Valence":"Lose","Action":"No-Go","Sham":0,"Color":"blue","trial_type":"pit-trial","trial_index":47,"time_elapsed":390368,"internal_node_id":"0.0-36.0","task_version":"test-retest"},{"Rune":"rune_02_os","Hex":"#3366ff99","Correct":32,"Choice":32,"RT":583.4049999830313,"Accuracy":1,"Outcome":"-1","Keys":[2085.3599999973085],"TotalKeys":1,"Block":1,"Trial":35,"Robot":3,"Valence":"Lose","Action":"Go","Sham":0,"Color":"blue","trial_type":"pit-trial","trial_index":48,"time_elapsed":393456,"internal_node_id":"0.0-37.0","task_version":"test-retest"},{"Rune":"rune_02_haglaz","Hex":"#ffcc3399","Correct":-1,"Choice":32,"RT":616.745000006631,"Accuracy":0,"Outcome":"+1","Keys":[2117.5249999796506],"TotalKeys":1,"Block":1,"Trial":36,"Robot":2,"Valence":"Win","Action":"No-Go","Sham":0,"Color":"yellow","trial_type":"pit-trial","trial_index":49,"time_elapsed":396576,"internal_node_id":"0.0-38.0","task_version":"test-retest"},{"Rune":"rune_02_cen","Hex":"#3366ff99","Correct":-1,"Choice":32,"RT":503.1449999951292,"Accuracy":0,"Outcome":"-10","Keys":[2004.5549999922514],"TotalKeys":1,"Block":1,"Trial":37,"Robot":4,"Valence":"Lose","Action":"No-Go","Sham":0,"Color":"blue","trial_type":"pit-trial","trial_index":50,"time_elapsed":399584,"internal_node_id":"0.0-39.0","task_version":"test-retest"},{"Rune":"rune_02_os","Hex":"#3366ff99","Correct":32,"Choice":32,"RT":671.9250000023749,"Accuracy":1,"Outcome":"-1","Keys":[2173.0099999986123],"TotalKeys":1,"Block":1,"Trial":38,"Robot":3,"Valence":"Lose","Action":"Go","Sham":0,"Color":"blue","trial_type":"pit-trial","trial_index":51,"time_elapsed":402760,"internal_node_id":"0.0-40.0","task_version":"test-retest"},{"Rune":"rune_02_raido","Hex":"#ffcc3399","Correct":32,"Choice":32,"RT":719.6399999957066,"Accuracy":1,"Outcome":"+10","Keys":[2220.5550000071526],"TotalKeys":1,"Block":1,"Trial":39,"Robot":1,"Valence":"Win","Action":"Go","Sham":0,"Color":"yellow","trial_type":"pit-trial","trial_index":52,"time_elapsed":405984,"internal_node_id":"0.0-41.0","task_version":"test-retest"},{"Rune":"rune_02_haglaz","Hex":"#ffcc3399","Correct":-1,"Choice":-1,"RT":-1,"Accuracy":1,"Outcome":"+10","Keys":[],"TotalKeys":0,"Block":1,"Trial":40,"Robot":2,"Valence":"Win","Action":"No-Go","Sham":0,"Color":"yellow","trial_type":"pit-trial","trial_index":53,"time_elapsed":409987,"internal_node_id":"0.0-42.0","task_version":"test-retest"},{"Rune":"rune_02_cen","Hex":"#3366ff99","Correct":-1,"Choice":-1,"RT":-1,"Accuracy":1,"Outcome":"-1","Keys":[],"TotalKeys":0,"Block":1,"Trial":41,"Robot":4,"Valence":"Lose","Action":"No-Go","Sham":0,"Color":"blue","trial_type":"pit-trial","trial_index":54,"time_elapsed":413991,"internal_node_id":"0.0-43.0","task_version":"test-retest"},{"Rune":"rune_02_os","Hex":"#3366ff99","Correct":32,"Choice":32,"RT":746.1250000051223,"Accuracy":1,"Outcome":"-1","Keys":[2246.3950000237674],"TotalKeys":1,"Block":1,"Trial":42,"Robot":3,"Valence":"Lose","Action":"Go","Sham":0,"Color":"blue","trial_type":"pit-trial","trial_index":55,"time_elapsed":417240,"internal_node_id":"0.0-44.0","task_version":"test-retest"},{"Rune":"rune_02_raido","Hex":"#ffcc3399","Correct":32,"Choice":32,"RT":511.9600000034552,"Accuracy":1,"Outcome":"+10","Keys":[2012.9950000264216],"TotalKeys":1,"Block":1,"Trial":43,"Robot":1,"Valence":"Win","Action":"Go","Sham":0,"Color":"yellow","trial_type":"pit-trial","trial_index":56,"time_elapsed":420257,"internal_node_id":"0.0-45.0","task_version":"test-retest"},{"Rune":"rune_02_haglaz","Hex":"#ffcc3399","Correct":-1,"Choice":32,"RT":623.1249999837019,"Accuracy":0,"Outcome":"+1","Keys":[2123.5149999847636],"TotalKeys":1,"Block":1,"Trial":44,"Robot":2,"Valence":"Win","Action":"No-Go","Sham":0,"Color":"yellow","trial_type":"pit-trial","trial_index":57,"time_elapsed":423384,"internal_node_id":"0.0-46.0","task_version":"test-retest"},{"Rune":"rune_02_os","Hex":"#3366ff99","Correct":32,"Choice":32,"RT":735.9149999974761,"Accuracy":1,"Outcome":"-1","Keys":[2236.3550000009127],"TotalKeys":1,"Block":1,"Trial":45,"Robot":3,"Valence":"Lose","Action":"Go","Sham":0,"Color":"blue","trial_type":"pit-trial","trial_index":58,"time_elapsed":426624,"internal_node_id":"0.0-47.0","task_version":"test-retest"},{"Rune":"rune_02_raido","Hex":"#ffcc3399","Correct":32,"Choice":32,"RT":592.9550000000745,"Accuracy":1,"Outcome":"+10","Keys":[2093.2599999941885],"TotalKeys":1,"Block":1,"Trial":46,"Robot":1,"Valence":"Win","Action":"Go","Sham":0,"Color":"yellow","trial_type":"pit-trial","trial_index":59,"time_elapsed":429721,"internal_node_id":"0.0-48.0","task_version":"test-retest"},{"Rune":"rune_02_haglaz","Hex":"#ffcc3399","Correct":-1,"Choice":-1,"RT":-1,"Accuracy":1,"Outcome":"+10","Keys":[],"TotalKeys":0,"Block":1,"Trial":47,"Robot":2,"Valence":"Win","Action":"No-Go","Sham":0,"Color":"yellow","trial_type":"pit-trial","trial_index":60,"time_elapsed":433725,"internal_node_id":"0.0-49.0","task_version":"test-retest"},{"Rune":"rune_02_cen","Hex":"#3366ff99","Correct":-1,"Choice":-1,"RT":-1,"Accuracy":1,"Outcome":"-1","Keys":[],"TotalKeys":0,"Block":1,"Trial":48,"Robot":4,"Valence":"Lose","Action":"No-Go","Sham":0,"Color":"blue","trial_type":"pit-trial","trial_index":61,"time_elapsed":437730,"internal_node_id":"0.0-50.0","task_version":"test-retest"},{"Rune":"rune_02_cen","Hex":"#3366ff99","Correct":-1,"Choice":-1,"RT":-1,"Accuracy":1,"Outcome":"-1","Keys":[],"TotalKeys":0,"Block":1,"Trial":49,"Robot":4,"Valence":"Lose","Action":"No-Go","Sham":0,"Color":"blue","trial_type":"pit-trial","trial_index":62,"time_elapsed":441734,"internal_node_id":"0.0-51.0","task_version":"test-retest"},{"Rune":"rune_02_os","Hex":"#3366ff99","Correct":32,"Choice":32,"RT":658.095000020694,"Accuracy":1,"Outcome":"-1","Keys":[2158.705000008922],"TotalKeys":1,"Block":1,"Trial":50,"Robot":3,"Valence":"Lose","Action":"Go","Sham":0,"Color":"blue","trial_type":"pit-trial","trial_index":63,"time_elapsed":444896,"internal_node_id":"0.0-52.0","task_version":"test-retest"},{"Rune":"rune_02_haglaz","Hex":"#ffcc3399","Correct":-1,"Choice":-1,"RT":-1,"Accuracy":1,"Outcome":"+10","Keys":[],"TotalKeys":0,"Block":1,"Trial":51,"Robot":2,"Valence":"Win","Action":"No-Go","Sham":0,"Color":"yellow","trial_type":"pit-trial","trial_index":64,"time_elapsed":448901,"internal_node_id":"0.0-53.0","task_version":"test-retest"},{"Rune":"rune_02_raido","Hex":"#ffcc3399","Correct":32,"Choice":32,"RT":923.4850000066217,"Accuracy":1,"Outcome":"+10","Keys":[2424.204999988433],"TotalKeys":1,"Block":1,"Trial":52,"Robot":1,"Valence":"Win","Action":"Go","Sham":0,"Color":"yellow","trial_type":"pit-trial","trial_index":65,"time_elapsed":452328,"internal_node_id":"0.0-54.0","task_version":"test-retest"},{"Rune":"rune_02_cen","Hex":"#3366ff99","Correct":-1,"Choice":32,"RT":1200.3850000037346,"Accuracy":0,"Outcome":"-10","Keys":[2700.604999990901],"TotalKeys":1,"Block":1,"Trial":53,"Robot":4,"Valence":"Lose","Action":"No-Go","Sham":0,"Color":"blue","trial_type":"pit-trial","trial_index":66,"time_elapsed":456032,"internal_node_id":"0.0-55.0","task_version":"test-retest"},{"Rune":"rune_02_haglaz","Hex":"#ffcc3399","Correct":-1,"Choice":-1,"RT":-1,"Accuracy":1,"Outcome":"+10","Keys":[],"TotalKeys":0,"Block":1,"Trial":54,"Robot":2,"Valence":"Win","Action":"No-Go","Sham":0,"Color":"yellow","trial_type":"pit-trial","trial_index":67,"time_elapsed":460036,"internal_node_id":"0.0-56.0","task_version":"test-retest"},{"Rune":"rune_02_raido","Hex":"#ffcc3399","Correct":32,"Choice":32,"RT":652.4149999895599,"Accuracy":1,"Outcome":"+10","Keys":[2152.6799999992363],"TotalKeys":1,"Block":1,"Trial":55,"Robot":1,"Valence":"Win","Action":"Go","Sham":0,"Color":"yellow","trial_type":"pit-trial","trial_index":68,"time_elapsed":463192,"internal_node_id":"0.0-57.0","task_version":"test-retest"},{"Rune":"rune_02_os","Hex":"#3366ff99","Correct":32,"Choice":-1,"RT":-1,"Accuracy":0,"Outcome":"-10","Keys":[],"TotalKeys":0,"Block":1,"Trial":56,"Robot":3,"Valence":"Lose","Action":"Go","Sham":0,"Color":"blue","trial_type":"pit-trial","trial_index":69,"time_elapsed":467195,"internal_node_id":"0.0-58.0","task_version":"test-retest"},{"Rune":"rune_02_raido","Hex":"#ffcc3399","Correct":32,"Choice":-1,"RT":-1,"Accuracy":0,"Outcome":"+10","Keys":[],"TotalKeys":0,"Block":1,"Trial":57,"Robot":1,"Valence":"Win","Action":"Go","Sham":1,"Color":"yellow","trial_type":"pit-trial","trial_index":70,"time_elapsed":471199,"internal_node_id":"0.0-59.0","task_version":"test-retest"},{"Rune":"rune_02_os","Hex":"#3366ff99","Correct":32,"Choice":32,"RT":1305.4399999964517,"Accuracy":1,"Outcome":"-10","Keys":[2806.3249999831896],"TotalKeys":1,"Block":1,"Trial":58,"Robot":3,"Valence":"Lose","Action":"Go","Sham":1,"Color":"blue","trial_type":"pit-trial","trial_index":71,"time_elapsed":475008,"internal_node_id":"0.0-60.0","task_version":"test-retest"},{"Rune":"rune_02_cen","Hex":"#3366ff99","Correct":-1,"Choice":-1,"RT":-1,"Accuracy":1,"Outcome":"-10","Keys":[],"TotalKeys":0,"Block":1,"Trial":59,"Robot":4,"Valence":"Lose","Action":"No-Go","Sham":1,"Color":"blue","trial_type":"pit-trial","trial_index":72,"time_elapsed":479012,"internal_node_id":"0.0-61.0","task_version":"test-retest"},{"Rune":"rune_02_haglaz","Hex":"#ffcc3399","Correct":-1,"Choice":-1,"RT":-1,"Accuracy":1,"Outcome":"+1","Keys":[],"TotalKeys":0,"Block":1,"Trial":60,"Robot":2,"Valence":"Win","Action":"No-Go","Sham":1,"Color":"yellow","trial_type":"pit-trial","trial_index":73,"time_elapsed":483016,"internal_node_id":"0.0-62.0","task_version":"test-retest"},{"value":false,"trial_type":"call-function","trial_index":74,"time_elapsed":483018,"internal_node_id":"0.0-63.0","task_version":"test-retest"},{"view_history":"[{\"page_index\":0,\"viewing_time\":13661.870000010822},{\"page_index\":1,\"viewing_time\":3685.7449999952223}]","rt":17348.120000009658,"trial_type":"pit-instructions","trial_index":75,"time_elapsed":500367,"internal_node_id":"0.0-64.0","task_version":"test-retest"},{"Rune":"rune_02_raido","Hex":"#ffcc3399","Correct":32,"Choice":32,"RT":695.8649999869522,"Accuracy":1,"Outcome":"+1","Keys":[2196.0549999785144],"TotalKeys":1,"Block":1,"Trial":61,"Robot":1,"Valence":"Win","Action":"Go","Sham":1,"Color":"yellow","trial_type":"pit-trial","trial_index":76,"time_elapsed":503568,"internal_node_id":"0.0-65.0","task_version":"test-retest"},{"Rune":"rune_02_os","Hex":"#3366ff99","Correct":32,"Choice":-1,"RT":-1,"Accuracy":0,"Outcome":"-1","Keys":[],"TotalKeys":0,"Block":1,"Trial":62,"Robot":3,"Valence":"Lose","Action":"Go","Sham":1,"Color":"blue","trial_type":"pit-trial","trial_index":77,"time_elapsed":507572,"internal_node_id":"0.0-66.0","task_version":"test-retest"},{"Rune":"rune_02_cen","Hex":"#3366ff99","Correct":-1,"Choice":32,"RT":971.1799999931827,"Accuracy":0,"Outcome":"-10","Keys":[2472.249999991618],"TotalKeys":1,"Block":1,"Trial":63,"Robot":4,"Valence":"Lose","Action":"No-Go","Sham":0,"Color":"blue","trial_type":"pit-trial","trial_index":78,"time_elapsed":511047,"internal_node_id":"0.0-67.0","task_version":"test-retest"},{"Rune":"rune_02_haglaz","Hex":"#ffcc3399","Correct":-1,"Choice":-1,"RT":-1,"Accuracy":1,"Outcome":"+10","Keys":[],"TotalKeys":0,"Block":1,"Trial":64,"Robot":2,"Valence":"Win","Action":"No-Go","Sham":0,"Color":"yellow","trial_type":"pit-trial","trial_index":79,"time_elapsed":515053,"internal_node_id":"0.0-68.0","task_version":"test-retest"},{"Rune":"rune_02_haglaz","Hex":"#ffcc3399","Correct":-1,"Choice":-1,"RT":-1,"Accuracy":1,"Outcome":"+10","Keys":[],"TotalKeys":0,"Block":1,"Trial":65,"Robot":2,"Valence":"Win","Action":"No-Go","Sham":0,"Color":"yellow","trial_type":"pit-trial","trial_index":80,"time_elapsed":519058,"internal_node_id":"0.0-69.0","task_version":"test-retest"},{"Rune":"rune_02_raido","Hex":"#ffcc3399","Correct":32,"Choice":32,"RT":606.195000000298,"Accuracy":1,"Outcome":"+10","Keys":[2107.6499999908265],"TotalKeys":1,"Block":1,"Trial":66,"Robot":1,"Valence":"Win","Action":"Go","Sham":0,"Color":"yellow","trial_type":"pit-trial","trial_index":81,"time_elapsed":522169,"internal_node_id":"0.0-70.0","task_version":"test-retest"},{"Rune":"rune_02_cen","Hex":"#3366ff99","Correct":-1,"Choice":-1,"RT":-1,"Accuracy":1,"Outcome":"-10","Keys":[],"TotalKeys":0,"Block":1,"Trial":67,"Robot":4,"Valence":"Lose","Action":"No-Go","Sham":1,"Color":"blue","trial_type":"pit-trial","trial_index":82,"time_elapsed":526172,"internal_node_id":"0.0-71.0","task_version":"test-retest"},{"Rune":"rune_02_os","Hex":"#3366ff99","Correct":32,"Choice":-1,"RT":-1,"Accuracy":0,"Outcome":"-10","Keys":[],"TotalKeys":0,"Block":1,"Trial":68,"Robot":3,"Valence":"Lose","Action":"Go","Sham":0,"Color":"blue","trial_type":"pit-trial","trial_index":83,"time_elapsed":530176,"internal_node_id":"0.0-72.0","task_version":"test-retest"},{"Rune":"rune_02_os","Hex":"#3366ff99","Correct":32,"Choice":32,"RT":1487.5300000130665,"Accuracy":1,"Outcome":"-1","Keys":[2988.9149999944493],"TotalKeys":1,"Block":1,"Trial":69,"Robot":3,"Valence":"Lose","Action":"Go","Sham":0,"Color":"blue","trial_type":"pit-trial","trial_index":84,"time_elapsed":534168,"internal_node_id":"0.0-73.0","task_version":"test-retest"},{"Rune":"rune_02_raido","Hex":"#ffcc3399","Correct":32,"Choice":32,"RT":1175.4200000141282,"Accuracy":1,"Outcome":"+10","Keys":[2677.0400000095833],"TotalKeys":1,"Block":1,"Trial":70,"Robot":1,"Valence":"Win","Action":"Go","Sham":0,"Color":"yellow","trial_type":"pit-trial","trial_index":85,"time_elapsed":537849,"internal_node_id":"0.0-74.0","task_version":"test-retest"},{"Rune":"rune_02_haglaz","Hex":"#ffcc3399","Correct":-1,"Choice":-1,"RT":-1,"Accuracy":1,"Outcome":"+10","Keys":[],"TotalKeys":0,"Block":1,"Trial":71,"Robot":2,"Valence":"Win","Action":"No-Go","Sham":0,"Color":"yellow","trial_type":"pit-trial","trial_index":86,"time_elapsed":541853,"internal_node_id":"0.0-75.0","task_version":"test-retest"},{"Rune":"rune_02_cen","Hex":"#3366ff99","Correct":-1,"Choice":-1,"RT":-1,"Accuracy":1,"Outcome":"-1","Keys":[],"TotalKeys":0,"Block":1,"Trial":72,"Robot":4,"Valence":"Lose","Action":"No-Go","Sham":0,"Color":"blue","trial_type":"pit-trial","trial_index":87,"time_elapsed":545857,"internal_node_id":"0.0-76.0","task_version":"test-retest"},{"Rune":"rune_02_raido","Hex":"#ffcc3399","Correct":32,"Choice":32,"RT":758.3699999959208,"Accuracy":1,"Outcome":"+10","Keys":[2259.664999990491],"TotalKeys":1,"Block":1,"Trial":73,"Robot":1,"Valence":"Win","Action":"Go","Sham":0,"Color":"yellow","trial_type":"pit-trial","trial_index":88,"time_elapsed":549120,"internal_node_id":"0.0-77.0","task_version":"test-retest"},{"Rune":"rune_02_os","Hex":"#3366ff99","Correct":32,"Choice":32,"RT":991.6749999974854,"Accuracy":1,"Outcome":"-1","Keys":[2492.6150000246707],"TotalKeys":1,"Block":1,"Trial":74,"Robot":3,"Valence":"Lose","Action":"Go","Sham":0,"Color":"blue","trial_type":"pit-trial","trial_index":89,"time_elapsed":552616,"internal_node_id":"0.0-78.0","task_version":"test-retest"},{"Rune":"rune_02_cen","Hex":"#3366ff99","Correct":-1,"Choice":32,"RT":1191.740000009304,"Accuracy":0,"Outcome":"-10","Keys":[2692.8199999965727],"TotalKeys":1,"Block":1,"Trial":75,"Robot":4,"Valence":"Lose","Action":"No-Go","Sham":0,"Color":"blue","trial_type":"pit-trial","trial_index":90,"time_elapsed":556312,"internal_node_id":"0.0-79.0","task_version":"test-retest"},{"Rune":"rune_02_haglaz","Hex":"#ffcc3399","Correct":-1,"Choice":32,"RT":1262.8449999901932,"Accuracy":0,"Outcome":"+1","Keys":[2764.775000017835],"TotalKeys":1,"Block":1,"Trial":76,"Robot":2,"Valence":"Win","Action":"No-Go","Sham":0,"Color":"yellow","trial_type":"pit-trial","trial_index":91,"time_elapsed":560079,"internal_node_id":"0.0-80.0","task_version":"test-retest"},{"Rune":"rune_02_cen","Hex":"#3366ff99","Correct":-1,"Choice":-1,"RT":-1,"Accuracy":1,"Outcome":"-1","Keys":[],"TotalKeys":0,"Block":1,"Trial":77,"Robot":4,"Valence":"Lose","Action":"No-Go","Sham":0,"Color":"blue","trial_type":"pit-trial","trial_index":92,"time_elapsed":564082,"internal_node_id":"0.0-81.0","task_version":"test-retest"},{"Rune":"rune_02_haglaz","Hex":"#ffcc3399","Correct":-1,"Choice":-1,"RT":-1,"Accuracy":1,"Outcome":"+1","Keys":[3858.5650000022724],"TotalKeys":1,"Block":1,"Trial":78,"Robot":2,"Valence":"Win","Action":"No-Go","Sham":1,"Color":"yellow","trial_type":"pit-trial","trial_index":93,"time_elapsed":568088,"internal_node_id":"0.0-82.0","task_version":"test-retest"},{"Rune":"rune_02_raido","Hex":"#ffcc3399","Correct":32,"Choice":32,"RT":744.7399999946356,"Accuracy":1,"Outcome":"+10","Keys":[2245.1449999934994],"TotalKeys":1,"Block":1,"Trial":79,"Robot":1,"Valence":"Win","Action":"Go","Sham":0,"Color":"yellow","trial_type":"pit-trial","trial_index":94,"time_elapsed":571337,"internal_node_id":"0.0-83.0","task_version":"test-retest"},{"Rune":"rune_02_os","Hex":"#3366ff99","Correct":32,"Choice":32,"RT":918.4299999906216,"Accuracy":1,"Outcome":"-1","Keys":[2420.0549999950454],"TotalKeys":1,"Block":1,"Trial":80,"Robot":3,"Valence":"Lose","Action":"Go","Sham":0,"Color":"blue","trial_type":"pit-trial","trial_index":95,"time_elapsed":574760,"internal_node_id":"0.0-84.0","task_version":"test-retest"},{"Rune":"rune_02_haglaz","Hex":"#ffcc3399","Correct":-1,"Choice":32,"RT":1230.1300000108313,"Accuracy":0,"Outcome":"+1","Keys":[2731.2549999915063],"TotalKeys":1,"Block":1,"Trial":81,"Robot":2,"Valence":"Win","Action":"No-Go","Sham":0,"Color":"yellow","trial_type":"pit-trial","trial_index":96,"time_elapsed":578496,"internal_node_id":"0.0-85.0","task_version":"test-retest"},{"Rune":"rune_02_cen","Hex":"#3366ff99","Correct":-1,"Choice":-1,"RT":-1,"Accuracy":1,"Outcome":"-1","Keys":[],"TotalKeys":0,"Block":1,"Trial":82,"Robot":4,"Valence":"Lose","Action":"No-Go","Sham":0,"Color":"blue","trial_type":"pit-trial","trial_index":97,"time_elapsed":582499,"internal_node_id":"0.0-86.0","task_version":"test-retest"},{"Rune":"rune_02_os","Hex":"#3366ff99","Correct":32,"Choice":32,"RT":1428.8050000031944,"Accuracy":1,"Outcome":"-10","Keys":[2929.629999998724],"TotalKeys":1,"Block":1,"Trial":83,"Robot":3,"Valence":"Lose","Action":"Go","Sham":1,"Color":"blue","trial_type":"pit-trial","trial_index":98,"time_elapsed":586432,"internal_node_id":"0.0-87.0","task_version":"test-retest"},{"Rune":"rune_02_raido","Hex":"#ffcc3399","Correct":32,"Choice":32,"RT":726.9849999865983,"Accuracy":1,"Outcome":"+1","Keys":[2228.484999999637],"TotalKeys":1,"Block":1,"Trial":84,"Robot":1,"Valence":"Win","Action":"Go","Sham":1,"Color":"yellow","trial_type":"pit-trial","trial_index":99,"time_elapsed":589664,"internal_node_id":"0.0-88.0","task_version":"test-retest"},{"Rune":"rune_02_os","Hex":"#3366ff99","Correct":32,"Choice":-1,"RT":-1,"Accuracy":0,"Outcome":"-10","Keys":[],"TotalKeys":0,"Block":1,"Trial":85,"Robot":3,"Valence":"Lose","Action":"Go","Sham":0,"Color":"blue","trial_type":"pit-trial","trial_index":100,"time_elapsed":593668,"internal_node_id":"0.0-89.0","task_version":"test-retest"},{"Rune":"rune_02_cen","Hex":"#3366ff99","Correct":-1,"Choice":32,"RT":828.559999994468,"Accuracy":0,"Outcome":"-10","Keys":[2328.834999992978],"TotalKeys":1,"Block":1,"Trial":86,"Robot":4,"Valence":"Lose","Action":"No-Go","Sham":0,"Color":"blue","trial_type":"pit-trial","trial_index":101,"time_elapsed":597000,"internal_node_id":"0.0-90.0","task_version":"test-retest"},{"Rune":"rune_02_haglaz","Hex":"#ffcc3399","Correct":-1,"Choice":32,"RT":1327.595000009751,"Accuracy":0,"Outcome":"+1","Keys":[2828.5050000122283],"TotalKeys":1,"Block":1,"Trial":87,"Robot":2,"Valence":"Win","Action":"No-Go","Sham":0,"Color":"yellow","trial_type":"pit-trial","trial_index":102,"time_elapsed":600831,"internal_node_id":"0.0-91.0","task_version":"test-retest"},{"Rune":"rune_02_raido","Hex":"#ffcc3399","Correct":32,"Choice":32,"RT":623.554999998305,"Accuracy":1,"Outcome":"+10","Keys":[2125.354999996489],"TotalKeys":1,"Block":1,"Trial":88,"Robot":1,"Valence":"Win","Action":"Go","Sham":0,"Color":"yellow","trial_type":"pit-trial","trial_index":103,"time_elapsed":603960,"internal_node_id":"0.0-92.0","task_version":"test-retest"},{"Rune":"rune_02_os","Hex":"#3366ff99","Correct":32,"Choice":-1,"RT":-1,"Accuracy":0,"Outcome":"-10","Keys":[3133.1049999862444],"TotalKeys":1,"Block":1,"Trial":89,"Robot":3,"Valence":"Lose","Action":"Go","Sham":0,"Color":"blue","trial_type":"pit-trial","trial_index":104,"time_elapsed":607964,"internal_node_id":"0.0-93.0","task_version":"test-retest"},{"Rune":"rune_02_haglaz","Hex":"#ffcc3399","Correct":-1,"Choice":-1,"RT":-1,"Accuracy":1,"Outcome":"+10","Keys":[],"TotalKeys":0,"Block":1,"Trial":90,"Robot":2,"Valence":"Win","Action":"No-Go","Sham":0,"Color":"yellow","trial_type":"pit-trial","trial_index":105,"time_elapsed":611968,"internal_node_id":"0.0-94.0","task_version":"test-retest"},{"Rune":"rune_02_raido","Hex":"#ffcc3399","Correct":32,"Choice":32,"RT":888.0349999817554,"Accuracy":1,"Outcome":"+10","Keys":[2388.3349999960046],"TotalKeys":1,"Block":1,"Trial":91,"Robot":1,"Valence":"Win","Action":"Go","Sham":0,"Color":"yellow","trial_type":"pit-trial","trial_index":106,"time_elapsed":615360,"internal_node_id":"0.0-95.0","task_version":"test-retest"},{"Rune":"rune_02_cen","Hex":"#3366ff99","Correct":-1,"Choice":-1,"RT":-1,"Accuracy":1,"Outcome":"-10","Keys":[],"TotalKeys":0,"Block":1,"Trial":92,"Robot":4,"Valence":"Lose","Action":"No-Go","Sham":1,"Color":"blue","trial_type":"pit-trial","trial_index":107,"time_elapsed":619365,"internal_node_id":"0.0-96.0","task_version":"test-retest"},{"Rune":"rune_02_os","Hex":"#3366ff99","Correct":32,"Choice":-1,"RT":-1,"Accuracy":0,"Outcome":"-10","Keys":[],"TotalKeys":0,"Block":1,"Trial":93,"Robot":3,"Valence":"Lose","Action":"Go","Sham":0,"Color":"blue","trial_type":"pit-trial","trial_index":108,"time_elapsed":623368,"internal_node_id":"0.0-97.0","task_version":"test-retest"},{"Rune":"rune_02_raido","Hex":"#ffcc3399","Correct":32,"Choice":32,"RT":687.8349999897182,"Accuracy":1,"Outcome":"+10","Keys":[2187.9400000034366],"TotalKeys":1,"Block":1,"Trial":94,"Robot":1,"Valence":"Win","Action":"Go","Sham":0,"Color":"yellow","trial_type":"pit-trial","trial_index":109,"time_elapsed":626560,"internal_node_id":"0.0-98.0","task_version":"test-retest"},{"Rune":"rune_02_haglaz","Hex":"#ffcc3399","Correct":-1,"Choice":32,"RT":1008.1350000109524,"Accuracy":0,"Outcome":"+10","Keys":[2508.830000006128],"TotalKeys":1,"Block":1,"Trial":95,"Robot":2,"Valence":"Win","Action":"No-Go","Sham":1,"Color":"yellow","trial_type":"pit-trial","trial_index":110,"time_elapsed":630072,"internal_node_id":"0.0-99.0","task_version":"test-retest"},{"Rune":"rune_02_cen","Hex":"#3366ff99","Correct":-1,"Choice":-1,"RT":-1,"Accuracy":1,"Outcome":"-1","Keys":[],"TotalKeys":0,"Block":1,"Trial":96,"Robot":4,"Valence":"Lose","Action":"No-Go","Sham":0,"Color":"blue","trial_type":"pit-trial","trial_index":111,"time_elapsed":634076,"internal_node_id":"0.0-100.0","task_version":"test-retest"},{"Rune":"rune_02_os","Hex":"#3366ff99","Correct":32,"Choice":32,"RT":860.4950000008103,"Accuracy":1,"Outcome":"-1","Keys":[2360.9449999930803],"TotalKeys":1,"Block":1,"Trial":97,"Robot":3,"Valence":"Lose","Action":"Go","Sham":0,"Color":"blue","trial_type":"pit-trial","trial_index":112,"time_elapsed":637440,"internal_node_id":"0.0-101.0","task_version":"test-retest"},{"Rune":"rune_02_haglaz","Hex":"#ffcc3399","Correct":-1,"Choice":-1,"RT":-1,"Accuracy":1,"Outcome":"+10","Keys":[],"TotalKeys":0,"Block":1,"Trial":98,"Robot":2,"Valence":"Win","Action":"No-Go","Sham":0,"Color":"yellow","trial_type":"pit-trial","trial_index":113,"time_elapsed":641444,"internal_node_id":"0.0-102.0","task_version":"test-retest"},{"Rune":"rune_02_cen","Hex":"#3366ff99","Correct":-1,"Choice":32,"RT":1212.52000000095,"Accuracy":0,"Outcome":"-10","Keys":[2712.8350000130013],"TotalKeys":1,"Block":1,"Trial":99,"Robot":4,"Valence":"Lose","Action":"No-Go","Sham":0,"Color":"blue","trial_type":"pit-trial","trial_index":114,"time_elapsed":645160,"internal_node_id":"0.0-103.0","task_version":"test-retest"},{"Rune":"rune_02_raido","Hex":"#ffcc3399","Correct":32,"Choice":32,"RT":872.9650000168476,"Accuracy":1,"Outcome":"+10","Keys":[2373.4350000158884],"TotalKeys":1,"Block":1,"Trial":100,"Robot":1,"Valence":"Win","Action":"Go","Sham":0,"Color":"yellow","trial_type":"pit-trial","trial_index":115,"time_elapsed":648536,"internal_node_id":"0.0-104.0","task_version":"test-retest"},{"Rune":"rune_02_haglaz","Hex":"#ffcc3399","Correct":-1,"Choice":-1,"RT":-1,"Accuracy":1,"Outcome":"+10","Keys":[],"TotalKeys":0,"Block":1,"Trial":101,"Robot":2,"Valence":"Win","Action":"No-Go","Sham":0,"Color":"yellow","trial_type":"pit-trial","trial_index":116,"time_elapsed":652540,"internal_node_id":"0.0-105.0","task_version":"test-retest"},{"Rune":"rune_02_cen","Hex":"#3366ff99","Correct":-1,"Choice":32,"RT":1228.7999999825843,"Accuracy":0,"Outcome":"-10","Keys":[2728.964999987511],"TotalKeys":1,"Block":1,"Trial":102,"Robot":4,"Valence":"Lose","Action":"No-Go","Sham":0,"Color":"blue","trial_type":"pit-trial","trial_index":117,"time_elapsed":656272,"internal_node_id":"0.0-106.0","task_version":"test-retest"},{"Rune":"rune_02_os","Hex":"#3366ff99","Correct":32,"Choice":32,"RT":1104.4950000068638,"Accuracy":1,"Outcome":"-1","Keys":[2605.1750000042375],"TotalKeys":1,"Block":1,"Trial":103,"Robot":3,"Valence":"Lose","Action":"Go","Sham":0,"Color":"blue","trial_type":"pit-trial","trial_index":118,"time_elapsed":659880,"internal_node_id":"0.0-107.0","task_version":"test-retest"},{"Rune":"rune_02_raido","Hex":"#ffcc3399","Correct":32,"Choice":32,"RT":712.0149999973364,"Accuracy":1,"Outcome":"+1","Keys":[2212.5099999830127],"TotalKeys":1,"Block":1,"Trial":104,"Robot":1,"Valence":"Win","Action":"Go","Sham":1,"Color":"yellow","trial_type":"pit-trial","trial_index":119,"time_elapsed":663096,"internal_node_id":"0.0-108.0","task_version":"test-retest"},{"Rune":"rune_02_cen","Hex":"#3366ff99","Correct":-1,"Choice":-1,"RT":-1,"Accuracy":1,"Outcome":"-10","Keys":[3700.910000014119],"TotalKeys":1,"Block":1,"Trial":105,"Robot":4,"Valence":"Lose","Action":"No-Go","Sham":1,"Color":"blue","trial_type":"pit-trial","trial_index":120,"time_elapsed":667100,"internal_node_id":"0.0-109.0","task_version":"test-retest"},{"Rune":"rune_02_haglaz","Hex":"#ffcc3399","Correct":-1,"Choice":-1,"RT":-1,"Accuracy":1,"Outcome":"+10","Keys":[],"TotalKeys":0,"Block":1,"Trial":106,"Robot":2,"Valence":"Win","Action":"No-Go","Sham":0,"Color":"yellow","trial_type":"pit-trial","trial_index":121,"time_elapsed":671105,"internal_node_id":"0.0-110.0","task_version":"test-retest"},{"Rune":"rune_02_os","Hex":"#3366ff99","Correct":32,"Choice":-1,"RT":-1,"Accuracy":0,"Outcome":"-10","Keys":[],"TotalKeys":0,"Block":1,"Trial":107,"Robot":3,"Valence":"Lose","Action":"Go","Sham":0,"Color":"blue","trial_type":"pit-trial","trial_index":122,"time_elapsed":675109,"internal_node_id":"0.0-111.0","task_version":"test-retest"},{"Rune":"rune_02_raido","Hex":"#ffcc3399","Correct":32,"Choice":32,"RT":650.3099999972619,"Accuracy":1,"Outcome":"+10","Keys":[2151.4899999892805],"TotalKeys":1,"Block":1,"Trial":108,"Robot":1,"Valence":"Win","Action":"Go","Sham":0,"Color":"yellow","trial_type":"pit-trial","trial_index":123,"time_elapsed":678264,"internal_node_id":"0.0-112.0","task_version":"test-retest"},{"Rune":"rune_02_os","Hex":"#3366ff99","Correct":32,"Choice":-1,"RT":-1,"Accuracy":0,"Outcome":"-10","Keys":[],"TotalKeys":0,"Block":1,"Trial":109,"Robot":3,"Valence":"Lose","Action":"Go","Sham":0,"Color":"blue","trial_type":"pit-trial","trial_index":124,"time_elapsed":682267,"internal_node_id":"0.0-113.0","task_version":"test-retest"},{"Rune":"rune_02_raido","Hex":"#ffcc3399","Correct":32,"Choice":32,"RT":619.635000010021,"Accuracy":1,"Outcome":"+10","Keys":[2121.2150000210386],"TotalKeys":1,"Block":1,"Trial":110,"Robot":1,"Valence":"Win","Action":"Go","Sham":0,"Color":"yellow","trial_type":"pit-trial","trial_index":125,"time_elapsed":685392,"internal_node_id":"0.0-114.0","task_version":"test-retest"},{"Rune":"rune_02_cen","Hex":"#3366ff99","Correct":-1,"Choice":-1,"RT":-1,"Accuracy":1,"Outcome":"-1","Keys":[],"TotalKeys":0,"Block":1,"Trial":111,"Robot":4,"Valence":"Lose","Action":"No-Go","Sham":0,"Color":"blue","trial_type":"pit-trial","trial_index":126,"time_elapsed":689394,"internal_node_id":"0.0-115.0","task_version":"test-retest"},{"Rune":"rune_02_haglaz","Hex":"#ffcc3399","Correct":-1,"Choice":-1,"RT":-1,"Accuracy":1,"Outcome":"+10","Keys":[],"TotalKeys":0,"Block":1,"Trial":112,"Robot":2,"Valence":"Win","Action":"No-Go","Sham":0,"Color":"yellow","trial_type":"pit-trial","trial_index":127,"time_elapsed":693399,"internal_node_id":"0.0-116.0","task_version":"test-retest"},{"Rune":"rune_02_raido","Hex":"#ffcc3399","Correct":32,"Choice":32,"RT":760.4449999926146,"Accuracy":1,"Outcome":"+10","Keys":[2261.674999987008],"TotalKeys":1,"Block":1,"Trial":113,"Robot":1,"Valence":"Win","Action":"Go","Sham":0,"Color":"yellow","trial_type":"pit-trial","trial_index":128,"time_elapsed":696663,"internal_node_id":"0.0-117.0","task_version":"test-retest"},{"Rune":"rune_02_cen","Hex":"#3366ff99","Correct":-1,"Choice":32,"RT":1143.899999995483,"Accuracy":0,"Outcome":"-10","Keys":[2644.7749999933876],"TotalKeys":1,"Block":1,"Trial":114,"Robot":4,"Valence":"Lose","Action":"No-Go","Sham":0,"Color":"blue","trial_type":"pit-trial","trial_index":129,"time_elapsed":700311,"internal_node_id":"0.0-118.0","task_version":"test-retest"},{"Rune":"rune_02_haglaz","Hex":"#ffcc3399","Correct":-1,"Choice":-1,"RT":-1,"Accuracy":1,"Outcome":"+1","Keys":[],"TotalKeys":0,"Block":1,"Trial":115,"Robot":2,"Valence":"Win","Action":"No-Go","Sham":1,"Color":"yellow","trial_type":"pit-trial","trial_index":130,"time_elapsed":704315,"internal_node_id":"0.0-119.0","task_version":"test-retest"},{"Rune":"rune_02_os","Hex":"#3366ff99","Correct":32,"Choice":-1,"RT":-1,"Accuracy":0,"Outcome":"-10","Keys":[],"TotalKeys":0,"Block":1,"Trial":116,"Robot":3,"Valence":"Lose","Action":"Go","Sham":0,"Color":"blue","trial_type":"pit-trial","trial_index":131,"time_elapsed":708320,"internal_node_id":"0.0-120.0","task_version":"test-retest"},{"Rune":"rune_02_haglaz","Hex":"#ffcc3399","Correct":-1,"Choice":-1,"RT":-1,"Accuracy":1,"Outcome":"+10","Keys":[],"TotalKeys":0,"Block":1,"Trial":117,"Robot":2,"Valence":"Win","Action":"No-Go","Sham":0,"Color":"yellow","trial_type":"pit-trial","trial_index":132,"time_elapsed":712324,"internal_node_id":"0.0-121.0","task_version":"test-retest"},{"Rune":"rune_02_cen","Hex":"#3366ff99","Correct":-1,"Choice":-1,"RT":-1,"Accuracy":1,"Outcome":"-1","Keys":[],"TotalKeys":0,"Block":1,"Trial":118,"Robot":4,"Valence":"Lose","Action":"No-Go","Sham":0,"Color":"blue","trial_type":"pit-trial","trial_index":133,"time_elapsed":716329,"internal_node_id":"0.0-122.0","task_version":"test-retest"},{"Rune":"rune_02_raido","Hex":"#ffcc3399","Correct":32,"Choice":32,"RT":894.8949999758042,"Accuracy":1,"Outcome":"+10","Keys":[2395.7050000026356],"TotalKeys":1,"Block":1,"Trial":119,"Robot":1,"Valence":"Win","Action":"Go","Sham":0,"Color":"yellow","trial_type":"pit-trial","trial_index":134,"time_elapsed":719727,"internal_node_id":"0.0-123.0","task_version":"test-retest"},{"Rune":"rune_02_os","Hex":"#3366ff99","Correct":32,"Choice":32,"RT":1144.7999999800231,"Accuracy":1,"Outcome":"-10","Keys":[2644.880000007106],"TotalKeys":1,"Block":1,"Trial":120,"Robot":3,"Valence":"Lose","Action":"Go","Sham":1,"Color":"blue","trial_type":"pit-trial","trial_index":135,"time_elapsed":723376,"internal_node_id":"0.0-124.0","task_version":"test-retest"},{"view_history":"[{\"page_index\":0,\"viewing_time\":22070.449999999255},{\"page_index\":1,\"viewing_time\":3367.964999983087},{\"page_index\":2,\"viewing_time\":2808.0600000103004}]","rt":28246.964999998454,"trial_type":"pit-instructions","trial_index":136,"time_elapsed":751624,"internal_node_id":"0.0-125.0","task_version":"test-retest"},{"Rune":"rune_01_ger","Hex":"#ffcc3399","Correct":32,"Choice":32,"RT":798.2800000172574,"Accuracy":1,"Outcome":"+1","Keys":[2298.3950000198092],"TotalKeys":1,"Block":2,"Trial":121,"Robot":1,"Valence":"Win","Action":"Go","Sham":1,"Color":"yellow","trial_type":"pit-trial","trial_index":137,"time_elapsed":754928,"internal_node_id":"0.0-126.0","task_version":"test-retest"},{"Rune":"rune_01_yr","Hex":"#3366ff99","Correct":-1,"Choice":-1,"RT":-1,"Accuracy":1,"Outcome":"-1","Keys":[],"TotalKeys":0,"Block":2,"Trial":122,"Robot":4,"Valence":"Lose","Action":"No-Go","Sham":0,"Color":"blue","trial_type":"pit-trial","trial_index":138,"time_elapsed":758932,"internal_node_id":"0.0-127.0","task_version":"test-retest"},{"Rune":"rune_01_ingwaz","Hex":"#ffcc3399","Correct":-1,"Choice":-1,"RT":-1,"Accuracy":1,"Outcome":"+10","Keys":[],"TotalKeys":0,"Block":2,"Trial":123,"Robot":2,"Valence":"Win","Action":"No-Go","Sham":0,"Color":"yellow","trial_type":"pit-trial","trial_index":139,"time_elapsed":762935,"internal_node_id":"0.0-128.0","task_version":"test-retest"},{"Rune":"rune_01_ear","Hex":"#3366ff99","Correct":32,"Choice":-1,"RT":-1,"Accuracy":0,"Outcome":"-1","Keys":[],"TotalKeys":0,"Block":2,"Trial":124,"Robot":3,"Valence":"Lose","Action":"Go","Sham":1,"Color":"blue","trial_type":"pit-trial","trial_index":140,"time_elapsed":766939,"internal_node_id":"0.0-129.0","task_version":"test-retest"},{"Rune":"rune_01_ger","Hex":"#ffcc3399","Correct":32,"Choice":-1,"RT":-1,"Accuracy":0,"Outcome":"+1","Keys":[],"TotalKeys":0,"Block":2,"Trial":125,"Robot":1,"Valence":"Win","Action":"Go","Sham":0,"Color":"yellow","trial_type":"pit-trial","trial_index":141,"time_elapsed":770944,"internal_node_id":"0.0-130.0","task_version":"test-retest"},{"Rune":"rune_01_yr","Hex":"#3366ff99","Correct":-1,"Choice":-1,"RT":-1,"Accuracy":1,"Outcome":"-1","Keys":[3932.500000024447],"TotalKeys":1,"Block":2,"Trial":126,"Robot":4,"Valence":"Lose","Action":"No-Go","Sham":0,"Color":"blue","trial_type":"pit-trial","trial_index":142,"time_elapsed":774947,"internal_node_id":"0.0-131.0","task_version":"test-retest"},{"Rune":"rune_01_ear","Hex":"#3366ff99","Correct":32,"Choice":32,"RT":195.52499998826534,"Accuracy":1,"Outcome":"-1","Keys":[1696.5700000000652],"TotalKeys":1,"Block":2,"Trial":127,"Robot":3,"Valence":"Lose","Action":"Go","Sham":0,"Color":"blue","trial_type":"pit-trial","trial_index":143,"time_elapsed":777648,"internal_node_id":"0.0-132.0","task_version":"test-retest"},{"Rune":"rune_01_ingwaz","Hex":"#ffcc3399","Correct":-1,"Choice":32,"RT":1167.634999990696,"Accuracy":0,"Outcome":"+1","Keys":[2668.5600000200793],"TotalKeys":1,"Block":2,"Trial":128,"Robot":2,"Valence":"Win","Action":"No-Go","Sham":0,"Color":"yellow","trial_type":"pit-trial","trial_index":144,"time_elapsed":781319,"internal_node_id":"0.0-133.0","task_version":"test-retest"},{"Rune":"rune_01_ingwaz","Hex":"#ffcc3399","Correct":-1,"Choice":-1,"RT":-1,"Accuracy":1,"Outcome":"+1","Keys":[],"TotalKeys":0,"Block":2,"Trial":129,"Robot":2,"Valence":"Win","Action":"No-Go","Sham":1,"Color":"yellow","trial_type":"pit-trial","trial_index":145,"time_elapsed":785323,"internal_node_id":"0.0-134.0","task_version":"test-retest"},{"Rune":"rune_01_ger","Hex":"#ffcc3399","Correct":32,"Choice":32,"RT":491.14499997813255,"Accuracy":1,"Outcome":"+10","Keys":[1993.0250000033993],"TotalKeys":1,"Block":2,"Trial":130,"Robot":1,"Valence":"Win","Action":"Go","Sham":0,"Color":"yellow","trial_type":"pit-trial","trial_index":146,"time_elapsed":788319,"internal_node_id":"0.0-135.0","task_version":"test-retest"},{"Rune":"rune_01_yr","Hex":"#3366ff99","Correct":-1,"Choice":32,"RT":911.870000010822,"Accuracy":0,"Outcome":"-1","Keys":[2413.124999991851],"TotalKeys":1,"Block":2,"Trial":131,"Robot":4,"Valence":"Lose","Action":"No-Go","Sham":1,"Color":"blue","trial_type":"pit-trial","trial_index":147,"time_elapsed":791735,"internal_node_id":"0.0-136.0","task_version":"test-retest"},{"Rune":"rune_01_ear","Hex":"#3366ff99","Correct":32,"Choice":32,"RT":280.72499998961575,"Accuracy":1,"Outcome":"-1","Keys":[1781.5300000074785],"TotalKeys":1,"Block":2,"Trial":132,"Robot":3,"Valence":"Lose","Action":"Go","Sham":0,"Color":"blue","trial_type":"pit-trial","trial_index":148,"time_elapsed":794519,"internal_node_id":"0.0-137.0","task_version":"test-retest"},{"Rune":"rune_01_ger","Hex":"#ffcc3399","Correct":32,"Choice":-1,"RT":-1,"Accuracy":0,"Outcome":"+1","Keys":[3277.399999991758],"TotalKeys":1,"Block":2,"Trial":133,"Robot":1,"Valence":"Win","Action":"Go","Sham":0,"Color":"yellow","trial_type":"pit-trial","trial_index":149,"time_elapsed":798523,"internal_node_id":"0.0-138.0","task_version":"test-retest"},{"Rune":"rune_01_ear","Hex":"#3366ff99","Correct":32,"Choice":32,"RT":821.0350000008475,"Accuracy":1,"Outcome":"-1","Keys":[2321.2599999969825],"TotalKeys":1,"Block":2,"Trial":134,"Robot":3,"Valence":"Lose","Action":"Go","Sham":0,"Color":"blue","trial_type":"pit-trial","trial_index":150,"time_elapsed":801847,"internal_node_id":"0.0-139.0","task_version":"test-retest"},{"Rune":"rune_01_yr","Hex":"#3366ff99","Correct":-1,"Choice":32,"RT":1142.9300000017975,"Accuracy":0,"Outcome":"-10","Keys":[2644.6649999998044],"TotalKeys":1,"Block":2,"Trial":135,"Robot":4,"Valence":"Lose","Action":"No-Go","Sham":0,"Color":"blue","trial_type":"pit-trial","trial_index":151,"time_elapsed":805494,"internal_node_id":"0.0-140.0","task_version":"test-retest"},{"Rune":"rune_01_ingwaz","Hex":"#ffcc3399","Correct":-1,"Choice":32,"RT":1073.130000004312,"Accuracy":0,"Outcome":"+1","Keys":[2573.904999997467],"TotalKeys":1,"Block":2,"Trial":136,"Robot":2,"Valence":"Win","Action":"No-Go","Sham":0,"Color":"yellow","trial_type":"pit-trial","trial_index":152,"time_elapsed":809071,"internal_node_id":"0.0-141.0","task_version":"test-retest"},{"Rune":"rune_01_ingwaz","Hex":"#ffcc3399","Correct":-1,"Choice":-1,"RT":-1,"Accuracy":1,"Outcome":"+10","Keys":[],"TotalKeys":0,"Block":2,"Trial":137,"Robot":2,"Valence":"Win","Action":"No-Go","Sham":0,"Color":"yellow","trial_type":"pit-trial","trial_index":153,"time_elapsed":813074,"internal_node_id":"0.0-142.0","task_version":"test-retest"},{"Rune":"rune_01_yr","Hex":"#3366ff99","Correct":-1,"Choice":-1,"RT":-1,"Accuracy":1,"Outcome":"-1","Keys":[],"TotalKeys":0,"Block":2,"Trial":138,"Robot":4,"Valence":"Lose","Action":"No-Go","Sham":0,"Color":"blue","trial_type":"pit-trial","trial_index":154,"time_elapsed":817079,"internal_node_id":"0.0-143.0","task_version":"test-retest"},{"Rune":"rune_01_ear","Hex":"#3366ff99","Correct":32,"Choice":-1,"RT":-1,"Accuracy":0,"Outcome":"-10","Keys":[],"TotalKeys":0,"Block":2,"Trial":139,"Robot":3,"Valence":"Lose","Action":"Go","Sham":0,"Color":"blue","trial_type":"pit-trial","trial_index":155,"time_elapsed":821085,"internal_node_id":"0.0-144.0","task_version":"test-retest"},{"Rune":"rune_01_ger","Hex":"#ffcc3399","Correct":32,"Choice":32,"RT":1178.539999993518,"Accuracy":1,"Outcome":"+10","Keys":[2680.2299999981187],"TotalKeys":1,"Block":2,"Trial":140,"Robot":1,"Valence":"Win","Action":"Go","Sham":0,"Color":"yellow","trial_type":"pit-trial","trial_index":156,"time_elapsed":824768,"internal_node_id":"0.0-145.0","task_version":"test-retest"},{"Rune":"rune_01_ingwaz","Hex":"#ffcc3399","Correct":-1,"Choice":32,"RT":1247.83499998739,"Accuracy":0,"Outcome":"+10","Keys":[2748.3550000179093],"TotalKeys":1,"Block":2,"Trial":141,"Robot":2,"Valence":"Win","Action":"No-Go","Sham":1,"Color":"yellow","trial_type":"pit-trial","trial_index":157,"time_elapsed":828520,"internal_node_id":"0.0-146.0","task_version":"test-retest"},{"Rune":"rune_01_ger","Hex":"#ffcc3399","Correct":32,"Choice":-1,"RT":-1,"Accuracy":0,"Outcome":"+1","Keys":[],"TotalKeys":0,"Block":2,"Trial":142,"Robot":1,"Valence":"Win","Action":"Go","Sham":0,"Color":"yellow","trial_type":"pit-trial","trial_index":158,"time_elapsed":832524,"internal_node_id":"0.0-147.0","task_version":"test-retest"},{"Rune":"rune_01_ear","Hex":"#3366ff99","Correct":32,"Choice":-1,"RT":-1,"Accuracy":0,"Outcome":"-1","Keys":[],"TotalKeys":0,"Block":2,"Trial":143,"Robot":3,"Valence":"Lose","Action":"Go","Sham":1,"Color":"blue","trial_type":"pit-trial","trial_index":159,"time_elapsed":836529,"internal_node_id":"0.0-148.0","task_version":"test-retest"},{"Rune":"rune_01_yr","Hex":"#3366ff99","Correct":-1,"Choice":-1,"RT":-1,"Accuracy":1,"Outcome":"-1","Keys":[],"TotalKeys":0,"Block":2,"Trial":144,"Robot":4,"Valence":"Lose","Action":"No-Go","Sham":0,"Color":"blue","trial_type":"pit-trial","trial_index":160,"time_elapsed":840538,"internal_node_id":"0.0-149.0","task_version":"test-retest"},{"Rune":"rune_01_ear","Hex":"#3366ff99","Correct":32,"Choice":-1,"RT":-1,"Accuracy":0,"Outcome":"-10","Keys":[],"TotalKeys":0,"Block":2,"Trial":145,"Robot":3,"Valence":"Lose","Action":"Go","Sham":0,"Color":"blue","trial_type":"pit-trial","trial_index":161,"time_elapsed":844543,"internal_node_id":"0.0-150.0","task_version":"test-retest"},{"Rune":"rune_01_ingwaz","Hex":"#ffcc3399","Correct":-1,"Choice":32,"RT":905.2300000039395,"Accuracy":0,"Outcome":"+1","Keys":[2406.060000008438],"TotalKeys":1,"Block":2,"Trial":146,"Robot":2,"Valence":"Win","Action":"No-Go","Sham":0,"Color":"yellow","trial_type":"pit-trial","trial_index":162,"time_elapsed":847953,"internal_node_id":"0.0-151.0","task_version":"test-retest"},{"Rune":"rune_01_ger","Hex":"#ffcc3399","Correct":32,"Choice":-1,"RT":-1,"Accuracy":0,"Outcome":"+10","Keys":[],"TotalKeys":0,"Block":2,"Trial":147,"Robot":1,"Valence":"Win","Action":"Go","Sham":1,"Color":"yellow","trial_type":"pit-trial","trial_index":163,"time_elapsed":851956,"internal_node_id":"0.0-152.0","task_version":"test-retest"},{"Rune":"rune_01_yr","Hex":"#3366ff99","Correct":-1,"Choice":-1,"RT":-1,"Accuracy":1,"Outcome":"-10","Keys":[],"TotalKeys":0,"Block":2,"Trial":148,"Robot":4,"Valence":"Lose","Action":"No-Go","Sham":1,"Color":"blue","trial_type":"pit-trial","trial_index":164,"time_elapsed":855960,"internal_node_id":"0.0-153.0","task_version":"test-retest"},{"Rune":"rune_01_ear","Hex":"#3366ff99","Correct":32,"Choice":-1,"RT":-1,"Accuracy":0,"Outcome":"-10","Keys":[],"TotalKeys":0,"Block":2,"Trial":149,"Robot":3,"Valence":"Lose","Action":"Go","Sham":0,"Color":"blue","trial_type":"pit-trial","trial_index":165,"time_elapsed":859964,"internal_node_id":"0.0-154.0","task_version":"test-retest"},{"Rune":"rune_01_yr","Hex":"#3366ff99","Correct":-1,"Choice":-1,"RT":-1,"Accuracy":1,"Outcome":"-1","Keys":[3609.4750000047497],"TotalKeys":1,"Block":2,"Trial":150,"Robot":4,"Valence":"Lose","Action":"No-Go","Sham":0,"Color":"blue","trial_type":"pit-trial","trial_index":166,"time_elapsed":863967,"internal_node_id":"0.0-155.0","task_version":"test-retest"},{"Rune":"rune_01_ger","Hex":"#ffcc3399","Correct":32,"Choice":32,"RT":672.164999996312,"Accuracy":1,"Outcome":"+10","Keys":[2173.3400000084657],"TotalKeys":1,"Block":2,"Trial":151,"Robot":1,"Valence":"Win","Action":"Go","Sham":0,"Color":"yellow","trial_type":"pit-trial","trial_index":167,"time_elapsed":867143,"internal_node_id":"0.0-156.0","task_version":"test-retest"},{"Rune":"rune_01_ingwaz","Hex":"#ffcc3399","Correct":-1,"Choice":32,"RT":1305.0849999999627,"Accuracy":0,"Outcome":"+1","Keys":[2805.5249999742955],"TotalKeys":1,"Block":2,"Trial":152,"Robot":2,"Valence":"Win","Action":"No-Go","Sham":0,"Color":"yellow","trial_type":"pit-trial","trial_index":168,"time_elapsed":870952,"internal_node_id":"0.0-157.0","task_version":"test-retest"},{"Rune":"rune_01_yr","Hex":"#3366ff99","Correct":-1,"Choice":32,"RT":1136.4849999954458,"Accuracy":0,"Outcome":"-10","Keys":[2636.8099999963306],"TotalKeys":1,"Block":2,"Trial":153,"Robot":4,"Valence":"Lose","Action":"No-Go","Sham":0,"Color":"blue","trial_type":"pit-trial","trial_index":169,"time_elapsed":874593,"internal_node_id":"0.0-158.0","task_version":"test-retest"},{"Rune":"rune_01_ingwaz","Hex":"#ffcc3399","Correct":-1,"Choice":-1,"RT":-1,"Accuracy":1,"Outcome":"+10","Keys":[],"TotalKeys":0,"Block":2,"Trial":154,"Robot":2,"Valence":"Win","Action":"No-Go","Sham":0,"Color":"yellow","trial_type":"pit-trial","trial_index":170,"time_elapsed":878598,"internal_node_id":"0.0-159.0","task_version":"test-retest"},{"Rune":"rune_01_ear","Hex":"#3366ff99","Correct":32,"Choice":32,"RT":921.7699999862816,"Accuracy":1,"Outcome":"-1","Keys":[2423.110000003362],"TotalKeys":1,"Block":2,"Trial":155,"Robot":3,"Valence":"Lose","Action":"Go","Sham":0,"Color":"blue","trial_type":"pit-trial","trial_index":171,"time_elapsed":882024,"internal_node_id":"0.0-160.0","task_version":"test-retest"},{"Rune":"rune_01_ger","Hex":"#ffcc3399","Correct":32,"Choice":32,"RT":888.5299999965355,"Accuracy":1,"Outcome":"+10","Keys":[2388.959999982035],"TotalKeys":1,"Block":2,"Trial":156,"Robot":1,"Valence":"Win","Action":"Go","Sham":0,"Color":"yellow","trial_type":"pit-trial","trial_index":172,"time_elapsed":885415,"internal_node_id":"0.0-161.0","task_version":"test-retest"},{"Rune":"rune_01_yr","Hex":"#3366ff99","Correct":-1,"Choice":32,"RT":1023.8950000202749,"Accuracy":0,"Outcome":"-10","Keys":[2525.064999994356],"TotalKeys":1,"Block":2,"Trial":157,"Robot":4,"Valence":"Lose","Action":"No-Go","Sham":0,"Color":"blue","trial_type":"pit-trial","trial_index":173,"time_elapsed":888944,"internal_node_id":"0.0-162.0","task_version":"test-retest"},{"Rune":"rune_01_ingwaz","Hex":"#ffcc3399","Correct":-1,"Choice":32,"RT":902.7700000151526,"Accuracy":0,"Outcome":"+1","Keys":[2404.775000002701],"TotalKeys":1,"Block":2,"Trial":158,"Robot":2,"Valence":"Win","Action":"No-Go","Sham":0,"Color":"yellow","trial_type":"pit-trial","trial_index":174,"time_elapsed":892352,"internal_node_id":"0.0-163.0","task_version":"test-retest"},{"Rune":"rune_01_ger","Hex":"#ffcc3399","Correct":32,"Choice":-1,"RT":-1,"Accuracy":0,"Outcome":"+1","Keys":[],"TotalKeys":0,"Block":2,"Trial":159,"Robot":1,"Valence":"Win","Action":"Go","Sham":0,"Color":"yellow","trial_type":"pit-trial","trial_index":175,"time_elapsed":896356,"internal_node_id":"0.0-164.0","task_version":"test-retest"},{"Rune":"rune_01_ear","Hex":"#3366ff99","Correct":32,"Choice":-1,"RT":-1,"Accuracy":0,"Outcome":"-10","Keys":[],"TotalKeys":0,"Block":2,"Trial":160,"Robot":3,"Valence":"Lose","Action":"Go","Sham":0,"Color":"blue","trial_type":"pit-trial","trial_index":176,"time_elapsed":900361,"internal_node_id":"0.0-165.0","task_version":"test-retest"},{"Rune":"rune_01_ear","Hex":"#3366ff99","Correct":32,"Choice":32,"RT":1023.3149999985471,"Accuracy":1,"Outcome":"-1","Keys":[2523.684999992838],"TotalKeys":1,"Block":2,"Trial":161,"Robot":3,"Valence":"Lose","Action":"Go","Sham":0,"Color":"blue","trial_type":"pit-trial","trial_index":177,"time_elapsed":903887,"internal_node_id":"0.0-166.0","task_version":"test-retest"},{"Rune":"rune_01_ger","Hex":"#ffcc3399","Correct":32,"Choice":32,"RT":872.3400000017136,"Accuracy":1,"Outcome":"+10","Keys":[2373.104999976931],"TotalKeys":1,"Block":2,"Trial":162,"Robot":1,"Valence":"Win","Action":"Go","Sham":0,"Color":"yellow","trial_type":"pit-trial","trial_index":178,"time_elapsed":907263,"internal_node_id":"0.0-167.0","task_version":"test-retest"},{"Rune":"rune_01_ingwaz","Hex":"#ffcc3399","Correct":-1,"Choice":32,"RT":943.9999999885913,"Accuracy":0,"Outcome":"+1","Keys":[2445.3100000100676],"TotalKeys":1,"Block":2,"Trial":163,"Robot":2,"Valence":"Win","Action":"No-Go","Sham":0,"Color":"yellow","trial_type":"pit-trial","trial_index":179,"time_elapsed":910712,"internal_node_id":"0.0-168.0","task_version":"test-retest"},{"Rune":"rune_01_yr","Hex":"#3366ff99","Correct":-1,"Choice":-1,"RT":-1,"Accuracy":1,"Outcome":"-1","Keys":[3164.134999999078],"TotalKeys":1,"Block":2,"Trial":164,"Robot":4,"Valence":"Lose","Action":"No-Go","Sham":0,"Color":"blue","trial_type":"pit-trial","trial_index":180,"time_elapsed":914717,"internal_node_id":"0.0-169.0","task_version":"test-retest"},{"Rune":"rune_01_ingwaz","Hex":"#ffcc3399","Correct":-1,"Choice":-1,"RT":-1,"Accuracy":1,"Outcome":"+10","Keys":[],"TotalKeys":0,"Block":2,"Trial":165,"Robot":2,"Valence":"Win","Action":"No-Go","Sham":0,"Color":"yellow","trial_type":"pit-trial","trial_index":181,"time_elapsed":918721,"internal_node_id":"0.0-170.0","task_version":"test-retest"},{"Rune":"rune_01_ear","Hex":"#3366ff99","Correct":32,"Choice":32,"RT":758.3799999847542,"Accuracy":1,"Outcome":"-1","Keys":[2259.344999998575],"TotalKeys":1,"Block":2,"Trial":166,"Robot":3,"Valence":"Lose","Action":"Go","Sham":0,"Color":"blue","trial_type":"pit-trial","trial_index":182,"time_elapsed":921983,"internal_node_id":"0.0-171.0","task_version":"test-retest"},{"Rune":"rune_01_yr","Hex":"#3366ff99","Correct":-1,"Choice":32,"RT":832.4100000027101,"Accuracy":0,"Outcome":"-10","Keys":[2333.5150000057183],"TotalKeys":1,"Block":2,"Trial":167,"Robot":4,"Valence":"Lose","Action":"No-Go","Sham":0,"Color":"blue","trial_type":"pit-trial","trial_index":183,"time_elapsed":925319,"internal_node_id":"0.0-172.0","task_version":"test-retest"},{"Rune":"rune_01_ger","Hex":"#ffcc3399","Correct":32,"Choice":32,"RT":1336.684999987483,"Accuracy":1,"Outcome":"+10","Keys":[2837.5299999897834],"TotalKeys":1,"Block":2,"Trial":168,"Robot":1,"Valence":"Win","Action":"Go","Sham":0,"Color":"yellow","trial_type":"pit-trial","trial_index":184,"time_elapsed":929160,"internal_node_id":"0.0-173.0","task_version":"test-retest"},{"Rune":"rune_01_ger","Hex":"#ffcc3399","Correct":32,"Choice":32,"RT":1119.1650000109803,"Accuracy":1,"Outcome":"+10","Keys":[2620.454999996582],"TotalKeys":1,"Block":2,"Trial":169,"Robot":1,"Valence":"Win","Action":"Go","Sham":0,"Color":"yellow","trial_type":"pit-trial","trial_index":185,"time_elapsed":932784,"internal_node_id":"0.0-174.0","task_version":"test-retest"},{"Rune":"rune_01_ingwaz","Hex":"#ffcc3399","Correct":-1,"Choice":-1,"RT":-1,"Accuracy":1,"Outcome":"+10","Keys":[],"TotalKeys":0,"Block":2,"Trial":170,"Robot":2,"Valence":"Win","Action":"No-Go","Sham":0,"Color":"yellow","trial_type":"pit-trial","trial_index":186,"time_elapsed":936789,"internal_node_id":"0.0-175.0","task_version":"test-retest"},{"Rune":"rune_01_yr","Hex":"#3366ff99","Correct":-1,"Choice":32,"RT":938.4450000070501,"Accuracy":0,"Outcome":"-10","Keys":[2439.795000012964],"TotalKeys":1,"Block":2,"Trial":171,"Robot":4,"Valence":"Lose","Action":"No-Go","Sham":0,"Color":"blue","trial_type":"pit-trial","trial_index":187,"time_elapsed":940231,"internal_node_id":"0.0-176.0","task_version":"test-retest"},{"Rune":"rune_01_ear","Hex":"#3366ff99","Correct":32,"Choice":-1,"RT":-1,"Accuracy":0,"Outcome":"-10","Keys":[],"TotalKeys":0,"Block":2,"Trial":172,"Robot":3,"Valence":"Lose","Action":"Go","Sham":0,"Color":"blue","trial_type":"pit-trial","trial_index":188,"time_elapsed":944236,"internal_node_id":"0.0-177.0","task_version":"test-retest"},{"Rune":"rune_01_ear","Hex":"#3366ff99","Correct":32,"Choice":32,"RT":946.4750000042841,"Accuracy":1,"Outcome":"-1","Keys":[2448.2649999845307],"TotalKeys":1,"Block":2,"Trial":173,"Robot":3,"Valence":"Lose","Action":"Go","Sham":0,"Color":"blue","trial_type":"pit-trial","trial_index":189,"time_elapsed":947687,"internal_node_id":"0.0-178.0","task_version":"test-retest"},{"Rune":"rune_01_ingwaz","Hex":"#ffcc3399","Correct":-1,"Choice":32,"RT":848.1150000006892,"Accuracy":0,"Outcome":"+1","Keys":[2348.9100000006147],"TotalKeys":1,"Block":2,"Trial":174,"Robot":2,"Valence":"Win","Action":"No-Go","Sham":0,"Color":"yellow","trial_type":"pit-trial","trial_index":190,"time_elapsed":951040,"internal_node_id":"0.0-179.0","task_version":"test-retest"},{"Rune":"rune_01_ger","Hex":"#ffcc3399","Correct":32,"Choice":32,"RT":752.3349999974016,"Accuracy":1,"Outcome":"+10","Keys":[2252.56999998237],"TotalKeys":1,"Block":2,"Trial":175,"Robot":1,"Valence":"Win","Action":"Go","Sham":0,"Color":"yellow","trial_type":"pit-trial","trial_index":191,"time_elapsed":954295,"internal_node_id":"0.0-180.0","task_version":"test-retest"},{"Rune":"rune_01_yr","Hex":"#3366ff99","Correct":-1,"Choice":32,"RT":992.3100000014529,"Accuracy":0,"Outcome":"-10","Keys":[2492.9450000054203],"TotalKeys":1,"Block":2,"Trial":176,"Robot":4,"Valence":"Lose","Action":"No-Go","Sham":0,"Color":"blue","trial_type":"pit-trial","trial_index":192,"time_elapsed":957791,"internal_node_id":"0.0-181.0","task_version":"test-retest"},{"Rune":"rune_01_ger","Hex":"#ffcc3399","Correct":32,"Choice":32,"RT":712.9000000131782,"Accuracy":1,"Outcome":"+1","Keys":[2213.3599999942817],"TotalKeys":1,"Block":2,"Trial":177,"Robot":1,"Valence":"Win","Action":"Go","Sham":1,"Color":"yellow","trial_type":"pit-trial","trial_index":193,"time_elapsed":961008,"internal_node_id":"0.0-182.0","task_version":"test-retest"},{"Rune":"rune_01_yr","Hex":"#3366ff99","Correct":-1,"Choice":-1,"RT":-1,"Accuracy":1,"Outcome":"-10","Keys":[],"TotalKeys":0,"Block":2,"Trial":178,"Robot":4,"Valence":"Lose","Action":"No-Go","Sham":1,"Color":"blue","trial_type":"pit-trial","trial_index":194,"time_elapsed":965011,"internal_node_id":"0.0-183.0","task_version":"test-retest"},{"Rune":"rune_01_ear","Hex":"#3366ff99","Correct":32,"Choice":32,"RT":1251.155000005383,"Accuracy":1,"Outcome":"-10","Keys":[2753.06499999715],"TotalKeys":1,"Block":2,"Trial":179,"Robot":3,"Valence":"Lose","Action":"Go","Sham":1,"Color":"blue","trial_type":"pit-trial","trial_index":195,"time_elapsed":968767,"internal_node_id":"0.0-184.0","task_version":"test-retest"},{"Rune":"rune_01_ingwaz","Hex":"#ffcc3399","Correct":-1,"Choice":32,"RT":688.2249999907799,"Accuracy":0,"Outcome":"+10","Keys":[2189.165000017965],"TotalKeys":1,"Block":2,"Trial":180,"Robot":2,"Valence":"Win","Action":"No-Go","Sham":1,"Color":"yellow","trial_type":"pit-trial","trial_index":196,"time_elapsed":971959,"internal_node_id":"0.0-185.0","task_version":"test-retest"},{"view_history":"[{\"page_index\":0,\"viewing_time\":18415.065000008326},{\"page_index\":1,\"viewing_time\":3351.7599999904633}]","rt":21767.3150000046,"trial_type":"pit-instructions","trial_index":197,"time_elapsed":993728,"internal_node_id":"0.0-186.0","task_version":"test-retest"},{"Rune":"rune_01_ger","Hex":"#ffcc3399","Correct":32,"Choice":-1,"RT":-1,"Accuracy":0,"Outcome":"+10","Keys":[],"TotalKeys":0,"Block":2,"Trial":181,"Robot":1,"Valence":"Win","Action":"Go","Sham":1,"Color":"yellow","trial_type":"pit-trial","trial_index":198,"time_elapsed":997735,"internal_node_id":"0.0-187.0","task_version":"test-retest"},{"Rune":"rune_01_ingwaz","Hex":"#ffcc3399","Correct":-1,"Choice":-1,"RT":-1,"Accuracy":1,"Outcome":"+10","Keys":[3269.090000016149],"TotalKeys":1,"Block":2,"Trial":182,"Robot":2,"Valence":"Win","Action":"No-Go","Sham":0,"Color":"yellow","trial_type":"pit-trial","trial_index":199,"time_elapsed":1001740,"internal_node_id":"0.0-188.0","task_version":"test-retest"},{"Rune":"rune_01_ear","Hex":"#3366ff99","Correct":32,"Choice":-1,"RT":-1,"Accuracy":0,"Outcome":"-1","Keys":[],"TotalKeys":0,"Block":2,"Trial":183,"Robot":3,"Valence":"Lose","Action":"Go","Sham":1,"Color":"blue","trial_type":"pit-trial","trial_index":200,"time_elapsed":1005744,"internal_node_id":"0.0-189.0","task_version":"test-retest"},{"Rune":"rune_01_yr","Hex":"#3366ff99","Correct":-1,"Choice":-1,"RT":-1,"Accuracy":1,"Outcome":"-1","Keys":[],"TotalKeys":0,"Block":2,"Trial":184,"Robot":4,"Valence":"Lose","Action":"No-Go","Sham":0,"Color":"blue","trial_type":"pit-trial","trial_index":201,"time_elapsed":1009748,"internal_node_id":"0.0-190.0","task_version":"test-retest"},{"Rune":"rune_01_ingwaz","Hex":"#ffcc3399","Correct":-1,"Choice":-1,"RT":-1,"Accuracy":1,"Outcome":"+10","Keys":[],"TotalKeys":0,"Block":2,"Trial":185,"Robot":2,"Valence":"Win","Action":"No-Go","Sham":0,"Color":"yellow","trial_type":"pit-trial","trial_index":202,"time_elapsed":1013752,"internal_node_id":"0.0-191.0","task_version":"test-retest"},{"Rune":"rune_01_ger","Hex":"#ffcc3399","Correct":32,"Choice":32,"RT":1007.4050000112038,"Accuracy":1,"Outcome":"+10","Keys":[2508.540000009816],"TotalKeys":1,"Block":2,"Trial":186,"Robot":1,"Valence":"Win","Action":"Go","Sham":0,"Color":"yellow","trial_type":"pit-trial","trial_index":203,"time_elapsed":1017264,"internal_node_id":"0.0-192.0","task_version":"test-retest"},{"Rune":"rune_01_ear","Hex":"#3366ff99","Correct":32,"Choice":32,"RT":848.6250000132713,"Accuracy":1,"Outcome":"-1","Keys":[2348.7199999799486],"TotalKeys":1,"Block":2,"Trial":187,"Robot":3,"Valence":"Lose","Action":"Go","Sham":0,"Color":"blue","trial_type":"pit-trial","trial_index":204,"time_elapsed":1020616,"internal_node_id":"0.0-193.0","task_version":"test-retest"},{"Rune":"rune_01_yr","Hex":"#3366ff99","Correct":-1,"Choice":-1,"RT":-1,"Accuracy":1,"Outcome":"-10","Keys":[3269.059999991441],"TotalKeys":1,"Block":2,"Trial":188,"Robot":4,"Valence":"Lose","Action":"No-Go","Sham":1,"Color":"blue","trial_type":"pit-trial","trial_index":205,"time_elapsed":1024620,"internal_node_id":"0.0-194.0","task_version":"test-retest"},{"Rune":"rune_01_ger","Hex":"#ffcc3399","Correct":32,"Choice":-1,"RT":-1,"Accuracy":0,"Outcome":"+1","Keys":[],"TotalKeys":0,"Block":2,"Trial":189,"Robot":1,"Valence":"Win","Action":"Go","Sham":0,"Color":"yellow","trial_type":"pit-trial","trial_index":206,"time_elapsed":1028623,"internal_node_id":"0.0-195.0","task_version":"test-retest"},{"Rune":"rune_01_yr","Hex":"#3366ff99","Correct":-1,"Choice":32,"RT":616.6049999883398,"Accuracy":0,"Outcome":"-10","Keys":[1429.3400000024121,2117.175000021234],"TotalKeys":2,"Block":2,"Trial":190,"Robot":4,"Valence":"Lose","Action":"No-Go","Sham":0,"Color":"blue","trial_type":"pit-trial","trial_index":207,"time_elapsed":1031744,"internal_node_id":"0.0-196.0","task_version":"test-retest"},{"Rune":"rune_01_ingwaz","Hex":"#ffcc3399","Correct":-1,"Choice":32,"RT":936.2400000100024,"Accuracy":0,"Outcome":"+1","Keys":[2436.5499999839813],"TotalKeys":1,"Block":2,"Trial":191,"Robot":2,"Valence":"Win","Action":"No-Go","Sham":0,"Color":"yellow","trial_type":"pit-trial","trial_index":208,"time_elapsed":1035184,"internal_node_id":"0.0-197.0","task_version":"test-retest"},{"Rune":"rune_01_ear","Hex":"#3366ff99","Correct":32,"Choice":32,"RT":1168.0950000009034,"Accuracy":1,"Outcome":"-1","Keys":[2668.8000000140164],"TotalKeys":1,"Block":2,"Trial":192,"Robot":3,"Valence":"Lose","Action":"Go","Sham":0,"Color":"blue","trial_type":"pit-trial","trial_index":209,"time_elapsed":1038855,"internal_node_id":"0.0-198.0","task_version":"test-retest"},{"Rune":"rune_01_ingwaz","Hex":"#ffcc3399","Correct":-1,"Choice":-1,"RT":-1,"Accuracy":1,"Outcome":"+10","Keys":[3357.419999985723],"TotalKeys":1,"Block":2,"Trial":193,"Robot":2,"Valence":"Win","Action":"No-Go","Sham":0,"Color":"yellow","trial_type":"pit-trial","trial_index":210,"time_elapsed":1042860,"internal_node_id":"0.0-199.0","task_version":"test-retest"},{"Rune":"rune_01_yr","Hex":"#3366ff99","Correct":-1,"Choice":32,"RT":1042.3500000033528,"Accuracy":0,"Outcome":"-10","Keys":[2544.1850000061095],"TotalKeys":1,"Block":2,"Trial":194,"Robot":4,"Valence":"Lose","Action":"No-Go","Sham":0,"Color":"blue","trial_type":"pit-trial","trial_index":211,"time_elapsed":1046407,"internal_node_id":"0.0-200.0","task_version":"test-retest"},{"Rune":"rune_01_ear","Hex":"#3366ff99","Correct":32,"Choice":-1,"RT":-1,"Accuracy":0,"Outcome":"-10","Keys":[3204.9950000073295],"TotalKeys":1,"Block":2,"Trial":195,"Robot":3,"Valence":"Lose","Action":"Go","Sham":0,"Color":"blue","trial_type":"pit-trial","trial_index":212,"time_elapsed":1050411,"internal_node_id":"0.0-201.0","task_version":"test-retest"},{"Rune":"rune_01_ger","Hex":"#ffcc3399","Correct":32,"Choice":32,"RT":925.4400000208989,"Accuracy":1,"Outcome":"+10","Keys":[2425.855000008596],"TotalKeys":1,"Block":2,"Trial":196,"Robot":1,"Valence":"Win","Action":"Go","Sham":0,"Color":"yellow","trial_type":"pit-trial","trial_index":213,"time_elapsed":1053840,"internal_node_id":"0.0-202.0","task_version":"test-retest"},{"Rune":"rune_01_ger","Hex":"#ffcc3399","Correct":32,"Choice":32,"RT":1328.1799999822397,"Accuracy":1,"Outcome":"+10","Keys":[2828.255000000354],"TotalKeys":1,"Block":2,"Trial":197,"Robot":1,"Valence":"Win","Action":"Go","Sham":0,"Color":"yellow","trial_type":"pit-trial","trial_index":214,"time_elapsed":1057672,"internal_node_id":"0.0-203.0","task_version":"test-retest"},{"Rune":"rune_01_ear","Hex":"#3366ff99","Correct":32,"Choice":32,"RT":1112.025000009453,"Accuracy":1,"Outcome":"-1","Keys":[2612.5449999817647],"TotalKeys":1,"Block":2,"Trial":198,"Robot":3,"Valence":"Lose","Action":"Go","Sham":0,"Color":"blue","trial_type":"pit-trial","trial_index":215,"time_elapsed":1061287,"internal_node_id":"0.0-204.0","task_version":"test-retest"},{"Rune":"rune_01_ingwaz","Hex":"#ffcc3399","Correct":-1,"Choice":-1,"RT":-1,"Accuracy":1,"Outcome":"+1","Keys":[],"TotalKeys":0,"Block":2,"Trial":199,"Robot":2,"Valence":"Win","Action":"No-Go","Sham":1,"Color":"yellow","trial_type":"pit-trial","trial_index":216,"time_elapsed":1065292,"internal_node_id":"0.0-205.0","task_version":"test-retest"},{"Rune":"rune_01_yr","Hex":"#3366ff99","Correct":-1,"Choice":-1,"RT":-1,"Accuracy":1,"Outcome":"-1","Keys":[],"TotalKeys":0,"Block":2,"Trial":200,"Robot":4,"Valence":"Lose","Action":"No-Go","Sham":0,"Color":"blue","trial_type":"pit-trial","trial_index":217,"time_elapsed":1069296,"internal_node_id":"0.0-206.0","task_version":"test-retest"},{"Rune":"rune_01_ger","Hex":"#ffcc3399","Correct":32,"Choice":-1,"RT":-1,"Accuracy":0,"Outcome":"+10","Keys":[3123.5999999917112],"TotalKeys":1,"Block":2,"Trial":201,"Robot":1,"Valence":"Win","Action":"Go","Sham":1,"Color":"yellow","trial_type":"pit-trial","trial_index":218,"time_elapsed":1073300,"internal_node_id":"0.0-207.0","task_version":"test-retest"},{"Rune":"rune_01_ingwaz","Hex":"#ffcc3399","Correct":-1,"Choice":32,"RT":1443.1299999996554,"Accuracy":0,"Outcome":"+1","Keys":[2943.375000002561],"TotalKeys":1,"Block":2,"Trial":202,"Robot":2,"Valence":"Win","Action":"No-Go","Sham":0,"Color":"yellow","trial_type":"pit-trial","trial_index":219,"time_elapsed":1077247,"internal_node_id":"0.0-208.0","task_version":"test-retest"},{"Rune":"rune_01_ear","Hex":"#3366ff99","Correct":32,"Choice":32,"RT":800.3899999894202,"Accuracy":1,"Outcome":"-10","Keys":[2300.6049999967217],"TotalKeys":1,"Block":2,"Trial":203,"Robot":3,"Valence":"Lose","Action":"Go","Sham":1,"Color":"blue","trial_type":"pit-trial","trial_index":220,"time_elapsed":1080550,"internal_node_id":"0.0-209.0","task_version":"test-retest"},{"Rune":"rune_01_yr","Hex":"#3366ff99","Correct":-1,"Choice":-1,"RT":-1,"Accuracy":1,"Outcome":"-1","Keys":[],"TotalKeys":0,"Block":2,"Trial":204,"Robot":4,"Valence":"Lose","Action":"No-Go","Sham":0,"Color":"blue","trial_type":"pit-trial","trial_index":221,"time_elapsed":1084556,"internal_node_id":"0.0-210.0","task_version":"test-retest"},{"Rune":"rune_01_yr","Hex":"#3366ff99","Correct":-1,"Choice":-1,"RT":-1,"Accuracy":1,"Outcome":"-1","Keys":[3199.385000014445],"TotalKeys":1,"Block":2,"Trial":205,"Robot":4,"Valence":"Lose","Action":"No-Go","Sham":0,"Color":"blue","trial_type":"pit-trial","trial_index":222,"time_elapsed":1088560,"internal_node_id":"0.0-211.0","task_version":"test-retest"},{"Rune":"rune_01_ingwaz","Hex":"#ffcc3399","Correct":-1,"Choice":32,"RT":822.5600000005215,"Accuracy":0,"Outcome":"+1","Keys":[2323.7000000081025],"TotalKeys":1,"Block":2,"Trial":206,"Robot":2,"Valence":"Win","Action":"No-Go","Sham":0,"Color":"yellow","trial_type":"pit-trial","trial_index":223,"time_elapsed":1091887,"internal_node_id":"0.0-212.0","task_version":"test-retest"},{"Rune":"rune_01_ear","Hex":"#3366ff99","Correct":32,"Choice":-1,"RT":-1,"Accuracy":0,"Outcome":"-10","Keys":[],"TotalKeys":0,"Block":2,"Trial":207,"Robot":3,"Valence":"Lose","Action":"Go","Sham":0,"Color":"blue","trial_type":"pit-trial","trial_index":224,"time_elapsed":1095892,"internal_node_id":"0.0-213.0","task_version":"test-retest"},{"Rune":"rune_01_ger","Hex":"#ffcc3399","Correct":32,"Choice":32,"RT":705.6500000180677,"Accuracy":1,"Outcome":"+10","Keys":[2207.719999976689],"TotalKeys":1,"Block":2,"Trial":208,"Robot":1,"Valence":"Win","Action":"Go","Sham":0,"Color":"yellow","trial_type":"pit-trial","trial_index":225,"time_elapsed":1099103,"internal_node_id":"0.0-214.0","task_version":"test-retest"},{"Rune":"rune_01_ear","Hex":"#3366ff99","Correct":32,"Choice":-1,"RT":-1,"Accuracy":0,"Outcome":"-10","Keys":[],"TotalKeys":0,"Block":2,"Trial":209,"Robot":3,"Valence":"Lose","Action":"Go","Sham":0,"Color":"blue","trial_type":"pit-trial","trial_index":226,"time_elapsed":1103107,"internal_node_id":"0.0-215.0","task_version":"test-retest"},{"Rune":"rune_01_yr","Hex":"#3366ff99","Correct":-1,"Choice":-1,"RT":-1,"Accuracy":1,"Outcome":"-10","Keys":[],"TotalKeys":0,"Block":2,"Trial":210,"Robot":4,"Valence":"Lose","Action":"No-Go","Sham":1,"Color":"blue","trial_type":"pit-trial","trial_index":227,"time_elapsed":1107112,"internal_node_id":"0.0-216.0","task_version":"test-retest"},{"Rune":"rune_01_ingwaz","Hex":"#ffcc3399","Correct":-1,"Choice":32,"RT":1086.6249999962747,"Accuracy":0,"Outcome":"+1","Keys":[2587.0949999953154],"TotalKeys":1,"Block":2,"Trial":211,"Robot":2,"Valence":"Win","Action":"No-Go","Sham":0,"Color":"yellow","trial_type":"pit-trial","trial_index":228,"time_elapsed":1110704,"internal_node_id":"0.0-217.0","task_version":"test-retest"},{"Rune":"rune_01_ger","Hex":"#ffcc3399","Correct":32,"Choice":32,"RT":679.5549999806099,"Accuracy":1,"Outcome":"+10","Keys":[2179.870000021765],"TotalKeys":1,"Block":2,"Trial":212,"Robot":1,"Valence":"Win","Action":"Go","Sham":0,"Color":"yellow","trial_type":"pit-trial","trial_index":229,"time_elapsed":1113887,"internal_node_id":"0.0-218.0","task_version":"test-retest"},{"Rune":"rune_01_ger","Hex":"#ffcc3399","Correct":32,"Choice":32,"RT":718.4849999903236,"Accuracy":1,"Outcome":"+10","Keys":[2220.4750000091735],"TotalKeys":1,"Block":2,"Trial":213,"Robot":1,"Valence":"Win","Action":"Go","Sham":0,"Color":"yellow","trial_type":"pit-trial","trial_index":230,"time_elapsed":1117110,"internal_node_id":"0.0-219.0","task_version":"test-retest"},{"Rune":"rune_01_yr","Hex":"#3366ff99","Correct":-1,"Choice":-1,"RT":-1,"Accuracy":1,"Outcome":"-1","Keys":[],"TotalKeys":0,"Block":2,"Trial":214,"Robot":4,"Valence":"Lose","Action":"No-Go","Sham":0,"Color":"blue","trial_type":"pit-trial","trial_index":231,"time_elapsed":1121113,"internal_node_id":"0.0-220.0","task_version":"test-retest"},{"Rune":"rune_01_ingwaz","Hex":"#ffcc3399","Correct":-1,"Choice":32,"RT":846.0449999838602,"Accuracy":0,"Outcome":"+10","Keys":[2346.8250000150874],"TotalKeys":1,"Block":2,"Trial":215,"Robot":2,"Valence":"Win","Action":"No-Go","Sham":1,"Color":"yellow","trial_type":"pit-trial","trial_index":232,"time_elapsed":1124464,"internal_node_id":"0.0-221.0","task_version":"test-retest"},{"Rune":"rune_01_ear","Hex":"#3366ff99","Correct":32,"Choice":-1,"RT":-1,"Accuracy":0,"Outcome":"-10","Keys":[],"TotalKeys":0,"Block":2,"Trial":216,"Robot":3,"Valence":"Lose","Action":"Go","Sham":0,"Color":"blue","trial_type":"pit-trial","trial_index":233,"time_elapsed":1128470,"internal_node_id":"0.0-222.0","task_version":"test-retest"},{"Rune":"rune_01_yr","Hex":"#3366ff99","Correct":-1,"Choice":-1,"RT":-1,"Accuracy":1,"Outcome":"-1","Keys":[],"TotalKeys":0,"Block":2,"Trial":217,"Robot":4,"Valence":"Lose","Action":"No-Go","Sham":0,"Color":"blue","trial_type":"pit-trial","trial_index":234,"time_elapsed":1132475,"internal_node_id":"0.0-223.0","task_version":"test-retest"},{"Rune":"rune_01_ear","Hex":"#3366ff99","Correct":32,"Choice":-1,"RT":-1,"Accuracy":0,"Outcome":"-10","Keys":[],"TotalKeys":0,"Block":2,"Trial":218,"Robot":3,"Valence":"Lose","Action":"Go","Sham":0,"Color":"blue","trial_type":"pit-trial","trial_index":235,"time_elapsed":1136479,"internal_node_id":"0.0-224.0","task_version":"test-retest"},{"Rune":"rune_01_ingwaz","Hex":"#ffcc3399","Correct":-1,"Choice":-1,"RT":-1,"Accuracy":1,"Outcome":"+10","Keys":[],"TotalKeys":0,"Block":2,"Trial":219,"Robot":2,"Valence":"Win","Action":"No-Go","Sham":0,"Color":"yellow","trial_type":"pit-trial","trial_index":236,"time_elapsed":1140483,"internal_node_id":"0.0-225.0","task_version":"test-retest"},{"Rune":"rune_01_ger","Hex":"#ffcc3399","Correct":32,"Choice":32,"RT":548.385000001872,"Accuracy":1,"Outcome":"+10","Keys":[2049.410000006901],"TotalKeys":1,"Block":2,"Trial":220,"Robot":1,"Valence":"Win","Action":"Go","Sham":0,"Color":"yellow","trial_type":"pit-trial","trial_index":237,"time_elapsed":1143537,"internal_node_id":"0.0-226.0","task_version":"test-retest"},{"Rune":"rune_01_ger","Hex":"#ffcc3399","Correct":32,"Choice":32,"RT":1141.620000009425,"Accuracy":1,"Outcome":"+1","Keys":[2642.954999988433],"TotalKeys":1,"Block":2,"Trial":221,"Robot":1,"Valence":"Win","Action":"Go","Sham":1,"Color":"yellow","trial_type":"pit-trial","trial_index":238,"time_elapsed":1147184,"internal_node_id":"0.0-227.0","task_version":"test-retest"},{"Rune":"rune_01_ingwaz","Hex":"#ffcc3399","Correct":-1,"Choice":-1,"RT":-1,"Accuracy":1,"Outcome":"+10","Keys":[],"TotalKeys":0,"Block":2,"Trial":222,"Robot":2,"Valence":"Win","Action":"No-Go","Sham":0,"Color":"yellow","trial_type":"pit-trial","trial_index":239,"time_elapsed":1151188,"internal_node_id":"0.0-228.0","task_version":"test-retest"},{"Rune":"rune_01_ear","Hex":"#3366ff99","Correct":32,"Choice":-1,"RT":-1,"Accuracy":0,"Outcome":"-10","Keys":[],"TotalKeys":0,"Block":2,"Trial":223,"Robot":3,"Valence":"Lose","Action":"Go","Sham":0,"Color":"blue","trial_type":"pit-trial","trial_index":240,"time_elapsed":1155192,"internal_node_id":"0.0-229.0","task_version":"test-retest"},{"Rune":"rune_01_yr","Hex":"#3366ff99","Correct":-1,"Choice":-1,"RT":-1,"Accuracy":1,"Outcome":"-1","Keys":[],"TotalKeys":0,"Block":2,"Trial":224,"Robot":4,"Valence":"Lose","Action":"No-Go","Sham":0,"Color":"blue","trial_type":"pit-trial","trial_index":241,"time_elapsed":1159197,"internal_node_id":"0.0-230.0","task_version":"test-retest"},{"Rune":"rune_01_ingwaz","Hex":"#ffcc3399","Correct":-1,"Choice":-1,"RT":-1,"Accuracy":1,"Outcome":"+10","Keys":[],"TotalKeys":0,"Block":2,"Trial":225,"Robot":2,"Valence":"Win","Action":"No-Go","Sham":0,"Color":"yellow","trial_type":"pit-trial","trial_index":242,"time_elapsed":1163201,"internal_node_id":"0.0-231.0","task_version":"test-retest"},{"Rune":"rune_01_ear","Hex":"#3366ff99","Correct":32,"Choice":32,"RT":726.5649999899324,"Accuracy":1,"Outcome":"-1","Keys":[2227.54999998142],"TotalKeys":1,"Block":2,"Trial":226,"Robot":3,"Valence":"Lose","Action":"Go","Sham":0,"Color":"blue","trial_type":"pit-trial","trial_index":243,"time_elapsed":1166431,"internal_node_id":"0.0-232.0","task_version":"test-retest"},{"Rune":"rune_01_yr","Hex":"#3366ff99","Correct":-1,"Choice":-1,"RT":-1,"Accuracy":1,"Outcome":"-10","Keys":[],"TotalKeys":0,"Block":2,"Trial":227,"Robot":4,"Valence":"Lose","Action":"No-Go","Sham":1,"Color":"blue","trial_type":"pit-trial","trial_index":244,"time_elapsed":1170435,"internal_node_id":"0.0-233.0","task_version":"test-retest"},{"Rune":"rune_01_ger","Hex":"#ffcc3399","Correct":32,"Choice":32,"RT":779.964999994263,"Accuracy":1,"Outcome":"+10","Keys":[2281.2449999910314],"TotalKeys":1,"Block":2,"Trial":228,"Robot":1,"Valence":"Win","Action":"Go","Sham":0,"Color":"yellow","trial_type":"pit-trial","trial_index":245,"time_elapsed":1173719,"internal_node_id":"0.0-234.0","task_version":"test-retest"},{"Rune":"rune_01_ear","Hex":"#3366ff99","Correct":32,"Choice":32,"RT":616.5249999903608,"Accuracy":1,"Outcome":"-1","Keys":[2117.0149999961723],"TotalKeys":1,"Block":2,"Trial":229,"Robot":3,"Valence":"Lose","Action":"Go","Sham":0,"Color":"blue","trial_type":"pit-trial","trial_index":246,"time_elapsed":1176839,"internal_node_id":"0.0-235.0","task_version":"test-retest"},{"Rune":"rune_01_ingwaz","Hex":"#ffcc3399","Correct":-1,"Choice":-1,"RT":-1,"Accuracy":1,"Outcome":"+10","Keys":[],"TotalKeys":0,"Block":2,"Trial":230,"Robot":2,"Valence":"Win","Action":"No-Go","Sham":0,"Color":"yellow","trial_type":"pit-trial","trial_index":247,"time_elapsed":1180843,"internal_node_id":"0.0-236.0","task_version":"test-retest"},{"Rune":"rune_01_ger","Hex":"#ffcc3399","Correct":32,"Choice":32,"RT":1125.014999997802,"Accuracy":1,"Outcome":"+10","Keys":[2625.2350000140723],"TotalKeys":1,"Block":2,"Trial":231,"Robot":1,"Valence":"Win","Action":"Go","Sham":0,"Color":"yellow","trial_type":"pit-trial","trial_index":248,"time_elapsed":1184471,"internal_node_id":"0.0-237.0","task_version":"test-retest"},{"Rune":"rune_01_yr","Hex":"#3366ff99","Correct":-1,"Choice":32,"RT":912.8100000089034,"Accuracy":0,"Outcome":"-10","Keys":[2412.990000011632],"TotalKeys":1,"Block":2,"Trial":232,"Robot":4,"Valence":"Lose","Action":"No-Go","Sham":0,"Color":"blue","trial_type":"pit-trial","trial_index":249,"time_elapsed":1187889,"internal_node_id":"0.0-238.0","task_version":"test-retest"},{"Rune":"rune_01_ger","Hex":"#ffcc3399","Correct":32,"Choice":32,"RT":662.5800000037998,"Accuracy":1,"Outcome":"+10","Keys":[2163.4550000017043],"TotalKeys":1,"Block":2,"Trial":233,"Robot":1,"Valence":"Win","Action":"Go","Sham":0,"Color":"yellow","trial_type":"pit-trial","trial_index":250,"time_elapsed":1191056,"internal_node_id":"0.0-239.0","task_version":"test-retest"},{"Rune":"rune_01_ingwaz","Hex":"#ffcc3399","Correct":-1,"Choice":-1,"RT":-1,"Accuracy":1,"Outcome":"+1","Keys":[],"TotalKeys":0,"Block":2,"Trial":234,"Robot":2,"Valence":"Win","Action":"No-Go","Sham":1,"Color":"yellow","trial_type":"pit-trial","trial_index":251,"time_elapsed":1195062,"internal_node_id":"0.0-240.0","task_version":"test-retest"},{"Rune":"rune_01_ear","Hex":"#3366ff99","Correct":32,"Choice":32,"RT":674.2050000175368,"Accuracy":1,"Outcome":"-1","Keys":[2174.7050000121817],"TotalKeys":1,"Block":2,"Trial":235,"Robot":3,"Valence":"Lose","Action":"Go","Sham":0,"Color":"blue","trial_type":"pit-trial","trial_index":252,"time_elapsed":1198239,"internal_node_id":"0.0-241.0","task_version":"test-retest"},{"Rune":"rune_01_yr","Hex":"#3366ff99","Correct":-1,"Choice":32,"RT":576.9100000034086,"Accuracy":0,"Outcome":"-10","Keys":[2076.9750000035856],"TotalKeys":1,"Block":2,"Trial":236,"Robot":4,"Valence":"Lose","Action":"No-Go","Sham":0,"Color":"blue","trial_type":"pit-trial","trial_index":253,"time_elapsed":1201320,"internal_node_id":"0.0-242.0","task_version":"test-retest"},{"Rune":"rune_01_yr","Hex":"#3366ff99","Correct":-1,"Choice":-1,"RT":-1,"Accuracy":1,"Outcome":"-1","Keys":[],"TotalKeys":0,"Block":2,"Trial":237,"Robot":4,"Valence":"Lose","Action":"No-Go","Sham":0,"Color":"blue","trial_type":"pit-trial","trial_index":254,"time_elapsed":1205325,"internal_node_id":"0.0-243.0","task_version":"test-retest"},{"Rune":"rune_01_ingwaz","Hex":"#ffcc3399","Correct":-1,"Choice":-1,"RT":-1,"Accuracy":1,"Outcome":"+10","Keys":[],"TotalKeys":0,"Block":2,"Trial":238,"Robot":2,"Valence":"Win","Action":"No-Go","Sham":0,"Color":"yellow","trial_type":"pit-trial","trial_index":255,"time_elapsed":1209329,"internal_node_id":"0.0-244.0","task_version":"test-retest"},{"Rune":"rune_01_ger","Hex":"#ffcc3399","Correct":32,"Choice":32,"RT":870.5400000035297,"Accuracy":1,"Outcome":"+10","Keys":[2371.335000003455],"TotalKeys":1,"Block":2,"Trial":239,"Robot":1,"Valence":"Win","Action":"Go","Sham":0,"Color":"yellow","trial_type":"pit-trial","trial_index":256,"time_elapsed":1212705,"internal_node_id":"0.0-245.0","task_version":"test-retest"},{"Rune":"rune_01_ear","Hex":"#3366ff99","Correct":32,"Choice":-1,"RT":-1,"Accuracy":0,"Outcome":"-1","Keys":[],"TotalKeys":0,"Block":2,"Trial":240,"Robot":3,"Valence":"Lose","Action":"Go","Sham":1,"Color":"blue","trial_type":"pit-trial","trial_index":257,"time_elapsed":1216709,"internal_node_id":"0.0-246.0","task_version":"test-retest"},{"view_history":"[{\"page_index\":0,\"viewing_time\":3097.2449999826495}]","rt":3097.730000008596,"trial_type":"pit-instructions","trial_index":258,"time_elapsed":1219808,"internal_node_id":"0.0-247.0","task_version":"test-retest"},{"responses":{"Q11":"1","Q10":"1","Q08":"3","Q01":"3","Q02":"3","Q05":"3","Q04":"3","Q07":"3","Q13":"0","Q12":"1","Q03":"3","Q06":"3","Q09":"1"},"rt":54725.050000008196,"survey":"bisbas","trial_type":"survey-template","trial_index":259,"time_elapsed":1274540,"internal_node_id":"0.0-248.0","task_version":"test-retest"},{"responses":{"Q10":"0","Q11":"0","Q07":"0","Q04":"0","Q13":"0","Q09":"1","Q08":"0","Q02":"1","Q12":"1","Q03":"0","Q14":"0","Q06":"0","Q15":"0","Q05":"0","Q01":"0"},"rt":139203.28500002506,"survey":"7up7down","trial_type":"survey-template","trial_index":260,"time_elapsed":1413748,"internal_node_id":"0.0-249.0","task_version":"test-retest"},{"responses":{"Q04":"0","Q02":"0","Q08":"0","Q07":"0","Q05":"0","Q01":"0","Q03":"0","Q06":"0"},"rt":19530.39999998873,"survey":"gad7","trial_type":"survey-template","trial_index":261,"time_elapsed":1433282,"internal_node_id":"0.0-250.0","task_version":"test-retest"},{"rt":11291.46999999648,"responses":{"age":"43","gender-categorical":"Female","gender-free-response":"","ethnicity":"Not Hispanic or Latino","race":"White","language":"Yes","fluency":"Very well"},"survey":"demographics","trial_type":"survey-demo","trial_index":262,"time_elapsed":1444578,"internal_node_id":"0.0-251.0","task_version":"test-retest"},{"rt":20963.160000013886,"responses":{"difficulty":"2","fun":"4","clarity":"5","strategy":"No","feedback":"NA"},"survey":"debrief","trial_type":"survey-debrief","trial_index":263,"time_elapsed":1465544,"internal_node_id":"0.0-252.0","task_version":"test-retest"},{"rt":12626.149999996414,"stimulus":"You earned a bonus of $0.95 out of $1.5.<br><br>Press any key to complete the experiment.","key_press":70,"trial_type":"html-keyboard-response","trial_index":264,"time_elapsed":1478173,"internal_node_id":"0.0-253.0","task_version":"test-retest","accuracy":0.6333333333333333,"bonus":0.95,"interactions":"[{\"event\":\"blur\",\"trial\":11,\"time\":98373},{\"event\":\"focus\",\"trial\":11,\"time\":130220},{\"event\":\"blur\",\"trial\":11,\"time\":211547},{\"event\":\"focus\",\"trial\":11,\"time\":211847}]"}]