[{"slider_type":"valence","raw_loc":726,"loc":0.952,"trial_type":"affective-slider","trial_index":0,"time_elapsed":8301,"internal_node_id":"0.0-0.0","task_version":"test-retest-t4"},{"responses":{"Q05":"0","Q08":"0","Q01":"0","Q06":"0","Q07":"0","Q04":"0","Q03":"0","Q02":"0"},"rt":10426.664999999048,"survey":"gad7","trial_type":"survey-template","trial_index":1,"time_elapsed":18739,"internal_node_id":"0.0-1.0","task_version":"test-retest-t4"},{"responses":{"Q11":"1","Q09":"1","Q15":"1","Q05":"0","Q03":"2","Q02":"2","Q10":"1","Q01":"1","Q04":"1","Q12":"0","Q08":"1","Q14":"0","Q07":"2","Q06":"2","Q13":"2"},"rt":51090.86500000558,"survey":"7up7down","trial_type":"survey-template","trial_index":2,"time_elapsed":69837,"internal_node_id":"0.0-2.0","task_version":"test-retest-t4"},{"responses":{"Q11":"3","Q12":"3","Q07":"3","Q01":"1","Q13":"0","Q10":"3","Q02":"1","Q09":"2","Q04":"2","Q03":"2","Q06":"3","Q08":"3","Q05":"3"},"rt":32448.049999999057,"survey":"bisbas","trial_type":"survey-template","trial_index":3,"time_elapsed":102292,"internal_node_id":"0.0-3.0","task_version":"test-retest-t4"},{"view_history":"[{\"page_index\":0,\"viewing_time\":2664.2350000038277},{\"page_index\":1,\"viewing_time\":991.4999999964493},{\"page_index\":2,\"viewing_time\":1160.0150000012945},{\"page_index\":3,\"viewing_time\":2695.879999999306},{\"page_index\":4,\"viewing_time\":2504.6300000030897},{\"page_index\":5,\"viewing_time\":1263.6249999995925}]","rt":11281.425000001036,"trial_type":"pit-instructions","trial_index":4,"time_elapsed":113584,"internal_node_id":"0.0-4.0-0.0","task_version":"test-retest-t4"},{"Rune":"rune_00_ingz","Hex":"#FFFFF080","Correct":32,"Choice":-1,"RT":-1,"Accuracy":0,"Outcome":"+0","Keys":[3172.9550000018207],"TotalKeys":1,"Block":0,"Action":"Go","trial_type":"pit-trial","trial_index":5,"time_elapsed":117593,"internal_node_id":"0.0-4.0-1.0-0.0","task_version":"test-retest-t4"},{"Rune":"rune_00_ingz","Hex":"#FFFFF080","Correct":32,"Choice":32,"RT":36.59499999776017,"Accuracy":1,"Outcome":"+10","Keys":[1536.6750000030152],"TotalKeys":1,"Block":0,"Action":"Go","trial_type":"pit-trial","trial_index":6,"time_elapsed":120146,"internal_node_id":"0.0-4.0-1.0-0.1","task_version":"test-retest-t4"},{"Rune":"rune_00_ingz","Hex":"#FFFFF080","Correct":32,"Choice":32,"RT":304.7450000012759,"Accuracy":1,"Outcome":"+10","Keys":[1806.0550000009243],"TotalKeys":1,"Block":0,"Action":"Go","trial_type":"pit-trial","trial_index":7,"time_elapsed":122961,"internal_node_id":"0.0-4.0-1.0-0.2","task_version":"test-retest-t4"},{"Rune":"rune_00_ingz","Hex":"#FFFFF080","Correct":32,"Choice":32,"RT":408.9499999972759,"Accuracy":1,"Outcome":"+10","Keys":[506.6450000012992,1910.0499999985914],"TotalKeys":2,"Block":0,"Action":"Go","trial_type":"pit-trial","trial_index":8,"time_elapsed":125879,"internal_node_id":"0.0-4.0-1.0-0.3","task_version":"test-retest-t4"},{"view_history":"[{\"page_index\":0,\"viewing_time\":5092.259999997623}]","rt":5093.0999999982305,"trial_type":"pit-instructions","trial_index":9,"time_elapsed":130975,"internal_node_id":"0.0-4.0-2.0","task_version":"test-retest-t4"},{"Rune":"rune_00_isaz","Hex":"#FFFFF080","Correct":-1,"Choice":-1,"RT":-1,"Accuracy":1,"Outcome":"+10","Keys":[],"TotalKeys":0,"Block":0,"Action":"No-Go","trial_type":"pit-trial","trial_index":10,"time_elapsed":136833,"internal_node_id":"0.0-4.0-3.0-0.0","task_version":"test-retest-t4"},{"Rune":"rune_00_isaz","Hex":"#FFFFF080","Correct":-1,"Choice":-1,"RT":-1,"Accuracy":1,"Outcome":"+10","Keys":[],"TotalKeys":0,"Block":0,"Action":"No-Go","trial_type":"pit-trial","trial_index":11,"time_elapsed":143193,"internal_node_id":"0.0-4.0-3.0-0.1","task_version":"test-retest-t4"},{"Rune":"rune_00_isaz","Hex":"#FFFFF080","Correct":-1,"Choice":-1,"RT":-1,"Accuracy":1,"Outcome":"+10","Keys":[],"TotalKeys":0,"Block":0,"Action":"No-Go","trial_type":"pit-trial","trial_index":12,"time_elapsed":148180,"internal_node_id":"0.0-4.0-3.0-0.2","task_version":"test-retest-t4"},{"Rune":"rune_00_isaz","Hex":"#FFFFF080","Correct":-1,"Choice":-1,"RT":-1,"Accuracy":1,"Outcome":"+10","Keys":[],"TotalKeys":0,"Block":0,"Action":"No-Go","trial_type":"pit-trial","trial_index":13,"time_elapsed":152198,"internal_node_id":"0.0-4.0-3.0-0.3","task_version":"test-retest-t4"},{"view_history":"[{\"page_index\":0,\"viewing_time\":14157.505000002857},{\"page_index\":1,\"viewing_time\":527.4799999970128},{\"page_index\":2,\"viewing_time\":272.5700000009965},{\"page_index\":3,\"viewing_time\":231.57999999966705},{\"page_index\":4,\"viewing_time\":495.9549999985029},{\"page_index\":5,\"viewing_time\":440.0549999991199},{\"page_index\":6,\"viewing_time\":472.1750000026077},{\"page_index\":7,\"viewing_time\":439.7899999967194}]","rt":17037.819999997737,"trial_type":"pit-instructions","trial_index":14,"time_elapsed":169239,"internal_node_id":"0.0-4.0-4.0","task_version":"test-retest-t4"},{"responses":["Do nothing","-1","+10","True","Yes"],"num_errors":2,"rt":16626.085000003513,"trial_type":"pit-comprehension","trial_index":15,"time_elapsed":185873,"internal_node_id":"0.0-4.0-5.0","task_version":"test-retest-t4"},{"view_history":"[{\"page_index\":0,\"viewing_time\":3007.9550000009476},{\"page_index\":1,\"viewing_time\":999.7349999975995},{\"page_index\":2,\"viewing_time\":1224.2049999986193},{\"page_index\":3,\"viewing_time\":4144.184999997378},{\"page_index\":4,\"viewing_time\":2552.530000000843},{\"page_index\":5,\"viewing_time\":1943.3350000035716}]","rt":13872.669999997015,"trial_type":"pit-instructions","trial_index":16,"time_elapsed":199759,"internal_node_id":"0.0-4.1-0.1","task_version":"test-retest-t4"},{"Rune":"rune_00_ingz","Hex":"#FFFFF080","Correct":32,"Choice":32,"RT":175.70499999419553,"Accuracy":1,"Outcome":"+10","Keys":[1676.7100000070059],"TotalKeys":1,"Block":0,"Action":"Go","trial_type":"pit-trial","trial_index":17,"time_elapsed":202441,"internal_node_id":"0.0-4.1-1.1-0.4","task_version":"test-retest-t4"},{"Rune":"rune_00_ingz","Hex":"#FFFFF080","Correct":32,"Choice":32,"RT":356.6699999937555,"Accuracy":1,"Outcome":"+10","Keys":[1407.2799999994459,1857.1299999966868],"TotalKeys":2,"Block":0,"Action":"Go","trial_type":"pit-trial","trial_index":18,"time_elapsed":205305,"internal_node_id":"0.0-4.1-1.1-0.5","task_version":"test-retest-t4"},{"Rune":"rune_00_ingz","Hex":"#FFFFF080","Correct":32,"Choice":32,"RT":47.34499999904074,"Accuracy":1,"Outcome":"+10","Keys":[1549.0649999992456],"TotalKeys":1,"Block":0,"Action":"Go","trial_type":"pit-trial","trial_index":19,"time_elapsed":207862,"internal_node_id":"0.0-4.1-1.1-0.6","task_version":"test-retest-t4"},{"Rune":"rune_00_ingz","Hex":"#FFFFF080","Correct":32,"Choice":32,"RT":742.5399999992806,"Accuracy":1,"Outcome":"+10","Keys":[1493.5399999958463,2244.4649999961257],"TotalKeys":2,"Block":0,"Action":"Go","trial_type":"pit-trial","trial_index":20,"time_elapsed":211112,"internal_node_id":"0.0-4.1-1.1-0.7","task_version":"test-retest-t4"},{"view_history":"[{\"page_index\":0,\"viewing_time\":2883.459999997285}]","rt":2884.2699999950128,"trial_type":"pit-instructions","trial_index":21,"time_elapsed":213999,"internal_node_id":"0.0-4.1-2.1","task_version":"test-retest-t4"},{"Rune":"rune_00_isaz","Hex":"#FFFFF080","Correct":-1,"Choice":-1,"RT":-1,"Accuracy":1,"Outcome":"+10","Keys":[],"TotalKeys":0,"Block":0,"Action":"No-Go","trial_type":"pit-trial","trial_index":22,"time_elapsed":218014,"internal_node_id":"0.0-4.1-3.1-0.4","task_version":"test-retest-t4"},{"Rune":"rune_00_isaz","Hex":"#FFFFF080","Correct":-1,"Choice":-1,"RT":-1,"Accuracy":1,"Outcome":"+10","Keys":[],"TotalKeys":0,"Block":0,"Action":"No-Go","trial_type":"pit-trial","trial_index":23,"time_elapsed":222030,"internal_node_id":"0.0-4.1-3.1-0.5","task_version":"test-retest-t4"},{"Rune":"rune_00_isaz","Hex":"#FFFFF080","Correct":-1,"Choice":-1,"RT":-1,"Accuracy":1,"Outcome":"+10","Keys":[],"TotalKeys":0,"Block":0,"Action":"No-Go","trial_type":"pit-trial","trial_index":24,"time_elapsed":226043,"internal_node_id":"0.0-4.1-3.1-0.6","task_version":"test-retest-t4"},{"Rune":"rune_00_isaz","Hex":"#FFFFF080","Correct":-1,"Choice":-1,"RT":-1,"Accuracy":1,"Outcome":"+10","Keys":[],"TotalKeys":0,"Block":0,"Action":"No-Go","trial_type":"pit-trial","trial_index":25,"time_elapsed":230058,"internal_node_id":"0.0-4.1-3.1-0.7","task_version":"test-retest-t4"},{"view_history":"[{\"page_index\":0,\"viewing_time\":2688.174999995681},{\"page_index\":1,\"viewing_time\":6264.030000005732},{\"page_index\":2,\"viewing_time\":1280.1999999937834},{\"page_index\":3,\"viewing_time\":1223.8500000021304},{\"page_index\":4,\"viewing_time\":776.1850000024424},{\"page_index\":5,\"viewing_time\":639.484999999695},{\"page_index\":6,\"viewing_time\":776.0849999976926},{\"page_index\":7,\"viewing_time\":608.250000004773}]","rt":14256.970000002184,"trial_type":"pit-instructions","trial_index":26,"time_elapsed":244319,"internal_node_id":"0.0-4.1-4.1","task_version":"test-retest-t4"},{"responses":["Do nothing","+10","-1","True","Yes"],"num_errors":0,"rt":588350.4749999994,"trial_type":"pit-comprehension","trial_index":27,"time_elapsed":832675,"internal_node_id":"0.0-4.1-5.1","task_version":"test-retest-t4"},{"trial_type":"call-function","trial_index":28,"time_elapsed":832681,"internal_node_id":"0.0-5.0","task_version":"test-retest-t4"},{"view_history":"[{\"page_index\":0,\"viewing_time\":25708.11500000127},{\"page_index\":1,\"viewing_time\":2871.6099999947473},{\"page_index\":2,\"viewing_time\":2928.8300000042655}]","rt":31509.400000002584,"trial_type":"pit-instructions","trial_index":29,"time_elapsed":864192,"internal_node_id":"0.0-6.0","task_version":"test-retest-t4"},{"Rune":"rune_08_fehu","Hex":"#ffcc3399","Correct":-1,"Choice":32,"RT":436.2649999966379,"Accuracy":0,"Outcome":"+1","Keys":[1937.3999999952503],"TotalKeys":1,"Block":1,"Trial":1,"Robot":2,"Valence":"Win","Action":"No-Go","Sham":0,"Color":"yellow","trial_type":"pit-trial","trial_index":30,"time_elapsed":867139,"internal_node_id":"0.0-7.0","task_version":"test-retest-t4"},{"Rune":"rune_08_mannaz","Hex":"#3366ff99","Correct":32,"Choice":32,"RT":604.9150000035297,"Accuracy":1,"Outcome":"-1","Keys":[2105.1650000009686],"TotalKeys":1,"Block":1,"Trial":2,"Robot":3,"Valence":"Lose","Action":"Go","Sham":0,"Color":"blue","trial_type":"pit-trial","trial_index":31,"time_elapsed":870251,"internal_node_id":"0.0-8.0","task_version":"test-retest-t4"},{"Rune":"rune_08_sigel","Hex":"#ffcc3399","Correct":32,"Choice":32,"RT":469.51500000432134,"Accuracy":1,"Outcome":"+1","Keys":[1971.7099999978673],"TotalKeys":1,"Block":1,"Trial":3,"Robot":1,"Valence":"Win","Action":"Go","Sham":1,"Color":"yellow","trial_type":"pit-trial","trial_index":32,"time_elapsed":873232,"internal_node_id":"0.0-9.0","task_version":"test-retest-t4"},{"Rune":"rune_08_pertho","Hex":"#3366ff99","Correct":-1,"Choice":32,"RT":470.04500000178814,"Accuracy":0,"Outcome":"-10","Keys":[1971.080000002985],"TotalKeys":1,"Block":1,"Trial":4,"Robot":4,"Valence":"Lose","Action":"No-Go","Sham":0,"Color":"blue","trial_type":"pit-trial","trial_index":33,"time_elapsed":876212,"internal_node_id":"0.0-10.0","task_version":"test-retest-t4"},{"Rune":"rune_08_mannaz","Hex":"#3366ff99","Correct":32,"Choice":32,"RT":483.25499999918975,"Accuracy":1,"Outcome":"-1","Keys":[1984.9949999989476],"TotalKeys":1,"Block":1,"Trial":5,"Robot":3,"Valence":"Lose","Action":"Go","Sham":0,"Color":"blue","trial_type":"pit-trial","trial_index":34,"time_elapsed":879205,"internal_node_id":"0.0-11.0","task_version":"test-retest-t4"},{"Rune":"rune_08_sigel","Hex":"#ffcc3399","Correct":32,"Choice":32,"RT":88.6400000017602,"Accuracy":1,"Outcome":"+10","Keys":[1589.025000001071],"TotalKeys":1,"Block":1,"Trial":6,"Robot":1,"Valence":"Win","Action":"Go","Sham":0,"Color":"yellow","trial_type":"pit-trial","trial_index":35,"time_elapsed":881812,"internal_node_id":"0.0-12.0","task_version":"test-retest-t4"},{"Rune":"rune_08_pertho","Hex":"#3366ff99","Correct":-1,"Choice":-1,"RT":-1,"Accuracy":1,"Outcome":"-10","Keys":[],"TotalKeys":0,"Block":1,"Trial":7,"Robot":4,"Valence":"Lose","Action":"No-Go","Sham":1,"Color":"blue","trial_type":"pit-trial","trial_index":36,"time_elapsed":885820,"internal_node_id":"0.0-13.0","task_version":"test-retest-t4"},{"Rune":"rune_08_fehu","Hex":"#ffcc3399","Correct":-1,"Choice":-1,"RT":-1,"Accuracy":1,"Outcome":"+10","Keys":[],"TotalKeys":0,"Block":1,"Trial":8,"Robot":2,"Valence":"Win","Action":"No-Go","Sham":0,"Color":"yellow","trial_type":"pit-trial","trial_index":37,"time_elapsed":889827,"internal_node_id":"0.0-14.0","task_version":"test-retest-t4"},{"Rune":"rune_08_sigel","Hex":"#ffcc3399","Correct":32,"Choice":-1,"RT":-1,"Accuracy":0,"Outcome":"+1","Keys":[],"TotalKeys":0,"Block":1,"Trial":9,"Robot":1,"Valence":"Win","Action":"Go","Sham":0,"Color":"yellow","trial_type":"pit-trial","trial_index":38,"time_elapsed":893843,"internal_node_id":"0.0-15.0","task_version":"test-retest-t4"},{"Rune":"rune_08_fehu","Hex":"#ffcc3399","Correct":-1,"Choice":-1,"RT":-1,"Accuracy":1,"Outcome":"+10","Keys":[],"TotalKeys":0,"Block":1,"Trial":10,"Robot":2,"Valence":"Win","Action":"No-Go","Sham":0,"Color":"yellow","trial_type":"pit-trial","trial_index":39,"time_elapsed":897858,"internal_node_id":"0.0-16.0","task_version":"test-retest-t4"},{"Rune":"rune_08_pertho","Hex":"#3366ff99","Correct":-1,"Choice":32,"RT":1057.3400000067195,"Accuracy":0,"Outcome":"-10","Keys":[2558.014999995008],"TotalKeys":1,"Block":1,"Trial":11,"Robot":4,"Valence":"Lose","Action":"No-Go","Sham":0,"Color":"blue","trial_type":"pit-trial","trial_index":40,"time_elapsed":901423,"internal_node_id":"0.0-17.0","task_version":"test-retest-t4"},{"Rune":"rune_08_mannaz","Hex":"#3366ff99","Correct":32,"Choice":-1,"RT":-1,"Accuracy":0,"Outcome":"-1","Keys":[],"TotalKeys":0,"Block":1,"Trial":12,"Robot":3,"Valence":"Lose","Action":"Go","Sham":1,"Color":"blue","trial_type":"pit-trial","trial_index":41,"time_elapsed":905431,"internal_node_id":"0.0-18.0","task_version":"test-retest-t4"},{"Rune":"rune_08_pertho","Hex":"#3366ff99","Correct":-1,"Choice":32,"RT":739.224999997532,"Accuracy":0,"Outcome":"-10","Keys":[2240.734999999404],"TotalKeys":1,"Block":1,"Trial":13,"Robot":4,"Valence":"Lose","Action":"No-Go","Sham":0,"Color":"blue","trial_type":"pit-trial","trial_index":42,"time_elapsed":908679,"internal_node_id":"0.0-19.0","task_version":"test-retest-t4"},{"Rune":"rune_08_mannaz","Hex":"#3366ff99","Correct":32,"Choice":-1,"RT":-1,"Accuracy":0,"Outcome":"-10","Keys":[],"TotalKeys":0,"Block":1,"Trial":14,"Robot":3,"Valence":"Lose","Action":"Go","Sham":0,"Color":"blue","trial_type":"pit-trial","trial_index":43,"time_elapsed":912687,"internal_node_id":"0.0-20.0","task_version":"test-retest-t4"},{"Rune":"rune_08_sigel","Hex":"#ffcc3399","Correct":32,"Choice":32,"RT":603.4950000031386,"Accuracy":1,"Outcome":"+10","Keys":[2105.294999993872],"TotalKeys":1,"Block":1,"Trial":15,"Robot":1,"Valence":"Win","Action":"Go","Sham":0,"Color":"yellow","trial_type":"pit-trial","trial_index":44,"time_elapsed":915801,"internal_node_id":"0.0-21.0","task_version":"test-retest-t4"},{"Rune":"rune_08_fehu","Hex":"#ffcc3399","Correct":-1,"Choice":-1,"RT":-1,"Accuracy":1,"Outcome":"+10","Keys":[],"TotalKeys":0,"Block":1,"Trial":16,"Robot":2,"Valence":"Win","Action":"No-Go","Sham":0,"Color":"yellow","trial_type":"pit-trial","trial_index":45,"time_elapsed":919809,"internal_node_id":"0.0-22.0","task_version":"test-retest-t4"},{"Rune":"rune_08_mannaz","Hex":"#3366ff99","Correct":32,"Choice":-1,"RT":-1,"Accuracy":0,"Outcome":"-10","Keys":[],"TotalKeys":0,"Block":1,"Trial":17,"Robot":3,"Valence":"Lose","Action":"Go","Sham":0,"Color":"blue","trial_type":"pit-trial","trial_index":46,"time_elapsed":923818,"internal_node_id":"0.0-23.0","task_version":"test-retest-t4"},{"Rune":"rune_08_pertho","Hex":"#3366ff99","Correct":-1,"Choice":-1,"RT":-1,"Accuracy":1,"Outcome":"-1","Keys":[],"TotalKeys":0,"Block":1,"Trial":18,"Robot":4,"Valence":"Lose","Action":"No-Go","Sham":0,"Color":"blue","trial_type":"pit-trial","trial_index":47,"time_elapsed":927825,"internal_node_id":"0.0-24.0","task_version":"test-retest-t4"},{"Rune":"rune_08_sigel","Hex":"#ffcc3399","Correct":32,"Choice":32,"RT":433.0550000013318,"Accuracy":1,"Outcome":"+10","Keys":[1934.8400000017136],"TotalKeys":1,"Block":1,"Trial":19,"Robot":1,"Valence":"Win","Action":"Go","Sham":0,"Color":"yellow","trial_type":"pit-trial","trial_index":48,"time_elapsed":930767,"internal_node_id":"0.0-25.0","task_version":"test-retest-t4"},{"Rune":"rune_08_fehu","Hex":"#ffcc3399","Correct":-1,"Choice":-1,"RT":-1,"Accuracy":1,"Outcome":"+1","Keys":[],"TotalKeys":0,"Block":1,"Trial":20,"Robot":2,"Valence":"Win","Action":"No-Go","Sham":1,"Color":"yellow","trial_type":"pit-trial","trial_index":49,"time_elapsed":934776,"internal_node_id":"0.0-26.0","task_version":"test-retest-t4"},{"Rune":"rune_08_sigel","Hex":"#ffcc3399","Correct":32,"Choice":32,"RT":469.5199999988545,"Accuracy":1,"Outcome":"+10","Keys":[1971.1800000004005],"TotalKeys":1,"Block":1,"Trial":21,"Robot":1,"Valence":"Win","Action":"Go","Sham":0,"Color":"yellow","trial_type":"pit-trial","trial_index":50,"time_elapsed":937756,"internal_node_id":"0.0-27.0","task_version":"test-retest-t4"},{"Rune":"rune_08_mannaz","Hex":"#3366ff99","Correct":32,"Choice":32,"RT":691.4050000049174,"Accuracy":1,"Outcome":"-1","Keys":[2192.519999996759],"TotalKeys":1,"Block":1,"Trial":22,"Robot":3,"Valence":"Lose","Action":"Go","Sham":0,"Color":"blue","trial_type":"pit-trial","trial_index":51,"time_elapsed":940955,"internal_node_id":"0.0-28.0","task_version":"test-retest-t4"},{"Rune":"rune_08_pertho","Hex":"#3366ff99","Correct":-1,"Choice":32,"RT":853.8000000043539,"Accuracy":0,"Outcome":"-10","Keys":[2354.5199999934994],"TotalKeys":1,"Block":1,"Trial":23,"Robot":4,"Valence":"Lose","Action":"No-Go","Sham":0,"Color":"blue","trial_type":"pit-trial","trial_index":52,"time_elapsed":944318,"internal_node_id":"0.0-29.0","task_version":"test-retest-t4"},{"Rune":"rune_08_fehu","Hex":"#ffcc3399","Correct":-1,"Choice":32,"RT":454.46500000252854,"Accuracy":0,"Outcome":"+1","Keys":[1955.050000004121],"TotalKeys":1,"Block":1,"Trial":24,"Robot":2,"Valence":"Win","Action":"No-Go","Sham":0,"Color":"yellow","trial_type":"pit-trial","trial_index":53,"time_elapsed":947283,"internal_node_id":"0.0-30.0","task_version":"test-retest-t4"},{"Rune":"rune_08_pertho","Hex":"#3366ff99","Correct":-1,"Choice":32,"RT":614.3999999985099,"Accuracy":0,"Outcome":"-10","Keys":[2114.999999998021],"TotalKeys":1,"Block":1,"Trial":25,"Robot":4,"Valence":"Lose","Action":"No-Go","Sham":0,"Color":"blue","trial_type":"pit-trial","trial_index":54,"time_elapsed":950405,"internal_node_id":"0.0-31.0","task_version":"test-retest-t4"},{"Rune":"rune_08_mannaz","Hex":"#3366ff99","Correct":32,"Choice":32,"RT":246.129999999539,"Accuracy":1,"Outcome":"-10","Keys":[1746.3100000022678],"TotalKeys":1,"Block":1,"Trial":26,"Robot":3,"Valence":"Lose","Action":"Go","Sham":1,"Color":"blue","trial_type":"pit-trial","trial_index":55,"time_elapsed":953159,"internal_node_id":"0.0-32.0","task_version":"test-retest-t4"},{"Rune":"rune_08_sigel","Hex":"#ffcc3399","Correct":32,"Choice":32,"RT":272.5399999980582,"Accuracy":1,"Outcome":"+10","Keys":[1772.5549999959767],"TotalKeys":1,"Block":1,"Trial":27,"Robot":1,"Valence":"Win","Action":"Go","Sham":0,"Color":"yellow","trial_type":"pit-trial","trial_index":56,"time_elapsed":955939,"internal_node_id":"0.0-33.0","task_version":"test-retest-t4"},{"Rune":"rune_08_fehu","Hex":"#ffcc3399","Correct":-1,"Choice":32,"RT":370.0650000027381,"Accuracy":0,"Outcome":"+10","Keys":[1871.0500000014435],"TotalKeys":1,"Block":1,"Trial":28,"Robot":2,"Valence":"Win","Action":"No-Go","Sham":1,"Color":"yellow","trial_type":"pit-trial","trial_index":57,"time_elapsed":958819,"internal_node_id":"0.0-34.0","task_version":"test-retest-t4"},{"Rune":"rune_08_sigel","Hex":"#ffcc3399","Correct":32,"Choice":32,"RT":387.7500000016298,"Accuracy":1,"Outcome":"+10","Keys":[1889.0150000007125],"TotalKeys":1,"Block":1,"Trial":29,"Robot":1,"Valence":"Win","Action":"Go","Sham":0,"Color":"yellow","trial_type":"pit-trial","trial_index":58,"time_elapsed":961716,"internal_node_id":"0.0-35.0","task_version":"test-retest-t4"},{"Rune":"rune_08_fehu","Hex":"#ffcc3399","Correct":-1,"Choice":32,"RT":400.9599999990314,"Accuracy":0,"Outcome":"+1","Keys":[1902.4350000036648],"TotalKeys":1,"Block":1,"Trial":30,"Robot":2,"Valence":"Win","Action":"No-Go","Sham":0,"Color":"yellow","trial_type":"pit-trial","trial_index":59,"time_elapsed":964625,"internal_node_id":"0.0-36.0","task_version":"test-retest-t4"},{"Rune":"rune_08_pertho","Hex":"#3366ff99","Correct":-1,"Choice":-1,"RT":-1,"Accuracy":1,"Outcome":"-1","Keys":[],"TotalKeys":0,"Block":1,"Trial":31,"Robot":4,"Valence":"Lose","Action":"No-Go","Sham":0,"Color":"blue","trial_type":"pit-trial","trial_index":60,"time_elapsed":968633,"internal_node_id":"0.0-37.0","task_version":"test-retest-t4"},{"Rune":"rune_08_mannaz","Hex":"#3366ff99","Correct":32,"Choice":32,"RT":400.67000000271946,"Accuracy":1,"Outcome":"-1","Keys":[1900.8749999993015],"TotalKeys":1,"Block":1,"Trial":32,"Robot":3,"Valence":"Lose","Action":"Go","Sham":0,"Color":"blue","trial_type":"pit-trial","trial_index":61,"time_elapsed":971541,"internal_node_id":"0.0-38.0","task_version":"test-retest-t4"},{"Rune":"rune_08_pertho","Hex":"#3366ff99","Correct":-1,"Choice":-1,"RT":-1,"Accuracy":1,"Outcome":"-1","Keys":[],"TotalKeys":0,"Block":1,"Trial":33,"Robot":4,"Valence":"Lose","Action":"No-Go","Sham":0,"Color":"blue","trial_type":"pit-trial","trial_index":62,"time_elapsed":975551,"internal_node_id":"0.0-39.0","task_version":"test-retest-t4"},{"Rune":"rune_08_sigel","Hex":"#ffcc3399","Correct":32,"Choice":32,"RT":469.15000000444707,"Accuracy":1,"Outcome":"+10","Keys":[1970.7199999976438],"TotalKeys":1,"Block":1,"Trial":34,"Robot":1,"Valence":"Win","Action":"Go","Sham":0,"Color":"yellow","trial_type":"pit-trial","trial_index":63,"time_elapsed":978529,"internal_node_id":"0.0-40.0","task_version":"test-retest-t4"},{"Rune":"rune_08_mannaz","Hex":"#3366ff99","Correct":32,"Choice":32,"RT":512.7649999994319,"Accuracy":1,"Outcome":"-1","Keys":[2013.1649999966612],"TotalKeys":1,"Block":1,"Trial":35,"Robot":3,"Valence":"Lose","Action":"Go","Sham":0,"Color":"blue","trial_type":"pit-trial","trial_index":64,"time_elapsed":981550,"internal_node_id":"0.0-41.0","task_version":"test-retest-t4"},{"Rune":"rune_08_fehu","Hex":"#ffcc3399","Correct":-1,"Choice":32,"RT":384.18499999528285,"Accuracy":0,"Outcome":"+1","Keys":[1885.5649999969173],"TotalKeys":1,"Block":1,"Trial":36,"Robot":2,"Valence":"Win","Action":"No-Go","Sham":0,"Color":"yellow","trial_type":"pit-trial","trial_index":65,"time_elapsed":984442,"internal_node_id":"0.0-42.0","task_version":"test-retest-t4"},{"Rune":"rune_08_mannaz","Hex":"#3366ff99","Correct":32,"Choice":32,"RT":331.96000000310596,"Accuracy":1,"Outcome":"-1","Keys":[1832.7550000031479],"TotalKeys":1,"Block":1,"Trial":37,"Robot":3,"Valence":"Lose","Action":"Go","Sham":0,"Color":"blue","trial_type":"pit-trial","trial_index":66,"time_elapsed":987294,"internal_node_id":"0.0-43.0","task_version":"test-retest-t4"},{"Rune":"rune_08_sigel","Hex":"#ffcc3399","Correct":32,"Choice":32,"RT":197.72999999974854,"Accuracy":1,"Outcome":"+1","Keys":[1699.5650000025053],"TotalKeys":1,"Block":1,"Trial":38,"Robot":1,"Valence":"Win","Action":"Go","Sham":1,"Color":"yellow","trial_type":"pit-trial","trial_index":67,"time_elapsed":990003,"internal_node_id":"0.0-44.0","task_version":"test-retest-t4"},{"Rune":"rune_08_fehu","Hex":"#ffcc3399","Correct":-1,"Choice":32,"RT":273.1899999998277,"Accuracy":0,"Outcome":"+1","Keys":[1774.3699999991804],"TotalKeys":1,"Block":1,"Trial":39,"Robot":2,"Valence":"Win","Action":"No-Go","Sham":0,"Color":"yellow","trial_type":"pit-trial","trial_index":68,"time_elapsed":992786,"internal_node_id":"0.0-45.0","task_version":"test-retest-t4"},{"Rune":"rune_08_pertho","Hex":"#3366ff99","Correct":-1,"Choice":-1,"RT":-1,"Accuracy":1,"Outcome":"-10","Keys":[],"TotalKeys":0,"Block":1,"Trial":40,"Robot":4,"Valence":"Lose","Action":"No-Go","Sham":1,"Color":"blue","trial_type":"pit-trial","trial_index":69,"time_elapsed":996819,"internal_node_id":"0.0-46.0","task_version":"test-retest-t4"},{"Rune":"rune_08_mannaz","Hex":"#3366ff99","Correct":32,"Choice":32,"RT":550.4999999976717,"Accuracy":1,"Outcome":"-1","Keys":[2051.2549999984913],"TotalKeys":1,"Block":1,"Trial":41,"Robot":3,"Valence":"Lose","Action":"Go","Sham":0,"Color":"blue","trial_type":"pit-trial","trial_index":70,"time_elapsed":999878,"internal_node_id":"0.0-47.0","task_version":"test-retest-t4"},{"Rune":"rune_08_sigel","Hex":"#ffcc3399","Correct":32,"Choice":32,"RT":502.30000000004657,"Accuracy":1,"Outcome":"+10","Keys":[2003.8799999966286],"TotalKeys":1,"Block":1,"Trial":42,"Robot":1,"Valence":"Win","Action":"Go","Sham":0,"Color":"yellow","trial_type":"pit-trial","trial_index":71,"time_elapsed":1002890,"internal_node_id":"0.0-48.0","task_version":"test-retest-t4"},{"Rune":"rune_08_pertho","Hex":"#3366ff99","Correct":-1,"Choice":-1,"RT":-1,"Accuracy":1,"Outcome":"-10","Keys":[],"TotalKeys":0,"Block":1,"Trial":43,"Robot":4,"Valence":"Lose","Action":"No-Go","Sham":1,"Color":"blue","trial_type":"pit-trial","trial_index":72,"time_elapsed":1006899,"internal_node_id":"0.0-49.0","task_version":"test-retest-t4"},{"Rune":"rune_08_fehu","Hex":"#ffcc3399","Correct":-1,"Choice":32,"RT":374.9400000014575,"Accuracy":0,"Outcome":"+10","Keys":[1875.8800000068732],"TotalKeys":1,"Block":1,"Trial":44,"Robot":2,"Valence":"Win","Action":"No-Go","Sham":1,"Color":"yellow","trial_type":"pit-trial","trial_index":73,"time_elapsed":1009782,"internal_node_id":"0.0-50.0","task_version":"test-retest-t4"},{"Rune":"rune_08_sigel","Hex":"#ffcc3399","Correct":32,"Choice":32,"RT":648.260000001872,"Accuracy":1,"Outcome":"+10","Keys":[2150.350000003469],"TotalKeys":1,"Block":1,"Trial":45,"Robot":1,"Valence":"Win","Action":"Go","Sham":0,"Color":"yellow","trial_type":"pit-trial","trial_index":74,"time_elapsed":1012941,"internal_node_id":"0.0-51.0","task_version":"test-retest-t4"},{"Rune":"rune_08_fehu","Hex":"#ffcc3399","Correct":-1,"Choice":32,"RT":332.9599999997299,"Accuracy":0,"Outcome":"+1","Keys":[1833.8799999983748],"TotalKeys":1,"Block":1,"Trial":46,"Robot":2,"Valence":"Win","Action":"No-Go","Sham":0,"Color":"yellow","trial_type":"pit-trial","trial_index":75,"time_elapsed":1015784,"internal_node_id":"0.0-52.0","task_version":"test-retest-t4"},{"Rune":"rune_08_mannaz","Hex":"#3366ff99","Correct":32,"Choice":32,"RT":308.29999999690335,"Accuracy":1,"Outcome":"-10","Keys":[1810.1250000036089],"TotalKeys":1,"Block":1,"Trial":47,"Robot":3,"Valence":"Lose","Action":"Go","Sham":1,"Color":"blue","trial_type":"pit-trial","trial_index":76,"time_elapsed":1018602,"internal_node_id":"0.0-53.0","task_version":"test-retest-t4"},{"Rune":"rune_08_pertho","Hex":"#3366ff99","Correct":-1,"Choice":32,"RT":322.7699999988545,"Accuracy":0,"Outcome":"-10","Keys":[1823.3250000048429],"TotalKeys":1,"Block":1,"Trial":48,"Robot":4,"Valence":"Lose","Action":"No-Go","Sham":0,"Color":"blue","trial_type":"pit-trial","trial_index":77,"time_elapsed":1021431,"internal_node_id":"0.0-54.0","task_version":"test-retest-t4"},{"Rune":"rune_08_pertho","Hex":"#3366ff99","Correct":-1,"Choice":32,"RT":325.36000000254717,"Accuracy":0,"Outcome":"-10","Keys":[1826.549999997951],"TotalKeys":1,"Block":1,"Trial":49,"Robot":4,"Valence":"Lose","Action":"No-Go","Sham":0,"Color":"blue","trial_type":"pit-trial","trial_index":78,"time_elapsed":1024264,"internal_node_id":"0.0-55.0","task_version":"test-retest-t4"},{"Rune":"rune_08_fehu","Hex":"#ffcc3399","Correct":-1,"Choice":32,"RT":319.17000000248663,"Accuracy":0,"Outcome":"+1","Keys":[1819.3949999986216],"TotalKeys":1,"Block":1,"Trial":50,"Robot":2,"Valence":"Win","Action":"No-Go","Sham":0,"Color":"yellow","trial_type":"pit-trial","trial_index":79,"time_elapsed":1027101,"internal_node_id":"0.0-56.0","task_version":"test-retest-t4"},{"Rune":"rune_08_mannaz","Hex":"#3366ff99","Correct":32,"Choice":32,"RT":266.69000000390224,"Accuracy":1,"Outcome":"-1","Keys":[1767.4800000023097],"TotalKeys":1,"Block":1,"Trial":51,"Robot":3,"Valence":"Lose","Action":"Go","Sham":0,"Color":"blue","trial_type":"pit-trial","trial_index":80,"time_elapsed":1029876,"internal_node_id":"0.0-57.0","task_version":"test-retest-t4"},{"Rune":"rune_08_sigel","Hex":"#ffcc3399","Correct":32,"Choice":32,"RT":44.78499999828637,"Accuracy":1,"Outcome":"+10","Keys":[1546.1550000035204],"TotalKeys":1,"Block":1,"Trial":52,"Robot":1,"Valence":"Win","Action":"Go","Sham":0,"Color":"yellow","trial_type":"pit-trial","trial_index":81,"time_elapsed":1032429,"internal_node_id":"0.0-58.0","task_version":"test-retest-t4"},{"Rune":"rune_08_mannaz","Hex":"#3366ff99","Correct":32,"Choice":32,"RT":289.8399999977555,"Accuracy":1,"Outcome":"-1","Keys":[1790.6349999975646],"TotalKeys":1,"Block":1,"Trial":53,"Robot":3,"Valence":"Lose","Action":"Go","Sham":0,"Color":"blue","trial_type":"pit-trial","trial_index":82,"time_elapsed":1035228,"internal_node_id":"0.0-59.0","task_version":"test-retest-t4"},{"Rune":"rune_08_sigel","Hex":"#ffcc3399","Correct":32,"Choice":32,"RT":85.64499999920372,"Accuracy":1,"Outcome":"+10","Keys":[1587.3700000011595],"TotalKeys":1,"Block":1,"Trial":54,"Robot":1,"Valence":"Win","Action":"Go","Sham":0,"Color":"yellow","trial_type":"pit-trial","trial_index":83,"time_elapsed":1037823,"internal_node_id":"0.0-60.0","task_version":"test-retest-t4"},{"Rune":"rune_08_pertho","Hex":"#3366ff99","Correct":-1,"Choice":32,"RT":279.43499999679625,"Accuracy":0,"Outcome":"-10","Keys":[1780.2100000043865],"TotalKeys":1,"Block":1,"Trial":55,"Robot":4,"Valence":"Lose","Action":"No-Go","Sham":0,"Color":"blue","trial_type":"pit-trial","trial_index":84,"time_elapsed":1040610,"internal_node_id":"0.0-61.0","task_version":"test-retest-t4"},{"Rune":"rune_08_fehu","Hex":"#ffcc3399","Correct":-1,"Choice":32,"RT":260.98500000080094,"Accuracy":0,"Outcome":"+1","Keys":[1761.749999997788],"TotalKeys":1,"Block":1,"Trial":56,"Robot":2,"Valence":"Win","Action":"No-Go","Sham":0,"Color":"yellow","trial_type":"pit-trial","trial_index":85,"time_elapsed":1043379,"internal_node_id":"0.0-62.0","task_version":"test-retest-t4"},{"Rune":"rune_08_mannaz","Hex":"#3366ff99","Correct":32,"Choice":32,"RT":568.3099999951664,"Accuracy":1,"Outcome":"-1","Keys":[2068.740000002319],"TotalKeys":1,"Block":1,"Trial":57,"Robot":3,"Valence":"Lose","Action":"Go","Sham":0,"Color":"blue","trial_type":"pit-trial","trial_index":86,"time_elapsed":1046456,"internal_node_id":"0.0-63.0","task_version":"test-retest-t4"},{"Rune":"rune_08_sigel","Hex":"#ffcc3399","Correct":32,"Choice":32,"RT":402.27500000037253,"Accuracy":1,"Outcome":"+1","Keys":[1902.3449999950826],"TotalKeys":1,"Block":1,"Trial":58,"Robot":1,"Valence":"Win","Action":"Go","Sham":1,"Color":"yellow","trial_type":"pit-trial","trial_index":87,"time_elapsed":1049367,"internal_node_id":"0.0-64.0","task_version":"test-retest-t4"},{"Rune":"rune_08_pertho","Hex":"#3366ff99","Correct":-1,"Choice":-1,"RT":-1,"Accuracy":1,"Outcome":"-1","Keys":[],"TotalKeys":0,"Block":1,"Trial":59,"Robot":4,"Valence":"Lose","Action":"No-Go","Sham":0,"Color":"blue","trial_type":"pit-trial","trial_index":88,"time_elapsed":1053376,"internal_node_id":"0.0-65.0","task_version":"test-retest-t4"},{"Rune":"rune_08_fehu","Hex":"#ffcc3399","Correct":-1,"Choice":32,"RT":415.9300000029616,"Accuracy":0,"Outcome":"+1","Keys":[1915.9850000068545],"TotalKeys":1,"Block":1,"Trial":60,"Robot":2,"Valence":"Win","Action":"No-Go","Sham":0,"Color":"yellow","trial_type":"pit-trial","trial_index":89,"time_elapsed":1056299,"internal_node_id":"0.0-66.0","task_version":"test-retest-t4"},{"value":false,"trial_type":"call-function","trial_index":90,"time_elapsed":1056306,"internal_node_id":"0.0-67.0","task_version":"test-retest-t4"},{"view_history":"[{\"page_index\":0,\"viewing_time\":82626.53499999573},{\"page_index\":1,\"viewing_time\":959.7400000058115}]","rt":83587.01999999885,"trial_type":"pit-instructions","trial_index":91,"time_elapsed":1139896,"internal_node_id":"0.0-68.0","task_version":"test-retest-t4"},{"Rune":"rune_08_sigel","Hex":"#ffcc3399","Correct":32,"Choice":32,"RT":307.2450000036042,"Accuracy":1,"Outcome":"+10","Keys":[1808.4699999962468],"TotalKeys":1,"Block":1,"Trial":61,"Robot":1,"Valence":"Win","Action":"Go","Sham":0,"Color":"yellow","trial_type":"pit-trial","trial_index":92,"time_elapsed":1142716,"internal_node_id":"0.0-69.0","task_version":"test-retest-t4"},{"Rune":"rune_08_fehu","Hex":"#ffcc3399","Correct":-1,"Choice":32,"RT":334.75499999616295,"Accuracy":0,"Outcome":"+10","Keys":[1835.6100000017323],"TotalKeys":1,"Block":1,"Trial":62,"Robot":2,"Valence":"Win","Action":"No-Go","Sham":1,"Color":"yellow","trial_type":"pit-trial","trial_index":93,"time_elapsed":1145557,"internal_node_id":"0.0-70.0","task_version":"test-retest-t4"},{"Rune":"rune_08_pertho","Hex":"#3366ff99","Correct":-1,"Choice":-1,"RT":-1,"Accuracy":1,"Outcome":"-1","Keys":[],"TotalKeys":0,"Block":1,"Trial":63,"Robot":4,"Valence":"Lose","Action":"No-Go","Sham":0,"Color":"blue","trial_type":"pit-trial","trial_index":94,"time_elapsed":1149565,"internal_node_id":"0.0-71.0","task_version":"test-retest-t4"},{"Rune":"rune_08_mannaz","Hex":"#3366ff99","Correct":32,"Choice":32,"RT":458.2799999990966,"Accuracy":1,"Outcome":"-1","Keys":[1960.0250000003725],"TotalKeys":1,"Block":1,"Trial":64,"Robot":3,"Valence":"Lose","Action":"Go","Sham":0,"Color":"blue","trial_type":"pit-trial","trial_index":95,"time_elapsed":1152533,"internal_node_id":"0.0-72.0","task_version":"test-retest-t4"},{"Rune":"rune_08_fehu","Hex":"#ffcc3399","Correct":-1,"Choice":32,"RT":421.6549999983981,"Accuracy":0,"Outcome":"+1","Keys":[1922.3249999997206],"TotalKeys":1,"Block":1,"Trial":65,"Robot":2,"Valence":"Win","Action":"No-Go","Sham":0,"Color":"yellow","trial_type":"pit-trial","trial_index":96,"time_elapsed":1155463,"internal_node_id":"0.0-73.0","task_version":"test-retest-t4"},{"Rune":"rune_08_mannaz","Hex":"#3366ff99","Correct":32,"Choice":32,"RT":343.02999999630265,"Accuracy":1,"Outcome":"-1","Keys":[1844.4200000010896],"TotalKeys":1,"Block":1,"Trial":66,"Robot":3,"Valence":"Lose","Action":"Go","Sham":0,"Color":"blue","trial_type":"pit-trial","trial_index":97,"time_elapsed":1158315,"internal_node_id":"0.0-74.0","task_version":"test-retest-t4"},{"Rune":"rune_08_pertho","Hex":"#3366ff99","Correct":-1,"Choice":-1,"RT":-1,"Accuracy":1,"Outcome":"-10","Keys":[],"TotalKeys":0,"Block":1,"Trial":67,"Robot":4,"Valence":"Lose","Action":"No-Go","Sham":1,"Color":"blue","trial_type":"pit-trial","trial_index":98,"time_elapsed":1162326,"internal_node_id":"0.0-75.0","task_version":"test-retest-t4"},{"Rune":"rune_08_sigel","Hex":"#ffcc3399","Correct":32,"Choice":32,"RT":463.09499999927357,"Accuracy":1,"Outcome":"+10","Keys":[1963.5899999993853],"TotalKeys":1,"Block":1,"Trial":68,"Robot":1,"Valence":"Win","Action":"Go","Sham":0,"Color":"yellow","trial_type":"pit-trial","trial_index":99,"time_elapsed":1165297,"internal_node_id":"0.0-76.0","task_version":"test-retest-t4"},{"Rune":"rune_08_fehu","Hex":"#ffcc3399","Correct":-1,"Choice":32,"RT":489.7950000013225,"Accuracy":0,"Outcome":"+1","Keys":[1990.440000001341],"TotalKeys":1,"Block":1,"Trial":69,"Robot":2,"Valence":"Win","Action":"No-Go","Sham":0,"Color":"yellow","trial_type":"pit-trial","trial_index":100,"time_elapsed":1168294,"internal_node_id":"0.0-77.0","task_version":"test-retest-t4"},{"Rune":"rune_08_pertho","Hex":"#3366ff99","Correct":-1,"Choice":32,"RT":558.4999999993015,"Accuracy":0,"Outcome":"-10","Keys":[2058.6550000007264],"TotalKeys":1,"Block":1,"Trial":70,"Robot":4,"Valence":"Lose","Action":"No-Go","Sham":0,"Color":"blue","trial_type":"pit-trial","trial_index":101,"time_elapsed":1171360,"internal_node_id":"0.0-78.0","task_version":"test-retest-t4"},{"Rune":"rune_08_mannaz","Hex":"#3366ff99","Correct":32,"Choice":32,"RT":368.97500000474975,"Accuracy":1,"Outcome":"-1","Keys":[1871.5250000022352],"TotalKeys":1,"Block":1,"Trial":71,"Robot":3,"Valence":"Lose","Action":"Go","Sham":0,"Color":"blue","trial_type":"pit-trial","trial_index":102,"time_elapsed":1174238,"internal_node_id":"0.0-79.0","task_version":"test-retest-t4"},{"Rune":"rune_08_sigel","Hex":"#ffcc3399","Correct":32,"Choice":32,"RT":377.5849999948405,"Accuracy":1,"Outcome":"+10","Keys":[1877.7299999999814],"TotalKeys":1,"Block":1,"Trial":72,"Robot":1,"Valence":"Win","Action":"Go","Sham":0,"Color":"yellow","trial_type":"pit-trial","trial_index":103,"time_elapsed":1177122,"internal_node_id":"0.0-80.0","task_version":"test-retest-t4"},{"Rune":"rune_08_sigel","Hex":"#ffcc3399","Correct":32,"Choice":32,"RT":389.5199999969918,"Accuracy":1,"Outcome":"+10","Keys":[1889.5899999989197],"TotalKeys":1,"Block":1,"Trial":73,"Robot":1,"Valence":"Win","Action":"Go","Sham":0,"Color":"yellow","trial_type":"pit-trial","trial_index":104,"time_elapsed":1180020,"internal_node_id":"0.0-81.0","task_version":"test-retest-t4"},{"Rune":"rune_08_mannaz","Hex":"#3366ff99","Correct":32,"Choice":32,"RT":499.2950000013225,"Accuracy":1,"Outcome":"-10","Keys":[1999.5449999987613],"TotalKeys":1,"Block":1,"Trial":74,"Robot":3,"Valence":"Lose","Action":"Go","Sham":1,"Color":"blue","trial_type":"pit-trial","trial_index":105,"time_elapsed":1183026,"internal_node_id":"0.0-82.0","task_version":"test-retest-t4"},{"Rune":"rune_08_pertho","Hex":"#3366ff99","Correct":-1,"Choice":32,"RT":434.18499999819323,"Accuracy":0,"Outcome":"-10","Keys":[1934.255000000121],"TotalKeys":1,"Block":1,"Trial":75,"Robot":4,"Valence":"Lose","Action":"No-Go","Sham":0,"Color":"blue","trial_type":"pit-trial","trial_index":106,"time_elapsed":1185966,"internal_node_id":"0.0-83.0","task_version":"test-retest-t4"},{"Rune":"rune_08_fehu","Hex":"#ffcc3399","Correct":-1,"Choice":32,"RT":310.01000000094064,"Accuracy":0,"Outcome":"+1","Keys":[1810.4949999980163],"TotalKeys":1,"Block":1,"Trial":76,"Robot":2,"Valence":"Win","Action":"No-Go","Sham":0,"Color":"yellow","trial_type":"pit-trial","trial_index":107,"time_elapsed":1188785,"internal_node_id":"0.0-84.0","task_version":"test-retest-t4"},{"Rune":"rune_08_fehu","Hex":"#ffcc3399","Correct":-1,"Choice":32,"RT":377.91000000271015,"Accuracy":0,"Outcome":"+1","Keys":[1879.2600000016391],"TotalKeys":1,"Block":1,"Trial":77,"Robot":2,"Valence":"Win","Action":"No-Go","Sham":0,"Color":"yellow","trial_type":"pit-trial","trial_index":108,"time_elapsed":1191671,"internal_node_id":"0.0-85.0","task_version":"test-retest-t4"},{"Rune":"rune_08_sigel","Hex":"#ffcc3399","Correct":32,"Choice":32,"RT":140.255000005709,"Accuracy":1,"Outcome":"+1","Keys":[1641.930000005057],"TotalKeys":1,"Block":1,"Trial":78,"Robot":1,"Valence":"Win","Action":"Go","Sham":1,"Color":"yellow","trial_type":"pit-trial","trial_index":109,"time_elapsed":1194320,"internal_node_id":"0.0-86.0","task_version":"test-retest-t4"},{"Rune":"rune_08_pertho","Hex":"#3366ff99","Correct":-1,"Choice":32,"RT":517.334999996936,"Accuracy":0,"Outcome":"-10","Keys":[1474.6400000003632,2018.3000000033062],"TotalKeys":2,"Block":1,"Trial":79,"Robot":4,"Valence":"Lose","Action":"No-Go","Sham":0,"Color":"blue","trial_type":"pit-trial","trial_index":110,"time_elapsed":1197347,"internal_node_id":"0.0-87.0","task_version":"test-retest-t4"},{"Rune":"rune_08_mannaz","Hex":"#3366ff99","Correct":32,"Choice":32,"RT":246.68499999819323,"Accuracy":1,"Outcome":"-1","Keys":[1747.6000000024214],"TotalKeys":1,"Block":1,"Trial":80,"Robot":3,"Valence":"Lose","Action":"Go","Sham":0,"Color":"blue","trial_type":"pit-trial","trial_index":111,"time_elapsed":1200101,"internal_node_id":"0.0-88.0","task_version":"test-retest-t4"},{"Rune":"rune_08_mannaz","Hex":"#3366ff99","Correct":32,"Choice":32,"RT":501.90999999898486,"Accuracy":1,"Outcome":"-1","Keys":[2002.970000001369],"TotalKeys":1,"Block":1,"Trial":81,"Robot":3,"Valence":"Lose","Action":"Go","Sham":0,"Color":"blue","trial_type":"pit-trial","trial_index":112,"time_elapsed":1203113,"internal_node_id":"0.0-89.0","task_version":"test-retest-t4"},{"Rune":"rune_08_sigel","Hex":"#ffcc3399","Correct":32,"Choice":32,"RT":338.1650000009686,"Accuracy":1,"Outcome":"+10","Keys":[1839.3199999991339],"TotalKeys":1,"Block":1,"Trial":82,"Robot":1,"Valence":"Win","Action":"Go","Sham":0,"Color":"yellow","trial_type":"pit-trial","trial_index":113,"time_elapsed":1205966,"internal_node_id":"0.0-90.0","task_version":"test-retest-t4"},{"Rune":"rune_08_pertho","Hex":"#3366ff99","Correct":-1,"Choice":32,"RT":500.5349999992177,"Accuracy":0,"Outcome":"-10","Keys":[2001.315000001341],"TotalKeys":1,"Block":1,"Trial":83,"Robot":4,"Valence":"Lose","Action":"No-Go","Sham":0,"Color":"blue","trial_type":"pit-trial","trial_index":114,"time_elapsed":1208974,"internal_node_id":"0.0-91.0","task_version":"test-retest-t4"},{"Rune":"rune_08_fehu","Hex":"#ffcc3399","Correct":-1,"Choice":32,"RT":368.95999999996275,"Accuracy":0,"Outcome":"+1","Keys":[1870.6650000023656],"TotalKeys":1,"Block":1,"Trial":84,"Robot":2,"Valence":"Win","Action":"No-Go","Sham":0,"Color":"yellow","trial_type":"pit-trial","trial_index":115,"time_elapsed":1211851,"internal_node_id":"0.0-92.0","task_version":"test-retest-t4"},{"Rune":"rune_08_sigel","Hex":"#ffcc3399","Correct":32,"Choice":32,"RT":751.265000006184,"Accuracy":1,"Outcome":"+10","Keys":[2252.4500000001863],"TotalKeys":1,"Block":1,"Trial":85,"Robot":1,"Valence":"Win","Action":"Go","Sham":0,"Color":"yellow","trial_type":"pit-trial","trial_index":116,"time_elapsed":1215110,"internal_node_id":"0.0-93.0","task_version":"test-retest-t4"},{"Rune":"rune_08_pertho","Hex":"#3366ff99","Correct":-1,"Choice":32,"RT":360.1449999988545,"Accuracy":0,"Outcome":"-10","Keys":[1860.3550000044052],"TotalKeys":1,"Block":1,"Trial":86,"Robot":4,"Valence":"Lose","Action":"No-Go","Sham":0,"Color":"blue","trial_type":"pit-trial","trial_index":117,"time_elapsed":1217978,"internal_node_id":"0.0-94.0","task_version":"test-retest-t4"},{"Rune":"rune_08_mannaz","Hex":"#3366ff99","Correct":32,"Choice":32,"RT":449.93500000424683,"Accuracy":1,"Outcome":"-1","Keys":[1950.4299999973737],"TotalKeys":1,"Block":1,"Trial":87,"Robot":3,"Valence":"Lose","Action":"Go","Sham":0,"Color":"blue","trial_type":"pit-trial","trial_index":118,"time_elapsed":1220936,"internal_node_id":"0.0-95.0","task_version":"test-retest-t4"},{"Rune":"rune_08_fehu","Hex":"#ffcc3399","Correct":-1,"Choice":32,"RT":516.4699999948498,"Accuracy":0,"Outcome":"+1","Keys":[2017.2850000017788],"TotalKeys":1,"Block":1,"Trial":88,"Robot":2,"Valence":"Win","Action":"No-Go","Sham":0,"Color":"yellow","trial_type":"pit-trial","trial_index":119,"time_elapsed":1223961,"internal_node_id":"0.0-96.0","task_version":"test-retest-t4"},{"Rune":"rune_08_mannaz","Hex":"#3366ff99","Correct":32,"Choice":32,"RT":512.2849999971222,"Accuracy":1,"Outcome":"-1","Keys":[2012.3149999999441],"TotalKeys":1,"Block":1,"Trial":89,"Robot":3,"Valence":"Lose","Action":"Go","Sham":0,"Color":"blue","trial_type":"pit-trial","trial_index":120,"time_elapsed":1226983,"internal_node_id":"0.0-97.0","task_version":"test-retest-t4"},{"Rune":"rune_08_sigel","Hex":"#ffcc3399","Correct":32,"Choice":32,"RT":287.1249999953434,"Accuracy":1,"Outcome":"+10","Keys":[1788.7599999958184],"TotalKeys":1,"Block":1,"Trial":90,"Robot":1,"Valence":"Win","Action":"Go","Sham":0,"Color":"yellow","trial_type":"pit-trial","trial_index":121,"time_elapsed":1229781,"internal_node_id":"0.0-98.0","task_version":"test-retest-t4"},{"Rune":"rune_08_fehu","Hex":"#ffcc3399","Correct":-1,"Choice":32,"RT":382.41500000003725,"Accuracy":0,"Outcome":"+1","Keys":[1883.4999999962747],"TotalKeys":1,"Block":1,"Trial":91,"Robot":2,"Valence":"Win","Action":"No-Go","Sham":0,"Color":"yellow","trial_type":"pit-trial","trial_index":122,"time_elapsed":1232672,"internal_node_id":"0.0-99.0","task_version":"test-retest-t4"},{"Rune":"rune_08_pertho","Hex":"#3366ff99","Correct":-1,"Choice":-1,"RT":-1,"Accuracy":1,"Outcome":"-10","Keys":[],"TotalKeys":0,"Block":1,"Trial":92,"Robot":4,"Valence":"Lose","Action":"No-Go","Sham":1,"Color":"blue","trial_type":"pit-trial","trial_index":123,"time_elapsed":1236682,"internal_node_id":"0.0-100.0","task_version":"test-retest-t4"},{"Rune":"rune_08_sigel","Hex":"#ffcc3399","Correct":32,"Choice":32,"RT":721.0899999991525,"Accuracy":1,"Outcome":"+1","Keys":[2221.2999999972526],"TotalKeys":1,"Block":1,"Trial":93,"Robot":1,"Valence":"Win","Action":"Go","Sham":1,"Color":"yellow","trial_type":"pit-trial","trial_index":124,"time_elapsed":1239909,"internal_node_id":"0.0-101.0","task_version":"test-retest-t4"},{"Rune":"rune_08_pertho","Hex":"#3366ff99","Correct":-1,"Choice":-1,"RT":-1,"Accuracy":1,"Outcome":"-1","Keys":[],"TotalKeys":0,"Block":1,"Trial":94,"Robot":4,"Valence":"Lose","Action":"No-Go","Sham":0,"Color":"blue","trial_type":"pit-trial","trial_index":125,"time_elapsed":1243916,"internal_node_id":"0.0-102.0","task_version":"test-retest-t4"},{"Rune":"rune_08_fehu","Hex":"#ffcc3399","Correct":-1,"Choice":32,"RT":396.6749999963213,"Accuracy":0,"Outcome":"+1","Keys":[1897.9099999996834],"TotalKeys":1,"Block":1,"Trial":95,"Robot":2,"Valence":"Win","Action":"No-Go","Sham":0,"Color":"yellow","trial_type":"pit-trial","trial_index":126,"time_elapsed":1246821,"internal_node_id":"0.0-103.0","task_version":"test-retest-t4"},{"Rune":"rune_08_mannaz","Hex":"#3366ff99","Correct":32,"Choice":32,"RT":602.0500000012107,"Accuracy":1,"Outcome":"-1","Keys":[2102.4949999991804],"TotalKeys":1,"Block":1,"Trial":96,"Robot":3,"Valence":"Lose","Action":"Go","Sham":0,"Color":"blue","trial_type":"pit-trial","trial_index":127,"time_elapsed":1249930,"internal_node_id":"0.0-104.0","task_version":"test-retest-t4"},{"Rune":"rune_08_fehu","Hex":"#ffcc3399","Correct":-1,"Choice":32,"RT":358.4199999968987,"Accuracy":0,"Outcome":"+10","Keys":[1860.0799999984447],"TotalKeys":1,"Block":1,"Trial":97,"Robot":2,"Valence":"Win","Action":"No-Go","Sham":1,"Color":"yellow","trial_type":"pit-trial","trial_index":128,"time_elapsed":1252797,"internal_node_id":"0.0-105.0","task_version":"test-retest-t4"},{"Rune":"rune_08_sigel","Hex":"#ffcc3399","Correct":32,"Choice":32,"RT":258.2650000040885,"Accuracy":1,"Outcome":"+10","Keys":[1760.985000000801],"TotalKeys":1,"Block":1,"Trial":98,"Robot":1,"Valence":"Win","Action":"Go","Sham":0,"Color":"yellow","trial_type":"pit-trial","trial_index":129,"time_elapsed":1255566,"internal_node_id":"0.0-106.0","task_version":"test-retest-t4"},{"Rune":"rune_08_pertho","Hex":"#3366ff99","Correct":-1,"Choice":-1,"RT":-1,"Accuracy":1,"Outcome":"-1","Keys":[],"TotalKeys":0,"Block":1,"Trial":99,"Robot":4,"Valence":"Lose","Action":"No-Go","Sham":0,"Color":"blue","trial_type":"pit-trial","trial_index":130,"time_elapsed":1259574,"internal_node_id":"0.0-107.0","task_version":"test-retest-t4"},{"Rune":"rune_08_mannaz","Hex":"#3366ff99","Correct":32,"Choice":32,"RT":543.4049999967683,"Accuracy":1,"Outcome":"-10","Keys":[2043.4749999986961],"TotalKeys":1,"Block":1,"Trial":100,"Robot":3,"Valence":"Lose","Action":"Go","Sham":1,"Color":"blue","trial_type":"pit-trial","trial_index":131,"time_elapsed":1262623,"internal_node_id":"0.0-108.0","task_version":"test-retest-t4"},{"Rune":"rune_08_fehu","Hex":"#ffcc3399","Correct":-1,"Choice":32,"RT":402.62000000081025,"Accuracy":0,"Outcome":"+1","Keys":[1903.4549999996088],"TotalKeys":1,"Block":1,"Trial":101,"Robot":2,"Valence":"Win","Action":"No-Go","Sham":0,"Color":"yellow","trial_type":"pit-trial","trial_index":132,"time_elapsed":1265534,"internal_node_id":"0.0-109.0","task_version":"test-retest-t4"},{"Rune":"rune_08_mannaz","Hex":"#3366ff99","Correct":32,"Choice":32,"RT":484.1399999933783,"Accuracy":1,"Outcome":"-1","Keys":[1984.5300000016578],"TotalKeys":1,"Block":1,"Trial":102,"Robot":3,"Valence":"Lose","Action":"Go","Sham":0,"Color":"blue","trial_type":"pit-trial","trial_index":133,"time_elapsed":1268525,"internal_node_id":"0.0-110.0","task_version":"test-retest-t4"},{"Rune":"rune_08_sigel","Hex":"#ffcc3399","Correct":32,"Choice":32,"RT":479.82000000053085,"Accuracy":1,"Outcome":"+10","Keys":[1980.7750000036322],"TotalKeys":1,"Block":1,"Trial":103,"Robot":1,"Valence":"Win","Action":"Go","Sham":0,"Color":"yellow","trial_type":"pit-trial","trial_index":134,"time_elapsed":1271512,"internal_node_id":"0.0-111.0","task_version":"test-retest-t4"},{"Rune":"rune_08_pertho","Hex":"#3366ff99","Correct":-1,"Choice":-1,"RT":-1,"Accuracy":1,"Outcome":"-1","Keys":[],"TotalKeys":0,"Block":1,"Trial":104,"Robot":4,"Valence":"Lose","Action":"No-Go","Sham":0,"Color":"blue","trial_type":"pit-trial","trial_index":135,"time_elapsed":1275521,"internal_node_id":"0.0-112.0","task_version":"test-retest-t4"},{"Rune":"rune_08_pertho","Hex":"#3366ff99","Correct":-1,"Choice":-1,"RT":-1,"Accuracy":1,"Outcome":"-1","Keys":[],"TotalKeys":0,"Block":1,"Trial":105,"Robot":4,"Valence":"Lose","Action":"No-Go","Sham":0,"Color":"blue","trial_type":"pit-trial","trial_index":136,"time_elapsed":1279530,"internal_node_id":"0.0-113.0","task_version":"test-retest-t4"},{"Rune":"rune_08_fehu","Hex":"#ffcc3399","Correct":-1,"Choice":32,"RT":317.61000000545755,"Accuracy":0,"Outcome":"+1","Keys":[1818.619999998249],"TotalKeys":1,"Block":1,"Trial":106,"Robot":2,"Valence":"Win","Action":"No-Go","Sham":0,"Color":"yellow","trial_type":"pit-trial","trial_index":137,"time_elapsed":1282356,"internal_node_id":"0.0-114.0","task_version":"test-retest-t4"},{"Rune":"rune_08_mannaz","Hex":"#3366ff99","Correct":32,"Choice":32,"RT":482.17499999748543,"Accuracy":1,"Outcome":"-1","Keys":[1982.1850000007544],"TotalKeys":1,"Block":1,"Trial":107,"Robot":3,"Valence":"Lose","Action":"Go","Sham":0,"Color":"blue","trial_type":"pit-trial","trial_index":138,"time_elapsed":1285345,"internal_node_id":"0.0-115.0","task_version":"test-retest-t4"},{"Rune":"rune_08_sigel","Hex":"#ffcc3399","Correct":32,"Choice":32,"RT":343.1449999990873,"Accuracy":1,"Outcome":"+10","Keys":[1844.1850000016857],"TotalKeys":1,"Block":1,"Trial":108,"Robot":1,"Valence":"Win","Action":"Go","Sham":0,"Color":"yellow","trial_type":"pit-trial","trial_index":139,"time_elapsed":1288198,"internal_node_id":"0.0-116.0","task_version":"test-retest-t4"},{"Rune":"rune_08_sigel","Hex":"#ffcc3399","Correct":32,"Choice":32,"RT":277.56000000215136,"Accuracy":1,"Outcome":"+1","Keys":[1778.259999999078],"TotalKeys":1,"Block":1,"Trial":109,"Robot":1,"Valence":"Win","Action":"Go","Sham":1,"Color":"yellow","trial_type":"pit-trial","trial_index":140,"time_elapsed":1290983,"internal_node_id":"0.0-117.0","task_version":"test-retest-t4"},{"Rune":"rune_08_fehu","Hex":"#ffcc3399","Correct":-1,"Choice":32,"RT":339.2150000000838,"Accuracy":0,"Outcome":"+1","Keys":[343.0400000070222,1840.8600000040606],"TotalKeys":2,"Block":1,"Trial":110,"Robot":2,"Valence":"Win","Action":"No-Go","Sham":0,"Color":"yellow","trial_type":"pit-trial","trial_index":141,"time_elapsed":1293830,"internal_node_id":"0.0-118.0","task_version":"test-retest-t4"},{"Rune":"rune_08_pertho","Hex":"#3366ff99","Correct":-1,"Choice":32,"RT":389.1450000011828,"Accuracy":0,"Outcome":"-1","Keys":[954.0899999991525,1891.8399999965914],"TotalKeys":2,"Block":1,"Trial":111,"Robot":4,"Valence":"Lose","Action":"No-Go","Sham":1,"Color":"blue","trial_type":"pit-trial","trial_index":142,"time_elapsed":1296730,"internal_node_id":"0.0-119.0","task_version":"test-retest-t4"},{"Rune":"rune_08_mannaz","Hex":"#3366ff99","Correct":32,"Choice":32,"RT":362.4099999940954,"Accuracy":1,"Outcome":"-1","Keys":[1862.8200000019278],"TotalKeys":1,"Block":1,"Trial":112,"Robot":3,"Valence":"Lose","Action":"Go","Sham":0,"Color":"blue","trial_type":"pit-trial","trial_index":143,"time_elapsed":1299601,"internal_node_id":"0.0-120.0","task_version":"test-retest-t4"},{"Rune":"rune_08_pertho","Hex":"#3366ff99","Correct":-1,"Choice":32,"RT":266.31999999517575,"Accuracy":0,"Outcome":"-10","Keys":[1767.0949999955483],"TotalKeys":1,"Block":1,"Trial":113,"Robot":4,"Valence":"Lose","Action":"No-Go","Sham":0,"Color":"blue","trial_type":"pit-trial","trial_index":144,"time_elapsed":1302374,"internal_node_id":"0.0-121.0","task_version":"test-retest-t4"},{"Rune":"rune_08_fehu","Hex":"#ffcc3399","Correct":-1,"Choice":32,"RT":187.38499999744818,"Accuracy":0,"Outcome":"+10","Keys":[1688.1199999989476],"TotalKeys":1,"Block":1,"Trial":114,"Robot":2,"Valence":"Win","Action":"No-Go","Sham":1,"Color":"yellow","trial_type":"pit-trial","trial_index":145,"time_elapsed":1305070,"internal_node_id":"0.0-122.0","task_version":"test-retest-t4"},{"Rune":"rune_08_sigel","Hex":"#ffcc3399","Correct":32,"Choice":32,"RT":1184.554999999702,"Accuracy":1,"Outcome":"+10","Keys":[2685.1549999990966],"TotalKeys":1,"Block":1,"Trial":115,"Robot":1,"Valence":"Win","Action":"Go","Sham":0,"Color":"yellow","trial_type":"pit-trial","trial_index":146,"time_elapsed":1308762,"internal_node_id":"0.0-123.0","task_version":"test-retest-t4"},{"Rune":"rune_08_mannaz","Hex":"#3366ff99","Correct":32,"Choice":32,"RT":851.4599999981001,"Accuracy":1,"Outcome":"-1","Keys":[2351.804999998305],"TotalKeys":1,"Block":1,"Trial":116,"Robot":3,"Valence":"Lose","Action":"Go","Sham":0,"Color":"blue","trial_type":"pit-trial","trial_index":147,"time_elapsed":1312120,"internal_node_id":"0.0-124.0","task_version":"test-retest-t4"},{"Rune":"rune_08_fehu","Hex":"#ffcc3399","Correct":-1,"Choice":32,"RT":1166.1999999994878,"Accuracy":0,"Outcome":"+1","Keys":[2666.830000001937],"TotalKeys":1,"Block":1,"Trial":117,"Robot":2,"Valence":"Win","Action":"No-Go","Sham":0,"Color":"yellow","trial_type":"pit-trial","trial_index":148,"time_elapsed":1315793,"internal_node_id":"0.0-125.0","task_version":"test-retest-t4"},{"Rune":"rune_08_pertho","Hex":"#3366ff99","Correct":-1,"Choice":-1,"RT":-1,"Accuracy":1,"Outcome":"-1","Keys":[306.3899999978021],"TotalKeys":1,"Block":1,"Trial":118,"Robot":4,"Valence":"Lose","Action":"No-Go","Sham":0,"Color":"blue","trial_type":"pit-trial","trial_index":149,"time_elapsed":1319803,"internal_node_id":"0.0-126.0","task_version":"test-retest-t4"},{"Rune":"rune_08_mannaz","Hex":"#3366ff99","Correct":32,"Choice":32,"RT":414.5100000023376,"Accuracy":1,"Outcome":"-10","Keys":[1916.1400000012945],"TotalKeys":1,"Block":1,"Trial":119,"Robot":3,"Valence":"Lose","Action":"Go","Sham":1,"Color":"blue","trial_type":"pit-trial","trial_index":150,"time_elapsed":1322726,"internal_node_id":"0.0-127.0","task_version":"test-retest-t4"},{"Rune":"rune_08_sigel","Hex":"#ffcc3399","Correct":32,"Choice":32,"RT":305.8949999976903,"Accuracy":1,"Outcome":"+10","Keys":[1806.45999999973,2374.4999999979045],"TotalKeys":2,"Block":1,"Trial":120,"Robot":1,"Valence":"Win","Action":"Go","Sham":0,"Color":"yellow","trial_type":"pit-trial","trial_index":151,"time_elapsed":1325539,"internal_node_id":"0.0-128.0","task_version":"test-retest-t4"},{"view_history":"[{\"page_index\":0,\"viewing_time\":6776.444999995874},{\"page_index\":1,\"viewing_time\":10199.78500000434},{\"page_index\":2,\"viewing_time\":1176.1750000005122}]","rt":18153.234999998007,"trial_type":"pit-instructions","trial_index":152,"time_elapsed":1343696,"internal_node_id":"0.0-129.0","task_version":"test-retest-t4"},{"Rune":"rune_07_laukaz","Hex":"#ffcc3399","Correct":32,"Choice":32,"RT":856.9399999978486,"Accuracy":1,"Outcome":"+1","Keys":[2357.844999998575],"TotalKeys":1,"Block":2,"Trial":121,"Robot":1,"Valence":"Win","Action":"Go","Sham":1,"Color":"yellow","trial_type":"pit-trial","trial_index":153,"time_elapsed":1347066,"internal_node_id":"0.0-130.0","task_version":"test-retest-t4"},{"Rune":"rune_07_gar","Hex":"#3366ff99","Correct":-1,"Choice":-1,"RT":-1,"Accuracy":1,"Outcome":"-1","Keys":[64.25499999755993],"TotalKeys":1,"Block":2,"Trial":122,"Robot":4,"Valence":"Lose","Action":"No-Go","Sham":0,"Color":"blue","trial_type":"pit-trial","trial_index":154,"time_elapsed":1351074,"internal_node_id":"0.0-131.0","task_version":"test-retest-t4"},{"Rune":"rune_07_kauna","Hex":"#ffcc3399","Correct":-1,"Choice":32,"RT":411.52499999594875,"Accuracy":0,"Outcome":"+1","Keys":[1911.9099999952596],"TotalKeys":1,"Block":2,"Trial":123,"Robot":2,"Valence":"Win","Action":"No-Go","Sham":0,"Color":"yellow","trial_type":"pit-trial","trial_index":155,"time_elapsed":1353995,"internal_node_id":"0.0-132.0","task_version":"test-retest-t4"},{"Rune":"rune_07_thurisaz","Hex":"#3366ff99","Correct":32,"Choice":32,"RT":666.1600000006147,"Accuracy":1,"Outcome":"-1","Keys":[2166.929999999469],"TotalKeys":1,"Block":2,"Trial":124,"Robot":3,"Valence":"Lose","Action":"Go","Sham":0,"Color":"blue","trial_type":"pit-trial","trial_index":156,"time_elapsed":1357168,"internal_node_id":"0.0-133.0","task_version":"test-retest-t4"},{"Rune":"rune_07_thurisaz","Hex":"#3366ff99","Correct":32,"Choice":32,"RT":518.0900000049733,"Accuracy":1,"Outcome":"-1","Keys":[2019.5549999990035],"TotalKeys":1,"Block":2,"Trial":125,"Robot":3,"Valence":"Lose","Action":"Go","Sham":0,"Color":"blue","trial_type":"pit-trial","trial_index":157,"time_elapsed":1360197,"internal_node_id":"0.0-134.0","task_version":"test-retest-t4"},{"Rune":"rune_07_gar","Hex":"#3366ff99","Correct":-1,"Choice":-1,"RT":-1,"Accuracy":1,"Outcome":"-10","Keys":[],"TotalKeys":0,"Block":2,"Trial":126,"Robot":4,"Valence":"Lose","Action":"No-Go","Sham":1,"Color":"blue","trial_type":"pit-trial","trial_index":158,"time_elapsed":1364206,"internal_node_id":"0.0-135.0","task_version":"test-retest-t4"},{"Rune":"rune_07_laukaz","Hex":"#ffcc3399","Correct":32,"Choice":-1,"RT":-1,"Accuracy":0,"Outcome":"+1","Keys":[],"TotalKeys":0,"Block":2,"Trial":127,"Robot":1,"Valence":"Win","Action":"Go","Sham":0,"Color":"yellow","trial_type":"pit-trial","trial_index":159,"time_elapsed":1368214,"internal_node_id":"0.0-136.0","task_version":"test-retest-t4"},{"Rune":"rune_07_kauna","Hex":"#ffcc3399","Correct":-1,"Choice":-1,"RT":-1,"Accuracy":1,"Outcome":"+10","Keys":[902.7349999959115],"TotalKeys":1,"Block":2,"Trial":128,"Robot":2,"Valence":"Win","Action":"No-Go","Sham":0,"Color":"yellow","trial_type":"pit-trial","trial_index":160,"time_elapsed":1372230,"internal_node_id":"0.0-137.0","task_version":"test-retest-t4"},{"Rune":"rune_07_laukaz","Hex":"#ffcc3399","Correct":32,"Choice":32,"RT":1035.8799999959301,"Accuracy":1,"Outcome":"+10","Keys":[2537.1799999992363],"TotalKeys":1,"Block":2,"Trial":129,"Robot":1,"Valence":"Win","Action":"Go","Sham":0,"Color":"yellow","trial_type":"pit-trial","trial_index":161,"time_elapsed":1375774,"internal_node_id":"0.0-138.0","task_version":"test-retest-t4"},{"Rune":"rune_07_kauna","Hex":"#ffcc3399","Correct":-1,"Choice":-1,"RT":-1,"Accuracy":1,"Outcome":"+10","Keys":[],"TotalKeys":0,"Block":2,"Trial":130,"Robot":2,"Valence":"Win","Action":"No-Go","Sham":0,"Color":"yellow","trial_type":"pit-trial","trial_index":162,"time_elapsed":1379783,"internal_node_id":"0.0-139.0","task_version":"test-retest-t4"},{"Rune":"rune_07_gar","Hex":"#3366ff99","Correct":-1,"Choice":32,"RT":705.4450000068173,"Accuracy":0,"Outcome":"-10","Keys":[2206.119999995455],"TotalKeys":1,"Block":2,"Trial":131,"Robot":4,"Valence":"Lose","Action":"No-Go","Sham":0,"Color":"blue","trial_type":"pit-trial","trial_index":163,"time_elapsed":1382996,"internal_node_id":"0.0-140.0","task_version":"test-retest-t4"},{"Rune":"rune_07_thurisaz","Hex":"#3366ff99","Correct":32,"Choice":32,"RT":569.5950000009034,"Accuracy":1,"Outcome":"-10","Keys":[2069.6499999975786],"TotalKeys":1,"Block":2,"Trial":132,"Robot":3,"Valence":"Lose","Action":"Go","Sham":1,"Color":"blue","trial_type":"pit-trial","trial_index":164,"time_elapsed":1386072,"internal_node_id":"0.0-141.0","task_version":"test-retest-t4"},{"Rune":"rune_07_kauna","Hex":"#ffcc3399","Correct":-1,"Choice":-1,"RT":-1,"Accuracy":1,"Outcome":"+10","Keys":[],"TotalKeys":0,"Block":2,"Trial":133,"Robot":2,"Valence":"Win","Action":"No-Go","Sham":0,"Color":"yellow","trial_type":"pit-trial","trial_index":165,"time_elapsed":1390079,"internal_node_id":"0.0-142.0","task_version":"test-retest-t4"},{"Rune":"rune_07_gar","Hex":"#3366ff99","Correct":-1,"Choice":32,"RT":593.1449999988545,"Accuracy":0,"Outcome":"-10","Keys":[2093.0999999982305],"TotalKeys":1,"Block":2,"Trial":134,"Robot":4,"Valence":"Lose","Action":"No-Go","Sham":0,"Color":"blue","trial_type":"pit-trial","trial_index":166,"time_elapsed":1393180,"internal_node_id":"0.0-143.0","task_version":"test-retest-t4"},{"Rune":"rune_07_thurisaz","Hex":"#3366ff99","Correct":32,"Choice":32,"RT":589.4199999966659,"Accuracy":1,"Outcome":"-1","Keys":[2090.929999998538],"TotalKeys":1,"Block":2,"Trial":135,"Robot":3,"Valence":"Lose","Action":"Go","Sham":0,"Color":"blue","trial_type":"pit-trial","trial_index":167,"time_elapsed":1396278,"internal_node_id":"0.0-144.0","task_version":"test-retest-t4"},{"Rune":"rune_07_laukaz","Hex":"#ffcc3399","Correct":32,"Choice":32,"RT":516.2249999993946,"Accuracy":1,"Outcome":"+10","Keys":[2016.8449999981094],"TotalKeys":1,"Block":2,"Trial":136,"Robot":1,"Valence":"Win","Action":"Go","Sham":0,"Color":"yellow","trial_type":"pit-trial","trial_index":168,"time_elapsed":1399303,"internal_node_id":"0.0-145.0","task_version":"test-retest-t4"},{"Rune":"rune_07_kauna","Hex":"#ffcc3399","Correct":-1,"Choice":-1,"RT":-1,"Accuracy":1,"Outcome":"+1","Keys":[],"TotalKeys":0,"Block":2,"Trial":137,"Robot":2,"Valence":"Win","Action":"No-Go","Sham":1,"Color":"yellow","trial_type":"pit-trial","trial_index":169,"time_elapsed":1403312,"internal_node_id":"0.0-146.0","task_version":"test-retest-t4"},{"Rune":"rune_07_gar","Hex":"#3366ff99","Correct":-1,"Choice":32,"RT":759.1200000024401,"Accuracy":0,"Outcome":"-10","Keys":[2260.659999999916],"TotalKeys":1,"Block":2,"Trial":138,"Robot":4,"Valence":"Lose","Action":"No-Go","Sham":0,"Color":"blue","trial_type":"pit-trial","trial_index":170,"time_elapsed":1406580,"internal_node_id":"0.0-147.0","task_version":"test-retest-t4"},{"Rune":"rune_07_thurisaz","Hex":"#3366ff99","Correct":32,"Choice":32,"RT":700.6099999998696,"Accuracy":1,"Outcome":"-1","Keys":[2202.640000003157],"TotalKeys":1,"Block":2,"Trial":139,"Robot":3,"Valence":"Lose","Action":"Go","Sham":0,"Color":"blue","trial_type":"pit-trial","trial_index":171,"time_elapsed":1409791,"internal_node_id":"0.0-148.0","task_version":"test-retest-t4"},{"Rune":"rune_07_laukaz","Hex":"#ffcc3399","Correct":32,"Choice":32,"RT":534.8650000013877,"Accuracy":1,"Outcome":"+10","Keys":[2036.1200000043027],"TotalKeys":1,"Block":2,"Trial":140,"Robot":1,"Valence":"Win","Action":"Go","Sham":0,"Color":"yellow","trial_type":"pit-trial","trial_index":172,"time_elapsed":1412836,"internal_node_id":"0.0-149.0","task_version":"test-retest-t4"},{"Rune":"rune_07_kauna","Hex":"#ffcc3399","Correct":-1,"Choice":32,"RT":590.8899999996647,"Accuracy":0,"Outcome":"+1","Keys":[2094.945000004489],"TotalKeys":1,"Block":2,"Trial":141,"Robot":2,"Valence":"Win","Action":"No-Go","Sham":0,"Color":"yellow","trial_type":"pit-trial","trial_index":173,"time_elapsed":1415937,"internal_node_id":"0.0-150.0","task_version":"test-retest-t4"},{"Rune":"rune_07_thurisaz","Hex":"#3366ff99","Correct":32,"Choice":-1,"RT":-1,"Accuracy":0,"Outcome":"-10","Keys":[],"TotalKeys":0,"Block":2,"Trial":142,"Robot":3,"Valence":"Lose","Action":"Go","Sham":0,"Color":"blue","trial_type":"pit-trial","trial_index":174,"time_elapsed":1419945,"internal_node_id":"0.0-151.0","task_version":"test-retest-t4"},{"Rune":"rune_07_laukaz","Hex":"#ffcc3399","Correct":32,"Choice":32,"RT":521.7650000050198,"Accuracy":1,"Outcome":"+10","Keys":[2024.2099999960046],"TotalKeys":1,"Block":2,"Trial":143,"Robot":1,"Valence":"Win","Action":"Go","Sham":0,"Color":"yellow","trial_type":"pit-trial","trial_index":175,"time_elapsed":1422977,"internal_node_id":"0.0-152.0","task_version":"test-retest-t4"},{"Rune":"rune_07_gar","Hex":"#3366ff99","Correct":-1,"Choice":-1,"RT":-1,"Accuracy":1,"Outcome":"-1","Keys":[],"TotalKeys":0,"Block":2,"Trial":144,"Robot":4,"Valence":"Lose","Action":"No-Go","Sham":0,"Color":"blue","trial_type":"pit-trial","trial_index":176,"time_elapsed":1426984,"internal_node_id":"0.0-153.0","task_version":"test-retest-t4"},{"Rune":"rune_07_laukaz","Hex":"#ffcc3399","Correct":32,"Choice":32,"RT":428.5600000002887,"Accuracy":1,"Outcome":"+10","Keys":[1930.4349999947008],"TotalKeys":1,"Block":2,"Trial":145,"Robot":1,"Valence":"Win","Action":"Go","Sham":0,"Color":"yellow","trial_type":"pit-trial","trial_index":177,"time_elapsed":1429921,"internal_node_id":"0.0-154.0","task_version":"test-retest-t4"},{"Rune":"rune_07_gar","Hex":"#3366ff99","Correct":-1,"Choice":32,"RT":1127.990000000922,"Accuracy":0,"Outcome":"-10","Keys":[2629.3399999993853],"TotalKeys":1,"Block":2,"Trial":146,"Robot":4,"Valence":"Lose","Action":"No-Go","Sham":0,"Color":"blue","trial_type":"pit-trial","trial_index":178,"time_elapsed":1433559,"internal_node_id":"0.0-155.0","task_version":"test-retest-t4"},{"Rune":"rune_07_kauna","Hex":"#ffcc3399","Correct":-1,"Choice":-1,"RT":-1,"Accuracy":1,"Outcome":"+1","Keys":[],"TotalKeys":0,"Block":2,"Trial":147,"Robot":2,"Valence":"Win","Action":"No-Go","Sham":1,"Color":"yellow","trial_type":"pit-trial","trial_index":179,"time_elapsed":1437567,"internal_node_id":"0.0-156.0","task_version":"test-retest-t4"},{"Rune":"rune_07_thurisaz","Hex":"#3366ff99","Correct":32,"Choice":-1,"RT":-1,"Accuracy":0,"Outcome":"-1","Keys":[],"TotalKeys":0,"Block":2,"Trial":148,"Robot":3,"Valence":"Lose","Action":"Go","Sham":1,"Color":"blue","trial_type":"pit-trial","trial_index":180,"time_elapsed":1441576,"internal_node_id":"0.0-157.0","task_version":"test-retest-t4"},{"Rune":"rune_07_kauna","Hex":"#ffcc3399","Correct":-1,"Choice":32,"RT":589.0749999959953,"Accuracy":0,"Outcome":"+1","Keys":[2090.185000000987],"TotalKeys":1,"Block":2,"Trial":149,"Robot":2,"Valence":"Win","Action":"No-Go","Sham":0,"Color":"yellow","trial_type":"pit-trial","trial_index":181,"time_elapsed":1444675,"internal_node_id":"0.0-158.0","task_version":"test-retest-t4"},{"Rune":"rune_07_gar","Hex":"#3366ff99","Correct":-1,"Choice":-1,"RT":-1,"Accuracy":1,"Outcome":"-1","Keys":[],"TotalKeys":0,"Block":2,"Trial":150,"Robot":4,"Valence":"Lose","Action":"No-Go","Sham":0,"Color":"blue","trial_type":"pit-trial","trial_index":182,"time_elapsed":1448684,"internal_node_id":"0.0-159.0","task_version":"test-retest-t4"},{"Rune":"rune_07_laukaz","Hex":"#ffcc3399","Correct":32,"Choice":32,"RT":474.2000000041444,"Accuracy":1,"Outcome":"+10","Keys":[1975.194999998901],"TotalKeys":1,"Block":2,"Trial":151,"Robot":1,"Valence":"Win","Action":"Go","Sham":0,"Color":"yellow","trial_type":"pit-trial","trial_index":183,"time_elapsed":1451666,"internal_node_id":"0.0-160.0","task_version":"test-retest-t4"},{"Rune":"rune_07_thurisaz","Hex":"#3366ff99","Correct":32,"Choice":-1,"RT":-1,"Accuracy":0,"Outcome":"-10","Keys":[],"TotalKeys":0,"Block":2,"Trial":152,"Robot":3,"Valence":"Lose","Action":"Go","Sham":0,"Color":"blue","trial_type":"pit-trial","trial_index":184,"time_elapsed":1455676,"internal_node_id":"0.0-161.0","task_version":"test-retest-t4"},{"Rune":"rune_07_gar","Hex":"#3366ff99","Correct":-1,"Choice":-1,"RT":-1,"Accuracy":1,"Outcome":"-1","Keys":[],"TotalKeys":0,"Block":2,"Trial":153,"Robot":4,"Valence":"Lose","Action":"No-Go","Sham":0,"Color":"blue","trial_type":"pit-trial","trial_index":185,"time_elapsed":1459686,"internal_node_id":"0.0-162.0","task_version":"test-retest-t4"},{"Rune":"rune_07_laukaz","Hex":"#ffcc3399","Correct":32,"Choice":32,"RT":480.48500000010245,"Accuracy":1,"Outcome":"+10","Keys":[1981.130000000121],"TotalKeys":1,"Block":2,"Trial":154,"Robot":1,"Valence":"Win","Action":"Go","Sham":0,"Color":"yellow","trial_type":"pit-trial","trial_index":186,"time_elapsed":1462674,"internal_node_id":"0.0-163.0","task_version":"test-retest-t4"},{"Rune":"rune_07_thurisaz","Hex":"#3366ff99","Correct":32,"Choice":32,"RT":1481.5450000022538,"Accuracy":1,"Outcome":"-1","Keys":[2982.1549999979325],"TotalKeys":1,"Block":2,"Trial":155,"Robot":3,"Valence":"Lose","Action":"Go","Sham":0,"Color":"blue","trial_type":"pit-trial","trial_index":187,"time_elapsed":1466663,"internal_node_id":"0.0-164.0","task_version":"test-retest-t4"},{"Rune":"rune_07_kauna","Hex":"#ffcc3399","Correct":-1,"Choice":-1,"RT":-1,"Accuracy":1,"Outcome":"+10","Keys":[3502.2399999944028],"TotalKeys":1,"Block":2,"Trial":156,"Robot":2,"Valence":"Win","Action":"No-Go","Sham":0,"Color":"yellow","trial_type":"pit-trial","trial_index":188,"time_elapsed":1470671,"internal_node_id":"0.0-165.0","task_version":"test-retest-t4"},{"Rune":"rune_07_laukaz","Hex":"#ffcc3399","Correct":32,"Choice":32,"RT":1494.3800000036135,"Accuracy":1,"Outcome":"+1","Keys":[2995.2649999975692],"TotalKeys":1,"Block":2,"Trial":157,"Robot":1,"Valence":"Win","Action":"Go","Sham":1,"Color":"yellow","trial_type":"pit-trial","trial_index":189,"time_elapsed":1474673,"internal_node_id":"0.0-166.0","task_version":"test-retest-t4"},{"Rune":"rune_07_kauna","Hex":"#ffcc3399","Correct":-1,"Choice":32,"RT":779.9250000026077,"Accuracy":0,"Outcome":"+1","Keys":[2280.1600000020117],"TotalKeys":1,"Block":2,"Trial":158,"Robot":2,"Valence":"Win","Action":"No-Go","Sham":0,"Color":"yellow","trial_type":"pit-trial","trial_index":190,"time_elapsed":1477961,"internal_node_id":"0.0-167.0","task_version":"test-retest-t4"},{"Rune":"rune_07_gar","Hex":"#3366ff99","Correct":-1,"Choice":32,"RT":782.4600000020582,"Accuracy":0,"Outcome":"-1","Keys":[2283.149999995716],"TotalKeys":1,"Block":2,"Trial":159,"Robot":4,"Valence":"Lose","Action":"No-Go","Sham":1,"Color":"blue","trial_type":"pit-trial","trial_index":191,"time_elapsed":1481260,"internal_node_id":"0.0-168.0","task_version":"test-retest-t4"},{"Rune":"rune_07_thurisaz","Hex":"#3366ff99","Correct":32,"Choice":-1,"RT":-1,"Accuracy":0,"Outcome":"-10","Keys":[],"TotalKeys":0,"Block":2,"Trial":160,"Robot":3,"Valence":"Lose","Action":"Go","Sham":0,"Color":"blue","trial_type":"pit-trial","trial_index":192,"time_elapsed":1485268,"internal_node_id":"0.0-169.0","task_version":"test-retest-t4"},{"Rune":"rune_07_laukaz","Hex":"#ffcc3399","Correct":32,"Choice":-1,"RT":-1,"Accuracy":0,"Outcome":"+1","Keys":[],"TotalKeys":0,"Block":2,"Trial":161,"Robot":1,"Valence":"Win","Action":"Go","Sham":0,"Color":"yellow","trial_type":"pit-trial","trial_index":193,"time_elapsed":1489276,"internal_node_id":"0.0-170.0","task_version":"test-retest-t4"},{"Rune":"rune_07_thurisaz","Hex":"#3366ff99","Correct":32,"Choice":-1,"RT":-1,"Accuracy":0,"Outcome":"-10","Keys":[],"TotalKeys":0,"Block":2,"Trial":162,"Robot":3,"Valence":"Lose","Action":"Go","Sham":0,"Color":"blue","trial_type":"pit-trial","trial_index":194,"time_elapsed":1493292,"internal_node_id":"0.0-171.0","task_version":"test-retest-t4"},{"Rune":"rune_07_kauna","Hex":"#ffcc3399","Correct":-1,"Choice":-1,"RT":-1,"Accuracy":1,"Outcome":"+1","Keys":[],"TotalKeys":0,"Block":2,"Trial":163,"Robot":2,"Valence":"Win","Action":"No-Go","Sham":1,"Color":"yellow","trial_type":"pit-trial","trial_index":195,"time_elapsed":1497300,"internal_node_id":"0.0-172.0","task_version":"test-retest-t4"},{"Rune":"rune_07_gar","Hex":"#3366ff99","Correct":-1,"Choice":-1,"RT":-1,"Accuracy":1,"Outcome":"-10","Keys":[],"TotalKeys":0,"Block":2,"Trial":164,"Robot":4,"Valence":"Lose","Action":"No-Go","Sham":1,"Color":"blue","trial_type":"pit-trial","trial_index":196,"time_elapsed":1501313,"internal_node_id":"0.0-173.0","task_version":"test-retest-t4"},{"Rune":"rune_07_gar","Hex":"#3366ff99","Correct":-1,"Choice":-1,"RT":-1,"Accuracy":1,"Outcome":"-1","Keys":[],"TotalKeys":0,"Block":2,"Trial":165,"Robot":4,"Valence":"Lose","Action":"No-Go","Sham":0,"Color":"blue","trial_type":"pit-trial","trial_index":197,"time_elapsed":1505322,"internal_node_id":"0.0-174.0","task_version":"test-retest-t4"},{"Rune":"rune_07_laukaz","Hex":"#ffcc3399","Correct":32,"Choice":-1,"RT":-1,"Accuracy":0,"Outcome":"+1","Keys":[],"TotalKeys":0,"Block":2,"Trial":166,"Robot":1,"Valence":"Win","Action":"Go","Sham":0,"Color":"yellow","trial_type":"pit-trial","trial_index":198,"time_elapsed":1509329,"internal_node_id":"0.0-175.0","task_version":"test-retest-t4"},{"Rune":"rune_07_kauna","Hex":"#ffcc3399","Correct":-1,"Choice":-1,"RT":-1,"Accuracy":1,"Outcome":"+10","Keys":[],"TotalKeys":0,"Block":2,"Trial":167,"Robot":2,"Valence":"Win","Action":"No-Go","Sham":0,"Color":"yellow","trial_type":"pit-trial","trial_index":199,"time_elapsed":1513338,"internal_node_id":"0.0-176.0","task_version":"test-retest-t4"},{"Rune":"rune_07_thurisaz","Hex":"#3366ff99","Correct":32,"Choice":-1,"RT":-1,"Accuracy":0,"Outcome":"-1","Keys":[],"TotalKeys":0,"Block":2,"Trial":168,"Robot":3,"Valence":"Lose","Action":"Go","Sham":1,"Color":"blue","trial_type":"pit-trial","trial_index":200,"time_elapsed":1517346,"internal_node_id":"0.0-177.0","task_version":"test-retest-t4"},{"Rune":"rune_07_kauna","Hex":"#ffcc3399","Correct":-1,"Choice":-1,"RT":-1,"Accuracy":1,"Outcome":"+10","Keys":[],"TotalKeys":0,"Block":2,"Trial":169,"Robot":2,"Valence":"Win","Action":"No-Go","Sham":0,"Color":"yellow","trial_type":"pit-trial","trial_index":201,"time_elapsed":1521356,"internal_node_id":"0.0-178.0","task_version":"test-retest-t4"},{"Rune":"rune_07_gar","Hex":"#3366ff99","Correct":-1,"Choice":-1,"RT":-1,"Accuracy":1,"Outcome":"-1","Keys":[],"TotalKeys":0,"Block":2,"Trial":170,"Robot":4,"Valence":"Lose","Action":"No-Go","Sham":0,"Color":"blue","trial_type":"pit-trial","trial_index":202,"time_elapsed":1525368,"internal_node_id":"0.0-179.0","task_version":"test-retest-t4"},{"Rune":"rune_07_thurisaz","Hex":"#3366ff99","Correct":32,"Choice":-1,"RT":-1,"Accuracy":0,"Outcome":"-10","Keys":[],"TotalKeys":0,"Block":2,"Trial":171,"Robot":3,"Valence":"Lose","Action":"Go","Sham":0,"Color":"blue","trial_type":"pit-trial","trial_index":203,"time_elapsed":1529376,"internal_node_id":"0.0-180.0","task_version":"test-retest-t4"},{"Rune":"rune_07_laukaz","Hex":"#ffcc3399","Correct":32,"Choice":-1,"RT":-1,"Accuracy":0,"Outcome":"+1","Keys":[],"TotalKeys":0,"Block":2,"Trial":172,"Robot":1,"Valence":"Win","Action":"Go","Sham":0,"Color":"yellow","trial_type":"pit-trial","trial_index":204,"time_elapsed":1533384,"internal_node_id":"0.0-181.0","task_version":"test-retest-t4"},{"Rune":"rune_07_gar","Hex":"#3366ff99","Correct":-1,"Choice":-1,"RT":-1,"Accuracy":1,"Outcome":"-1","Keys":[],"TotalKeys":0,"Block":2,"Trial":173,"Robot":4,"Valence":"Lose","Action":"No-Go","Sham":0,"Color":"blue","trial_type":"pit-trial","trial_index":205,"time_elapsed":1537394,"internal_node_id":"0.0-182.0","task_version":"test-retest-t4"},{"Rune":"rune_07_thurisaz","Hex":"#3366ff99","Correct":32,"Choice":-1,"RT":-1,"Accuracy":0,"Outcome":"-10","Keys":[],"TotalKeys":0,"Block":2,"Trial":174,"Robot":3,"Valence":"Lose","Action":"Go","Sham":0,"Color":"blue","trial_type":"pit-trial","trial_index":206,"time_elapsed":1541403,"internal_node_id":"0.0-183.0","task_version":"test-retest-t4"},{"Rune":"rune_07_kauna","Hex":"#ffcc3399","Correct":-1,"Choice":-1,"RT":-1,"Accuracy":1,"Outcome":"+10","Keys":[],"TotalKeys":0,"Block":2,"Trial":175,"Robot":2,"Valence":"Win","Action":"No-Go","Sham":0,"Color":"yellow","trial_type":"pit-trial","trial_index":207,"time_elapsed":1545417,"internal_node_id":"0.0-184.0","task_version":"test-retest-t4"},{"Rune":"rune_07_laukaz","Hex":"#ffcc3399","Correct":32,"Choice":-1,"RT":-1,"Accuracy":0,"Outcome":"+1","Keys":[],"TotalKeys":0,"Block":2,"Trial":176,"Robot":1,"Valence":"Win","Action":"Go","Sham":0,"Color":"yellow","trial_type":"pit-trial","trial_index":208,"time_elapsed":1549427,"internal_node_id":"0.0-185.0","task_version":"test-retest-t4"},{"Rune":"rune_07_kauna","Hex":"#ffcc3399","Correct":-1,"Choice":-1,"RT":-1,"Accuracy":1,"Outcome":"+10","Keys":[],"TotalKeys":0,"Block":2,"Trial":177,"Robot":2,"Valence":"Win","Action":"No-Go","Sham":0,"Color":"yellow","trial_type":"pit-trial","trial_index":209,"time_elapsed":1553437,"internal_node_id":"0.0-186.0","task_version":"test-retest-t4"},{"Rune":"rune_07_thurisaz","Hex":"#3366ff99","Correct":32,"Choice":-1,"RT":-1,"Accuracy":0,"Outcome":"-10","Keys":[],"TotalKeys":0,"Block":2,"Trial":178,"Robot":3,"Valence":"Lose","Action":"Go","Sham":0,"Color":"blue","trial_type":"pit-trial","trial_index":210,"time_elapsed":1557446,"internal_node_id":"0.0-187.0","task_version":"test-retest-t4"},{"Rune":"rune_07_laukaz","Hex":"#ffcc3399","Correct":32,"Choice":-1,"RT":-1,"Accuracy":0,"Outcome":"+10","Keys":[],"TotalKeys":0,"Block":2,"Trial":179,"Robot":1,"Valence":"Win","Action":"Go","Sham":1,"Color":"yellow","trial_type":"pit-trial","trial_index":211,"time_elapsed":1561455,"internal_node_id":"0.0-188.0","task_version":"test-retest-t4"},{"Rune":"rune_07_gar","Hex":"#3366ff99","Correct":-1,"Choice":-1,"RT":-1,"Accuracy":1,"Outcome":"-1","Keys":[],"TotalKeys":0,"Block":2,"Trial":180,"Robot":4,"Valence":"Lose","Action":"No-Go","Sham":0,"Color":"blue","trial_type":"pit-trial","trial_index":212,"time_elapsed":1565464,"internal_node_id":"0.0-189.0","task_version":"test-retest-t4"},{"view_history":"[{\"page_index\":0,\"viewing_time\":191300.20499999938},{\"page_index\":1,\"viewing_time\":1111.0749999934342}]","rt":192412.56999999308,"trial_type":"pit-instructions","trial_index":213,"time_elapsed":1757880,"internal_node_id":"0.0-190.0","task_version":"test-retest-t4"},{"Rune":"rune_07_thurisaz","Hex":"#3366ff99","Correct":32,"Choice":32,"RT":421.8800000017509,"Accuracy":1,"Outcome":"-1","Keys":[1923.275000001071],"TotalKeys":1,"Block":2,"Trial":181,"Robot":3,"Valence":"Lose","Action":"Go","Sham":0,"Color":"blue","trial_type":"pit-trial","trial_index":214,"time_elapsed":1760821,"internal_node_id":"0.0-191.0","task_version":"test-retest-t4"},{"Rune":"rune_07_gar","Hex":"#3366ff99","Correct":-1,"Choice":32,"RT":655.5550000048243,"Accuracy":0,"Outcome":"-10","Keys":[2157.465000003809],"TotalKeys":1,"Block":2,"Trial":182,"Robot":4,"Valence":"Lose","Action":"No-Go","Sham":0,"Color":"blue","trial_type":"pit-trial","trial_index":215,"time_elapsed":1763987,"internal_node_id":"0.0-192.0","task_version":"test-retest-t4"},{"Rune":"rune_07_laukaz","Hex":"#ffcc3399","Correct":32,"Choice":32,"RT":733.9349999965634,"Accuracy":1,"Outcome":"+10","Keys":[2235.004999994999],"TotalKeys":1,"Block":2,"Trial":183,"Robot":1,"Valence":"Win","Action":"Go","Sham":0,"Color":"yellow","trial_type":"pit-trial","trial_index":216,"time_elapsed":1767231,"internal_node_id":"0.0-193.0","task_version":"test-retest-t4"},{"Rune":"rune_07_kauna","Hex":"#ffcc3399","Correct":-1,"Choice":32,"RT":644.6400000059512,"Accuracy":0,"Outcome":"+10","Keys":[2145.20000000624],"TotalKeys":1,"Block":2,"Trial":184,"Robot":2,"Valence":"Win","Action":"No-Go","Sham":1,"Color":"yellow","trial_type":"pit-trial","trial_index":217,"time_elapsed":1770384,"internal_node_id":"0.0-194.0","task_version":"test-retest-t4"},{"Rune":"rune_07_laukaz","Hex":"#ffcc3399","Correct":32,"Choice":32,"RT":395.0249999980442,"Accuracy":1,"Outcome":"+10","Keys":[1895.6099999996368],"TotalKeys":1,"Block":2,"Trial":185,"Robot":1,"Valence":"Win","Action":"Go","Sham":0,"Color":"yellow","trial_type":"pit-trial","trial_index":218,"time_elapsed":1773286,"internal_node_id":"0.0-195.0","task_version":"test-retest-t4"},{"Rune":"rune_07_gar","Hex":"#3366ff99","Correct":-1,"Choice":32,"RT":688.6750000047032,"Accuracy":0,"Outcome":"-1","Keys":[2191.6700000001583],"TotalKeys":1,"Block":2,"Trial":186,"Robot":4,"Valence":"Lose","Action":"No-Go","Sham":1,"Color":"blue","trial_type":"pit-trial","trial_index":219,"time_elapsed":1776484,"internal_node_id":"0.0-196.0","task_version":"test-retest-t4"},{"Rune":"rune_07_kauna","Hex":"#ffcc3399","Correct":-1,"Choice":32,"RT":425.0499999979511,"Accuracy":0,"Outcome":"+1","Keys":[1926.54000000027],"TotalKeys":1,"Block":2,"Trial":187,"Robot":2,"Valence":"Win","Action":"No-Go","Sham":0,"Color":"yellow","trial_type":"pit-trial","trial_index":220,"time_elapsed":1779418,"internal_node_id":"0.0-197.0","task_version":"test-retest-t4"},{"Rune":"rune_07_thurisaz","Hex":"#3366ff99","Correct":32,"Choice":32,"RT":597.1599999975879,"Accuracy":1,"Outcome":"-1","Keys":[2098.7000000025146],"TotalKeys":1,"Block":2,"Trial":188,"Robot":3,"Valence":"Lose","Action":"Go","Sham":0,"Color":"blue","trial_type":"pit-trial","trial_index":221,"time_elapsed":1782526,"internal_node_id":"0.0-198.0","task_version":"test-retest-t4"},{"Rune":"rune_07_gar","Hex":"#3366ff99","Correct":-1,"Choice":32,"RT":656.2400000039488,"Accuracy":0,"Outcome":"-10","Keys":[2159.420000003418],"TotalKeys":1,"Block":2,"Trial":189,"Robot":4,"Valence":"Lose","Action":"No-Go","Sham":0,"Color":"blue","trial_type":"pit-trial","trial_index":222,"time_elapsed":1785693,"internal_node_id":"0.0-199.0","task_version":"test-retest-t4"},{"Rune":"rune_07_thurisaz","Hex":"#3366ff99","Correct":32,"Choice":32,"RT":543.3599999959115,"Accuracy":1,"Outcome":"-1","Keys":[2044.4050000004936],"TotalKeys":1,"Block":2,"Trial":190,"Robot":3,"Valence":"Lose","Action":"Go","Sham":0,"Color":"blue","trial_type":"pit-trial","trial_index":223,"time_elapsed":1788747,"internal_node_id":"0.0-200.0","task_version":"test-retest-t4"},{"Rune":"rune_07_laukaz","Hex":"#ffcc3399","Correct":32,"Choice":32,"RT":525.6650000009686,"Accuracy":1,"Outcome":"+10","Keys":[2026.7200000018347],"TotalKeys":1,"Block":2,"Trial":191,"Robot":1,"Valence":"Win","Action":"Go","Sham":0,"Color":"yellow","trial_type":"pit-trial","trial_index":224,"time_elapsed":1791780,"internal_node_id":"0.0-201.0","task_version":"test-retest-t4"},{"Rune":"rune_07_kauna","Hex":"#ffcc3399","Correct":-1,"Choice":32,"RT":662.6749999995809,"Accuracy":0,"Outcome":"+1","Keys":[2163.820000001462],"TotalKeys":1,"Block":2,"Trial":192,"Robot":2,"Valence":"Win","Action":"No-Go","Sham":0,"Color":"yellow","trial_type":"pit-trial","trial_index":225,"time_elapsed":1794950,"internal_node_id":"0.0-202.0","task_version":"test-retest-t4"},{"Rune":"rune_07_laukaz","Hex":"#ffcc3399","Correct":32,"Choice":32,"RT":415.85000000474975,"Accuracy":1,"Outcome":"+10","Keys":[238.30000000447035,1481.3400000056718,1917.3900000022259],"TotalKeys":3,"Block":2,"Trial":193,"Robot":1,"Valence":"Win","Action":"Go","Sham":0,"Color":"yellow","trial_type":"pit-trial","trial_index":226,"time_elapsed":1797877,"internal_node_id":"0.0-203.0","task_version":"test-retest-t4"},{"Rune":"rune_07_thurisaz","Hex":"#3366ff99","Correct":32,"Choice":32,"RT":225.22499999473803,"Accuracy":1,"Outcome":"-10","Keys":[1725.8250000011176],"TotalKeys":1,"Block":2,"Trial":194,"Robot":3,"Valence":"Lose","Action":"Go","Sham":1,"Color":"blue","trial_type":"pit-trial","trial_index":227,"time_elapsed":1800609,"internal_node_id":"0.0-204.0","task_version":"test-retest-t4"},{"Rune":"rune_07_kauna","Hex":"#ffcc3399","Correct":-1,"Choice":32,"RT":642.0999999972992,"Accuracy":0,"Outcome":"+1","Keys":[2143.175000004703],"TotalKeys":1,"Block":2,"Trial":195,"Robot":2,"Valence":"Win","Action":"No-Go","Sham":0,"Color":"yellow","trial_type":"pit-trial","trial_index":228,"time_elapsed":1803774,"internal_node_id":"0.0-205.0","task_version":"test-retest-t4"},{"Rune":"rune_07_gar","Hex":"#3366ff99","Correct":-1,"Choice":-1,"RT":-1,"Accuracy":1,"Outcome":"-1","Keys":[],"TotalKeys":0,"Block":2,"Trial":196,"Robot":4,"Valence":"Lose","Action":"No-Go","Sham":0,"Color":"blue","trial_type":"pit-trial","trial_index":229,"time_elapsed":1807783,"internal_node_id":"0.0-206.0","task_version":"test-retest-t4"},{"Rune":"rune_07_gar","Hex":"#3366ff99","Correct":-1,"Choice":-1,"RT":-1,"Accuracy":1,"Outcome":"-1","Keys":[],"TotalKeys":0,"Block":2,"Trial":197,"Robot":4,"Valence":"Lose","Action":"No-Go","Sham":0,"Color":"blue","trial_type":"pit-trial","trial_index":230,"time_elapsed":1811791,"internal_node_id":"0.0-207.0","task_version":"test-retest-t4"},{"Rune":"rune_07_kauna","Hex":"#ffcc3399","Correct":-1,"Choice":32,"RT":746.76500000339,"Accuracy":0,"Outcome":"+1","Keys":[2248.525000002701],"TotalKeys":1,"Block":2,"Trial":198,"Robot":2,"Valence":"Win","Action":"No-Go","Sham":0,"Color":"yellow","trial_type":"pit-trial","trial_index":231,"time_elapsed":1815048,"internal_node_id":"0.0-208.0","task_version":"test-retest-t4"},{"Rune":"rune_07_thurisaz","Hex":"#3366ff99","Correct":32,"Choice":32,"RT":669.8200000028592,"Accuracy":1,"Outcome":"-1","Keys":[2171.255000001285],"TotalKeys":1,"Block":2,"Trial":199,"Robot":3,"Valence":"Lose","Action":"Go","Sham":0,"Color":"blue","trial_type":"pit-trial","trial_index":232,"time_elapsed":1818227,"internal_node_id":"0.0-209.0","task_version":"test-retest-t4"},{"Rune":"rune_07_laukaz","Hex":"#ffcc3399","Correct":32,"Choice":32,"RT":459.5049999989569,"Accuracy":1,"Outcome":"+1","Keys":[1961.169999995036],"TotalKeys":1,"Block":2,"Trial":200,"Robot":1,"Valence":"Win","Action":"Go","Sham":1,"Color":"yellow","trial_type":"pit-trial","trial_index":233,"time_elapsed":1821197,"internal_node_id":"0.0-210.0","task_version":"test-retest-t4"},{"Rune":"rune_07_laukaz","Hex":"#ffcc3399","Correct":32,"Choice":32,"RT":401.0149999957066,"Accuracy":1,"Outcome":"+10","Keys":[1901.8750000032596],"TotalKeys":1,"Block":2,"Trial":201,"Robot":1,"Valence":"Win","Action":"Go","Sham":0,"Color":"yellow","trial_type":"pit-trial","trial_index":234,"time_elapsed":1824105,"internal_node_id":"0.0-211.0","task_version":"test-retest-t4"},{"Rune":"rune_07_thurisaz","Hex":"#3366ff99","Correct":32,"Choice":32,"RT":286.5749999983236,"Accuracy":1,"Outcome":"-1","Keys":[1787.284999998752],"TotalKeys":1,"Block":2,"Trial":202,"Robot":3,"Valence":"Lose","Action":"Go","Sham":0,"Color":"blue","trial_type":"pit-trial","trial_index":235,"time_elapsed":1826900,"internal_node_id":"0.0-212.0","task_version":"test-retest-t4"},{"Rune":"rune_07_kauna","Hex":"#ffcc3399","Correct":-1,"Choice":32,"RT":576.9300000027288,"Accuracy":0,"Outcome":"+1","Keys":[2077.1400000012945],"TotalKeys":1,"Block":2,"Trial":203,"Robot":2,"Valence":"Win","Action":"No-Go","Sham":0,"Color":"yellow","trial_type":"pit-trial","trial_index":236,"time_elapsed":1829986,"internal_node_id":"0.0-213.0","task_version":"test-retest-t4"},{"Rune":"rune_07_gar","Hex":"#3366ff99","Correct":-1,"Choice":-1,"RT":-1,"Accuracy":1,"Outcome":"-1","Keys":[],"TotalKeys":0,"Block":2,"Trial":204,"Robot":4,"Valence":"Lose","Action":"No-Go","Sham":0,"Color":"blue","trial_type":"pit-trial","trial_index":237,"time_elapsed":1833994,"internal_node_id":"0.0-214.0","task_version":"test-retest-t4"},{"Rune":"rune_07_gar","Hex":"#3366ff99","Correct":-1,"Choice":-1,"RT":-1,"Accuracy":1,"Outcome":"-1","Keys":[],"TotalKeys":0,"Block":2,"Trial":205,"Robot":4,"Valence":"Lose","Action":"No-Go","Sham":0,"Color":"blue","trial_type":"pit-trial","trial_index":238,"time_elapsed":1838004,"internal_node_id":"0.0-215.0","task_version":"test-retest-t4"},{"Rune":"rune_07_kauna","Hex":"#ffcc3399","Correct":-1,"Choice":-1,"RT":-1,"Accuracy":1,"Outcome":"+10","Keys":[],"TotalKeys":0,"Block":2,"Trial":206,"Robot":2,"Valence":"Win","Action":"No-Go","Sham":0,"Color":"yellow","trial_type":"pit-trial","trial_index":239,"time_elapsed":1842014,"internal_node_id":"0.0-216.0","task_version":"test-retest-t4"},{"Rune":"rune_07_thurisaz","Hex":"#3366ff99","Correct":32,"Choice":32,"RT":1095.9949999961536,"Accuracy":1,"Outcome":"-1","Keys":[2596.1049999967217],"TotalKeys":1,"Block":2,"Trial":207,"Robot":3,"Valence":"Lose","Action":"Go","Sham":0,"Color":"blue","trial_type":"pit-trial","trial_index":240,"time_elapsed":1845617,"internal_node_id":"0.0-217.0","task_version":"test-retest-t4"},{"Rune":"rune_07_laukaz","Hex":"#ffcc3399","Correct":32,"Choice":32,"RT":457.3000000016764,"Accuracy":1,"Outcome":"+10","Keys":[1958.2000000008848],"TotalKeys":1,"Block":2,"Trial":208,"Robot":1,"Valence":"Win","Action":"Go","Sham":0,"Color":"yellow","trial_type":"pit-trial","trial_index":241,"time_elapsed":1848585,"internal_node_id":"0.0-218.0","task_version":"test-retest-t4"},{"Rune":"rune_07_kauna","Hex":"#ffcc3399","Correct":-1,"Choice":32,"RT":439.7900000039954,"Accuracy":0,"Outcome":"+1","Keys":[1940.190000001341],"TotalKeys":1,"Block":2,"Trial":209,"Robot":2,"Valence":"Win","Action":"No-Go","Sham":0,"Color":"yellow","trial_type":"pit-trial","trial_index":242,"time_elapsed":1851532,"internal_node_id":"0.0-219.0","task_version":"test-retest-t4"},{"Rune":"rune_07_gar","Hex":"#3366ff99","Correct":-1,"Choice":32,"RT":1009.3099999940023,"Accuracy":0,"Outcome":"-1","Keys":[2510.0250000033993],"TotalKeys":1,"Block":2,"Trial":210,"Robot":4,"Valence":"Lose","Action":"No-Go","Sham":1,"Color":"blue","trial_type":"pit-trial","trial_index":243,"time_elapsed":1855049,"internal_node_id":"0.0-220.0","task_version":"test-retest-t4"},{"Rune":"rune_07_thurisaz","Hex":"#3366ff99","Correct":32,"Choice":32,"RT":643.2249999998603,"Accuracy":1,"Outcome":"-1","Keys":[2146.4199999973644],"TotalKeys":1,"Block":2,"Trial":211,"Robot":3,"Valence":"Lose","Action":"Go","Sham":0,"Color":"blue","trial_type":"pit-trial","trial_index":244,"time_elapsed":1858204,"internal_node_id":"0.0-221.0","task_version":"test-retest-t4"},{"Rune":"rune_07_laukaz","Hex":"#ffcc3399","Correct":32,"Choice":32,"RT":493.19500000285916,"Accuracy":1,"Outcome":"+10","Keys":[1993.535000001546],"TotalKeys":1,"Block":2,"Trial":212,"Robot":1,"Valence":"Win","Action":"Go","Sham":0,"Color":"yellow","trial_type":"pit-trial","trial_index":245,"time_elapsed":1861206,"internal_node_id":"0.0-222.0","task_version":"test-retest-t4"},{"Rune":"rune_07_thurisaz","Hex":"#3366ff99","Correct":32,"Choice":-1,"RT":-1,"Accuracy":0,"Outcome":"-10","Keys":[],"TotalKeys":0,"Block":2,"Trial":213,"Robot":3,"Valence":"Lose","Action":"Go","Sham":0,"Color":"blue","trial_type":"pit-trial","trial_index":246,"time_elapsed":1865214,"internal_node_id":"0.0-223.0","task_version":"test-retest-t4"},{"Rune":"rune_07_gar","Hex":"#3366ff99","Correct":-1,"Choice":-1,"RT":-1,"Accuracy":1,"Outcome":"-1","Keys":[],"TotalKeys":0,"Block":2,"Trial":214,"Robot":4,"Valence":"Lose","Action":"No-Go","Sham":0,"Color":"blue","trial_type":"pit-trial","trial_index":247,"time_elapsed":1869222,"internal_node_id":"0.0-224.0","task_version":"test-retest-t4"},{"Rune":"rune_07_laukaz","Hex":"#ffcc3399","Correct":32,"Choice":32,"RT":420.6049999992829,"Accuracy":1,"Outcome":"+1","Keys":[1920.694999993313],"TotalKeys":1,"Block":2,"Trial":215,"Robot":1,"Valence":"Win","Action":"Go","Sham":1,"Color":"yellow","trial_type":"pit-trial","trial_index":248,"time_elapsed":1872150,"internal_node_id":"0.0-225.0","task_version":"test-retest-t4"},{"Rune":"rune_07_kauna","Hex":"#ffcc3399","Correct":-1,"Choice":32,"RT":624.0250000047963,"Accuracy":0,"Outcome":"+1","Keys":[2125.8000000016764],"TotalKeys":1,"Block":2,"Trial":216,"Robot":2,"Valence":"Win","Action":"No-Go","Sham":0,"Color":"yellow","trial_type":"pit-trial","trial_index":249,"time_elapsed":1875283,"internal_node_id":"0.0-226.0","task_version":"test-retest-t4"},{"Rune":"rune_07_kauna","Hex":"#ffcc3399","Correct":-1,"Choice":-1,"RT":-1,"Accuracy":1,"Outcome":"+1","Keys":[],"TotalKeys":0,"Block":2,"Trial":217,"Robot":2,"Valence":"Win","Action":"No-Go","Sham":1,"Color":"yellow","trial_type":"pit-trial","trial_index":250,"time_elapsed":1879293,"internal_node_id":"0.0-227.0","task_version":"test-retest-t4"},{"Rune":"rune_07_thurisaz","Hex":"#3366ff99","Correct":32,"Choice":32,"RT":616.7699999932665,"Accuracy":1,"Outcome":"-10","Keys":[1280.5900000021793,2118.430000002263],"TotalKeys":2,"Block":2,"Trial":218,"Robot":3,"Valence":"Lose","Action":"Go","Sham":1,"Color":"blue","trial_type":"pit-trial","trial_index":251,"time_elapsed":1882418,"internal_node_id":"0.0-228.0","task_version":"test-retest-t4"},{"Rune":"rune_07_laukaz","Hex":"#ffcc3399","Correct":32,"Choice":32,"RT":486.3400000031106,"Accuracy":1,"Outcome":"+10","Keys":[1987.2399999948684],"TotalKeys":1,"Block":2,"Trial":219,"Robot":1,"Valence":"Win","Action":"Go","Sham":0,"Color":"yellow","trial_type":"pit-trial","trial_index":252,"time_elapsed":1885413,"internal_node_id":"0.0-229.0","task_version":"test-retest-t4"},{"Rune":"rune_07_gar","Hex":"#3366ff99","Correct":-1,"Choice":-1,"RT":-1,"Accuracy":1,"Outcome":"-1","Keys":[341.97999999765307],"TotalKeys":1,"Block":2,"Trial":220,"Robot":4,"Valence":"Lose","Action":"No-Go","Sham":0,"Color":"blue","trial_type":"pit-trial","trial_index":253,"time_elapsed":1889422,"internal_node_id":"0.0-230.0","task_version":"test-retest-t4"},{"Rune":"rune_07_kauna","Hex":"#ffcc3399","Correct":-1,"Choice":-1,"RT":-1,"Accuracy":1,"Outcome":"+10","Keys":[],"TotalKeys":0,"Block":2,"Trial":221,"Robot":2,"Valence":"Win","Action":"No-Go","Sham":0,"Color":"yellow","trial_type":"pit-trial","trial_index":254,"time_elapsed":1893431,"internal_node_id":"0.0-231.0","task_version":"test-retest-t4"},{"Rune":"rune_07_laukaz","Hex":"#ffcc3399","Correct":32,"Choice":32,"RT":607.6749999993481,"Accuracy":1,"Outcome":"+10","Keys":[2108.8299999972805],"TotalKeys":1,"Block":2,"Trial":222,"Robot":1,"Valence":"Win","Action":"Go","Sham":0,"Color":"yellow","trial_type":"pit-trial","trial_index":255,"time_elapsed":1896548,"internal_node_id":"0.0-232.0","task_version":"test-retest-t4"},{"Rune":"rune_07_gar","Hex":"#3366ff99","Correct":-1,"Choice":-1,"RT":-1,"Accuracy":1,"Outcome":"-1","Keys":[],"TotalKeys":0,"Block":2,"Trial":223,"Robot":4,"Valence":"Lose","Action":"No-Go","Sham":0,"Color":"blue","trial_type":"pit-trial","trial_index":256,"time_elapsed":1900556,"internal_node_id":"0.0-233.0","task_version":"test-retest-t4"},{"Rune":"rune_07_thurisaz","Hex":"#3366ff99","Correct":32,"Choice":-1,"RT":-1,"Accuracy":0,"Outcome":"-10","Keys":[],"TotalKeys":0,"Block":2,"Trial":224,"Robot":3,"Valence":"Lose","Action":"Go","Sham":0,"Color":"blue","trial_type":"pit-trial","trial_index":257,"time_elapsed":1904564,"internal_node_id":"0.0-234.0","task_version":"test-retest-t4"},{"Rune":"rune_07_laukaz","Hex":"#ffcc3399","Correct":32,"Choice":32,"RT":486.19999999925494,"Accuracy":1,"Outcome":"+10","Keys":[1986.3600000026636],"TotalKeys":1,"Block":2,"Trial":225,"Robot":1,"Valence":"Win","Action":"Go","Sham":0,"Color":"yellow","trial_type":"pit-trial","trial_index":258,"time_elapsed":1907559,"internal_node_id":"0.0-235.0","task_version":"test-retest-t4"},{"Rune":"rune_07_gar","Hex":"#3366ff99","Correct":-1,"Choice":-1,"RT":-1,"Accuracy":1,"Outcome":"-1","Keys":[],"TotalKeys":0,"Block":2,"Trial":226,"Robot":4,"Valence":"Lose","Action":"No-Go","Sham":0,"Color":"blue","trial_type":"pit-trial","trial_index":259,"time_elapsed":1911568,"internal_node_id":"0.0-236.0","task_version":"test-retest-t4"},{"Rune":"rune_07_kauna","Hex":"#ffcc3399","Correct":-1,"Choice":-1,"RT":-1,"Accuracy":1,"Outcome":"+10","Keys":[],"TotalKeys":0,"Block":2,"Trial":227,"Robot":2,"Valence":"Win","Action":"No-Go","Sham":0,"Color":"yellow","trial_type":"pit-trial","trial_index":260,"time_elapsed":1915577,"internal_node_id":"0.0-237.0","task_version":"test-retest-t4"},{"Rune":"rune_07_thurisaz","Hex":"#3366ff99","Correct":32,"Choice":-1,"RT":-1,"Accuracy":0,"Outcome":"-10","Keys":[3835.0050000008196],"TotalKeys":1,"Block":2,"Trial":228,"Robot":3,"Valence":"Lose","Action":"Go","Sham":0,"Color":"blue","trial_type":"pit-trial","trial_index":261,"time_elapsed":1919586,"internal_node_id":"0.0-238.0","task_version":"test-retest-t4"},{"Rune":"rune_07_thurisaz","Hex":"#3366ff99","Correct":32,"Choice":-1,"RT":-1,"Accuracy":0,"Outcome":"-10","Keys":[],"TotalKeys":0,"Block":2,"Trial":229,"Robot":3,"Valence":"Lose","Action":"Go","Sham":0,"Color":"blue","trial_type":"pit-trial","trial_index":262,"time_elapsed":1923593,"internal_node_id":"0.0-239.0","task_version":"test-retest-t4"},{"Rune":"rune_07_laukaz","Hex":"#ffcc3399","Correct":32,"Choice":32,"RT":475.0300000014249,"Accuracy":1,"Outcome":"+1","Keys":[1975.299999998184],"TotalKeys":1,"Block":2,"Trial":230,"Robot":1,"Valence":"Win","Action":"Go","Sham":1,"Color":"yellow","trial_type":"pit-trial","trial_index":263,"time_elapsed":1926575,"internal_node_id":"0.0-240.0","task_version":"test-retest-t4"},{"Rune":"rune_07_kauna","Hex":"#ffcc3399","Correct":-1,"Choice":-1,"RT":-1,"Accuracy":1,"Outcome":"+10","Keys":[],"TotalKeys":0,"Block":2,"Trial":231,"Robot":2,"Valence":"Win","Action":"No-Go","Sham":0,"Color":"yellow","trial_type":"pit-trial","trial_index":264,"time_elapsed":1930584,"internal_node_id":"0.0-241.0","task_version":"test-retest-t4"},{"Rune":"rune_07_gar","Hex":"#3366ff99","Correct":-1,"Choice":-1,"RT":-1,"Accuracy":1,"Outcome":"-10","Keys":[],"TotalKeys":0,"Block":2,"Trial":232,"Robot":4,"Valence":"Lose","Action":"No-Go","Sham":1,"Color":"blue","trial_type":"pit-trial","trial_index":265,"time_elapsed":1934593,"internal_node_id":"0.0-242.0","task_version":"test-retest-t4"},{"Rune":"rune_07_gar","Hex":"#3366ff99","Correct":-1,"Choice":-1,"RT":-1,"Accuracy":1,"Outcome":"-1","Keys":[466.5499999972526],"TotalKeys":1,"Block":2,"Trial":233,"Robot":4,"Valence":"Lose","Action":"No-Go","Sham":0,"Color":"blue","trial_type":"pit-trial","trial_index":266,"time_elapsed":1938602,"internal_node_id":"0.0-243.0","task_version":"test-retest-t4"},{"Rune":"rune_07_kauna","Hex":"#ffcc3399","Correct":-1,"Choice":-1,"RT":-1,"Accuracy":1,"Outcome":"+1","Keys":[],"TotalKeys":0,"Block":2,"Trial":234,"Robot":2,"Valence":"Win","Action":"No-Go","Sham":1,"Color":"yellow","trial_type":"pit-trial","trial_index":267,"time_elapsed":1942610,"internal_node_id":"0.0-244.0","task_version":"test-retest-t4"},{"Rune":"rune_07_laukaz","Hex":"#ffcc3399","Correct":32,"Choice":32,"RT":582.9549999982119,"Accuracy":1,"Outcome":"+10","Keys":[2083.1850000030827],"TotalKeys":1,"Block":2,"Trial":235,"Robot":1,"Valence":"Win","Action":"Go","Sham":0,"Color":"yellow","trial_type":"pit-trial","trial_index":268,"time_elapsed":1945702,"internal_node_id":"0.0-245.0","task_version":"test-retest-t4"},{"Rune":"rune_07_thurisaz","Hex":"#3366ff99","Correct":32,"Choice":32,"RT":1237.1349999958184,"Accuracy":1,"Outcome":"-1","Keys":[2737.894999998389],"TotalKeys":1,"Block":2,"Trial":236,"Robot":3,"Valence":"Lose","Action":"Go","Sham":0,"Color":"blue","trial_type":"pit-trial","trial_index":269,"time_elapsed":1949447,"internal_node_id":"0.0-246.0","task_version":"test-retest-t4"},{"Rune":"rune_07_laukaz","Hex":"#ffcc3399","Correct":32,"Choice":32,"RT":356.5100000051316,"Accuracy":1,"Outcome":"+10","Keys":[1858.4349999947008],"TotalKeys":1,"Block":2,"Trial":237,"Robot":1,"Valence":"Win","Action":"Go","Sham":0,"Color":"yellow","trial_type":"pit-trial","trial_index":270,"time_elapsed":1952312,"internal_node_id":"0.0-247.0","task_version":"test-retest-t4"},{"Rune":"rune_07_thurisaz","Hex":"#3366ff99","Correct":32,"Choice":32,"RT":847.8800000012852,"Accuracy":1,"Outcome":"-10","Keys":[2348.41500000027],"TotalKeys":1,"Block":2,"Trial":238,"Robot":3,"Valence":"Lose","Action":"Go","Sham":1,"Color":"blue","trial_type":"pit-trial","trial_index":271,"time_elapsed":1955669,"internal_node_id":"0.0-248.0","task_version":"test-retest-t4"},{"Rune":"rune_07_kauna","Hex":"#ffcc3399","Correct":-1,"Choice":-1,"RT":-1,"Accuracy":1,"Outcome":"+10","Keys":[],"TotalKeys":0,"Block":2,"Trial":239,"Robot":2,"Valence":"Win","Action":"No-Go","Sham":0,"Color":"yellow","trial_type":"pit-trial","trial_index":272,"time_elapsed":1959677,"internal_node_id":"0.0-249.0","task_version":"test-retest-t4"},{"Rune":"rune_07_gar","Hex":"#3366ff99","Correct":-1,"Choice":-1,"RT":-1,"Accuracy":1,"Outcome":"-1","Keys":[],"TotalKeys":0,"Block":2,"Trial":240,"Robot":4,"Valence":"Lose","Action":"No-Go","Sham":0,"Color":"blue","trial_type":"pit-trial","trial_index":273,"time_elapsed":1963687,"internal_node_id":"0.0-250.0","task_version":"test-retest-t4"},{"view_history":"[{\"page_index\":0,\"viewing_time\":2677.7399999990594}]","rt":2678.5950000048615,"trial_type":"pit-instructions","trial_index":274,"time_elapsed":1966370,"internal_node_id":"0.0-251.0","task_version":"test-retest-t4"},{"rt":10079.13500000001,"responses":{"age":"41","gender-categorical":"Male","gender-free-response":"","ethnicity":"Not Hispanic or Latino","race":"White","language":"Yes","fluency":"Very well"},"survey":"demographics","trial_type":"survey-demo","trial_index":275,"time_elapsed":1976466,"internal_node_id":"0.0-252.0","task_version":"test-retest-t4"},{"rt":10514.989999996033,"responses":{"difficulty":"2","fun":"5","clarity":"5","strategy":"no","feedback":""},"survey":"debrief","trial_type":"survey-debrief","trial_index":276,"time_elapsed":1986986,"internal_node_id":"0.0-253.0","task_version":"test-retest-t4"},{"rt":4804.68500000285,"stimulus":