[{"slider_type":"valence","raw_loc":610,"loc":0.72,"trial_type":"affective-slider","trial_index":0,"time_elapsed":3180,"internal_node_id":"0.0-0.0","task_version":"test-retest-t4"},{"responses":{"Q02":"0","Q03":"0","Q04":"0","Q01":"0","Q08":"0","Q05":"0","Q07":"0","Q06":"0"},"rt":18213.195000003907,"survey":"gad7","trial_type":"survey-template","trial_index":1,"time_elapsed":21398,"internal_node_id":"0.0-1.0","task_version":"test-retest-t4"},{"responses":{"Q05":"2","Q08":"2","Q10":"1","Q01":"0","Q04":"0","Q11":"1","Q06":"2","Q07":"2","Q13":"0","Q12":"1","Q09":"1","Q03":"0","Q02":"0"},"rt":39010.79000000027,"survey":"bisbas","trial_type":"survey-template","trial_index":2,"time_elapsed":60411,"internal_node_id":"0.0-2.0","task_version":"test-retest-t4"},{"responses":{"Q05":"0","Q13":"0","Q03":"0","Q07":"0","Q04":"0","Q12":"0","Q14":"0","Q09":"0","Q10":"0","Q06":"0","Q08":"0","Q15":"0","Q02":"0","Q01":"0","Q11":"0"},"rt":39198.74499998696,"survey":"7up7down","trial_type":"survey-template","trial_index":3,"time_elapsed":99612,"internal_node_id":"0.0-3.0","task_version":"test-retest-t4"},{"view_history":"[{\"page_index\":0,\"viewing_time\":3889.644999988377},{\"page_index\":1,\"viewing_time\":768.3900000120047},{\"page_index\":2,\"viewing_time\":565.9349999914411},{\"page_index\":3,\"viewing_time\":1486.7300000041723},{\"page_index\":4,\"viewing_time\":595.2649999962887},{\"page_index\":5,\"viewing_time\":467.53999999782536}]","rt":7774.254999996629,"trial_type":"pit-instructions","trial_index":4,"time_elapsed":107390,"internal_node_id":"0.0-4.0-0.0","task_version":"test-retest-t4"},{"Rune":"rune_00_ingz","Hex":"#FFFFF080","Correct":32,"Choice":32,"RT":560.5649999924935,"Accuracy":1,"Outcome":"+10","Keys":[2061.490000007325],"TotalKeys":1,"Block":0,"Action":"Go","trial_type":"pit-trial","trial_index":5,"time_elapsed":110454,"internal_node_id":"0.0-4.0-1.0-0.0","task_version":"test-retest-t4"},{"Rune":"rune_00_ingz","Hex":"#FFFFF080","Correct":32,"Choice":32,"RT":320.5700000107754,"Accuracy":1,"Outcome":"+10","Keys":[1820.930000001681],"TotalKeys":1,"Block":0,"Action":"Go","trial_type":"pit-trial","trial_index":6,"time_elapsed":113278,"internal_node_id":"0.0-4.0-1.0-0.1","task_version":"test-retest-t4"},{"Rune":"rune_00_ingz","Hex":"#FFFFF080","Correct":32,"Choice":32,"RT":329.6450000052573,"Accuracy":1,"Outcome":"+10","Keys":[1829.6249999984866],"TotalKeys":1,"Block":0,"Action":"Go","trial_type":"pit-trial","trial_index":7,"time_elapsed":116110,"internal_node_id":"0.0-4.0-1.0-0.2","task_version":"test-retest-t4"},{"Rune":"rune_00_ingz","Hex":"#FFFFF080","Correct":32,"Choice":32,"RT":161.18500000447966,"Accuracy":1,"Outcome":"+10","Keys":[1661.3800000050105],"TotalKeys":1,"Block":0,"Action":"Go","trial_type":"pit-trial","trial_index":8,"time_elapsed":118774,"internal_node_id":"0.0-4.0-1.0-0.3","task_version":"test-retest-t4"},{"view_history":"[{\"page_index\":0,\"viewing_time\":1734.3499999988126}]","rt":1734.6749999996973,"trial_type":"pit-instructions","trial_index":9,"time_elapsed":120510,"internal_node_id":"0.0-4.0-2.0","task_version":"test-retest-t4"},{"Rune":"rune_00_isaz","Hex":"#FFFFF080","Correct":-1,"Choice":32,"RT":929.3499999912456,"Accuracy":0,"Outcome":"+0","Keys":[2430.0749999965774],"TotalKeys":1,"Block":0,"Action":"No-Go","trial_type":"pit-trial","trial_index":10,"time_elapsed":123941,"internal_node_id":"0.0-4.0-3.0-0.0","task_version":"test-retest-t4"},{"Rune":"rune_00_isaz","Hex":"#FFFFF080","Correct":-1,"Choice":-1,"RT":-1,"Accuracy":1,"Outcome":"+10","Keys":[],"TotalKeys":0,"Block":0,"Action":"No-Go","trial_type":"pit-trial","trial_index":11,"time_elapsed":127944,"internal_node_id":"0.0-4.0-3.0-0.1","task_version":"test-retest-t4"},{"Rune":"rune_00_isaz","Hex":"#FFFFF080","Correct":-1,"Choice":-1,"RT":-1,"Accuracy":1,"Outcome":"+10","Keys":[],"TotalKeys":0,"Block":0,"Action":"No-Go","trial_type":"pit-trial","trial_index":12,"time_elapsed":131948,"internal_node_id":"0.0-4.0-3.0-0.2","task_version":"test-retest-t4"},{"Rune":"rune_00_isaz","Hex":"#FFFFF080","Correct":-1,"Choice":-1,"RT":-1,"Accuracy":1,"Outcome":"+10","Keys":[],"TotalKeys":0,"Block":0,"Action":"No-Go","trial_type":"pit-trial","trial_index":13,"time_elapsed":135951,"internal_node_id":"0.0-4.0-3.0-0.3","task_version":"test-retest-t4"},{"view_history":"[{\"page_index\":0,\"viewing_time\":1853.6650000023656},{\"page_index\":1,\"viewing_time\":1383.3949999971082},{\"page_index\":2,\"viewing_time\":934.529999998631},{\"page_index\":3,\"viewing_time\":1007.6949999929639},{\"page_index\":4,\"viewing_time\":1333.2750000117812},{\"page_index\":5,\"viewing_time\":1007.0999999879859},{\"page_index\":6,\"viewing_time\":1005.845000006957},{\"page_index\":7,\"viewing_time\":759.0499999932945}]","rt":9284.969999993336,"trial_type":"pit-instructions","trial_index":14,"time_elapsed":145237,"internal_node_id":"0.0-4.0-4.0","task_version":"test-retest-t4"},{"responses":["Do nothing","+10","-1","True","Yes"],"num_errors":0,"rt":15113.560000012512,"trial_type":"pit-comprehension","trial_index":15,"time_elapsed":160353,"internal_node_id":"0.0-4.0-5.0","task_version":"test-retest-t4"},{"trial_type":"call-function","trial_index":16,"time_elapsed":160356,"internal_node_id":"0.0-5.0","task_version":"test-retest-t4"},{"view_history":"[{\"page_index\":0,\"viewing_time\":1921.1450000002515},{\"page_index\":1,\"viewing_time\":1539.7799999918789},{\"page_index\":2,\"viewing_time\":1604.619999998249}]","rt":5065.929999997024,"trial_type":"pit-instructions","trial_index":17,"time_elapsed":165423,"internal_node_id":"0.0-6.0","task_version":"test-retest-t4"},{"Rune":"rune_08_sigel","Hex":"#3366ff99","Correct":32,"Choice":32,"RT":734.9149999936344,"Accuracy":1,"Outcome":"-1","Keys":[2236.850000001141],"TotalKeys":1,"Block":1,"Trial":1,"Robot":3,"Valence":"Lose","Action":"Go","Sham":0,"Color":"blue","trial_type":"pit-trial","trial_index":18,"time_elapsed":168663,"internal_node_id":"0.0-7.0","task_version":"test-retest-t4"},{"Rune":"rune_08_mannaz","Hex":"#ffcc3399","Correct":32,"Choice":32,"RT":632.4299999978393,"Accuracy":1,"Outcome":"+10","Keys":[2133.175000009942],"TotalKeys":1,"Block":1,"Trial":2,"Robot":1,"Valence":"Win","Action":"Go","Sham":0,"Color":"yellow","trial_type":"pit-trial","trial_index":19,"time_elapsed":171798,"internal_node_id":"0.0-8.0","task_version":"test-retest-t4"},{"Rune":"rune_08_pertho","Hex":"#ffcc3399","Correct":-1,"Choice":32,"RT":633.2049999909941,"Accuracy":0,"Outcome":"+1","Keys":[2133.23500000115],"TotalKeys":1,"Block":1,"Trial":3,"Robot":2,"Valence":"Win","Action":"No-Go","Sham":0,"Color":"yellow","trial_type":"pit-trial","trial_index":20,"time_elapsed":174934,"internal_node_id":"0.0-9.0","task_version":"test-retest-t4"},{"Rune":"rune_08_fehu","Hex":"#3366ff99","Correct":-1,"Choice":-1,"RT":-1,"Accuracy":1,"Outcome":"-10","Keys":[],"TotalKeys":0,"Block":1,"Trial":4,"Robot":4,"Valence":"Lose","Action":"No-Go","Sham":1,"Color":"blue","trial_type":"pit-trial","trial_index":21,"time_elapsed":178937,"internal_node_id":"0.0-10.0","task_version":"test-retest-t4"},{"Rune":"rune_08_mannaz","Hex":"#ffcc3399","Correct":32,"Choice":32,"RT":494.684999997844,"Accuracy":1,"Outcome":"+10","Keys":[1994.7350000002189],"TotalKeys":1,"Block":1,"Trial":5,"Robot":1,"Valence":"Win","Action":"Go","Sham":0,"Color":"yellow","trial_type":"pit-trial","trial_index":22,"time_elapsed":181934,"internal_node_id":"0.0-11.0","task_version":"test-retest-t4"},{"Rune":"rune_08_fehu","Hex":"#3366ff99","Correct":-1,"Choice":32,"RT":1377.7100000006612,"Accuracy":0,"Outcome":"-10","Keys":[2878.080000009504],"TotalKeys":1,"Block":1,"Trial":6,"Robot":4,"Valence":"Lose","Action":"No-Go","Sham":0,"Color":"blue","trial_type":"pit-trial","trial_index":23,"time_elapsed":185815,"internal_node_id":"0.0-12.0","task_version":"test-retest-t4"},{"Rune":"rune_08_sigel","Hex":"#3366ff99","Correct":32,"Choice":32,"RT":752.7899999986403,"Accuracy":1,"Outcome":"-1","Keys":[2253.0300000071293],"TotalKeys":1,"Block":1,"Trial":7,"Robot":3,"Valence":"Lose","Action":"Go","Sham":0,"Color":"blue","trial_type":"pit-trial","trial_index":24,"time_elapsed":189070,"internal_node_id":"0.0-13.0","task_version":"test-retest-t4"},{"Rune":"rune_08_pertho","Hex":"#ffcc3399","Correct":-1,"Choice":-1,"RT":-1,"Accuracy":1,"Outcome":"+10","Keys":[],"TotalKeys":0,"Block":1,"Trial":8,"Robot":2,"Valence":"Win","Action":"No-Go","Sham":0,"Color":"yellow","trial_type":"pit-trial","trial_index":25,"time_elapsed":193072,"internal_node_id":"0.0-14.0","task_version":"test-retest-t4"},{"Rune":"rune_08_fehu","Hex":"#3366ff99","Correct":-1,"Choice":32,"RT":1383.6100000044098,"Accuracy":0,"Outcome":"-10","Keys":[2883.78499999817],"TotalKeys":1,"Block":1,"Trial":9,"Robot":4,"Valence":"Lose","Action":"No-Go","Sham":0,"Color":"blue","trial_type":"pit-trial","trial_index":26,"time_elapsed":196959,"internal_node_id":"0.0-15.0","task_version":"test-retest-t4"},{"Rune":"rune_08_pertho","Hex":"#ffcc3399","Correct":-1,"Choice":-1,"RT":-1,"Accuracy":1,"Outcome":"+10","Keys":[],"TotalKeys":0,"Block":1,"Trial":10,"Robot":2,"Valence":"Win","Action":"No-Go","Sham":0,"Color":"yellow","trial_type":"pit-trial","trial_index":27,"time_elapsed":200963,"internal_node_id":"0.0-16.0","task_version":"test-retest-t4"},{"Rune":"rune_08_mannaz","Hex":"#ffcc3399","Correct":32,"Choice":32,"RT":628.2899999932852,"Accuracy":1,"Outcome":"+10","Keys":[2128.5550000029616],"TotalKeys":1,"Block":1,"Trial":11,"Robot":1,"Valence":"Win","Action":"Go","Sham":0,"Color":"yellow","trial_type":"pit-trial","trial_index":28,"time_elapsed":204094,"internal_node_id":"0.0-17.0","task_version":"test-retest-t4"},{"Rune":"rune_08_sigel","Hex":"#3366ff99","Correct":32,"Choice":-1,"RT":-1,"Accuracy":0,"Outcome":"-10","Keys":[],"TotalKeys":0,"Block":1,"Trial":12,"Robot":3,"Valence":"Lose","Action":"Go","Sham":0,"Color":"blue","trial_type":"pit-trial","trial_index":29,"time_elapsed":208097,"internal_node_id":"0.0-18.0","task_version":"test-retest-t4"},{"Rune":"rune_08_sigel","Hex":"#3366ff99","Correct":32,"Choice":32,"RT":533.7949999957345,"Accuracy":1,"Outcome":"-1","Keys":[2034.1849999967963],"TotalKeys":1,"Block":1,"Trial":13,"Robot":3,"Valence":"Lose","Action":"Go","Sham":0,"Color":"blue","trial_type":"pit-trial","trial_index":30,"time_elapsed":211134,"internal_node_id":"0.0-19.0","task_version":"test-retest-t4"},{"Rune":"rune_08_pertho","Hex":"#ffcc3399","Correct":-1,"Choice":-1,"RT":-1,"Accuracy":1,"Outcome":"+10","Keys":[],"TotalKeys":0,"Block":1,"Trial":14,"Robot":2,"Valence":"Win","Action":"No-Go","Sham":0,"Color":"yellow","trial_type":"pit-trial","trial_index":31,"time_elapsed":215137,"internal_node_id":"0.0-20.0","task_version":"test-retest-t4"},{"Rune":"rune_08_fehu","Hex":"#3366ff99","Correct":-1,"Choice":-1,"RT":-1,"Accuracy":1,"Outcome":"-1","Keys":[],"TotalKeys":0,"Block":1,"Trial":15,"Robot":4,"Valence":"Lose","Action":"No-Go","Sham":0,"Color":"blue","trial_type":"pit-trial","trial_index":32,"time_elapsed":219140,"internal_node_id":"0.0-21.0","task_version":"test-retest-t4"},{"Rune":"rune_08_mannaz","Hex":"#ffcc3399","Correct":32,"Choice":32,"RT":259.4200000021374,"Accuracy":1,"Outcome":"+10","Keys":[1760.1600000052713],"TotalKeys":1,"Block":1,"Trial":16,"Robot":1,"Valence":"Win","Action":"Go","Sham":0,"Color":"yellow","trial_type":"pit-trial","trial_index":33,"time_elapsed":221902,"internal_node_id":"0.0-22.0","task_version":"test-retest-t4"},{"Rune":"rune_08_pertho","Hex":"#ffcc3399","Correct":-1,"Choice":-1,"RT":-1,"Accuracy":1,"Outcome":"+1","Keys":[],"TotalKeys":0,"Block":1,"Trial":17,"Robot":2,"Valence":"Win","Action":"No-Go","Sham":1,"Color":"yellow","trial_type":"pit-trial","trial_index":34,"time_elapsed":225906,"internal_node_id":"0.0-23.0","task_version":"test-retest-t4"},{"Rune":"rune_08_sigel","Hex":"#3366ff99","Correct":32,"Choice":32,"RT":844.8649999918416,"Accuracy":1,"Outcome":"-10","Keys":[2345.579999993788],"TotalKeys":1,"Block":1,"Trial":18,"Robot":3,"Valence":"Lose","Action":"Go","Sham":1,"Color":"blue","trial_type":"pit-trial","trial_index":35,"time_elapsed":229254,"internal_node_id":"0.0-24.0","task_version":"test-retest-t4"},{"Rune":"rune_08_fehu","Hex":"#3366ff99","Correct":-1,"Choice":-1,"RT":-1,"Accuracy":1,"Outcome":"-1","Keys":[],"TotalKeys":0,"Block":1,"Trial":19,"Robot":4,"Valence":"Lose","Action":"No-Go","Sham":0,"Color":"blue","trial_type":"pit-trial","trial_index":36,"time_elapsed":233257,"internal_node_id":"0.0-25.0","task_version":"test-retest-t4"},{"Rune":"rune_08_mannaz","Hex":"#ffcc3399","Correct":32,"Choice":32,"RT":431.80500000016764,"Accuracy":1,"Outcome":"+1","Keys":[1931.8449999991572],"TotalKeys":1,"Block":1,"Trial":20,"Robot":1,"Valence":"Win","Action":"Go","Sham":1,"Color":"yellow","trial_type":"pit-trial","trial_index":37,"time_elapsed":236191,"internal_node_id":"0.0-26.0","task_version":"test-retest-t4"},{"Rune":"rune_08_sigel","Hex":"#3366ff99","Correct":32,"Choice":32,"RT":856.5600000001723,"Accuracy":1,"Outcome":"-1","Keys":[2357.53000000841],"TotalKeys":1,"Block":1,"Trial":21,"Robot":3,"Valence":"Lose","Action":"Go","Sham":0,"Color":"blue","trial_type":"pit-trial","trial_index":38,"time_elapsed":239551,"internal_node_id":"0.0-27.0","task_version":"test-retest-t4"},{"Rune":"rune_08_mannaz","Hex":"#ffcc3399","Correct":32,"Choice":32,"RT":384.1400000092108,"Accuracy":1,"Outcome":"+10","Keys":[1884.8199999920325],"TotalKeys":1,"Block":1,"Trial":22,"Robot":1,"Valence":"Win","Action":"Go","Sham":0,"Color":"yellow","trial_type":"pit-trial","trial_index":39,"time_elapsed":242438,"internal_node_id":"0.0-28.0","task_version":"test-retest-t4"},{"Rune":"rune_08_fehu","Hex":"#3366ff99","Correct":-1,"Choice":-1,"RT":-1,"Accuracy":1,"Outcome":"-1","Keys":[],"TotalKeys":0,"Block":1,"Trial":23,"Robot":4,"Valence":"Lose","Action":"No-Go","Sham":0,"Color":"blue","trial_type":"pit-trial","trial_index":40,"time_elapsed":246440,"internal_node_id":"0.0-29.0","task_version":"test-retest-t4"},{"Rune":"rune_08_pertho","Hex":"#ffcc3399","Correct":-1,"Choice":-1,"RT":-1,"Accuracy":1,"Outcome":"+10","Keys":[],"TotalKeys":0,"Block":1,"Trial":24,"Robot":2,"Valence":"Win","Action":"No-Go","Sham":0,"Color":"yellow","trial_type":"pit-trial","trial_index":41,"time_elapsed":250443,"internal_node_id":"0.0-30.0","task_version":"test-retest-t4"},{"Rune":"rune_08_sigel","Hex":"#3366ff99","Correct":32,"Choice":32,"RT":829.1599999938626,"Accuracy":1,"Outcome":"-10","Keys":[2329.295000003185],"TotalKeys":1,"Block":1,"Trial":25,"Robot":3,"Valence":"Lose","Action":"Go","Sham":1,"Color":"blue","trial_type":"pit-trial","trial_index":42,"time_elapsed":253775,"internal_node_id":"0.0-31.0","task_version":"test-retest-t4"},{"Rune":"rune_08_pertho","Hex":"#ffcc3399","Correct":-1,"Choice":-1,"RT":-1,"Accuracy":1,"Outcome":"+10","Keys":[],"TotalKeys":0,"Block":1,"Trial":26,"Robot":2,"Valence":"Win","Action":"No-Go","Sham":0,"Color":"yellow","trial_type":"pit-trial","trial_index":43,"time_elapsed":257779,"internal_node_id":"0.0-32.0","task_version":"test-retest-t4"},{"Rune":"rune_08_mannaz","Hex":"#ffcc3399","Correct":32,"Choice":32,"RT":476.0299999907147,"Accuracy":1,"Outcome":"+10","Keys":[1976.3400000083493],"TotalKeys":1,"Block":1,"Trial":27,"Robot":1,"Valence":"Win","Action":"Go","Sham":0,"Color":"yellow","trial_type":"pit-trial","trial_index":44,"time_elapsed":260758,"internal_node_id":"0.0-33.0","task_version":"test-retest-t4"},{"Rune":"rune_08_fehu","Hex":"#3366ff99","Correct":-1,"Choice":-1,"RT":-1,"Accuracy":1,"Outcome":"-1","Keys":[],"TotalKeys":0,"Block":1,"Trial":28,"Robot":4,"Valence":"Lose","Action":"No-Go","Sham":0,"Color":"blue","trial_type":"pit-trial","trial_index":45,"time_elapsed":264761,"internal_node_id":"0.0-34.0","task_version":"test-retest-t4"},{"Rune":"rune_08_sigel","Hex":"#3366ff99","Correct":32,"Choice":32,"RT":814.5650000078604,"Accuracy":1,"Outcome":"-1","Keys":[2314.5950000034645],"TotalKeys":1,"Block":1,"Trial":29,"Robot":3,"Valence":"Lose","Action":"Go","Sham":0,"Color":"blue","trial_type":"pit-trial","trial_index":46,"time_elapsed":268078,"internal_node_id":"0.0-35.0","task_version":"test-retest-t4"},{"Rune":"rune_08_mannaz","Hex":"#ffcc3399","Correct":32,"Choice":32,"RT":344.119999994291,"Accuracy":1,"Outcome":"+1","Keys":[1845.2350000006845],"TotalKeys":1,"Block":1,"Trial":30,"Robot":1,"Valence":"Win","Action":"Go","Sham":1,"Color":"yellow","trial_type":"pit-trial","trial_index":47,"time_elapsed":270926,"internal_node_id":"0.0-36.0","task_version":"test-retest-t4"},{"Rune":"rune_08_pertho","Hex":"#ffcc3399","Correct":-1,"Choice":-1,"RT":-1,"Accuracy":1,"Outcome":"+1","Keys":[],"TotalKeys":0,"Block":1,"Trial":31,"Robot":2,"Valence":"Win","Action":"No-Go","Sham":1,"Color":"yellow","trial_type":"pit-trial","trial_index":48,"time_elapsed":274929,"internal_node_id":"0.0-37.0","task_version":"test-retest-t4"},{"Rune":"rune_08_fehu","Hex":"#3366ff99","Correct":-1,"Choice":-1,"RT":-1,"Accuracy":1,"Outcome":"-1","Keys":[],"TotalKeys":0,"Block":1,"Trial":32,"Robot":4,"Valence":"Lose","Action":"No-Go","Sham":0,"Color":"blue","trial_type":"pit-trial","trial_index":49,"time_elapsed":278932,"internal_node_id":"0.0-38.0","task_version":"test-retest-t4"},{"Rune":"rune_08_sigel","Hex":"#3366ff99","Correct":32,"Choice":32,"RT":697.954999996,"Accuracy":1,"Outcome":"-1","Keys":[2198.740000007092],"TotalKeys":1,"Block":1,"Trial":33,"Robot":3,"Valence":"Lose","Action":"Go","Sham":0,"Color":"blue","trial_type":"pit-trial","trial_index":50,"time_elapsed":282134,"internal_node_id":"0.0-39.0","task_version":"test-retest-t4"},{"Rune":"rune_08_fehu","Hex":"#3366ff99","Correct":-1,"Choice":-1,"RT":-1,"Accuracy":1,"Outcome":"-10","Keys":[],"TotalKeys":0,"Block":1,"Trial":34,"Robot":4,"Valence":"Lose","Action":"No-Go","Sham":1,"Color":"blue","trial_type":"pit-trial","trial_index":51,"time_elapsed":286137,"internal_node_id":"0.0-40.0","task_version":"test-retest-t4"},{"Rune":"rune_08_pertho","Hex":"#ffcc3399","Correct":-1,"Choice":-1,"RT":-1,"Accuracy":1,"Outcome":"+10","Keys":[],"TotalKeys":0,"Block":1,"Trial":35,"Robot":2,"Valence":"Win","Action":"No-Go","Sham":0,"Color":"yellow","trial_type":"pit-trial","trial_index":52,"time_elapsed":290140,"internal_node_id":"0.0-41.0","task_version":"test-retest-t4"},{"Rune":"rune_08_mannaz","Hex":"#ffcc3399","Correct":32,"Choice":32,"RT":315.1849999994738,"Accuracy":1,"Outcome":"+10","Keys":[1815.7050000008894],"TotalKeys":1,"Block":1,"Trial":36,"Robot":1,"Valence":"Win","Action":"Go","Sham":0,"Color":"yellow","trial_type":"pit-trial","trial_index":53,"time_elapsed":292958,"internal_node_id":"0.0-42.0","task_version":"test-retest-t4"},{"Rune":"rune_08_fehu","Hex":"#3366ff99","Correct":-1,"Choice":-1,"RT":-1,"Accuracy":1,"Outcome":"-1","Keys":[],"TotalKeys":0,"Block":1,"Trial":37,"Robot":4,"Valence":"Lose","Action":"No-Go","Sham":0,"Color":"blue","trial_type":"pit-trial","trial_index":54,"time_elapsed":296962,"internal_node_id":"0.0-43.0","task_version":"test-retest-t4"},{"Rune":"rune_08_sigel","Hex":"#3366ff99","Correct":32,"Choice":32,"RT":581.1149999935878,"Accuracy":1,"Outcome":"-1","Keys":[2081.4449999888893],"TotalKeys":1,"Block":1,"Trial":38,"Robot":3,"Valence":"Lose","Action":"Go","Sham":0,"Color":"blue","trial_type":"pit-trial","trial_index":55,"time_elapsed":300046,"internal_node_id":"0.0-44.0","task_version":"test-retest-t4"},{"Rune":"rune_08_pertho","Hex":"#ffcc3399","Correct":-1,"Choice":-1,"RT":-1,"Accuracy":1,"Outcome":"+10","Keys":[],"TotalKeys":0,"Block":1,"Trial":39,"Robot":2,"Valence":"Win","Action":"No-Go","Sham":0,"Color":"yellow","trial_type":"pit-trial","trial_index":56,"time_elapsed":304049,"internal_node_id":"0.0-45.0","task_version":"test-retest-t4"},{"Rune":"rune_08_mannaz","Hex":"#ffcc3399","Correct":32,"Choice":32,"RT":341.87499999825377,"Accuracy":1,"Outcome":"+10","Keys":[1842.609999992419],"TotalKeys":1,"Block":1,"Trial":40,"Robot":1,"Valence":"Win","Action":"Go","Sham":0,"Color":"yellow","trial_type":"pit-trial","trial_index":57,"time_elapsed":306894,"internal_node_id":"0.0-46.0","task_version":"test-retest-t4"},{"Rune":"rune_08_pertho","Hex":"#ffcc3399","Correct":-1,"Choice":-1,"RT":-1,"Accuracy":1,"Outcome":"+10","Keys":[],"TotalKeys":0,"Block":1,"Trial":41,"Robot":2,"Valence":"Win","Action":"No-Go","Sham":0,"Color":"yellow","trial_type":"pit-trial","trial_index":58,"time_elapsed":310899,"internal_node_id":"0.0-47.0","task_version":"test-retest-t4"},{"Rune":"rune_08_mannaz","Hex":"#ffcc3399","Correct":32,"Choice":32,"RT":460.17000000574626,"Accuracy":1,"Outcome":"+10","Keys":[1960.5900000024121],"TotalKeys":1,"Block":1,"Trial":42,"Robot":1,"Valence":"Win","Action":"Go","Sham":0,"Color":"yellow","trial_type":"pit-trial","trial_index":59,"time_elapsed":313861,"internal_node_id":"0.0-48.0","task_version":"test-retest-t4"},{"Rune":"rune_08_fehu","Hex":"#3366ff99","Correct":-1,"Choice":-1,"RT":-1,"Accuracy":1,"Outcome":"-1","Keys":[],"TotalKeys":0,"Block":1,"Trial":43,"Robot":4,"Valence":"Lose","Action":"No-Go","Sham":0,"Color":"blue","trial_type":"pit-trial","trial_index":60,"time_elapsed":317865,"internal_node_id":"0.0-49.0","task_version":"test-retest-t4"},{"Rune":"rune_08_sigel","Hex":"#3366ff99","Correct":32,"Choice":32,"RT":670.4099999915343,"Accuracy":1,"Outcome":"-1","Keys":[2170.850000009523],"TotalKeys":1,"Block":1,"Trial":44,"Robot":3,"Valence":"Lose","Action":"Go","Sham":0,"Color":"blue","trial_type":"pit-trial","trial_index":61,"time_elapsed":321038,"internal_node_id":"0.0-50.0","task_version":"test-retest-t4"},{"Rune":"rune_08_sigel","Hex":"#3366ff99","Correct":32,"Choice":32,"RT":393.274999994901,"Accuracy":1,"Outcome":"-1","Keys":[1893.595000001369],"TotalKeys":1,"Block":1,"Trial":45,"Robot":3,"Valence":"Lose","Action":"Go","Sham":0,"Color":"blue","trial_type":"pit-trial","trial_index":62,"time_elapsed":323934,"internal_node_id":"0.0-51.0","task_version":"test-retest-t4"},{"Rune":"rune_08_mannaz","Hex":"#ffcc3399","Correct":32,"Choice":32,"RT":346.26000000571366,"Accuracy":1,"Outcome":"+10","Keys":[1846.5900000010151],"TotalKeys":1,"Block":1,"Trial":46,"Robot":1,"Valence":"Win","Action":"Go","Sham":0,"Color":"yellow","trial_type":"pit-trial","trial_index":63,"time_elapsed":326783,"internal_node_id":"0.0-52.0","task_version":"test-retest-t4"},{"Rune":"rune_08_pertho","Hex":"#ffcc3399","Correct":-1,"Choice":-1,"RT":-1,"Accuracy":1,"Outcome":"+10","Keys":[],"TotalKeys":0,"Block":1,"Trial":47,"Robot":2,"Valence":"Win","Action":"No-Go","Sham":0,"Color":"yellow","trial_type":"pit-trial","trial_index":64,"time_elapsed":330786,"internal_node_id":"0.0-53.0","task_version":"test-retest-t4"},{"Rune":"rune_08_fehu","Hex":"#3366ff99","Correct":-1,"Choice":-1,"RT":-1,"Accuracy":1,"Outcome":"-1","Keys":[],"TotalKeys":0,"Block":1,"Trial":48,"Robot":4,"Valence":"Lose","Action":"No-Go","Sham":0,"Color":"blue","trial_type":"pit-trial","trial_index":65,"time_elapsed":334791,"internal_node_id":"0.0-54.0","task_version":"test-retest-t4"},{"Rune":"rune_08_sigel","Hex":"#3366ff99","Correct":32,"Choice":32,"RT":559.7450000059325,"Accuracy":1,"Outcome":"-10","Keys":[2060.459999993327],"TotalKeys":1,"Block":1,"Trial":49,"Robot":3,"Valence":"Lose","Action":"Go","Sham":1,"Color":"blue","trial_type":"pit-trial","trial_index":66,"time_elapsed":337854,"internal_node_id":"0.0-55.0","task_version":"test-retest-t4"},{"Rune":"rune_08_pertho","Hex":"#ffcc3399","Correct":-1,"Choice":-1,"RT":-1,"Accuracy":1,"Outcome":"+10","Keys":[],"TotalKeys":0,"Block":1,"Trial":50,"Robot":2,"Valence":"Win","Action":"No-Go","Sham":0,"Color":"yellow","trial_type":"pit-trial","trial_index":67,"time_elapsed":341858,"internal_node_id":"0.0-56.0","task_version":"test-retest-t4"},{"Rune":"rune_08_fehu","Hex":"#3366ff99","Correct":-1,"Choice":-1,"RT":-1,"Accuracy":1,"Outcome":"-1","Keys":[],"TotalKeys":0,"Block":1,"Trial":51,"Robot":4,"Valence":"Lose","Action":"No-Go","Sham":0,"Color":"blue","trial_type":"pit-trial","trial_index":68,"time_elapsed":345861,"internal_node_id":"0.0-57.0","task_version":"test-retest-t4"},{"Rune":"rune_08_mannaz","Hex":"#ffcc3399","Correct":32,"Choice":32,"RT":368.15500000375323,"Accuracy":1,"Outcome":"+10","Keys":[1868.784999998752],"TotalKeys":1,"Block":1,"Trial":52,"Robot":1,"Valence":"Win","Action":"Go","Sham":0,"Color":"yellow","trial_type":"pit-trial","trial_index":69,"time_elapsed":348735,"internal_node_id":"0.0-58.0","task_version":"test-retest-t4"},{"Rune":"rune_08_mannaz","Hex":"#ffcc3399","Correct":32,"Choice":32,"RT":344.0799999953015,"Accuracy":1,"Outcome":"+10","Keys":[1844.9449999898206],"TotalKeys":1,"Block":1,"Trial":53,"Robot":1,"Valence":"Win","Action":"Go","Sham":0,"Color":"yellow","trial_type":"pit-trial","trial_index":70,"time_elapsed":351582,"internal_node_id":"0.0-59.0","task_version":"test-retest-t4"},{"Rune":"rune_08_pertho","Hex":"#ffcc3399","Correct":-1,"Choice":-1,"RT":-1,"Accuracy":1,"Outcome":"+1","Keys":[],"TotalKeys":0,"Block":1,"Trial":54,"Robot":2,"Valence":"Win","Action":"No-Go","Sham":1,"Color":"yellow","trial_type":"pit-trial","trial_index":71,"time_elapsed":355585,"internal_node_id":"0.0-60.0","task_version":"test-retest-t4"},{"Rune":"rune_08_fehu","Hex":"#3366ff99","Correct":-1,"Choice":-1,"RT":-1,"Accuracy":1,"Outcome":"-1","Keys":[],"TotalKeys":0,"Block":1,"Trial":55,"Robot":4,"Valence":"Lose","Action":"No-Go","Sham":0,"Color":"blue","trial_type":"pit-trial","trial_index":72,"time_elapsed":359589,"internal_node_id":"0.0-61.0","task_version":"test-retest-t4"},{"Rune":"rune_08_sigel","Hex":"#3366ff99","Correct":32,"Choice":32,"RT":833.2249999948544,"Accuracy":1,"Outcome":"-1","Keys":[2335.030000002007],"TotalKeys":1,"Block":1,"Trial":56,"Robot":3,"Valence":"Lose","Action":"Go","Sham":0,"Color":"blue","trial_type":"pit-trial","trial_index":73,"time_elapsed":362926,"internal_node_id":"0.0-62.0","task_version":"test-retest-t4"},{"Rune":"rune_08_fehu","Hex":"#3366ff99","Correct":-1,"Choice":-1,"RT":-1,"Accuracy":1,"Outcome":"-10","Keys":[],"TotalKeys":0,"Block":1,"Trial":57,"Robot":4,"Valence":"Lose","Action":"No-Go","Sham":1,"Color":"blue","trial_type":"pit-trial","trial_index":74,"time_elapsed":366929,"internal_node_id":"0.0-63.0","task_version":"test-retest-t4"},{"Rune":"rune_08_sigel","Hex":"#3366ff99","Correct":32,"Choice":32,"RT":630.2850000065519,"Accuracy":1,"Outcome":"-1","Keys":[2130.9049999981653],"TotalKeys":1,"Block":1,"Trial":58,"Robot":3,"Valence":"Lose","Action":"Go","Sham":0,"Color":"blue","trial_type":"pit-trial","trial_index":75,"time_elapsed":370063,"internal_node_id":"0.0-64.0","task_version":"test-retest-t4"},{"Rune":"rune_08_mannaz","Hex":"#ffcc3399","Correct":32,"Choice":32,"RT":361.0000000044238,"Accuracy":1,"Outcome":"+1","Keys":[1861.479999992298],"TotalKeys":1,"Block":1,"Trial":59,"Robot":1,"Valence":"Win","Action":"Go","Sham":1,"Color":"yellow","trial_type":"pit-trial","trial_index":76,"time_elapsed":372927,"internal_node_id":"0.0-65.0","task_version":"test-retest-t4"},{"Rune":"rune_08_pertho","Hex":"#ffcc3399","Correct":-1,"Choice":-1,"RT":-1,"Accuracy":1,"Outcome":"+10","Keys":[],"TotalKeys":0,"Block":1,"Trial":60,"Robot":2,"Valence":"Win","Action":"No-Go","Sham":0,"Color":"yellow","trial_type":"pit-trial","trial_index":77,"time_elapsed":376929,"internal_node_id":"0.0-66.0","task_version":"test-retest-t4"},{"value":false,"trial_type":"call-function","trial_index":78,"time_elapsed":376931,"internal_node_id":"0.0-67.0","task_version":"test-retest-t4"},{"view_history":"[{\"page_index\":0,\"viewing_time\":9533.620000001974},{\"page_index\":1,\"viewing_time\":2300.919999994221}]","rt":11834.870000006049,"trial_type":"pit-instructions","trial_index":79,"time_elapsed":388767,"internal_node_id":"0.0-68.0","task_version":"test-retest-t4"},{"Rune":"rune_08_sigel","Hex":"#3366ff99","Correct":32,"Choice":32,"RT":521.6500000096858,"Accuracy":1,"Outcome":"-1","Keys":[2021.7699999921024],"TotalKeys":1,"Block":1,"Trial":61,"Robot":3,"Valence":"Lose","Action":"Go","Sham":0,"Color":"blue","trial_type":"pit-trial","trial_index":80,"time_elapsed":391791,"internal_node_id":"0.0-69.0","task_version":"test-retest-t4"},{"Rune":"rune_08_pertho","Hex":"#ffcc3399","Correct":-1,"Choice":-1,"RT":-1,"Accuracy":1,"Outcome":"+10","Keys":[],"TotalKeys":0,"Block":1,"Trial":62,"Robot":2,"Valence":"Win","Action":"No-Go","Sham":0,"Color":"yellow","trial_type":"pit-trial","trial_index":81,"time_elapsed":395795,"internal_node_id":"0.0-70.0","task_version":"test-retest-t4"},{"Rune":"rune_08_fehu","Hex":"#3366ff99","Correct":-1,"Choice":-1,"RT":-1,"Accuracy":1,"Outcome":"-1","Keys":[],"TotalKeys":0,"Block":1,"Trial":63,"Robot":4,"Valence":"Lose","Action":"No-Go","Sham":0,"Color":"blue","trial_type":"pit-trial","trial_index":82,"time_elapsed":399799,"internal_node_id":"0.0-71.0","task_version":"test-retest-t4"},{"Rune":"rune_08_mannaz","Hex":"#ffcc3399","Correct":32,"Choice":32,"RT":352.55499999038875,"Accuracy":1,"Outcome":"+10","Keys":[1852.645000006305],"TotalKeys":1,"Block":1,"Trial":64,"Robot":1,"Valence":"Win","Action":"Go","Sham":0,"Color":"yellow","trial_type":"pit-trial","trial_index":83,"time_elapsed":402655,"internal_node_id":"0.0-72.0","task_version":"test-retest-t4"},{"Rune":"rune_08_fehu","Hex":"#3366ff99","Correct":-1,"Choice":-1,"RT":-1,"Accuracy":1,"Outcome":"-1","Keys":[],"TotalKeys":0,"Block":1,"Trial":65,"Robot":4,"Valence":"Lose","Action":"No-Go","Sham":0,"Color":"blue","trial_type":"pit-trial","trial_index":84,"time_elapsed":406658,"internal_node_id":"0.0-73.0","task_version":"test-retest-t4"},{"Rune":"rune_08_mannaz","Hex":"#ffcc3399","Correct":32,"Choice":32,"RT":444.2949999938719,"Accuracy":1,"Outcome":"+10","Keys":[1945.7799999945564],"TotalKeys":1,"Block":1,"Trial":66,"Robot":1,"Valence":"Win","Action":"Go","Sham":0,"Color":"yellow","trial_type":"pit-trial","trial_index":85,"time_elapsed":409607,"internal_node_id":"0.0-74.0","task_version":"test-retest-t4"},{"Rune":"rune_08_sigel","Hex":"#3366ff99","Correct":32,"Choice":32,"RT":560.2450000005774,"Accuracy":1,"Outcome":"-1","Keys":[2060.9050000057323],"TotalKeys":1,"Block":1,"Trial":67,"Robot":3,"Valence":"Lose","Action":"Go","Sham":0,"Color":"blue","trial_type":"pit-trial","trial_index":86,"time_elapsed":412671,"internal_node_id":"0.0-75.0","task_version":"test-retest-t4"},{"Rune":"rune_08_pertho","Hex":"#ffcc3399","Correct":-1,"Choice":-1,"RT":-1,"Accuracy":1,"Outcome":"+10","Keys":[],"TotalKeys":0,"Block":1,"Trial":68,"Robot":2,"Valence":"Win","Action":"No-Go","Sham":0,"Color":"yellow","trial_type":"pit-trial","trial_index":87,"time_elapsed":416674,"internal_node_id":"0.0-76.0","task_version":"test-retest-t4"},{"Rune":"rune_08_fehu","Hex":"#3366ff99","Correct":-1,"Choice":-1,"RT":-1,"Accuracy":1,"Outcome":"-10","Keys":[],"TotalKeys":0,"Block":1,"Trial":69,"Robot":4,"Valence":"Lose","Action":"No-Go","Sham":1,"Color":"blue","trial_type":"pit-trial","trial_index":88,"time_elapsed":420677,"internal_node_id":"0.0-77.0","task_version":"test-retest-t4"},{"Rune":"rune_08_sigel","Hex":"#3366ff99","Correct":32,"Choice":32,"RT":522.4350000062259,"Accuracy":1,"Outcome":"-10","Keys":[2022.8400000050897],"TotalKeys":1,"Block":1,"Trial":70,"Robot":3,"Valence":"Lose","Action":"Go","Sham":1,"Color":"blue","trial_type":"pit-trial","trial_index":89,"time_elapsed":423703,"internal_node_id":"0.0-78.0","task_version":"test-retest-t4"},{"Rune":"rune_08_mannaz","Hex":"#ffcc3399","Correct":32,"Choice":32,"RT":336.86999999918044,"Accuracy":1,"Outcome":"+10","Keys":[1837.294999990263],"TotalKeys":1,"Block":1,"Trial":71,"Robot":1,"Valence":"Win","Action":"Go","Sham":0,"Color":"yellow","trial_type":"pit-trial","trial_index":90,"time_elapsed":426542,"internal_node_id":"0.0-79.0","task_version":"test-retest-t4"},{"Rune":"rune_08_pertho","Hex":"#ffcc3399","Correct":-1,"Choice":-1,"RT":-1,"Accuracy":1,"Outcome":"+10","Keys":[],"TotalKeys":0,"Block":1,"Trial":72,"Robot":2,"Valence":"Win","Action":"No-Go","Sham":0,"Color":"yellow","trial_type":"pit-trial","trial_index":91,"time_elapsed":430547,"internal_node_id":"0.0-80.0","task_version":"test-retest-t4"},{"Rune":"rune_08_pertho","Hex":"#ffcc3399","Correct":-1,"Choice":-1,"RT":-1,"Accuracy":1,"Outcome":"+10","Keys":[],"TotalKeys":0,"Block":1,"Trial":73,"Robot":2,"Valence":"Win","Action":"No-Go","Sham":0,"Color":"yellow","trial_type":"pit-trial","trial_index":92,"time_elapsed":434551,"internal_node_id":"0.0-81.0","task_version":"test-retest-t4"},{"Rune":"rune_08_fehu","Hex":"#3366ff99","Correct":-1,"Choice":32,"RT":561.0849999939092,"Accuracy":0,"Outcome":"-10","Keys":[2061.1400000052527],"TotalKeys":1,"Block":1,"Trial":74,"Robot":4,"Valence":"Lose","Action":"No-Go","Sham":0,"Color":"blue","trial_type":"pit-trial","trial_index":93,"time_elapsed":437614,"internal_node_id":"0.0-82.0","task_version":"test-retest-t4"},{"Rune":"rune_08_sigel","Hex":"#3366ff99","Correct":32,"Choice":32,"RT":457.1949999954086,"Accuracy":1,"Outcome":"-1","Keys":[1957.5949999998556],"TotalKeys":1,"Block":1,"Trial":75,"Robot":3,"Valence":"Lose","Action":"Go","Sham":0,"Color":"blue","trial_type":"pit-trial","trial_index":94,"time_elapsed":440575,"internal_node_id":"0.0-83.0","task_version":"test-retest-t4"},{"Rune":"rune_08_mannaz","Hex":"#ffcc3399","Correct":32,"Choice":32,"RT":416.14499999559484,"Accuracy":1,"Outcome":"+1","Keys":[1916.9899999978952],"TotalKeys":1,"Block":1,"Trial":76,"Robot":1,"Valence":"Win","Action":"Go","Sham":1,"Color":"yellow","trial_type":"pit-trial","trial_index":95,"time_elapsed":443494,"internal_node_id":"0.0-84.0","task_version":"test-retest-t4"},{"Rune":"rune_08_mannaz","Hex":"#ffcc3399","Correct":32,"Choice":32,"RT":369.7249999968335,"Accuracy":1,"Outcome":"+10","Keys":[1869.9199999973644],"TotalKeys":1,"Block":1,"Trial":77,"Robot":1,"Valence":"Win","Action":"Go","Sham":0,"Color":"yellow","trial_type":"pit-trial","trial_index":96,"time_elapsed":446367,"internal_node_id":"0.0-85.0","task_version":"test-retest-t4"},{"Rune":"rune_08_fehu","Hex":"#3366ff99","Correct":-1,"Choice":-1,"RT":-1,"Accuracy":1,"Outcome":"-1","Keys":[],"TotalKeys":0,"Block":1,"Trial":78,"Robot":4,"Valence":"Lose","Action":"No-Go","Sham":0,"Color":"blue","trial_type":"pit-trial","trial_index":97,"time_elapsed":450371,"internal_node_id":"0.0-86.0","task_version":"test-retest-t4"},{"Rune":"rune_08_pertho","Hex":"#ffcc3399","Correct":-1,"Choice":-1,"RT":-1,"Accuracy":1,"Outcome":"+1","Keys":[],"TotalKeys":0,"Block":1,"Trial":79,"Robot":2,"Valence":"Win","Action":"No-Go","Sham":1,"Color":"yellow","trial_type":"pit-trial","trial_index":98,"time_elapsed":454376,"internal_node_id":"0.0-87.0","task_version":"test-retest-t4"},{"Rune":"rune_08_sigel","Hex":"#3366ff99","Correct":32,"Choice":32,"RT":615.3849999973318,"Accuracy":1,"Outcome":"-1","Keys":[2116.685000000871],"TotalKeys":1,"Block":1,"Trial":80,"Robot":3,"Valence":"Lose","Action":"Go","Sham":0,"Color":"blue","trial_type":"pit-trial","trial_index":99,"time_elapsed":457496,"internal_node_id":"0.0-88.0","task_version":"test-retest-t4"},{"Rune":"rune_08_fehu","Hex":"#3366ff99","Correct":-1,"Choice":-1,"RT":-1,"Accuracy":1,"Outcome":"-1","Keys":[],"TotalKeys":0,"Block":1,"Trial":81,"Robot":4,"Valence":"Lose","Action":"No-Go","Sham":0,"Color":"blue","trial_type":"pit-trial","trial_index":100,"time_elapsed":461499,"internal_node_id":"0.0-89.0","task_version":"test-retest-t4"},{"Rune":"rune_08_sigel","Hex":"#3366ff99","Correct":32,"Choice":32,"RT":476.01000001304783,"Accuracy":1,"Outcome":"-1","Keys":[1976.6950000048382],"TotalKeys":1,"Block":1,"Trial":82,"Robot":3,"Valence":"Lose","Action":"Go","Sham":0,"Color":"blue","trial_type":"pit-trial","trial_index":101,"time_elapsed":464478,"internal_node_id":"0.0-90.0","task_version":"test-retest-t4"},{"Rune":"rune_08_mannaz","Hex":"#ffcc3399","Correct":32,"Choice":32,"RT":368.784999998752,"Accuracy":1,"Outcome":"+10","Keys":[1869.0800000040326],"TotalKeys":1,"Block":1,"Trial":83,"Robot":1,"Valence":"Win","Action":"Go","Sham":0,"Color":"yellow","trial_type":"pit-trial","trial_index":102,"time_elapsed":467350,"internal_node_id":"0.0-91.0","task_version":"test-retest-t4"},{"Rune":"rune_08_pertho","Hex":"#ffcc3399","Correct":-1,"Choice":-1,"RT":-1,"Accuracy":1,"Outcome":"+10","Keys":[],"TotalKeys":0,"Block":1,"Trial":84,"Robot":2,"Valence":"Win","Action":"No-Go","Sham":0,"Color":"yellow","trial_type":"pit-trial","trial_index":103,"time_elapsed":471354,"internal_node_id":"0.0-92.0","task_version":"test-retest-t4"},{"Rune":"rune_08_pertho","Hex":"#ffcc3399","Correct":-1,"Choice":-1,"RT":-1,"Accuracy":1,"Outcome":"+10","Keys":[],"TotalKeys":0,"Block":1,"Trial":85,"Robot":2,"Valence":"Win","Action":"No-Go","Sham":0,"Color":"yellow","trial_type":"pit-trial","trial_index":104,"time_elapsed":475360,"internal_node_id":"0.0-93.0","task_version":"test-retest-t4"},{"Rune":"rune_08_fehu","Hex":"#3366ff99","Correct":-1,"Choice":32,"RT":798.9099999977043,"Accuracy":0,"Outcome":"-1","Keys":[2299.8399999924004],"TotalKeys":1,"Block":1,"Trial":86,"Robot":4,"Valence":"Lose","Action":"No-Go","Sham":1,"Color":"blue","trial_type":"pit-trial","trial_index":105,"time_elapsed":478662,"internal_node_id":"0.0-94.0","task_version":"test-retest-t4"},{"Rune":"rune_08_sigel","Hex":"#3366ff99","Correct":32,"Choice":32,"RT":665.7050000067102,"Accuracy":1,"Outcome":"-1","Keys":[2166.1000000021886],"TotalKeys":1,"Block":1,"Trial":87,"Robot":3,"Valence":"Lose","Action":"Go","Sham":0,"Color":"blue","trial_type":"pit-trial","trial_index":106,"time_elapsed":481831,"internal_node_id":"0.0-95.0","task_version":"test-retest-t4"},{"Rune":"rune_08_mannaz","Hex":"#ffcc3399","Correct":32,"Choice":32,"RT":608.460000003106,"Accuracy":1,"Outcome":"+1","Keys":[2109.0900000126567],"TotalKeys":1,"Block":1,"Trial":88,"Robot":1,"Valence":"Win","Action":"Go","Sham":1,"Color":"yellow","trial_type":"pit-trial","trial_index":107,"time_elapsed":484943,"internal_node_id":"0.0-96.0","task_version":"test-retest-t4"},{"Rune":"rune_08_pertho","Hex":"#ffcc3399","Correct":-1,"Choice":-1,"RT":-1,"Accuracy":1,"Outcome":"+10","Keys":[],"TotalKeys":0,"Block":1,"Trial":89,"Robot":2,"Valence":"Win","Action":"No-Go","Sham":0,"Color":"yellow","trial_type":"pit-trial","trial_index":108,"time_elapsed":488946,"internal_node_id":"0.0-97.0","task_version":"test-retest-t4"},{"Rune":"rune_08_mannaz","Hex":"#ffcc3399","Correct":32,"Choice":32,"RT":389.4600000057835,"Accuracy":1,"Outcome":"+10","Keys":[1889.9150000070222],"TotalKeys":1,"Block":1,"Trial":90,"Robot":1,"Valence":"Win","Action":"Go","Sham":0,"Color":"yellow","trial_type":"pit-trial","trial_index":109,"time_elapsed":491839,"internal_node_id":"0.0-98.0","task_version":"test-retest-t4"},{"Rune":"rune_08_fehu","Hex":"#3366ff99","Correct":-1,"Choice":-1,"RT":-1,"Accuracy":1,"Outcome":"-1","Keys":[],"TotalKeys":0,"Block":1,"Trial":91,"Robot":4,"Valence":"Lose","Action":"No-Go","Sham":0,"Color":"blue","trial_type":"pit-trial","trial_index":110,"time_elapsed":495843,"internal_node_id":"0.0-99.0","task_version":"test-retest-t4"},{"Rune":"rune_08_sigel","Hex":"#3366ff99","Correct":32,"Choice":32,"RT":476.42500000074506,"Accuracy":1,"Outcome":"-1","Keys":[1976.7599999904633],"TotalKeys":1,"Block":1,"Trial":92,"Robot":3,"Valence":"Lose","Action":"Go","Sham":0,"Color":"blue","trial_type":"pit-trial","trial_index":111,"time_elapsed":498822,"internal_node_id":"0.0-100.0","task_version":"test-retest-t4"},{"Rune":"rune_08_mannaz","Hex":"#ffcc3399","Correct":32,"Choice":32,"RT":522.1849999943515,"Accuracy":1,"Outcome":"+10","Keys":[2022.5099999952363],"TotalKeys":1,"Block":1,"Trial":93,"Robot":1,"Valence":"Win","Action":"Go","Sham":0,"Color":"yellow","trial_type":"pit-trial","trial_index":112,"time_elapsed":501847,"internal_node_id":"0.0-101.0","task_version":"test-retest-t4"},{"Rune":"rune_08_fehu","Hex":"#3366ff99","Correct":-1,"Choice":32,"RT":705.0050000107149,"Accuracy":0,"Outcome":"-10","Keys":[2205.2699999912875],"TotalKeys":1,"Block":1,"Trial":94,"Robot":4,"Valence":"Lose","Action":"No-Go","Sham":0,"Color":"blue","trial_type":"pit-trial","trial_index":113,"time_elapsed":505056,"internal_node_id":"0.0-102.0","task_version":"test-retest-t4"},{"Rune":"rune_08_sigel","Hex":"#3366ff99","Correct":32,"Choice":32,"RT":599.3900000030408,"Accuracy":1,"Outcome":"-10","Keys":[2099.9700000102166],"TotalKeys":1,"Block":1,"Trial":95,"Robot":3,"Valence":"Lose","Action":"Go","Sham":1,"Color":"blue","trial_type":"pit-trial","trial_index":114,"time_elapsed":508158,"internal_node_id":"0.0-103.0","task_version":"test-retest-t4"},{"Rune":"rune_08_pertho","Hex":"#ffcc3399","Correct":-1,"Choice":-1,"RT":-1,"Accuracy":1,"Outcome":"+10","Keys":[],"TotalKeys":0,"Block":1,"Trial":96,"Robot":2,"Valence":"Win","Action":"No-Go","Sham":0,"Color":"yellow","trial_type":"pit-trial","trial_index":115,"time_elapsed":512160,"internal_node_id":"0.0-104.0","task_version":"test-retest-t4"},{"Rune":"rune_08_mannaz","Hex":"#ffcc3399","Correct":32,"Choice":32,"RT":279.66499999456573,"Accuracy":1,"Outcome":"+10","Keys":[1780.1199999958044],"TotalKeys":1,"Block":1,"Trial":97,"Robot":1,"Valence":"Win","Action":"Go","Sham":0,"Color":"yellow","trial_type":"pit-trial","trial_index":116,"time_elapsed":514943,"internal_node_id":"0.0-105.0","task_version":"test-retest-t4"},{"Rune":"rune_08_fehu","Hex":"#3366ff99","Correct":-1,"Choice":-1,"RT":-1,"Accuracy":1,"Outcome":"-1","Keys":[],"TotalKeys":0,"Block":1,"Trial":98,"Robot":4,"Valence":"Lose","Action":"No-Go","Sham":0,"Color":"blue","trial_type":"pit-trial","trial_index":117,"time_elapsed":518947,"internal_node_id":"0.0-106.0","task_version":"test-retest-t4"},{"Rune":"rune_08_sigel","Hex":"#3366ff99","Correct":32,"Choice":32,"RT":773.0300000112038,"Accuracy":1,"Outcome":"-1","Keys":[2273.400000005495],"TotalKeys":1,"Block":1,"Trial":99,"Robot":3,"Valence":"Lose","Action":"Go","Sham":0,"Color":"blue","trial_type":"pit-trial","trial_index":118,"time_elapsed":522223,"internal_node_id":"0.0-107.0","task_version":"test-retest-t4"},{"Rune":"rune_08_pertho","Hex":"#ffcc3399","Correct":-1,"Choice":-1,"RT":-1,"Accuracy":1,"Outcome":"+1","Keys":[],"TotalKeys":0,"Block":1,"Trial":100,"Robot":2,"Valence":"Win","Action":"No-Go","Sham":1,"Color":"yellow","trial_type":"pit-trial","trial_index":119,"time_elapsed":526227,"internal_node_id":"0.0-108.0","task_version":"test-retest-t4"},{"Rune":"rune_08_sigel","Hex":"#3366ff99","Correct":32,"Choice":32,"RT":533.595000000787,"Accuracy":1,"Outcome":"-1","Keys":[2033.850000007078],"TotalKeys":1,"Block":1,"Trial":101,"Robot":3,"Valence":"Lose","Action":"Go","Sham":0,"Color":"blue","trial_type":"pit-trial","trial_index":120,"time_elapsed":529263,"internal_node_id":"0.0-109.0","task_version":"test-retest-t4"},{"Rune":"rune_08_pertho","Hex":"#ffcc3399","Correct":-1,"Choice":-1,"RT":-1,"Accuracy":1,"Outcome":"+10","Keys":[],"TotalKeys":0,"Block":1,"Trial":102,"Robot":2,"Valence":"Win","Action":"No-Go","Sham":0,"Color":"yellow","trial_type":"pit-trial","trial_index":121,"time_elapsed":533265,"internal_node_id":"0.0-110.0","task_version":"test-retest-t4"},{"Rune":"rune_08_fehu","Hex":"#3366ff99","Correct":-1,"Choice":-1,"RT":-1,"Accuracy":1,"Outcome":"-10","Keys":[],"TotalKeys":0,"Block":1,"Trial":103,"Robot":4,"Valence":"Lose","Action":"No-Go","Sham":1,"Color":"blue","trial_type":"pit-trial","trial_index":122,"time_elapsed":537268,"internal_node_id":"0.0-111.0","task_version":"test-retest-t4"},{"Rune":"rune_08_mannaz","Hex":"#ffcc3399","Correct":32,"Choice":32,"RT":404.5050000131596,"Accuracy":1,"Outcome":"+10","Keys":[1904.7149999969406],"TotalKeys":1,"Block":1,"Trial":104,"Robot":1,"Valence":"Win","Action":"Go","Sham":0,"Color":"yellow","trial_type":"pit-trial","trial_index":123,"time_elapsed":540175,"internal_node_id":"0.0-112.0","task_version":"test-retest-t4"},{"Rune":"rune_08_sigel","Hex":"#3366ff99","Correct":32,"Choice":32,"RT":520.4150000063237,"Accuracy":1,"Outcome":"-1","Keys":[2021.0149999911664],"TotalKeys":1,"Block":1,"Trial":105,"Robot":3,"Valence":"Lose","Action":"Go","Sham":0,"Color":"blue","trial_type":"pit-trial","trial_index":124,"time_elapsed":543199,"internal_node_id":"0.0-113.0","task_version":"test-retest-t4"},{"Rune":"rune_08_pertho","Hex":"#ffcc3399","Correct":-1,"Choice":32,"RT":832.3199999867938,"Accuracy":0,"Outcome":"+1","Keys":[2333.2099999970524],"TotalKeys":1,"Block":1,"Trial":106,"Robot":2,"Valence":"Win","Action":"No-Go","Sham":0,"Color":"yellow","trial_type":"pit-trial","trial_index":125,"time_elapsed":546535,"internal_node_id":"0.0-114.0","task_version":"test-retest-t4"},{"Rune":"rune_08_fehu","Hex":"#3366ff99","Correct":-1,"Choice":-1,"RT":-1,"Accuracy":1,"Outcome":"-1","Keys":[],"TotalKeys":0,"Block":1,"Trial":107,"Robot":4,"Valence":"Lose","Action":"No-Go","Sham":0,"Color":"blue","trial_type":"pit-trial","trial_index":126,"time_elapsed":550538,"internal_node_id":"0.0-115.0","task_version":"test-retest-t4"},{"Rune":"rune_08_mannaz","Hex":"#ffcc3399","Correct":32,"Choice":32,"RT":542.4800000037067,"Accuracy":1,"Outcome":"+10","Keys":[2042.6699999952689],"TotalKeys":1,"Block":1,"Trial":108,"Robot":1,"Valence":"Win","Action":"Go","Sham":0,"Color":"yellow","trial_type":"pit-trial","trial_index":127,"time_elapsed":553583,"internal_node_id":"0.0-116.0","task_version":"test-retest-t4"},{"Rune":"rune_08_mannaz","Hex":"#ffcc3399","Correct":32,"Choice":32,"RT":640.5650000087917,"Accuracy":1,"Outcome":"+10","Keys":[2141.3749999919673],"TotalKeys":1,"Block":1,"Trial":109,"Robot":1,"Valence":"Win","Action":"Go","Sham":0,"Color":"yellow","trial_type":"pit-trial","trial_index":128,"time_elapsed":556727,"internal_node_id":"0.0-117.0","task_version":"test-retest-t4"},{"Rune":"rune_08_pertho","Hex":"#ffcc3399","Correct":-1,"Choice":-1,"RT":-1,"Accuracy":1,"Outcome":"+10","Keys":[],"TotalKeys":0,"Block":1,"Trial":110,"Robot":2,"Valence":"Win","Action":"No-Go","Sham":0,"Color":"yellow","trial_type":"pit-trial","trial_index":129,"time_elapsed":560730,"internal_node_id":"0.0-118.0","task_version":"test-retest-t4"},{"Rune":"rune_08_fehu","Hex":"#3366ff99","Correct":-1,"Choice":-1,"RT":-1,"Accuracy":1,"Outcome":"-1","Keys":[],"TotalKeys":0,"Block":1,"Trial":111,"Robot":4,"Valence":"Lose","Action":"No-Go","Sham":0,"Color":"blue","trial_type":"pit-trial","trial_index":130,"time_elapsed":564734,"internal_node_id":"0.0-119.0","task_version":"test-retest-t4"},{"Rune":"rune_08_sigel","Hex":"#3366ff99","Correct":32,"Choice":32,"RT":1138.9000000053784,"Accuracy":1,"Outcome":"-1","Keys":[2638.9500000077533],"TotalKeys":1,"Block":1,"Trial":112,"Robot":3,"Valence":"Lose","Action":"Go","Sham":0,"Color":"blue","trial_type":"pit-trial","trial_index":131,"time_elapsed":568374,"internal_node_id":"0.0-120.0","task_version":"test-retest-t4"},{"Rune":"rune_08_fehu","Hex":"#3366ff99","Correct":-1,"Choice":-1,"RT":-1,"Accuracy":1,"Outcome":"-1","Keys":[],"TotalKeys":0,"Block":1,"Trial":113,"Robot":4,"Valence":"Lose","Action":"No-Go","Sham":0,"Color":"blue","trial_type":"pit-trial","trial_index":132,"time_elapsed":572377,"internal_node_id":"0.0-121.0","task_version":"test-retest-t4"},{"Rune":"rune_08_pertho","Hex":"#ffcc3399","Correct":-1,"Choice":-1,"RT":-1,"Accuracy":1,"Outcome":"+10","Keys":[],"TotalKeys":0,"Block":1,"Trial":114,"Robot":2,"Valence":"Win","Action":"No-Go","Sham":0,"Color":"yellow","trial_type":"pit-trial","trial_index":133,"time_elapsed":576380,"internal_node_id":"0.0-122.0","task_version":"test-retest-t4"},{"Rune":"rune_08_mannaz","Hex":"#ffcc3399","Correct":32,"Choice":32,"RT":395.00000000407454,"Accuracy":1,"Outcome":"+1","Keys":[1895.795000004],"TotalKeys":1,"Block":1,"Trial":115,"Robot":1,"Valence":"Win","Action":"Go","Sham":1,"Color":"yellow","trial_type":"pit-trial","trial_index":134,"time_elapsed":579278,"internal_node_id":"0.0-123.0","task_version":"test-retest-t4"},{"Rune":"rune_08_sigel","Hex":"#3366ff99","Correct":32,"Choice":32,"RT":520.9949999989476,"Accuracy":1,"Outcome":"-10","Keys":[2021.4750000013737],"TotalKeys":1,"Block":1,"Trial":116,"Robot":3,"Valence":"Lose","Action":"Go","Sham":1,"Color":"blue","trial_type":"pit-trial","trial_index":135,"time_elapsed":582302,"internal_node_id":"0.0-124.0","task_version":"test-retest-t4"},{"Rune":"rune_08_fehu","Hex":"#3366ff99","Correct":-1,"Choice":-1,"RT":-1,"Accuracy":1,"Outcome":"-1","Keys":[],"TotalKeys":0,"Block":1,"Trial":117,"Robot":4,"Valence":"Lose","Action":"No-Go","Sham":0,"Color":"blue","trial_type":"pit-trial","trial_index":136,"time_elapsed":586305,"internal_node_id":"0.0-125.0","task_version":"test-retest-t4"},{"Rune":"rune_08_sigel","Hex":"#3366ff99","Correct":32,"Choice":32,"RT":967.1150000067428,"Accuracy":1,"Outcome":"-1","Keys":[2467.2299999947427],"TotalKeys":1,"Block":1,"Trial":118,"Robot":3,"Valence":"Lose","Action":"Go","Sham":0,"Color":"blue","trial_type":"pit-trial","trial_index":137,"time_elapsed":589775,"internal_node_id":"0.0-126.0","task_version":"test-retest-t4"},{"Rune":"rune_08_mannaz","Hex":"#ffcc3399","Correct":32,"Choice":32,"RT":408.5599999962142,"Accuracy":1,"Outcome":"+10","Keys":[1908.9600000006612],"TotalKeys":1,"Block":1,"Trial":119,"Robot":1,"Valence":"Win","Action":"Go","Sham":0,"Color":"yellow","trial_type":"pit-trial","trial_index":138,"time_elapsed":592686,"internal_node_id":"0.0-127.0","task_version":"test-retest-t4"},{"Rune":"rune_08_pertho","Hex":"#ffcc3399","Correct":-1,"Choice":-1,"RT":-1,"Accuracy":1,"Outcome":"+1","Keys":[],"TotalKeys":0,"Block":1,"Trial":120,"Robot":2,"Valence":"Win","Action":"No-Go","Sham":1,"Color":"yellow","trial_type":"pit-trial","trial_index":139,"time_elapsed":596690,"internal_node_id":"0.0-128.0","task_version":"test-retest-t4"},{"view_history":"[{\"page_index\":0,\"viewing_time\":41510.45000000158},{\"page_index\":1,\"viewing_time\":1517.585000008694},{\"page_index\":2,\"viewing_time\":1190.039999986766}]","rt":44218.4350000025,"trial_type":"pit-instructions","trial_index":140,"time_elapsed":640909,"internal_node_id":"0.0-129.0","task_version":"test-retest-t4"},{"Rune":"rune_07_kauna","Hex":"#ffcc3399","Correct":-1,"Choice":32,"RT":441.39999999606516,"Accuracy":0,"Outcome":"+1","Keys":[1941.884999992908],"TotalKeys":1,"Block":2,"Trial":121,"Robot":2,"Valence":"Win","Action":"No-Go","Sham":0,"Color":"yellow","trial_type":"pit-trial","trial_index":141,"time_elapsed":643854,"internal_node_id":"0.0-130.0","task_version":"test-retest-t4"},{"Rune":"rune_07_laukaz","Hex":"#3366ff99","Correct":32,"Choice":32,"RT":552.2000000055414,"Accuracy":1,"Outcome":"-1","Keys":[2053.1449999980396],"TotalKeys":1,"Block":2,"Trial":122,"Robot":3,"Valence":"Lose","Action":"Go","Sham":0,"Color":"blue","trial_type":"pit-trial","trial_index":142,"time_elapsed":646910,"internal_node_id":"0.0-131.0","task_version":"test-retest-t4"},{"Rune":"rune_07_thurisaz","Hex":"#3366ff99","Correct":-1,"Choice":-1,"RT":-1,"Accuracy":1,"Outcome":"-10","Keys":[],"TotalKeys":0,"Block":2,"Trial":123,"Robot":4,"Valence":"Lose","Action":"No-Go","Sham":1,"Color":"blue","trial_type":"pit-trial","trial_index":143,"time_elapsed":650913,"internal_node_id":"0.0-132.0","task_version":"test-retest-t4"},{"Rune":"rune_07_gar","Hex":"#ffcc3399","Correct":32,"Choice":32,"RT":548.3899999962887,"Accuracy":1,"Outcome":"+10","Keys":[2050.3049999970244],"TotalKeys":1,"Block":2,"Trial":124,"Robot":1,"Valence":"Win","Action":"Go","Sham":0,"Color":"yellow","trial_type":"pit-trial","trial_index":144,"time_elapsed":653966,"internal_node_id":"0.0-133.0","task_version":"test-retest-t4"},{"Rune":"rune_07_kauna","Hex":"#ffcc3399","Correct":-1,"Choice":-1,"RT":-1,"Accuracy":1,"Outcome":"+10","Keys":[],"TotalKeys":0,"Block":2,"Trial":125,"Robot":2,"Valence":"Win","Action":"No-Go","Sham":0,"Color":"yellow","trial_type":"pit-trial","trial_index":145,"time_elapsed":657970,"internal_node_id":"0.0-134.0","task_version":"test-retest-t4"},{"Rune":"rune_07_laukaz","Hex":"#3366ff99","Correct":32,"Choice":-1,"RT":-1,"Accuracy":0,"Outcome":"-10","Keys":[],"TotalKeys":0,"Block":2,"Trial":126,"Robot":3,"Valence":"Lose","Action":"Go","Sham":0,"Color":"blue","trial_type":"pit-trial","trial_index":146,"time_elapsed":661974,"internal_node_id":"0.0-135.0","task_version":"test-retest-t4"},{"Rune":"rune_07_thurisaz","Hex":"#3366ff99","Correct":-1,"Choice":-1,"RT":-1,"Accuracy":1,"Outcome":"-1","Keys":[],"TotalKeys":0,"Block":2,"Trial":127,"Robot":4,"Valence":"Lose","Action":"No-Go","Sham":0,"Color":"blue","trial_type":"pit-trial","trial_index":147,"time_elapsed":665979,"internal_node_id":"0.0-136.0","task_version":"test-retest-t4"},{"Rune":"rune_07_gar","Hex":"#ffcc3399","Correct":32,"Choice":32,"RT":556.7200000077719,"Accuracy":1,"Outcome":"+10","Keys":[2057.025000001886],"TotalKeys":1,"Block":2,"Trial":128,"Robot":1,"Valence":"Win","Action":"Go","Sham":0,"Color":"yellow","trial_type":"pit-trial","trial_index":148,"time_elapsed":669039,"internal_node_id":"0.0-137.0","task_version":"test-retest-t4"},{"Rune":"rune_07_kauna","Hex":"#ffcc3399","Correct":-1,"Choice":-1,"RT":-1,"Accuracy":1,"Outcome":"+10","Keys":[],"TotalKeys":0,"Block":2,"Trial":129,"Robot":2,"Valence":"Win","Action":"No-Go","Sham":0,"Color":"yellow","trial_type":"pit-trial","trial_index":149,"time_elapsed":673042,"internal_node_id":"0.0-138.0","task_version":"test-retest-t4"},{"Rune":"rune_07_laukaz","Hex":"#3366ff99","Correct":32,"Choice":-1,"RT":-1,"Accuracy":0,"Outcome":"-10","Keys":[],"TotalKeys":0,"Block":2,"Trial":130,"Robot":3,"Valence":"Lose","Action":"Go","Sham":0,"Color":"blue","trial_type":"pit-trial","trial_index":150,"time_elapsed":677046,"internal_node_id":"0.0-139.0","task_version":"test-retest-t4"},{"Rune":"rune_07_thurisaz","Hex":"#3366ff99","Correct":-1,"Choice":-1,"RT":-1,"Accuracy":1,"Outcome":"-1","Keys":[],"TotalKeys":0,"Block":2,"Trial":131,"Robot":4,"Valence":"Lose","Action":"No-Go","Sham":0,"Color":"blue","trial_type":"pit-trial","trial_index":151,"time_elapsed":681050,"internal_node_id":"0.0-140.0","task_version":"test-retest-t4"},{"Rune":"rune_07_gar","Hex":"#ffcc3399","Correct":32,"Choice":32,"RT":1069.0749999921536,"Accuracy":1,"Outcome":"+10","Keys":[2569.5050000067567],"TotalKeys":1,"Block":2,"Trial":132,"Robot":1,"Valence":"Win","Action":"Go","Sham":0,"Color":"yellow","trial_type":"pit-trial","trial_index":152,"time_elapsed":684622,"internal_node_id":"0.0-141.0","task_version":"test-retest-t4"},{"Rune":"rune_07_thurisaz","Hex":"#3366ff99","Correct":-1,"Choice":-1,"RT":-1,"Accuracy":1,"Outcome":"-1","Keys":[],"TotalKeys":0,"Block":2,"Trial":133,"Robot":4,"Valence":"Lose","Action":"No-Go","Sham":0,"Color":"blue","trial_type":"pit-trial","trial_index":153,"time_elapsed":688625,"internal_node_id":"0.0-142.0","task_version":"test-retest-t4"},{"Rune":"rune_07_gar","Hex":"#ffcc3399","Correct":32,"Choice":32,"RT":502.69500000285916,"Accuracy":1,"Outcome":"+10","Keys":[2003.2999999966705],"TotalKeys":1,"Block":2,"Trial":134,"Robot":1,"Valence":"Win","Action":"Go","Sham":0,"Color":"yellow","trial_type":"pit-trial","trial_index":154,"time_elapsed":691630,"internal_node_id":"0.0-143.0","task_version":"test-retest-t4"},{"Rune":"rune_07_kauna","Hex":"#ffcc3399","Correct":-1,"Choice":32,"RT":1383.7400000047637,"Accuracy":0,"Outcome":"+1","Keys":[2885.135000004084],"TotalKeys":1,"Block":2,"Trial":135,"Robot":2,"Valence":"Win","Action":"No-Go","Sham":0,"Color":"yellow","trial_type":"pit-trial","trial_index":155,"time_elapsed":695518,"internal_node_id":"0.0-144.0","task_version":"test-retest-t4"},{"Rune":"rune_07_laukaz","Hex":"#3366ff99","Correct":32,"Choice":32,"RT":328.6050000024261,"Accuracy":1,"Outcome":"-1","Keys":[1829.7600000078091],"TotalKeys":1,"Block":2,"Trial":136,"Robot":3,"Valence":"Lose","Action":"Go","Sham":0,"Color":"blue","trial_type":"pit-trial","trial_index":156,"time_elapsed":698350,"internal_node_id":"0.0-145.0","task_version":"test-retest-t4"},{"Rune":"rune_07_laukaz","Hex":"#3366ff99","Correct":32,"Choice":32,"RT":601.1450000078185,"Accuracy":1,"Outcome":"-10","Keys":[2101.809999992838],"TotalKeys":1,"Block":2,"Trial":137,"Robot":3,"Valence":"Lose","Action":"Go","Sham":1,"Color":"blue","trial_type":"pit-trial","trial_index":157,"time_elapsed":701456,"internal_node_id":"0.0-146.0","task_version":"test-retest-t4"},{"Rune":"rune_07_thurisaz","Hex":"#3366ff99","Correct":-1,"Choice":-1,"RT":-1,"Accuracy":1,"Outcome":"-1","Keys":[],"TotalKeys":0,"Block":2,"Trial":138,"Robot":4,"Valence":"Lose","Action":"No-Go","Sham":0,"Color":"blue","trial_type":"pit-trial","trial_index":158,"time_elapsed":705460,"internal_node_id":"0.0-147.0","task_version":"test-retest-t4"},{"Rune":"rune_07_kauna","Hex":"#ffcc3399","Correct":-1,"Choice":32,"RT":1186.9750000041677,"Accuracy":0,"Outcome":"+10","Keys":[2687.9899999912595],"TotalKeys":1,"Block":2,"Trial":139,"Robot":2,"Valence":"Win","Action":"No-Go","Sham":1,"Color":"yellow","trial_type":"pit-trial","trial_index":159,"time_elapsed":709150,"internal_node_id":"0.0-148.0","task_version":"test-retest-t4"},{"Rune":"rune_07_gar","Hex":"#ffcc3399","Correct":32,"Choice":32,"RT":583.809999996447,"Accuracy":1,"Outcome":"+1","Keys":[2085.305000000517],"TotalKeys":1,"Block":2,"Trial":140,"Robot":1,"Valence":"Win","Action":"Go","Sham":1,"Color":"yellow","trial_type":"pit-trial","trial_index":160,"time_elapsed":712239,"internal_node_id":"0.0-149.0","task_version":"test-retest-t4"},{"Rune":"rune_07_gar","Hex":"#ffcc3399","Correct":32,"Choice":32,"RT":424.84500000136904,"Accuracy":1,"Outcome":"+10","Keys":[1925.344999996014],"TotalKeys":1,"Block":2,"Trial":141,"Robot":1,"Valence":"Win","Action":"Go","Sham":0,"Color":"yellow","trial_type":"pit-trial","trial_index":161,"time_elapsed":715166,"internal_node_id":"0.0-150.0","task_version":"test-retest-t4"},{"Rune":"rune_07_laukaz","Hex":"#3366ff99","Correct":32,"Choice":32,"RT":584.6949999977369,"Accuracy":1,"Outcome":"-1","Keys":[2086.4000000001397],"TotalKeys":1,"Block":2,"Trial":142,"Robot":3,"Valence":"Lose","Action":"Go","Sham":0,"Color":"blue","trial_type":"pit-trial","trial_index":162,"time_elapsed":718254,"internal_node_id":"0.0-151.0","task_version":"test-retest-t4"},{"Rune":"rune_07_thurisaz","Hex":"#3366ff99","Correct":-1,"Choice":-1,"RT":-1,"Accuracy":1,"Outcome":"-1","Keys":[],"TotalKeys":0,"Block":2,"Trial":143,"Robot":4,"Valence":"Lose","Action":"No-Go","Sham":0,"Color":"blue","trial_type":"pit-trial","trial_index":163,"time_elapsed":722259,"internal_node_id":"0.0-152.0","task_version":"test-retest-t4"},{"Rune":"rune_07_kauna","Hex":"#ffcc3399","Correct":-1,"Choice":32,"RT":364.39999999129213,"Accuracy":0,"Outcome":"+1","Keys":[1864.529999991646],"TotalKeys":1,"Block":2,"Trial":144,"Robot":2,"Valence":"Win","Action":"No-Go","Sham":0,"Color":"yellow","trial_type":"pit-trial","trial_index":164,"time_elapsed":725127,"internal_node_id":"0.0-153.0","task_version":"test-retest-t4"},{"Rune":"rune_07_thurisaz","Hex":"#3366ff99","Correct":-1,"Choice":-1,"RT":-1,"Accuracy":1,"Outcome":"-1","Keys":[],"TotalKeys":0,"Block":2,"Trial":145,"Robot":4,"Valence":"Lose","Action":"No-Go","Sham":0,"Color":"blue","trial_type":"pit-trial","trial_index":165,"time_elapsed":729129,"internal_node_id":"0.0-154.0","task_version":"test-retest-t4"},{"Rune":"rune_07_kauna","Hex":"#ffcc3399","Correct":-1,"Choice":32,"RT":478.3599999936996,"Accuracy":0,"Outcome":"+1","Keys":[1979.4249999977183],"TotalKeys":1,"Block":2,"Trial":146,"Robot":2,"Valence":"Win","Action":"No-Go","Sham":0,"Color":"yellow","trial_type":"pit-trial","trial_index":166,"time_elapsed":732111,"internal_node_id":"0.0-155.0","task_version":"test-retest-t4"},{"Rune":"rune_07_gar","Hex":"#ffcc3399","Correct":32,"Choice":32,"RT":383.83999999496154,"Accuracy":1,"Outcome":"+10","Keys":[1884.6900000062305],"TotalKeys":1,"Block":2,"Trial":147,"Robot":1,"Valence":"Win","Action":"Go","Sham":0,"Color":"yellow","trial_type":"pit-trial","trial_index":167,"time_elapsed":734998,"internal_node_id":"0.0-156.0","task_version":"test-retest-t4"},{"Rune":"rune_07_laukaz","Hex":"#3366ff99","Correct":32,"Choice":32,"RT":744.5450000086566,"Accuracy":1,"Outcome":"-10","Keys":[2245.555000001332],"TotalKeys":1,"Block":2,"Trial":148,"Robot":3,"Valence":"Lose","Action":"Go","Sham":1,"Color":"blue","trial_type":"pit-trial","trial_index":168,"time_elapsed":738247,"internal_node_id":"0.0-157.0","task_version":"test-retest-t4"},{"Rune":"rune_07_laukaz","Hex":"#3366ff99","Correct":32,"Choice":-1,"RT":-1,"Accuracy":0,"Outcome":"-10","Keys":[],"TotalKeys":0,"Block":2,"Trial":149,"Robot":3,"Valence":"Lose","Action":"Go","Sham":0,"Color":"blue","trial_type":"pit-trial","trial_index":169,"time_elapsed":742250,"internal_node_id":"0.0-158.0","task_version":"test-retest-t4"},{"Rune":"rune_07_thurisaz","Hex":"#3366ff99","Correct":-1,"Choice":-1,"RT":-1,"Accuracy":1,"Outcome":"-1","Keys":[],"TotalKeys":0,"Block":2,"Trial":150,"Robot":4,"Valence":"Lose","Action":"No-Go","Sham":0,"Color":"blue","trial_type":"pit-trial","trial_index":170,"time_elapsed":746254,"internal_node_id":"0.0-159.0","task_version":"test-retest-t4"},{"Rune":"rune_07_gar","Hex":"#ffcc3399","Correct":32,"Choice":32,"RT":713.2050000072923,"Accuracy":1,"Outcome":"+1","Keys":[2213.6800000007497],"TotalKeys":1,"Block":2,"Trial":151,"Robot":1,"Valence":"Win","Action":"Go","Sham":1,"Color":"yellow","trial_type":"pit-trial","trial_index":171,"time_elapsed":749470,"internal_node_id":"0.0-160.0","task_version":"test-retest-t4"},{"Rune":"rune_07_kauna","Hex":"#ffcc3399","Correct":-1,"Choice":32,"RT":289.70000000845175,"Accuracy":0,"Outcome":"+10","Keys":[1790.2949999988778],"TotalKeys":1,"Block":2,"Trial":152,"Robot":2,"Valence":"Win","Action":"No-Go","Sham":1,"Color":"yellow","trial_type":"pit-trial","trial_index":172,"time_elapsed":752263,"internal_node_id":"0.0-161.0","task_version":"test-retest-t4"},{"Rune":"rune_07_kauna","Hex":"#ffcc3399","Correct":-1,"Choice":32,"RT":472.18500000599306,"Accuracy":0,"Outcome":"+1","Keys":[1973.1949999986682],"TotalKeys":1,"Block":2,"Trial":153,"Robot":2,"Valence":"Win","Action":"No-Go","Sham":0,"Color":"yellow","trial_type":"pit-trial","trial_index":173,"time_elapsed":755239,"internal_node_id":"0.0-162.0","task_version":"test-retest-t4"},{"Rune":"rune_07_gar","Hex":"#ffcc3399","Correct":32,"Choice":32,"RT":383.78499999816995,"Accuracy":1,"Outcome":"+10","Keys":[1884.9449999979697],"TotalKeys":1,"Block":2,"Trial":154,"Robot":1,"Valence":"Win","Action":"Go","Sham":0,"Color":"yellow","trial_type":"pit-trial","trial_index":174,"time_elapsed":758127,"internal_node_id":"0.0-163.0","task_version":"test-retest-t4"},{"Rune":"rune_07_laukaz","Hex":"#3366ff99","Correct":32,"Choice":-1,"RT":-1,"Accuracy":0,"Outcome":"-10","Keys":[],"TotalKeys":0,"Block":2,"Trial":155,"Robot":3,"Valence":"Lose","Action":"Go","Sham":0,"Color":"blue","trial_type":"pit-trial","trial_index":175,"time_elapsed":762128,"internal_node_id":"0.0-164.0","task_version":"test-retest-t4"},{"Rune":"rune_07_thurisaz","Hex":"#3366ff99","Correct":-1,"Choice":-1,"RT":-1,"Accuracy":1,"Outcome":"-10","Keys":[],"TotalKeys":0,"Block":2,"Trial":156,"Robot":4,"Valence":"Lose","Action":"No-Go","Sham":1,"Color":"blue","trial_type":"pit-trial","trial_index":176,"time_elapsed":766131,"internal_node_id":"0.0-165.0","task_version":"test-retest-t4"},{"Rune":"rune_07_kauna","Hex":"#ffcc3399","Correct":-1,"Choice":32,"RT":435.5050000012852,"Accuracy":0,"Outcome":"+1","Keys":[1936.9799999985844],"TotalKeys":1,"Block":2,"Trial":157,"Robot":2,"Valence":"Win","Action":"No-Go","Sham":0,"Color":"yellow","trial_type":"pit-trial","trial_index":177,"time_elapsed":769070,"internal_node_id":"0.0-166.0","task_version":"test-retest-t4"},{"Rune":"rune_07_gar","Hex":"#ffcc3399","Correct":32,"Choice":32,"RT":465.1599999924656,"Accuracy":1,"Outcome":"+10","Keys":[1965.4650000011316],"TotalKeys":1,"Block":2,"Trial":158,"Robot":1,"Valence":"Win","Action":"Go","Sham":0,"Color":"yellow","trial_type":"pit-trial","trial_index":178,"time_elapsed":772037,"internal_node_id":"0.0-167.0","task_version":"test-retest-t4"},{"Rune":"rune_07_thurisaz","Hex":"#3366ff99","Correct":-1,"Choice":-1,"RT":-1,"Accuracy":1,"Outcome":"-1","Keys":[],"TotalKeys":0,"Block":2,"Trial":159,"Robot":4,"Valence":"Lose","Action":"No-Go","Sham":0,"Color":"blue","trial_type":"pit-trial","trial_index":179,"time_elapsed":776040,"internal_node_id":"0.0-168.0","task_version":"test-retest-t4"},{"Rune":"rune_07_laukaz","Hex":"#3366ff99","Correct":32,"Choice":32,"RT":542.7500000077998,"Accuracy":1,"Outcome":"-1","Keys":[2043.244999993476],"TotalKeys":1,"Block":2,"Trial":160,"Robot":3,"Valence":"Lose","Action":"Go","Sham":0,"Color":"blue","trial_type":"pit-trial","trial_index":180,"time_elapsed":779087,"internal_node_id":"0.0-169.0","task_version":"test-retest-t4"},{"Rune":"rune_07_gar","Hex":"#ffcc3399","Correct":32,"Choice":32,"RT":473.7699999968754,"Accuracy":1,"Outcome":"+10","Keys":[1973.9299999928335],"TotalKeys":1,"Block":2,"Trial":161,"Robot":1,"Valence":"Win","Action":"Go","Sham":0,"Color":"yellow","trial_type":"pit-trial","trial_index":181,"time_elapsed":782063,"internal_node_id":"0.0-170.0","task_version":"test-retest-t4"},{"Rune":"rune_07_kauna","Hex":"#ffcc3399","Correct":-1,"Choice":32,"RT":528.4700000047451,"Accuracy":0,"Outcome":"+1","Keys":[2028.5399999993388],"TotalKeys":1,"Block":2,"Trial":162,"Robot":2,"Valence":"Win","Action":"No-Go","Sham":0,"Color":"yellow","trial_type":"pit-trial","trial_index":182,"time_elapsed":785094,"internal_node_id":"0.0-171.0","task_version":"test-retest-t4"},{"Rune":"rune_07_laukaz","Hex":"#3366ff99","Correct":32,"Choice":32,"RT":344.87000000081025,"Accuracy":1,"Outcome":"-1","Keys":[1845.6699999951525],"TotalKeys":1,"Block":2,"Trial":163,"Robot":3,"Valence":"Lose","Action":"Go","Sham":0,"Color":"blue","trial_type":"pit-trial","trial_index":183,"time_elapsed":787943,"internal_node_id":"0.0-172.0","task_version":"test-retest-t4"},{"Rune":"rune_07_thurisaz","Hex":"#3366ff99","Correct":-1,"Choice":-1,"RT":-1,"Accuracy":1,"Outcome":"-1","Keys":[],"TotalKeys":0,"Block":2,"Trial":164,"Robot":4,"Valence":"Lose","Action":"No-Go","Sham":0,"Color":"blue","trial_type":"pit-trial","trial_index":184,"time_elapsed":791946,"internal_node_id":"0.0-173.0","task_version":"test-retest-t4"},{"Rune":"rune_07_laukaz","Hex":"#3366ff99","Correct":32,"Choice":32,"RT":532.6499999937369,"Accuracy":1,"Outcome":"-1","Keys":[2033.5650000051828],"TotalKeys":1,"Block":2,"Trial":165,"Robot":3,"Valence":"Lose","Action":"Go","Sham":0,"Color":"blue","trial_type":"pit-trial","trial_index":185,"time_elapsed":794982,"internal_node_id":"0.0-174.0","task_version":"test-retest-t4"},{"Rune":"rune_07_thurisaz","Hex":"#3366ff99","Correct":-1,"Choice":-1,"RT":-1,"Accuracy":1,"Outcome":"-1","Keys":[],"TotalKeys":0,"Block":2,"Trial":166,"Robot":4,"Valence":"Lose","Action":"No-Go","Sham":0,"Color":"blue","trial_type":"pit-trial","trial_index":186,"time_elapsed":798986,"internal_node_id":"0.0-175.0","task_version":"test-retest-t4"},{"Rune":"rune_07_gar","Hex":"#ffcc3399","Correct":32,"Choice":32,"RT":349.5100000000093,"Accuracy":1,"Outcome":"+10","Keys":[1849.6949999971548],"TotalKeys":1,"Block":2,"Trial":167,"Robot":1,"Valence":"Win","Action":"Go","Sham":0,"Color":"yellow","trial_type":"pit-trial","trial_index":187,"time_elapsed":801839,"internal_node_id":"0.0-176.0","task_version":"test-retest-t4"},{"Rune":"rune_07_kauna","Hex":"#ffcc3399","Correct":-1,"Choice":32,"RT":521.1100000014994,"Accuracy":0,"Outcome":"+1","Keys":[2021.3300000032177],"TotalKeys":1,"Block":2,"Trial":168,"Robot":2,"Valence":"Win","Action":"No-Go","Sham":0,"Color":"yellow","trial_type":"pit-trial","trial_index":188,"time_elapsed":804863,"internal_node_id":"0.0-177.0","task_version":"test-retest-t4"},{"Rune":"rune_07_thurisaz","Hex":"#3366ff99","Correct":-1,"Choice":-1,"RT":-1,"Accuracy":1,"Outcome":"-1","Keys":[],"TotalKeys":0,"Block":2,"Trial":169,"Robot":4,"Valence":"Lose","Action":"No-Go","Sham":0,"Color":"blue","trial_type":"pit-trial","trial_index":189,"time_elapsed":808867,"internal_node_id":"0.0-178.0","task_version":"test-retest-t4"},{"Rune":"rune_07_gar","Hex":"#ffcc3399","Correct":32,"Choice":32,"RT":460.25999999255873,"Accuracy":1,"Outcome":"+10","Keys":[1960.6100000091828],"TotalKeys":1,"Block":2,"Trial":170,"Robot":1,"Valence":"Win","Action":"Go","Sham":0,"Color":"yellow","trial_type":"pit-trial","trial_index":190,"time_elapsed":811830,"internal_node_id":"0.0-179.0","task_version":"test-retest-t4"},{"Rune":"rune_07_laukaz","Hex":"#3366ff99","Correct":32,"Choice":32,"RT":623.2000000018161,"Accuracy":1,"Outcome":"-10","Keys":[2123.7899999978254],"TotalKeys":1,"Block":2,"Trial":171,"Robot":3,"Valence":"Lose","Action":"Go","Sham":1,"Color":"blue","trial_type":"pit-trial","trial_index":191,"time_elapsed":814958,"internal_node_id":"0.0-180.0","task_version":"test-retest-t4"},{"Rune":"rune_07_kauna","Hex":"#ffcc3399","Correct":-1,"Choice":32,"RT":634.1499999980442,"Accuracy":0,"Outcome":"+1","Keys":[2134.39500000095],"TotalKeys":1,"Block":2,"Trial":172,"Robot":2,"Valence":"Win","Action":"No-Go","Sham":0,"Color":"yellow","trial_type":"pit-trial","trial_index":192,"time_elapsed":818095,"internal_node_id":"0.0-181.0","task_version":"test-retest-t4"},{"Rune":"rune_07_gar","Hex":"#ffcc3399","Correct":32,"Choice":32,"RT":480.1149999984773,"Accuracy":1,"Outcome":"+10","Keys":[1980.7100000034552],"TotalKeys":1,"Block":2,"Trial":173,"Robot":1,"Valence":"Win","Action":"Go","Sham":0,"Color":"yellow","trial_type":"pit-trial","trial_index":193,"time_elapsed":821079,"internal_node_id":"0.0-182.0","task_version":"test-retest-t4"},{"Rune":"rune_07_laukaz","Hex":"#3366ff99","Correct":32,"Choice":32,"RT":809.3100000114646,"Accuracy":1,"Outcome":"-1","Keys":[2309.6300000033807],"TotalKeys":1,"Block":2,"Trial":174,"Robot":3,"Valence":"Lose","Action":"Go","Sham":0,"Color":"blue","trial_type":"pit-trial","trial_index":194,"time_elapsed":824391,"internal_node_id":"0.0-183.0","task_version":"test-retest-t4"},{"Rune":"rune_07_kauna","Hex":"#ffcc3399","Correct":-1,"Choice":32,"RT":705.7950000016717,"Accuracy":0,"Outcome":"+10","Keys":[2205.9300000109943],"TotalKeys":1,"Block":2,"Trial":175,"Robot":2,"Valence":"Win","Action":"No-Go","Sham":1,"Color":"yellow","trial_type":"pit-trial","trial_index":195,"time_elapsed":827600,"internal_node_id":"0.0-184.0","task_version":"test-retest-t4"},{"Rune":"rune_07_thurisaz","Hex":"#3366ff99","Correct":-1,"Choice":-1,"RT":-1,"Accuracy":1,"Outcome":"-1","Keys":[],"TotalKeys":0,"Block":2,"Trial":176,"Robot":4,"Valence":"Lose","Action":"No-Go","Sham":0,"Color":"blue","trial_type":"pit-trial","trial_index":196,"time_elapsed":831602,"internal_node_id":"0.0-185.0","task_version":"test-retest-t4"},{"Rune":"rune_07_gar","Hex":"#ffcc3399","Correct":32,"Choice":32,"RT":613.9250000123866,"Accuracy":1,"Outcome":"+1","Keys":[2114.430000001448],"TotalKeys":1,"Block":2,"Trial":177,"Robot":1,"Valence":"Win","Action":"Go","Sham":1,"Color":"yellow","trial_type":"pit-trial","trial_index":197,"time_elapsed":834720,"internal_node_id":"0.0-186.0","task_version":"test-retest-t4"},{"Rune":"rune_07_kauna","Hex":"#ffcc3399","Correct":-1,"Choice":32,"RT":727.6350000029197,"Accuracy":0,"Outcome":"+1","Keys":[2228.719999999157],"TotalKeys":1,"Block":2,"Trial":178,"Robot":2,"Valence":"Win","Action":"No-Go","Sham":0,"Color":"yellow","trial_type":"pit-trial","trial_index":198,"time_elapsed":837951,"internal_node_id":"0.0-187.0","task_version":"test-retest-t4"},{"Rune":"rune_07_laukaz","Hex":"#3366ff99","Correct":32,"Choice":32,"RT":776.9399999961024,"Accuracy":1,"Outcome":"-1","Keys":[2277.494999987539],"TotalKeys":1,"Block":2,"Trial":179,"Robot":3,"Valence":"Lose","Action":"Go","Sham":0,"Color":"blue","trial_type":"pit-trial","trial_index":199,"time_elapsed":841231,"internal_node_id":"0.0-188.0","task_version":"test-retest-t4"},{"Rune":"rune_07_thurisaz","Hex":"#3366ff99","Correct":-1,"Choice":-1,"RT":-1,"Accuracy":1,"Outcome":"-10","Keys":[],"TotalKeys":0,"Block":2,"Trial":180,"Robot":4,"Valence":"Lose","Action":"No-Go","Sham":1,"Color":"blue","trial_type":"pit-trial","trial_index":200,"time_elapsed":845234,"internal_node_id":"0.0-189.0","task_version":"test-retest-t4"},{"view_history":"[{\"page_index\":0,\"viewing_time\":29045.350000000326},{\"page_index\":1,\"viewing_time\":2425.1899999944726}]","rt":31470.959999991464,"trial_type":"pit-instructions","trial_index":201,"time_elapsed":876706,"internal_node_id":"0.0-190.0","task_version":"test-retest-t4"},{"Rune":"rune_07_kauna","Hex":"#ffcc3399","Correct":-1,"Choice":32,"RT":541.109999991022,"Accuracy":0,"Outcome":"+1","Keys":[2042.04000000027],"TotalKeys":1,"Block":2,"Trial":181,"Robot":2,"Valence":"Win","Action":"No-Go","Sham":0,"Color":"yellow","trial_type":"pit-trial","trial_index":202,"time_elapsed":879751,"internal_node_id":"0.0-191.0","task_version":"test-retest-t4"},{"Rune":"rune_07_laukaz","Hex":"#3366ff99","Correct":32,"Choice":32,"RT":1432.3850000073435,"Accuracy":1,"Outcome":"-1","Keys":[2933.904999998049],"TotalKeys":1,"Block":2,"Trial":182,"Robot":3,"Valence":"Lose","Action":"Go","Sham":0,"Color":"blue","trial_type":"pit-trial","trial_index":203,"time_elapsed":883687,"internal_node_id":"0.0-192.0","task_version":"test-retest-t4"},{"Rune":"rune_07_thurisaz","Hex":"#3366ff99","Correct":-1,"Choice":-1,"RT":-1,"Accuracy":1,"Outcome":"-1","Keys":[],"TotalKeys":0,"Block":2,"Trial":183,"Robot":4,"Valence":"Lose","Action":"No-Go","Sham":0,"Color":"blue","trial_type":"pit-trial","trial_index":204,"time_elapsed":887690,"internal_node_id":"0.0-193.0","task_version":"test-retest-t4"},{"Rune":"rune_07_gar","Hex":"#ffcc3399","Correct":32,"Choice":32,"RT":461.38999999675434,"Accuracy":1,"Outcome":"+10","Keys":[1961.7600000055972],"TotalKeys":1,"Block":2,"Trial":184,"Robot":1,"Valence":"Win","Action":"Go","Sham":0,"Color":"yellow","trial_type":"pit-trial","trial_index":205,"time_elapsed":890654,"internal_node_id":"0.0-194.0","task_version":"test-retest-t4"},{"Rune":"rune_07_kauna","Hex":"#ffcc3399","Correct":-1,"Choice":-1,"RT":-1,"Accuracy":1,"Outcome":"+10","Keys":[],"TotalKeys":0,"Block":2,"Trial":185,"Robot":2,"Valence":"Win","Action":"No-Go","Sham":0,"Color":"yellow","trial_type":"pit-trial","trial_index":206,"time_elapsed":894657,"internal_node_id":"0.0-195.0","task_version":"test-retest-t4"},{"Rune":"rune_07_gar","Hex":"#ffcc3399","Correct":32,"Choice":32,"RT":254.27000000490807,"Accuracy":1,"Outcome":"+10","Keys":[1755.2299999952083],"TotalKeys":1,"Block":2,"Trial":186,"Robot":1,"Valence":"Win","Action":"Go","Sham":0,"Color":"yellow","trial_type":"pit-trial","trial_index":207,"time_elapsed":897415,"internal_node_id":"0.0-196.0","task_version":"test-retest-t4"},{"Rune":"rune_07_laukaz","Hex":"#3366ff99","Correct":32,"Choice":-1,"RT":-1,"Accuracy":0,"Outcome":"-10","Keys":[],"TotalKeys":0,"Block":2,"Trial":187,"Robot":3,"Valence":"Lose","Action":"Go","Sham":0,"Color":"blue","trial_type":"pit-trial","trial_index":208,"time_elapsed":901418,"internal_node_id":"0.0-197.0","task_version":"test-retest-t4"},{"Rune":"rune_07_thurisaz","Hex":"#3366ff99","Correct":-1,"Choice":-1,"RT":-1,"Accuracy":1,"Outcome":"-1","Keys":[],"TotalKeys":0,"Block":2,"Trial":188,"Robot":4,"Valence":"Lose","Action":"No-Go","Sham":0,"Color":"blue","trial_type":"pit-trial","trial_index":209,"time_elapsed":905422,"internal_node_id":"0.0-198.0","task_version":"test-retest-t4"},{"Rune":"rune_07_kauna","Hex":"#ffcc3399","Correct":-1,"Choice":-1,"RT":-1,"Accuracy":1,"Outcome":"+10","Keys":[],"TotalKeys":0,"Block":2,"Trial":189,"Robot":2,"Valence":"Win","Action":"No-Go","Sham":0,"Color":"yellow","trial_type":"pit-trial","trial_index":210,"time_elapsed":909426,"internal_node_id":"0.0-199.0","task_version":"test-retest-t4"},{"Rune":"rune_07_thurisaz","Hex":"#3366ff99","Correct":-1,"Choice":-1,"RT":-1,"Accuracy":1,"Outcome":"-10","Keys":[],"TotalKeys":0,"Block":2,"Trial":190,"Robot":4,"Valence":"Lose","Action":"No-Go","Sham":1,"Color":"blue","trial_type":"pit-trial","trial_index":211,"time_elapsed":913429,"internal_node_id":"0.0-200.0","task_version":"test-retest-t4"},{"Rune":"rune_07_gar","Hex":"#ffcc3399","Correct":32,"Choice":32,"RT":417.99499999615364,"Accuracy":1,"Outcome":"+10","Keys":[1919.3999999988591],"TotalKeys":1,"Block":2,"Trial":191,"Robot":1,"Valence":"Win","Action":"Go","Sham":0,"Color":"yellow","trial_type":"pit-trial","trial_index":212,"time_elapsed":916351,"internal_node_id":"0.0-201.0","task_version":"test-retest-t4"},{"Rune":"rune_07_laukaz","Hex":"#3366ff99","Correct":32,"Choice":32,"RT":312.4750000133645,"Accuracy":1,"Outcome":"-10","Keys":[1813.0999999993946],"TotalKeys":1,"Block":2,"Trial":192,"Robot":3,"Valence":"Lose","Action":"Go","Sham":1,"Color":"blue","trial_type":"pit-trial","trial_index":213,"time_elapsed":919166,"internal_node_id":"0.0-202.0","task_version":"test-retest-t4"},{"Rune":"rune_07_gar","Hex":"#ffcc3399","Correct":32,"Choice":32,"RT":506.54999999096617,"Accuracy":1,"Outcome":"+1","Keys":[2006.8049999972573,2094.2700000014156],"TotalKeys":2,"Block":2,"Trial":193,"Robot":1,"Valence":"Win","Action":"Go","Sham":1,"Color":"yellow","trial_type":"pit-trial","trial_index":214,"time_elapsed":922175,"internal_node_id":"0.0-203.0","task_version":"test-retest-t4"},{"Rune":"rune_07_thurisaz","Hex":"#3366ff99","Correct":-1,"Choice":32,"RT":1032.9600000113714,"Accuracy":0,"Outcome":"-10","Keys":[2533.2849999977043],"TotalKeys":1,"Block":2,"Trial":194,"Robot":4,"Valence":"Lose","Action":"No-Go","Sham":0,"Color":"blue","trial_type":"pit-trial","trial_index":215,"time_elapsed":925711,"internal_node_id":"0.0-204.0","task_version":"test-retest-t4"},{"Rune":"rune_07_kauna","Hex":"#ffcc3399","Correct":-1,"Choice":32,"RT":912.3350000008941,"Accuracy":0,"Outcome":"+1","Keys":[2413.1450000131736],"TotalKeys":1,"Block":2,"Trial":195,"Robot":2,"Valence":"Win","Action":"No-Go","Sham":0,"Color":"yellow","trial_type":"pit-trial","trial_index":216,"time_elapsed":929127,"internal_node_id":"0.0-205.0","task_version":"test-retest-t4"},{"Rune":"rune_07_laukaz","Hex":"#3366ff99","Correct":32,"Choice":-1,"RT":-1,"Accuracy":0,"Outcome":"-10","Keys":[],"TotalKeys":0,"Block":2,"Trial":196,"Robot":3,"Valence":"Lose","Action":"Go","Sham":0,"Color":"blue","trial_type":"pit-trial","trial_index":217,"time_elapsed":933129,"internal_node_id":"0.0-206.0","task_version":"test-retest-t4"},{"Rune":"rune_07_gar","Hex":"#ffcc3399","Correct":32,"Choice":32,"RT":359.3200000032084,"Accuracy":1,"Outcome":"+10","Keys":[1859.7000000008848],"TotalKeys":1,"Block":2,"Trial":197,"Robot":1,"Valence":"Win","Action":"Go","Sham":0,"Color":"yellow","trial_type":"pit-trial","trial_index":218,"time_elapsed":935991,"internal_node_id":"0.0-207.0","task_version":"test-retest-t4"},{"Rune":"rune_07_laukaz","Hex":"#3366ff99","Correct":32,"Choice":32,"RT":424.0250000002561,"Accuracy":1,"Outcome":"-1","Keys":[1925.020000009681],"TotalKeys":1,"Block":2,"Trial":198,"Robot":3,"Valence":"Lose","Action":"Go","Sham":0,"Color":"blue","trial_type":"pit-trial","trial_index":219,"time_elapsed":938918,"internal_node_id":"0.0-208.0","task_version":"test-retest-t4"},{"Rune":"rune_07_thurisaz","Hex":"#3366ff99","Correct":-1,"Choice":-1,"RT":-1,"Accuracy":1,"Outcome":"-1","Keys":[],"TotalKeys":0,"Block":2,"Trial":199,"Robot":4,"Valence":"Lose","Action":"No-Go","Sham":0,"Color":"blue","trial_type":"pit-trial","trial_index":220,"time_elapsed":942922,"internal_node_id":"0.0-209.0","task_version":"test-retest-t4"},{"Rune":"rune_07_kauna","Hex":"#ffcc3399","Correct":-1,"Choice":-1,"RT":-1,"Accuracy":1,"Outcome":"+1","Keys":[],"TotalKeys":0,"Block":2,"Trial":200,"Robot":2,"Valence":"Win","Action":"No-Go","Sham":1,"Color":"yellow","trial_type":"pit-trial","trial_index":221,"time_elapsed":946928,"internal_node_id":"0.0-210.0","task_version":"test-retest-t4"},{"Rune":"rune_07_gar","Hex":"#ffcc3399","Correct":32,"Choice":32,"RT":438.80499999795575,"Accuracy":1,"Outcome":"+10","Keys":[1939.7299999982351],"TotalKeys":1,"Block":2,"Trial":201,"Robot":1,"Valence":"Win","Action":"Go","Sham":0,"Color":"yellow","trial_type":"pit-trial","trial_index":222,"time_elapsed":949871,"internal_node_id":"0.0-211.0","task_version":"test-retest-t4"},{"Rune":"rune_07_laukaz","Hex":"#3366ff99","Correct":32,"Choice":32,"RT":360.9149999974761,"Accuracy":1,"Outcome":"-1","Keys":[1861.1149999924237],"TotalKeys":1,"Block":2,"Trial":202,"Robot":3,"Valence":"Lose","Action":"Go","Sham":0,"Color":"blue","trial_type":"pit-trial","trial_index":223,"time_elapsed":952735,"internal_node_id":"0.0-212.0","task_version":"test-retest-t4"},{"Rune":"rune_07_kauna","Hex":"#ffcc3399","Correct":-1,"Choice":32,"RT":591.7150000022957,"Accuracy":0,"Outcome":"+1","Keys":[2092.3000000038883],"TotalKeys":1,"Block":2,"Trial":203,"Robot":2,"Valence":"Win","Action":"No-Go","Sham":0,"Color":"yellow","trial_type":"pit-trial","trial_index":224,"time_elapsed":955830,"internal_node_id":"0.0-213.0","task_version":"test-retest-t4"},{"Rune":"rune_07_thurisaz","Hex":"#3366ff99","Correct":-1,"Choice":-1,"RT":-1,"Accuracy":1,"Outcome":"-1","Keys":[],"TotalKeys":0,"Block":2,"Trial":204,"Robot":4,"Valence":"Lose","Action":"No-Go","Sham":0,"Color":"blue","trial_type":"pit-trial","trial_index":225,"time_elapsed":959835,"internal_node_id":"0.0-214.0","task_version":"test-retest-t4"},{"Rune":"rune_07_gar","Hex":"#ffcc3399","Correct":32,"Choice":32,"RT":428.10499999905005,"Accuracy":1,"Outcome":"+1","Keys":[1928.7849999964237],"TotalKeys":1,"Block":2,"Trial":205,"Robot":1,"Valence":"Win","Action":"Go","Sham":1,"Color":"yellow","trial_type":"pit-trial","trial_index":226,"time_elapsed":962766,"internal_node_id":"0.0-215.0","task_version":"test-retest-t4"},{"Rune":"rune_07_thurisaz","Hex":"#3366ff99","Correct":-1,"Choice":-1,"RT":-1,"Accuracy":1,"Outcome":"-10","Keys":[],"TotalKeys":0,"Block":2,"Trial":206,"Robot":4,"Valence":"Lose","Action":"No-Go","Sham":1,"Color":"blue","trial_type":"pit-trial","trial_index":227,"time_elapsed":966769,"internal_node_id":"0.0-216.0","task_version":"test-retest-t4"},{"Rune":"rune_07_laukaz","Hex":"#3366ff99","Correct":32,"Choice":32,"RT":342.9750000068452,"Accuracy":1,"Outcome":"-1","Keys":[1843.2050000119489],"TotalKeys":1,"Block":2,"Trial":207,"Robot":3,"Valence":"Lose","Action":"Go","Sham":0,"Color":"blue","trial_type":"pit-trial","trial_index":228,"time_elapsed":969615,"internal_node_id":"0.0-217.0","task_version":"test-retest-t4"},{"Rune":"rune_07_kauna","Hex":"#ffcc3399","Correct":-1,"Choice":32,"RT":409.0500000020256,"Accuracy":0,"Outcome":"+1","Keys":[1909.204999989015],"TotalKeys":1,"Block":2,"Trial":208,"Robot":2,"Valence":"Win","Action":"No-Go","Sham":0,"Color":"yellow","trial_type":"pit-trial","trial_index":229,"time_elapsed":972526,"internal_node_id":"0.0-218.0","task_version":"test-retest-t4"},{"Rune":"rune_07_kauna","Hex":"#ffcc3399","Correct":-1,"Choice":-1,"RT":-1,"Accuracy":1,"Outcome":"+10","Keys":[],"TotalKeys":0,"Block":2,"Trial":209,"Robot":2,"Valence":"Win","Action":"No-Go","Sham":0,"Color":"yellow","trial_type":"pit-trial","trial_index":230,"time_elapsed":976529,"internal_node_id":"0.0-219.0","task_version":"test-retest-t4"},{"Rune":"rune_07_gar","Hex":"#ffcc3399","Correct":32,"Choice":32,"RT":214.269999996759,"Accuracy":1,"Outcome":"+10","Keys":[1715.169999995851],"TotalKeys":1,"Block":2,"Trial":210,"Robot":1,"Valence":"Win","Action":"Go","Sham":0,"Color":"yellow","trial_type":"pit-trial","trial_index":231,"time_elapsed":979247,"internal_node_id":"0.0-220.0","task_version":"test-retest-t4"},{"Rune":"rune_07_laukaz","Hex":"#3366ff99","Correct":32,"Choice":32,"RT":552.2449999989476,"Accuracy":1,"Outcome":"-1","Keys":[2053.1749999936437],"TotalKeys":1,"Block":2,"Trial":211,"Robot":3,"Valence":"Lose","Action":"Go","Sham":0,"Color":"blue","trial_type":"pit-trial","trial_index":232,"time_elapsed":982302,"internal_node_id":"0.0-221.0","task_version":"test-retest-t4"},{"Rune":"rune_07_thurisaz","Hex":"#3366ff99","Correct":-1,"Choice":32,"RT":905.5300000036368,"Accuracy":0,"Outcome":"-10","Keys":[2406.3100000057602],"TotalKeys":1,"Block":2,"Trial":212,"Robot":4,"Valence":"Lose","Action":"No-Go","Sham":0,"Color":"blue","trial_type":"pit-trial","trial_index":233,"time_elapsed":985711,"internal_node_id":"0.0-222.0","task_version":"test-retest-t4"},{"Rune":"rune_07_kauna","Hex":"#ffcc3399","Correct":-1,"Choice":32,"RT":936.3100000045961,"Accuracy":0,"Outcome":"+1","Keys":[2436.9650000007823],"TotalKeys":1,"Block":2,"Trial":213,"Robot":2,"Valence":"Win","Action":"No-Go","Sham":0,"Color":"yellow","trial_type":"pit-trial","trial_index":234,"time_elapsed":989150,"internal_node_id":"0.0-223.0","task_version":"test-retest-t4"},{"Rune":"rune_07_laukaz","Hex":"#3366ff99","Correct":32,"Choice":32,"RT":770.8549999952083,"Accuracy":1,"Outcome":"-10","Keys":[2271.2049999972805],"TotalKeys":1,"Block":2,"Trial":214,"Robot":3,"Valence":"Lose","Action":"Go","Sham":1,"Color":"blue","trial_type":"pit-trial","trial_index":235,"time_elapsed":992423,"internal_node_id":"0.0-224.0","task_version":"test-retest-t4"},{"Rune":"rune_07_thurisaz","Hex":"#3366ff99","Correct":-1,"Choice":-1,"RT":-1,"Accuracy":1,"Outcome":"-1","Keys":[],"TotalKeys":0,"Block":2,"Trial":215,"Robot":4,"Valence":"Lose","Action":"No-Go","Sham":0,"Color":"blue","trial_type":"pit-trial","trial_index":236,"time_elapsed":996426,"internal_node_id":"0.0-225.0","task_version":"test-retest-t4"},{"Rune":"rune_07_gar","Hex":"#ffcc3399","Correct":32,"Choice":32,"RT":366.23499999404885,"Accuracy":1,"Outcome":"+10","Keys":[1866.795000009006],"TotalKeys":1,"Block":2,"Trial":216,"Robot":1,"Valence":"Win","Action":"Go","Sham":0,"Color":"yellow","trial_type":"pit-trial","trial_index":237,"time_elapsed":999296,"internal_node_id":"0.0-226.0","task_version":"test-retest-t4"},{"Rune":"rune_07_laukaz","Hex":"#3366ff99","Correct":32,"Choice":32,"RT":583.2499999960419,"Accuracy":1,"Outcome":"-1","Keys":[2083.715000000666],"TotalKeys":1,"Block":2,"Trial":217,"Robot":3,"Valence":"Lose","Action":"Go","Sham":0,"Color":"blue","trial_type":"pit-trial","trial_index":238,"time_elapsed":1002383,"internal_node_id":"0.0-227.0","task_version":"test-retest-t4"},{"Rune":"rune_07_thurisaz","Hex":"#3366ff99","Correct":-1,"Choice":-1,"RT":-1,"Accuracy":1,"Outcome":"-1","Keys":[],"TotalKeys":0,"Block":2,"Trial":218,"Robot":4,"Valence":"Lose","Action":"No-Go","Sham":0,"Color":"blue","trial_type":"pit-trial","trial_index":239,"time_elapsed":1006387,"internal_node_id":"0.0-228.0","task_version":"test-retest-t4"},{"Rune":"rune_07_gar","Hex":"#ffcc3399","Correct":32,"Choice":32,"RT":428.82500000996515,"Accuracy":1,"Outcome":"+10","Keys":[1929.4300000037765],"TotalKeys":1,"Block":2,"Trial":219,"Robot":1,"Valence":"Win","Action":"Go","Sham":0,"Color":"yellow","trial_type":"pit-trial","trial_index":240,"time_elapsed":1009319,"internal_node_id":"0.0-229.0","task_version":"test-retest-t4"},{"Rune":"rune_07_kauna","Hex":"#ffcc3399","Correct":-1,"Choice":32,"RT":735.0049999949988,"Accuracy":0,"Outcome":"+10","Keys":[2236.299999989569],"TotalKeys":1,"Block":2,"Trial":220,"Robot":2,"Valence":"Win","Action":"No-Go","Sham":1,"Color":"yellow","trial_type":"pit-trial","trial_index":241,"time_elapsed":1012558,"internal_node_id":"0.0-230.0","task_version":"test-retest-t4"},{"Rune":"rune_07_kauna","Hex":"#ffcc3399","Correct":-1,"Choice":32,"RT":394.17499999399297,"Accuracy":0,"Outcome":"+1","Keys":[1894.509999998263],"TotalKeys":1,"Block":2,"Trial":221,"Robot":2,"Valence":"Win","Action":"No-Go","Sham":0,"Color":"yellow","trial_type":"pit-trial","trial_index":242,"time_elapsed":1015455,"internal_node_id":"0.0-231.0","task_version":"test-retest-t4"},{"Rune":"rune_07_gar","Hex":"#ffcc3399","Correct":32,"Choice":32,"RT":439.0199999907054,"Accuracy":1,"Outcome":"+10","Keys":[1940.9650000015972],"TotalKeys":1,"Block":2,"Trial":222,"Robot":1,"Valence":"Win","Action":"Go","Sham":0,"Color":"yellow","trial_type":"pit-trial","trial_index":243,"time_elapsed":1018399,"internal_node_id":"0.0-232.0","task_version":"test-retest-t4"},{"Rune":"rune_07_laukaz","Hex":"#3366ff99","Correct":32,"Choice":32,"RT":927.6749999989988,"Accuracy":1,"Outcome":"-1","Keys":[2428.620000006049],"TotalKeys":1,"Block":2,"Trial":223,"Robot":3,"Valence":"Lose","Action":"Go","Sham":0,"Color":"blue","trial_type":"pit-trial","trial_index":244,"time_elapsed":1021830,"internal_node_id":"0.0-233.0","task_version":"test-retest-t4"},{"Rune":"rune_07_thurisaz","Hex":"#3366ff99","Correct":-1,"Choice":-1,"RT":-1,"Accuracy":1,"Outcome":"-10","Keys":[],"TotalKeys":0,"Block":2,"Trial":224,"Robot":4,"Valence":"Lose","Action":"No-Go","Sham":1,"Color":"blue","trial_type":"pit-trial","trial_index":245,"time_elapsed":1025832,"internal_node_id":"0.0-234.0","task_version":"test-retest-t4"},{"Rune":"rune_07_kauna","Hex":"#ffcc3399","Correct":-1,"Choice":32,"RT":366.8300000135787,"Accuracy":0,"Outcome":"+1","Keys":[1867.7500000048894],"TotalKeys":1,"Block":2,"Trial":225,"Robot":2,"Valence":"Win","Action":"No-Go","Sham":0,"Color":"yellow","trial_type":"pit-trial","trial_index":246,"time_elapsed":1028702,"internal_node_id":"0.0-235.0","task_version":"test-retest-t4"},{"Rune":"rune_07_gar","Hex":"#ffcc3399","Correct":32,"Choice":32,"RT":352.8950000036275,"Accuracy":1,"Outcome":"+10","Keys":[1853.6800000001676],"TotalKeys":1,"Block":2,"Trial":226,"Robot":1,"Valence":"Win","Action":"Go","Sham":0,"Color":"yellow","trial_type":"pit-trial","trial_index":247,"time_elapsed":1031558,"internal_node_id":"0.0-236.0","task_version":"test-retest-t4"},{"Rune":"rune_07_laukaz","Hex":"#3366ff99","Correct":32,"Choice":32,"RT":633.3450000092853,"Accuracy":1,"Outcome":"-1","Keys":[2133.7400000047637],"TotalKeys":1,"Block":2,"Trial":227,"Robot":3,"Valence":"Lose","Action":"Go","Sham":0,"Color":"blue","trial_type":"pit-trial","trial_index":248,"time_elapsed":1034695,"internal_node_id":"0.0-237.0","task_version":"test-retest-t4"},{"Rune":"rune_07_thurisaz","Hex":"#3366ff99","Correct":-1,"Choice":-1,"RT":-1,"Accuracy":1,"Outcome":"-1","Keys":[],"TotalKeys":0,"Block":2,"Trial":228,"Robot":4,"Valence":"Lose","Action":"No-Go","Sham":0,"Color":"blue","trial_type":"pit-trial","trial_index":249,"time_elapsed":1038699,"internal_node_id":"0.0-238.0","task_version":"test-retest-t4"},{"Rune":"rune_07_laukaz","Hex":"#3366ff99","Correct":32,"Choice":32,"RT":436.9800000131363,"Accuracy":1,"Outcome":"-1","Keys":[1937.3799999884795],"TotalKeys":1,"Block":2,"Trial":229,"Robot":3,"Valence":"Lose","Action":"Go","Sham":0,"Color":"blue","trial_type":"pit-trial","trial_index":250,"time_elapsed":1041638,"internal_node_id":"0.0-239.0","task_version":"test-retest-t4"},{"Rune":"rune_07_gar","Hex":"#ffcc3399","Correct":32,"Choice":32,"RT":457.3050000035437,"Accuracy":1,"Outcome":"+10","Keys":[1957.5599999952829],"TotalKeys":1,"Block":2,"Trial":230,"Robot":1,"Valence":"Win","Action":"Go","Sham":0,"Color":"yellow","trial_type":"pit-trial","trial_index":251,"time_elapsed":1044599,"internal_node_id":"0.0-240.0","task_version":"test-retest-t4"},{"Rune":"rune_07_thurisaz","Hex":"#3366ff99","Correct":-1,"Choice":-1,"RT":-1,"Accuracy":1,"Outcome":"-1","Keys":[],"TotalKeys":0,"Block":2,"Trial":231,"Robot":4,"Valence":"Lose","Action":"No-Go","Sham":0,"Color":"blue","trial_type":"pit-trial","trial_index":252,"time_elapsed":1048601,"internal_node_id":"0.0-241.0","task_version":"test-retest-t4"},{"Rune":"rune_07_kauna","Hex":"#ffcc3399","Correct":-1,"Choice":-1,"RT":-1,"Accuracy":1,"Outcome":"+10","Keys":[],"TotalKeys":0,"Block":2,"Trial":232,"Robot":2,"Valence":"Win","Action":"No-Go","Sham":0,"Color":"yellow","trial_type":"pit-trial","trial_index":253,"time_elapsed":1052606,"internal_node_id":"0.0-242.0","task_version":"test-retest-t4"},{"Rune":"rune_07_laukaz","Hex":"#3366ff99","Correct":32,"Choice":32,"RT":481.2600000007078,"Accuracy":1,"Outcome":"-10","Keys":[1981.9250000000466],"TotalKeys":1,"Block":2,"Trial":233,"Robot":3,"Valence":"Lose","Action":"Go","Sham":1,"Color":"blue","trial_type":"pit-trial","trial_index":254,"time_elapsed":1055590,"internal_node_id":"0.0-243.0","task_version":"test-retest-t4"},{"Rune":"rune_07_kauna","Hex":"#ffcc3399","Correct":-1,"Choice":-1,"RT":-1,"Accuracy":1,"Outcome":"+10","Keys":[],"TotalKeys":0,"Block":2,"Trial":234,"Robot":2,"Valence":"Win","Action":"No-Go","Sham":0,"Color":"yellow","trial_type":"pit-trial","trial_index":255,"time_elapsed":1059594,"internal_node_id":"0.0-244.0","task_version":"test-retest-t4"},{"Rune":"rune_07_gar","Hex":"#ffcc3399","Correct":32,"Choice":32,"RT":276.7650000024587,"Accuracy":1,"Outcome":"+1","Keys":[1777.4550000028685],"TotalKeys":1,"Block":2,"Trial":235,"Robot":1,"Valence":"Win","Action":"Go","Sham":1,"Color":"yellow","trial_type":"pit-trial","trial_index":256,"time_elapsed":1062374,"internal_node_id":"0.0-245.0","task_version":"test-retest-t4"},{"Rune":"rune_07_thurisaz","Hex":"#3366ff99","Correct":-1,"Choice":-1,"RT":-1,"Accuracy":1,"Outcome":"-1","Keys":[],"TotalKeys":0,"Block":2,"Trial":236,"Robot":4,"Valence":"Lose","Action":"No-Go","Sham":0,"Color":"blue","trial_type":"pit-trial","trial_index":257,"time_elapsed":1066377,"internal_node_id":"0.0-246.0","task_version":"test-retest-t4"},{"Rune":"rune_07_laukaz","Hex":"#3366ff99","Correct":32,"Choice":32,"RT":462.76000000955537,"Accuracy":1,"Outcome":"-1","Keys":[1962.8700000031386],"TotalKeys":1,"Block":2,"Trial":237,"Robot":3,"Valence":"Lose","Action":"Go","Sham":0,"Color":"blue","trial_type":"pit-trial","trial_index":258,"time_elapsed":1069342,"internal_node_id":"0.0-247.0","task_version":"test-retest-t4"},{"Rune":"rune_07_gar","Hex":"#ffcc3399","Correct":32,"Choice":32,"RT":472.7949999941047,"Accuracy":1,"Outcome":"+10","Keys":[1973.2599999988452],"TotalKeys":1,"Block":2,"Trial":238,"Robot":1,"Valence":"Win","Action":"Go","Sham":0,"Color":"yellow","trial_type":"pit-trial","trial_index":259,"time_elapsed":1072318,"internal_node_id":"0.0-248.0","task_version":"test-retest-t4"},{"Rune":"rune_07_thurisaz","Hex":"#3366ff99","Correct":-1,"Choice":-1,"RT":-1,"Accuracy":1,"Outcome":"-1","Keys":[],"TotalKeys":0,"Block":2,"Trial":239,"Robot":4,"Valence":"Lose","Action":"No-Go","Sham":0,"Color":"blue","trial_type":"pit-trial","trial_index":260,"time_elapsed":1076321,"internal_node_id":"0.0-249.0","task_version":"test-retest-t4"},{"Rune":"rune_07_kauna","Hex":"#ffcc3399","Correct":-1,"Choice":32,"RT":485.9299999952782,"Accuracy":0,"Outcome":"+10","Keys":[1986.7549999908078],"TotalKeys":1,"Block":2,"Trial":240,"Robot":2,"Valence":"Win","Action":"No-Go","Sham":1,"Color":"yellow","trial_type":"pit-trial","trial_index":261,"time_elapsed":1079311,"internal_node_id":"0.0-250.0","task_version":"test-retest-t4"},{"view_history":"[{\"page_index\":0,\"viewing_time\":8124.72999999579}]","rt":8125.119999996852,"trial_type":"pit-instructions","trial_index":262,"time_elapsed":1087437,"internal_node_id":"0.0-251.0","task_version":"test-retest-t4"},{"rt":13860.939999998547,"responses":{"age":"43","gender-categorical":"Male","gender-free-response":"","ethnicity":"Not Hispanic or Latino","race":"White","language":"Yes","fluency":"Very well"},"survey":"demographics","trial_type":"survey-demo","trial_index":263,"time_elapsed":1101301,"internal_node_id":"0.0-252.0","task_version":"test-retest-t4"},{"rt":33461.255000001984,"responses":{"difficulty":"3","fun":"4","clarity":"5","strategy":"I just tried to remember the robots","feedback":"Everything went well."},"survey":"debrief","trial_type":"survey-debrief","trial_index":264,"time_elapsed":1134765,"internal_node_id":"0.0-253.0","task_version":"test-retest-t4"},{"rt":5511.6899999994785,"stimulus":"You earned a bonus of $1.27 out of $1.5.<br><br>Press any key to complete the experiment.","key_press":13,"trial_type":"html-keyboard-response","trial_index":265,"time_elapsed":1140278,"internal_node_id":"0.0-254.0","task_version":"test-retest-t4","accuracy":0.8416666666666667,"bonus":1.27,"interactions":"[{\"event\":\"blur\",\"trial\":262,\"time\":1082892},{\"event\":\"focus\",\"trial\":262,\"time\":1085417}]"}]