subID TrialNo Threat(1)/Safe(2) Fractal CodeOutcomeRightSide CodeOutcomeWrongSide CodeOutcomeNoPress ActualOutcome Circleside(1Left2Right) response Accuracy rt 
222 1 1 4 -1 -1 0 -1 1 1 0 3.115878e-01 
222 2 1 2 0 -1 -1 0 1 1 1 4.154315e-01 
222 3 1 4 0 0 -1 -1 2 0 1 NaN 
222 4 1 1 1 0 0 0 1 0 0 NaN 
222 5 1 2 0 -1 -1 -1 2 1 0 2.725033e-01 
222 6 1 2 0 -1 -1 0 2 2 1 5.236551e-01 
222 7 1 1 1 0 0 1 2 2 1 4.401408e-01 
222 8 1 2 -1 0 0 -1 2 2 1 3.148005e-01 
222 9 1 1 1 0 0 1 2 2 1 3.204713e-01 
222 10 1 3 1 1 0 1 1 1 0 2.762871e-01 
222 11 1 1 1 0 0 1 1 1 1 3.027906e-01 
222 12 1 3 0 0 1 0 2 2 0 3.119399e-01 
222 13 1 3 0 0 1 0 1 1 0 2.952556e-01 
222 14 1 4 -1 -1 0 0 1 0 1 NaN 
222 15 1 1 0 1 1 0 1 1 1 3.101829e-01 
222 16 1 3 0 0 1 0 2 2 0 2.913475e-01 
222 17 1 4 -1 -1 0 0 2 0 1 NaN 
222 18 1 4 -1 -1 0 0 2 0 1 NaN 
222 19 1 3 0 0 1 0 1 1 0 3.093333e-01 
222 20 1 2 0 -1 -1 -1 1 0 0 NaN 
222 1 2 1 0 1 1 0 1 1 1 2.186949e-01 
222 2 2 4 -1 -1 0 -1 2 2 0 3.317391e-01 
222 3 2 1 1 0 0 1 1 1 1 2.490418e-01 
222 4 2 3 0 0 1 0 2 2 0 3.314775e-01 
222 5 2 2 0 -1 -1 0 2 2 1 3.259145e-01 
222 6 2 2 -1 0 0 -1 2 2 1 3.434616e-01 
222 7 2 2 0 -1 -1 0 2 2 1 3.269558e-01 
222 8 2 4 -1 -1 0 -1 1 1 0 2.382877e-01 
222 9 2 3 1 1 0 1 1 1 0 2.403080e-01 
222 10 2 4 -1 -1 0 0 1 0 1 NaN 
222 11 2 3 0 0 1 0 2 2 0 2.432415e-01 
222 12 2 2 0 -1 -1 0 1 1 1 2.985898e-01 
222 13 2 2 0 -1 -1 0 1 1 1 2.429135e-01 
222 14 2 3 0 0 1 0 1 1 0 2.383212e-01 
222 15 2 1 1 0 0 0 2 0 0 NaN 
222 16 2 1 1 0 0 0 2 0 0 NaN 
222 17 2 4 0 0 -1 -1 2 0 1 NaN 
222 18 2 1 1 0 0 1 1 1 1 6.051207e-01 
222 19 2 4 -1 -1 0 0 2 0 1 NaN 
222 20 2 3 0 0 1 0 1 1 0 2.448167e-01 
222 1 1 2 0 -1 -1 0 1 1 1 2.521199e-01 
222 2 1 1 1 0 0 1 2 2 1 2.983227e-01 
222 3 1 3 0 0 1 0 1 1 0 2.630658e-01 
222 4 1 1 1 0 0 1 1 1 1 2.886102e-01 
222 5 1 1 1 0 0 1 2 2 1 2.923447e-01 
222 6 1 3 1 1 0 1 1 1 0 3.129278e-01 
222 7 1 4 -1 -1 0 0 1 0 1 NaN 
222 8 1 3 0 0 1 0 1 1 0 3.148172e-01 
222 9 1 4 0 0 -1 -1 2 0 1 NaN 
222 10 1 3 0 0 1 0 2 2 0 2.693307e-01 
222 11 1 2 -1 0 0 -1 2 2 1 3.471002e-01 
222 12 1 3 0 0 1 0 2 2 0 3.206949e-01 
222 13 1 4 -1 -1 0 0 1 0 1 NaN 
222 14 1 2 0 -1 -1 0 2 2 1 2.557204e-01 
222 15 1 4 -1 -1 0 -1 2 2 0 4.542206e-01 
222 16 1 4 -1 -1 0 -1 2 2 0 3.950032e-01 
222 17 1 1 0 1 1 0 1 1 1 2.545946e-01 
222 18 1 1 1 0 0 1 1 1 1 3.142790e-01 
222 19 1 2 0 -1 -1 0 1 1 1 2.271130e-01 
222 20 1 2 0 -1 -1 0 2 2 1 3.196290e-01 
222 1 2 1 1 0 0 1 2 2 1 3.001834e-01 
222 2 2 4 0 0 -1 0 2 2 0 2.287590e-01 
222 3 2 4 -1 -1 0 -1 1 1 0 4.075123e-01 
222 4 2 1 0 1 1 0 1 1 1 3.338402e-01 
222 5 2 2 -1 0 0 -1 2 2 1 3.098966e-01 
222 6 2 2 0 -1 -1 -1 2 0 0 NaN 
222 7 2 3 1 1 0 1 1 1 0 2.447944e-01 
222 8 2 4 -1 -1 0 -1 1 1 0 4.687917e-01 
222 9 2 3 0 0 1 0 2 2 0 3.107027e-01 
222 10 2 3 0 0 1 0 2 2 0 3.241445e-01 
222 11 2 2 0 -1 -1 -1 1 0 0 NaN 
222 12 2 1 1 0 0 1 1 1 1 2.374573e-01 
222 13 2 3 0 0 1 0 1 1 0 3.035905e-01 
222 14 2 4 -1 -1 0 0 2 0 1 NaN 
222 15 2 2 0 -1 -1 -1 2 0 0 NaN 
222 16 2 4 -1 -1 0 0 2 0 1 NaN 
222 17 2 3 0 0 1 0 1 1 0 2.592789e-01 
222 18 2 1 1 0 0 1 2 2 1 3.037135e-01 
222 19 2 2 0 -1 -1 0 1 1 1 2.764145e-01 
222 20 2 1 1 0 0 1 1 1 1 3.087968e-01 
222 1 1 1 0 1 1 0 1 1 1 2.412900e-01 
222 2 1 2 0 -1 -1 0 1 1 1 2.712329e-01 
222 3 1 2 0 -1 -1 0 1 1 1 2.056462e-01 
222 4 1 1 1 0 0 1 2 2 1 5.123199e-01 
222 5 1 4 -1 -1 0 -1 2 2 0 3.901877e-01 
222 6 1 3 0 0 1 0 1 1 0 2.500619e-01 
222 7 1 2 -1 0 0 -1 2 2 1 3.082523e-01 
222 8 1 4 0 0 -1 0 2 2 0 4.169871e-01 
222 9 1 2 0 -1 -1 0 2 2 1 4.016188e-01 
222 10 1 2 0 -1 -1 0 2 2 1 2.780054e-01 
222 11 1 4 -1 -1 0 -1 1 1 0 2.735299e-01 
222 12 1 3 0 0 1 0 2 2 0 3.125901e-01 
222 13 1 4 -1 -1 0 -1 2 2 0 5.420162e-01 
222 14 1 1 1 0 0 1 1 1 1 2.845152e-01 
222 15 1 3 0 0 1 0 1 1 0 3.371518e-01 
222 16 1 3 0 0 1 0 2 2 0 2.928689e-01 
222 17 1 1 1 0 0 1 1 1 1 2.290631e-01 
222 18 1 3 1 1 0 1 1 1 0 3.503132e-01 
222 19 1 1 1 0 0 1 2 2 1 5.182013e-01 
222 20 1 4 -1 -1 0 0 1 0 1 NaN 
222 1 2 1 0 1 1 0 1 1 1 2.646067e-01 
222 2 2 1 1 0 0 1 1 1 1 2.241127e-01 
222 3 2 4 0 0 -1 0 2 2 0 2.880315e-01 
222 4 2 2 -1 0 0 -1 2 2 1 3.354287e-01 
222 5 2 3 0 0 1 0 2 2 0 3.180059e-01 
222 6 2 4 -1 -1 0 -1 2 2 0 2.602832e-01 
222 7 2 4 -1 -1 0 0 2 0 1 NaN 
222 8 2 2 0 -1 -1 -1 1 0 0 NaN 
222 9 2 2 0 -1 -1 0 1 1 1 2.789306e-01 
222 10 2 3 0 0 1 0 1 1 0 2.781327e-01 
222 11 2 4 -1 -1 0 0 1 0 1 NaN 
222 12 2 1 1 0 0 1 2 2 1 3.046654e-01 
222 13 2 3 1 1 0 1 1 1 0 2.277503e-01 
222 14 2 1 1 0 0 1 2 2 1 3.368073e-01 
222 15 2 1 1 0 0 1 1 1 1 2.642762e-01 
222 16 2 2 0 -1 -1 0 2 2 1 3.111817e-01 
222 17 2 3 0 0 1 0 1 1 0 2.376261e-01 
222 18 2 3 0 0 1 0 2 2 0 6.429852e-01 
222 19 2 4 -1 -1 0 -1 1 1 0 3.584026e-01 
222 20 2 2 0 -1 -1 0 2 2 1 2.173954e-01 
222 1 1 1 0 1 1 0 1 1 1 3.280653e-01 
222 2 1 2 -1 0 0 -1 2 2 1 3.115563e-01 
222 3 1 1 1 0 0 1 1 1 1 3.388739e-01 
222 4 1 3 1 1 0 1 1 1 0 3.183329e-01 
222 5 1 4 0 0 -1 0 2 2 0 4.978665e-01 
222 6 1 3 0 0 1 0 2 2 0 4.654257e-01 
222 7 1 2 0 -1 -1 0 2 2 1 2.544093e-01 
222 8 1 4 -1 -1 0 0 2 0 1 NaN 
222 9 1 2 0 -1 -1 0 1 1 1 2.759560e-01 
222 10 1 4 -1 -1 0 0 2 0 1 NaN 
222 11 1 2 0 -1 -1 0 2 2 1 3.016302e-01 
222 12 1 3 0 0 1 0 2 2 0 3.657767e-01 
222 13 1 3 0 0 1 0 1 2 0 2.087557e-01 
222 14 1 3 0 0 1 0 1 1 0 2.891304e-01 
222 15 1 4 -1 -1 0 0 1 0 1 NaN 
222 16 1 2 0 -1 -1 0 1 1 1 2.512272e-01 
222 17 1 1 1 0 0 1 1 1 1 3.156617e-01 
222 18 1 4 -1 -1 0 0 1 0 1 NaN 
222 19 1 1 1 0 0 1 2 2 1 2.804078e-01 
222 20 1 1 1 0 0 1 2 2 1 3.788247e-01 
222 1 2 4 0 0 -1 0 2 2 0 3.436359e-01 
222 2 2 1 0 1 1 0 1 1 1 3.700971e-01 
222 3 2 1 1 0 0 1 1 1 1 3.334639e-01 
222 4 2 3 1 1 0 1 1 1 0 2.943321e-01 
222 5 2 3 0 0 1 0 2 2 0 3.290052e-01 
222 6 2 3 0 0 1 0 1 1 0 3.177028e-01 
222 7 2 1 1 0 0 1 2 2 1 4.743530e-01 
222 8 2 2 -1 0 0 -1 2 2 1 3.310659e-01 
222 9 2 2 0 -1 -1 -1 2 0 0 NaN 
222 10 2 1 1 0 0 1 2 2 1 3.246657e-01 
222 11 2 2 0 -1 -1 0 1 1 1 3.011980e-01 
222 12 2 4 -1 -1 0 -1 2 2 0 7.078149e-01 
222 13 2 1 1 0 0 1 1 1 1 2.993695e-01 
222 14 2 4 -1 -1 0 -1 1 1 0 3.552766e-01 
222 15 2 4 -1 -1 0 0 1 0 1 NaN 
222 16 2 3 0 0 1 0 1 1 0 2.773274e-01 
222 17 2 4 -1 -1 0 0 2 0 1 NaN 
222 18 2 3 0 0 1 0 2 2 0 2.923070e-01 
222 19 2 2 0 -1 -1 0 1 1 1 4.140074e-01 
222 20 2 2 0 -1 -1 0 2 2 1 3.148344e-01 
222 1 1 2 0 -1 -1 0 2 2 1 3.553211e-01 
222 2 1 3 0 0 1 0 2 2 0 3.392002e-01 
222 3 1 2 -1 0 0 -1 2 2 1 2.741757e-01 
222 4 1 1 1 0 0 1 2 2 1 3.346703e-01 
222 5 1 3 0 0 1 0 1 1 0 2.999602e-01 
222 6 1 1 0 1 1 0 1 1 1 3.741359e-01 
222 7 1 4 -1 -1 0 -1 2 2 0 1.934884e-01 
222 8 1 1 1 0 0 1 2 2 1 2.499345e-01 
222 9 1 4 -1 -1 0 0 2 0 1 NaN 
222 10 1 3 0 0 1 0 1 1 0 4.196796e-01 
222 11 1 2 0 -1 -1 -1 2 0 0 NaN 
222 12 1 4 0 0 -1 -1 2 0 1 NaN 
222 13 1 4 -1 -1 0 -1 1 1 0 2.356359e-01 
222 14 1 4 -1 -1 0 -1 1 1 0 4.371237e-01 
222 15 1 3 0 0 1 0 2 2 0 2.907976e-01 
222 16 1 2 0 -1 -1 0 1 1 1 3.060690e-01 
222 17 1 3 1 1 0 1 1 1 0 3.325246e-01 
222 18 1 2 0 -1 -1 0 1 1 1 2.876922e-01 
222 19 1 1 1 0 0 1 1 1 1 8.620927e-01 
222 20 1 1 1 0 0 1 1 1 1 3.227560e-01 
222 1 2 1 0 1 1 0 1 1 1 4.117303e-01 
222 2 2 1 1 0 0 1 2 2 1 3.803061e-01 
222 3 2 1 1 0 0 1 2 2 1 3.816196e-01 
222 4 2 3 0 0 1 0 2 2 0 3.328212e-01 
222 5 2 3 0 0 1 0 2 2 0 2.496537e-01 
222 6 2 3 0 0 1 0 1 1 0 3.281474e-01 
222 7 2 4 -1 -1 0 -1 2 2 0 3.545271e-01 
222 8 2 3 1 1 0 1 1 1 0 2.299490e-01 
222 9 2 4 -1 -1 0 0 2 0 1 NaN 
222 10 2 1 1 0 0 1 1 1 1 2.910876e-01 
222 11 2 2 0 -1 -1 0 2 2 1 3.594532e-01 
222 12 2 2 0 -1 -1 0 1 1 1 2.715134e-01 
222 13 2 4 0 0 -1 -1 2 0 1 NaN 
222 14 2 2 -1 0 0 -1 2 2 1 3.125367e-01 
222 15 2 4 -1 -1 0 0 1 0 1 NaN 
222 16 2 1 1 0 0 1 1 1 1 3.261426e-01 
222 17 2 3 0 0 1 0 1 1 0 3.430768e-01 
222 18 2 2 0 -1 -1 -1 2 0 0 NaN 
222 19 2 4 -1 -1 0 0 1 0 1 NaN 
222 20 2 2 0 -1 -1 -1 1 0 0 NaN 
222 1 1 1 1 0 0 1 2 2 1 2.946091e-01 
222 2 1 1 1 0 0 1 1 1 1 2.961052e-01 
222 3 1 1 1 0 0 1 2 2 1 3.438359e-01 
222 4 1 1 1 0 0 1 1 1 1 2.522880e-01 
222 5 1 3 1 1 0 1 1 1 0 3.231395e-01 
222 6 1 4 -1 -1 0 0 2 0 1 NaN 
222 7 1 2 0 -1 -1 0 2 2 1 3.357270e-01 
222 8 1 1 0 1 1 0 1 1 1 2.543713e-01 
222 9 1 3 0 0 1 0 2 2 0 2.279150e-01 
222 10 1 2 -1 0 0 -1 2 2 1 4.232860e-01 
222 11 1 3 0 0 1 0 1 1 0 2.164452e-01 
222 12 1 2 0 -1 -1 -1 1 0 0 NaN 
222 13 1 4 0 0 -1 -1 2 0 1 NaN 
222 14 1 3 0 0 1 0 2 2 0 2.572453e-01 
222 15 1 4 -1 -1 0 0 1 0 1 NaN 
222 16 1 2 0 -1 -1 -1 1 0 0 NaN 
222 17 1 4 -1 -1 0 0 2 0 1 NaN 
222 18 1 2 0 -1 -1 -1 2 0 0 NaN 
222 19 1 3 0 0 1 0 1 1 0 3.105780e-01 
222 20 1 4 -1 -1 0 0 1 0 1 NaN 
222 1 2 2 0 -1 -1 0 2 2 1 4.171635e-01 
222 2 2 1 1 0 0 1 2 2 1 3.825123e-01 
222 3 2 4 -1 -1 0 0 1 0 1 NaN 
222 4 2 1 1 0 0 1 1 1 1 3.223564e-01 
222 5 2 1 1 0 0 1 2 2 1 7.124397e-01 
222 6 2 4 -1 -1 0 0 2 0 1 NaN 
222 7 2 3 0 0 1 0 1 1 0 2.680169e-01 
222 8 2 3 0 0 1 0 2 2 0 4.195971e-01 
222 9 2 1 1 0 0 1 1 1 1 3.140071e-01 
222 10 2 3 0 0 1 0 2 2 0 2.967472e-01 
222 11 2 4 0 0 -1 -1 2 0 1 NaN 
222 12 2 2 -1 0 0 0 2 0 0 NaN 
222 13 2 4 -1 -1 0 0 1 0 1 NaN 
222 14 2 2 0 -1 -1 -1 1 0 0 NaN 
222 15 2 3 1 1 0 1 1 1 0 2.791336e-01 
222 16 2 3 0 0 1 0 1 1 0 2.890680e-01 
222 17 2 2 0 -1 -1 -1 1 0 0 NaN 
222 18 2 4 -1 -1 0 0 2 0 1 NaN 
222 19 2 1 0 1 1 0 1 1 1 2.895365e-01 
222 20 2 2 0 -1 -1 -1 2 0 0 NaN 
222 1 1 2 0 -1 -1 0 1 1 1 2.992575e-01 
222 2 1 2 -1 0 0 -1 2 2 1 3.351086e-01 
222 3 1 1 0 1 1 0 1 1 1 2.626603e-01 
222 4 1 1 1 0 0 1 1 1 1 3.041829e-01 
222 5 1 4 -1 -1 0 -1 2 2 0 3.909787e-01 
222 6 1 4 -1 -1 0 0 1 0 1 NaN 
222 7 1 4 -1 -1 0 0 2 0 1 NaN 
222 8 1 4 -1 -1 0 0 1 0 1 NaN 
222 9 1 1 1 0 0 0 2 0 0 NaN 
222 10 1 3 0 0 1 0 1 1 0 3.051393e-01 
222 11 1 2 0 -1 -1 -1 2 0 0 NaN 
222 12 1 4 0 0 -1 -1 2 0 1 NaN 
222 13 1 3 1 1 0 1 1 1 0 2.537272e-01 
222 14 1 1 1 0 0 1 2 2 1 2.632175e-01 
222 15 1 3 0 0 1 0 2 2 0 2.738884e-01 
222 16 1 2 0 -1 -1 -1 2 0 0 NaN 
222 17 1 2 0 -1 -1 0 1 1 1 2.669170e-01 
222 18 1 3 0 0 1 0 2 2 0 2.872960e-01 
222 19 1 3 0 0 1 0 1 1 0 2.756519e-01 
222 20 1 1 1 0 0 1 1 1 1 4.131472e-01 
222 1 2 1 0 1 1 0 1 1 1 3.255317e-01 
222 2 2 2 0 -1 -1 -1 2 0 0 NaN 
222 3 2 2 0 -1 -1 0 2 2 1 4.092915e-01 
222 4 2 3 0 0 1 0 2 2 0 3.311991e-01 
222 5 2 1 1 0 0 1 2 2 1 3.430980e-01 
222 6 2 2 0 -1 -1 0 1 1 1 3.352010e-01 
222 7 2 1 1 0 0 1 1 1 1 3.965339e-01 
222 8 2 4 -1 -1 0 0 1 0 1 NaN 
222 9 2 1 1 0 0 1 2 2 1 3.201830e-01 
222 10 2 2 0 -1 -1 0 1 1 1 2.616557e-01 
222 11 2 3 0 0 1 0 1 1 0 3.980186e-01 
222 12 2 3 1 1 0 1 1 1 0 5.511531e-01 
222 13 2 2 -1 0 0 -1 2 2 1 3.191670e-01 
222 14 2 4 -1 -1 0 0 2 0 1 NaN 
222 15 2 3 0 0 1 0 1 1 0 3.661921e-01 
222 16 2 4 -1 -1 0 0 2 0 1 NaN 
222 17 2 3 0 0 1 0 2 2 0 3.099918e-01 
222 18 2 1 1 0 0 1 1 1 1 3.727676e-01 
222 19 2 4 0 0 -1 -1 2 0 1 NaN 
222 20 2 4 -1 -1 0 0 1 0 1 NaN 
222 1 1 3 0 0 1 0 1 1 0 2.687418e-01 
222 2 1 2 0 -1 -1 0 2 2 1 2.746801e-01 
222 3 1 4 0 0 -1 -1 2 0 1 NaN 
222 4 1 1 1 0 0 1 1 1 1 3.641831e-01 
222 5 1 3 1 1 0 1 1 1 0 2.986162e-01 
222 6 1 2 0 -1 -1 0 1 1 1 3.194787e-01 
222 7 1 1 1 0 0 1 1 1 1 3.151802e-01 
222 8 1 4 -1 -1 0 0 2 0 1 NaN 
222 9 1 1 0 1 1 0 1 1 1 3.076459e-01 
222 10 1 2 0 -1 -1 0 2 2 1 2.777855e-01 
222 11 1 4 -1 -1 0 -1 2 2 0 3.937506e-01 
222 12 1 2 0 -1 -1 -1 1 0 0 NaN 
222 13 1 3 0 0 1 0 1 1 0 4.000855e-01 
222 14 1 2 -1 0 0 -1 2 2 1 3.852818e-01 
222 15 1 3 0 0 1 0 2 2 0 3.227813e-01 
222 16 1 3 0 0 1 0 2 2 0 3.471102e-01 
222 17 1 4 -1 -1 0 0 1 0 1 NaN 
222 18 1 1 1 0 0 1 2 2 1 3.607561e-01 
222 19 1 4 -1 -1 0 0 1 0 1 NaN 
222 20 1 1 1 0 0 1 2 2 1 4.666540e-01 
222 1 2 3 0 0 1 0 1 1 0 3.424909e-01 
222 2 2 1 1 0 0 1 1 1 1 2.877764e-01 
222 3 2 3 0 0 1 0 1 1 0 1.117009e-01 
222 4 2 1 1 0 0 1 2 2 1 2.601764e-01 
222 5 2 4 -1 -1 0 0 2 0 1 NaN 
222 6 2 1 1 0 0 1 1 1 1 3.172094e-01 
222 7 2 2 0 -1 -1 0 1 1 1 4.369087e-01 
222 8 2 3 1 1 0 1 1 1 0 3.109191e-01 
222 9 2 1 0 1 1 0 1 1 1 5.388269e-01 
222 10 2 4 -1 -1 0 0 1 0 1 NaN 
222 11 2 3 0 0 1 0 2 2 0 2.775910e-01 
222 12 2 3 0 0 1 0 2 2 0 3.440174e-01 
222 13 2 2 0 -1 -1 0 2 2 1 3.115995e-01 
222 14 2 4 -1 -1 0 0 1 0 1 NaN 
222 15 2 2 0 -1 -1 0 1 1 1 2.311988e-01 
222 16 2 1 1 0 0 1 2 2 1 4.913074e-01 
222 17 2 2 -1 0 0 -1 2 2 1 2.989699e-01 
222 18 2 4 -1 -1 0 0 2 0 1 NaN 
222 19 2 4 0 0 -1 -1 2 0 1 NaN 
222 20 2 2 0 -1 -1 0 2 2 1 3.013453e-01 
222 1 1 1 1 0 0 1 1 1 1 5.520930e-01 
222 2 1 4 -1 -1 0 0 2 0 1 NaN 
222 3 1 1 1 0 0 1 1 1 1 2.364307e-01 
222 4 1 2 0 -1 -1 0 1 1 1 3.523695e-01 
222 5 1 4 0 0 -1 0 2 2 0 3.772520e-01 
222 6 1 3 1 1 0 1 1 1 0 2.659490e-01 
222 7 1 2 0 -1 -1 0 2 2 1 3.086016e-01 
222 8 1 3 0 0 1 0 2 2 0 3.517651e-01 
222 9 1 3 0 0 1 0 2 2 0 3.771082e-01 
222 10 1 3 0 0 1 0 1 1 0 2.986186e-01 
222 11 1 1 1 0 0 1 2 2 1 2.427275e-01 
222 12 1 4 -1 -1 0 -1 2 2 0 3.332417e-01 
222 13 1 2 0 -1 -1 0 2 2 1 7.576974e-01 
222 14 1 2 0 -1 -1 0 1 1 1 2.541384e-01 
222 15 1 1 0 1 1 0 1 1 1 2.935106e-01 
222 16 1 3 0 0 1 0 1 1 0 3.319730e-01 
222 17 1 4 -1 -1 0 0 1 0 1 NaN 
222 18 1 1 1 0 0 1 2 2 1 6.228877e-01 
222 19 1 4 -1 -1 0 0 1 0 1 NaN 
222 20 1 2 -1 0 0 -1 2 2 1 3.631147e-01 
222 1 2 3 0 0 1 0 2 2 0 3.369104e-01 
222 2 2 4 -1 -1 0 0 2 0 1 NaN 
222 3 2 4 -1 -1 0 0 2 0 1 NaN 
222 4 2 1 0 1 1 0 1 1 1 2.594885e-01 
222 5 2 4 -1 -1 0 0 1 0 1 NaN 
222 6 2 1 1 0 0 1 1 1 1 3.571887e-01 
222 7 2 1 1 0 0 1 2 2 1 4.198779e-01 
222 8 2 2 0 -1 -1 0 2 2 1 4.709312e-01 
222 9 2 2 -1 0 0 0 2 0 0 NaN 
222 10 2 1 1 0 0 1 1 1 1 3.097912e-01 
222 11 2 3 1 1 0 1 1 1 0 3.695666e-01 
222 12 2 1 1 0 0 1 2 2 1 5.903873e-01 
222 13 2 2 0 -1 -1 0 2 2 1 5.599075e-01 
222 14 2 3 0 0 1 0 1 1 0 2.352795e-01 
222 15 2 4 -1 -1 0 0 1 0 1 NaN 
222 16 2 4 0 0 -1 -1 2 0 1 NaN 
222 17 2 3 0 0 1 0 2 2 0 2.909609e-01 
222 18 2 2 0 -1 -1 -1 1 0 0 NaN 
222 19 2 2 0 -1 -1 0 1 1 1 2.681069e-01 
222 20 2 3 0 0 1 0 1 1 0 3.192359e-01 
222 1 1 4 -1 -1 0 0 2 0 1 NaN 
222 2 1 1 0 1 1 1 1 0 0 NaN 
222 3 1 2 -1 0 0 0 2 0 0 NaN 
222 4 1 4 -1 -1 0 0 1 0 1 NaN 
222 5 1 3 0 0 1 0 2 2 0 3.191825e-01 
222 6 1 2 0 -1 -1 0 1 1 1 3.674693e-01 
222 7 1 4 -1 -1 0 0 1 0 1 NaN 
222 8 1 2 0 -1 -1 0 2 2 1 3.321822e-01 
222 9 1 1 1 0 0 1 2 2 1 3.707576e-01 
222 10 1 4 -1 -1 0 0 2 0 1 NaN 
222 11 1 3 1 1 0 1 1 1 0 4.339035e-01 
222 12 1 2 0 -1 -1 0 2 2 1 2.078815e-01 
222 13 1 1 1 0 0 1 1 1 1 3.416557e-01 
222 14 1 2 0 -1 -1 0 1 1 1 3.980165e-01 
222 15 1 1 1 0 0 1 1 1 1 3.484758e-01 
222 16 1 1 1 0 0 1 2 2 1 3.155168e-01 
222 17 1 4 0 0 -1 -1 2 0 1 NaN 
222 18 1 3 0 0 1 0 1 1 0 4.363827e-01 
222 19 1 3 0 0 1 0 1 1 0 4.633064e-01 
222 20 1 3 0 0 1 0 2 2 0 3.254337e-01 
222 1 2 2 0 -1 -1 -1 1 0 0 NaN 
222 2 2 4 -1 -1 0 0 1 0 1 NaN 
222 3 2 4 -1 -1 0 0 2 0 1 NaN 
222 4 2 3 1 1 0 1 1 1 0 2.847764e-01 
222 5 2 1 1 0 0 1 2 2 1 3.544764e-01 
222 6 2 1 0 1 1 0 1 1 1 3.981751e-01 
222 7 2 3 0 0 1 0 1 1 0 3.256762e-01 
222 8 2 2 0 -1 -1 0 1 1 1 2.300692e-01 
222 9 2 1 1 0 0 1 1 1 1 3.048188e-01 
222 10 2 1 1 0 0 1 2 2 1 3.407815e-01 
222 11 2 1 1 0 0 1 1 1 1 2.434483e-01 
222 12 2 2 -1 0 0 -1 2 2 1 2.779050e-01 
222 13 2 2 0 -1 -1 0 2 2 1 3.412814e-01 
222 14 2 3 0 0 1 0 2 2 0 3.596343e-01 
222 15 2 3 0 0 1 0 2 2 0 2.808793e-01 
222 16 2 4 -1 -1 0 0 2 0 1 NaN 
222 17 2 4 -1 -1 0 0 1 0 1 NaN 
222 18 2 3 0 0 1 0 1 1 0 3.591289e-01 
222 19 2 2 0 -1 -1 0 2 2 1 3.255012e-01 
222 20 2 4 0 0 -1 0 2 2 0 4.489500e-01 
222 1 1 4 -1 -1 0 0 1 0 1 NaN 
222 2 1 2 0 -1 -1 0 1 1 1 3.106078e-01 
222 3 1 4 0 0 -1 -1 2 0 1 NaN 
222 4 1 4 -1 -1 0 -1 2 2 0 1.490240e-01 
222 5 1 4 -1 -1 0 0 2 0 1 NaN 
222 6 1 1 1 0 0 1 1 1 1 2.795278e-01 
222 7 1 2 0 -1 -1 0 2 2 1 2.422266e-01 
222 8 1 1 1 0 0 1 2 2 1 2.522835e-01 
222 9 1 3 0 0 1 0 2 2 0 3.149121e-01 
222 10 1 2 -1 0 0 -1 2 2 1 4.134640e-01 
222 11 1 1 1 0 0 1 1 1 1 2.867865e-01 
222 12 1 3 1 1 0 1 1 1 0 3.275759e-01 
222 13 1 3 0 0 1 0 2 2 0 2.533115e-01 
222 14 1 1 0 1 1 0 1 1 1 5.927267e-01 
222 15 1 4 -1 -1 0 0 1 0 1 NaN 
222 16 1 3 0 0 1 0 1 1 0 3.117758e-01 
222 17 1 1 1 0 0 1 2 2 1 2.825147e-01 
222 18 1 2 0 -1 -1 0 1 1 1 5.180743e-01 
222 19 1 2 0 -1 -1 -1 2 0 0 NaN 
222 20 1 3 0 0 1 0 1 1 0 4.393087e-01 
222 1 2 4 -1 -1 0 0 1 0 1 NaN 
222 2 2 4 -1 -1 0 0 2 0 1 NaN 
222 3 2 2 0 -1 -1 0 1 1 1 3.895857e-01 
222 4 2 3 0 0 1 0 2 2 0 4.290405e-01 
222 5 2 1 1 0 0 1 2 2 1 3.664996e-01 
222 6 2 1 1 0 0 0 1 0 0 NaN 
222 7 2 3 0 0 1 0 1 1 0 4.011953e-01 
222 8 2 2 0 -1 -1 0 2 2 1 2.841984e-01 
222 9 2 2 -1 0 0 0 2 0 0 NaN 
222 10 2 4 -1 -1 0 0 1 0 1 NaN 
222 11 2 1 1 0 0 1 1 1 1 3.912150e-01 
222 12 2 2 0 -1 -1 -1 2 0 0 NaN 
222 13 2 4 0 0 -1 -1 2 0 1 NaN 
222 14 2 1 1 0 0 1 2 2 1 3.583245e-01 
222 15 2 4 -1 -1 0 0 2 0 1 NaN 
222 16 2 1 0 1 1 0 1 1 1 3.682151e-01 
222 17 2 3 0 0 1 0 2 2 0 9.864880e-01 
222 18 2 3 1 1 0 1 1 1 0 3.350935e-01 
222 19 2 3 0 0 1 0 1 1 0 4.034785e-01 
222 20 2 2 0 -1 -1 0 1 1 1 3.229721e-01 
222 1 1 3 1 1 0 1 1 1 0 2.174416e-01 
222 2 1 3 0 0 1 0 1 1 0 4.260840e-01 
222 3 1 2 0 -1 -1 0 1 1 1 4.204384e-01 
222 4 1 1 1 0 0 1 2 2 1 3.406171e-01 
222 5 1 1 0 1 1 0 1 1 1 7.979695e-01 
222 6 1 3 0 0 1 0 1 1 0 3.190777e-01 
222 7 1 1 1 0 0 1 2 2 1 3.285816e-01 
222 8 1 4 -1 -1 0 0 1 0 1 NaN 
222 9 1 4 -1 -1 0 0 2 0 1 NaN 
222 10 1 4 0 0 -1 -1 2 0 1 NaN 
222 11 1 4 -1 -1 0 0 1 0 1 NaN 
222 12 1 3 0 0 1 0 2 2 0 2.625463e-01 
222 13 1 2 -1 0 0 -1 2 2 1 3.894173e-01 
222 14 1 1 1 0 0 1 1 1 1 2.493640e-01 
222 15 1 2 0 -1 -1 0 2 2 1 2.932836e-01 
222 16 1 1 1 0 0 1 1 1 1 2.426104e-01 
222 17 1 2 0 -1 -1 0 1 1 1 3.530933e-01 
222 18 1 3 0 0 1 0 2 2 0 3.903778e-01 
222 19 1 2 0 -1 -1 -1 2 0 0 NaN 
222 20 1 4 -1 -1 0 0 2 0 1 NaN 
222 1 2 1 0 1 1 0 1 1 1 3.155562e-01 
222 2 2 3 0 0 1 0 2 2 0 3.459384e-01 
222 3 2 2 0 -1 -1 0 1 1 1 5.737890e-01 
222 4 2 2 -1 0 0 0 2 0 0 NaN 
222 5 2 4 -1 -1 0 0 2 0 1 NaN 
222 6 2 4 -1 -1 0 0 2 0 1 NaN 
222 7 2 4 -1 -1 0 0 1 0 1 NaN 
222 8 2 2 0 -1 -1 0 1 1 1 2.729837e-01 
222 9 2 1 1 0 0 1 2 2 1 3.632678e-01 
222 10 2 3 0 0 1 0 2 2 0 3.474286e-01 
222 11 2 1 1 0 0 0 1 0 0 NaN 
222 12 2 4 -1 -1 0 0 1 0 1 NaN 
222 13 2 4 0 0 -1 -1 2 0 1 NaN 
222 14 2 2 0 -1 -1 0 2 2 1 2.466168e-01 
222 15 2 3 1 1 0 1 1 1 0 5.425863e-01 
222 16 2 3 0 0 1 0 1 1 0 3.023147e-01 
222 17 2 1 1 0 0 1 1 1 1 2.838574e-01 
222 18 2 3 0 0 1 0 1 1 0 3.268332e-01 
222 19 2 2 0 -1 -1 0 2 2 1 3.949111e-01 
222 20 2 1 1 0 0 1 2 2 1 3.186538e-01 
