subID TrialNo Threat(1)/Safe(2) Fractal CodeOutcomeRightSide CodeOutcomeWrongSide CodeOutcomeNoPress ActualOutcome Circleside(1Left2Right) response Accuracy rt 
248 1 1 3 1 1 0 1 1 1 0 3.369040e-01 
248 2 1 1 0 1 1 0 1 1 1 5.296710e-01 
248 3 1 4 -1 -1 0 -1 1 1 0 4.093786e-01 
248 4 1 4 -1 -1 0 0 2 0 1 NaN 
248 5 1 3 0 0 1 0 1 1 0 2.627111e-01 
248 6 1 4 -1 -1 0 0 2 0 1 NaN 
248 7 1 3 0 0 1 0 1 1 0 3.490990e-01 
248 8 1 3 0 0 1 0 2 2 0 3.866302e-01 
248 9 1 1 1 0 0 1 2 2 1 4.578977e-01 
248 10 1 2 0 -1 -1 0 2 2 1 4.678289e-01 
248 11 1 4 0 0 -1 0 2 2 0 6.129363e-01 
248 12 1 3 0 0 1 0 2 2 0 4.348178e-01 
248 13 1 2 -1 0 0 -1 2 2 1 3.291455e-01 
248 14 1 2 0 -1 -1 0 1 1 1 5.748045e-01 
248 15 1 1 1 0 0 1 2 2 1 3.581457e-01 
248 16 1 4 -1 -1 0 -1 1 1 0 4.506892e-01 
248 17 1 2 0 -1 -1 0 2 2 1 7.793460e-01 
248 18 1 1 1 0 0 1 1 1 1 3.738102e-01 
248 19 1 2 0 -1 -1 0 1 1 1 6.394460e-01 
248 20 1 1 1 0 0 1 1 1 1 5.620503e-01 
248 1 2 1 1 0 0 1 1 1 1 3.557983e-01 
248 2 2 4 -1 -1 0 -1 2 2 0 6.287269e-01 
248 3 2 4 -1 -1 0 -1 1 1 0 4.403275e-01 
248 4 2 2 0 -1 -1 0 2 2 1 4.179048e-01 
248 5 2 3 0 0 1 1 2 0 1 NaN 
248 6 2 1 1 0 0 1 1 1 1 3.285312e-01 
248 7 2 1 0 1 1 0 1 1 1 4.101669e-01 
248 8 2 1 1 0 0 1 2 2 1 3.622782e-01 
248 9 2 2 -1 0 0 0 2 0 0 NaN 
248 10 2 2 0 -1 -1 -1 1 0 0 NaN 
248 11 2 4 -1 -1 0 -1 1 1 0 4.063429e-01 
248 12 2 3 0 0 1 1 1 0 1 NaN 
248 13 2 4 -1 -1 0 -1 2 2 0 4.344302e-01 
248 14 2 3 1 1 0 1 1 1 0 4.590596e-01 
248 15 2 3 0 0 1 1 2 0 1 NaN 
248 16 2 3 0 0 1 1 1 0 1 NaN 
248 17 2 2 0 -1 -1 -1 2 0 0 NaN 
248 18 2 2 0 -1 -1 -1 1 0 0 NaN 
248 19 2 1 1 0 0 1 2 2 1 3.449703e-01 
248 20 2 4 0 0 -1 0 2 2 0 4.764458e-01 
248 1 1 3 0 0 1 0 1 1 0 4.669252e-01 
248 2 1 3 0 0 1 1 2 0 1 NaN 
248 3 1 4 0 0 -1 -1 2 0 1 NaN 
248 4 1 1 1 0 0 0 1 0 0 NaN 
248 5 1 4 -1 -1 0 -1 1 1 0 2.848972e-01 
248 6 1 3 1 1 0 1 1 1 0 4.115284e-01 
248 7 1 1 0 1 1 0 1 1 1 3.891679e-01 
248 8 1 3 0 0 1 0 1 1 0 7.780407e-01 
248 9 1 1 1 0 0 1 1 1 1 5.914364e-01 
248 10 1 4 -1 -1 0 -1 1 1 0 5.033839e-01 
248 11 1 2 0 -1 -1 -1 2 0 0 NaN 
248 12 1 2 -1 0 0 -1 2 2 1 4.861784e-01 
248 13 1 1 1 0 0 0 2 0 0 NaN 
248 14 1 2 0 -1 -1 0 1 1 1 3.698185e-01 
248 15 1 1 1 0 0 1 2 2 1 4.501440e-01 
248 16 1 4 -1 -1 0 0 2 0 1 NaN 
248 17 1 3 0 0 1 0 2 2 0 5.758106e-01 
248 18 1 2 0 -1 -1 -1 2 0 0 NaN 
248 19 1 4 -1 -1 0 0 2 0 1 NaN 
248 20 1 2 0 -1 -1 0 1 1 1 2.889526e-01 
248 1 2 3 1 1 0 1 1 1 0 4.263591e-01 
248 2 2 3 0 0 1 1 2 0 1 NaN 
248 3 2 4 -1 -1 0 -1 1 1 0 3.797240e-01 
248 4 2 1 1 0 0 1 1 1 1 2.647533e-01 
248 5 2 2 0 -1 -1 0 1 1 1 3.038419e-01 
248 6 2 1 1 0 0 1 2 2 1 3.621391e-01 
248 7 2 3 0 0 1 1 2 0 1 NaN 
248 8 2 1 1 0 0 0 1 0 0 NaN 
248 9 2 4 -1 -1 0 -1 2 2 0 3.459651e-01 
248 10 2 2 0 -1 -1 0 1 1 1 2.661655e-01 
248 11 2 3 0 0 1 0 1 1 0 4.286393e-01 
248 12 2 4 0 0 -1 0 2 2 0 6.118309e-01 
248 13 2 2 0 -1 -1 0 2 2 1 3.145220e-01 
248 14 2 1 1 0 0 1 2 2 1 4.095477e-01 
248 15 2 3 0 0 1 1 1 0 1 NaN 
248 16 2 2 -1 0 0 -1 2 2 1 3.326708e-01 
248 17 2 4 -1 -1 0 -1 1 1 0 6.583352e-01 
248 18 2 1 0 1 1 0 1 1 1 4.270987e-01 
248 19 2 2 0 -1 -1 0 2 2 1 3.026256e-01 
248 20 2 4 -1 -1 0 -1 2 2 0 5.151365e-01 
248 1 1 1 1 0 0 0 2 0 0 NaN 
248 2 1 3 1 1 0 0 1 0 1 NaN 
248 3 1 4 -1 -1 0 -1 2 2 0 3.944551e-01 
248 4 1 1 1 0 0 0 2 0 0 NaN 
248 5 1 2 0 -1 -1 -1 2 0 0 NaN 
248 6 1 4 -1 -1 0 0 2 0 1 NaN 
248 7 1 2 -1 0 0 -1 2 2 1 3.756361e-01 
248 8 1 2 0 -1 -1 0 2 2 1 7.097626e-01 
248 9 1 1 1 0 0 1 1 1 1 5.068887e-01 
248 10 1 3 0 0 1 0 2 2 0 7.818547e-01 
248 11 1 1 1 0 0 0 1 0 0 NaN 
248 12 1 2 0 -1 -1 0 1 1 1 7.339198e-01 
248 13 1 4 0 0 -1 -1 2 0 1 NaN 
248 14 1 2 0 -1 -1 0 1 1 1 4.459431e-01 
248 15 1 3 0 0 1 0 1 1 0 2.882178e-01 
248 16 1 3 0 0 1 0 2 2 0 3.381306e-01 
248 17 1 3 0 0 1 0 1 1 0 8.267940e-01 
248 18 1 1 0 1 1 1 1 0 0 NaN 
248 19 1 4 -1 -1 0 -1 1 1 0 6.446636e-01 
248 20 1 4 -1 -1 0 0 1 0 1 NaN 
248 1 2 2 0 -1 -1 0 2 2 1 3.458271e-01 
248 2 2 1 1 0 0 0 2 0 0 NaN 
248 3 2 2 -1 0 0 -1 2 2 1 2.525823e-01 
248 4 2 1 1 0 0 0 2 0 0 NaN 
248 5 2 4 -1 -1 0 -1 1 1 0 4.389962e-01 
248 6 2 4 -1 -1 0 0 2 0 1 NaN 
248 7 2 4 -1 -1 0 0 2 0 1 NaN 
248 8 2 3 0 0 1 1 2 0 1 NaN 
248 9 2 4 -1 -1 0 -1 1 1 0 6.777661e-01 
248 10 2 3 0 0 1 1 1 0 1 NaN 
248 11 2 3 0 0 1 1 2 0 1 NaN 
248 12 2 1 1 0 0 0 1 0 0 NaN 
248 13 2 2 0 -1 -1 0 1 1 1 6.099842e-01 
248 14 2 3 0 0 1 1 1 0 1 NaN 
248 15 2 2 0 -1 -1 0 2 2 1 4.389136e-01 
248 16 2 2 0 -1 -1 0 1 1 1 4.010393e-01 
248 17 2 4 0 0 -1 -1 2 0 1 NaN 
248 18 2 3 1 1 0 0 1 0 1 NaN 
248 19 2 1 0 1 1 1 1 0 0 NaN 
248 20 2 1 1 0 0 0 1 0 0 NaN 
248 1 1 3 1 1 0 1 1 1 0 4.960747e-01 
248 2 1 2 0 -1 -1 0 1 1 1 5.975375e-01 
248 3 1 3 0 0 1 1 1 0 1 NaN 
248 4 1 1 1 0 0 1 1 1 1 4.706125e-01 
248 5 1 3 0 0 1 0 2 2 0 3.378190e-01 
248 6 1 2 -1 0 0 0 2 0 0 NaN 
248 7 1 3 0 0 1 1 1 0 1 NaN 
248 8 1 4 0 0 -1 -1 2 0 1 NaN 
248 9 1 2 0 -1 -1 -1 2 0 0 NaN 
248 10 1 2 0 -1 -1 0 2 2 1 2.983572e-01 
248 11 1 3 0 0 1 0 2 2 0 3.437899e-01 
248 12 1 4 -1 -1 0 0 1 0 1 NaN 
248 13 1 4 -1 -1 0 0 2 0 1 NaN 
248 14 1 2 0 -1 -1 0 1 1 1 5.233686e-01 
248 15 1 1 1 0 0 0 2 0 0 NaN 
248 16 1 1 1 0 0 0 1 0 0 NaN 
248 17 1 1 0 1 1 1 1 0 0 NaN 
248 18 1 1 1 0 0 0 2 0 0 NaN 
248 19 1 4 -1 -1 0 0 2 0 1 NaN 
248 20 1 4 -1 -1 0 0 1 0 1 NaN 
248 1 2 4 -1 -1 0 -1 1 1 0 5.350825e-01 
248 2 2 4 -1 -1 0 0 2 0 1 NaN 
248 3 2 3 0 0 1 1 1 0 1 NaN 
248 4 2 2 0 -1 -1 0 2 2 1 4.718460e-01 
248 5 2 1 1 0 0 0 1 0 0 NaN 
248 6 2 2 0 -1 -1 0 1 1 1 3.519710e-01 
248 7 2 4 -1 -1 0 0 1 0 1 NaN 
248 8 2 3 0 0 1 1 2 0 1 NaN 
248 9 2 2 0 -1 -1 0 2 2 1 3.019996e-01 
248 10 2 3 1 1 0 0 1 0 1 NaN 
248 11 2 1 1 0 0 0 2 0 0 NaN 
248 12 2 1 0 1 1 1 1 0 0 NaN 
248 13 2 2 0 -1 -1 0 1 1 1 3.749111e-01 
248 14 2 3 0 0 1 0 2 2 0 5.658681e-01 
248 15 2 4 0 0 -1 -1 2 0 1 NaN 
248 16 2 1 1 0 0 0 2 0 0 NaN 
248 17 2 4 -1 -1 0 0 2 0 1 NaN 
248 18 2 1 1 0 0 0 1 0 0 NaN 
248 19 2 2 -1 0 0 -1 2 2 1 3.696380e-01 
248 20 2 3 0 0 1 1 1 0 1 NaN 
248 1 1 3 0 0 1 0 1 1 0 3.851368e-01 
248 2 1 2 0 -1 -1 0 1 1 1 7.568856e-01 
248 3 1 2 0 -1 -1 -1 1 0 0 NaN 
248 4 1 1 0 1 1 0 1 1 1 4.560232e-01 
248 5 1 4 -1 -1 0 0 1 0 1 NaN 
248 6 1 2 -1 0 0 0 2 0 0 NaN 
248 7 1 4 -1 -1 0 0 1 0 1 NaN 
248 8 1 4 -1 -1 0 0 2 0 1 NaN 
248 9 1 1 1 0 0 0 1 0 0 NaN 
248 10 1 4 -1 -1 0 0 2 0 1 NaN 
248 11 1 4 0 0 -1 -1 2 0 1 NaN 
248 12 1 1 1 0 0 0 2 0 0 NaN 
248 13 1 3 0 0 1 1 1 0 1 NaN 
248 14 1 1 1 0 0 0 2 0 0 NaN 
248 15 1 2 0 -1 -1 0 2 2 1 4.078859e-01 
248 16 1 1 1 0 0 0 1 0 0 NaN 
248 17 1 2 0 -1 -1 -1 2 0 0 NaN 
248 18 1 3 1 1 0 0 1 0 1 NaN 
248 19 1 3 0 0 1 1 2 0 1 NaN 
248 20 1 3 0 0 1 1 2 0 1 NaN 
248 1 2 4 -1 -1 0 0 1 0 1 NaN 
248 2 2 3 0 0 1 1 2 0 1 NaN 
248 3 2 4 0 0 -1 -1 2 0 1 NaN 
248 4 2 4 -1 -1 0 0 1 0 1 NaN 
248 5 2 3 1 1 0 0 1 0 1 NaN 
248 6 2 2 0 -1 -1 -1 2 0 0 NaN 
248 7 2 1 0 1 1 1 1 0 0 NaN 
248 8 2 4 -1 -1 0 0 2 0 1 NaN 
248 9 2 1 1 0 0 0 1 0 0 NaN 
248 10 2 2 0 -1 -1 0 1 1 1 3.616375e-01 
248 11 2 3 0 0 1 1 1 0 1 NaN 
248 12 2 3 0 0 1 1 1 0 1 NaN 
248 13 2 3 0 0 1 1 2 0 1 NaN 
248 14 2 1 1 0 0 0 2 0 0 NaN 
248 15 2 1 1 0 0 0 1 0 0 NaN 
248 16 2 2 0 -1 -1 0 2 2 1 3.578327e-01 
248 17 2 1 1 0 0 0 2 0 0 NaN 
248 18 2 4 -1 -1 0 0 2 0 1 NaN 
248 19 2 2 -1 0 0 -1 2 2 1 3.194831e-01 
248 20 2 2 0 -1 -1 -1 1 0 0 NaN 
248 1 1 3 0 0 1 0 1 1 0 6.787400e-01 
248 2 1 4 -1 -1 0 0 1 0 1 NaN 
248 3 1 1 1 0 0 0 1 0 0 NaN 
248 4 1 2 0 -1 -1 -1 1 0 0 NaN 
248 5 1 4 -1 -1 0 0 2 0 1 NaN 
248 6 1 1 1 0 0 0 2 0 0 NaN 
248 7 1 3 0 0 1 1 2 0 1 NaN 
248 8 1 3 1 1 0 0 1 0 1 NaN 
248 9 1 4 0 0 -1 -1 2 0 1 NaN 
248 10 1 1 1 0 0 0 2 0 0 NaN 
248 11 1 3 0 0 1 1 1 0 1 NaN 
248 12 1 2 0 -1 -1 -1 2 0 0 NaN 
248 13 1 1 1 0 0 0 1 0 0 NaN 
248 14 1 2 -1 0 0 -1 2 2 1 5.208578e-01 
248 15 1 3 0 0 1 1 2 0 1 NaN 
248 16 1 4 -1 -1 0 0 2 0 1 NaN 
248 17 1 4 -1 -1 0 0 1 0 1 NaN 
248 18 1 2 0 -1 -1 -1 2 0 0 NaN 
248 19 1 1 0 1 1 1 1 0 0 NaN 
248 20 1 2 0 -1 -1 0 1 1 1 5.545562e-01 
248 1 2 2 0 -1 -1 0 1 1 1 3.854183e-01 
248 2 2 1 1 0 0 1 2 2 1 3.726627e-01 
248 3 2 4 -1 -1 0 0 1 0 1 NaN 
248 4 2 3 0 0 1 1 2 0 1 NaN 
248 5 2 1 0 1 1 1 1 0 0 NaN 
248 6 2 1 1 0 0 0 1 0 0 NaN 
248 7 2 1 1 0 0 0 2 0 0 NaN 
248 8 2 3 0 0 1 1 1 0 1 NaN 
248 9 2 2 -1 0 0 -1 2 2 1 2.952277e-01 
248 10 2 4 -1 -1 0 0 2 0 1 NaN 
248 11 2 1 1 0 0 0 1 0 0 NaN 
248 12 2 4 -1 -1 0 0 2 0 1 NaN 
248 13 2 3 1 1 0 0 1 0 1 NaN 
248 14 2 3 0 0 1 1 1 0 1 NaN 
248 15 2 4 -1 -1 0 0 1 0 1 NaN 
248 16 2 4 0 0 -1 -1 2 0 1 NaN 
248 17 2 2 0 -1 -1 0 1 1 1 3.518795e-01 
248 18 2 2 0 -1 -1 0 2 2 1 3.512471e-01 
248 19 2 2 0 -1 -1 0 2 2 1 3.520871e-01 
248 20 2 3 0 0 1 1 2 0 1 NaN 
248 1 1 1 1 0 0 0 2 0 0 NaN 
248 2 1 2 0 -1 -1 0 2 2 1 3.465369e-01 
248 3 1 3 0 0 1 0 2 2 0 4.441748e-01 
248 4 1 3 0 0 1 0 2 2 0 4.126005e-01 
248 5 1 2 0 -1 -1 0 1 1 1 4.260153e-01 
248 6 1 2 -1 0 0 -1 2 2 1 3.434205e-01 
248 7 1 1 1 0 0 0 2 0 0 NaN 
248 8 1 1 1 0 0 0 1 0 0 NaN 
248 9 1 4 -1 -1 0 0 2 0 1 NaN 
248 10 1 3 1 1 0 0 1 0 1 NaN 
248 11 1 3 0 0 1 1 1 0 1 NaN 
248 12 1 4 -1 -1 0 0 2 0 1 NaN 
248 13 1 3 0 0 1 1 1 0 1 NaN 
248 14 1 4 -1 -1 0 0 1 0 1 NaN 
248 15 1 2 0 -1 -1 -1 1 0 0 NaN 
248 16 1 1 0 1 1 1 1 0 0 NaN 
248 17 1 4 0 0 -1 -1 2 0 1 NaN 
248 18 1 4 -1 -1 0 0 1 0 1 NaN 
248 19 1 2 0 -1 -1 0 2 2 1 2.945853e-01 
248 20 1 1 1 0 0 0 1 0 0 NaN 
248 1 2 4 -1 -1 0 0 1 0 1 NaN 
248 2 2 1 1 0 0 0 2 0 0 NaN 
248 3 2 4 -1 -1 0 0 1 0 1 NaN 
248 4 2 3 0 0 1 1 2 0 1 NaN 
248 5 2 1 1 0 0 0 1 0 0 NaN 
248 6 2 3 1 1 0 0 1 0 1 NaN 
248 7 2 1 1 0 0 0 1 0 0 NaN 
248 8 2 2 0 -1 -1 0 1 1 1 5.618596e-01 
248 9 2 4 -1 -1 0 0 2 0 1 NaN 
248 10 2 2 0 -1 -1 0 2 2 1 3.016445e-01 
248 11 2 3 0 0 1 0 1 1 0 4.130751e-01 
248 12 2 2 0 -1 -1 0 1 1 1 8.854241e-01 
248 13 2 2 -1 0 0 -1 2 2 1 4.164775e-01 
248 14 2 1 1 0 0 0 2 0 0 NaN 
248 15 2 1 0 1 1 1 1 0 0 NaN 
248 16 2 3 0 0 1 1 2 0 1 NaN 
248 17 2 3 0 0 1 1 1 0 1 NaN 
248 18 2 4 -1 -1 0 0 2 0 1 NaN 
248 19 2 2 0 -1 -1 0 2 2 1 5.670275e-01 
248 20 2 4 0 0 -1 -1 2 0 1 NaN 
248 1 1 2 0 -1 -1 -1 2 0 0 NaN 
248 2 1 1 1 0 0 0 2 0 0 NaN 
248 3 1 2 0 -1 -1 0 1 1 1 3.703910e-01 
248 4 1 2 0 -1 -1 0 1 1 1 3.015859e-01 
248 5 1 3 0 0 1 1 1 0 1 NaN 
248 6 1 4 0 0 -1 -1 2 0 1 NaN 
248 7 1 4 -1 -1 0 0 1 0 1 NaN 
248 8 1 1 1 0 0 0 1 0 0 NaN 
248 9 1 1 1 0 0 0 2 0 0 NaN 
248 10 1 3 1 1 0 1 1 1 0 4.928333e-01 
248 11 1 2 0 -1 -1 -1 2 0 0 NaN 
248 12 1 4 -1 -1 0 0 1 0 1 NaN 
248 13 1 3 0 0 1 1 2 0 1 NaN 
248 14 1 1 0 1 1 1 1 0 0 NaN 
248 15 1 1 1 0 0 0 1 0 0 NaN 
248 16 1 3 0 0 1 1 2 0 1 NaN 
248 17 1 4 -1 -1 0 0 2 0 1 NaN 
248 18 1 3 0 0 1 1 1 0 1 NaN 
248 19 1 2 -1 0 0 -1 2 2 1 3.286120e-01 
248 20 1 4 -1 -1 0 0 2 0 1 NaN 
248 1 2 4 -1 -1 0 -1 2 2 0 4.295947e-01 
248 2 2 2 0 -1 -1 0 2 2 1 4.086365e-01 
248 3 2 1 1 0 0 0 2 0 0 NaN 
248 4 2 4 -1 -1 0 0 1 0 1 NaN 
248 5 2 1 1 0 0 1 1 1 1 4.309788e-01 
248 6 2 4 -1 -1 0 0 2 0 1 NaN 
248 7 2 1 1 0 0 1 2 2 1 3.136632e-01 
248 8 2 3 0 0 1 1 2 0 1 NaN 
248 9 2 4 0 0 -1 -1 2 0 1 NaN 
248 10 2 1 0 1 1 0 1 1 1 3.384579e-01 
248 11 2 2 0 -1 -1 0 1 1 1 3.668428e-01 
248 12 2 3 0 0 1 1 1 0 1 NaN 
248 13 2 3 1 1 0 0 1 0 1 NaN 
248 14 2 2 -1 0 0 -1 2 2 1 4.709450e-01 
248 15 2 3 0 0 1 1 1 0 1 NaN 
248 16 2 3 0 0 1 1 2 0 1 NaN 
248 17 2 2 0 -1 -1 0 1 1 1 2.878003e-01 
248 18 2 1 1 0 0 1 1 1 1 4.078733e-01 
248 19 2 2 0 -1 -1 0 2 2 1 3.291150e-01 
248 20 2 4 -1 -1 0 0 1 0 1 NaN 
248 1 1 2 0 -1 -1 0 2 2 1 3.373334e-01 
248 2 1 4 0 0 -1 -1 2 0 1 NaN 
248 3 1 1 1 0 0 0 1 0 0 NaN 
248 4 1 2 0 -1 -1 0 2 2 1 3.298393e-01 
248 5 1 3 0 0 1 1 2 0 1 NaN 
248 6 1 1 1 0 0 0 1 0 0 NaN 
248 7 1 3 0 0 1 1 2 0 1 NaN 
248 8 1 2 0 -1 -1 0 1 1 1 3.538393e-01 
248 9 1 1 1 0 0 0 2 0 0 NaN 
248 10 1 4 -1 -1 0 0 1 0 1 NaN 
248 11 1 2 -1 0 0 -1 2 2 1 2.746297e-01 
248 12 1 4 -1 -1 0 0 2 0 1 NaN 
248 13 1 4 -1 -1 0 0 1 0 1 NaN 
248 14 1 4 -1 -1 0 0 2 0 1 NaN 
248 15 1 3 1 1 0 0 1 0 1 NaN 
248 16 1 2 0 -1 -1 0 1 1 1 3.223263e-01 
248 17 1 1 0 1 1 1 1 0 0 NaN 
248 18 1 3 0 0 1 1 1 0 1 NaN 
248 19 1 1 1 0 0 0 2 0 0 NaN 
248 20 1 3 0 0 1 1 1 0 1 NaN 
248 1 2 1 1 0 0 1 2 2 1 8.723460e-01 
248 2 2 4 -1 -1 0 0 1 0 1 NaN 
248 3 2 1 1 0 0 1 1 1 1 3.515131e-01 
248 4 2 3 0 0 1 1 2 0 1 NaN 
248 5 2 1 1 0 0 1 1 1 1 3.315733e-01 
248 6 2 2 0 -1 -1 0 2 2 1 3.188414e-01 
248 7 2 4 -1 -1 0 0 2 0 1 NaN 
248 8 2 2 0 -1 -1 0 1 1 1 3.158643e-01 
248 9 2 3 1 1 0 0 1 0 1 NaN 
248 10 2 4 -1 -1 0 0 1 0 1 NaN 
248 11 2 2 -1 0 0 -1 2 2 1 3.653094e-01 
248 12 2 4 -1 -1 0 0 2 0 1 NaN 
248 13 2 1 0 1 1 0 1 1 1 3.483888e-01 
248 14 2 4 0 0 -1 -1 2 0 1 NaN 
248 15 2 3 0 0 1 1 2 0 1 NaN 
248 16 2 2 0 -1 -1 0 1 1 1 3.124472e-01 
248 17 2 3 0 0 1 1 1 0 1 NaN 
248 18 2 2 0 -1 -1 0 2 2 1 3.727120e-01 
248 19 2 3 0 0 1 1 1 0 1 NaN 
248 20 2 1 1 0 0 1 2 2 1 2.891526e-01 
248 1 1 4 -1 -1 0 0 1 0 1 NaN 
248 2 1 3 0 0 1 1 1 0 1 NaN 
248 3 1 1 1 0 0 0 1 0 0 NaN 
248 4 1 1 1 0 0 0 2 0 0 NaN 
248 5 1 4 -1 -1 0 0 1 0 1 NaN 
248 6 1 2 0 -1 -1 0 1 1 1 5.366655e-01 
248 7 1 1 0 1 1 1 1 0 0 NaN 
248 8 1 3 0 0 1 1 1 0 1 NaN 
248 9 1 1 1 0 0 0 2 0 0 NaN 
248 10 1 4 0 0 -1 -1 2 0 1 NaN 
248 11 1 1 1 0 0 0 1 0 0 NaN 
248 12 1 3 0 0 1 0 2 2 0 5.873358e-01 
248 13 1 4 -1 -1 0 0 2 0 1 NaN 
248 14 1 2 0 -1 -1 0 2 2 1 3.519052e-01 
248 15 1 2 -1 0 0 -1 2 2 1 4.831133e-01 
248 16 1 4 -1 -1 0 0 2 0 1 NaN 
248 17 1 2 0 -1 -1 0 2 2 1 2.597278e-01 
248 18 1 3 1 1 0 0 1 0 1 NaN 
248 19 1 3 0 0 1 0 2 2 0 9.117318e-01 
248 20 1 2 0 -1 -1 0 1 1 1 3.669465e-01 
248 1 2 3 0 0 1 1 1 0 1 NaN 
248 2 2 3 0 0 1 1 2 0 1 NaN 
248 3 2 1 0 1 1 0 1 1 1 3.450001e-01 
248 4 2 1 1 0 0 1 2 2 1 3.206258e-01 
248 5 2 1 1 0 0 1 1 1 1 2.503972e-01 
248 6 2 1 1 0 0 1 1 1 1 4.191797e-01 
248 7 2 3 0 0 1 1 1 0 1 NaN 
248 8 2 4 -1 -1 0 0 2 0 1 NaN 
248 9 2 1 1 0 0 1 2 2 1 3.711985e-01 
248 10 2 2 0 -1 -1 0 1 1 1 3.967764e-01 
248 11 2 3 0 0 1 1 2 0 1 NaN 
248 12 2 4 0 0 -1 -1 2 0 1 NaN 
248 13 2 2 0 -1 -1 0 2 2 1 3.500061e-01 
248 14 2 2 -1 0 0 -1 2 2 1 4.084852e-01 
248 15 2 3 1 1 0 0 1 0 1 NaN 
248 16 2 2 0 -1 -1 0 2 2 1 3.464160e-01 
248 17 2 2 0 -1 -1 0 1 1 1 2.942641e-01 
248 18 2 4 -1 -1 0 0 2 0 1 NaN 
248 19 2 4 -1 -1 0 0 1 0 1 NaN 
248 20 2 4 -1 -1 0 0 1 0 1 NaN 
248 1 1 2 0 -1 -1 0 2 2 1 3.487004e-01 
248 2 1 1 1 0 0 0 2 0 0 NaN 
248 3 1 2 0 -1 -1 0 2 2 1 4.162337e-01 
248 4 1 4 -1 -1 0 0 2 0 1 NaN 
248 5 1 2 0 -1 -1 0 1 1 1 4.473080e-01 
248 6 1 2 0 -1 -1 0 1 1 1 3.038035e-01 
248 7 1 4 0 0 -1 -1 2 0 1 NaN 
248 8 1 1 1 0 0 0 1 0 0 NaN 
248 9 1 1 0 1 1 1 1 0 0 NaN 
248 10 1 2 -1 0 0 -1 2 2 1 3.410327e-01 
248 11 1 3 0 0 1 1 2 0 1 NaN 
248 12 1 3 0 0 1 1 2 0 1 NaN 
248 13 1 3 0 0 1 1 1 0 1 NaN 
248 14 1 1 1 0 0 0 1 0 0 NaN 
248 15 1 4 -1 -1 0 0 2 0 1 NaN 
248 16 1 4 -1 -1 0 0 1 0 1 NaN 
248 17 1 1 1 0 0 0 2 0 0 NaN 
248 18 1 3 0 0 1 1 1 0 1 NaN 
248 19 1 3 1 1 0 0 1 0 1 NaN 
248 20 1 4 -1 -1 0 0 1 0 1 NaN 
248 1 2 3 1 1 0 0 1 0 1 NaN 
248 2 2 3 0 0 1 1 1 0 1 NaN 
248 3 2 1 1 0 0 1 1 1 1 3.382128e-01 
248 4 2 1 0 1 1 0 1 1 1 2.918472e-01 
248 5 2 1 1 0 0 1 2 2 1 5.645524e-01 
248 6 2 4 0 0 -1 -1 2 0 1 NaN 
248 7 2 2 0 -1 -1 0 2 2 1 3.406173e-01 
248 8 2 3 0 0 1 1 1 0 1 NaN 
248 9 2 4 -1 -1 0 0 1 0 1 NaN 
248 10 2 4 -1 -1 0 0 2 0 1 NaN 
248 11 2 4 -1 -1 0 0 2 0 1 NaN 
248 12 2 3 0 0 1 1 2 0 1 NaN 
248 13 2 2 0 -1 -1 0 2 2 1 3.722806e-01 
248 14 2 1 1 0 0 1 1 1 1 3.156753e-01 
248 15 2 2 -1 0 0 -1 2 2 1 3.766113e-01 
248 16 2 1 1 0 0 1 2 2 1 4.857090e-01 
248 17 2 4 -1 -1 0 0 1 0 1 NaN 
248 18 2 2 0 -1 -1 0 1 1 1 3.676968e-01 
248 19 2 2 0 -1 -1 0 1 1 1 4.910327e-01 
248 20 2 3 0 0 1 1 2 0 1 NaN 
248 1 1 1 1 0 0 0 1 0 0 NaN 
248 2 1 4 -1 -1 0 0 2 0 1 NaN 
248 3 1 2 0 -1 -1 0 1 1 1 4.484661e-01 
248 4 1 1 1 0 0 0 2 0 0 NaN 
248 5 1 4 -1 -1 0 0 2 0 1 NaN 
248 6 1 2 -1 0 0 -1 2 2 1 4.036292e-01 
248 7 1 3 0 0 1 1 2 0 1 NaN 
248 8 1 3 0 0 1 1 2 0 1 NaN 
248 9 1 4 -1 -1 0 0 1 0 1 NaN 
248 10 1 2 0 -1 -1 0 2 2 1 3.992457e-01 
248 11 1 1 1 0 0 0 2 0 0 NaN 
248 12 1 2 0 -1 -1 0 2 2 1 3.335981e-01 
248 13 1 4 -1 -1 0 0 1 0 1 NaN 
248 14 1 2 0 -1 -1 0 1 1 1 3.476228e-01 
248 15 1 4 0 0 -1 -1 2 0 1 NaN 
248 16 1 1 0 1 1 1 1 0 0 NaN 
248 17 1 3 0 0 1 1 1 0 1 NaN 
248 18 1 3 1 1 0 0 1 0 1 NaN 
248 19 1 1 1 0 0 0 1 0 0 NaN 
248 20 1 3 0 0 1 1 1 0 1 NaN 
248 1 2 3 0 0 1 1 1 0 1 NaN 
248 2 2 2 0 -1 -1 0 2 2 1 2.904918e-01 
248 3 2 2 -1 0 0 -1 2 2 1 3.496236e-01 
248 4 2 4 -1 -1 0 0 1 0 1 NaN 
248 5 2 4 -1 -1 0 0 1 0 1 NaN 
248 6 2 1 1 0 0 1 2 2 1 4.727366e-01 
248 7 2 3 0 0 1 1 1 0 1 NaN 
248 8 2 3 0 0 1 1 2 0 1 NaN 
248 9 2 1 1 0 0 1 1 1 1 5.252269e-01 
248 10 2 3 0 0 1 1 2 0 1 NaN 
248 11 2 2 0 -1 -1 0 2 2 1 3.796066e-01 
248 12 2 1 1 0 0 1 1 1 1 4.952806e-01 
248 13 2 1 1 0 0 1 2 2 1 3.626634e-01 
248 14 2 3 1 1 0 0 1 0 1 NaN 
248 15 2 4 -1 -1 0 0 2 0 1 NaN 
248 16 2 1 0 1 1 0 1 1 1 3.643766e-01 
248 17 2 2 0 -1 -1 0 1 1 1 3.387819e-01 
248 18 2 4 -1 -1 0 0 2 0 1 NaN 
248 19 2 4 0 0 -1 -1 2 0 1 NaN 
248 20 2 2 0 -1 -1 0 1 1 1 3.042076e-01 
