Subject,Block,Trial,Valence,Exposure,Action,Robot,Rune,Color,Correct,Choice,RT,Accuracy,Sham,Outcome,TotalKeys
0ubclurpshlgyru3cwo3stun,1,1,Win,1,No-Go,NGW,rune_02_os,yellow,0,1,0.396,0,0.0,+1,1
0ubclurpshlgyru3cwo3stun,1,2,Win,1,Go,GW,rune_02_cen,yellow,1,1,0.561,1,0.0,+10,1
0ubclurpshlgyru3cwo3stun,1,3,Lose,1,Go,GAL,rune_02_raido,blue,1,1,0.577,1,0.0,-1,1
0ubclurpshlgyru3cwo3stun,1,4,Lose,1,No-Go,NGAL,rune_02_haglaz,blue,0,0,,1,0.0,-1,0
0ubclurpshlgyru3cwo3stun,1,5,Win,2,No-Go,NGW,rune_02_os,yellow,0,1,0.614,0,0.0,+1,1
0ubclurpshlgyru3cwo3stun,1,6,Win,2,Go,GW,rune_02_cen,yellow,1,1,0.455,1,0.0,+10,1
0ubclurpshlgyru3cwo3stun,1,7,Lose,2,Go,GAL,rune_02_raido,blue,1,0,,0,0.0,-10,0
0ubclurpshlgyru3cwo3stun,1,8,Lose,2,No-Go,NGAL,rune_02_haglaz,blue,0,1,0.752,0,1.0,-1,1
0ubclurpshlgyru3cwo3stun,1,9,Lose,3,Go,GAL,rune_02_raido,blue,1,1,0.958,1,1.0,-10,1
0ubclurpshlgyru3cwo3stun,1,10,Win,3,No-Go,NGW,rune_02_os,yellow,0,1,0.76,0,0.0,+1,1
0ubclurpshlgyru3cwo3stun,1,11,Lose,3,No-Go,NGAL,rune_02_haglaz,blue,0,1,0.803,0,0.0,-10,1
0ubclurpshlgyru3cwo3stun,1,12,Win,3,Go,GW,rune_02_cen,yellow,1,1,0.633,1,0.0,+10,1
0ubclurpshlgyru3cwo3stun,1,13,Lose,4,No-Go,NGAL,rune_02_haglaz,blue,0,0,,1,0.0,-1,0
0ubclurpshlgyru3cwo3stun,1,14,Win,4,Go,GW,rune_02_cen,yellow,1,1,0.625,1,1.0,+1,1
0ubclurpshlgyru3cwo3stun,1,15,Win,4,No-Go,NGW,rune_02_os,yellow,0,1,0.965,0,0.0,+1,1
0ubclurpshlgyru3cwo3stun,1,16,Lose,4,Go,GAL,rune_02_raido,blue,1,0,,0,0.0,-10,0
0ubclurpshlgyru3cwo3stun,1,17,Lose,5,Go,GAL,rune_02_raido,blue,1,1,0.528,1,0.0,-1,1
0ubclurpshlgyru3cwo3stun,1,18,Win,5,Go,GW,rune_02_cen,yellow,1,1,0.592,1,0.0,+10,1
0ubclurpshlgyru3cwo3stun,1,19,Lose,5,No-Go,NGAL,rune_02_haglaz,blue,0,0,,1,0.0,-1,0
0ubclurpshlgyru3cwo3stun,1,20,Win,5,No-Go,NGW,rune_02_os,yellow,0,0,,1,1.0,+1,0
0ubclurpshlgyru3cwo3stun,1,21,Lose,6,No-Go,NGAL,rune_02_haglaz,blue,0,0,,1,0.0,-1,0
0ubclurpshlgyru3cwo3stun,1,22,Win,6,Go,GW,rune_02_cen,yellow,1,1,0.446,1,0.0,+10,1
0ubclurpshlgyru3cwo3stun,1,23,Win,6,No-Go,NGW,rune_02_os,yellow,0,0,,1,0.0,+10,0
0ubclurpshlgyru3cwo3stun,1,24,Lose,6,Go,GAL,rune_02_raido,blue,1,1,1.059,1,0.0,-1,1
0ubclurpshlgyru3cwo3stun,1,25,Lose,7,No-Go,NGAL,rune_02_haglaz,blue,0,0,,1,1.0,-10,0
0ubclurpshlgyru3cwo3stun,1,26,Win,7,Go,GW,rune_02_cen,yellow,1,1,0.729,1,0.0,+10,1
0ubclurpshlgyru3cwo3stun,1,27,Lose,7,Go,GAL,rune_02_raido,blue,1,1,1.241,1,0.0,-1,1
0ubclurpshlgyru3cwo3stun,1,28,Win,7,No-Go,NGW,rune_02_os,yellow,0,0,,1,0.0,+10,0
0ubclurpshlgyru3cwo3stun,1,29,Win,8,Go,GW,rune_02_cen,yellow,1,1,0.507,1,0.0,+10,1
0ubclurpshlgyru3cwo3stun,1,30,Win,8,No-Go,NGW,rune_02_os,yellow,0,0,,1,0.0,+10,0
0ubclurpshlgyru3cwo3stun,1,31,Lose,8,Go,GAL,rune_02_raido,blue,1,1,0.918,1,1.0,-10,1
0ubclurpshlgyru3cwo3stun,1,32,Lose,8,No-Go,NGAL,rune_02_haglaz,blue,0,0,,1,0.0,-1,0
0ubclurpshlgyru3cwo3stun,1,33,Win,9,Go,GW,rune_02_cen,yellow,1,1,0.426,1,0.0,+10,1
0ubclurpshlgyru3cwo3stun,1,34,Lose,9,Go,GAL,rune_02_raido,blue,1,1,0.532,1,0.0,-1,1
0ubclurpshlgyru3cwo3stun,1,35,Lose,9,No-Go,NGAL,rune_02_haglaz,blue,0,0,,1,0.0,-1,0
0ubclurpshlgyru3cwo3stun,1,36,Win,9,No-Go,NGW,rune_02_os,yellow,0,0,,1,1.0,+1,0
0ubclurpshlgyru3cwo3stun,1,37,Lose,10,No-Go,NGAL,rune_02_haglaz,blue,0,0,,1,0.0,-1,0
0ubclurpshlgyru3cwo3stun,1,38,Win,10,Go,GW,rune_02_cen,yellow,1,1,0.31,1,1.0,+1,1
0ubclurpshlgyru3cwo3stun,1,39,Win,10,No-Go,NGW,rune_02_os,yellow,0,0,,1,0.0,+10,0
0ubclurpshlgyru3cwo3stun,1,40,Lose,10,Go,GAL,rune_02_raido,blue,1,1,0.481,1,0.0,-1,1
0ubclurpshlgyru3cwo3stun,1,41,Win,11,No-Go,NGW,rune_02_os,yellow,0,0,,1,0.0,+10,0
0ubclurpshlgyru3cwo3stun,1,42,Win,11,Go,GW,rune_02_cen,yellow,1,1,0.374,1,0.0,+10,1
0ubclurpshlgyru3cwo3stun,1,43,Lose,11,No-Go,NGAL,rune_02_haglaz,blue,0,0,,1,0.0,-1,0
0ubclurpshlgyru3cwo3stun,1,44,Lose,11,Go,GAL,rune_02_raido,blue,1,1,0.605,1,0.0,-1,1
0ubclurpshlgyru3cwo3stun,1,45,Win,12,Go,GW,rune_02_cen,yellow,1,1,0.4,1,0.0,+10,1
0ubclurpshlgyru3cwo3stun,1,46,Win,12,No-Go,NGW,rune_02_os,yellow,0,0,,1,1.0,+1,0
0ubclurpshlgyru3cwo3stun,1,47,Lose,12,Go,GAL,rune_02_raido,blue,1,1,0.672,1,0.0,-1,1
0ubclurpshlgyru3cwo3stun,1,48,Lose,12,No-Go,NGAL,rune_02_haglaz,blue,0,0,,1,0.0,-1,0
0ubclurpshlgyru3cwo3stun,1,49,Lose,13,Go,GAL,rune_02_raido,blue,1,1,0.621,1,0.0,-1,1
0ubclurpshlgyru3cwo3stun,1,50,Win,13,Go,GW,rune_02_cen,yellow,1,1,0.47,1,0.0,+10,1
0ubclurpshlgyru3cwo3stun,1,51,Lose,13,No-Go,NGAL,rune_02_haglaz,blue,0,0,,1,1.0,-10,0
0ubclurpshlgyru3cwo3stun,1,52,Win,13,No-Go,NGW,rune_02_os,yellow,0,0,,1,0.0,+10,0
0ubclurpshlgyru3cwo3stun,1,53,Win,14,Go,GW,rune_02_cen,yellow,1,1,0.396,1,0.0,+10,1
0ubclurpshlgyru3cwo3stun,1,54,Lose,14,Go,GAL,rune_02_raido,blue,1,1,0.413,1,1.0,-10,1
0ubclurpshlgyru3cwo3stun,1,55,Lose,14,No-Go,NGAL,rune_02_haglaz,blue,0,0,,1,0.0,-1,0
0ubclurpshlgyru3cwo3stun,1,56,Win,14,No-Go,NGW,rune_02_os,yellow,0,0,,1,0.0,+10,0
0ubclurpshlgyru3cwo3stun,1,57,Lose,15,Go,GAL,rune_02_raido,blue,1,1,0.569,1,0.0,-1,1
0ubclurpshlgyru3cwo3stun,1,58,Win,15,No-Go,NGW,rune_02_os,yellow,0,0,,1,0.0,+10,0
0ubclurpshlgyru3cwo3stun,1,59,Lose,15,No-Go,NGAL,rune_02_haglaz,blue,0,0,,1,0.0,-1,0
0ubclurpshlgyru3cwo3stun,1,60,Win,15,Go,GW,rune_02_cen,yellow,1,1,0.341,1,1.0,+1,1
0ubclurpshlgyru3cwo3stun,1,61,Win,16,No-Go,NGW,rune_02_os,yellow,0,0,,1,0.0,+10,0
0ubclurpshlgyru3cwo3stun,1,62,Win,16,Go,GW,rune_02_cen,yellow,1,1,0.389,1,0.0,+10,1
0ubclurpshlgyru3cwo3stun,1,63,Lose,16,No-Go,NGAL,rune_02_haglaz,blue,0,0,,1,0.0,-1,0
0ubclurpshlgyru3cwo3stun,1,64,Lose,16,Go,GAL,rune_02_raido,blue,1,1,0.614,1,0.0,-1,1
0ubclurpshlgyru3cwo3stun,1,65,Lose,17,No-Go,NGAL,rune_02_haglaz,blue,0,0,,1,0.0,-1,0
0ubclurpshlgyru3cwo3stun,1,66,Lose,17,Go,GAL,rune_02_raido,blue,1,1,0.511,1,0.0,-1,1
0ubclurpshlgyru3cwo3stun,1,67,Win,17,Go,GW,rune_02_cen,yellow,1,1,0.371,1,1.0,+1,1
0ubclurpshlgyru3cwo3stun,1,68,Win,17,No-Go,NGW,rune_02_os,yellow,0,1,0.409,0,0.0,+1,1
0ubclurpshlgyru3cwo3stun,1,69,Win,18,No-Go,NGW,rune_02_os,yellow,0,0,,1,1.0,+1,0
0ubclurpshlgyru3cwo3stun,1,70,Win,18,Go,GW,rune_02_cen,yellow,1,1,0.366,1,0.0,+10,1
0ubclurpshlgyru3cwo3stun,1,71,Lose,18,No-Go,NGAL,rune_02_haglaz,blue,0,0,,1,1.0,-10,0
0ubclurpshlgyru3cwo3stun,1,72,Lose,18,Go,GAL,rune_02_raido,blue,1,1,0.463,1,0.0,-1,1
0ubclurpshlgyru3cwo3stun,1,73,Win,19,No-Go,NGW,rune_02_os,yellow,0,0,,1,0.0,+10,0
0ubclurpshlgyru3cwo3stun,1,74,Lose,19,Go,GAL,rune_02_raido,blue,1,1,0.531,1,1.0,-10,1
0ubclurpshlgyru3cwo3stun,1,75,Win,19,Go,GW,rune_02_cen,yellow,1,1,0.471,1,0.0,+10,1
0ubclurpshlgyru3cwo3stun,1,76,Lose,19,No-Go,NGAL,rune_02_haglaz,blue,0,0,,1,0.0,-1,0
0ubclurpshlgyru3cwo3stun,1,77,Lose,20,Go,GAL,rune_02_raido,blue,1,1,0.483,1,0.0,-1,1
0ubclurpshlgyru3cwo3stun,1,78,Win,20,No-Go,NGW,rune_02_os,yellow,0,0,,1,0.0,+10,0
0ubclurpshlgyru3cwo3stun,1,79,Lose,20,No-Go,NGAL,rune_02_haglaz,blue,0,0,,1,0.0,-1,0
0ubclurpshlgyru3cwo3stun,1,80,Win,20,Go,GW,rune_02_cen,yellow,1,1,0.49,1,0.0,+10,1
0ubclurpshlgyru3cwo3stun,1,81,Lose,21,Go,GAL,rune_02_raido,blue,1,1,0.724,1,0.0,-1,1
0ubclurpshlgyru3cwo3stun,1,82,Lose,21,No-Go,NGAL,rune_02_haglaz,blue,0,0,,1,0.0,-1,0
0ubclurpshlgyru3cwo3stun,1,83,Win,21,Go,GW,rune_02_cen,yellow,1,1,0.399,1,0.0,+10,1
0ubclurpshlgyru3cwo3stun,1,84,Win,21,No-Go,NGW,rune_02_os,yellow,0,0,,1,0.0,+10,0
0ubclurpshlgyru3cwo3stun,1,85,Lose,22,No-Go,NGAL,rune_02_haglaz,blue,0,0,,1,0.0,-1,0
0ubclurpshlgyru3cwo3stun,1,86,Lose,22,Go,GAL,rune_02_raido,blue,1,1,0.36,1,0.0,-1,1
0ubclurpshlgyru3cwo3stun,1,87,Win,22,No-Go,NGW,rune_02_os,yellow,0,0,,1,0.0,+10,0
0ubclurpshlgyru3cwo3stun,1,88,Win,22,Go,GW,rune_02_cen,yellow,1,1,0.327,1,0.0,+10,1
0ubclurpshlgyru3cwo3stun,1,89,Win,23,No-Go,NGW,rune_02_os,yellow,0,0,,1,0.0,+10,0
0ubclurpshlgyru3cwo3stun,1,90,Lose,23,No-Go,NGAL,rune_02_haglaz,blue,0,0,,1,0.0,-1,0
0ubclurpshlgyru3cwo3stun,1,91,Win,23,Go,GW,rune_02_cen,yellow,1,1,0.484,1,0.0,+10,1
0ubclurpshlgyru3cwo3stun,1,92,Lose,23,Go,GAL,rune_02_raido,blue,1,1,0.496,1,0.0,-1,1
0ubclurpshlgyru3cwo3stun,1,93,Lose,24,No-Go,NGAL,rune_02_haglaz,blue,0,0,,1,0.0,-1,0
0ubclurpshlgyru3cwo3stun,1,94,Win,24,Go,GW,rune_02_cen,yellow,1,1,0.455,1,1.0,+1,1
0ubclurpshlgyru3cwo3stun,1,95,Win,24,No-Go,NGW,rune_02_os,yellow,0,0,,1,0.0,+10,0
0ubclurpshlgyru3cwo3stun,1,96,Lose,24,Go,GAL,rune_02_raido,blue,1,1,0.471,1,0.0,-1,1
0ubclurpshlgyru3cwo3stun,1,97,Win,25,Go,GW,rune_02_cen,yellow,1,1,1.113,1,0.0,+10,1
0ubclurpshlgyru3cwo3stun,1,98,Win,25,No-Go,NGW,rune_02_os,yellow,0,0,,1,1.0,+1,0
0ubclurpshlgyru3cwo3stun,1,99,Lose,25,Go,GAL,rune_02_raido,blue,1,1,0.423,1,1.0,-10,1
0ubclurpshlgyru3cwo3stun,1,100,Lose,25,No-Go,NGAL,rune_02_haglaz,blue,0,0,,1,1.0,-10,0
0ubclurpshlgyru3cwo3stun,1,101,Lose,26,Go,GAL,rune_02_raido,blue,1,1,0.506,1,1.0,-10,1
0ubclurpshlgyru3cwo3stun,1,102,Lose,26,No-Go,NGAL,rune_02_haglaz,blue,0,0,,1,1.0,-10,0
0ubclurpshlgyru3cwo3stun,1,103,Win,26,Go,GW,rune_02_cen,yellow,1,1,0.56,1,1.0,+1,1
0ubclurpshlgyru3cwo3stun,1,104,Win,26,No-Go,NGW,rune_02_os,yellow,0,1,0.36,0,0.0,+1,1
0ubclurpshlgyru3cwo3stun,1,105,Lose,27,Go,GAL,rune_02_raido,blue,1,1,0.352,1,0.0,-1,1
0ubclurpshlgyru3cwo3stun,1,106,Lose,27,No-Go,NGAL,rune_02_haglaz,blue,0,0,,1,0.0,-1,0
0ubclurpshlgyru3cwo3stun,1,107,Win,27,No-Go,NGW,rune_02_os,yellow,0,1,0.701,0,0.0,+1,1
0ubclurpshlgyru3cwo3stun,1,108,Win,27,Go,GW,rune_02_cen,yellow,1,1,0.337,1,0.0,+10,1
0ubclurpshlgyru3cwo3stun,1,109,Win,28,Go,GW,rune_02_cen,yellow,1,1,0.425,1,0.0,+10,1
0ubclurpshlgyru3cwo3stun,1,110,Win,28,No-Go,NGW,rune_02_os,yellow,0,0,,1,0.0,+10,0
0ubclurpshlgyru3cwo3stun,1,111,Lose,28,Go,GAL,rune_02_raido,blue,1,1,0.445,1,0.0,-1,1
0ubclurpshlgyru3cwo3stun,1,112,Lose,28,No-Go,NGAL,rune_02_haglaz,blue,0,0,,1,0.0,-1,0
0ubclurpshlgyru3cwo3stun,1,113,Lose,29,Go,GAL,rune_02_raido,blue,1,1,0.536,1,0.0,-1,1
0ubclurpshlgyru3cwo3stun,1,114,Win,29,Go,GW,rune_02_cen,yellow,1,1,0.392,1,0.0,+10,1
0ubclurpshlgyru3cwo3stun,1,115,Win,29,No-Go,NGW,rune_02_os,yellow,0,0,,1,1.0,+1,0
0ubclurpshlgyru3cwo3stun,1,116,Lose,29,No-Go,NGAL,rune_02_haglaz,blue,0,0,,1,0.0,-1,0
0ubclurpshlgyru3cwo3stun,1,117,Lose,30,Go,GAL,rune_02_raido,blue,1,1,0.521,1,0.0,-1,1
0ubclurpshlgyru3cwo3stun,1,118,Win,30,Go,GW,rune_02_cen,yellow,1,1,0.374,1,0.0,+10,1
0ubclurpshlgyru3cwo3stun,1,119,Lose,30,No-Go,NGAL,rune_02_haglaz,blue,0,0,,1,0.0,-1,0
0ubclurpshlgyru3cwo3stun,1,120,Win,30,No-Go,NGW,rune_02_os,yellow,0,0,,1,0.0,+10,0
0ubclurpshlgyru3cwo3stun,2,121,Lose,31,No-Go,NGAL,rune_01_ingwaz,blue,0,1,0.496,0,0.0,-10,1
0ubclurpshlgyru3cwo3stun,2,122,Lose,31,Go,GAL,rune_01_ear,blue,1,1,0.476,1,0.0,-1,1
0ubclurpshlgyru3cwo3stun,2,123,Win,31,No-Go,NGW,rune_01_yr,yellow,0,1,0.587,0,0.0,+1,1
0ubclurpshlgyru3cwo3stun,2,124,Win,31,Go,GW,rune_01_ger,yellow,1,1,0.698,1,0.0,+10,1
0ubclurpshlgyru3cwo3stun,2,125,Lose,32,No-Go,NGAL,rune_01_ingwaz,blue,0,0,,1,1.0,-10,0
0ubclurpshlgyru3cwo3stun,2,126,Win,32,No-Go,NGW,rune_01_yr,yellow,0,0,,1,0.0,+10,0
0ubclurpshlgyru3cwo3stun,2,127,Win,32,Go,GW,rune_01_ger,yellow,1,1,0.823,1,0.0,+10,1
0ubclurpshlgyru3cwo3stun,2,128,Lose,32,Go,GAL,rune_01_ear,blue,1,0,,0,0.0,-10,0
0ubclurpshlgyru3cwo3stun,2,129,Win,33,No-Go,NGW,rune_01_yr,yellow,0,0,,1,0.0,+10,0
0ubclurpshlgyru3cwo3stun,2,130,Lose,33,No-Go,NGAL,rune_01_ingwaz,blue,0,1,0.731,0,0.0,-10,1
0ubclurpshlgyru3cwo3stun,2,131,Lose,33,Go,GAL,rune_01_ear,blue,1,1,1.252,1,1.0,-10,1
0ubclurpshlgyru3cwo3stun,2,132,Win,33,Go,GW,rune_01_ger,yellow,1,1,0.394,1,0.0,+10,1
0ubclurpshlgyru3cwo3stun,2,133,Lose,34,Go,GAL,rune_01_ear,blue,1,1,0.591,1,0.0,-1,1
0ubclurpshlgyru3cwo3stun,2,134,Win,34,No-Go,NGW,rune_01_yr,yellow,0,0,,1,0.0,+10,0
0ubclurpshlgyru3cwo3stun,2,135,Win,34,Go,GW,rune_01_ger,yellow,1,1,0.536,1,1.0,+1,1
0ubclurpshlgyru3cwo3stun,2,136,Lose,34,No-Go,NGAL,rune_01_ingwaz,blue,0,0,,1,0.0,-1,0
0ubclurpshlgyru3cwo3stun,2,137,Lose,35,Go,GAL,rune_01_ear,blue,1,1,1.232,1,0.0,-1,1
0ubclurpshlgyru3cwo3stun,2,138,Win,35,No-Go,NGW,rune_01_yr,yellow,0,0,,1,1.0,+1,0
0ubclurpshlgyru3cwo3stun,2,139,Lose,35,No-Go,NGAL,rune_01_ingwaz,blue,0,0,,1,0.0,-1,0
0ubclurpshlgyru3cwo3stun,2,140,Win,35,Go,GW,rune_01_ger,yellow,1,1,0.496,1,0.0,+10,1
0ubclurpshlgyru3cwo3stun,2,141,Win,36,No-Go,NGW,rune_01_yr,yellow,0,0,,1,0.0,+10,0
0ubclurpshlgyru3cwo3stun,2,142,Lose,36,No-Go,NGAL,rune_01_ingwaz,blue,0,0,,1,0.0,-1,0
0ubclurpshlgyru3cwo3stun,2,143,Lose,36,Go,GAL,rune_01_ear,blue,1,1,0.437,1,0.0,-1,1
0ubclurpshlgyru3cwo3stun,2,144,Win,36,Go,GW,rune_01_ger,yellow,1,1,0.466,1,0.0,+10,1
0ubclurpshlgyru3cwo3stun,2,145,Win,37,No-Go,NGW,rune_01_yr,yellow,0,0,,1,0.0,+10,0
0ubclurpshlgyru3cwo3stun,2,146,Lose,37,Go,GAL,rune_01_ear,blue,1,1,0.832,1,0.0,-1,1
0ubclurpshlgyru3cwo3stun,2,147,Lose,37,No-Go,NGAL,rune_01_ingwaz,blue,0,0,,1,1.0,-10,0
0ubclurpshlgyru3cwo3stun,2,148,Win,37,Go,GW,rune_01_ger,yellow,1,1,0.426,1,0.0,+10,1
0ubclurpshlgyru3cwo3stun,2,149,Lose,38,Go,GAL,rune_01_ear,blue,1,1,0.682,1,1.0,-10,1
0ubclurpshlgyru3cwo3stun,2,150,Win,38,Go,GW,rune_01_ger,yellow,1,1,0.576,1,0.0,+10,1
0ubclurpshlgyru3cwo3stun,2,151,Lose,38,No-Go,NGAL,rune_01_ingwaz,blue,0,0,,1,0.0,-1,0
0ubclurpshlgyru3cwo3stun,2,152,Win,38,No-Go,NGW,rune_01_yr,yellow,0,0,,1,0.0,+10,0
0ubclurpshlgyru3cwo3stun,2,153,Win,39,Go,GW,rune_01_ger,yellow,1,1,0.383,1,0.0,+10,1
0ubclurpshlgyru3cwo3stun,2,154,Lose,39,No-Go,NGAL,rune_01_ingwaz,blue,0,0,,1,0.0,-1,0
0ubclurpshlgyru3cwo3stun,2,155,Lose,39,Go,GAL,rune_01_ear,blue,1,1,0.424,1,0.0,-1,1
0ubclurpshlgyru3cwo3stun,2,156,Win,39,No-Go,NGW,rune_01_yr,yellow,0,0,,1,1.0,+1,0
0ubclurpshlgyru3cwo3stun,2,157,Lose,40,No-Go,NGAL,rune_01_ingwaz,blue,0,0,,1,0.0,-1,0
0ubclurpshlgyru3cwo3stun,2,158,Win,40,No-Go,NGW,rune_01_yr,yellow,0,0,,1,0.0,+10,0
0ubclurpshlgyru3cwo3stun,2,159,Win,40,Go,GW,rune_01_ger,yellow,1,1,0.366,1,1.0,+1,1
0ubclurpshlgyru3cwo3stun,2,160,Lose,40,Go,GAL,rune_01_ear,blue,1,1,0.512,1,0.0,-1,1
0ubclurpshlgyru3cwo3stun,2,161,Win,41,No-Go,NGW,rune_01_yr,yellow,0,0,,1,0.0,+10,0
0ubclurpshlgyru3cwo3stun,2,162,Lose,41,No-Go,NGAL,rune_01_ingwaz,blue,0,0,,1,0.0,-1,0
0ubclurpshlgyru3cwo3stun,2,163,Lose,41,Go,GAL,rune_01_ear,blue,1,1,0.462,1,0.0,-1,1
0ubclurpshlgyru3cwo3stun,2,164,Win,41,Go,GW,rune_01_ger,yellow,1,1,0.335,1,0.0,+10,1
0ubclurpshlgyru3cwo3stun,2,165,Win,42,No-Go,NGW,rune_01_yr,yellow,0,0,,1,1.0,+1,0
0ubclurpshlgyru3cwo3stun,2,166,Lose,42,Go,GAL,rune_01_ear,blue,1,1,0.37,1,0.0,-1,1
0ubclurpshlgyru3cwo3stun,2,167,Win,42,Go,GW,rune_01_ger,yellow,1,1,0.426,1,0.0,+10,1
0ubclurpshlgyru3cwo3stun,2,168,Lose,42,No-Go,NGAL,rune_01_ingwaz,blue,0,0,,1,0.0,-1,0
0ubclurpshlgyru3cwo3stun,2,169,Lose,43,No-Go,NGAL,rune_01_ingwaz,blue,0,0,,1,1.0,-10,0
0ubclurpshlgyru3cwo3stun,2,170,Lose,43,Go,GAL,rune_01_ear,blue,1,1,0.491,1,0.0,-1,1
0ubclurpshlgyru3cwo3stun,2,171,Win,43,No-Go,NGW,rune_01_yr,yellow,0,0,,1,0.0,+10,0
0ubclurpshlgyru3cwo3stun,2,172,Win,43,Go,GW,rune_01_ger,yellow,1,1,0.326,1,0.0,+10,1
0ubclurpshlgyru3cwo3stun,2,173,Win,44,Go,GW,rune_01_ger,yellow,1,1,0.504,1,0.0,+10,1
0ubclurpshlgyru3cwo3stun,2,174,Lose,44,No-Go,NGAL,rune_01_ingwaz,blue,0,0,,1,0.0,-1,0
0ubclurpshlgyru3cwo3stun,2,175,Lose,44,Go,GAL,rune_01_ear,blue,1,1,0.451,1,1.0,-10,1
0ubclurpshlgyru3cwo3stun,2,176,Win,44,No-Go,NGW,rune_01_yr,yellow,0,0,,1,0.0,+10,0
0ubclurpshlgyru3cwo3stun,2,177,Lose,45,No-Go,NGAL,rune_01_ingwaz,blue,0,0,,1,0.0,-1,0
0ubclurpshlgyru3cwo3stun,2,178,Lose,45,Go,GAL,rune_01_ear,blue,1,1,0.366,1,0.0,-1,1
0ubclurpshlgyru3cwo3stun,2,179,Win,45,No-Go,NGW,rune_01_yr,yellow,0,0,,1,0.0,+10,0
0ubclurpshlgyru3cwo3stun,2,180,Win,45,Go,GW,rune_01_ger,yellow,1,1,0.327,1,1.0,+1,1
0ubclurpshlgyru3cwo3stun,2,181,Win,46,No-Go,NGW,rune_01_yr,yellow,0,0,,1,0.0,+10,0
0ubclurpshlgyru3cwo3stun,2,182,Lose,46,No-Go,NGAL,rune_01_ingwaz,blue,0,0,,1,0.0,-1,0
0ubclurpshlgyru3cwo3stun,2,183,Lose,46,Go,GAL,rune_01_ear,blue,1,1,0.337,1,0.0,-1,1
0ubclurpshlgyru3cwo3stun,2,184,Win,46,Go,GW,rune_01_ger,yellow,1,1,0.311,1,0.0,+10,1
0ubclurpshlgyru3cwo3stun,2,185,Win,47,Go,GW,rune_01_ger,yellow,1,1,0.394,1,1.0,+1,1
0ubclurpshlgyru3cwo3stun,2,186,Lose,47,Go,GAL,rune_01_ear,blue,1,1,0.462,1,0.0,-1,1
0ubclurpshlgyru3cwo3stun,2,187,Lose,47,No-Go,NGAL,rune_01_ingwaz,blue,0,0,,1,0.0,-1,0
0ubclurpshlgyru3cwo3stun,2,188,Win,47,No-Go,NGW,rune_01_yr,yellow,0,0,,1,0.0,+10,0
0ubclurpshlgyru3cwo3stun,2,189,Lose,48,No-Go,NGAL,rune_01_ingwaz,blue,0,0,,1,1.0,-10,0
0ubclurpshlgyru3cwo3stun,2,190,Win,48,No-Go,NGW,rune_01_yr,yellow,0,0,,1,1.0,+1,0
0ubclurpshlgyru3cwo3stun,2,191,Lose,48,Go,GAL,rune_01_ear,blue,1,1,0.511,1,0.0,-1,1
0ubclurpshlgyru3cwo3stun,2,192,Win,48,Go,GW,rune_01_ger,yellow,1,1,0.369,1,0.0,+10,1
0ubclurpshlgyru3cwo3stun,2,193,Lose,49,Go,GAL,rune_01_ear,blue,1,1,0.431,1,1.0,-10,1
0ubclurpshlgyru3cwo3stun,2,194,Lose,49,No-Go,NGAL,rune_01_ingwaz,blue,0,0,,1,0.0,-1,0
0ubclurpshlgyru3cwo3stun,2,195,Win,49,Go,GW,rune_01_ger,yellow,1,1,0.319,1,0.0,+10,1
0ubclurpshlgyru3cwo3stun,2,196,Win,49,No-Go,NGW,rune_01_yr,yellow,0,0,,1,0.0,+10,0
0ubclurpshlgyru3cwo3stun,2,197,Win,50,Go,GW,rune_01_ger,yellow,1,1,0.415,1,0.0,+10,1
0ubclurpshlgyru3cwo3stun,2,198,Lose,50,Go,GAL,rune_01_ear,blue,1,1,0.45,1,0.0,-1,1
0ubclurpshlgyru3cwo3stun,2,199,Lose,50,No-Go,NGAL,rune_01_ingwaz,blue,0,0,,1,0.0,-1,0
0ubclurpshlgyru3cwo3stun,2,200,Win,50,No-Go,NGW,rune_01_yr,yellow,0,0,,1,0.0,+10,0
0ubclurpshlgyru3cwo3stun,2,201,Lose,51,Go,GAL,rune_01_ear,blue,1,1,0.497,1,0.0,-1,1
0ubclurpshlgyru3cwo3stun,2,202,Win,51,No-Go,NGW,rune_01_yr,yellow,0,0,,1,0.0,+10,0
0ubclurpshlgyru3cwo3stun,2,203,Lose,51,No-Go,NGAL,rune_01_ingwaz,blue,0,0,,1,0.0,-1,0
0ubclurpshlgyru3cwo3stun,2,204,Win,51,Go,GW,rune_01_ger,yellow,1,1,0.325,1,0.0,+10,1
0ubclurpshlgyru3cwo3stun,2,205,Win,52,No-Go,NGW,rune_01_yr,yellow,0,0,,1,0.0,+10,0
0ubclurpshlgyru3cwo3stun,2,206,Win,52,Go,GW,rune_01_ger,yellow,1,1,0.429,1,0.0,+10,1
0ubclurpshlgyru3cwo3stun,2,207,Lose,52,No-Go,NGAL,rune_01_ingwaz,blue,0,0,,1,0.0,-1,0
0ubclurpshlgyru3cwo3stun,2,208,Lose,52,Go,GAL,rune_01_ear,blue,1,1,0.594,1,0.0,-1,1
0ubclurpshlgyru3cwo3stun,2,209,Win,53,No-Go,NGW,rune_01_yr,yellow,0,0,,1,0.0,+10,0
0ubclurpshlgyru3cwo3stun,2,210,Win,53,Go,GW,rune_01_ger,yellow,1,1,0.301,1,0.0,+10,1
0ubclurpshlgyru3cwo3stun,2,211,Lose,53,Go,GAL,rune_01_ear,blue,1,1,0.394,1,0.0,-1,1
0ubclurpshlgyru3cwo3stun,2,212,Lose,53,No-Go,NGAL,rune_01_ingwaz,blue,0,0,,1,0.0,-1,0
0ubclurpshlgyru3cwo3stun,2,213,Win,54,Go,GW,rune_01_ger,yellow,1,1,0.329,1,1.0,+1,1
0ubclurpshlgyru3cwo3stun,2,214,Lose,54,No-Go,NGAL,rune_01_ingwaz,blue,0,0,,1,0.0,-1,0
0ubclurpshlgyru3cwo3stun,2,215,Lose,54,Go,GAL,rune_01_ear,blue,1,1,0.414,1,0.0,-1,1
0ubclurpshlgyru3cwo3stun,2,216,Win,54,No-Go,NGW,rune_01_yr,yellow,0,0,,1,0.0,+10,0
0ubclurpshlgyru3cwo3stun,2,217,Lose,55,No-Go,NGAL,rune_01_ingwaz,blue,0,0,,1,1.0,-10,0
0ubclurpshlgyru3cwo3stun,2,218,Win,55,Go,GW,rune_01_ger,yellow,1,1,0.508,1,0.0,+10,1
0ubclurpshlgyru3cwo3stun,2,219,Lose,55,Go,GAL,rune_01_ear,blue,1,1,0.458,1,1.0,-10,1
0ubclurpshlgyru3cwo3stun,2,220,Win,55,No-Go,NGW,rune_01_yr,yellow,0,0,,1,1.0,+1,0
0ubclurpshlgyru3cwo3stun,2,221,Lose,56,Go,GAL,rune_01_ear,blue,1,1,0.497,1,1.0,-10,1
0ubclurpshlgyru3cwo3stun,2,222,Lose,56,No-Go,NGAL,rune_01_ingwaz,blue,0,0,,1,1.0,-10,0
0ubclurpshlgyru3cwo3stun,2,223,Win,56,Go,GW,rune_01_ger,yellow,1,1,0.38,1,1.0,+1,1
0ubclurpshlgyru3cwo3stun,2,224,Win,56,No-Go,NGW,rune_01_yr,yellow,0,0,,1,0.0,+10,0
0ubclurpshlgyru3cwo3stun,2,225,Lose,57,Go,GAL,rune_01_ear,blue,1,1,0.476,1,0.0,-1,1
0ubclurpshlgyru3cwo3stun,2,226,Lose,57,No-Go,NGAL,rune_01_ingwaz,blue,0,0,,1,0.0,-1,0
0ubclurpshlgyru3cwo3stun,2,227,Win,57,No-Go,NGW,rune_01_yr,yellow,0,0,,1,0.0,+10,0
0ubclurpshlgyru3cwo3stun,2,228,Win,57,Go,GW,rune_01_ger,yellow,1,1,0.285,1,0.0,+10,1
0ubclurpshlgyru3cwo3stun,2,229,Lose,58,No-Go,NGAL,rune_01_ingwaz,blue,0,0,,1,0.0,-1,0
0ubclurpshlgyru3cwo3stun,2,230,Win,58,No-Go,NGW,rune_01_yr,yellow,0,0,,1,0.0,+10,0
0ubclurpshlgyru3cwo3stun,2,231,Win,58,Go,GW,rune_01_ger,yellow,1,1,0.3,1,0.0,+10,1
0ubclurpshlgyru3cwo3stun,2,232,Lose,58,Go,GAL,rune_01_ear,blue,1,1,0.438,1,0.0,-1,1
0ubclurpshlgyru3cwo3stun,2,233,Lose,59,No-Go,NGAL,rune_01_ingwaz,blue,0,0,,1,0.0,-1,0
0ubclurpshlgyru3cwo3stun,2,234,Win,59,Go,GW,rune_01_ger,yellow,1,1,0.31,1,0.0,+10,1
0ubclurpshlgyru3cwo3stun,2,235,Win,59,No-Go,NGW,rune_01_yr,yellow,0,0,,1,1.0,+1,0
0ubclurpshlgyru3cwo3stun,2,236,Lose,59,Go,GAL,rune_01_ear,blue,1,1,0.455,1,0.0,-1,1
0ubclurpshlgyru3cwo3stun,2,237,Win,60,No-Go,NGW,rune_01_yr,yellow,0,0,,1,0.0,+10,0
0ubclurpshlgyru3cwo3stun,2,238,Win,60,Go,GW,rune_01_ger,yellow,1,1,0.264,1,0.0,+10,1
0ubclurpshlgyru3cwo3stun,2,239,Lose,60,No-Go,NGAL,rune_01_ingwaz,blue,0,0,,1,0.0,-1,0
0ubclurpshlgyru3cwo3stun,2,240,Lose,60,Go,GAL,rune_01_ear,blue,1,1,0.456,1,0.0,-1,1
11tg5yxy1g1hl5rwr7qap82j,1,1,Lose,1,No-Go,NGAL,rune_01_ingwaz,blue,0,1,0.339,0,1.0,-1,1
11tg5yxy1g1hl5rwr7qap82j,1,2,Win,1,Go,GW,rune_01_ear,yellow,1,1,0.018,1,0.0,+10,4
11tg5yxy1g1hl5rwr7qap82j,1,3,Win,1,No-Go,NGW,rune_01_ger,yellow,0,1,0.249,0,1.0,+10,3
11tg5yxy1g1hl5rwr7qap82j,1,4,Lose,1,Go,GAL,rune_01_yr,blue,1,1,0.155,1,0.0,-1,3
11tg5yxy1g1hl5rwr7qap82j,1,5,Win,2,Go,GW,rune_01_ear,yellow,1,1,0.134,1,0.0,+10,4
11tg5yxy1g1hl5rwr7qap82j,1,6,Lose,2,No-Go,NGAL,rune_01_ingwaz,blue,0,1,0.026,0,0.0,-10,7
11tg5yxy1g1hl5rwr7qap82j,1,7,Lose,2,Go,GAL,rune_01_yr,blue,1,1,0.285,1,0.0,-1,2
11tg5yxy1g1hl5rwr7qap82j,1,8,Win,2,No-Go,NGW,rune_01_ger,yellow,0,1,0.858,0,0.0,+1,2
11tg5yxy1g1hl5rwr7qap82j,1,9,Win,3,Go,GW,rune_01_ear,yellow,1,1,0.045,1,0.0,+10,8
11tg5yxy1g1hl5rwr7qap82j,1,10,Lose,3,No-Go,NGAL,rune_01_ingwaz,blue,0,1,0.047,0,0.0,-10,6
11tg5yxy1g1hl5rwr7qap82j,1,11,Win,3,No-Go,NGW,rune_01_ger,yellow,0,1,0.2,0,0.0,+1,1
11tg5yxy1g1hl5rwr7qap82j,1,12,Lose,3,Go,GAL,rune_01_yr,blue,1,1,0.495,1,0.0,-1,1
11tg5yxy1g1hl5rwr7qap82j,1,13,Lose,4,No-Go,NGAL,rune_01_ingwaz,blue,0,1,0.498,0,0.0,-10,1
11tg5yxy1g1hl5rwr7qap82j,1,14,Lose,4,Go,GAL,rune_01_yr,blue,1,0,,0,1.0,-1,0
11tg5yxy1g1hl5rwr7qap82j,1,15,Win,4,No-Go,NGW,rune_01_ger,yellow,0,1,0.56,0,0.0,+1,2
11tg5yxy1g1hl5rwr7qap82j,1,16,Win,4,Go,GW,rune_01_ear,yellow,1,1,0.7,1,1.0,+1,1
11tg5yxy1g1hl5rwr7qap82j,1,17,Win,5,Go,GW,rune_01_ear,yellow,1,1,0.47,1,0.0,+10,1
11tg5yxy1g1hl5rwr7qap82j,1,18,Win,5,No-Go,NGW,rune_01_ger,yellow,0,1,0.41,0,0.0,+1,1
11tg5yxy1g1hl5rwr7qap82j,1,19,Lose,5,No-Go,NGAL,rune_01_ingwaz,blue,0,1,0.655,0,0.0,-10,1
11tg5yxy1g1hl5rwr7qap82j,1,20,Lose,5,Go,GAL,rune_01_yr,blue,1,0,,0,0.0,-10,0
11tg5yxy1g1hl5rwr7qap82j,1,21,Win,6,No-Go,NGW,rune_01_ger,yellow,0,1,1.021,0,0.0,+1,1
11tg5yxy1g1hl5rwr7qap82j,1,22,Win,6,Go,GW,rune_01_ear,yellow,1,1,0.597,1,0.0,+10,3
11tg5yxy1g1hl5rwr7qap82j,1,23,Lose,6,No-Go,NGAL,rune_01_ingwaz,blue,0,0,,1,1.0,-10,0
11tg5yxy1g1hl5rwr7qap82j,1,24,Lose,6,Go,GAL,rune_01_yr,blue,1,1,0.039,1,0.0,-1,8
11tg5yxy1g1hl5rwr7qap82j,1,25,Lose,7,No-Go,NGAL,rune_01_ingwaz,blue,0,1,0.049,0,0.0,-10,10
11tg5yxy1g1hl5rwr7qap82j,1,26,Lose,7,Go,GAL,rune_01_yr,blue,1,1,0.008,1,0.0,-1,4
11tg5yxy1g1hl5rwr7qap82j,1,27,Win,7,Go,GW,rune_01_ear,yellow,1,1,0.534,1,0.0,+10,1
11tg5yxy1g1hl5rwr7qap82j,1,28,Win,7,No-Go,NGW,rune_01_ger,yellow,0,1,0.706,0,1.0,+10,1
11tg5yxy1g1hl5rwr7qap82j,1,29,Lose,8,No-Go,NGAL,rune_01_ingwaz,blue,0,1,1.173,0,0.0,-10,1
11tg5yxy1g1hl5rwr7qap82j,1,30,Lose,8,Go,GAL,rune_01_yr,blue,1,1,0.693,1,1.0,-10,4
11tg5yxy1g1hl5rwr7qap82j,1,31,Win,8,Go,GW,rune_01_ear,yellow,1,0,,0,0.0,+1,2
11tg5yxy1g1hl5rwr7qap82j,1,32,Win,8,No-Go,NGW,rune_01_ger,yellow,0,1,0.279,0,0.0,+1,10
11tg5yxy1g1hl5rwr7qap82j,1,33,Lose,9,No-Go,NGAL,rune_01_ingwaz,blue,0,1,0.229,0,0.0,-10,6
11tg5yxy1g1hl5rwr7qap82j,1,34,Win,9,No-Go,NGW,rune_01_ger,yellow,0,1,0.398,0,0.0,+1,8
11tg5yxy1g1hl5rwr7qap82j,1,35,Lose,9,Go,GAL,rune_01_yr,blue,1,1,0.023,1,0.0,-1,5
11tg5yxy1g1hl5rwr7qap82j,1,36,Win,9,Go,GW,rune_01_ear,yellow,1,1,0.17,1,1.0,+1,8
11tg5yxy1g1hl5rwr7qap82j,1,37,Lose,10,Go,GAL,rune_01_yr,blue,1,0,,0,0.0,-10,2
11tg5yxy1g1hl5rwr7qap82j,1,38,Win,10,Go,GW,rune_01_ear,yellow,1,1,0.554,1,0.0,+10,1
11tg5yxy1g1hl5rwr7qap82j,1,39,Win,10,No-Go,NGW,rune_01_ger,yellow,0,1,0.883,0,0.0,+1,1
11tg5yxy1g1hl5rwr7qap82j,1,40,Lose,10,No-Go,NGAL,rune_01_ingwaz,blue,0,0,,1,0.0,-1,0
11tg5yxy1g1hl5rwr7qap82j,1,41,Lose,11,Go,GAL,rune_01_yr,blue,1,0,,0,1.0,-1,0
11tg5yxy1g1hl5rwr7qap82j,1,42,Lose,11,No-Go,NGAL,rune_01_ingwaz,blue,0,0,,1,0.0,-1,0
11tg5yxy1g1hl5rwr7qap82j,1,43,Win,11,Go,GW,rune_01_ear,yellow,1,1,0.418,1,0.0,+10,1
11tg5yxy1g1hl5rwr7qap82j,1,44,Win,11,No-Go,NGW,rune_01_ger,yellow,0,1,0.437,0,0.0,+1,1
11tg5yxy1g1hl5rwr7qap82j,1,45,Win,12,Go,GW,rune_01_ear,yellow,1,1,0.473,1,1.0,+1,1
11tg5yxy1g1hl5rwr7qap82j,1,46,Lose,12,No-Go,NGAL,rune_01_ingwaz,blue,0,0,,1,1.0,-10,0
11tg5yxy1g1hl5rwr7qap82j,1,47,Lose,12,Go,GAL,rune_01_yr,blue,1,0,,0,0.0,-10,0
11tg5yxy1g1hl5rwr7qap82j,1,48,Win,12,No-Go,NGW,rune_01_ger,yellow,0,1,0.729,0,0.0,+1,1
11tg5yxy1g1hl5rwr7qap82j,1,49,Win,13,No-Go,NGW,rune_01_ger,yellow,0,1,0.572,0,0.0,+1,1
11tg5yxy1g1hl5rwr7qap82j,1,50,Lose,13,No-Go,NGAL,rune_01_ingwaz,blue,0,1,0.801,0,0.0,-10,1
11tg5yxy1g1hl5rwr7qap82j,1,51,Win,13,Go,GW,rune_01_ear,yellow,1,1,0.276,1,0.0,+10,5
11tg5yxy1g1hl5rwr7qap82j,1,52,Lose,13,Go,GAL,rune_01_yr,blue,1,0,,0,0.0,-10,2
11tg5yxy1g1hl5rwr7qap82j,1,53,Lose,14,No-Go,NGAL,rune_01_ingwaz,blue,0,0,,1,0.0,-1,2
11tg5yxy1g1hl5rwr7qap82j,1,54,Win,14,Go,GW,rune_01_ear,yellow,1,1,0.1,1,0.0,+10,5
11tg5yxy1g1hl5rwr7qap82j,1,55,Lose,14,Go,GAL,rune_01_yr,blue,1,1,0.28,1,0.0,-1,7
11tg5yxy1g1hl5rwr7qap82j,1,56,Win,14,No-Go,NGW,rune_01_ger,yellow,0,1,0.199,0,0.0,+1,7
11tg5yxy1g1hl5rwr7qap82j,1,57,Win,15,No-Go,NGW,rune_01_ger,yellow,0,1,0.157,0,1.0,+10,5
11tg5yxy1g1hl5rwr7qap82j,1,58,Win,15,Go,GW,rune_01_ear,yellow,1,1,0.401,1,0.0,+10,5
11tg5yxy1g1hl5rwr7qap82j,1,59,Lose,15,Go,GAL,rune_01_yr,blue,1,1,0.303,1,0.0,-1,6
11tg5yxy1g1hl5rwr7qap82j,1,60,Lose,15,No-Go,NGAL,rune_01_ingwaz,blue,0,1,0.384,0,0.0,-10,5
11tg5yxy1g1hl5rwr7qap82j,1,61,Lose,16,Go,GAL,rune_01_yr,blue,1,1,0.142,1,0.0,-1,1
11tg5yxy1g1hl5rwr7qap82j,1,62,Win,16,No-Go,NGW,rune_01_ger,yellow,0,1,0.448,0,1.0,+10,5
11tg5yxy1g1hl5rwr7qap82j,1,63,Win,16,Go,GW,rune_01_ear,yellow,1,1,0.395,1,0.0,+10,5
11tg5yxy1g1hl5rwr7qap82j,1,64,Lose,16,No-Go,NGAL,rune_01_ingwaz,blue,0,1,0.019,0,0.0,-10,4
11tg5yxy1g1hl5rwr7qap82j,1,65,Lose,17,No-Go,NGAL,rune_01_ingwaz,blue,0,1,0.578,0,0.0,-10,4
11tg5yxy1g1hl5rwr7qap82j,1,66,Lose,17,Go,GAL,rune_01_yr,blue,1,1,0.176,1,1.0,-10,4
11tg5yxy1g1hl5rwr7qap82j,1,67,Win,17,Go,GW,rune_01_ear,yellow,1,1,0.204,1,0.0,+10,5
11tg5yxy1g1hl5rwr7qap82j,1,68,Win,17,No-Go,NGW,rune_01_ger,yellow,0,1,0.383,0,0.0,+1,5
11tg5yxy1g1hl5rwr7qap82j,1,69,Lose,18,No-Go,NGAL,rune_01_ingwaz,blue,0,1,0.343,0,0.0,-10,5
11tg5yxy1g1hl5rwr7qap82j,1,70,Win,18,Go,GW,rune_01_ear,yellow,1,1,0.405,1,1.0,+1,5
11tg5yxy1g1hl5rwr7qap82j,1,71,Win,18,No-Go,NGW,rune_01_ger,yellow,0,1,0.479,0,0.0,+1,5
11tg5yxy1g1hl5rwr7qap82j,1,72,Lose,18,Go,GAL,rune_01_yr,blue,1,1,0.418,1,0.0,-1,5
11tg5yxy1g1hl5rwr7qap82j,1,73,Win,19,No-Go,NGW,rune_01_ger,yellow,0,1,0.093,0,0.0,+1,4
11tg5yxy1g1hl5rwr7qap82j,1,74,Lose,19,No-Go,NGAL,rune_01_ingwaz,blue,0,1,0.305,0,0.0,-10,5
11tg5yxy1g1hl5rwr7qap82j,1,75,Lose,19,Go,GAL,rune_01_yr,blue,1,1,0.264,1,0.0,-1,5
11tg5yxy1g1hl5rwr7qap82j,1,76,Win,19,Go,GW,rune_01_ear,yellow,1,1,0.119,1,0.0,+10,4
11tg5yxy1g1hl5rwr7qap82j,1,77,Win,20,Go,GW,rune_01_ear,yellow,1,1,0.184,1,0.0,+10,5
11tg5yxy1g1hl5rwr7qap82j,1,78,Lose,20,Go,GAL,rune_01_yr,blue,1,1,0.181,1,0.0,-1,5
11tg5yxy1g1hl5rwr7qap82j,1,79,Lose,20,No-Go,NGAL,rune_01_ingwaz,blue,0,1,0.191,0,1.0,-1,5
11tg5yxy1g1hl5rwr7qap82j,1,80,Win,20,No-Go,NGW,rune_01_ger,yellow,0,1,0.191,0,0.0,+1,5
11tg5yxy1g1hl5rwr7qap82j,1,81,Lose,21,Go,GAL,rune_01_yr,blue,1,1,0.304,1,0.0,-1,6
11tg5yxy1g1hl5rwr7qap82j,1,82,Win,21,Go,GW,rune_01_ear,yellow,1,1,0.328,1,0.0,+10,5
11tg5yxy1g1hl5rwr7qap82j,1,83,Win,21,No-Go,NGW,rune_01_ger,yellow,0,1,0.262,0,0.0,+1,5
11tg5yxy1g1hl5rwr7qap82j,1,84,Lose,21,No-Go,NGAL,rune_01_ingwaz,blue,0,1,0.078,0,0.0,-10,5
11tg5yxy1g1hl5rwr7qap82j,1,85,Win,22,Go,GW,rune_01_ear,yellow,1,1,0.448,1,0.0,+10,5
11tg5yxy1g1hl5rwr7qap82j,1,86,Lose,22,No-Go,NGAL,rune_01_ingwaz,blue,0,1,0.261,0,1.0,-1,4
11tg5yxy1g1hl5rwr7qap82j,1,87,Win,22,No-Go,NGW,rune_01_ger,yellow,0,1,0.407,0,0.0,+1,5
11tg5yxy1g1hl5rwr7qap82j,1,88,Lose,22,Go,GAL,rune_01_yr,blue,1,1,0.032,1,0.0,-1,4
11tg5yxy1g1hl5rwr7qap82j,1,89,Win,23,No-Go,NGW,rune_01_ger,yellow,0,1,0.329,0,0.0,+1,5
11tg5yxy1g1hl5rwr7qap82j,1,90,Lose,23,No-Go,NGAL,rune_01_ingwaz,blue,0,1,0.206,0,0.0,-10,4
11tg5yxy1g1hl5rwr7qap82j,1,91,Lose,23,Go,GAL,rune_01_yr,blue,1,1,0.368,1,0.0,-1,7
11tg5yxy1g1hl5rwr7qap82j,1,92,Win,23,Go,GW,rune_01_ear,yellow,1,1,0.299,1,0.0,+10,6
11tg5yxy1g1hl5rwr7qap82j,1,93,Win,24,No-Go,NGW,rune_01_ger,yellow,0,1,0.613,0,1.0,+10,5
11tg5yxy1g1hl5rwr7qap82j,1,94,Lose,24,Go,GAL,rune_01_yr,blue,1,1,0.324,1,1.0,-10,7
11tg5yxy1g1hl5rwr7qap82j,1,95,Win,24,Go,GW,rune_01_ear,yellow,1,1,0.031,1,0.0,+10,8
11tg5yxy1g1hl5rwr7qap82j,1,96,Lose,24,No-Go,NGAL,rune_01_ingwaz,blue,0,1,0.234,0,0.0,-10,8
11tg5yxy1g1hl5rwr7qap82j,1,97,Win,25,Go,GW,rune_01_ear,yellow,1,1,0.228,1,1.0,+1,11
11tg5yxy1g1hl5rwr7qap82j,1,98,Lose,25,Go,GAL,rune_01_yr,blue,1,1,0.261,1,0.0,-1,10
11tg5yxy1g1hl5rwr7qap82j,1,99,Lose,25,No-Go,NGAL,rune_01_ingwaz,blue,0,1,0.159,0,0.0,-10,10
11tg5yxy1g1hl5rwr7qap82j,1,100,Win,25,No-Go,NGW,rune_01_ger,yellow,0,1,0.121,0,0.0,+1,9
11tg5yxy1g1hl5rwr7qap82j,1,101,Lose,26,Go,GAL,rune_01_yr,blue,1,1,0.316,1,0.0,-1,8
11tg5yxy1g1hl5rwr7qap82j,1,102,Win,26,Go,GW,rune_01_ear,yellow,1,1,0.207,1,1.0,+1,6
11tg5yxy1g1hl5rwr7qap82j,1,103,Lose,26,No-Go,NGAL,rune_01_ingwaz,blue,0,1,0.109,0,0.0,-10,7
11tg5yxy1g1hl5rwr7qap82j,1,104,Win,26,No-Go,NGW,rune_01_ger,yellow,0,1,0.29,0,0.0,+1,7
11tg5yxy1g1hl5rwr7qap82j,1,105,Lose,27,Go,GAL,rune_01_yr,blue,1,1,0.228,1,0.0,-1,6
11tg5yxy1g1hl5rwr7qap82j,1,106,Win,27,Go,GW,rune_01_ear,yellow,1,1,0.155,1,0.0,+10,7
11tg5yxy1g1hl5rwr7qap82j,1,107,Win,27,No-Go,NGW,rune_01_ger,yellow,0,1,0.674,0,0.0,+1,7
11tg5yxy1g1hl5rwr7qap82j,1,108,Lose,27,No-Go,NGAL,rune_01_ingwaz,blue,0,1,0.395,0,1.0,-1,6
11tg5yxy1g1hl5rwr7qap82j,1,109,Lose,28,No-Go,NGAL,rune_01_ingwaz,blue,0,1,0.27,0,0.0,-10,6
11tg5yxy1g1hl5rwr7qap82j,1,110,Win,28,Go,GW,rune_01_ear,yellow,1,1,0.149,1,0.0,+10,7
11tg5yxy1g1hl5rwr7qap82j,1,111,Lose,28,Go,GAL,rune_01_yr,blue,1,1,0.255,1,1.0,-10,4
11tg5yxy1g1hl5rwr7qap82j,1,112,Win,28,No-Go,NGW,rune_01_ger,yellow,0,1,0.309,0,0.0,+1,6
11tg5yxy1g1hl5rwr7qap82j,1,113,Win,29,Go,GW,rune_01_ear,yellow,1,1,0.247,1,0.0,+10,6
11tg5yxy1g1hl5rwr7qap82j,1,114,Win,29,No-Go,NGW,rune_01_ger,yellow,0,1,0.081,0,0.0,+1,6
11tg5yxy1g1hl5rwr7qap82j,1,115,Lose,29,No-Go,NGAL,rune_01_ingwaz,blue,0,1,0.038,0,0.0,-10,7
11tg5yxy1g1hl5rwr7qap82j,1,116,Lose,29,Go,GAL,rune_01_yr,blue,1,1,0.096,1,0.0,-1,5
11tg5yxy1g1hl5rwr7qap82j,1,117,Win,30,No-Go,NGW,rune_01_ger,yellow,0,1,0.74,0,1.0,+10,7
11tg5yxy1g1hl5rwr7qap82j,1,118,Lose,30,Go,GAL,rune_01_yr,blue,1,1,0.284,1,0.0,-1,9
11tg5yxy1g1hl5rwr7qap82j,1,119,Win,30,Go,GW,rune_01_ear,yellow,1,1,0.469,1,0.0,+10,5
11tg5yxy1g1hl5rwr7qap82j,1,120,Lose,30,No-Go,NGAL,rune_01_ingwaz,blue,0,1,0.404,0,0.0,-10,6
11tg5yxy1g1hl5rwr7qap82j,2,121,Lose,31,No-Go,NGAL,rune_02_os,blue,0,1,0.588,0,1.0,-1,3
11tg5yxy1g1hl5rwr7qap82j,2,122,Win,31,Go,GW,rune_02_raido,yellow,1,1,0.035,1,0.0,+10,7
11tg5yxy1g1hl5rwr7qap82j,2,123,Lose,31,Go,GAL,rune_02_haglaz,blue,1,1,0.342,1,0.0,-1,8
11tg5yxy1g1hl5rwr7qap82j,2,124,Win,31,No-Go,NGW,rune_02_cen,yellow,0,1,0.074,0,1.0,+10,8
11tg5yxy1g1hl5rwr7qap82j,2,125,Lose,32,Go,GAL,rune_02_haglaz,blue,1,1,0.055,1,0.0,-1,6
11tg5yxy1g1hl5rwr7qap82j,2,126,Win,32,No-Go,NGW,rune_02_cen,yellow,0,1,0.076,0,0.0,+1,8
11tg5yxy1g1hl5rwr7qap82j,2,127,Win,32,Go,GW,rune_02_raido,yellow,1,1,0.0,1,0.0,+10,6
11tg5yxy1g1hl5rwr7qap82j,2,128,Lose,32,No-Go,NGAL,rune_02_os,blue,0,1,0.001,0,0.0,-10,8
11tg5yxy1g1hl5rwr7qap82j,2,129,Win,33,No-Go,NGW,rune_02_cen,yellow,0,1,0.002,0,0.0,+1,11
11tg5yxy1g1hl5rwr7qap82j,2,130,Lose,33,No-Go,NGAL,rune_02_os,blue,0,0,,1,0.0,-1,6
11tg5yxy1g1hl5rwr7qap82j,2,131,Win,33,Go,GW,rune_02_raido,yellow,1,0,,0,0.0,+1,0
11tg5yxy1g1hl5rwr7qap82j,2,132,Lose,33,Go,GAL,rune_02_haglaz,blue,1,1,0.026,1,0.0,-1,3
11tg5yxy1g1hl5rwr7qap82j,2,133,Lose,34,No-Go,NGAL,rune_02_os,blue,0,1,0.11,0,0.0,-10,7
11tg5yxy1g1hl5rwr7qap82j,2,134,Win,34,No-Go,NGW,rune_02_cen,yellow,0,1,0.214,0,0.0,+1,12
11tg5yxy1g1hl5rwr7qap82j,2,135,Lose,34,Go,GAL,rune_02_haglaz,blue,1,1,0.151,1,1.0,-10,10
11tg5yxy1g1hl5rwr7qap82j,2,136,Win,34,Go,GW,rune_02_raido,yellow,1,1,0.011,1,1.0,+1,10
11tg5yxy1g1hl5rwr7qap82j,2,137,Win,35,No-Go,NGW,rune_02_cen,yellow,0,1,0.166,0,0.0,+1,11
11tg5yxy1g1hl5rwr7qap82j,2,138,Lose,35,No-Go,NGAL,rune_02_os,blue,0,1,0.275,0,0.0,-10,6
11tg5yxy1g1hl5rwr7qap82j,2,139,Lose,35,Go,GAL,rune_02_haglaz,blue,1,1,0.587,1,0.0,-1,10
11tg5yxy1g1hl5rwr7qap82j,2,140,Win,35,Go,GW,rune_02_raido,yellow,1,1,0.068,1,0.0,+10,4
11tg5yxy1g1hl5rwr7qap82j,2,141,Win,36,No-Go,NGW,rune_02_cen,yellow,0,1,0.43,0,0.0,+1,4
11tg5yxy1g1hl5rwr7qap82j,2,142,Lose,36,Go,GAL,rune_02_haglaz,blue,1,1,0.788,1,0.0,-1,4
11tg5yxy1g1hl5rwr7qap82j,2,143,Win,36,Go,GW,rune_02_raido,yellow,1,1,0.041,1,0.0,+10,8
11tg5yxy1g1hl5rwr7qap82j,2,144,Lose,36,No-Go,NGAL,rune_02_os,blue,0,1,0.067,0,1.0,-1,6
11tg5yxy1g1hl5rwr7qap82j,2,145,Lose,37,Go,GAL,rune_02_haglaz,blue,1,1,0.185,1,0.0,-1,7
11tg5yxy1g1hl5rwr7qap82j,2,146,Win,37,Go,GW,rune_02_raido,yellow,1,1,0.048,1,0.0,+10,9
11tg5yxy1g1hl5rwr7qap82j,2,147,Lose,37,No-Go,NGAL,rune_02_os,blue,0,1,0.002,0,0.0,-10,4
11tg5yxy1g1hl5rwr7qap82j,2,148,Win,37,No-Go,NGW,rune_02_cen,yellow,0,1,0.147,0,1.0,+10,6
11tg5yxy1g1hl5rwr7qap82j,2,149,Win,38,No-Go,NGW,rune_02_cen,yellow,0,1,0.156,0,0.0,+1,4
11tg5yxy1g1hl5rwr7qap82j,2,150,Lose,38,Go,GAL,rune_02_haglaz,blue,1,1,0.201,1,1.0,-10,3
11tg5yxy1g1hl5rwr7qap82j,2,151,Win,38,Go,GW,rune_02_raido,yellow,1,1,0.212,1,0.0,+10,3
11tg5yxy1g1hl5rwr7qap82j,2,152,Lose,38,No-Go,NGAL,rune_02_os,blue,0,1,0.198,0,0.0,-10,6
11tg5yxy1g1hl5rwr7qap82j,2,153,Win,39,No-Go,NGW,rune_02_cen,yellow,0,1,0.408,0,0.0,+1,8
11tg5yxy1g1hl5rwr7qap82j,2,154,Win,39,Go,GW,rune_02_raido,yellow,1,1,0.645,1,1.0,+1,8
11tg5yxy1g1hl5rwr7qap82j,2,155,Lose,39,Go,GAL,rune_02_haglaz,blue,1,1,0.703,1,0.0,-1,8
11tg5yxy1g1hl5rwr7qap82j,2,156,Lose,39,No-Go,NGAL,rune_02_os,blue,0,1,0.348,0,0.0,-10,6
11tg5yxy1g1hl5rwr7qap82j,2,157,Lose,40,Go,GAL,rune_02_haglaz,blue,1,1,0.15,1,0.0,-1,5
11tg5yxy1g1hl5rwr7qap82j,2,158,Lose,40,No-Go,NGAL,rune_02_os,blue,0,1,0.503,0,0.0,-10,6
11tg5yxy1g1hl5rwr7qap82j,2,159,Win,40,No-Go,NGW,rune_02_cen,yellow,0,1,0.174,0,0.0,+1,11
11tg5yxy1g1hl5rwr7qap82j,2,160,Win,40,Go,GW,rune_02_raido,yellow,1,1,0.345,1,0.0,+10,3
11tg5yxy1g1hl5rwr7qap82j,2,161,Win,41,No-Go,NGW,rune_02_cen,yellow,0,1,0.69,0,0.0,+1,8
11tg5yxy1g1hl5rwr7qap82j,2,162,Lose,41,No-Go,NGAL,rune_02_os,blue,0,1,0.078,0,0.0,-10,5
11tg5yxy1g1hl5rwr7qap82j,2,163,Win,41,Go,GW,rune_02_raido,yellow,1,1,0.195,1,0.0,+10,5
11tg5yxy1g1hl5rwr7qap82j,2,164,Lose,41,Go,GAL,rune_02_haglaz,blue,1,1,0.65,1,1.0,-10,7
11tg5yxy1g1hl5rwr7qap82j,2,165,Lose,42,No-Go,NGAL,rune_02_os,blue,0,1,0.167,0,1.0,-1,6
11tg5yxy1g1hl5rwr7qap82j,2,166,Win,42,Go,GW,rune_02_raido,yellow,1,1,0.087,1,1.0,+1,4
11tg5yxy1g1hl5rwr7qap82j,2,167,Lose,42,Go,GAL,rune_02_haglaz,blue,1,1,0.424,1,0.0,-1,6
11tg5yxy1g1hl5rwr7qap82j,2,168,Win,42,No-Go,NGW,rune_02_cen,yellow,0,1,0.107,0,0.0,+1,5
11tg5yxy1g1hl5rwr7qap82j,2,169,Win,43,No-Go,NGW,rune_02_cen,yellow,0,1,0.546,0,0.0,+1,8
11tg5yxy1g1hl5rwr7qap82j,2,170,Lose,43,Go,GAL,rune_02_haglaz,blue,1,1,0.413,1,0.0,-1,3
11tg5yxy1g1hl5rwr7qap82j,2,171,Lose,43,No-Go,NGAL,rune_02_os,blue,0,1,1.395,0,0.0,-10,3
11tg5yxy1g1hl5rwr7qap82j,2,172,Win,43,Go,GW,rune_02_raido,yellow,1,1,0.689,1,0.0,+10,4
11tg5yxy1g1hl5rwr7qap82j,2,173,Win,44,Go,GW,rune_02_raido,yellow,1,1,0.281,1,0.0,+10,6
11tg5yxy1g1hl5rwr7qap82j,2,174,Lose,44,No-Go,NGAL,rune_02_os,blue,0,1,0.539,0,0.0,-10,6
11tg5yxy1g1hl5rwr7qap82j,2,175,Win,44,No-Go,NGW,rune_02_cen,yellow,0,1,0.199,0,0.0,+1,6
11tg5yxy1g1hl5rwr7qap82j,2,176,Lose,44,Go,GAL,rune_02_haglaz,blue,1,1,0.083,1,0.0,-1,2
11tg5yxy1g1hl5rwr7qap82j,2,177,Win,45,No-Go,NGW,rune_02_cen,yellow,0,1,0.05,0,1.0,+10,8
11tg5yxy1g1hl5rwr7qap82j,2,178,Lose,45,Go,GAL,rune_02_haglaz,blue,1,1,0.709,1,0.0,-1,9
11tg5yxy1g1hl5rwr7qap82j,2,179,Win,45,Go,GW,rune_02_raido,yellow,1,1,0.005,1,0.0,+10,11
11tg5yxy1g1hl5rwr7qap82j,2,180,Lose,45,No-Go,NGAL,rune_02_os,blue,0,1,0.011,0,0.0,-10,6
11tg5yxy1g1hl5rwr7qap82j,2,181,Lose,46,No-Go,NGAL,rune_02_os,blue,0,1,0.308,0,0.0,-10,4
11tg5yxy1g1hl5rwr7qap82j,2,182,Win,46,No-Go,NGW,rune_02_cen,yellow,0,1,0.226,0,1.0,+10,6
11tg5yxy1g1hl5rwr7qap82j,2,183,Win,46,Go,GW,rune_02_raido,yellow,1,1,0.632,1,0.0,+10,7
11tg5yxy1g1hl5rwr7qap82j,2,184,Lose,46,Go,GAL,rune_02_haglaz,blue,1,1,0.192,1,0.0,-1,5
11tg5yxy1g1hl5rwr7qap82j,2,185,Lose,47,No-Go,NGAL,rune_02_os,blue,0,1,0.342,0,0.0,-10,6
11tg5yxy1g1hl5rwr7qap82j,2,186,Win,47,Go,GW,rune_02_raido,yellow,1,1,0.341,1,0.0,+10,6
11tg5yxy1g1hl5rwr7qap82j,2,187,Lose,47,Go,GAL,rune_02_haglaz,blue,1,1,0.251,1,1.0,-10,9
11tg5yxy1g1hl5rwr7qap82j,2,188,Win,47,No-Go,NGW,rune_02_cen,yellow,0,1,0.514,0,0.0,+1,9
11tg5yxy1g1hl5rwr7qap82j,2,189,Win,48,No-Go,NGW,rune_02_cen,yellow,0,1,0.269,0,0.0,+1,7
11tg5yxy1g1hl5rwr7qap82j,2,190,Win,48,Go,GW,rune_02_raido,yellow,1,1,0.426,1,1.0,+1,5
11tg5yxy1g1hl5rwr7qap82j,2,191,Lose,48,Go,GAL,rune_02_haglaz,blue,1,1,0.816,1,0.0,-1,3
11tg5yxy1g1hl5rwr7qap82j,2,192,Lose,48,No-Go,NGAL,rune_02_os,blue,0,1,0.294,0,0.0,-10,9
11tg5yxy1g1hl5rwr7qap82j,2,193,Lose,49,No-Go,NGAL,rune_02_os,blue,0,1,0.132,0,0.0,-10,7
11tg5yxy1g1hl5rwr7qap82j,2,194,Lose,49,Go,GAL,rune_02_haglaz,blue,1,1,1.19,1,0.0,-1,5
11tg5yxy1g1hl5rwr7qap82j,2,195,Win,49,No-Go,NGW,rune_02_cen,yellow,0,1,0.706,0,0.0,+1,4
11tg5yxy1g1hl5rwr7qap82j,2,196,Win,49,Go,GW,rune_02_raido,yellow,1,1,0.491,1,0.0,+10,5
11tg5yxy1g1hl5rwr7qap82j,2,197,Lose,50,No-Go,NGAL,rune_02_os,blue,0,1,0.496,0,1.0,-1,5
11tg5yxy1g1hl5rwr7qap82j,2,198,Lose,50,Go,GAL,rune_02_haglaz,blue,1,1,0.149,1,0.0,-1,5
11tg5yxy1g1hl5rwr7qap82j,2,199,Win,50,Go,GW,rune_02_raido,yellow,1,1,0.1,1,0.0,+10,6
11tg5yxy1g1hl5rwr7qap82j,2,200,Win,50,No-Go,NGW,rune_02_cen,yellow,0,1,0.301,0,0.0,+1,8
11tg5yxy1g1hl5rwr7qap82j,2,201,Win,51,Go,GW,rune_02_raido,yellow,1,1,0.056,1,0.0,+10,7
11tg5yxy1g1hl5rwr7qap82j,2,202,Lose,51,No-Go,NGAL,rune_02_os,blue,0,1,0.638,0,0.0,-10,7
11tg5yxy1g1hl5rwr7qap82j,2,203,Win,51,No-Go,NGW,rune_02_cen,yellow,0,1,0.1,0,0.0,+1,8
11tg5yxy1g1hl5rwr7qap82j,2,204,Lose,51,Go,GAL,rune_02_haglaz,blue,1,1,0.072,1,0.0,-1,8
11tg5yxy1g1hl5rwr7qap82j,2,205,Lose,52,No-Go,NGAL,rune_02_os,blue,0,1,0.15,0,1.0,-1,7
11tg5yxy1g1hl5rwr7qap82j,2,206,Win,52,Go,GW,rune_02_raido,yellow,1,1,0.058,1,0.0,+10,6
11tg5yxy1g1hl5rwr7qap82j,2,207,Lose,52,Go,GAL,rune_02_haglaz,blue,1,1,0.472,1,0.0,-1,4
11tg5yxy1g1hl5rwr7qap82j,2,208,Win,52,No-Go,NGW,rune_02_cen,yellow,0,1,0.364,0,0.0,+1,4
11tg5yxy1g1hl5rwr7qap82j,2,209,Lose,53,No-Go,NGAL,rune_02_os,blue,0,1,0.126,0,0.0,-10,7
11tg5yxy1g1hl5rwr7qap82j,2,210,Lose,53,Go,GAL,rune_02_haglaz,blue,1,1,0.282,1,0.0,-1,7
11tg5yxy1g1hl5rwr7qap82j,2,211,Win,53,Go,GW,rune_02_raido,yellow,1,1,0.011,1,0.0,+10,5
11tg5yxy1g1hl5rwr7qap82j,2,212,Win,53,No-Go,NGW,rune_02_cen,yellow,0,1,0.736,0,0.0,+1,7
11tg5yxy1g1hl5rwr7qap82j,2,213,Win,54,No-Go,NGW,rune_02_cen,yellow,0,0,,1,1.0,+1,2
11tg5yxy1g1hl5rwr7qap82j,2,214,Lose,54,No-Go,NGAL,rune_02_os,blue,0,1,0.334,0,0.0,-10,5
11tg5yxy1g1hl5rwr7qap82j,2,215,Lose,54,Go,GAL,rune_02_haglaz,blue,1,1,0.201,1,1.0,-10,6
11tg5yxy1g1hl5rwr7qap82j,2,216,Win,54,Go,GW,rune_02_raido,yellow,1,1,0.132,1,0.0,+10,10
11tg5yxy1g1hl5rwr7qap82j,2,217,Lose,55,Go,GAL,rune_02_haglaz,blue,1,1,0.194,1,0.0,-1,7
11tg5yxy1g1hl5rwr7qap82j,2,218,Lose,55,No-Go,NGAL,rune_02_os,blue,0,1,0.048,0,0.0,-10,8
11tg5yxy1g1hl5rwr7qap82j,2,219,Win,55,Go,GW,rune_02_raido,yellow,1,1,0.001,1,1.0,+1,9
11tg5yxy1g1hl5rwr7qap82j,2,220,Win,55,No-Go,NGW,rune_02_cen,yellow,0,1,0.231,0,0.0,+1,7
11tg5yxy1g1hl5rwr7qap82j,2,221,Win,56,No-Go,NGW,rune_02_cen,yellow,0,1,0.385,0,0.0,+1,8
11tg5yxy1g1hl5rwr7qap82j,2,222,Lose,56,No-Go,NGAL,rune_02_os,blue,0,0,,1,0.0,-1,1
11tg5yxy1g1hl5rwr7qap82j,2,223,Win,56,Go,GW,rune_02_raido,yellow,1,1,0.142,1,1.0,+1,8
11tg5yxy1g1hl5rwr7qap82j,2,224,Lose,56,Go,GAL,rune_02_haglaz,blue,1,1,0.094,1,0.0,-1,7
11tg5yxy1g1hl5rwr7qap82j,2,225,Win,57,No-Go,NGW,rune_02_cen,yellow,0,1,0.097,0,0.0,+1,1
11tg5yxy1g1hl5rwr7qap82j,2,226,Win,57,Go,GW,rune_02_raido,yellow,1,0,,0,0.0,+1,2
11tg5yxy1g1hl5rwr7qap82j,2,227,Lose,57,No-Go,NGAL,rune_02_os,blue,0,1,0.17,0,1.0,-1,8
11tg5yxy1g1hl5rwr7qap82j,2,228,Lose,57,Go,GAL,rune_02_haglaz,blue,1,1,0.159,1,0.0,-1,4
11tg5yxy1g1hl5rwr7qap82j,2,229,Lose,58,No-Go,NGAL,rune_02_os,blue,0,1,0.053,0,0.0,-10,4
11tg5yxy1g1hl5rwr7qap82j,2,230,Lose,58,Go,GAL,rune_02_haglaz,blue,1,1,0.0,1,1.0,-10,7
11tg5yxy1g1hl5rwr7qap82j,2,231,Win,58,No-Go,NGW,rune_02_cen,yellow,0,1,0.271,0,0.0,+1,7
11tg5yxy1g1hl5rwr7qap82j,2,232,Win,58,Go,GW,rune_02_raido,yellow,1,1,0.296,1,0.0,+10,8
11tg5yxy1g1hl5rwr7qap82j,2,233,Win,59,No-Go,NGW,rune_02_cen,yellow,0,1,0.159,0,0.0,+1,5
11tg5yxy1g1hl5rwr7qap82j,2,234,Lose,59,No-Go,NGAL,rune_02_os,blue,0,1,0.179,0,0.0,-10,8
11tg5yxy1g1hl5rwr7qap82j,2,235,Lose,59,Go,GAL,rune_02_haglaz,blue,1,1,0.176,1,0.0,-1,9
11tg5yxy1g1hl5rwr7qap82j,2,236,Win,59,Go,GW,rune_02_raido,yellow,1,1,0.226,1,0.0,+10,10
11tg5yxy1g1hl5rwr7qap82j,2,237,Win,60,No-Go,NGW,rune_02_cen,yellow,0,1,0.029,0,1.0,+10,9
11tg5yxy1g1hl5rwr7qap82j,2,238,Lose,60,Go,GAL,rune_02_haglaz,blue,1,1,0.076,1,0.0,-1,10
11tg5yxy1g1hl5rwr7qap82j,2,239,Win,60,Go,GW,rune_02_raido,yellow,1,1,0.016,1,0.0,+10,9
11tg5yxy1g1hl5rwr7qap82j,2,240,Lose,60,No-Go,NGAL,rune_02_os,blue,0,1,0.107,0,0.0,-10,10
12ide102xqajrz6cxib9berc,1,1,Win,1,Go,GW,rune_02_haglaz,yellow,1,1,1.403,1,0.0,+10,1
12ide102xqajrz6cxib9berc,1,2,Lose,1,Go,GAL,rune_02_os,blue,1,0,,0,0.0,-10,0
12ide102xqajrz6cxib9berc,1,3,Lose,1,No-Go,NGAL,rune_02_raido,blue,0,1,0.997,0,0.0,-10,1
12ide102xqajrz6cxib9berc,1,4,Win,1,No-Go,NGW,rune_02_cen,yellow,0,0,,1,0.0,+10,0
12ide102xqajrz6cxib9berc,1,5,Win,2,Go,GW,rune_02_haglaz,yellow,1,1,1.186,1,0.0,+10,1
12ide102xqajrz6cxib9berc,1,6,Win,2,No-Go,NGW,rune_02_cen,yellow,0,1,0.904,0,1.0,+10,1
12ide102xqajrz6cxib9berc,1,7,Lose,2,No-Go,NGAL,rune_02_raido,blue,0,0,,1,1.0,-10,0
12ide102xqajrz6cxib9berc,1,8,Lose,2,Go,GAL,rune_02_os,blue,1,0,,0,0.0,-10,0
12ide102xqajrz6cxib9berc,1,9,Win,3,No-Go,NGW,rune_02_cen,yellow,0,1,0.702,0,0.0,+1,1
12ide102xqajrz6cxib9berc,1,10,Win,3,Go,GW,rune_02_haglaz,yellow,1,1,0.844,1,1.0,+1,1
12ide102xqajrz6cxib9berc,1,11,Lose,3,No-Go,NGAL,rune_02_raido,blue,0,0,,1,0.0,-1,0
12ide102xqajrz6cxib9berc,1,12,Lose,3,Go,GAL,rune_02_os,blue,1,0,,0,0.0,-10,0
12ide102xqajrz6cxib9berc,1,13,Win,4,No-Go,NGW,rune_02_cen,yellow,0,1,0.584,0,0.0,+1,1
12ide102xqajrz6cxib9berc,1,14,Lose,4,No-Go,NGAL,rune_02_raido,blue,0,1,0.592,0,0.0,-10,1
12ide102xqajrz6cxib9berc,1,15,Win,4,Go,GW,rune_02_haglaz,yellow,1,1,0.531,1,0.0,+10,1
12ide102xqajrz6cxib9berc,1,16,Lose,4,Go,GAL,rune_02_os,blue,1,1,0.966,1,1.0,-10,1
12ide102xqajrz6cxib9berc,1,17,Win,5,Go,GW,rune_02_haglaz,yellow,1,1,0.589,1,0.0,+10,1
12ide102xqajrz6cxib9berc,1,18,Lose,5,Go,GAL,rune_02_os,blue,1,0,,0,0.0,-10,0
12ide102xqajrz6cxib9berc,1,19,Lose,5,No-Go,NGAL,rune_02_raido,blue,0,0,,1,0.0,-1,0
12ide102xqajrz6cxib9berc,1,20,Win,5,No-Go,NGW,rune_02_cen,yellow,0,1,0.586,0,0.0,+1,1
12ide102xqajrz6cxib9berc,1,21,Lose,6,Go,GAL,rune_02_os,blue,1,0,,0,0.0,-10,0
12ide102xqajrz6cxib9berc,1,22,Lose,6,No-Go,NGAL,rune_02_raido,blue,0,1,1.124,0,1.0,-1,1
12ide102xqajrz6cxib9berc,1,23,Win,6,No-Go,NGW,rune_02_cen,yellow,0,1,0.65,0,1.0,+10,1
12ide102xqajrz6cxib9berc,1,24,Win,6,Go,GW,rune_02_haglaz,yellow,1,1,0.844,1,0.0,+10,1
12ide102xqajrz6cxib9berc,1,25,Lose,7,Go,GAL,rune_02_os,blue,1,0,,0,1.0,-1,0
12ide102xqajrz6cxib9berc,1,26,Lose,7,No-Go,NGAL,rune_02_raido,blue,0,1,1.122,0,0.0,-10,1
12ide102xqajrz6cxib9berc,1,27,Win,7,Go,GW,rune_02_haglaz,yellow,1,0,,0,1.0,+10,0
12ide102xqajrz6cxib9berc,1,28,Win,7,No-Go,NGW,rune_02_cen,yellow,0,0,,1,0.0,+10,1
12ide102xqajrz6cxib9berc,1,29,Win,8,Go,GW,rune_02_haglaz,yellow,1,0,,0,0.0,+1,0
12ide102xqajrz6cxib9berc,1,30,Lose,8,Go,GAL,rune_02_os,blue,1,0,,0,0.0,-10,0
12ide102xqajrz6cxib9berc,1,31,Lose,8,No-Go,NGAL,rune_02_raido,blue,0,0,,1,0.0,-1,0
12ide102xqajrz6cxib9berc,1,32,Win,8,No-Go,NGW,rune_02_cen,yellow,0,1,1.126,0,0.0,+1,1
12ide102xqajrz6cxib9berc,1,33,Lose,9,Go,GAL,rune_02_os,blue,1,0,,0,0.0,-10,0
12ide102xqajrz6cxib9berc,1,34,Lose,9,No-Go,NGAL,rune_02_raido,blue,0,1,1.498,0,0.0,-10,1
12ide102xqajrz6cxib9berc,1,35,Win,9,No-Go,NGW,rune_02_cen,yellow,0,0,,1,0.0,+10,0
12ide102xqajrz6cxib9berc,1,36,Win,9,Go,GW,rune_02_haglaz,yellow,1,0,,0,0.0,+1,0
12ide102xqajrz6cxib9berc,1,37,Win,10,Go,GW,rune_02_haglaz,yellow,1,1,0.841,1,0.0,+10,1
12ide102xqajrz6cxib9berc,1,38,Lose,10,No-Go,NGAL,rune_02_raido,blue,0,0,,1,0.0,-1,0
12ide102xqajrz6cxib9berc,1,39,Lose,10,Go,GAL,rune_02_os,blue,1,0,,0,0.0,-10,0
12ide102xqajrz6cxib9berc,1,40,Win,10,No-Go,NGW,rune_02_cen,yellow,0,1,0.84,0,0.0,+1,1
12ide102xqajrz6cxib9berc,1,41,Win,11,Go,GW,rune_02_haglaz,yellow,1,1,0.721,1,0.0,+10,1
12ide102xqajrz6cxib9berc,1,42,Lose,11,Go,GAL,rune_02_os,blue,1,1,1.466,1,0.0,-1,1
12ide102xqajrz6cxib9berc,1,43,Win,11,No-Go,NGW,rune_02_cen,yellow,0,0,,1,0.0,+10,0
12ide102xqajrz6cxib9berc,1,44,Lose,11,No-Go,NGAL,rune_02_raido,blue,0,0,,1,0.0,-1,1
12ide102xqajrz6cxib9berc,1,45,Win,12,No-Go,NGW,rune_02_cen,yellow,0,1,0.841,0,1.0,+10,1
12ide102xqajrz6cxib9berc,1,46,Lose,12,No-Go,NGAL,rune_02_raido,blue,0,1,1.155,0,0.0,-10,1
12ide102xqajrz6cxib9berc,1,47,Lose,12,Go,GAL,rune_02_os,blue,1,1,0.902,1,0.0,-1,1
12ide102xqajrz6cxib9berc,1,48,Win,12,Go,GW,rune_02_haglaz,yellow,1,1,0.717,1,0.0,+10,1
12ide102xqajrz6cxib9berc,1,49,Lose,13,Go,GAL,rune_02_os,blue,1,1,1.094,1,0.0,-1,1
12ide102xqajrz6cxib9berc,1,50,Win,13,No-Go,NGW,rune_02_cen,yellow,0,0,,1,0.0,+10,0
12ide102xqajrz6cxib9berc,1,51,Lose,13,No-Go,NGAL,rune_02_raido,blue,0,1,1.17,0,1.0,-1,1
12ide102xqajrz6cxib9berc,1,52,Win,13,Go,GW,rune_02_haglaz,yellow,1,1,1.22,1,1.0,+1,1
12ide102xqajrz6cxib9berc,1,53,Win,14,Go,GW,rune_02_haglaz,yellow,1,1,1.035,1,0.0,+10,1
12ide102xqajrz6cxib9berc,1,54,Lose,14,Go,GAL,rune_02_os,blue,1,1,1.206,1,0.0,-1,1
12ide102xqajrz6cxib9berc,1,55,Lose,14,No-Go,NGAL,rune_02_raido,blue,0,0,,1,0.0,-1,1
12ide102xqajrz6cxib9berc,1,56,Win,14,No-Go,NGW,rune_02_cen,yellow,0,0,,1,0.0,+10,0
12ide102xqajrz6cxib9berc,1,57,Win,15,Go,GW,rune_02_haglaz,yellow,1,1,1.095,1,0.0,+10,1
12ide102xqajrz6cxib9berc,1,58,Win,15,No-Go,NGW,rune_02_cen,yellow,0,0,,1,0.0,+10,0
12ide102xqajrz6cxib9berc,1,59,Lose,15,No-Go,NGAL,rune_02_raido,blue,0,1,1.178,0,0.0,-10,1
12ide102xqajrz6cxib9berc,1,60,Lose,15,Go,GAL,rune_02_os,blue,1,0,,0,1.0,-1,1
12ide102xqajrz6cxib9berc,1,61,Win,16,Go,GW,rune_02_haglaz,yellow,1,1,0.715,1,1.0,+1,1
12ide102xqajrz6cxib9berc,1,62,Lose,16,Go,GAL,rune_02_os,blue,1,0,,0,0.0,-10,0
12ide102xqajrz6cxib9berc,1,63,Lose,16,No-Go,NGAL,rune_02_raido,blue,0,0,,1,0.0,-1,0
12ide102xqajrz6cxib9berc,1,64,Win,16,No-Go,NGW,rune_02_cen,yellow,0,1,0.903,0,0.0,+1,1
12ide102xqajrz6cxib9berc,1,65,Lose,17,No-Go,NGAL,rune_02_raido,blue,0,1,1.464,0,0.0,-10,1
12ide102xqajrz6cxib9berc,1,66,Win,17,Go,GW,rune_02_haglaz,yellow,1,1,0.651,1,0.0,+10,1
12ide102xqajrz6cxib9berc,1,67,Win,17,No-Go,NGW,rune_02_cen,yellow,0,1,0.968,0,0.0,+1,1
12ide102xqajrz6cxib9berc,1,68,Lose,17,Go,GAL,rune_02_os,blue,1,1,1.157,1,0.0,-1,1
12ide102xqajrz6cxib9berc,1,69,Lose,18,Go,GAL,rune_02_os,blue,1,1,1.028,1,0.0,-1,1
12ide102xqajrz6cxib9berc,1,70,Lose,18,No-Go,NGAL,rune_02_raido,blue,0,0,,1,0.0,-1,1
12ide102xqajrz6cxib9berc,1,71,Win,18,Go,GW,rune_02_haglaz,yellow,1,1,1.374,1,0.0,+10,1
12ide102xqajrz6cxib9berc,1,72,Win,18,No-Go,NGW,rune_02_cen,yellow,0,0,,1,0.0,+10,0
12ide102xqajrz6cxib9berc,1,73,Win,19,No-Go,NGW,rune_02_cen,yellow,0,0,,1,1.0,+1,0
12ide102xqajrz6cxib9berc,1,74,Win,19,Go,GW,rune_02_haglaz,yellow,1,0,,0,0.0,+1,1
12ide102xqajrz6cxib9berc,1,75,Lose,19,No-Go,NGAL,rune_02_raido,blue,0,0,,1,0.0,-1,0
12ide102xqajrz6cxib9berc,1,76,Lose,19,Go,GAL,rune_02_os,blue,1,1,0.831,1,1.0,-10,1
12ide102xqajrz6cxib9berc,1,77,Lose,20,No-Go,NGAL,rune_02_raido,blue,0,1,1.092,0,1.0,-1,1
12ide102xqajrz6cxib9berc,1,78,Lose,20,Go,GAL,rune_02_os,blue,1,0,,0,0.0,-10,0
12ide102xqajrz6cxib9berc,1,79,Win,20,Go,GW,rune_02_haglaz,yellow,1,1,1.438,1,0.0,+10,1
12ide102xqajrz6cxib9berc,1,80,Win,20,No-Go,NGW,rune_02_cen,yellow,0,0,,1,0.0,+10,0
12ide102xqajrz6cxib9berc,1,81,Lose,21,No-Go,NGAL,rune_02_raido,blue,0,1,1.245,0,1.0,-1,1
12ide102xqajrz6cxib9berc,1,82,Win,21,Go,GW,rune_02_haglaz,yellow,1,1,1.281,1,0.0,+10,1
12ide102xqajrz6cxib9berc,1,83,Win,21,No-Go,NGW,rune_02_cen,yellow,0,1,1.387,0,0.0,+1,1
12ide102xqajrz6cxib9berc,1,84,Lose,21,Go,GAL,rune_02_os,blue,1,0,,0,0.0,-10,0
12ide102xqajrz6cxib9berc,1,85,Win,22,Go,GW,rune_02_haglaz,yellow,1,1,1.375,1,1.0,+1,1
12ide102xqajrz6cxib9berc,1,86,Win,22,No-Go,NGW,rune_02_cen,yellow,0,0,,1,1.0,+1,1
12ide102xqajrz6cxib9berc,1,87,Lose,22,Go,GAL,rune_02_os,blue,1,1,0.918,1,0.0,-1,1
12ide102xqajrz6cxib9berc,1,88,Lose,22,No-Go,NGAL,rune_02_raido,blue,0,1,1.341,0,0.0,-10,1
12ide102xqajrz6cxib9berc,1,89,Lose,23,No-Go,NGAL,rune_02_raido,blue,0,0,,1,0.0,-1,1
12ide102xqajrz6cxib9berc,1,90,Win,23,Go,GW,rune_02_haglaz,yellow,1,1,1.065,1,0.0,+10,1
12ide102xqajrz6cxib9berc,1,91,Lose,23,Go,GAL,rune_02_os,blue,1,0,,0,1.0,-1,0
12ide102xqajrz6cxib9berc,1,92,Win,23,No-Go,NGW,rune_02_cen,yellow,0,0,,1,0.0,+10,0
12ide102xqajrz6cxib9berc,1,93,Win,24,Go,GW,rune_02_haglaz,yellow,1,0,,0,0.0,+1,0
12ide102xqajrz6cxib9berc,1,94,Lose,24,Go,GAL,rune_02_os,blue,1,0,,0,0.0,-10,0
12ide102xqajrz6cxib9berc,1,95,Win,24,No-Go,NGW,rune_02_cen,yellow,0,1,0.717,0,0.0,+1,1
12ide102xqajrz6cxib9berc,1,96,Lose,24,No-Go,NGAL,rune_02_raido,blue,0,0,,1,0.0,-1,0
12ide102xqajrz6cxib9berc,1,97,Win,25,No-Go,NGW,rune_02_cen,yellow,0,1,0.675,0,0.0,+1,1
12ide102xqajrz6cxib9berc,1,98,Lose,25,No-Go,NGAL,rune_02_raido,blue,0,0,,1,0.0,-1,0
12ide102xqajrz6cxib9berc,1,99,Lose,25,Go,GAL,rune_02_os,blue,1,0,,0,0.0,-10,0
12ide102xqajrz6cxib9berc,1,100,Win,25,Go,GW,rune_02_haglaz,yellow,1,1,1.214,1,0.0,+10,1
12ide102xqajrz6cxib9berc,1,101,Lose,26,No-Go,NGAL,rune_02_raido,blue,0,0,,1,0.0,-1,0
12ide102xqajrz6cxib9berc,1,102,Win,26,Go,GW,rune_02_haglaz,yellow,1,1,0.812,1,0.0,+10,1
12ide102xqajrz6cxib9berc,1,103,Win,26,No-Go,NGW,rune_02_cen,yellow,0,0,,1,0.0,+10,0
12ide102xqajrz6cxib9berc,1,104,Lose,26,Go,GAL,rune_02_os,blue,1,1,1.224,1,0.0,-1,1
12ide102xqajrz6cxib9berc,1,105,Win,27,No-Go,NGW,rune_02_cen,yellow,0,0,,1,1.0,+1,0
12ide102xqajrz6cxib9berc,1,106,Lose,27,Go,GAL,rune_02_os,blue,1,0,,0,0.0,-10,1
12ide102xqajrz6cxib9berc,1,107,Win,27,Go,GW,rune_02_haglaz,yellow,1,1,1.34,1,0.0,+10,1
12ide102xqajrz6cxib9berc,1,108,Lose,27,No-Go,NGAL,rune_02_raido,blue,0,0,,1,1.0,-10,0
12ide102xqajrz6cxib9berc,1,109,Win,28,Go,GW,rune_02_haglaz,yellow,1,1,0.918,1,1.0,+1,1
12ide102xqajrz6cxib9berc,1,110,Lose,28,No-Go,NGAL,rune_02_raido,blue,0,0,,1,0.0,-1,0
12ide102xqajrz6cxib9berc,1,111,Win,28,No-Go,NGW,rune_02_cen,yellow,0,1,0.874,0,0.0,+1,1
12ide102xqajrz6cxib9berc,1,112,Lose,28,Go,GAL,rune_02_os,blue,1,1,1.406,1,1.0,-10,1
12ide102xqajrz6cxib9berc,1,113,Win,29,Go,GW,rune_02_haglaz,yellow,1,0,,0,0.0,+1,1
12ide102xqajrz6cxib9berc,1,114,Lose,29,Go,GAL,rune_02_os,blue,1,0,,0,0.0,-10,0
12ide102xqajrz6cxib9berc,1,115,Lose,29,No-Go,NGAL,rune_02_raido,blue,0,0,,1,0.0,-1,0
12ide102xqajrz6cxib9berc,1,116,Win,29,No-Go,NGW,rune_02_cen,yellow,0,0,,1,0.0,+10,0
12ide102xqajrz6cxib9berc,1,117,Win,30,Go,GW,rune_02_haglaz,yellow,1,0,,0,0.0,+1,0
12ide102xqajrz6cxib9berc,1,118,Lose,30,Go,GAL,rune_02_os,blue,1,0,,0,0.0,-10,0
12ide102xqajrz6cxib9berc,1,119,Lose,30,No-Go,NGAL,rune_02_raido,blue,0,1,1.082,0,0.0,-10,1
12ide102xqajrz6cxib9berc,1,120,Win,30,No-Go,NGW,rune_02_cen,yellow,0,0,,1,0.0,+10,0
12ide102xqajrz6cxib9berc,2,121,Win,31,No-Go,NGW,rune_01_ingwaz,yellow,0,1,0.62,0,0.0,+1,1
12ide102xqajrz6cxib9berc,2,122,Win,31,Go,GW,rune_01_ear,yellow,1,1,0.594,1,0.0,+10,1
12ide102xqajrz6cxib9berc,2,123,Lose,31,Go,GAL,rune_01_yr,blue,1,1,1.094,1,0.0,-1,1
12ide102xqajrz6cxib9berc,2,124,Lose,31,No-Go,NGAL,rune_01_ger,blue,0,0,,1,0.0,-1,0
12ide102xqajrz6cxib9berc,2,125,Lose,32,No-Go,NGAL,rune_01_ger,blue,0,0,,1,1.0,-10,0
12ide102xqajrz6cxib9berc,2,126,Win,32,No-Go,NGW,rune_01_ingwaz,yellow,0,1,0.777,0,1.0,+10,1
12ide102xqajrz6cxib9berc,2,127,Win,32,Go,GW,rune_01_ear,yellow,1,1,0.658,1,0.0,+10,1
12ide102xqajrz6cxib9berc,2,128,Lose,32,Go,GAL,rune_01_yr,blue,1,1,1.023,1,0.0,-1,1
12ide102xqajrz6cxib9berc,2,129,Lose,33,Go,GAL,rune_01_yr,blue,1,1,1.157,1,0.0,-1,1
12ide102xqajrz6cxib9berc,2,130,Win,33,No-Go,NGW,rune_01_ingwaz,yellow,0,1,1.08,0,0.0,+1,1
12ide102xqajrz6cxib9berc,2,131,Lose,33,No-Go,NGAL,rune_01_ger,blue,0,1,1.404,0,0.0,-10,1
12ide102xqajrz6cxib9berc,2,132,Win,33,Go,GW,rune_01_ear,yellow,1,1,0.218,1,1.0,+1,1
12ide102xqajrz6cxib9berc,2,133,Lose,34,No-Go,NGAL,rune_01_ger,blue,0,0,,1,0.0,-1,1
12ide102xqajrz6cxib9berc,2,134,Lose,34,Go,GAL,rune_01_yr,blue,1,1,1.183,1,1.0,-10,1
12ide102xqajrz6cxib9berc,2,135,Win,34,No-Go,NGW,rune_01_ingwaz,yellow,0,1,0.718,0,0.0,+1,1
12ide102xqajrz6cxib9berc,2,136,Win,34,Go,GW,rune_01_ear,yellow,1,1,0.778,1,0.0,+10,1
12ide102xqajrz6cxib9berc,2,137,Lose,35,Go,GAL,rune_01_yr,blue,1,1,0.906,1,0.0,-1,1
12ide102xqajrz6cxib9berc,2,138,Win,35,Go,GW,rune_01_ear,yellow,1,0,,0,0.0,+1,1
12ide102xqajrz6cxib9berc,2,139,Win,35,No-Go,NGW,rune_01_ingwaz,yellow,0,1,1.184,0,0.0,+1,1
12ide102xqajrz6cxib9berc,2,140,Lose,35,No-Go,NGAL,rune_01_ger,blue,0,0,,1,0.0,-1,0
12ide102xqajrz6cxib9berc,2,141,Win,36,No-Go,NGW,rune_01_ingwaz,yellow,0,1,0.685,0,1.0,+10,1
12ide102xqajrz6cxib9berc,2,142,Win,36,Go,GW,rune_01_ear,yellow,1,1,0.842,1,0.0,+10,1
12ide102xqajrz6cxib9berc,2,143,Lose,36,Go,GAL,rune_01_yr,blue,1,0,,0,0.0,-10,0
12ide102xqajrz6cxib9berc,2,144,Lose,36,No-Go,NGAL,rune_01_ger,blue,0,0,,1,1.0,-10,0
12ide102xqajrz6cxib9berc,2,145,Win,37,No-Go,NGW,rune_01_ingwaz,yellow,0,1,0.781,0,0.0,+1,1
12ide102xqajrz6cxib9berc,2,146,Lose,37,No-Go,NGAL,rune_01_ger,blue,0,0,,1,0.0,-1,0
12ide102xqajrz6cxib9berc,2,147,Lose,37,Go,GAL,rune_01_yr,blue,1,1,0.435,1,1.0,-10,1
12ide102xqajrz6cxib9berc,2,148,Win,37,Go,GW,rune_01_ear,yellow,1,1,0.842,1,1.0,+1,1
12ide102xqajrz6cxib9berc,2,149,Win,38,Go,GW,rune_01_ear,yellow,1,1,0.714,1,0.0,+10,1
12ide102xqajrz6cxib9berc,2,150,Lose,38,No-Go,NGAL,rune_01_ger,blue,0,1,0.654,0,0.0,-10,1
12ide102xqajrz6cxib9berc,2,151,Lose,38,Go,GAL,rune_01_yr,blue,1,1,0.656,1,0.0,-1,1
12ide102xqajrz6cxib9berc,2,152,Win,38,No-Go,NGW,rune_01_ingwaz,yellow,0,0,,1,0.0,+10,1
12ide102xqajrz6cxib9berc,2,153,Lose,39,Go,GAL,rune_01_yr,blue,1,1,0.994,1,0.0,-1,1
12ide102xqajrz6cxib9berc,2,154,Win,39,No-Go,NGW,rune_01_ingwaz,yellow,0,1,1.219,0,0.0,+1,1
12ide102xqajrz6cxib9berc,2,155,Lose,39,No-Go,NGAL,rune_01_ger,blue,0,0,,1,0.0,-1,0
12ide102xqajrz6cxib9berc,2,156,Win,39,Go,GW,rune_01_ear,yellow,1,1,0.809,1,0.0,+10,1
12ide102xqajrz6cxib9berc,2,157,Lose,40,No-Go,NGAL,rune_01_ger,blue,0,0,,1,0.0,-1,0
12ide102xqajrz6cxib9berc,2,158,Win,40,Go,GW,rune_01_ear,yellow,1,0,,0,0.0,+1,1
12ide102xqajrz6cxib9berc,2,159,Lose,40,Go,GAL,rune_01_yr,blue,1,0,,0,0.0,-10,1
12ide102xqajrz6cxib9berc,2,160,Win,40,No-Go,NGW,rune_01_ingwaz,yellow,0,1,0.75,0,0.0,+1,1
12ide102xqajrz6cxib9berc,2,161,Win,41,Go,GW,rune_01_ear,yellow,1,1,1.086,1,0.0,+10,1
12ide102xqajrz6cxib9berc,2,162,Lose,41,Go,GAL,rune_01_yr,blue,1,0,,0,0.0,-10,1
12ide102xqajrz6cxib9berc,2,163,Lose,41,No-Go,NGAL,rune_01_ger,blue,0,0,,1,0.0,-1,0
12ide102xqajrz6cxib9berc,2,164,Win,41,No-Go,NGW,rune_01_ingwaz,yellow,0,0,,1,0.0,+10,1
12ide102xqajrz6cxib9berc,2,165,Lose,42,No-Go,NGAL,rune_01_ger,blue,0,0,,1,0.0,-1,0
12ide102xqajrz6cxib9berc,2,166,Win,42,Go,GW,rune_01_ear,yellow,1,1,0.967,1,0.0,+10,1
12ide102xqajrz6cxib9berc,2,167,Lose,42,Go,GAL,rune_01_yr,blue,1,0,,0,0.0,-10,0
12ide102xqajrz6cxib9berc,2,168,Win,42,No-Go,NGW,rune_01_ingwaz,yellow,0,1,0.811,0,1.0,+10,1
12ide102xqajrz6cxib9berc,2,169,Win,43,Go,GW,rune_01_ear,yellow,1,0,,0,1.0,+10,0
12ide102xqajrz6cxib9berc,2,170,Lose,43,Go,GAL,rune_01_yr,blue,1,1,0.997,1,0.0,-1,1
12ide102xqajrz6cxib9berc,2,171,Win,43,No-Go,NGW,rune_01_ingwaz,yellow,0,1,1.031,0,0.0,+1,1
12ide102xqajrz6cxib9berc,2,172,Lose,43,No-Go,NGAL,rune_01_ger,blue,0,0,,1,1.0,-10,1
12ide102xqajrz6cxib9berc,2,173,Win,44,No-Go,NGW,rune_01_ingwaz,yellow,0,1,0.81,0,0.0,+1,1
12ide102xqajrz6cxib9berc,2,174,Lose,44,No-Go,NGAL,rune_01_ger,blue,0,0,,1,0.0,-1,0
12ide102xqajrz6cxib9berc,2,175,Win,44,Go,GW,rune_01_ear,yellow,1,1,0.873,1,0.0,+10,1
12ide102xqajrz6cxib9berc,2,176,Lose,44,Go,GAL,rune_01_yr,blue,1,0,,0,0.0,-10,0
12ide102xqajrz6cxib9berc,2,177,Win,45,No-Go,NGW,rune_01_ingwaz,yellow,0,1,0.685,0,0.0,+1,1
12ide102xqajrz6cxib9berc,2,178,Lose,45,Go,GAL,rune_01_yr,blue,1,0,,0,1.0,-1,0
12ide102xqajrz6cxib9berc,2,179,Win,45,Go,GW,rune_01_ear,yellow,1,1,0.81,1,0.0,+10,1
12ide102xqajrz6cxib9berc,2,180,Lose,45,No-Go,NGAL,rune_01_ger,blue,0,0,,1,0.0,-1,0
12ide102xqajrz6cxib9berc,2,181,Lose,46,Go,GAL,rune_01_yr,blue,1,0,,0,0.0,-10,0
12ide102xqajrz6cxib9berc,2,182,Win,46,Go,GW,rune_01_ear,yellow,1,1,0.593,1,1.0,+1,1
12ide102xqajrz6cxib9berc,2,183,Win,46,No-Go,NGW,rune_01_ingwaz,yellow,0,0,,1,0.0,+10,0
12ide102xqajrz6cxib9berc,2,184,Lose,46,No-Go,NGAL,rune_01_ger,blue,0,1,1.061,0,0.0,-10,1
12ide102xqajrz6cxib9berc,2,185,Lose,47,No-Go,NGAL,rune_01_ger,blue,0,0,,1,0.0,-1,0
12ide102xqajrz6cxib9berc,2,186,Win,47,Go,GW,rune_01_ear,yellow,1,1,0.998,1,0.0,+10,1
12ide102xqajrz6cxib9berc,2,187,Win,47,No-Go,NGW,rune_01_ingwaz,yellow,0,0,,1,0.0,+10,0
12ide102xqajrz6cxib9berc,2,188,Lose,47,Go,GAL,rune_01_yr,blue,1,1,0.684,1,0.0,-1,2
12ide102xqajrz6cxib9berc,2,189,Win,48,Go,GW,rune_01_ear,yellow,1,1,0.72,1,0.0,+10,1
12ide102xqajrz6cxib9berc,2,190,Lose,48,No-Go,NGAL,rune_01_ger,blue,0,0,,1,0.0,-1,0
12ide102xqajrz6cxib9berc,2,191,Win,48,No-Go,NGW,rune_01_ingwaz,yellow,0,1,0.62,0,0.0,+1,1
12ide102xqajrz6cxib9berc,2,192,Lose,48,Go,GAL,rune_01_yr,blue,1,1,0.718,1,0.0,-1,1
12ide102xqajrz6cxib9berc,2,193,Win,49,Go,GW,rune_01_ear,yellow,1,1,0.657,1,0.0,+10,1
12ide102xqajrz6cxib9berc,2,194,Win,49,No-Go,NGW,rune_01_ingwaz,yellow,0,1,0.844,0,1.0,+10,1
12ide102xqajrz6cxib9berc,2,195,Lose,49,Go,GAL,rune_01_yr,blue,1,1,1.231,1,1.0,-10,1
12ide102xqajrz6cxib9berc,2,196,Lose,49,No-Go,NGAL,rune_01_ger,blue,0,1,0.632,0,0.0,-10,1
12ide102xqajrz6cxib9berc,2,197,Lose,50,Go,GAL,rune_01_yr,blue,1,1,0.717,1,0.0,-1,1
12ide102xqajrz6cxib9berc,2,198,Lose,50,No-Go,NGAL,rune_01_ger,blue,0,1,1.335,0,1.0,-1,1
12ide102xqajrz6cxib9berc,2,199,Win,50,Go,GW,rune_01_ear,yellow,1,1,0.781,1,0.0,+10,1
12ide102xqajrz6cxib9berc,2,200,Win,50,No-Go,NGW,rune_01_ingwaz,yellow,0,0,,1,0.0,+10,1
12ide102xqajrz6cxib9berc,2,201,Lose,51,Go,GAL,rune_01_yr,blue,1,1,1.498,1,0.0,-1,1
12ide102xqajrz6cxib9berc,2,202,Lose,51,No-Go,NGAL,rune_01_ger,blue,0,0,,1,1.0,-10,0
12ide102xqajrz6cxib9berc,2,203,Win,51,Go,GW,rune_01_ear,yellow,1,1,0.87,1,0.0,+10,1
12ide102xqajrz6cxib9berc,2,204,Win,51,No-Go,NGW,rune_01_ingwaz,yellow,0,0,,1,0.0,+10,1
12ide102xqajrz6cxib9berc,2,205,Win,52,Go,GW,rune_01_ear,yellow,1,1,0.937,1,1.0,+1,1
12ide102xqajrz6cxib9berc,2,206,Lose,52,Go,GAL,rune_01_yr,blue,1,0,,0,0.0,-10,0
12ide102xqajrz6cxib9berc,2,207,Lose,52,No-Go,NGAL,rune_01_ger,blue,0,0,,1,0.0,-1,0
12ide102xqajrz6cxib9berc,2,208,Win,52,No-Go,NGW,rune_01_ingwaz,yellow,0,1,0.649,0,1.0,+10,1
12ide102xqajrz6cxib9berc,2,209,Lose,53,Go,GAL,rune_01_yr,blue,1,0,,0,1.0,-1,0
12ide102xqajrz6cxib9berc,2,210,Win,53,No-Go,NGW,rune_01_ingwaz,yellow,0,1,0.93,0,0.0,+1,1
12ide102xqajrz6cxib9berc,2,211,Win,53,Go,GW,rune_01_ear,yellow,1,1,1.093,1,0.0,+10,1
12ide102xqajrz6cxib9berc,2,212,Lose,53,No-Go,NGAL,rune_01_ger,blue,0,0,,1,0.0,-1,0
12ide102xqajrz6cxib9berc,2,213,Lose,54,No-Go,NGAL,rune_01_ger,blue,0,0,,1,0.0,-1,0
12ide102xqajrz6cxib9berc,2,214,Win,54,No-Go,NGW,rune_01_ingwaz,yellow,0,1,0.901,0,0.0,+1,1
12ide102xqajrz6cxib9berc,2,215,Win,54,Go,GW,rune_01_ear,yellow,1,1,0.782,1,0.0,+10,1
12ide102xqajrz6cxib9berc,2,216,Lose,54,Go,GAL,rune_01_yr,blue,1,1,1.078,1,0.0,-1,1
12ide102xqajrz6cxib9berc,2,217,Win,55,No-Go,NGW,rune_01_ingwaz,yellow,0,0,,1,0.0,+10,1
12ide102xqajrz6cxib9berc,2,218,Win,55,Go,GW,rune_01_ear,yellow,1,1,0.746,1,0.0,+10,1
12ide102xqajrz6cxib9berc,2,219,Lose,55,Go,GAL,rune_01_yr,blue,1,1,1.4,1,0.0,-1,1
12ide102xqajrz6cxib9berc,2,220,Lose,55,No-Go,NGAL,rune_01_ger,blue,0,1,0.905,0,0.0,-10,1
12ide102xqajrz6cxib9berc,2,221,Win,56,No-Go,NGW,rune_01_ingwaz,yellow,0,1,1.032,0,0.0,+1,1
12ide102xqajrz6cxib9berc,2,222,Lose,56,Go,GAL,rune_01_yr,blue,1,1,0.839,1,0.0,-1,1
12ide102xqajrz6cxib9berc,2,223,Win,56,Go,GW,rune_01_ear,yellow,1,1,0.659,1,0.0,+10,1
12ide102xqajrz6cxib9berc,2,224,Lose,56,No-Go,NGAL,rune_01_ger,blue,0,1,1.091,0,0.0,-10,1
12ide102xqajrz6cxib9berc,2,225,Lose,57,Go,GAL,rune_01_yr,blue,1,0,,0,0.0,-10,1
12ide102xqajrz6cxib9berc,2,226,Win,57,Go,GW,rune_01_ear,yellow,1,1,0.814,1,0.0,+10,1
12ide102xqajrz6cxib9berc,2,227,Lose,57,No-Go,NGAL,rune_01_ger,blue,0,0,,1,1.0,-10,0
12ide102xqajrz6cxib9berc,2,228,Win,57,No-Go,NGW,rune_01_ingwaz,yellow,0,1,0.69,0,1.0,+10,1
12ide102xqajrz6cxib9berc,2,229,Win,58,Go,GW,rune_01_ear,yellow,1,1,1.091,1,1.0,+1,1
12ide102xqajrz6cxib9berc,2,230,Win,58,No-Go,NGW,rune_01_ingwaz,yellow,0,1,0.782,0,0.0,+1,1
12ide102xqajrz6cxib9berc,2,231,Lose,58,Go,GAL,rune_01_yr,blue,1,1,1.031,1,1.0,-10,1
12ide102xqajrz6cxib9berc,2,232,Lose,58,No-Go,NGAL,rune_01_ger,blue,0,0,,1,0.0,-1,0
12ide102xqajrz6cxib9berc,2,233,Win,59,Go,GW,rune_01_ear,yellow,1,1,0.866,1,0.0,+10,1
12ide102xqajrz6cxib9berc,2,234,Lose,59,Go,GAL,rune_01_yr,blue,1,0,,0,0.0,-10,0
12ide102xqajrz6cxib9berc,2,235,Lose,59,No-Go,NGAL,rune_01_ger,blue,0,1,0.799,0,0.0,-10,2
12ide102xqajrz6cxib9berc,2,236,Win,59,No-Go,NGW,rune_01_ingwaz,yellow,0,0,,1,0.0,+10,1
12ide102xqajrz6cxib9berc,2,237,Lose,60,No-Go,NGAL,rune_01_ger,blue,0,0,,1,0.0,-1,0
12ide102xqajrz6cxib9berc,2,238,Win,60,No-Go,NGW,rune_01_ingwaz,yellow,0,1,0.995,0,0.0,+1,1
12ide102xqajrz6cxib9berc,2,239,Win,60,Go,GW,rune_01_ear,yellow,1,1,0.8,1,0.0,+10,1
12ide102xqajrz6cxib9berc,2,240,Lose,60,Go,GAL,rune_01_yr,blue,1,0,,0,0.0,-10,0
1dneojj1ydge4lw1zgtzfoj8,1,1,Lose,1,Go,GAL,rune_02_os,blue,1,1,0.487,1,0.0,-1,1
1dneojj1ydge4lw1zgtzfoj8,1,2,Lose,1,No-Go,NGAL,rune_02_raido,blue,0,1,0.674,0,0.0,-10,1
1dneojj1ydge4lw1zgtzfoj8,1,3,Win,1,No-Go,NGW,rune_02_cen,yellow,0,1,0.51,0,0.0,+1,1
1dneojj1ydge4lw1zgtzfoj8,1,4,Win,1,Go,GW,rune_02_haglaz,yellow,1,1,0.539,1,0.0,+10,1
1dneojj1ydge4lw1zgtzfoj8,1,5,Win,2,No-Go,NGW,rune_02_cen,yellow,0,1,0.486,0,0.0,+1,1
1dneojj1ydge4lw1zgtzfoj8,1,6,Lose,2,Go,GAL,rune_02_os,blue,1,0,,0,0.0,-10,0
1dneojj1ydge4lw1zgtzfoj8,1,7,Win,2,Go,GW,rune_02_haglaz,yellow,1,1,0.465,1,0.0,+10,1
1dneojj1ydge4lw1zgtzfoj8,1,8,Lose,2,No-Go,NGAL,rune_02_raido,blue,0,0,,1,1.0,-10,0
1dneojj1ydge4lw1zgtzfoj8,1,9,Lose,3,Go,GAL,rune_02_os,blue,1,1,0.897,1,1.0,-10,1
1dneojj1ydge4lw1zgtzfoj8,1,10,Lose,3,No-Go,NGAL,rune_02_raido,blue,0,1,1.149,0,0.0,-10,1
1dneojj1ydge4lw1zgtzfoj8,1,11,Win,3,Go,GW,rune_02_haglaz,yellow,1,1,0.605,1,1.0,+1,1
1dneojj1ydge4lw1zgtzfoj8,1,12,Win,3,No-Go,NGW,rune_02_cen,yellow,0,1,0.553,0,1.0,+10,1
1dneojj1ydge4lw1zgtzfoj8,1,13,Lose,4,No-Go,NGAL,rune_02_raido,blue,0,1,0.595,0,0.0,-10,1
1dneojj1ydge4lw1zgtzfoj8,1,14,Lose,4,Go,GAL,rune_02_os,blue,1,0,,0,0.0,-10,0
1dneojj1ydge4lw1zgtzfoj8,1,15,Win,4,No-Go,NGW,rune_02_cen,yellow,0,1,0.454,0,0.0,+1,1
1dneojj1ydge4lw1zgtzfoj8,1,16,Win,4,Go,GW,rune_02_haglaz,yellow,1,1,0.441,1,0.0,+10,1
1dneojj1ydge4lw1zgtzfoj8,1,17,Lose,5,Go,GAL,rune_02_os,blue,1,1,0.622,1,0.0,-1,1
1dneojj1ydge4lw1zgtzfoj8,1,18,Win,5,Go,GW,rune_02_haglaz,yellow,1,1,0.448,1,0.0,+10,1
1dneojj1ydge4lw1zgtzfoj8,1,19,Lose,5,No-Go,NGAL,rune_02_raido,blue,0,1,0.497,0,0.0,-10,1
1dneojj1ydge4lw1zgtzfoj8,1,20,Win,5,No-Go,NGW,rune_02_cen,yellow,0,1,0.529,0,0.0,+1,1
1dneojj1ydge4lw1zgtzfoj8,1,21,Lose,6,No-Go,NGAL,rune_02_raido,blue,0,0,,1,0.0,-1,0
1dneojj1ydge4lw1zgtzfoj8,1,22,Lose,6,Go,GAL,rune_02_os,blue,1,1,0.933,1,0.0,-1,1
1dneojj1ydge4lw1zgtzfoj8,1,23,Win,6,Go,GW,rune_02_haglaz,yellow,1,1,0.544,1,0.0,+10,1
1dneojj1ydge4lw1zgtzfoj8,1,24,Win,6,No-Go,NGW,rune_02_cen,yellow,0,1,0.473,0,0.0,+1,1
1dneojj1ydge4lw1zgtzfoj8,1,25,Win,7,Go,GW,rune_02_haglaz,yellow,1,1,0.403,1,1.0,+1,1
1dneojj1ydge4lw1zgtzfoj8,1,26,Lose,7,Go,GAL,rune_02_os,blue,1,0,,0,0.0,-10,0
1dneojj1ydge4lw1zgtzfoj8,1,27,Win,7,No-Go,NGW,rune_02_cen,yellow,0,1,0.385,0,0.0,+1,1
1dneojj1ydge4lw1zgtzfoj8,1,28,Lose,7,No-Go,NGAL,rune_02_raido,blue,0,1,0.93,0,1.0,-1,1
1dneojj1ydge4lw1zgtzfoj8,1,29,Win,8,No-Go,NGW,rune_02_cen,yellow,0,1,0.781,0,0.0,+1,1
1dneojj1ydge4lw1zgtzfoj8,1,30,Lose,8,Go,GAL,rune_02_os,blue,1,0,,0,0.0,-10,0
1dneojj1ydge4lw1zgtzfoj8,1,31,Win,8,Go,GW,rune_02_haglaz,yellow,1,1,0.479,1,0.0,+10,1
1dneojj1ydge4lw1zgtzfoj8,1,32,Lose,8,No-Go,NGAL,rune_02_raido,blue,0,0,,1,0.0,-1,0
1dneojj1ydge4lw1zgtzfoj8,1,33,Lose,9,No-Go,NGAL,rune_02_raido,blue,0,0,,1,0.0,-1,0
1dneojj1ydge4lw1zgtzfoj8,1,34,Win,9,Go,GW,rune_02_haglaz,yellow,1,1,0.395,1,0.0,+10,1
1dneojj1ydge4lw1zgtzfoj8,1,35,Lose,9,Go,GAL,rune_02_os,blue,1,1,0.876,1,1.0,-10,1
1dneojj1ydge4lw1zgtzfoj8,1,36,Win,9,No-Go,NGW,rune_02_cen,yellow,0,1,0.37,0,0.0,+1,1
1dneojj1ydge4lw1zgtzfoj8,1,37,Lose,10,Go,GAL,rune_02_os,blue,1,1,0.721,1,0.0,-1,1
1dneojj1ydge4lw1zgtzfoj8,1,38,Lose,10,No-Go,NGAL,rune_02_raido,blue,0,0,,1,0.0,-1,0
1dneojj1ydge4lw1zgtzfoj8,1,39,Win,10,No-Go,NGW,rune_02_cen,yellow,0,1,0.478,0,1.0,+10,1
1dneojj1ydge4lw1zgtzfoj8,1,40,Win,10,Go,GW,rune_02_haglaz,yellow,1,1,0.527,1,0.0,+10,1
1dneojj1ydge4lw1zgtzfoj8,1,41,Win,11,No-Go,NGW,rune_02_cen,yellow,0,0,,1,0.0,+10,0
1dneojj1ydge4lw1zgtzfoj8,1,42,Win,11,Go,GW,rune_02_haglaz,yellow,1,1,0.413,1,0.0,+10,1
1dneojj1ydge4lw1zgtzfoj8,1,43,Lose,11,Go,GAL,rune_02_os,blue,1,0,,0,0.0,-10,0
1dneojj1ydge4lw1zgtzfoj8,1,44,Lose,11,No-Go,NGAL,rune_02_raido,blue,0,1,0.767,0,0.0,-10,1
1dneojj1ydge4lw1zgtzfoj8,1,45,Lose,12,No-Go,NGAL,rune_02_raido,blue,0,0,,1,0.0,-1,0
1dneojj1ydge4lw1zgtzfoj8,1,46,Win,12,No-Go,NGW,rune_02_cen,yellow,0,1,0.519,0,0.0,+1,1
1dneojj1ydge4lw1zgtzfoj8,1,47,Win,12,Go,GW,rune_02_haglaz,yellow,1,0,,0,0.0,+1,0
1dneojj1ydge4lw1zgtzfoj8,1,48,Lose,12,Go,GAL,rune_02_os,blue,1,0,,0,0.0,-10,0
1dneojj1ydge4lw1zgtzfoj8,1,49,Win,13,Go,GW,rune_02_haglaz,yellow,1,1,0.44,1,0.0,+10,1
1dneojj1ydge4lw1zgtzfoj8,1,50,Lose,13,Go,GAL,rune_02_os,blue,1,0,,0,0.0,-10,0
1dneojj1ydge4lw1zgtzfoj8,1,51,Win,13,No-Go,NGW,rune_02_cen,yellow,0,1,0.475,0,1.0,+10,1
1dneojj1ydge4lw1zgtzfoj8,1,52,Lose,13,No-Go,NGAL,rune_02_raido,blue,0,0,,1,1.0,-10,0
1dneojj1ydge4lw1zgtzfoj8,1,53,Win,14,No-Go,NGW,rune_02_cen,yellow,0,1,0.358,0,0.0,+1,1
1dneojj1ydge4lw1zgtzfoj8,1,54,Win,14,Go,GW,rune_02_haglaz,yellow,1,1,0.471,1,0.0,+10,1
1dneojj1ydge4lw1zgtzfoj8,1,55,Lose,14,Go,GAL,rune_02_os,blue,1,0,,0,0.0,-10,0
1dneojj1ydge4lw1zgtzfoj8,1,56,Lose,14,No-Go,NGAL,rune_02_raido,blue,0,0,,1,0.0,-1,0
1dneojj1ydge4lw1zgtzfoj8,1,57,Win,15,No-Go,NGW,rune_02_cen,yellow,0,1,0.436,0,0.0,+1,1
1dneojj1ydge4lw1zgtzfoj8,1,58,Win,15,Go,GW,rune_02_haglaz,yellow,1,0,,0,1.0,+10,0
1dneojj1ydge4lw1zgtzfoj8,1,59,Lose,15,No-Go,NGAL,rune_02_raido,blue,0,0,,1,0.0,-1,0
1dneojj1ydge4lw1zgtzfoj8,1,60,Lose,15,Go,GAL,rune_02_os,blue,1,1,1.024,1,1.0,-10,1
1dneojj1ydge4lw1zgtzfoj8,1,61,Lose,16,Go,GAL,rune_02_os,blue,1,0,,0,0.0,-10,0
1dneojj1ydge4lw1zgtzfoj8,1,62,Lose,16,No-Go,NGAL,rune_02_raido,blue,0,0,,1,0.0,-1,0
1dneojj1ydge4lw1zgtzfoj8,1,63,Win,16,No-Go,NGW,rune_02_cen,yellow,0,1,0.416,0,1.0,+10,1
1dneojj1ydge4lw1zgtzfoj8,1,64,Win,16,Go,GW,rune_02_haglaz,yellow,1,1,0.513,1,1.0,+1,1
1dneojj1ydge4lw1zgtzfoj8,1,65,Lose,17,No-Go,NGAL,rune_02_raido,blue,0,0,,1,0.0,-1,0
1dneojj1ydge4lw1zgtzfoj8,1,66,Win,17,No-Go,NGW,rune_02_cen,yellow,0,1,0.406,0,0.0,+1,1
1dneojj1ydge4lw1zgtzfoj8,1,67,Win,17,Go,GW,rune_02_haglaz,yellow,1,1,0.929,1,0.0,+10,1
1dneojj1ydge4lw1zgtzfoj8,1,68,Lose,17,Go,GAL,rune_02_os,blue,1,0,,0,0.0,-10,0
1dneojj1ydge4lw1zgtzfoj8,1,69,Win,18,Go,GW,rune_02_haglaz,yellow,1,1,0.472,1,0.0,+10,1
1dneojj1ydge4lw1zgtzfoj8,1,70,Lose,18,No-Go,NGAL,rune_02_raido,blue,0,0,,1,0.0,-1,0
1dneojj1ydge4lw1zgtzfoj8,1,71,Win,18,No-Go,NGW,rune_02_cen,yellow,0,1,0.443,0,0.0,+1,1
1dneojj1ydge4lw1zgtzfoj8,1,72,Lose,18,Go,GAL,rune_02_os,blue,1,0,,0,0.0,-10,0
1dneojj1ydge4lw1zgtzfoj8,1,73,Lose,19,No-Go,NGAL,rune_02_raido,blue,0,0,,1,1.0,-10,0
1dneojj1ydge4lw1zgtzfoj8,1,74,Win,19,No-Go,NGW,rune_02_cen,yellow,0,0,,1,0.0,+10,0
1dneojj1ydge4lw1zgtzfoj8,1,75,Win,19,Go,GW,rune_02_haglaz,yellow,1,1,1.302,1,0.0,+10,1
1dneojj1ydge4lw1zgtzfoj8,1,76,Lose,19,Go,GAL,rune_02_os,blue,1,0,,0,1.0,-1,0
1dneojj1ydge4lw1zgtzfoj8,1,77,Win,20,Go,GW,rune_02_haglaz,yellow,1,1,0.44,1,0.0,+10,1
1dneojj1ydge4lw1zgtzfoj8,1,78,Lose,20,No-Go,NGAL,rune_02_raido,blue,0,0,,1,0.0,-1,0
1dneojj1ydge4lw1zgtzfoj8,1,79,Lose,20,Go,GAL,rune_02_os,blue,1,1,1.044,1,0.0,-1,1
1dneojj1ydge4lw1zgtzfoj8,1,80,Win,20,No-Go,NGW,rune_02_cen,yellow,0,1,0.526,0,0.0,+1,1
1dneojj1ydge4lw1zgtzfoj8,1,81,Lose,21,Go,GAL,rune_02_os,blue,1,0,,0,1.0,-1,0
1dneojj1ydge4lw1zgtzfoj8,1,82,Win,21,No-Go,NGW,rune_02_cen,yellow,0,1,0.448,0,1.0,+10,1
1dneojj1ydge4lw1zgtzfoj8,1,83,Lose,21,No-Go,NGAL,rune_02_raido,blue,0,0,,1,1.0,-10,0
1dneojj1ydge4lw1zgtzfoj8,1,84,Win,21,Go,GW,rune_02_haglaz,yellow,1,1,0.577,1,0.0,+10,1
1dneojj1ydge4lw1zgtzfoj8,1,85,Lose,22,Go,GAL,rune_02_os,blue,1,0,,0,0.0,-10,0
1dneojj1ydge4lw1zgtzfoj8,1,86,Win,22,Go,GW,rune_02_haglaz,yellow,1,0,,0,0.0,+1,1
1dneojj1ydge4lw1zgtzfoj8,1,87,Lose,22,No-Go,NGAL,rune_02_raido,blue,0,0,,1,0.0,-1,0
1dneojj1ydge4lw1zgtzfoj8,1,88,Win,22,No-Go,NGW,rune_02_cen,yellow,0,1,0.467,0,0.0,+1,1
1dneojj1ydge4lw1zgtzfoj8,1,89,Lose,23,No-Go,NGAL,rune_02_raido,blue,0,0,,1,0.0,-1,0
1dneojj1ydge4lw1zgtzfoj8,1,90,Win,23,No-Go,NGW,rune_02_cen,yellow,0,1,0.5,0,0.0,+1,1
1dneojj1ydge4lw1zgtzfoj8,1,91,Lose,23,Go,GAL,rune_02_os,blue,1,0,,0,0.0,-10,0
1dneojj1ydge4lw1zgtzfoj8,1,92,Win,23,Go,GW,rune_02_haglaz,yellow,1,1,0.467,1,0.0,+10,1
1dneojj1ydge4lw1zgtzfoj8,1,93,Win,24,No-Go,NGW,rune_02_cen,yellow,0,1,0.476,0,0.0,+1,1
1dneojj1ydge4lw1zgtzfoj8,1,94,Win,24,Go,GW,rune_02_haglaz,yellow,1,1,0.652,1,1.0,+1,1
1dneojj1ydge4lw1zgtzfoj8,1,95,Lose,24,Go,GAL,rune_02_os,blue,1,0,,0,0.0,-10,0
1dneojj1ydge4lw1zgtzfoj8,1,96,Lose,24,No-Go,NGAL,rune_02_raido,blue,0,0,,1,0.0,-1,0
1dneojj1ydge4lw1zgtzfoj8,1,97,Lose,25,No-Go,NGAL,rune_02_raido,blue,0,0,,1,0.0,-1,0
1dneojj1ydge4lw1zgtzfoj8,1,98,Lose,25,Go,GAL,rune_02_os,blue,1,0,,0,0.0,-10,0
1dneojj1ydge4lw1zgtzfoj8,1,99,Win,25,Go,GW,rune_02_haglaz,yellow,1,1,0.344,1,0.0,+10,1
1dneojj1ydge4lw1zgtzfoj8,1,100,Win,25,No-Go,NGW,rune_02_cen,yellow,0,1,0.4,0,0.0,+1,1
1dneojj1ydge4lw1zgtzfoj8,1,101,Lose,26,No-Go,NGAL,rune_02_raido,blue,0,0,,1,0.0,-1,0
1dneojj1ydge4lw1zgtzfoj8,1,102,Win,26,No-Go,NGW,rune_02_cen,yellow,0,1,0.558,0,0.0,+1,1
1dneojj1ydge4lw1zgtzfoj8,1,103,Win,26,Go,GW,rune_02_haglaz,yellow,1,1,0.489,1,1.0,+1,1
1dneojj1ydge4lw1zgtzfoj8,1,104,Lose,26,Go,GAL,rune_02_os,blue,1,0,,0,1.0,-1,0
1dneojj1ydge4lw1zgtzfoj8,1,105,Lose,27,Go,GAL,rune_02_os,blue,1,0,,0,0.0,-10,0
1dneojj1ydge4lw1zgtzfoj8,1,106,Win,27,Go,GW,rune_02_haglaz,yellow,1,1,0.426,1,0.0,+10,1
1dneojj1ydge4lw1zgtzfoj8,1,107,Win,27,No-Go,NGW,rune_02_cen,yellow,0,1,0.585,0,1.0,+10,1
1dneojj1ydge4lw1zgtzfoj8,1,108,Lose,27,No-Go,NGAL,rune_02_raido,blue,0,0,,1,0.0,-1,0
1dneojj1ydge4lw1zgtzfoj8,1,109,Lose,28,No-Go,NGAL,rune_02_raido,blue,0,0,,1,0.0,-1,0
1dneojj1ydge4lw1zgtzfoj8,1,110,Win,28,Go,GW,rune_02_haglaz,yellow,1,1,0.339,1,0.0,+10,1
1dneojj1ydge4lw1zgtzfoj8,1,111,Lose,28,Go,GAL,rune_02_os,blue,1,0,,0,0.0,-10,0
1dneojj1ydge4lw1zgtzfoj8,1,112,Win,28,No-Go,NGW,rune_02_cen,yellow,0,1,1.064,0,0.0,+1,1
1dneojj1ydge4lw1zgtzfoj8,1,113,Lose,29,No-Go,NGAL,rune_02_raido,blue,0,0,,1,1.0,-10,0
1dneojj1ydge4lw1zgtzfoj8,1,114,Win,29,No-Go,NGW,rune_02_cen,yellow,0,1,0.382,0,0.0,+1,1
1dneojj1ydge4lw1zgtzfoj8,1,115,Lose,29,Go,GAL,rune_02_os,blue,1,0,,0,0.0,-10,0
1dneojj1ydge4lw1zgtzfoj8,1,116,Win,29,Go,GW,rune_02_haglaz,yellow,1,1,0.352,1,0.0,+10,1
1dneojj1ydge4lw1zgtzfoj8,1,117,Lose,30,Go,GAL,rune_02_os,blue,1,0,,0,0.0,-10,0
1dneojj1ydge4lw1zgtzfoj8,1,118,Win,30,Go,GW,rune_02_haglaz,yellow,1,1,0.712,1,0.0,+10,1
1dneojj1ydge4lw1zgtzfoj8,1,119,Lose,30,No-Go,NGAL,rune_02_raido,blue,0,0,,1,0.0,-1,0
1dneojj1ydge4lw1zgtzfoj8,1,120,Win,30,No-Go,NGW,rune_02_cen,yellow,0,1,0.36,0,0.0,+1,1
1dneojj1ydge4lw1zgtzfoj8,2,121,Win,31,Go,GW,rune_01_ingwaz,yellow,1,1,0.441,1,0.0,+10,1
1dneojj1ydge4lw1zgtzfoj8,2,122,Lose,31,Go,GAL,rune_01_yr,blue,1,1,0.559,1,0.0,-1,1
1dneojj1ydge4lw1zgtzfoj8,2,123,Win,31,No-Go,NGW,rune_01_ger,yellow,0,1,0.533,0,0.0,+1,1
1dneojj1ydge4lw1zgtzfoj8,2,124,Lose,31,No-Go,NGAL,rune_01_ear,blue,0,0,,1,0.0,-1,0
1dneojj1ydge4lw1zgtzfoj8,2,125,Win,32,No-Go,NGW,rune_01_ger,yellow,0,1,0.424,0,0.0,+1,1
1dneojj1ydge4lw1zgtzfoj8,2,126,Win,32,Go,GW,rune_01_ingwaz,yellow,1,1,0.49,1,0.0,+10,1
1dneojj1ydge4lw1zgtzfoj8,2,127,Lose,32,Go,GAL,rune_01_yr,blue,1,0,,0,0.0,-10,0
1dneojj1ydge4lw1zgtzfoj8,2,128,Lose,32,No-Go,NGAL,rune_01_ear,blue,0,0,,1,1.0,-10,0
1dneojj1ydge4lw1zgtzfoj8,2,129,Lose,33,Go,GAL,rune_01_yr,blue,1,0,,0,1.0,-1,0
1dneojj1ydge4lw1zgtzfoj8,2,130,Win,33,Go,GW,rune_01_ingwaz,yellow,1,1,0.514,1,1.0,+1,1
1dneojj1ydge4lw1zgtzfoj8,2,131,Win,33,No-Go,NGW,rune_01_ger,yellow,0,1,0.477,0,1.0,+10,1
1dneojj1ydge4lw1zgtzfoj8,2,132,Lose,33,No-Go,NGAL,rune_01_ear,blue,0,0,,1,0.0,-1,0
1dneojj1ydge4lw1zgtzfoj8,2,133,Win,34,No-Go,NGW,rune_01_ger,yellow,0,1,0.426,0,0.0,+1,1
1dneojj1ydge4lw1zgtzfoj8,2,134,Win,34,Go,GW,rune_01_ingwaz,yellow,1,1,0.486,1,0.0,+10,1
1dneojj1ydge4lw1zgtzfoj8,2,135,Lose,34,No-Go,NGAL,rune_01_ear,blue,0,0,,1,0.0,-1,0
1dneojj1ydge4lw1zgtzfoj8,2,136,Lose,34,Go,GAL,rune_01_yr,blue,1,0,,0,0.0,-10,0
1dneojj1ydge4lw1zgtzfoj8,2,137,Lose,35,No-Go,NGAL,rune_01_ear,blue,0,0,,1,0.0,-1,0
1dneojj1ydge4lw1zgtzfoj8,2,138,Lose,35,Go,GAL,rune_01_yr,blue,1,0,,0,0.0,-10,0
1dneojj1ydge4lw1zgtzfoj8,2,139,Win,35,Go,GW,rune_01_ingwaz,yellow,1,1,0.41,1,0.0,+10,1
1dneojj1ydge4lw1zgtzfoj8,2,140,Win,35,No-Go,NGW,rune_01_ger,yellow,0,1,0.668,0,0.0,+1,1
1dneojj1ydge4lw1zgtzfoj8,2,141,Lose,36,No-Go,NGAL,rune_01_ear,blue,0,0,,1,0.0,-1,0
1dneojj1ydge4lw1zgtzfoj8,2,142,Win,36,No-Go,NGW,rune_01_ger,yellow,0,1,0.432,0,0.0,+1,1
1dneojj1ydge4lw1zgtzfoj8,2,143,Lose,36,Go,GAL,rune_01_yr,blue,1,0,,0,0.0,-10,0
1dneojj1ydge4lw1zgtzfoj8,2,144,Win,36,Go,GW,rune_01_ingwaz,yellow,1,1,0.421,1,0.0,+10,1
1dneojj1ydge4lw1zgtzfoj8,2,145,Lose,37,No-Go,NGAL,rune_01_ear,blue,0,0,,1,1.0,-10,0
1dneojj1ydge4lw1zgtzfoj8,2,146,Win,37,No-Go,NGW,rune_01_ger,yellow,0,1,0.886,0,0.0,+1,1
1dneojj1ydge4lw1zgtzfoj8,2,147,Win,37,Go,GW,rune_01_ingwaz,yellow,1,1,0.324,1,1.0,+1,1
1dneojj1ydge4lw1zgtzfoj8,2,148,Lose,37,Go,GAL,rune_01_yr,blue,1,0,,0,0.0,-10,0
1dneojj1ydge4lw1zgtzfoj8,2,149,Win,38,No-Go,NGW,rune_01_ger,yellow,0,1,0.489,0,0.0,+1,1
1dneojj1ydge4lw1zgtzfoj8,2,150,Lose,38,No-Go,NGAL,rune_01_ear,blue,0,0,,1,0.0,-1,0
1dneojj1ydge4lw1zgtzfoj8,2,151,Win,38,Go,GW,rune_01_ingwaz,yellow,1,1,0.503,1,0.0,+10,1
1dneojj1ydge4lw1zgtzfoj8,2,152,Lose,38,Go,GAL,rune_01_yr,blue,1,0,,0,0.0,-10,0
1dneojj1ydge4lw1zgtzfoj8,2,153,Win,39,Go,GW,rune_01_ingwaz,yellow,1,1,0.382,1,0.0,+10,1
1dneojj1ydge4lw1zgtzfoj8,2,154,Lose,39,No-Go,NGAL,rune_01_ear,blue,0,0,,1,0.0,-1,0
1dneojj1ydge4lw1zgtzfoj8,2,155,Win,39,No-Go,NGW,rune_01_ger,yellow,0,1,0.682,0,0.0,+1,1
1dneojj1ydge4lw1zgtzfoj8,2,156,Lose,39,Go,GAL,rune_01_yr,blue,1,0,,0,1.0,-1,0
1dneojj1ydge4lw1zgtzfoj8,2,157,Lose,40,Go,GAL,rune_01_yr,blue,1,0,,0,0.0,-10,0
1dneojj1ydge4lw1zgtzfoj8,2,158,Win,40,Go,GW,rune_01_ingwaz,yellow,1,1,0.558,1,0.0,+10,1
1dneojj1ydge4lw1zgtzfoj8,2,159,Win,40,No-Go,NGW,rune_01_ger,yellow,0,1,0.585,0,1.0,+10,1
1dneojj1ydge4lw1zgtzfoj8,2,160,Lose,40,No-Go,NGAL,rune_01_ear,blue,0,0,,1,0.0,-1,0
1dneojj1ydge4lw1zgtzfoj8,2,161,Win,41,No-Go,NGW,rune_01_ger,yellow,0,1,0.391,0,0.0,+1,1
1dneojj1ydge4lw1zgtzfoj8,2,162,Lose,41,Go,GAL,rune_01_yr,blue,1,0,,0,0.0,-10,0
1dneojj1ydge4lw1zgtzfoj8,2,163,Win,41,Go,GW,rune_01_ingwaz,yellow,1,1,0.434,1,0.0,+10,1
1dneojj1ydge4lw1zgtzfoj8,2,164,Lose,41,No-Go,NGAL,rune_01_ear,blue,0,0,,1,0.0,-1,0
1dneojj1ydge4lw1zgtzfoj8,2,165,Win,42,No-Go,NGW,rune_01_ger,yellow,0,1,0.36,0,0.0,+1,1
1dneojj1ydge4lw1zgtzfoj8,2,166,Lose,42,Go,GAL,rune_01_yr,blue,1,0,,0,0.0,-10,0
1dneojj1ydge4lw1zgtzfoj8,2,167,Lose,42,No-Go,NGAL,rune_01_ear,blue,0,0,,1,0.0,-1,0
1dneojj1ydge4lw1zgtzfoj8,2,168,Win,42,Go,GW,rune_01_ingwaz,yellow,1,1,0.395,1,0.0,+10,1
1dneojj1ydge4lw1zgtzfoj8,2,169,Win,43,No-Go,NGW,rune_01_ger,yellow,0,1,0.399,0,1.0,+10,1
1dneojj1ydge4lw1zgtzfoj8,2,170,Lose,43,Go,GAL,rune_01_yr,blue,1,0,,0,0.0,-10,0
1dneojj1ydge4lw1zgtzfoj8,2,171,Win,43,Go,GW,rune_01_ingwaz,yellow,1,1,0.374,1,0.0,+10,1
1dneojj1ydge4lw1zgtzfoj8,2,172,Lose,43,No-Go,NGAL,rune_01_ear,blue,0,0,,1,1.0,-10,0
1dneojj1ydge4lw1zgtzfoj8,2,173,Win,44,Go,GW,rune_01_ingwaz,yellow,1,1,0.451,1,0.0,+10,1
1dneojj1ydge4lw1zgtzfoj8,2,174,Win,44,No-Go,NGW,rune_01_ger,yellow,0,1,0.364,0,0.0,+1,1
1dneojj1ydge4lw1zgtzfoj8,2,175,Lose,44,Go,GAL,rune_01_yr,blue,1,0,,0,0.0,-10,0
1dneojj1ydge4lw1zgtzfoj8,2,176,Lose,44,No-Go,NGAL,rune_01_ear,blue,0,0,,1,0.0,-1,0
1dneojj1ydge4lw1zgtzfoj8,2,177,Lose,45,No-Go,NGAL,rune_01_ear,blue,0,0,,1,0.0,-1,0
1dneojj1ydge4lw1zgtzfoj8,2,178,Win,45,No-Go,NGW,rune_01_ger,yellow,0,1,0.37,0,0.0,+1,1
1dneojj1ydge4lw1zgtzfoj8,2,179,Lose,45,Go,GAL,rune_01_yr,blue,1,0,,0,1.0,-1,0
1dneojj1ydge4lw1zgtzfoj8,2,180,Win,45,Go,GW,rune_01_ingwaz,yellow,1,1,0.983,1,1.0,+1,1
1dneojj1ydge4lw1zgtzfoj8,2,181,Win,46,Go,GW,rune_01_ingwaz,yellow,1,1,0.391,1,1.0,+1,1
1dneojj1ydge4lw1zgtzfoj8,2,182,Lose,46,Go,GAL,rune_01_yr,blue,1,0,,0,0.0,-10,0
1dneojj1ydge4lw1zgtzfoj8,2,183,Lose,46,No-Go,NGAL,rune_01_ear,blue,0,0,,1,0.0,-1,0
1dneojj1ydge4lw1zgtzfoj8,2,184,Win,46,No-Go,NGW,rune_01_ger,yellow,0,1,0.471,0,1.0,+10,1
1dneojj1ydge4lw1zgtzfoj8,2,185,Win,47,Go,GW,rune_01_ingwaz,yellow,1,1,1.186,1,0.0,+10,1
1dneojj1ydge4lw1zgtzfoj8,2,186,Lose,47,Go,GAL,rune_01_yr,blue,1,0,,0,0.0,-10,0
1dneojj1ydge4lw1zgtzfoj8,2,187,Lose,47,No-Go,NGAL,rune_01_ear,blue,0,0,,1,0.0,-1,0
1dneojj1ydge4lw1zgtzfoj8,2,188,Win,47,No-Go,NGW,rune_01_ger,yellow,0,1,0.345,0,0.0,+1,1
1dneojj1ydge4lw1zgtzfoj8,2,189,Win,48,Go,GW,rune_01_ingwaz,yellow,1,1,0.442,1,0.0,+10,1
1dneojj1ydge4lw1zgtzfoj8,2,190,Win,48,No-Go,NGW,rune_01_ger,yellow,0,1,0.727,0,0.0,+1,1
1dneojj1ydge4lw1zgtzfoj8,2,191,Lose,48,Go,GAL,rune_01_yr,blue,1,0,,0,0.0,-10,0
1dneojj1ydge4lw1zgtzfoj8,2,192,Lose,48,No-Go,NGAL,rune_01_ear,blue,0,0,,1,0.0,-1,0
1dneojj1ydge4lw1zgtzfoj8,2,193,Win,49,Go,GW,rune_01_ingwaz,yellow,1,1,0.304,1,0.0,+10,1
1dneojj1ydge4lw1zgtzfoj8,2,194,Lose,49,No-Go,NGAL,rune_01_ear,blue,0,0,,1,1.0,-10,0
1dneojj1ydge4lw1zgtzfoj8,2,195,Win,49,No-Go,NGW,rune_01_ger,yellow,0,1,0.377,0,0.0,+1,1
1dneojj1ydge4lw1zgtzfoj8,2,196,Lose,49,Go,GAL,rune_01_yr,blue,1,0,,0,1.0,-1,0
1dneojj1ydge4lw1zgtzfoj8,2,197,Win,50,Go,GW,rune_01_ingwaz,yellow,1,1,0.462,1,0.0,+10,1
1dneojj1ydge4lw1zgtzfoj8,2,198,Lose,50,No-Go,NGAL,rune_01_ear,blue,0,0,,1,0.0,-1,0
1dneojj1ydge4lw1zgtzfoj8,2,199,Lose,50,Go,GAL,rune_01_yr,blue,1,0,,0,0.0,-10,0
1dneojj1ydge4lw1zgtzfoj8,2,200,Win,50,No-Go,NGW,rune_01_ger,yellow,0,1,0.491,0,0.0,+1,1
1dneojj1ydge4lw1zgtzfoj8,2,201,Lose,51,Go,GAL,rune_01_yr,blue,1,0,,0,1.0,-1,0
1dneojj1ydge4lw1zgtzfoj8,2,202,Win,51,No-Go,NGW,rune_01_ger,yellow,0,1,1.096,0,1.0,+10,1
1dneojj1ydge4lw1zgtzfoj8,2,203,Win,51,Go,GW,rune_01_ingwaz,yellow,1,1,0.661,1,0.0,+10,1
1dneojj1ydge4lw1zgtzfoj8,2,204,Lose,51,No-Go,NGAL,rune_01_ear,blue,0,0,,1,1.0,-10,0
1dneojj1ydge4lw1zgtzfoj8,2,205,Lose,52,No-Go,NGAL,rune_01_ear,blue,0,0,,1,0.0,-1,0
1dneojj1ydge4lw1zgtzfoj8,2,206,Win,52,Go,GW,rune_01_ingwaz,yellow,1,1,0.617,1,0.0,+10,1
1dneojj1ydge4lw1zgtzfoj8,2,207,Win,52,No-Go,NGW,rune_01_ger,yellow,0,0,,1,0.0,+10,0
1dneojj1ydge4lw1zgtzfoj8,2,208,Lose,52,Go,GAL,rune_01_yr,blue,1,0,,0,0.0,-10,0
1dneojj1ydge4lw1zgtzfoj8,2,209,Lose,53,No-Go,NGAL,rune_01_ear,blue,0,0,,1,0.0,-1,0
1dneojj1ydge4lw1zgtzfoj8,2,210,Win,53,Go,GW,rune_01_ingwaz,yellow,1,1,0.442,1,0.0,+10,1
1dneojj1ydge4lw1zgtzfoj8,2,211,Win,53,No-Go,NGW,rune_01_ger,yellow,0,1,0.407,0,0.0,+1,1
1dneojj1ydge4lw1zgtzfoj8,2,212,Lose,53,Go,GAL,rune_01_yr,blue,1,0,,0,0.0,-10,0
1dneojj1ydge4lw1zgtzfoj8,2,213,Lose,54,Go,GAL,rune_01_yr,blue,1,0,,0,0.0,-10,0
1dneojj1ydge4lw1zgtzfoj8,2,214,Win,54,Go,GW,rune_01_ingwaz,yellow,1,1,0.382,1,1.0,+1,1
1dneojj1ydge4lw1zgtzfoj8,2,215,Lose,54,No-Go,NGAL,rune_01_ear,blue,0,0,,1,0.0,-1,0
1dneojj1ydge4lw1zgtzfoj8,2,216,Win,54,No-Go,NGW,rune_01_ger,yellow,0,1,0.555,0,0.0,+1,1
1dneojj1ydge4lw1zgtzfoj8,2,217,Lose,55,No-Go,NGAL,rune_01_ear,blue,0,0,,1,0.0,-1,0
1dneojj1ydge4lw1zgtzfoj8,2,218,Win,55,Go,GW,rune_01_ingwaz,yellow,1,1,0.627,1,0.0,+10,1
1dneojj1ydge4lw1zgtzfoj8,2,219,Lose,55,Go,GAL,rune_01_yr,blue,1,0,,0,0.0,-10,0
1dneojj1ydge4lw1zgtzfoj8,2,220,Win,55,No-Go,NGW,rune_01_ger,yellow,0,1,0.335,0,0.0,+1,1
1dneojj1ydge4lw1zgtzfoj8,2,221,Lose,56,Go,GAL,rune_01_yr,blue,1,0,,0,1.0,-1,0
1dneojj1ydge4lw1zgtzfoj8,2,222,Win,56,Go,GW,rune_01_ingwaz,yellow,1,1,0.33,1,1.0,+1,1
1dneojj1ydge4lw1zgtzfoj8,2,223,Lose,56,No-Go,NGAL,rune_01_ear,blue,0,0,,1,0.0,-1,0
1dneojj1ydge4lw1zgtzfoj8,2,224,Win,56,No-Go,NGW,rune_01_ger,yellow,0,1,0.555,0,0.0,+1,1
1dneojj1ydge4lw1zgtzfoj8,2,225,Lose,57,No-Go,NGAL,rune_01_ear,blue,0,0,,1,0.0,-1,0
1dneojj1ydge4lw1zgtzfoj8,2,226,Win,57,No-Go,NGW,rune_01_ger,yellow,0,1,0.427,0,1.0,+10,1
1dneojj1ydge4lw1zgtzfoj8,2,227,Lose,57,Go,GAL,rune_01_yr,blue,1,0,,0,0.0,-10,0
1dneojj1ydge4lw1zgtzfoj8,2,228,Win,57,Go,GW,rune_01_ingwaz,yellow,1,1,0.496,1,0.0,+10,1
1dneojj1ydge4lw1zgtzfoj8,2,229,Win,58,Go,GW,rune_01_ingwaz,yellow,1,1,1.087,1,0.0,+10,1
1dneojj1ydge4lw1zgtzfoj8,2,230,Win,58,No-Go,NGW,rune_01_ger,yellow,0,1,1.111,0,0.0,+1,1
1dneojj1ydge4lw1zgtzfoj8,2,231,Lose,58,Go,GAL,rune_01_yr,blue,1,0,,0,0.0,-10,0
1dneojj1ydge4lw1zgtzfoj8,2,232,Lose,58,No-Go,NGAL,rune_01_ear,blue,0,0,,1,0.0,-1,0
1dneojj1ydge4lw1zgtzfoj8,2,233,Win,59,No-Go,NGW,rune_01_ger,yellow,0,1,0.501,0,0.0,+1,1
1dneojj1ydge4lw1zgtzfoj8,2,234,Lose,59,Go,GAL,rune_01_yr,blue,1,0,,0,0.0,-10,0
1dneojj1ydge4lw1zgtzfoj8,2,235,Lose,59,No-Go,NGAL,rune_01_ear,blue,0,0,,1,1.0,-10,0
1dneojj1ydge4lw1zgtzfoj8,2,236,Win,59,Go,GW,rune_01_ingwaz,yellow,1,1,0.7,1,0.0,+10,1
1dneojj1ydge4lw1zgtzfoj8,2,237,Win,60,Go,GW,rune_01_ingwaz,yellow,1,1,0.369,1,0.0,+10,1
1dneojj1ydge4lw1zgtzfoj8,2,238,Lose,60,No-Go,NGAL,rune_01_ear,blue,0,0,,1,0.0,-1,0
1dneojj1ydge4lw1zgtzfoj8,2,239,Lose,60,Go,GAL,rune_01_yr,blue,1,0,,0,0.0,-10,0
1dneojj1ydge4lw1zgtzfoj8,2,240,Win,60,No-Go,NGW,rune_01_ger,yellow,0,1,0.506,0,0.0,+1,1
1e7zni3hs3hxwy7aqhg0bkb0,1,1,Win,1,Go,GW,rune_01_ear,blue,1,1,0.467,1,0.0,+10,1
1e7zni3hs3hxwy7aqhg0bkb0,1,2,Lose,1,Go,GAL,rune_01_ingwaz,yellow,1,0,,0,0.0,-10,0
1e7zni3hs3hxwy7aqhg0bkb0,1,3,Win,1,No-Go,NGW,rune_01_yr,blue,0,1,0.659,0,0.0,+1,1
1e7zni3hs3hxwy7aqhg0bkb0,1,4,Lose,1,No-Go,NGAL,rune_01_ger,yellow,0,1,1.201,0,0.0,-10,1
1e7zni3hs3hxwy7aqhg0bkb0,1,5,Win,2,Go,GW,rune_01_ear,blue,1,1,0.654,1,0.0,+10,1
1e7zni3hs3hxwy7aqhg0bkb0,1,6,Win,2,No-Go,NGW,rune_01_yr,blue,0,1,0.559,0,1.0,+10,1
1e7zni3hs3hxwy7aqhg0bkb0,1,7,Lose,2,Go,GAL,rune_01_ingwaz,yellow,1,1,1.259,1,0.0,-1,1
1e7zni3hs3hxwy7aqhg0bkb0,1,8,Lose,2,No-Go,NGAL,rune_01_ger,yellow,0,0,,1,0.0,-1,0
1e7zni3hs3hxwy7aqhg0bkb0,1,9,Lose,3,Go,GAL,rune_01_ingwaz,yellow,1,0,,0,1.0,-1,0
1e7zni3hs3hxwy7aqhg0bkb0,1,10,Lose,3,No-Go,NGAL,rune_01_ger,yellow,0,0,,1,1.0,-10,0
1e7zni3hs3hxwy7aqhg0bkb0,1,11,Win,3,Go,GW,rune_01_ear,blue,1,1,0.539,1,0.0,+10,1
1e7zni3hs3hxwy7aqhg0bkb0,1,12,Win,3,No-Go,NGW,rune_01_yr,blue,0,1,0.383,0,0.0,+1,1
1e7zni3hs3hxwy7aqhg0bkb0,1,13,Lose,4,No-Go,NGAL,rune_01_ger,yellow,0,1,0.601,0,0.0,-10,1
1e7zni3hs3hxwy7aqhg0bkb0,1,14,Lose,4,Go,GAL,rune_01_ingwaz,yellow,1,0,,0,0.0,-10,0
1e7zni3hs3hxwy7aqhg0bkb0,1,15,Win,4,No-Go,NGW,rune_01_yr,blue,0,1,0.612,0,0.0,+1,1
1e7zni3hs3hxwy7aqhg0bkb0,1,16,Win,4,Go,GW,rune_01_ear,blue,1,1,0.592,1,1.0,+1,1
1e7zni3hs3hxwy7aqhg0bkb0,1,17,Lose,5,No-Go,NGAL,rune_01_ger,yellow,0,1,0.534,0,0.0,-10,1
1e7zni3hs3hxwy7aqhg0bkb0,1,18,Win,5,Go,GW,rune_01_ear,blue,1,1,0.519,1,0.0,+10,1
1e7zni3hs3hxwy7aqhg0bkb0,1,19,Lose,5,Go,GAL,rune_01_ingwaz,yellow,1,1,0.792,1,0.0,-1,1
1e7zni3hs3hxwy7aqhg0bkb0,1,20,Win,5,No-Go,NGW,rune_01_yr,blue,0,1,0.615,0,0.0,+1,1
1e7zni3hs3hxwy7aqhg0bkb0,1,21,Win,6,Go,GW,rune_01_ear,blue,1,1,0.6,1,0.0,+10,1
1e7zni3hs3hxwy7aqhg0bkb0,1,22,Win,6,No-Go,NGW,rune_01_yr,blue,0,1,0.543,0,0.0,+1,1
1e7zni3hs3hxwy7aqhg0bkb0,1,23,Lose,6,No-Go,NGAL,rune_01_ger,yellow,0,0,,1,0.0,-1,0
1e7zni3hs3hxwy7aqhg0bkb0,1,24,Lose,6,Go,GAL,rune_01_ingwaz,yellow,1,1,1.1,1,0.0,-1,1
1e7zni3hs3hxwy7aqhg0bkb0,1,25,Lose,7,No-Go,NGAL,rune_01_ger,yellow,0,0,,1,0.0,-1,0
1e7zni3hs3hxwy7aqhg0bkb0,1,26,Win,7,No-Go,NGW,rune_01_yr,blue,0,1,0.661,0,0.0,+1,1
1e7zni3hs3hxwy7aqhg0bkb0,1,27,Lose,7,Go,GAL,rune_01_ingwaz,yellow,1,1,0.687,1,0.0,-1,1
1e7zni3hs3hxwy7aqhg0bkb0,1,28,Win,7,Go,GW,rune_01_ear,blue,1,1,0.448,1,1.0,+1,1
1e7zni3hs3hxwy7aqhg0bkb0,1,29,Lose,8,No-Go,NGAL,rune_01_ger,yellow,0,0,,1,0.0,-1,0
1e7zni3hs3hxwy7aqhg0bkb0,1,30,Win,8,No-Go,NGW,rune_01_yr,blue,0,1,0.75,0,1.0,+10,1
1e7zni3hs3hxwy7aqhg0bkb0,1,31,Win,8,Go,GW,rune_01_ear,blue,1,0,,0,0.0,+1,1
1e7zni3hs3hxwy7aqhg0bkb0,1,32,Lose,8,Go,GAL,rune_01_ingwaz,yellow,1,0,,0,0.0,-10,1
1e7zni3hs3hxwy7aqhg0bkb0,1,33,Win,9,No-Go,NGW,rune_01_yr,blue,0,1,0.494,0,0.0,+1,1
1e7zni3hs3hxwy7aqhg0bkb0,1,34,Win,9,Go,GW,rune_01_ear,blue,1,1,0.928,1,0.0,+10,1
1e7zni3hs3hxwy7aqhg0bkb0,1,35,Lose,9,Go,GAL,rune_01_ingwaz,yellow,1,1,0.816,1,0.0,-1,1
1e7zni3hs3hxwy7aqhg0bkb0,1,36,Lose,9,No-Go,NGAL,rune_01_ger,yellow,0,0,,1,0.0,-1,0
1e7zni3hs3hxwy7aqhg0bkb0,1,37,Win,10,Go,GW,rune_01_ear,blue,1,1,0.444,1,0.0,+10,1
1e7zni3hs3hxwy7aqhg0bkb0,1,38,Win,10,No-Go,NGW,rune_01_yr,blue,0,0,,1,0.0,+10,1
1e7zni3hs3hxwy7aqhg0bkb0,1,39,Lose,10,No-Go,NGAL,rune_01_ger,yellow,0,1,1.106,0,1.0,-1,1
1e7zni3hs3hxwy7aqhg0bkb0,1,40,Lose,10,Go,GAL,rune_01_ingwaz,yellow,1,1,1.151,1,1.0,-10,1
1e7zni3hs3hxwy7aqhg0bkb0,1,41,Win,11,Go,GW,rune_01_ear,blue,1,0,,0,0.0,+1,0
1e7zni3hs3hxwy7aqhg0bkb0,1,42,Lose,11,Go,GAL,rune_01_ingwaz,yellow,1,1,0.716,1,1.0,-10,2
1e7zni3hs3hxwy7aqhg0bkb0,1,43,Lose,11,No-Go,NGAL,rune_01_ger,yellow,0,1,0.752,0,0.0,-10,1
1e7zni3hs3hxwy7aqhg0bkb0,1,44,Win,11,No-Go,NGW,rune_01_yr,blue,0,0,,1,1.0,+1,0
1e7zni3hs3hxwy7aqhg0bkb0,1,45,Win,12,Go,GW,rune_01_ear,blue,1,1,0.42,1,0.0,+10,1
1e7zni3hs3hxwy7aqhg0bkb0,1,46,Win,12,No-Go,NGW,rune_01_yr,blue,0,0,,1,0.0,+10,0
1e7zni3hs3hxwy7aqhg0bkb0,1,47,Lose,12,Go,GAL,rune_01_ingwaz,yellow,1,1,1.459,1,0.0,-1,1
1e7zni3hs3hxwy7aqhg0bkb0,1,48,Lose,12,No-Go,NGAL,rune_01_ger,yellow,0,0,,1,0.0,-1,0
1e7zni3hs3hxwy7aqhg0bkb0,1,49,Win,13,Go,GW,rune_01_ear,blue,1,0,,0,0.0,+1,0
1e7zni3hs3hxwy7aqhg0bkb0,1,50,Lose,13,Go,GAL,rune_01_ingwaz,yellow,1,1,0.998,1,0.0,-1,1
1e7zni3hs3hxwy7aqhg0bkb0,1,51,Win,13,No-Go,NGW,rune_01_yr,blue,0,0,,1,0.0,+10,0
1e7zni3hs3hxwy7aqhg0bkb0,1,52,Lose,13,No-Go,NGAL,rune_01_ger,yellow,0,0,,1,0.0,-1,1
1e7zni3hs3hxwy7aqhg0bkb0,1,53,Win,14,Go,GW,rune_01_ear,blue,1,1,1.056,1,0.0,+10,1
1e7zni3hs3hxwy7aqhg0bkb0,1,54,Lose,14,No-Go,NGAL,rune_01_ger,yellow,0,0,,1,0.0,-1,0
1e7zni3hs3hxwy7aqhg0bkb0,1,55,Lose,14,Go,GAL,rune_01_ingwaz,yellow,1,0,,0,0.0,-10,0
1e7zni3hs3hxwy7aqhg0bkb0,1,56,Win,14,No-Go,NGW,rune_01_yr,blue,0,0,,1,0.0,+10,0
1e7zni3hs3hxwy7aqhg0bkb0,1,57,Lose,15,No-Go,NGAL,rune_01_ger,yellow,0,0,,1,1.0,-10,0
1e7zni3hs3hxwy7aqhg0bkb0,1,58,Lose,15,Go,GAL,rune_01_ingwaz,yellow,1,1,1.0,1,0.0,-1,1
1e7zni3hs3hxwy7aqhg0bkb0,1,59,Win,15,Go,GW,rune_01_ear,blue,1,1,0.542,1,1.0,+1,1
1e7zni3hs3hxwy7aqhg0bkb0,1,60,Win,15,No-Go,NGW,rune_01_yr,blue,0,0,,1,0.0,+10,0
1e7zni3hs3hxwy7aqhg0bkb0,1,61,Win,16,No-Go,NGW,rune_01_yr,blue,0,0,,1,0.0,+10,0
1e7zni3hs3hxwy7aqhg0bkb0,1,62,Win,16,Go,GW,rune_01_ear,blue,1,0,,0,0.0,+1,0
1e7zni3hs3hxwy7aqhg0bkb0,1,63,Lose,16,No-Go,NGAL,rune_01_ger,yellow,0,1,1.355,0,0.0,-10,1
1e7zni3hs3hxwy7aqhg0bkb0,1,64,Lose,16,Go,GAL,rune_01_ingwaz,yellow,1,1,0.521,1,0.0,-1,1
1e7zni3hs3hxwy7aqhg0bkb0,1,65,Lose,17,Go,GAL,rune_01_ingwaz,yellow,1,1,0.727,1,0.0,-1,1
1e7zni3hs3hxwy7aqhg0bkb0,1,66,Lose,17,No-Go,NGAL,rune_01_ger,yellow,0,0,,1,1.0,-10,0
1e7zni3hs3hxwy7aqhg0bkb0,1,67,Win,17,No-Go,NGW,rune_01_yr,blue,0,0,,1,0.0,+10,0
1e7zni3hs3hxwy7aqhg0bkb0,1,68,Win,17,Go,GW,rune_01_ear,blue,1,1,1.471,1,0.0,+10,1
1e7zni3hs3hxwy7aqhg0bkb0,1,69,Lose,18,Go,GAL,rune_01_ingwaz,yellow,1,1,0.602,1,1.0,-10,1
1e7zni3hs3hxwy7aqhg0bkb0,1,70,Lose,18,No-Go,NGAL,rune_01_ger,yellow,0,1,1.391,0,0.0,-10,1
1e7zni3hs3hxwy7aqhg0bkb0,1,71,Win,18,Go,GW,rune_01_ear,blue,1,0,,0,0.0,+1,1
1e7zni3hs3hxwy7aqhg0bkb0,1,72,Win,18,No-Go,NGW,rune_01_yr,blue,0,1,0.588,0,0.0,+1,1
1e7zni3hs3hxwy7aqhg0bkb0,1,73,Win,19,Go,GW,rune_01_ear,blue,1,1,1.206,1,0.0,+10,1
1e7zni3hs3hxwy7aqhg0bkb0,1,74,Lose,19,Go,GAL,rune_01_ingwaz,yellow,1,0,,0,0.0,-10,1
1e7zni3hs3hxwy7aqhg0bkb0,1,75,Win,19,No-Go,NGW,rune_01_yr,blue,0,0,,1,1.0,+1,0
1e7zni3hs3hxwy7aqhg0bkb0,1,76,Lose,19,No-Go,NGAL,rune_01_ger,yellow,0,0,,1,0.0,-1,1
1e7zni3hs3hxwy7aqhg0bkb0,1,77,Lose,20,No-Go,NGAL,rune_01_ger,yellow,0,1,1.14,0,0.0,-10,1
1e7zni3hs3hxwy7aqhg0bkb0,1,78,Lose,20,Go,GAL,rune_01_ingwaz,yellow,1,1,0.696,1,0.0,-1,1
1e7zni3hs3hxwy7aqhg0bkb0,1,79,Win,20,Go,GW,rune_01_ear,blue,1,1,0.584,1,1.0,+1,1
1e7zni3hs3hxwy7aqhg0bkb0,1,80,Win,20,No-Go,NGW,rune_01_yr,blue,0,0,,1,0.0,+10,0
1e7zni3hs3hxwy7aqhg0bkb0,1,81,Lose,21,Go,GAL,rune_01_ingwaz,yellow,1,1,1.003,1,0.0,-1,1
1e7zni3hs3hxwy7aqhg0bkb0,1,82,Win,21,Go,GW,rune_01_ear,blue,1,1,0.681,1,1.0,+1,1
1e7zni3hs3hxwy7aqhg0bkb0,1,83,Lose,21,No-Go,NGAL,rune_01_ger,yellow,0,0,,1,0.0,-1,0
1e7zni3hs3hxwy7aqhg0bkb0,1,84,Win,21,No-Go,NGW,rune_01_yr,blue,0,0,,1,0.0,+10,0
1e7zni3hs3hxwy7aqhg0bkb0,1,85,Lose,22,No-Go,NGAL,rune_01_ger,yellow,0,0,,1,0.0,-1,0
1e7zni3hs3hxwy7aqhg0bkb0,1,86,Win,22,Go,GW,rune_01_ear,blue,1,1,0.669,1,0.0,+10,1
1e7zni3hs3hxwy7aqhg0bkb0,1,87,Lose,22,Go,GAL,rune_01_ingwaz,yellow,1,1,1.18,1,1.0,-10,1
1e7zni3hs3hxwy7aqhg0bkb0,1,88,Win,22,No-Go,NGW,rune_01_yr,blue,0,0,,1,0.0,+10,0
1e7zni3hs3hxwy7aqhg0bkb0,1,89,Win,23,Go,GW,rune_01_ear,blue,1,1,1.0,1,0.0,+10,1
1e7zni3hs3hxwy7aqhg0bkb0,1,90,Lose,23,No-Go,NGAL,rune_01_ger,yellow,0,0,,1,0.0,-1,0
1e7zni3hs3hxwy7aqhg0bkb0,1,91,Win,23,No-Go,NGW,rune_01_yr,blue,0,0,,1,1.0,+1,0
1e7zni3hs3hxwy7aqhg0bkb0,1,92,Lose,23,Go,GAL,rune_01_ingwaz,yellow,1,1,0.912,1,0.0,-1,1
1e7zni3hs3hxwy7aqhg0bkb0,1,93,Lose,24,No-Go,NGAL,rune_01_ger,yellow,0,0,,1,0.0,-1,0
1e7zni3hs3hxwy7aqhg0bkb0,1,94,Lose,24,Go,GAL,rune_01_ingwaz,yellow,1,1,0.732,1,0.0,-1,1
1e7zni3hs3hxwy7aqhg0bkb0,1,95,Win,24,No-Go,NGW,rune_01_yr,blue,0,0,,1,0.0,+10,0
1e7zni3hs3hxwy7aqhg0bkb0,1,96,Win,24,Go,GW,rune_01_ear,blue,1,1,0.747,1,0.0,+10,1
1e7zni3hs3hxwy7aqhg0bkb0,1,97,Win,25,No-Go,NGW,rune_01_yr,blue,0,0,,1,0.0,+10,0
1e7zni3hs3hxwy7aqhg0bkb0,1,98,Lose,25,Go,GAL,rune_01_ingwaz,yellow,1,1,0.691,1,0.0,-1,1
1e7zni3hs3hxwy7aqhg0bkb0,1,99,Win,25,Go,GW,rune_01_ear,blue,1,1,0.639,1,0.0,+10,1
1e7zni3hs3hxwy7aqhg0bkb0,1,100,Lose,25,No-Go,NGAL,rune_01_ger,yellow,0,0,,1,1.0,-10,0
1e7zni3hs3hxwy7aqhg0bkb0,1,101,Lose,26,Go,GAL,rune_01_ingwaz,yellow,1,1,0.349,1,0.0,-1,1
1e7zni3hs3hxwy7aqhg0bkb0,1,102,Lose,26,No-Go,NGAL,rune_01_ger,yellow,0,1,0.913,0,0.0,-10,1
1e7zni3hs3hxwy7aqhg0bkb0,1,103,Win,26,Go,GW,rune_01_ear,blue,1,1,0.616,1,0.0,+10,1
1e7zni3hs3hxwy7aqhg0bkb0,1,104,Win,26,No-Go,NGW,rune_01_yr,blue,0,0,,1,0.0,+10,0
1e7zni3hs3hxwy7aqhg0bkb0,1,105,Lose,27,Go,GAL,rune_01_ingwaz,yellow,1,1,0.603,1,0.0,-1,1
1e7zni3hs3hxwy7aqhg0bkb0,1,106,Win,27,No-Go,NGW,rune_01_yr,blue,0,0,,1,1.0,+1,0
1e7zni3hs3hxwy7aqhg0bkb0,1,107,Lose,27,No-Go,NGAL,rune_01_ger,yellow,0,0,,1,0.0,-1,0
1e7zni3hs3hxwy7aqhg0bkb0,1,108,Win,27,Go,GW,rune_01_ear,blue,1,1,0.656,1,0.0,+10,1
1e7zni3hs3hxwy7aqhg0bkb0,1,109,Lose,28,No-Go,NGAL,rune_01_ger,yellow,0,0,,1,0.0,-1,0
1e7zni3hs3hxwy7aqhg0bkb0,1,110,Win,28,Go,GW,rune_01_ear,blue,1,1,0.675,1,0.0,+10,1
1e7zni3hs3hxwy7aqhg0bkb0,1,111,Win,28,No-Go,NGW,rune_01_yr,blue,0,0,,1,0.0,+10,0
1e7zni3hs3hxwy7aqhg0bkb0,1,112,Lose,28,Go,GAL,rune_01_ingwaz,yellow,1,1,0.437,1,1.0,-10,1
1e7zni3hs3hxwy7aqhg0bkb0,1,113,Lose,29,Go,GAL,rune_01_ingwaz,yellow,1,1,0.6,1,0.0,-1,1
1e7zni3hs3hxwy7aqhg0bkb0,1,114,Win,29,Go,GW,rune_01_ear,blue,1,1,0.503,1,0.0,+10,1
1e7zni3hs3hxwy7aqhg0bkb0,1,115,Lose,29,No-Go,NGAL,rune_01_ger,yellow,0,0,,1,1.0,-10,0
1e7zni3hs3hxwy7aqhg0bkb0,1,116,Win,29,No-Go,NGW,rune_01_yr,blue,0,0,,1,0.0,+10,0
1e7zni3hs3hxwy7aqhg0bkb0,1,117,Lose,30,Go,GAL,rune_01_ingwaz,yellow,1,1,0.622,1,0.0,-1,1
1e7zni3hs3hxwy7aqhg0bkb0,1,118,Win,30,No-Go,NGW,rune_01_yr,blue,0,0,,1,0.0,+10,0
1e7zni3hs3hxwy7aqhg0bkb0,1,119,Win,30,Go,GW,rune_01_ear,blue,1,1,0.69,1,1.0,+1,1
1e7zni3hs3hxwy7aqhg0bkb0,1,120,Lose,30,No-Go,NGAL,rune_01_ger,yellow,0,0,,1,0.0,-1,0
1e7zni3hs3hxwy7aqhg0bkb0,2,121,Win,31,No-Go,NGW,rune_02_cen,blue,0,1,1.044,0,0.0,+1,1
1e7zni3hs3hxwy7aqhg0bkb0,2,122,Win,31,Go,GW,rune_02_os,blue,1,1,0.503,1,0.0,+10,1
1e7zni3hs3hxwy7aqhg0bkb0,2,123,Lose,31,Go,GAL,rune_02_haglaz,yellow,1,0,,0,0.0,-10,0
1e7zni3hs3hxwy7aqhg0bkb0,2,124,Lose,31,No-Go,NGAL,rune_02_raido,yellow,0,0,,1,0.0,-1,0
1e7zni3hs3hxwy7aqhg0bkb0,2,125,Win,32,Go,GW,rune_02_os,blue,1,1,0.649,1,0.0,+10,1
1e7zni3hs3hxwy7aqhg0bkb0,2,126,Lose,32,No-Go,NGAL,rune_02_raido,yellow,0,0,,1,0.0,-1,0
1e7zni3hs3hxwy7aqhg0bkb0,2,127,Lose,32,Go,GAL,rune_02_haglaz,yellow,1,1,0.596,1,0.0,-1,1
1e7zni3hs3hxwy7aqhg0bkb0,2,128,Win,32,No-Go,NGW,rune_02_cen,blue,0,0,,1,1.0,+1,0
1e7zni3hs3hxwy7aqhg0bkb0,2,129,Win,33,No-Go,NGW,rune_02_cen,blue,0,1,0.701,0,0.0,+1,1
1e7zni3hs3hxwy7aqhg0bkb0,2,130,Lose,33,No-Go,NGAL,rune_02_raido,yellow,0,0,,1,1.0,-10,0
1e7zni3hs3hxwy7aqhg0bkb0,2,131,Win,33,Go,GW,rune_02_os,blue,1,1,0.51,1,0.0,+10,1
1e7zni3hs3hxwy7aqhg0bkb0,2,132,Lose,33,Go,GAL,rune_02_haglaz,yellow,1,1,0.755,1,1.0,-10,1
1e7zni3hs3hxwy7aqhg0bkb0,2,133,Lose,34,Go,GAL,rune_02_haglaz,yellow,1,1,0.957,1,0.0,-1,1
1e7zni3hs3hxwy7aqhg0bkb0,2,134,Win,34,No-Go,NGW,rune_02_cen,blue,0,1,1.376,0,0.0,+1,1
1e7zni3hs3hxwy7aqhg0bkb0,2,135,Win,34,Go,GW,rune_02_os,blue,1,1,0.528,1,1.0,+1,1
1e7zni3hs3hxwy7aqhg0bkb0,2,136,Lose,34,No-Go,NGAL,rune_02_raido,yellow,0,0,,1,0.0,-1,0
1e7zni3hs3hxwy7aqhg0bkb0,2,137,Win,35,Go,GW,rune_02_os,blue,1,1,0.645,1,0.0,+10,1
1e7zni3hs3hxwy7aqhg0bkb0,2,138,Win,35,No-Go,NGW,rune_02_cen,blue,0,0,,1,0.0,+10,0
1e7zni3hs3hxwy7aqhg0bkb0,2,139,Lose,35,Go,GAL,rune_02_haglaz,yellow,1,1,0.724,1,0.0,-1,1
1e7zni3hs3hxwy7aqhg0bkb0,2,140,Lose,35,No-Go,NGAL,rune_02_raido,yellow,0,0,,1,0.0,-1,0
1e7zni3hs3hxwy7aqhg0bkb0,2,141,Win,36,No-Go,NGW,rune_02_cen,blue,0,0,,1,0.0,+10,0
1e7zni3hs3hxwy7aqhg0bkb0,2,142,Lose,36,No-Go,NGAL,rune_02_raido,yellow,0,1,0.559,0,0.0,-10,1
1e7zni3hs3hxwy7aqhg0bkb0,2,143,Win,36,Go,GW,rune_02_os,blue,1,1,0.447,1,0.0,+10,1
1e7zni3hs3hxwy7aqhg0bkb0,2,144,Lose,36,Go,GAL,rune_02_haglaz,yellow,1,1,0.895,1,0.0,-1,1
1e7zni3hs3hxwy7aqhg0bkb0,2,145,Lose,37,Go,GAL,rune_02_haglaz,yellow,1,1,1.0,1,0.0,-1,1
1e7zni3hs3hxwy7aqhg0bkb0,2,146,Lose,37,No-Go,NGAL,rune_02_raido,yellow,0,1,0.361,0,0.0,-10,1
1e7zni3hs3hxwy7aqhg0bkb0,2,147,Win,37,No-Go,NGW,rune_02_cen,blue,0,0,,1,0.0,+10,0
1e7zni3hs3hxwy7aqhg0bkb0,2,148,Win,37,Go,GW,rune_02_os,blue,1,1,0.333,1,1.0,+1,1
1e7zni3hs3hxwy7aqhg0bkb0,2,149,Win,38,No-Go,NGW,rune_02_cen,blue,0,0,,1,1.0,+1,0
1e7zni3hs3hxwy7aqhg0bkb0,2,150,Lose,38,No-Go,NGAL,rune_02_raido,yellow,0,1,1.166,0,0.0,-10,1
1e7zni3hs3hxwy7aqhg0bkb0,2,151,Lose,38,Go,GAL,rune_02_haglaz,yellow,1,1,0.567,1,0.0,-1,1
1e7zni3hs3hxwy7aqhg0bkb0,2,152,Win,38,Go,GW,rune_02_os,blue,1,1,0.479,1,0.0,+10,1
1e7zni3hs3hxwy7aqhg0bkb0,2,153,Win,39,No-Go,NGW,rune_02_cen,blue,0,0,,1,0.0,+10,0
1e7zni3hs3hxwy7aqhg0bkb0,2,154,Win,39,Go,GW,rune_02_os,blue,1,1,0.533,1,0.0,+10,1
1e7zni3hs3hxwy7aqhg0bkb0,2,155,Lose,39,Go,GAL,rune_02_haglaz,yellow,1,1,1.119,1,0.0,-1,1
1e7zni3hs3hxwy7aqhg0bkb0,2,156,Lose,39,No-Go,NGAL,rune_02_raido,yellow,0,0,,1,0.0,-1,0
1e7zni3hs3hxwy7aqhg0bkb0,2,157,Lose,40,No-Go,NGAL,rune_02_raido,yellow,0,1,0.586,0,1.0,-1,1
1e7zni3hs3hxwy7aqhg0bkb0,2,158,Win,40,No-Go,NGW,rune_02_cen,blue,0,1,1.025,0,0.0,+1,1
1e7zni3hs3hxwy7aqhg0bkb0,2,159,Win,40,Go,GW,rune_02_os,blue,1,1,0.687,1,0.0,+10,1
1e7zni3hs3hxwy7aqhg0bkb0,2,160,Lose,40,Go,GAL,rune_02_haglaz,yellow,1,0,,0,1.0,-1,0
1e7zni3hs3hxwy7aqhg0bkb0,2,161,Win,41,No-Go,NGW,rune_02_cen,blue,0,1,0.567,0,1.0,+10,1
1e7zni3hs3hxwy7aqhg0bkb0,2,162,Lose,41,Go,GAL,rune_02_haglaz,yellow,1,0,,0,1.0,-1,0
1e7zni3hs3hxwy7aqhg0bkb0,2,163,Lose,41,No-Go,NGAL,rune_02_raido,yellow,0,0,,1,0.0,-1,0
1e7zni3hs3hxwy7aqhg0bkb0,2,164,Win,41,Go,GW,rune_02_os,blue,1,1,0.478,1,0.0,+10,1
1e7zni3hs3hxwy7aqhg0bkb0,2,165,Lose,42,Go,GAL,rune_02_haglaz,yellow,1,0,,0,0.0,-10,0
1e7zni3hs3hxwy7aqhg0bkb0,2,166,Win,42,No-Go,NGW,rune_02_cen,blue,0,0,,1,0.0,+10,0
1e7zni3hs3hxwy7aqhg0bkb0,2,167,Lose,42,No-Go,NGAL,rune_02_raido,yellow,0,1,0.748,0,0.0,-10,1
1e7zni3hs3hxwy7aqhg0bkb0,2,168,Win,42,Go,GW,rune_02_os,blue,1,1,0.727,1,0.0,+10,1
1e7zni3hs3hxwy7aqhg0bkb0,2,169,Win,43,No-Go,NGW,rune_02_cen,blue,0,0,,1,0.0,+10,0
1e7zni3hs3hxwy7aqhg0bkb0,2,170,Lose,43,No-Go,NGAL,rune_02_raido,yellow,0,1,0.805,0,0.0,-10,1
1e7zni3hs3hxwy7aqhg0bkb0,2,171,Win,43,Go,GW,rune_02_os,blue,1,1,0.529,1,0.0,+10,1
1e7zni3hs3hxwy7aqhg0bkb0,2,172,Lose,43,Go,GAL,rune_02_haglaz,yellow,1,1,0.968,1,0.0,-1,1
1e7zni3hs3hxwy7aqhg0bkb0,2,173,Win,44,Go,GW,rune_02_os,blue,1,1,0.535,1,0.0,+10,1
1e7zni3hs3hxwy7aqhg0bkb0,2,174,Win,44,No-Go,NGW,rune_02_cen,blue,0,0,,1,0.0,+10,0
1e7zni3hs3hxwy7aqhg0bkb0,2,175,Lose,44,Go,GAL,rune_02_haglaz,yellow,1,1,0.809,1,0.0,-1,1
1e7zni3hs3hxwy7aqhg0bkb0,2,176,Lose,44,No-Go,NGAL,rune_02_raido,yellow,0,0,,1,0.0,-1,0
1e7zni3hs3hxwy7aqhg0bkb0,2,177,Win,45,Go,GW,rune_02_os,blue,1,1,0.389,1,1.0,+1,1
1e7zni3hs3hxwy7aqhg0bkb0,2,178,Lose,45,Go,GAL,rune_02_haglaz,yellow,1,1,0.511,1,0.0,-1,1
1e7zni3hs3hxwy7aqhg0bkb0,2,179,Win,45,No-Go,NGW,rune_02_cen,blue,0,0,,1,0.0,+10,0
1e7zni3hs3hxwy7aqhg0bkb0,2,180,Lose,45,No-Go,NGAL,rune_02_raido,yellow,0,1,0.812,0,1.0,-1,1
1e7zni3hs3hxwy7aqhg0bkb0,2,181,Lose,46,No-Go,NGAL,rune_02_raido,yellow,0,1,0.68,0,0.0,-10,1
1e7zni3hs3hxwy7aqhg0bkb0,2,182,Lose,46,Go,GAL,rune_02_haglaz,yellow,1,1,0.627,1,0.0,-1,1
1e7zni3hs3hxwy7aqhg0bkb0,2,183,Win,46,Go,GW,rune_02_os,blue,1,1,0.367,1,0.0,+10,1
1e7zni3hs3hxwy7aqhg0bkb0,2,184,Win,46,No-Go,NGW,rune_02_cen,blue,0,0,,1,0.0,+10,0
1e7zni3hs3hxwy7aqhg0bkb0,2,185,Lose,47,Go,GAL,rune_02_haglaz,yellow,1,1,0.693,1,0.0,-1,1
1e7zni3hs3hxwy7aqhg0bkb0,2,186,Lose,47,No-Go,NGAL,rune_02_raido,yellow,0,0,,1,1.0,-10,0
1e7zni3hs3hxwy7aqhg0bkb0,2,187,Win,47,Go,GW,rune_02_os,blue,1,1,0.346,1,0.0,+10,1
1e7zni3hs3hxwy7aqhg0bkb0,2,188,Win,47,No-Go,NGW,rune_02_cen,blue,0,0,,1,0.0,+10,0
1e7zni3hs3hxwy7aqhg0bkb0,2,189,Win,48,No-Go,NGW,rune_02_cen,blue,0,0,,1,0.0,+10,0
1e7zni3hs3hxwy7aqhg0bkb0,2,190,Win,48,Go,GW,rune_02_os,blue,1,1,0.426,1,0.0,+10,1
1e7zni3hs3hxwy7aqhg0bkb0,2,191,Lose,48,Go,GAL,rune_02_haglaz,yellow,1,1,0.56,1,1.0,-10,1
1e7zni3hs3hxwy7aqhg0bkb0,2,192,Lose,48,No-Go,NGAL,rune_02_raido,yellow,0,0,,1,0.0,-1,0
1e7zni3hs3hxwy7aqhg0bkb0,2,193,Win,49,No-Go,NGW,rune_02_cen,blue,0,1,0.597,0,1.0,+10,1
1e7zni3hs3hxwy7aqhg0bkb0,2,194,Lose,49,No-Go,NGAL,rune_02_raido,yellow,0,0,,1,0.0,-1,0
1e7zni3hs3hxwy7aqhg0bkb0,2,195,Win,49,Go,GW,rune_02_os,blue,1,1,0.429,1,0.0,+10,1
1e7zni3hs3hxwy7aqhg0bkb0,2,196,Lose,49,Go,GAL,rune_02_haglaz,yellow,1,1,0.928,1,0.0,-1,1
1e7zni3hs3hxwy7aqhg0bkb0,2,197,Lose,50,No-Go,NGAL,rune_02_raido,yellow,0,0,,1,0.0,-1,0
1e7zni3hs3hxwy7aqhg0bkb0,2,198,Win,50,Go,GW,rune_02_os,blue,1,1,0.442,1,1.0,+1,1
1e7zni3hs3hxwy7aqhg0bkb0,2,199,Lose,50,Go,GAL,rune_02_haglaz,yellow,1,1,0.504,1,0.0,-1,1
1e7zni3hs3hxwy7aqhg0bkb0,2,200,Win,50,No-Go,NGW,rune_02_cen,blue,0,1,0.886,0,0.0,+1,1
1e7zni3hs3hxwy7aqhg0bkb0,2,201,Lose,51,Go,GAL,rune_02_haglaz,yellow,1,1,0.616,1,0.0,-1,1
1e7zni3hs3hxwy7aqhg0bkb0,2,202,Lose,51,No-Go,NGAL,rune_02_raido,yellow,0,0,,1,0.0,-1,0
1e7zni3hs3hxwy7aqhg0bkb0,2,203,Win,51,Go,GW,rune_02_os,blue,1,1,0.301,1,1.0,+1,1
1e7zni3hs3hxwy7aqhg0bkb0,2,204,Win,51,No-Go,NGW,rune_02_cen,blue,0,1,0.896,0,0.0,+1,1
1e7zni3hs3hxwy7aqhg0bkb0,2,205,Lose,52,Go,GAL,rune_02_haglaz,yellow,1,1,0.632,1,1.0,-10,1
1e7zni3hs3hxwy7aqhg0bkb0,2,206,Win,52,Go,GW,rune_02_os,blue,1,1,0.336,1,0.0,+10,1
1e7zni3hs3hxwy7aqhg0bkb0,2,207,Win,52,No-Go,NGW,rune_02_cen,blue,0,0,,1,0.0,+10,1
1e7zni3hs3hxwy7aqhg0bkb0,2,208,Lose,52,No-Go,NGAL,rune_02_raido,yellow,0,0,,1,0.0,-1,0
1e7zni3hs3hxwy7aqhg0bkb0,2,209,Lose,53,No-Go,NGAL,rune_02_raido,yellow,0,1,1.056,0,0.0,-10,1
1e7zni3hs3hxwy7aqhg0bkb0,2,210,Win,53,No-Go,NGW,rune_02_cen,blue,0,0,,1,1.0,+1,0
1e7zni3hs3hxwy7aqhg0bkb0,2,211,Win,53,Go,GW,rune_02_os,blue,1,1,0.541,1,0.0,+10,1
1e7zni3hs3hxwy7aqhg0bkb0,2,212,Lose,53,Go,GAL,rune_02_haglaz,yellow,1,1,1.005,1,0.0,-1,1
1e7zni3hs3hxwy7aqhg0bkb0,2,213,Lose,54,Go,GAL,rune_02_haglaz,yellow,1,1,0.832,1,0.0,-1,1
1e7zni3hs3hxwy7aqhg0bkb0,2,214,Win,54,No-Go,NGW,rune_02_cen,blue,0,0,,1,0.0,+10,0
1e7zni3hs3hxwy7aqhg0bkb0,2,215,Win,54,Go,GW,rune_02_os,blue,1,1,0.323,1,0.0,+10,1
1e7zni3hs3hxwy7aqhg0bkb0,2,216,Lose,54,No-Go,NGAL,rune_02_raido,yellow,0,0,,1,0.0,-1,0
1e7zni3hs3hxwy7aqhg0bkb0,2,217,Lose,55,Go,GAL,rune_02_haglaz,yellow,1,1,0.698,1,0.0,-1,1
1e7zni3hs3hxwy7aqhg0bkb0,2,218,Win,55,No-Go,NGW,rune_02_cen,blue,0,0,,1,0.0,+10,0
