[{"slider_type":"valence","raw_loc":589,"loc":0.678,"trial_type":"affective-slider","trial_index":0,"time_elapsed":6181,"internal_node_id":"0.0-0.0","task_version":"test-retest-t4"},{"responses":{"Q03":"1","Q06":"1","Q07":"0","Q04":"2","Q02":"1","Q08":"0","Q01":"2","Q05":"1"},"rt":23895,"survey":"gad7","trial_type":"survey-template","trial_index":1,"time_elapsed":30085,"internal_node_id":"0.0-1.0","task_version":"test-retest-t4"},{"responses":{"Q11":"0","Q05":"1","Q02":"0","Q10":"0","Q12":"0","Q01":"0","Q15":"0","Q03":"0","Q09":"0","Q06":"0","Q14":"0","Q07":"0","Q04":"0","Q08":"0","Q13":"0"},"rt":150778,"survey":"7up7down","trial_type":"survey-template","trial_index":2,"time_elapsed":180871,"internal_node_id":"0.0-2.0","task_version":"test-retest-t4"},{"responses":{"Q07":"3","Q06":"3","Q02":"3","Q04":"3","Q03":"3","Q05":"2","Q12":"2","Q08":"2","Q13":"0","Q01":"3","Q09":"2","Q11":"2","Q10":"3"},"rt":134218,"survey":"bisbas","trial_type":"survey-template","trial_index":3,"time_elapsed":315098,"internal_node_id":"0.0-3.0","task_version":"test-retest-t4"},{"view_history":"[{\"page_index\":0,\"viewing_time\":4845},{\"page_index\":1,\"viewing_time\":2200},{\"page_index\":2,\"viewing_time\":3114},{\"page_index\":3,\"viewing_time\":3025},{\"page_index\":4,\"viewing_time\":2522},{\"page_index\":5,\"viewing_time\":1309}]","rt":17016,"trial_type":"pit-instructions","trial_index":4,"time_elapsed":332125,"internal_node_id":"0.0-4.0-0.0","task_version":"test-retest-t4"},{"Rune":"rune_00_ingz","Hex":"#FFFFF080","Correct":32,"Choice":32,"RT":895,"Accuracy":1,"Outcome":"+10","Keys":[2395],"TotalKeys":1,"Block":0,"Action":"Go","trial_type":"pit-trial","trial_index":5,"time_elapsed":335526,"internal_node_id":"0.0-4.0-1.0-0.0","task_version":"test-retest-t4"},{"Rune":"rune_00_ingz","Hex":"#FFFFF080","Correct":32,"Choice":32,"RT":272,"Accuracy":1,"Outcome":"+10","Keys":[1773],"TotalKeys":1,"Block":0,"Action":"Go","trial_type":"pit-trial","trial_index":6,"time_elapsed":338302,"internal_node_id":"0.0-4.0-1.0-0.1","task_version":"test-retest-t4"},{"Rune":"rune_00_ingz","Hex":"#FFFFF080","Correct":32,"Choice":32,"RT":267,"Accuracy":1,"Outcome":"+10","Keys":[1767],"TotalKeys":1,"Block":0,"Action":"Go","trial_type":"pit-trial","trial_index":7,"time_elapsed":341074,"internal_node_id":"0.0-4.0-1.0-0.2","task_version":"test-retest-t4"},{"Rune":"rune_00_ingz","Hex":"#FFFFF080","Correct":32,"Choice":32,"RT":246,"Accuracy":1,"Outcome":"+10","Keys":[1745],"TotalKeys":1,"Block":0,"Action":"Go","trial_type":"pit-trial","trial_index":8,"time_elapsed":343824,"internal_node_id":"0.0-4.0-1.0-0.3","task_version":"test-retest-t4"},{"view_history":"[{\"page_index\":0,\"viewing_time\":2266}]","rt":2267,"trial_type":"pit-instructions","trial_index":9,"time_elapsed":346093,"internal_node_id":"0.0-4.0-2.0","task_version":"test-retest-t4"},{"Rune":"rune_00_isaz","Hex":"#FFFFF080","Correct":-1,"Choice":-1,"RT":-1,"Accuracy":1,"Outcome":"+10","Keys":[],"TotalKeys":0,"Block":0,"Action":"No-Go","trial_type":"pit-trial","trial_index":10,"time_elapsed":350098,"internal_node_id":"0.0-4.0-3.0-0.0","task_version":"test-retest-t4"},{"Rune":"rune_00_isaz","Hex":"#FFFFF080","Correct":-1,"Choice":-1,"RT":-1,"Accuracy":1,"Outcome":"+10","Keys":[],"TotalKeys":0,"Block":0,"Action":"No-Go","trial_type":"pit-trial","trial_index":11,"time_elapsed":354102,"internal_node_id":"0.0-4.0-3.0-0.1","task_version":"test-retest-t4"},{"Rune":"rune_00_isaz","Hex":"#FFFFF080","Correct":-1,"Choice":-1,"RT":-1,"Accuracy":1,"Outcome":"+10","Keys":[],"TotalKeys":0,"Block":0,"Action":"No-Go","trial_type":"pit-trial","trial_index":12,"time_elapsed":358107,"internal_node_id":"0.0-4.0-3.0-0.2","task_version":"test-retest-t4"},{"Rune":"rune_00_isaz","Hex":"#FFFFF080","Correct":-1,"Choice":-1,"RT":-1,"Accuracy":1,"Outcome":"+10","Keys":[],"TotalKeys":0,"Block":0,"Action":"No-Go","trial_type":"pit-trial","trial_index":13,"time_elapsed":362112,"internal_node_id":"0.0-4.0-3.0-0.3","task_version":"test-retest-t4"},{"view_history":"[{\"page_index\":0,\"viewing_time\":2100},{\"page_index\":1,\"viewing_time\":10182},{\"page_index\":2,\"viewing_time\":6622},{\"page_index\":3,\"viewing_time\":4045},{\"page_index\":4,\"viewing_time\":2861},{\"page_index\":5,\"viewing_time\":2356},{\"page_index\":6,\"viewing_time\":3332},{\"page_index\":7,\"viewing_time\":3062}]","rt":34561,"trial_type":"pit-instructions","trial_index":14,"time_elapsed":396675,"internal_node_id":"0.0-4.0-4.0","task_version":"test-retest-t4"},{"responses":["Do nothing","+10","-1","True","Yes"],"num_errors":0,"rt":24870,"trial_type":"pit-comprehension","trial_index":15,"time_elapsed":421554,"internal_node_id":"0.0-4.0-5.0","task_version":"test-retest-t4"},{"trial_type":"call-function","trial_index":16,"time_elapsed":421559,"internal_node_id":"0.0-5.0","task_version":"test-retest-t4"},{"view_history":"[{\"page_index\":0,\"viewing_time\":1554},{\"page_index\":1,\"viewing_time\":4193},{\"page_index\":2,\"viewing_time\":1998}]","rt":7746,"trial_type":"pit-instructions","trial_index":17,"time_elapsed":429306,"internal_node_id":"0.0-6.0","task_version":"test-retest-t4"},{"Rune":"rune_07_gar","Hex":"#3366ff99","Correct":-1,"Choice":32,"RT":419,"Accuracy":0,"Outcome":"-10","Keys":[1919],"TotalKeys":1,"Block":1,"Trial":1,"Robot":4,"Valence":"Lose","Action":"No-Go","Sham":0,"Color":"blue","trial_type":"pit-trial","trial_index":18,"time_elapsed":432232,"internal_node_id":"0.0-7.0","task_version":"test-retest-t4"},{"Rune":"rune_07_thurisaz","Hex":"#ffcc3399","Correct":-1,"Choice":32,"RT":389,"Accuracy":0,"Outcome":"+1","Keys":[1889],"TotalKeys":1,"Block":1,"Trial":2,"Robot":2,"Valence":"Win","Action":"No-Go","Sham":0,"Color":"yellow","trial_type":"pit-trial","trial_index":19,"time_elapsed":435125,"internal_node_id":"0.0-8.0","task_version":"test-retest-t4"},{"Rune":"rune_07_kauna","Hex":"#ffcc3399","Correct":32,"Choice":32,"RT":405,"Accuracy":1,"Outcome":"+1","Keys":[1905],"TotalKeys":1,"Block":1,"Trial":3,"Robot":1,"Valence":"Win","Action":"Go","Sham":1,"Color":"yellow","trial_type":"pit-trial","trial_index":20,"time_elapsed":438036,"internal_node_id":"0.0-9.0","task_version":"test-retest-t4"},{"Rune":"rune_07_laukaz","Hex":"#3366ff99","Correct":32,"Choice":32,"RT":298,"Accuracy":1,"Outcome":"-1","Keys":[1798],"TotalKeys":1,"Block":1,"Trial":4,"Robot":3,"Valence":"Lose","Action":"Go","Sham":0,"Color":"blue","trial_type":"pit-trial","trial_index":21,"time_elapsed":440840,"internal_node_id":"0.0-10.0","task_version":"test-retest-t4"},{"Rune":"rune_07_kauna","Hex":"#ffcc3399","Correct":32,"Choice":32,"RT":372,"Accuracy":1,"Outcome":"+10","Keys":[1873],"TotalKeys":1,"Block":1,"Trial":5,"Robot":1,"Valence":"Win","Action":"Go","Sham":0,"Color":"yellow","trial_type":"pit-trial","trial_index":22,"time_elapsed":443717,"internal_node_id":"0.0-11.0","task_version":"test-retest-t4"},{"Rune":"rune_07_laukaz","Hex":"#3366ff99","Correct":32,"Choice":32,"RT":585,"Accuracy":1,"Outcome":"-10","Keys":[2086],"TotalKeys":1,"Block":1,"Trial":6,"Robot":3,"Valence":"Lose","Action":"Go","Sham":1,"Color":"blue","trial_type":"pit-trial","trial_index":23,"time_elapsed":446807,"internal_node_id":"0.0-12.0","task_version":"test-retest-t4"},{"Rune":"rune_07_thurisaz","Hex":"#ffcc3399","Correct":-1,"Choice":32,"RT":413,"Accuracy":0,"Outcome":"+1","Keys":[1913],"TotalKeys":1,"Block":1,"Trial":7,"Robot":2,"Valence":"Win","Action":"No-Go","Sham":0,"Color":"yellow","trial_type":"pit-trial","trial_index":24,"time_elapsed":449725,"internal_node_id":"0.0-13.0","task_version":"test-retest-t4"},{"Rune":"rune_07_gar","Hex":"#3366ff99","Correct":-1,"Choice":-1,"RT":-1,"Accuracy":1,"Outcome":"-1","Keys":[],"TotalKeys":0,"Block":1,"Trial":8,"Robot":4,"Valence":"Lose","Action":"No-Go","Sham":0,"Color":"blue","trial_type":"pit-trial","trial_index":25,"time_elapsed":453729,"internal_node_id":"0.0-14.0","task_version":"test-retest-t4"},{"Rune":"rune_07_kauna","Hex":"#ffcc3399","Correct":32,"Choice":32,"RT":697,"Accuracy":1,"Outcome":"+10","Keys":[2198],"TotalKeys":1,"Block":1,"Trial":9,"Robot":1,"Valence":"Win","Action":"Go","Sham":0,"Color":"yellow","trial_type":"pit-trial","trial_index":26,"time_elapsed":456932,"internal_node_id":"0.0-15.0","task_version":"test-retest-t4"},{"Rune":"rune_07_thurisaz","Hex":"#ffcc3399","Correct":-1,"Choice":-1,"RT":-1,"Accuracy":1,"Outcome":"+10","Keys":[],"TotalKeys":0,"Block":1,"Trial":10,"Robot":2,"Valence":"Win","Action":"No-Go","Sham":0,"Color":"yellow","trial_type":"pit-trial","trial_index":27,"time_elapsed":460937,"internal_node_id":"0.0-16.0","task_version":"test-retest-t4"},{"Rune":"rune_07_gar","Hex":"#3366ff99","Correct":-1,"Choice":-1,"RT":-1,"Accuracy":1,"Outcome":"-10","Keys":[],"TotalKeys":0,"Block":1,"Trial":11,"Robot":4,"Valence":"Lose","Action":"No-Go","Sham":1,"Color":"blue","trial_type":"pit-trial","trial_index":28,"time_elapsed":464941,"internal_node_id":"0.0-17.0","task_version":"test-retest-t4"},{"Rune":"rune_07_laukaz","Hex":"#3366ff99","Correct":32,"Choice":32,"RT":508,"Accuracy":1,"Outcome":"-1","Keys":[2009],"TotalKeys":1,"Block":1,"Trial":12,"Robot":3,"Valence":"Lose","Action":"Go","Sham":0,"Color":"blue","trial_type":"pit-trial","trial_index":29,"time_elapsed":467954,"internal_node_id":"0.0-18.0","task_version":"test-retest-t4"},{"Rune":"rune_07_thurisaz","Hex":"#ffcc3399","Correct":-1,"Choice":-1,"RT":-1,"Accuracy":1,"Outcome":"+1","Keys":[],"TotalKeys":0,"Block":1,"Trial":13,"Robot":2,"Valence":"Win","Action":"No-Go","Sham":1,"Color":"yellow","trial_type":"pit-trial","trial_index":30,"time_elapsed":471958,"internal_node_id":"0.0-19.0","task_version":"test-retest-t4"},{"Rune":"rune_07_gar","Hex":"#3366ff99","Correct":-1,"Choice":32,"RT":916,"Accuracy":0,"Outcome":"-10","Keys":[2417],"TotalKeys":1,"Block":1,"Trial":14,"Robot":4,"Valence":"Lose","Action":"No-Go","Sham":0,"Color":"blue","trial_type":"pit-trial","trial_index":31,"time_elapsed":475379,"internal_node_id":"0.0-20.0","task_version":"test-retest-t4"},{"Rune":"rune_07_laukaz","Hex":"#3366ff99","Correct":32,"Choice":32,"RT":1275,"Accuracy":1,"Outcome":"-1","Keys":[2775],"TotalKeys":1,"Block":1,"Trial":15,"Robot":3,"Valence":"Lose","Action":"Go","Sham":0,"Color":"blue","trial_type":"pit-trial","trial_index":32,"time_elapsed":479160,"internal_node_id":"0.0-21.0","task_version":"test-retest-t4"},{"Rune":"rune_07_kauna","Hex":"#ffcc3399","Correct":32,"Choice":32,"RT":515,"Accuracy":1,"Outcome":"+10","Keys":[2015],"TotalKeys":1,"Block":1,"Trial":16,"Robot":1,"Valence":"Win","Action":"Go","Sham":0,"Color":"yellow","trial_type":"pit-trial","trial_index":33,"time_elapsed":482179,"internal_node_id":"0.0-22.0","task_version":"test-retest-t4"},{"Rune":"rune_07_gar","Hex":"#3366ff99","Correct":-1,"Choice":-1,"RT":-1,"Accuracy":1,"Outcome":"-1","Keys":[],"TotalKeys":0,"Block":1,"Trial":17,"Robot":4,"Valence":"Lose","Action":"No-Go","Sham":0,"Color":"blue","trial_type":"pit-trial","trial_index":34,"time_elapsed":486183,"internal_node_id":"0.0-23.0","task_version":"test-retest-t4"},{"Rune":"rune_07_kauna","Hex":"#ffcc3399","Correct":32,"Choice":32,"RT":464,"Accuracy":1,"Outcome":"+10","Keys":[1964],"TotalKeys":1,"Block":1,"Trial":18,"Robot":1,"Valence":"Win","Action":"Go","Sham":0,"Color":"yellow","trial_type":"pit-trial","trial_index":35,"time_elapsed":489151,"internal_node_id":"0.0-24.0","task_version":"test-retest-t4"},{"Rune":"rune_07_laukaz","Hex":"#3366ff99","Correct":32,"Choice":32,"RT":513,"Accuracy":1,"Outcome":"-1","Keys":[2014],"TotalKeys":1,"Block":1,"Trial":19,"Robot":3,"Valence":"Lose","Action":"Go","Sham":0,"Color":"blue","trial_type":"pit-trial","trial_index":36,"time_elapsed":492168,"internal_node_id":"0.0-25.0","task_version":"test-retest-t4"},{"Rune":"rune_07_thurisaz","Hex":"#ffcc3399","Correct":-1,"Choice":32,"RT":699,"Accuracy":0,"Outcome":"+1","Keys":[2199],"TotalKeys":1,"Block":1,"Trial":20,"Robot":2,"Valence":"Win","Action":"No-Go","Sham":0,"Color":"yellow","trial_type":"pit-trial","trial_index":37,"time_elapsed":495372,"internal_node_id":"0.0-26.0","task_version":"test-retest-t4"},{"Rune":"rune_07_kauna","Hex":"#ffcc3399","Correct":32,"Choice":32,"RT":530,"Accuracy":1,"Outcome":"+10","Keys":[2032],"TotalKeys":1,"Block":1,"Trial":21,"Robot":1,"Valence":"Win","Action":"Go","Sham":0,"Color":"yellow","trial_type":"pit-trial","trial_index":38,"time_elapsed":498408,"internal_node_id":"0.0-27.0","task_version":"test-retest-t4"},{"Rune":"rune_07_thurisaz","Hex":"#ffcc3399","Correct":-1,"Choice":-1,"RT":-1,"Accuracy":1,"Outcome":"+10","Keys":[],"TotalKeys":0,"Block":1,"Trial":22,"Robot":2,"Valence":"Win","Action":"No-Go","Sham":0,"Color":"yellow","trial_type":"pit-trial","trial_index":39,"time_elapsed":502411,"internal_node_id":"0.0-28.0","task_version":"test-retest-t4"},{"Rune":"rune_07_gar","Hex":"#3366ff99","Correct":-1,"Choice":-1,"RT":-1,"Accuracy":1,"Outcome":"-1","Keys":[],"TotalKeys":0,"Block":1,"Trial":23,"Robot":4,"Valence":"Lose","Action":"No-Go","Sham":0,"Color":"blue","trial_type":"pit-trial","trial_index":40,"time_elapsed":506416,"internal_node_id":"0.0-29.0","task_version":"test-retest-t4"},{"Rune":"rune_07_laukaz","Hex":"#3366ff99","Correct":32,"Choice":32,"RT":297,"Accuracy":1,"Outcome":"-1","Keys":[1798],"TotalKeys":1,"Block":1,"Trial":24,"Robot":3,"Valence":"Lose","Action":"Go","Sham":0,"Color":"blue","trial_type":"pit-trial","trial_index":41,"time_elapsed":509218,"internal_node_id":"0.0-30.0","task_version":"test-retest-t4"},{"Rune":"rune_07_kauna","Hex":"#ffcc3399","Correct":32,"Choice":32,"RT":405,"Accuracy":1,"Outcome":"+1","Keys":[1905],"TotalKeys":1,"Block":1,"Trial":25,"Robot":1,"Valence":"Win","Action":"Go","Sham":1,"Color":"yellow","trial_type":"pit-trial","trial_index":42,"time_elapsed":512128,"internal_node_id":"0.0-31.0","task_version":"test-retest-t4"},{"Rune":"rune_07_thurisaz","Hex":"#ffcc3399","Correct":-1,"Choice":-1,"RT":-1,"Accuracy":1,"Outcome":"+10","Keys":[],"TotalKeys":0,"Block":1,"Trial":26,"Robot":2,"Valence":"Win","Action":"No-Go","Sham":0,"Color":"yellow","trial_type":"pit-trial","trial_index":43,"time_elapsed":516131,"internal_node_id":"0.0-32.0","task_version":"test-retest-t4"},{"Rune":"rune_07_gar","Hex":"#3366ff99","Correct":-1,"Choice":-1,"RT":-1,"Accuracy":1,"Outcome":"-1","Keys":[],"TotalKeys":0,"Block":1,"Trial":27,"Robot":4,"Valence":"Lose","Action":"No-Go","Sham":0,"Color":"blue","trial_type":"pit-trial","trial_index":44,"time_elapsed":520137,"internal_node_id":"0.0-33.0","task_version":"test-retest-t4"},{"Rune":"rune_07_laukaz","Hex":"#3366ff99","Correct":32,"Choice":32,"RT":494,"Accuracy":1,"Outcome":"-1","Keys":[1994],"TotalKeys":1,"Block":1,"Trial":28,"Robot":3,"Valence":"Lose","Action":"Go","Sham":0,"Color":"blue","trial_type":"pit-trial","trial_index":45,"time_elapsed":523135,"internal_node_id":"0.0-34.0","task_version":"test-retest-t4"},{"Rune":"rune_07_kauna","Hex":"#ffcc3399","Correct":32,"Choice":32,"RT":415,"Accuracy":1,"Outcome":"+10","Keys":[1916],"TotalKeys":1,"Block":1,"Trial":29,"Robot":1,"Valence":"Win","Action":"Go","Sham":0,"Color":"yellow","trial_type":"pit-trial","trial_index":46,"time_elapsed":526055,"internal_node_id":"0.0-35.0","task_version":"test-retest-t4"},{"Rune":"rune_07_gar","Hex":"#3366ff99","Correct":-1,"Choice":-1,"RT":-1,"Accuracy":1,"Outcome":"-1","Keys":[],"TotalKeys":0,"Block":1,"Trial":30,"Robot":4,"Valence":"Lose","Action":"No-Go","Sham":0,"Color":"blue","trial_type":"pit-trial","trial_index":47,"time_elapsed":530060,"internal_node_id":"0.0-36.0","task_version":"test-retest-t4"},{"Rune":"rune_07_thurisaz","Hex":"#ffcc3399","Correct":-1,"Choice":-1,"RT":-1,"Accuracy":1,"Outcome":"+10","Keys":[],"TotalKeys":0,"Block":1,"Trial":31,"Robot":2,"Valence":"Win","Action":"No-Go","Sham":0,"Color":"yellow","trial_type":"pit-trial","trial_index":48,"time_elapsed":534065,"internal_node_id":"0.0-37.0","task_version":"test-retest-t4"},{"Rune":"rune_07_laukaz","Hex":"#3366ff99","Correct":32,"Choice":32,"RT":323,"Accuracy":1,"Outcome":"-10","Keys":[1823],"TotalKeys":1,"Block":1,"Trial":32,"Robot":3,"Valence":"Lose","Action":"Go","Sham":1,"Color":"blue","trial_type":"pit-trial","trial_index":49,"time_elapsed":536892,"internal_node_id":"0.0-38.0","task_version":"test-retest-t4"},{"Rune":"rune_07_laukaz","Hex":"#3366ff99","Correct":32,"Choice":32,"RT":517,"Accuracy":1,"Outcome":"-1","Keys":[2017],"TotalKeys":1,"Block":1,"Trial":33,"Robot":3,"Valence":"Lose","Action":"Go","Sham":0,"Color":"blue","trial_type":"pit-trial","trial_index":50,"time_elapsed":539912,"internal_node_id":"0.0-39.0","task_version":"test-retest-t4"},{"Rune":"rune_07_gar","Hex":"#3366ff99","Correct":-1,"Choice":-1,"RT":-1,"Accuracy":1,"Outcome":"-10","Keys":[],"TotalKeys":0,"Block":1,"Trial":34,"Robot":4,"Valence":"Lose","Action":"No-Go","Sham":1,"Color":"blue","trial_type":"pit-trial","trial_index":51,"time_elapsed":543916,"internal_node_id":"0.0-40.0","task_version":"test-retest-t4"},{"Rune":"rune_07_kauna","Hex":"#ffcc3399","Correct":32,"Choice":32,"RT":375,"Accuracy":1,"Outcome":"+10","Keys":[1875],"TotalKeys":1,"Block":1,"Trial":35,"Robot":1,"Valence":"Win","Action":"Go","Sham":0,"Color":"yellow","trial_type":"pit-trial","trial_index":52,"time_elapsed":546796,"internal_node_id":"0.0-41.0","task_version":"test-retest-t4"},{"Rune":"rune_07_thurisaz","Hex":"#ffcc3399","Correct":-1,"Choice":-1,"RT":-1,"Accuracy":1,"Outcome":"+10","Keys":[],"TotalKeys":0,"Block":1,"Trial":36,"Robot":2,"Valence":"Win","Action":"No-Go","Sham":0,"Color":"yellow","trial_type":"pit-trial","trial_index":53,"time_elapsed":550800,"internal_node_id":"0.0-42.0","task_version":"test-retest-t4"},{"Rune":"rune_07_thurisaz","Hex":"#ffcc3399","Correct":-1,"Choice":-1,"RT":-1,"Accuracy":1,"Outcome":"+1","Keys":[],"TotalKeys":0,"Block":1,"Trial":37,"Robot":2,"Valence":"Win","Action":"No-Go","Sham":1,"Color":"yellow","trial_type":"pit-trial","trial_index":54,"time_elapsed":554805,"internal_node_id":"0.0-43.0","task_version":"test-retest-t4"},{"Rune":"rune_07_kauna","Hex":"#ffcc3399","Correct":32,"Choice":32,"RT":387,"Accuracy":1,"Outcome":"+10","Keys":[1888],"TotalKeys":1,"Block":1,"Trial":38,"Robot":1,"Valence":"Win","Action":"Go","Sham":0,"Color":"yellow","trial_type":"pit-trial","trial_index":55,"time_elapsed":557695,"internal_node_id":"0.0-44.0","task_version":"test-retest-t4"},{"Rune":"rune_07_gar","Hex":"#3366ff99","Correct":-1,"Choice":-1,"RT":-1,"Accuracy":1,"Outcome":"-1","Keys":[],"TotalKeys":0,"Block":1,"Trial":39,"Robot":4,"Valence":"Lose","Action":"No-Go","Sham":0,"Color":"blue","trial_type":"pit-trial","trial_index":56,"time_elapsed":561700,"internal_node_id":"0.0-45.0","task_version":"test-retest-t4"},{"Rune":"rune_07_laukaz","Hex":"#3366ff99","Correct":32,"Choice":32,"RT":350,"Accuracy":1,"Outcome":"-1","Keys":[1853],"TotalKeys":1,"Block":1,"Trial":40,"Robot":3,"Valence":"Lose","Action":"Go","Sham":0,"Color":"blue","trial_type":"pit-trial","trial_index":57,"time_elapsed":564557,"internal_node_id":"0.0-46.0","task_version":"test-retest-t4"},{"Rune":"rune_07_thurisaz","Hex":"#ffcc3399","Correct":-1,"Choice":-1,"RT":-1,"Accuracy":1,"Outcome":"+10","Keys":[],"TotalKeys":0,"Block":1,"Trial":41,"Robot":2,"Valence":"Win","Action":"No-Go","Sham":0,"Color":"yellow","trial_type":"pit-trial","trial_index":58,"time_elapsed":568562,"internal_node_id":"0.0-47.0","task_version":"test-retest-t4"},{"Rune":"rune_07_kauna","Hex":"#ffcc3399","Correct":32,"Choice":32,"RT":266,"Accuracy":1,"Outcome":"+10","Keys":[1767],"TotalKeys":1,"Block":1,"Trial":42,"Robot":1,"Valence":"Win","Action":"Go","Sham":0,"Color":"yellow","trial_type":"pit-trial","trial_index":59,"time_elapsed":571332,"internal_node_id":"0.0-48.0","task_version":"test-retest-t4"},{"Rune":"rune_07_laukaz","Hex":"#3366ff99","Correct":32,"Choice":32,"RT":300,"Accuracy":1,"Outcome":"-1","Keys":[1800],"TotalKeys":1,"Block":1,"Trial":43,"Robot":3,"Valence":"Lose","Action":"Go","Sham":0,"Color":"blue","trial_type":"pit-trial","trial_index":60,"time_elapsed":574137,"internal_node_id":"0.0-49.0","task_version":"test-retest-t4"},{"Rune":"rune_07_gar","Hex":"#3366ff99","Correct":-1,"Choice":-1,"RT":-1,"Accuracy":1,"Outcome":"-1","Keys":[],"TotalKeys":0,"Block":1,"Trial":44,"Robot":4,"Valence":"Lose","Action":"No-Go","Sham":0,"Color":"blue","trial_type":"pit-trial","trial_index":61,"time_elapsed":578141,"internal_node_id":"0.0-50.0","task_version":"test-retest-t4"},{"Rune":"rune_07_laukaz","Hex":"#3366ff99","Correct":32,"Choice":32,"RT":297,"Accuracy":1,"Outcome":"-10","Keys":[1797],"TotalKeys":1,"Block":1,"Trial":45,"Robot":3,"Valence":"Lose","Action":"Go","Sham":1,"Color":"blue","trial_type":"pit-trial","trial_index":62,"time_elapsed":580942,"internal_node_id":"0.0-51.0","task_version":"test-retest-t4"},{"Rune":"rune_07_kauna","Hex":"#ffcc3399","Correct":32,"Choice":32,"RT":320,"Accuracy":1,"Outcome":"+1","Keys":[1820],"TotalKeys":1,"Block":1,"Trial":46,"Robot":1,"Valence":"Win","Action":"Go","Sham":1,"Color":"yellow","trial_type":"pit-trial","trial_index":63,"time_elapsed":583766,"internal_node_id":"0.0-52.0","task_version":"test-retest-t4"},{"Rune":"rune_07_thurisaz","Hex":"#ffcc3399","Correct":-1,"Choice":-1,"RT":-1,"Accuracy":1,"Outcome":"+10","Keys":[],"TotalKeys":0,"Block":1,"Trial":47,"Robot":2,"Valence":"Win","Action":"No-Go","Sham":0,"Color":"yellow","trial_type":"pit-trial","trial_index":64,"time_elapsed":587771,"internal_node_id":"0.0-53.0","task_version":"test-retest-t4"},{"Rune":"rune_07_gar","Hex":"#3366ff99","Correct":-1,"Choice":-1,"RT":-1,"Accuracy":1,"Outcome":"-1","Keys":[],"TotalKeys":0,"Block":1,"Trial":48,"Robot":4,"Valence":"Lose","Action":"No-Go","Sham":0,"Color":"blue","trial_type":"pit-trial","trial_index":65,"time_elapsed":591775,"internal_node_id":"0.0-54.0","task_version":"test-retest-t4"},{"Rune":"rune_07_laukaz","Hex":"#3366ff99","Correct":32,"Choice":32,"RT":433,"Accuracy":1,"Outcome":"-1","Keys":[1932],"TotalKeys":1,"Block":1,"Trial":49,"Robot":3,"Valence":"Lose","Action":"Go","Sham":0,"Color":"blue","trial_type":"pit-trial","trial_index":66,"time_elapsed":594712,"internal_node_id":"0.0-55.0","task_version":"test-retest-t4"},{"Rune":"rune_07_thurisaz","Hex":"#ffcc3399","Correct":-1,"Choice":-1,"RT":-1,"Accuracy":1,"Outcome":"+10","Keys":[],"TotalKeys":0,"Block":1,"Trial":50,"Robot":2,"Valence":"Win","Action":"No-Go","Sham":0,"Color":"yellow","trial_type":"pit-trial","trial_index":67,"time_elapsed":598717,"internal_node_id":"0.0-56.0","task_version":"test-retest-t4"},{"Rune":"rune_07_gar","Hex":"#3366ff99","Correct":-1,"Choice":-1,"RT":-1,"Accuracy":1,"Outcome":"-10","Keys":[],"TotalKeys":0,"Block":1,"Trial":51,"Robot":4,"Valence":"Lose","Action":"No-Go","Sham":1,"Color":"blue","trial_type":"pit-trial","trial_index":68,"time_elapsed":602721,"internal_node_id":"0.0-57.0","task_version":"test-retest-t4"},{"Rune":"rune_07_kauna","Hex":"#ffcc3399","Correct":32,"Choice":32,"RT":356,"Accuracy":1,"Outcome":"+10","Keys":[1856],"TotalKeys":1,"Block":1,"Trial":52,"Robot":1,"Valence":"Win","Action":"Go","Sham":0,"Color":"yellow","trial_type":"pit-trial","trial_index":69,"time_elapsed":605581,"internal_node_id":"0.0-58.0","task_version":"test-retest-t4"},{"Rune":"rune_07_thurisaz","Hex":"#ffcc3399","Correct":-1,"Choice":-1,"RT":-1,"Accuracy":1,"Outcome":"+1","Keys":[],"TotalKeys":0,"Block":1,"Trial":53,"Robot":2,"Valence":"Win","Action":"No-Go","Sham":1,"Color":"yellow","trial_type":"pit-trial","trial_index":70,"time_elapsed":609586,"internal_node_id":"0.0-59.0","task_version":"test-retest-t4"},{"Rune":"rune_07_laukaz","Hex":"#3366ff99","Correct":32,"Choice":32,"RT":416,"Accuracy":1,"Outcome":"-1","Keys":[1916],"TotalKeys":1,"Block":1,"Trial":54,"Robot":3,"Valence":"Lose","Action":"Go","Sham":0,"Color":"blue","trial_type":"pit-trial","trial_index":71,"time_elapsed":612507,"internal_node_id":"0.0-60.0","task_version":"test-retest-t4"},{"Rune":"rune_07_kauna","Hex":"#ffcc3399","Correct":32,"Choice":32,"RT":450,"Accuracy":1,"Outcome":"+10","Keys":[1952],"TotalKeys":1,"Block":1,"Trial":55,"Robot":1,"Valence":"Win","Action":"Go","Sham":0,"Color":"yellow","trial_type":"pit-trial","trial_index":72,"time_elapsed":615463,"internal_node_id":"0.0-61.0","task_version":"test-retest-t4"},{"Rune":"rune_07_gar","Hex":"#3366ff99","Correct":-1,"Choice":-1,"RT":-1,"Accuracy":1,"Outcome":"-1","Keys":[],"TotalKeys":0,"Block":1,"Trial":56,"Robot":4,"Valence":"Lose","Action":"No-Go","Sham":0,"Color":"blue","trial_type":"pit-trial","trial_index":73,"time_elapsed":619467,"internal_node_id":"0.0-62.0","task_version":"test-retest-t4"},{"Rune":"rune_07_laukaz","Hex":"#3366ff99","Correct":32,"Choice":32,"RT":277,"Accuracy":1,"Outcome":"-1","Keys":[1778],"TotalKeys":1,"Block":1,"Trial":57,"Robot":3,"Valence":"Lose","Action":"Go","Sham":0,"Color":"blue","trial_type":"pit-trial","trial_index":74,"time_elapsed":622248,"internal_node_id":"0.0-63.0","task_version":"test-retest-t4"},{"Rune":"rune_07_thurisaz","Hex":"#ffcc3399","Correct":-1,"Choice":-1,"RT":-1,"Accuracy":1,"Outcome":"+10","Keys":[],"TotalKeys":0,"Block":1,"Trial":58,"Robot":2,"Valence":"Win","Action":"No-Go","Sham":0,"Color":"yellow","trial_type":"pit-trial","trial_index":75,"time_elapsed":626252,"internal_node_id":"0.0-64.0","task_version":"test-retest-t4"},{"Rune":"rune_07_kauna","Hex":"#ffcc3399","Correct":32,"Choice":32,"RT":260,"Accuracy":1,"Outcome":"+10","Keys":[1760],"TotalKeys":1,"Block":1,"Trial":59,"Robot":1,"Valence":"Win","Action":"Go","Sham":0,"Color":"yellow","trial_type":"pit-trial","trial_index":76,"time_elapsed":629016,"internal_node_id":"0.0-65.0","task_version":"test-retest-t4"},{"Rune":"rune_07_gar","Hex":"#3366ff99","Correct":-1,"Choice":-1,"RT":-1,"Accuracy":1,"Outcome":"-1","Keys":[],"TotalKeys":0,"Block":1,"Trial":60,"Robot":4,"Valence":"Lose","Action":"No-Go","Sham":0,"Color":"blue","trial_type":"pit-trial","trial_index":77,"time_elapsed":633021,"internal_node_id":"0.0-66.0","task_version":"test-retest-t4"},{"value":false,"trial_type":"call-function","trial_index":78,"time_elapsed":633024,"internal_node_id":"0.0-67.0","task_version":"test-retest-t4"},{"view_history":"[{\"page_index\":0,\"viewing_time\":3965},{\"page_index\":1,\"viewing_time\":3148}]","rt":7114,"trial_type":"pit-instructions","trial_index":79,"time_elapsed":640140,"internal_node_id":"0.0-68.0","task_version":"test-retest-t4"},{"Rune":"rune_07_thurisaz","Hex":"#ffcc3399","Correct":-1,"Choice":-1,"RT":-1,"Accuracy":1,"Outcome":"+10","Keys":[],"TotalKeys":0,"Block":1,"Trial":61,"Robot":2,"Valence":"Win","Action":"No-Go","Sham":0,"Color":"yellow","trial_type":"pit-trial","trial_index":80,"time_elapsed":644148,"internal_node_id":"0.0-69.0","task_version":"test-retest-t4"},{"Rune":"rune_07_kauna","Hex":"#ffcc3399","Correct":32,"Choice":32,"RT":450,"Accuracy":1,"Outcome":"+10","Keys":[1950],"TotalKeys":1,"Block":1,"Trial":62,"Robot":1,"Valence":"Win","Action":"Go","Sham":0,"Color":"yellow","trial_type":"pit-trial","trial_index":81,"time_elapsed":647104,"internal_node_id":"0.0-70.0","task_version":"test-retest-t4"},{"Rune":"rune_07_gar","Hex":"#3366ff99","Correct":-1,"Choice":-1,"RT":-1,"Accuracy":1,"Outcome":"-1","Keys":[],"TotalKeys":0,"Block":1,"Trial":63,"Robot":4,"Valence":"Lose","Action":"No-Go","Sham":0,"Color":"blue","trial_type":"pit-trial","trial_index":82,"time_elapsed":651108,"internal_node_id":"0.0-71.0","task_version":"test-retest-t4"},{"Rune":"rune_07_laukaz","Hex":"#3366ff99","Correct":32,"Choice":32,"RT":414,"Accuracy":1,"Outcome":"-1","Keys":[1915],"TotalKeys":1,"Block":1,"Trial":64,"Robot":3,"Valence":"Lose","Action":"Go","Sham":0,"Color":"blue","trial_type":"pit-trial","trial_index":83,"time_elapsed":654027,"internal_node_id":"0.0-72.0","task_version":"test-retest-t4"},{"Rune":"rune_07_thurisaz","Hex":"#ffcc3399","Correct":-1,"Choice":-1,"RT":-1,"Accuracy":1,"Outcome":"+1","Keys":[],"TotalKeys":0,"Block":1,"Trial":65,"Robot":2,"Valence":"Win","Action":"No-Go","Sham":1,"Color":"yellow","trial_type":"pit-trial","trial_index":84,"time_elapsed":658032,"internal_node_id":"0.0-73.0","task_version":"test-retest-t4"},{"Rune":"rune_07_laukaz","Hex":"#3366ff99","Correct":32,"Choice":32,"RT":394,"Accuracy":1,"Outcome":"-10","Keys":[1894],"TotalKeys":1,"Block":1,"Trial":66,"Robot":3,"Valence":"Lose","Action":"Go","Sham":1,"Color":"blue","trial_type":"pit-trial","trial_index":85,"time_elapsed":660931,"internal_node_id":"0.0-74.0","task_version":"test-retest-t4"},{"Rune":"rune_07_kauna","Hex":"#ffcc3399","Correct":32,"Choice":32,"RT":328,"Accuracy":1,"Outcome":"+10","Keys":[1828],"TotalKeys":1,"Block":1,"Trial":67,"Robot":1,"Valence":"Win","Action":"Go","Sham":0,"Color":"yellow","trial_type":"pit-trial","trial_index":86,"time_elapsed":663763,"internal_node_id":"0.0-75.0","task_version":"test-retest-t4"},{"Rune":"rune_07_gar","Hex":"#3366ff99","Correct":-1,"Choice":-1,"RT":-1,"Accuracy":1,"Outcome":"-1","Keys":[],"TotalKeys":0,"Block":1,"Trial":68,"Robot":4,"Valence":"Lose","Action":"No-Go","Sham":0,"Color":"blue","trial_type":"pit-trial","trial_index":87,"time_elapsed":667767,"internal_node_id":"0.0-76.0","task_version":"test-retest-t4"},{"Rune":"rune_07_kauna","Hex":"#ffcc3399","Correct":32,"Choice":32,"RT":292,"Accuracy":1,"Outcome":"+1","Keys":[1792],"TotalKeys":1,"Block":1,"Trial":69,"Robot":1,"Valence":"Win","Action":"Go","Sham":1,"Color":"yellow","trial_type":"pit-trial","trial_index":88,"time_elapsed":670563,"internal_node_id":"0.0-77.0","task_version":"test-retest-t4"},{"Rune":"rune_07_gar","Hex":"#3366ff99","Correct":-1,"Choice":-1,"RT":-1,"Accuracy":1,"Outcome":"-1","Keys":[],"TotalKeys":0,"Block":1,"Trial":70,"Robot":4,"Valence":"Lose","Action":"No-Go","Sham":0,"Color":"blue","trial_type":"pit-trial","trial_index":89,"time_elapsed":674566,"internal_node_id":"0.0-78.0","task_version":"test-retest-t4"},{"Rune":"rune_07_thurisaz","Hex":"#ffcc3399","Correct":-1,"Choice":-1,"RT":-1,"Accuracy":1,"Outcome":"+10","Keys":[],"TotalKeys":0,"Block":1,"Trial":71,"Robot":2,"Valence":"Win","Action":"No-Go","Sham":0,"Color":"yellow","trial_type":"pit-trial","trial_index":90,"time_elapsed":678571,"internal_node_id":"0.0-79.0","task_version":"test-retest-t4"},{"Rune":"rune_07_laukaz","Hex":"#3366ff99","Correct":32,"Choice":32,"RT":341,"Accuracy":1,"Outcome":"-1","Keys":[1841],"TotalKeys":1,"Block":1,"Trial":72,"Robot":3,"Valence":"Lose","Action":"Go","Sham":0,"Color":"blue","trial_type":"pit-trial","trial_index":91,"time_elapsed":681418,"internal_node_id":"0.0-80.0","task_version":"test-retest-t4"},{"Rune":"rune_07_laukaz","Hex":"#3366ff99","Correct":32,"Choice":32,"RT":442,"Accuracy":1,"Outcome":"-1","Keys":[1943],"TotalKeys":1,"Block":1,"Trial":73,"Robot":3,"Valence":"Lose","Action":"Go","Sham":0,"Color":"blue","trial_type":"pit-trial","trial_index":92,"time_elapsed":684363,"internal_node_id":"0.0-81.0","task_version":"test-retest-t4"},{"Rune":"rune_07_gar","Hex":"#3366ff99","Correct":-1,"Choice":-1,"RT":-1,"Accuracy":1,"Outcome":"-10","Keys":[],"TotalKeys":0,"Block":1,"Trial":74,"Robot":4,"Valence":"Lose","Action":"No-Go","Sham":1,"Color":"blue","trial_type":"pit-trial","trial_index":93,"time_elapsed":688368,"internal_node_id":"0.0-82.0","task_version":"test-retest-t4"},{"Rune":"rune_07_kauna","Hex":"#ffcc3399","Correct":32,"Choice":32,"RT":299,"Accuracy":1,"Outcome":"+10","Keys":[1800],"TotalKeys":1,"Block":1,"Trial":75,"Robot":1,"Valence":"Win","Action":"Go","Sham":0,"Color":"yellow","trial_type":"pit-trial","trial_index":94,"time_elapsed":691171,"internal_node_id":"0.0-83.0","task_version":"test-retest-t4"},{"Rune":"rune_07_thurisaz","Hex":"#ffcc3399","Correct":-1,"Choice":-1,"RT":-1,"Accuracy":1,"Outcome":"+10","Keys":[],"TotalKeys":0,"Block":1,"Trial":76,"Robot":2,"Valence":"Win","Action":"No-Go","Sham":0,"Color":"yellow","trial_type":"pit-trial","trial_index":95,"time_elapsed":695175,"internal_node_id":"0.0-84.0","task_version":"test-retest-t4"},{"Rune":"rune_07_gar","Hex":"#3366ff99","Correct":-1,"Choice":-1,"RT":-1,"Accuracy":1,"Outcome":"-1","Keys":[],"TotalKeys":0,"Block":1,"Trial":77,"Robot":4,"Valence":"Lose","Action":"No-Go","Sham":0,"Color":"blue","trial_type":"pit-trial","trial_index":96,"time_elapsed":699179,"internal_node_id":"0.0-85.0","task_version":"test-retest-t4"},{"Rune":"rune_07_laukaz","Hex":"#3366ff99","Correct":32,"Choice":32,"RT":421,"Accuracy":1,"Outcome":"-1","Keys":[1922],"TotalKeys":1,"Block":1,"Trial":78,"Robot":3,"Valence":"Lose","Action":"Go","Sham":0,"Color":"blue","trial_type":"pit-trial","trial_index":97,"time_elapsed":702105,"internal_node_id":"0.0-86.0","task_version":"test-retest-t4"},{"Rune":"rune_07_kauna","Hex":"#ffcc3399","Correct":32,"Choice":32,"RT":323,"Accuracy":1,"Outcome":"+10","Keys":[1823],"TotalKeys":1,"Block":1,"Trial":79,"Robot":1,"Valence":"Win","Action":"Go","Sham":0,"Color":"yellow","trial_type":"pit-trial","trial_index":98,"time_elapsed":704934,"internal_node_id":"0.0-87.0","task_version":"test-retest-t4"},{"Rune":"rune_07_thurisaz","Hex":"#ffcc3399","Correct":-1,"Choice":-1,"RT":-1,"Accuracy":1,"Outcome":"+10","Keys":[],"TotalKeys":0,"Block":1,"Trial":80,"Robot":2,"Valence":"Win","Action":"No-Go","Sham":0,"Color":"yellow","trial_type":"pit-trial","trial_index":99,"time_elapsed":708939,"internal_node_id":"0.0-88.0","task_version":"test-retest-t4"},{"Rune":"rune_07_laukaz","Hex":"#3366ff99","Correct":32,"Choice":32,"RT":408,"Accuracy":1,"Outcome":"-1","Keys":[1910],"TotalKeys":1,"Block":1,"Trial":81,"Robot":3,"Valence":"Lose","Action":"Go","Sham":0,"Color":"blue","trial_type":"pit-trial","trial_index":100,"time_elapsed":711853,"internal_node_id":"0.0-89.0","task_version":"test-retest-t4"},{"Rune":"rune_07_gar","Hex":"#3366ff99","Correct":-1,"Choice":-1,"RT":-1,"Accuracy":1,"Outcome":"-1","Keys":[],"TotalKeys":0,"Block":1,"Trial":82,"Robot":4,"Valence":"Lose","Action":"No-Go","Sham":0,"Color":"blue","trial_type":"pit-trial","trial_index":101,"time_elapsed":715857,"internal_node_id":"0.0-90.0","task_version":"test-retest-t4"},{"Rune":"rune_07_kauna","Hex":"#ffcc3399","Correct":32,"Choice":32,"RT":299,"Accuracy":1,"Outcome":"+10","Keys":[1799],"TotalKeys":1,"Block":1,"Trial":83,"Robot":1,"Valence":"Win","Action":"Go","Sham":0,"Color":"yellow","trial_type":"pit-trial","trial_index":102,"time_elapsed":718660,"internal_node_id":"0.0-91.0","task_version":"test-retest-t4"},{"Rune":"rune_07_thurisaz","Hex":"#ffcc3399","Correct":-1,"Choice":-1,"RT":-1,"Accuracy":1,"Outcome":"+10","Keys":[],"TotalKeys":0,"Block":1,"Trial":84,"Robot":2,"Valence":"Win","Action":"No-Go","Sham":0,"Color":"yellow","trial_type":"pit-trial","trial_index":103,"time_elapsed":722665,"internal_node_id":"0.0-92.0","task_version":"test-retest-t4"},{"Rune":"rune_07_gar","Hex":"#3366ff99","Correct":-1,"Choice":-1,"RT":-1,"Accuracy":1,"Outcome":"-10","Keys":[],"TotalKeys":0,"Block":1,"Trial":85,"Robot":4,"Valence":"Lose","Action":"No-Go","Sham":1,"Color":"blue","trial_type":"pit-trial","trial_index":104,"time_elapsed":726672,"internal_node_id":"0.0-93.0","task_version":"test-retest-t4"},{"Rune":"rune_07_thurisaz","Hex":"#ffcc3399","Correct":-1,"Choice":-1,"RT":-1,"Accuracy":1,"Outcome":"+1","Keys":[],"TotalKeys":0,"Block":1,"Trial":86,"Robot":2,"Valence":"Win","Action":"No-Go","Sham":1,"Color":"yellow","trial_type":"pit-trial","trial_index":105,"time_elapsed":730675,"internal_node_id":"0.0-94.0","task_version":"test-retest-t4"},{"Rune":"rune_07_laukaz","Hex":"#3366ff99","Correct":32,"Choice":32,"RT":442,"Accuracy":1,"Outcome":"-1","Keys":[1942],"TotalKeys":1,"Block":1,"Trial":87,"Robot":3,"Valence":"Lose","Action":"Go","Sham":0,"Color":"blue","trial_type":"pit-trial","trial_index":106,"time_elapsed":733622,"internal_node_id":"0.0-95.0","task_version":"test-retest-t4"},{"Rune":"rune_07_kauna","Hex":"#ffcc3399","Correct":32,"Choice":32,"RT":298,"Accuracy":1,"Outcome":"+10","Keys":[1800],"TotalKeys":1,"Block":1,"Trial":88,"Robot":1,"Valence":"Win","Action":"Go","Sham":0,"Color":"yellow","trial_type":"pit-trial","trial_index":107,"time_elapsed":736425,"internal_node_id":"0.0-96.0","task_version":"test-retest-t4"},{"Rune":"rune_07_thurisaz","Hex":"#ffcc3399","Correct":-1,"Choice":-1,"RT":-1,"Accuracy":1,"Outcome":"+10","Keys":[],"TotalKeys":0,"Block":1,"Trial":89,"Robot":2,"Valence":"Win","Action":"No-Go","Sham":0,"Color":"yellow","trial_type":"pit-trial","trial_index":108,"time_elapsed":740430,"internal_node_id":"0.0-97.0","task_version":"test-retest-t4"},{"Rune":"rune_07_laukaz","Hex":"#3366ff99","Correct":32,"Choice":32,"RT":432,"Accuracy":1,"Outcome":"-10","Keys":[1933],"TotalKeys":1,"Block":1,"Trial":90,"Robot":3,"Valence":"Lose","Action":"Go","Sham":1,"Color":"blue","trial_type":"pit-trial","trial_index":109,"time_elapsed":743366,"internal_node_id":"0.0-98.0","task_version":"test-retest-t4"},{"Rune":"rune_07_kauna","Hex":"#ffcc3399","Correct":32,"Choice":32,"RT":371,"Accuracy":1,"Outcome":"+1","Keys":[1871],"TotalKeys":1,"Block":1,"Trial":91,"Robot":1,"Valence":"Win","Action":"Go","Sham":1,"Color":"yellow","trial_type":"pit-trial","trial_index":110,"time_elapsed":746242,"internal_node_id":"0.0-99.0","task_version":"test-retest-t4"},{"Rune":"rune_07_gar","Hex":"#3366ff99","Correct":-1,"Choice":-1,"RT":-1,"Accuracy":1,"Outcome":"-1","Keys":[],"TotalKeys":0,"Block":1,"Trial":92,"Robot":4,"Valence":"Lose","Action":"No-Go","Sham":0,"Color":"blue","trial_type":"pit-trial","trial_index":111,"time_elapsed":750248,"internal_node_id":"0.0-100.0","task_version":"test-retest-t4"},{"Rune":"rune_07_kauna","Hex":"#ffcc3399","Correct":32,"Choice":32,"RT":260,"Accuracy":1,"Outcome":"+10","Keys":[1760],"TotalKeys":1,"Block":1,"Trial":93,"Robot":1,"Valence":"Win","Action":"Go","Sham":0,"Color":"yellow","trial_type":"pit-trial","trial_index":112,"time_elapsed":753013,"internal_node_id":"0.0-101.0","task_version":"test-retest-t4"},{"Rune":"rune_07_laukaz","Hex":"#3366ff99","Correct":32,"Choice":32,"RT":469,"Accuracy":1,"Outcome":"-1","Keys":[1969],"TotalKeys":1,"Block":1,"Trial":94,"Robot":3,"Valence":"Lose","Action":"Go","Sham":0,"Color":"blue","trial_type":"pit-trial","trial_index":113,"time_elapsed":755984,"internal_node_id":"0.0-102.0","task_version":"test-retest-t4"},{"Rune":"rune_07_thurisaz","Hex":"#ffcc3399","Correct":-1,"Choice":-1,"RT":-1,"Accuracy":1,"Outcome":"+10","Keys":[],"TotalKeys":0,"Block":1,"Trial":95,"Robot":2,"Valence":"Win","Action":"No-Go","Sham":0,"Color":"yellow","trial_type":"pit-trial","trial_index":114,"time_elapsed":759989,"internal_node_id":"0.0-103.0","task_version":"test-retest-t4"},{"Rune":"rune_07_gar","Hex":"#3366ff99","Correct":-1,"Choice":-1,"RT":-1,"Accuracy":1,"Outcome":"-1","Keys":[],"TotalKeys":0,"Block":1,"Trial":96,"Robot":4,"Valence":"Lose","Action":"No-Go","Sham":0,"Color":"blue","trial_type":"pit-trial","trial_index":115,"time_elapsed":763993,"internal_node_id":"0.0-104.0","task_version":"test-retest-t4"},{"Rune":"rune_07_laukaz","Hex":"#3366ff99","Correct":32,"Choice":32,"RT":469,"Accuracy":1,"Outcome":"-1","Keys":[1969],"TotalKeys":1,"Block":1,"Trial":97,"Robot":3,"Valence":"Lose","Action":"Go","Sham":0,"Color":"blue","trial_type":"pit-trial","trial_index":116,"time_elapsed":766966,"internal_node_id":"0.0-105.0","task_version":"test-retest-t4"},{"Rune":"rune_07_kauna","Hex":"#ffcc3399","Correct":32,"Choice":32,"RT":396,"Accuracy":1,"Outcome":"+10","Keys":[1896],"TotalKeys":1,"Block":1,"Trial":98,"Robot":1,"Valence":"Win","Action":"Go","Sham":0,"Color":"yellow","trial_type":"pit-trial","trial_index":117,"time_elapsed":769867,"internal_node_id":"0.0-106.0","task_version":"test-retest-t4"},{"Rune":"rune_07_gar","Hex":"#3366ff99","Correct":-1,"Choice":-1,"RT":-1,"Accuracy":1,"Outcome":"-1","Keys":[],"TotalKeys":0,"Block":1,"Trial":99,"Robot":4,"Valence":"Lose","Action":"No-Go","Sham":0,"Color":"blue","trial_type":"pit-trial","trial_index":118,"time_elapsed":773872,"internal_node_id":"0.0-107.0","task_version":"test-retest-t4"},{"Rune":"rune_07_thurisaz","Hex":"#ffcc3399","Correct":-1,"Choice":-1,"RT":-1,"Accuracy":1,"Outcome":"+10","Keys":[],"TotalKeys":0,"Block":1,"Trial":100,"Robot":2,"Valence":"Win","Action":"No-Go","Sham":0,"Color":"yellow","trial_type":"pit-trial","trial_index":119,"time_elapsed":777876,"internal_node_id":"0.0-108.0","task_version":"test-retest-t4"},{"Rune":"rune_07_gar","Hex":"#3366ff99","Correct":-1,"Choice":-1,"RT":-1,"Accuracy":1,"Outcome":"-1","Keys":[],"TotalKeys":0,"Block":1,"Trial":101,"Robot":4,"Valence":"Lose","Action":"No-Go","Sham":0,"Color":"blue","trial_type":"pit-trial","trial_index":120,"time_elapsed":781880,"internal_node_id":"0.0-109.0","task_version":"test-retest-t4"},{"Rune":"rune_07_laukaz","Hex":"#3366ff99","Correct":32,"Choice":32,"RT":425,"Accuracy":1,"Outcome":"-1","Keys":[1925],"TotalKeys":1,"Block":1,"Trial":102,"Robot":3,"Valence":"Lose","Action":"Go","Sham":0,"Color":"blue","trial_type":"pit-trial","trial_index":121,"time_elapsed":784809,"internal_node_id":"0.0-110.0","task_version":"test-retest-t4"},{"Rune":"rune_07_thurisaz","Hex":"#ffcc3399","Correct":-1,"Choice":-1,"RT":-1,"Accuracy":1,"Outcome":"+10","Keys":[],"TotalKeys":0,"Block":1,"Trial":103,"Robot":2,"Valence":"Win","Action":"No-Go","Sham":0,"Color":"yellow","trial_type":"pit-trial","trial_index":122,"time_elapsed":788813,"internal_node_id":"0.0-111.0","task_version":"test-retest-t4"},{"Rune":"rune_07_kauna","Hex":"#ffcc3399","Correct":32,"Choice":32,"RT":403,"Accuracy":1,"Outcome":"+10","Keys":[1904],"TotalKeys":1,"Block":1,"Trial":104,"Robot":1,"Valence":"Win","Action":"Go","Sham":0,"Color":"yellow","trial_type":"pit-trial","trial_index":123,"time_elapsed":791721,"internal_node_id":"0.0-112.0","task_version":"test-retest-t4"},{"Rune":"rune_07_thurisaz","Hex":"#ffcc3399","Correct":-1,"Choice":-1,"RT":-1,"Accuracy":1,"Outcome":"+10","Keys":[],"TotalKeys":0,"Block":1,"Trial":105,"Robot":2,"Valence":"Win","Action":"No-Go","Sham":0,"Color":"yellow","trial_type":"pit-trial","trial_index":124,"time_elapsed":795725,"internal_node_id":"0.0-113.0","task_version":"test-retest-t4"},{"Rune":"rune_07_gar","Hex":"#3366ff99","Correct":-1,"Choice":-1,"RT":-1,"Accuracy":1,"Outcome":"-1","Keys":[],"TotalKeys":0,"Block":1,"Trial":106,"Robot":4,"Valence":"Lose","Action":"No-Go","Sham":0,"Color":"blue","trial_type":"pit-trial","trial_index":125,"time_elapsed":799730,"internal_node_id":"0.0-114.0","task_version":"test-retest-t4"},{"Rune":"rune_07_laukaz","Hex":"#3366ff99","Correct":32,"Choice":32,"RT":447,"Accuracy":1,"Outcome":"-10","Keys":[1946],"TotalKeys":1,"Block":1,"Trial":107,"Robot":3,"Valence":"Lose","Action":"Go","Sham":1,"Color":"blue","trial_type":"pit-trial","trial_index":126,"time_elapsed":802681,"internal_node_id":"0.0-115.0","task_version":"test-retest-t4"},{"Rune":"rune_07_kauna","Hex":"#ffcc3399","Correct":32,"Choice":32,"RT":389,"Accuracy":1,"Outcome":"+10","Keys":[1889],"TotalKeys":1,"Block":1,"Trial":108,"Robot":1,"Valence":"Win","Action":"Go","Sham":0,"Color":"yellow","trial_type":"pit-trial","trial_index":127,"time_elapsed":805575,"internal_node_id":"0.0-116.0","task_version":"test-retest-t4"},{"Rune":"rune_07_kauna","Hex":"#ffcc3399","Correct":32,"Choice":32,"RT":373,"Accuracy":1,"Outcome":"+1","Keys":[1874],"TotalKeys":1,"Block":1,"Trial":109,"Robot":1,"Valence":"Win","Action":"Go","Sham":1,"Color":"yellow","trial_type":"pit-trial","trial_index":128,"time_elapsed":808453,"internal_node_id":"0.0-117.0","task_version":"test-retest-t4"},{"Rune":"rune_07_gar","Hex":"#3366ff99","Correct":-1,"Choice":-1,"RT":-1,"Accuracy":1,"Outcome":"-1","Keys":[],"TotalKeys":0,"Block":1,"Trial":110,"Robot":4,"Valence":"Lose","Action":"No-Go","Sham":0,"Color":"blue","trial_type":"pit-trial","trial_index":129,"time_elapsed":812456,"internal_node_id":"0.0-118.0","task_version":"test-retest-t4"},{"Rune":"rune_07_thurisaz","Hex":"#ffcc3399","Correct":-1,"Choice":-1,"RT":-1,"Accuracy":1,"Outcome":"+10","Keys":[],"TotalKeys":0,"Block":1,"Trial":111,"Robot":2,"Valence":"Win","Action":"No-Go","Sham":0,"Color":"yellow","trial_type":"pit-trial","trial_index":130,"time_elapsed":816461,"internal_node_id":"0.0-119.0","task_version":"test-retest-t4"},{"Rune":"rune_07_laukaz","Hex":"#3366ff99","Correct":32,"Choice":32,"RT":373,"Accuracy":1,"Outcome":"-1","Keys":[1874],"TotalKeys":1,"Block":1,"Trial":112,"Robot":3,"Valence":"Lose","Action":"Go","Sham":0,"Color":"blue","trial_type":"pit-trial","trial_index":131,"time_elapsed":819338,"internal_node_id":"0.0-120.0","task_version":"test-retest-t4"},{"Rune":"rune_07_kauna","Hex":"#ffcc3399","Correct":32,"Choice":32,"RT":276,"Accuracy":1,"Outcome":"+10","Keys":[1779],"TotalKeys":1,"Block":1,"Trial":113,"Robot":1,"Valence":"Win","Action":"Go","Sham":0,"Color":"yellow","trial_type":"pit-trial","trial_index":132,"time_elapsed":822122,"internal_node_id":"0.0-121.0","task_version":"test-retest-t4"},{"Rune":"rune_07_thurisaz","Hex":"#ffcc3399","Correct":-1,"Choice":-1,"RT":-1,"Accuracy":1,"Outcome":"+1","Keys":[],"TotalKeys":0,"Block":1,"Trial":114,"Robot":2,"Valence":"Win","Action":"No-Go","Sham":1,"Color":"yellow","trial_type":"pit-trial","trial_index":133,"time_elapsed":826126,"internal_node_id":"0.0-122.0","task_version":"test-retest-t4"},{"Rune":"rune_07_laukaz","Hex":"#3366ff99","Correct":32,"Choice":32,"RT":437,"Accuracy":1,"Outcome":"-1","Keys":[1937],"TotalKeys":1,"Block":1,"Trial":115,"Robot":3,"Valence":"Lose","Action":"Go","Sham":0,"Color":"blue","trial_type":"pit-trial","trial_index":134,"time_elapsed":829067,"internal_node_id":"0.0-123.0","task_version":"test-retest-t4"},{"Rune":"rune_07_gar","Hex":"#3366ff99","Correct":-1,"Choice":-1,"RT":-1,"Accuracy":1,"Outcome":"-10","Keys":[],"TotalKeys":0,"Block":1,"Trial":116,"Robot":4,"Valence":"Lose","Action":"No-Go","Sham":1,"Color":"blue","trial_type":"pit-trial","trial_index":135,"time_elapsed":833070,"internal_node_id":"0.0-124.0","task_version":"test-retest-t4"},{"Rune":"rune_07_laukaz","Hex":"#3366ff99","Correct":32,"Choice":32,"RT":388,"Accuracy":1,"Outcome":"-1","Keys":[1888],"TotalKeys":1,"Block":1,"Trial":117,"Robot":3,"Valence":"Lose","Action":"Go","Sham":0,"Color":"blue","trial_type":"pit-trial","trial_index":136,"time_elapsed":835963,"internal_node_id":"0.0-125.0","task_version":"test-retest-t4"},{"Rune":"rune_07_thurisaz","Hex":"#ffcc3399","Correct":-1,"Choice":-1,"RT":-1,"Accuracy":1,"Outcome":"+10","Keys":[],"TotalKeys":0,"Block":1,"Trial":118,"Robot":2,"Valence":"Win","Action":"No-Go","Sham":0,"Color":"yellow","trial_type":"pit-trial","trial_index":137,"time_elapsed":839966,"internal_node_id":"0.0-126.0","task_version":"test-retest-t4"},{"Rune":"rune_07_gar","Hex":"#3366ff99","Correct":-1,"Choice":-1,"RT":-1,"Accuracy":1,"Outcome":"-1","Keys":[],"TotalKeys":0,"Block":1,"Trial":119,"Robot":4,"Valence":"Lose","Action":"No-Go","Sham":0,"Color":"blue","trial_type":"pit-trial","trial_index":138,"time_elapsed":843969,"internal_node_id":"0.0-127.0","task_version":"test-retest-t4"},{"Rune":"rune_07_kauna","Hex":"#ffcc3399","Correct":32,"Choice":32,"RT":413,"Accuracy":1,"Outcome":"+10","Keys":[1914],"TotalKeys":1,"Block":1,"Trial":120,"Robot":1,"Valence":"Win","Action":"Go","Sham":0,"Color":"yellow","trial_type":"pit-trial","trial_index":139,"time_elapsed":846886,"internal_node_id":"0.0-128.0","task_version":"test-retest-t4"},{"view_history":"[{\"page_index\":0,\"viewing_time\":5492},{\"page_index\":1,\"viewing_time\":1605},{\"page_index\":2,\"viewing_time\":1218}]","rt":8316,"trial_type":"pit-instructions","trial_index":140,"time_elapsed":855206,"internal_node_id":"0.0-129.0","task_version":"test-retest-t4"},{"Rune":"rune_08_fehu","Hex":"#3366ff99","Correct":-1,"Choice":32,"RT":259,"Accuracy":0,"Outcome":"-10","Keys":[1759],"TotalKeys":1,"Block":2,"Trial":121,"Robot":4,"Valence":"Lose","Action":"No-Go","Sham":0,"Color":"blue","trial_type":"pit-trial","trial_index":141,"time_elapsed":857972,"internal_node_id":"0.0-130.0","task_version":"test-retest-t4"},{"Rune":"rune_08_pertho","Hex":"#ffcc3399","Correct":32,"Choice":32,"RT":450,"Accuracy":1,"Outcome":"+1","Keys":[1952],"TotalKeys":1,"Block":2,"Trial":122,"Robot":1,"Valence":"Win","Action":"Go","Sham":1,"Color":"yellow","trial_type":"pit-trial","trial_index":142,"time_elapsed":860928,"internal_node_id":"0.0-131.0","task_version":"test-retest-t4"},{"Rune":"rune_08_sigel","Hex":"#3366ff99","Correct":32,"Choice":32,"RT":464,"Accuracy":1,"Outcome":"-1","Keys":[1964],"TotalKeys":1,"Block":2,"Trial":123,"Robot":3,"Valence":"Lose","Action":"Go","Sham":0,"Color":"blue","trial_type":"pit-trial","trial_index":143,"time_elapsed":863896,"internal_node_id":"0.0-132.0","task_version":"test-retest-t4"},{"Rune":"rune_08_mannaz","Hex":"#ffcc3399","Correct":-1,"Choice":32,"RT":652,"Accuracy":0,"Outcome":"+1","Keys":[2152],"TotalKeys":1,"Block":2,"Trial":124,"Robot":2,"Valence":"Win","Action":"No-Go","Sham":0,"Color":"yellow","trial_type":"pit-trial","trial_index":144,"time_elapsed":867052,"internal_node_id":"0.0-133.0","task_version":"test-retest-t4"},{"Rune":"rune_08_pertho","Hex":"#ffcc3399","Correct":32,"Choice":32,"RT":524,"Accuracy":1,"Outcome":"+10","Keys":[2025],"TotalKeys":1,"Block":2,"Trial":125,"Robot":1,"Valence":"Win","Action":"Go","Sham":0,"Color":"yellow","trial_type":"pit-trial","trial_index":145,"time_elapsed":870080,"internal_node_id":"0.0-134.0","task_version":"test-retest-t4"},{"Rune":"rune_08_sigel","Hex":"#3366ff99","Correct":32,"Choice":32,"RT":514,"Accuracy":1,"Outcome":"-10","Keys":[2014],"TotalKeys":1,"Block":2,"Trial":126,"Robot":3,"Valence":"Lose","Action":"Go","Sham":1,"Color":"blue","trial_type":"pit-trial","trial_index":146,"time_elapsed":873098,"internal_node_id":"0.0-135.0","task_version":"test-retest-t4"},{"Rune":"rune_08_mannaz","Hex":"#ffcc3399","Correct":-1,"Choice":-1,"RT":-1,"Accuracy":1,"Outcome":"+10","Keys":[],"TotalKeys":0,"Block":2,"Trial":127,"Robot":2,"Valence":"Win","Action":"No-Go","Sham":0,"Color":"yellow","trial_type":"pit-trial","trial_index":147,"time_elapsed":877101,"internal_node_id":"0.0-136.0","task_version":"test-retest-t4"},{"Rune":"rune_08_fehu","Hex":"#3366ff99","Correct":-1,"Choice":32,"RT":863,"Accuracy":0,"Outcome":"-10","Keys":[2364],"TotalKeys":1,"Block":2,"Trial":128,"Robot":4,"Valence":"Lose","Action":"No-Go","Sham":0,"Color":"blue","trial_type":"pit-trial","trial_index":148,"time_elapsed":880469,"internal_node_id":"0.0-137.0","task_version":"test-retest-t4"},{"Rune":"rune_08_pertho","Hex":"#ffcc3399","Correct":32,"Choice":32,"RT":546,"Accuracy":1,"Outcome":"+10","Keys":[2046],"TotalKeys":1,"Block":2,"Trial":129,"Robot":1,"Valence":"Win","Action":"Go","Sham":0,"Color":"yellow","trial_type":"pit-trial","trial_index":149,"time_elapsed":883519,"internal_node_id":"0.0-138.0","task_version":"test-retest-t4"},{"Rune":"rune_08_sigel","Hex":"#3366ff99","Correct":32,"Choice":32,"RT":559,"Accuracy":1,"Outcome":"-1","Keys":[2060],"TotalKeys":1,"Block":2,"Trial":130,"Robot":3,"Valence":"Lose","Action":"Go","Sham":0,"Color":"blue","trial_type":"pit-trial","trial_index":150,"time_elapsed":886582,"internal_node_id":"0.0-139.0","task_version":"test-retest-t4"},{"Rune":"rune_08_mannaz","Hex":"#ffcc3399","Correct":-1,"Choice":-1,"RT":-1,"Accuracy":1,"Outcome":"+10","Keys":[],"TotalKeys":0,"Block":2,"Trial":131,"Robot":2,"Valence":"Win","Action":"No-Go","Sham":0,"Color":"yellow","trial_type":"pit-trial","trial_index":151,"time_elapsed":890587,"internal_node_id":"0.0-140.0","task_version":"test-retest-t4"},{"Rune":"rune_08_fehu","Hex":"#3366ff99","Correct":-1,"Choice":-1,"RT":-1,"Accuracy":1,"Outcome":"-10","Keys":[],"TotalKeys":0,"Block":2,"Trial":132,"Robot":4,"Valence":"Lose","Action":"No-Go","Sham":1,"Color":"blue","trial_type":"pit-trial","trial_index":152,"time_elapsed":894592,"internal_node_id":"0.0-141.0","task_version":"test-retest-t4"},{"Rune":"rune_08_fehu","Hex":"#3366ff99","Correct":-1,"Choice":-1,"RT":-1,"Accuracy":1,"Outcome":"-1","Keys":[],"TotalKeys":0,"Block":2,"Trial":133,"Robot":4,"Valence":"Lose","Action":"No-Go","Sham":0,"Color":"blue","trial_type":"pit-trial","trial_index":153,"time_elapsed":898596,"internal_node_id":"0.0-142.0","task_version":"test-retest-t4"},{"Rune":"rune_08_mannaz","Hex":"#ffcc3399","Correct":-1,"Choice":-1,"RT":-1,"Accuracy":1,"Outcome":"+1","Keys":[],"TotalKeys":0,"Block":2,"Trial":134,"Robot":2,"Valence":"Win","Action":"No-Go","Sham":1,"Color":"yellow","trial_type":"pit-trial","trial_index":154,"time_elapsed":902600,"internal_node_id":"0.0-143.0","task_version":"test-retest-t4"},{"Rune":"rune_08_sigel","Hex":"#3366ff99","Correct":32,"Choice":32,"RT":492,"Accuracy":1,"Outcome":"-1","Keys":[1992],"TotalKeys":1,"Block":2,"Trial":135,"Robot":3,"Valence":"Lose","Action":"Go","Sham":0,"Color":"blue","trial_type":"pit-trial","trial_index":155,"time_elapsed":905596,"internal_node_id":"0.0-144.0","task_version":"test-retest-t4"},{"Rune":"rune_08_pertho","Hex":"#ffcc3399","Correct":32,"Choice":32,"RT":428,"Accuracy":1,"Outcome":"+10","Keys":[1928],"TotalKeys":1,"Block":2,"Trial":136,"Robot":1,"Valence":"Win","Action":"Go","Sham":0,"Color":"yellow","trial_type":"pit-trial","trial_index":156,"time_elapsed":908528,"internal_node_id":"0.0-145.0","task_version":"test-retest-t4"},{"Rune":"rune_08_pertho","Hex":"#ffcc3399","Correct":32,"Choice":32,"RT":421,"Accuracy":1,"Outcome":"+10","Keys":[1922],"TotalKeys":1,"Block":2,"Trial":137,"Robot":1,"Valence":"Win","Action":"Go","Sham":0,"Color":"yellow","trial_type":"pit-trial","trial_index":157,"time_elapsed":911454,"internal_node_id":"0.0-146.0","task_version":"test-retest-t4"},{"Rune":"rune_08_fehu","Hex":"#3366ff99","Correct":-1,"Choice":-1,"RT":-1,"Accuracy":1,"Outcome":"-1","Keys":[],"TotalKeys":0,"Block":2,"Trial":138,"Robot":4,"Valence":"Lose","Action":"No-Go","Sham":0,"Color":"blue","trial_type":"pit-trial","trial_index":158,"time_elapsed":915459,"internal_node_id":"0.0-147.0","task_version":"test-retest-t4"},{"Rune":"rune_08_mannaz","Hex":"#ffcc3399","Correct":-1,"Choice":-1,"RT":-1,"Accuracy":1,"Outcome":"+10","Keys":[],"TotalKeys":0,"Block":2,"Trial":139,"Robot":2,"Valence":"Win","Action":"No-Go","Sham":0,"Color":"yellow","trial_type":"pit-trial","trial_index":159,"time_elapsed":919462,"internal_node_id":"0.0-148.0","task_version":"test-retest-t4"},{"Rune":"rune_08_sigel","Hex":"#3366ff99","Correct":32,"Choice":32,"RT":552,"Accuracy":1,"Outcome":"-1","Keys":[2052],"TotalKeys":1,"Block":2,"Trial":140,"Robot":3,"Valence":"Lose","Action":"Go","Sham":0,"Color":"blue","trial_type":"pit-trial","trial_index":160,"time_elapsed":922519,"internal_node_id":"0.0-149.0","task_version":"test-retest-t4"},{"Rune":"rune_08_sigel","Hex":"#3366ff99","Correct":32,"Choice":32,"RT":478,"Accuracy":1,"Outcome":"-1","Keys":[1979],"TotalKeys":1,"Block":2,"Trial":141,"Robot":3,"Valence":"Lose","Action":"Go","Sham":0,"Color":"blue","trial_type":"pit-trial","trial_index":161,"time_elapsed":925501,"internal_node_id":"0.0-150.0","task_version":"test-retest-t4"},{"Rune":"rune_08_mannaz","Hex":"#ffcc3399","Correct":-1,"Choice":-1,"RT":-1,"Accuracy":1,"Outcome":"+10","Keys":[],"TotalKeys":0,"Block":2,"Trial":142,"Robot":2,"Valence":"Win","Action":"No-Go","Sham":0,"Color":"yellow","trial_type":"pit-trial","trial_index":162,"time_elapsed":929506,"internal_node_id":"0.0-151.0","task_version":"test-retest-t4"},{"Rune":"rune_08_fehu","Hex":"#3366ff99","Correct":-1,"Choice":-1,"RT":-1,"Accuracy":1,"Outcome":"-1","Keys":[],"TotalKeys":0,"Block":2,"Trial":143,"Robot":4,"Valence":"Lose","Action":"No-Go","Sham":0,"Color":"blue","trial_type":"pit-trial","trial_index":163,"time_elapsed":933509,"internal_node_id":"0.0-152.0","task_version":"test-retest-t4"},{"Rune":"rune_08_pertho","Hex":"#ffcc3399","Correct":32,"Choice":32,"RT":436,"Accuracy":1,"Outcome":"+10","Keys":[1936],"TotalKeys":1,"Block":2,"Trial":144,"Robot":1,"Valence":"Win","Action":"Go","Sham":0,"Color":"yellow","trial_type":"pit-trial","trial_index":164,"time_elapsed":936449,"internal_node_id":"0.0-153.0","task_version":"test-retest-t4"},{"Rune":"rune_08_pertho","Hex":"#ffcc3399","Correct":32,"Choice":32,"RT":491,"Accuracy":1,"Outcome":"+1","Keys":[1992],"TotalKeys":1,"Block":2,"Trial":145,"Robot":1,"Valence":"Win","Action":"Go","Sham":1,"Color":"yellow","trial_type":"pit-trial","trial_index":165,"time_elapsed":939444,"internal_node_id":"0.0-154.0","task_version":"test-retest-t4"},{"Rune":"rune_08_mannaz","Hex":"#ffcc3399","Correct":-1,"Choice":-1,"RT":-1,"Accuracy":1,"Outcome":"+10","Keys":[],"TotalKeys":0,"Block":2,"Trial":146,"Robot":2,"Valence":"Win","Action":"No-Go","Sham":0,"Color":"yellow","trial_type":"pit-trial","trial_index":166,"time_elapsed":943449,"internal_node_id":"0.0-155.0","task_version":"test-retest-t4"},{"Rune":"rune_08_fehu","Hex":"#3366ff99","Correct":-1,"Choice":-1,"RT":-1,"Accuracy":1,"Outcome":"-1","Keys":[],"TotalKeys":0,"Block":2,"Trial":147,"Robot":4,"Valence":"Lose","Action":"No-Go","Sham":0,"Color":"blue","trial_type":"pit-trial","trial_index":167,"time_elapsed":947453,"internal_node_id":"0.0-156.0","task_version":"test-retest-t4"},{"Rune":"rune_08_sigel","Hex":"#3366ff99","Correct":32,"Choice":32,"RT":427,"Accuracy":1,"Outcome":"-1","Keys":[1926],"TotalKeys":1,"Block":2,"Trial":148,"Robot":3,"Valence":"Lose","Action":"Go","Sham":0,"Color":"blue","trial_type":"pit-trial","trial_index":168,"time_elapsed":950382,"internal_node_id":"0.0-157.0","task_version":"test-retest-t4"},{"Rune":"rune_08_fehu","Hex":"#3366ff99","Correct":-1,"Choice":-1,"RT":-1,"Accuracy":1,"Outcome":"-1","Keys":[],"TotalKeys":0,"Block":2,"Trial":149,"Robot":4,"Valence":"Lose","Action":"No-Go","Sham":0,"Color":"blue","trial_type":"pit-trial","trial_index":169,"time_elapsed":954387,"internal_node_id":"0.0-158.0","task_version":"test-retest-t4"},{"Rune":"rune_08_sigel","Hex":"#3366ff99","Correct":32,"Choice":32,"RT":423,"Accuracy":1,"Outcome":"-10","Keys":[1923],"TotalKeys":1,"Block":2,"Trial":150,"Robot":3,"Valence":"Lose","Action":"Go","Sham":1,"Color":"blue","trial_type":"pit-trial","trial_index":170,"time_elapsed":957313,"internal_node_id":"0.0-159.0","task_version":"test-retest-t4"},{"Rune":"rune_08_pertho","Hex":"#ffcc3399","Correct":32,"Choice":32,"RT":395,"Accuracy":1,"Outcome":"+10","Keys":[1895],"TotalKeys":1,"Block":2,"Trial":151,"Robot":1,"Valence":"Win","Action":"Go","Sham":0,"Color":"yellow","trial_type":"pit-trial","trial_index":171,"time_elapsed":960213,"internal_node_id":"0.0-160.0","task_version":"test-retest-t4"},{"Rune":"rune_08_mannaz","Hex":"#ffcc3399","Correct":-1,"Choice":-1,"RT":-1,"Accuracy":1,"Outcome":"+10","Keys":[],"TotalKeys":0,"Block":2,"Trial":152,"Robot":2,"Valence":"Win","Action":"No-Go","Sham":0,"Color":"yellow","trial_type":"pit-trial","trial_index":172,"time_elapsed":964216,"internal_node_id":"0.0-161.0","task_version":"test-retest-t4"},{"Rune":"rune_08_sigel","Hex":"#3366ff99","Correct":32,"Choice":32,"RT":396,"Accuracy":1,"Outcome":"-1","Keys":[1897],"TotalKeys":1,"Block":2,"Trial":153,"Robot":3,"Valence":"Lose","Action":"Go","Sham":0,"Color":"blue","trial_type":"pit-trial","trial_index":173,"time_elapsed":967117,"internal_node_id":"0.0-162.0","task_version":"test-retest-t4"},{"Rune":"rune_08_fehu","Hex":"#3366ff99","Correct":-1,"Choice":-1,"RT":-1,"Accuracy":1,"Outcome":"-10","Keys":[],"TotalKeys":0,"Block":2,"Trial":154,"Robot":4,"Valence":"Lose","Action":"No-Go","Sham":1,"Color":"blue","trial_type":"pit-trial","trial_index":174,"time_elapsed":971121,"internal_node_id":"0.0-163.0","task_version":"test-retest-t4"},{"Rune":"rune_08_pertho","Hex":"#ffcc3399","Correct":32,"Choice":32,"RT":387,"Accuracy":1,"Outcome":"+10","Keys":[1889],"TotalKeys":1,"Block":2,"Trial":155,"Robot":1,"Valence":"Win","Action":"Go","Sham":0,"Color":"yellow","trial_type":"pit-trial","trial_index":175,"time_elapsed":974015,"internal_node_id":"0.0-164.0","task_version":"test-retest-t4"},{"Rune":"rune_08_mannaz","Hex":"#ffcc3399","Correct":-1,"Choice":-1,"RT":-1,"Accuracy":1,"Outcome":"+10","Keys":[],"TotalKeys":0,"Block":2,"Trial":156,"Robot":2,"Valence":"Win","Action":"No-Go","Sham":0,"Color":"yellow","trial_type":"pit-trial","trial_index":176,"time_elapsed":978019,"internal_node_id":"0.0-165.0","task_version":"test-retest-t4"},{"Rune":"rune_08_sigel","Hex":"#3366ff99","Correct":32,"Choice":32,"RT":379,"Accuracy":1,"Outcome":"-1","Keys":[1880],"TotalKeys":1,"Block":2,"Trial":157,"Robot":3,"Valence":"Lose","Action":"Go","Sham":0,"Color":"blue","trial_type":"pit-trial","trial_index":177,"time_elapsed":980903,"internal_node_id":"0.0-166.0","task_version":"test-retest-t4"},{"Rune":"rune_08_pertho","Hex":"#ffcc3399","Correct":32,"Choice":32,"RT":385,"Accuracy":1,"Outcome":"+10","Keys":[1885],"TotalKeys":1,"Block":2,"Trial":158,"Robot":1,"Valence":"Win","Action":"Go","Sham":0,"Color":"yellow","trial_type":"pit-trial","trial_index":178,"time_elapsed":983792,"internal_node_id":"0.0-167.0","task_version":"test-retest-t4"},{"Rune":"rune_08_fehu","Hex":"#3366ff99","Correct":-1,"Choice":-1,"RT":-1,"Accuracy":1,"Outcome":"-1","Keys":[],"TotalKeys":0,"Block":2,"Trial":159,"Robot":4,"Valence":"Lose","Action":"No-Go","Sham":0,"Color":"blue","trial_type":"pit-trial","trial_index":179,"time_elapsed":987797,"internal_node_id":"0.0-168.0","task_version":"test-retest-t4"},{"Rune":"rune_08_mannaz","Hex":"#ffcc3399","Correct":-1,"Choice":-1,"RT":-1,"Accuracy":1,"Outcome":"+1","Keys":[],"TotalKeys":0,"Block":2,"Trial":160,"Robot":2,"Valence":"Win","Action":"No-Go","Sham":1,"Color":"yellow","trial_type":"pit-trial","trial_index":180,"time_elapsed":991801,"internal_node_id":"0.0-169.0","task_version":"test-retest-t4"},{"Rune":"rune_08_fehu","Hex":"#3366ff99","Correct":-1,"Choice":-1,"RT":-1,"Accuracy":1,"Outcome":"-1","Keys":[],"TotalKeys":0,"Block":2,"Trial":161,"Robot":4,"Valence":"Lose","Action":"No-Go","Sham":0,"Color":"blue","trial_type":"pit-trial","trial_index":181,"time_elapsed":995806,"internal_node_id":"0.0-170.0","task_version":"test-retest-t4"},{"Rune":"rune_08_pertho","Hex":"#ffcc3399","Correct":32,"Choice":32,"RT":355,"Accuracy":1,"Outcome":"+10","Keys":[1857],"TotalKeys":1,"Block":2,"Trial":162,"Robot":1,"Valence":"Win","Action":"Go","Sham":0,"Color":"yellow","trial_type":"pit-trial","trial_index":182,"time_elapsed":998668,"internal_node_id":"0.0-171.0","task_version":"test-retest-t4"},{"Rune":"rune_08_sigel","Hex":"#3366ff99","Correct":32,"Choice":32,"RT":429,"Accuracy":1,"Outcome":"-1","Keys":[1930],"TotalKeys":1,"Block":2,"Trial":163,"Robot":3,"Valence":"Lose","Action":"Go","Sham":0,"Color":"blue","trial_type":"pit-trial","trial_index":183,"time_elapsed":1001601,"internal_node_id":"0.0-172.0","task_version":"test-retest-t4"},{"Rune":"rune_08_mannaz","Hex":"#ffcc3399","Correct":-1,"Choice":-1,"RT":-1,"Accuracy":1,"Outcome":"+10","Keys":[],"TotalKeys":0,"Block":2,"Trial":164,"Robot":2,"Valence":"Win","Action":"No-Go","Sham":0,"Color":"yellow","trial_type":"pit-trial","trial_index":184,"time_elapsed":1005606,"internal_node_id":"0.0-173.0","task_version":"test-retest-t4"},{"Rune":"rune_08_pertho","Hex":"#ffcc3399","Correct":32,"Choice":32,"RT":374,"Accuracy":1,"Outcome":"+1","Keys":[1875],"TotalKeys":1,"Block":2,"Trial":165,"Robot":1,"Valence":"Win","Action":"Go","Sham":1,"Color":"yellow","trial_type":"pit-trial","trial_index":185,"time_elapsed":1008483,"internal_node_id":"0.0-174.0","task_version":"test-retest-t4"},{"Rune":"rune_08_fehu","Hex":"#3366ff99","Correct":-1,"Choice":-1,"RT":-1,"Accuracy":1,"Outcome":"-1","Keys":[],"TotalKeys":0,"Block":2,"Trial":166,"Robot":4,"Valence":"Lose","Action":"No-Go","Sham":0,"Color":"blue","trial_type":"pit-trial","trial_index":186,"time_elapsed":1012487,"internal_node_id":"0.0-175.0","task_version":"test-retest-t4"},{"Rune":"rune_08_sigel","Hex":"#3366ff99","Correct":32,"Choice":32,"RT":424,"Accuracy":1,"Outcome":"-10","Keys":[1924],"TotalKeys":1,"Block":2,"Trial":167,"Robot":3,"Valence":"Lose","Action":"Go","Sham":1,"Color":"blue","trial_type":"pit-trial","trial_index":187,"time_elapsed":1015415,"internal_node_id":"0.0-176.0","task_version":"test-retest-t4"},{"Rune":"rune_08_mannaz","Hex":"#ffcc3399","Correct":-1,"Choice":-1,"RT":-1,"Accuracy":1,"Outcome":"+10","Keys":[],"TotalKeys":0,"Block":2,"Trial":168,"Robot":2,"Valence":"Win","Action":"No-Go","Sham":0,"Color":"yellow","trial_type":"pit-trial","trial_index":188,"time_elapsed":1019419,"internal_node_id":"0.0-177.0","task_version":"test-retest-t4"},{"Rune":"rune_08_mannaz","Hex":"#ffcc3399","Correct":-1,"Choice":-1,"RT":-1,"Accuracy":1,"Outcome":"+10","Keys":[],"TotalKeys":0,"Block":2,"Trial":169,"Robot":2,"Valence":"Win","Action":"No-Go","Sham":0,"Color":"yellow","trial_type":"pit-trial","trial_index":189,"time_elapsed":1023424,"internal_node_id":"0.0-178.0","task_version":"test-retest-t4"},{"Rune":"rune_08_sigel","Hex":"#3366ff99","Correct":32,"Choice":32,"RT":417,"Accuracy":1,"Outcome":"-1","Keys":[1918],"TotalKeys":1,"Block":2,"Trial":170,"Robot":3,"Valence":"Lose","Action":"Go","Sham":0,"Color":"blue","trial_type":"pit-trial","trial_index":190,"time_elapsed":1026346,"internal_node_id":"0.0-179.0","task_version":"test-retest-t4"},{"Rune":"rune_08_pertho","Hex":"#ffcc3399","Correct":32,"Choice":32,"RT":313,"Accuracy":1,"Outcome":"+10","Keys":[1813],"TotalKeys":1,"Block":2,"Trial":171,"Robot":1,"Valence":"Win","Action":"Go","Sham":0,"Color":"yellow","trial_type":"pit-trial","trial_index":191,"time_elapsed":1029163,"internal_node_id":"0.0-180.0","task_version":"test-retest-t4"},{"Rune":"rune_08_fehu","Hex":"#3366ff99","Correct":-1,"Choice":-1,"RT":-1,"Accuracy":1,"Outcome":"-10","Keys":[],"TotalKeys":0,"Block":2,"Trial":172,"Robot":4,"Valence":"Lose","Action":"No-Go","Sham":1,"Color":"blue","trial_type":"pit-trial","trial_index":192,"time_elapsed":1033167,"internal_node_id":"0.0-181.0","task_version":"test-retest-t4"},{"Rune":"rune_08_fehu","Hex":"#3366ff99","Correct":-1,"Choice":-1,"RT":-1,"Accuracy":1,"Outcome":"-1","Keys":[],"TotalKeys":0,"Block":2,"Trial":173,"Robot":4,"Valence":"Lose","Action":"No-Go","Sham":0,"Color":"blue","trial_type":"pit-trial","trial_index":193,"time_elapsed":1037173,"internal_node_id":"0.0-182.0","task_version":"test-retest-t4"},{"Rune":"rune_08_mannaz","Hex":"#ffcc3399","Correct":-1,"Choice":-1,"RT":-1,"Accuracy":1,"Outcome":"+1","Keys":[],"TotalKeys":0,"Block":2,"Trial":174,"Robot":2,"Valence":"Win","Action":"No-Go","Sham":1,"Color":"yellow","trial_type":"pit-trial","trial_index":194,"time_elapsed":1041177,"internal_node_id":"0.0-183.0","task_version":"test-retest-t4"},{"Rune":"rune_08_pertho","Hex":"#ffcc3399","Correct":32,"Choice":32,"RT":480,"Accuracy":1,"Outcome":"+10","Keys":[1980],"TotalKeys":1,"Block":2,"Trial":175,"Robot":1,"Valence":"Win","Action":"Go","Sham":0,"Color":"yellow","trial_type":"pit-trial","trial_index":195,"time_elapsed":1044161,"internal_node_id":"0.0-184.0","task_version":"test-retest-t4"},{"Rune":"rune_08_sigel","Hex":"#3366ff99","Correct":32,"Choice":32,"RT":461,"Accuracy":1,"Outcome":"-1","Keys":[1961],"TotalKeys":1,"Block":2,"Trial":176,"Robot":3,"Valence":"Lose","Action":"Go","Sham":0,"Color":"blue","trial_type":"pit-trial","trial_index":196,"time_elapsed":1047127,"internal_node_id":"0.0-185.0","task_version":"test-retest-t4"},{"Rune":"rune_08_mannaz","Hex":"#ffcc3399","Correct":-1,"Choice":-1,"RT":-1,"Accuracy":1,"Outcome":"+10","Keys":[],"TotalKeys":0,"Block":2,"Trial":177,"Robot":2,"Valence":"Win","Action":"No-Go","Sham":0,"Color":"yellow","trial_type":"pit-trial","trial_index":197,"time_elapsed":1051131,"internal_node_id":"0.0-186.0","task_version":"test-retest-t4"},{"Rune":"rune_08_pertho","Hex":"#ffcc3399","Correct":32,"Choice":32,"RT":522,"Accuracy":1,"Outcome":"+10","Keys":[2022],"TotalKeys":1,"Block":2,"Trial":178,"Robot":1,"Valence":"Win","Action":"Go","Sham":0,"Color":"yellow","trial_type":"pit-trial","trial_index":198,"time_elapsed":1054157,"internal_node_id":"0.0-187.0","task_version":"test-retest-t4"},{"Rune":"rune_08_fehu","Hex":"#3366ff99","Correct":-1,"Choice":-1,"RT":-1,"Accuracy":1,"Outcome":"-1","Keys":[],"TotalKeys":0,"Block":2,"Trial":179,"Robot":4,"Valence":"Lose","Action":"No-Go","Sham":0,"Color":"blue","trial_type":"pit-trial","trial_index":199,"time_elapsed":1058161,"internal_node_id":"0.0-188.0","task_version":"test-retest-t4"},{"Rune":"rune_08_sigel","Hex":"#3366ff99","Correct":32,"Choice":32,"RT":435,"Accuracy":1,"Outcome":"-1","Keys":[1934],"TotalKeys":1,"Block":2,"Trial":180,"Robot":3,"Valence":"Lose","Action":"Go","Sham":0,"Color":"blue","trial_type":"pit-trial","trial_index":200,"time_elapsed":1061100,"internal_node_id":"0.0-189.0","task_version":"test-retest-t4"},{"view_history":"[{\"page_index\":0,\"viewing_time\":2758},{\"page_index\":1,\"viewing_time\":1550}]","rt":4310,"trial_type":"pit-instructions","trial_index":201,"time_elapsed":1065412,"internal_node_id":"0.0-190.0","task_version":"test-retest-t4"},{"Rune":"rune_08_fehu","Hex":"#3366ff99","Correct":-1,"Choice":-1,"RT":-1,"Accuracy":1,"Outcome":"-1","Keys":[],"TotalKeys":0,"Block":2,"Trial":181,"Robot":4,"Valence":"Lose","Action":"No-Go","Sham":0,"Color":"blue","trial_type":"pit-trial","trial_index":202,"time_elapsed":1069419,"internal_node_id":"0.0-191.0","task_version":"test-retest-t4"},{"Rune":"rune_08_sigel","Hex":"#3366ff99","Correct":32,"Choice":32,"RT":434,"Accuracy":1,"Outcome":"-1","Keys":[1934],"TotalKeys":1,"Block":2,"Trial":182,"Robot":3,"Valence":"Lose","Action":"Go","Sham":0,"Color":"blue","trial_type":"pit-trial","trial_index":203,"time_elapsed":1072356,"internal_node_id":"0.0-192.0","task_version":"test-retest-t4"},{"Rune":"rune_08_pertho","Hex":"#ffcc3399","Correct":32,"Choice":32,"RT":277,"Accuracy":1,"Outcome":"+10","Keys":[1779],"TotalKeys":1,"Block":2,"Trial":183,"Robot":1,"Valence":"Win","Action":"Go","Sham":0,"Color":"yellow","trial_type":"pit-trial","trial_index":204,"time_elapsed":1075138,"internal_node_id":"0.0-193.0","task_version":"test-retest-t4"},{"Rune":"rune_08_mannaz","Hex":"#ffcc3399","Correct":-1,"Choice":-1,"RT":-1,"Accuracy":1,"Outcome":"+10","Keys":[],"TotalKeys":0,"Block":2,"Trial":184,"Robot":2,"Valence":"Win","Action":"No-Go","Sham":0,"Color":"yellow","trial_type":"pit-trial","trial_index":205,"time_elapsed":1079141,"internal_node_id":"0.0-194.0","task_version":"test-retest-t4"},{"Rune":"rune_08_sigel","Hex":"#3366ff99","Correct":32,"Choice":32,"RT":422,"Accuracy":1,"Outcome":"-10","Keys":[1925],"TotalKeys":1,"Block":2,"Trial":185,"Robot":3,"Valence":"Lose","Action":"Go","Sham":1,"Color":"blue","trial_type":"pit-trial","trial_index":206,"time_elapsed":1082071,"internal_node_id":"0.0-195.0","task_version":"test-retest-t4"},{"Rune":"rune_08_pertho","Hex":"#ffcc3399","Correct":32,"Choice":32,"RT":387,"Accuracy":1,"Outcome":"+10","Keys":[1889],"TotalKeys":1,"Block":2,"Trial":186,"Robot":1,"Valence":"Win","Action":"Go","Sham":0,"Color":"yellow","trial_type":"pit-trial","trial_index":207,"time_elapsed":1084964,"internal_node_id":"0.0-196.0","task_version":"test-retest-t4"},{"Rune":"rune_08_fehu","Hex":"#3366ff99","Correct":-1,"Choice":-1,"RT":-1,"Accuracy":1,"Outcome":"-1","Keys":[],"TotalKeys":0,"Block":2,"Trial":187,"Robot":4,"Valence":"Lose","Action":"No-Go","Sham":0,"Color":"blue","trial_type":"pit-trial","trial_index":208,"time_elapsed":1088967,"internal_node_id":"0.0-197.0","task_version":"test-retest-t4"},{"Rune":"rune_08_mannaz","Hex":"#ffcc3399","Correct":-1,"Choice":-1,"RT":-1,"Accuracy":1,"Outcome":"+1","Keys":[],"TotalKeys":0,"Block":2,"Trial":188,"Robot":2,"Valence":"Win","Action":"No-Go","Sham":1,"Color":"yellow","trial_type":"pit-trial","trial_index":209,"time_elapsed":1092971,"internal_node_id":"0.0-198.0","task_version":"test-retest-t4"},{"Rune":"rune_08_sigel","Hex":"#3366ff99","Correct":32,"Choice":32,"RT":394,"Accuracy":1,"Outcome":"-1","Keys":[1896],"TotalKeys":1,"Block":2,"Trial":189,"Robot":3,"Valence":"Lose","Action":"Go","Sham":0,"Color":"blue","trial_type":"pit-trial","trial_index":210,"time_elapsed":1095871,"internal_node_id":"0.0-199.0","task_version":"test-retest-t4"},{"Rune":"rune_08_mannaz","Hex":"#ffcc3399","Correct":-1,"Choice":-1,"RT":-1,"Accuracy":1,"Outcome":"+10","Keys":[],"TotalKeys":0,"Block":2,"Trial":190,"Robot":2,"Valence":"Win","Action":"No-Go","Sham":0,"Color":"yellow","trial_type":"pit-trial","trial_index":211,"time_elapsed":1099876,"internal_node_id":"0.0-200.0","task_version":"test-retest-t4"},{"Rune":"rune_08_fehu","Hex":"#3366ff99","Correct":-1,"Choice":-1,"RT":-1,"Accuracy":1,"Outcome":"-1","Keys":[],"TotalKeys":0,"Block":2,"Trial":191,"Robot":4,"Valence":"Lose","Action":"No-Go","Sham":0,"Color":"blue","trial_type":"pit-trial","trial_index":212,"time_elapsed":1103880,"internal_node_id":"0.0-201.0","task_version":"test-retest-t4"},{"Rune":"rune_08_pertho","Hex":"#ffcc3399","Correct":32,"Choice":32,"RT":415,"Accuracy":1,"Outcome":"+1","Keys":[1915],"TotalKeys":1,"Block":2,"Trial":192,"Robot":1,"Valence":"Win","Action":"Go","Sham":1,"Color":"yellow","trial_type":"pit-trial","trial_index":213,"time_elapsed":1106799,"internal_node_id":"0.0-202.0","task_version":"test-retest-t4"},{"Rune":"rune_08_sigel","Hex":"#3366ff99","Correct":32,"Choice":32,"RT":423,"Accuracy":1,"Outcome":"-1","Keys":[1923],"TotalKeys":1,"Block":2,"Trial":193,"Robot":3,"Valence":"Lose","Action":"Go","Sham":0,"Color":"blue","trial_type":"pit-trial","trial_index":214,"time_elapsed":1109726,"internal_node_id":"0.0-203.0","task_version":"test-retest-t4"},{"Rune":"rune_08_pertho","Hex":"#ffcc3399","Correct":32,"Choice":32,"RT":306,"Accuracy":1,"Outcome":"+10","Keys":[1807],"TotalKeys":1,"Block":2,"Trial":194,"Robot":1,"Valence":"Win","Action":"Go","Sham":0,"Color":"yellow","trial_type":"pit-trial","trial_index":215,"time_elapsed":1112540,"internal_node_id":"0.0-204.0","task_version":"test-retest-t4"},{"Rune":"rune_08_fehu","Hex":"#3366ff99","Correct":-1,"Choice":-1,"RT":-1,"Accuracy":1,"Outcome":"-10","Keys":[],"TotalKeys":0,"Block":2,"Trial":195,"Robot":4,"Valence":"Lose","Action":"No-Go","Sham":1,"Color":"blue","trial_type":"pit-trial","trial_index":216,"time_elapsed":1116546,"internal_node_id":"0.0-205.0","task_version":"test-retest-t4"},{"Rune":"rune_08_mannaz","Hex":"#ffcc3399","Correct":-1,"Choice":-1,"RT":-1,"Accuracy":1,"Outcome":"+10","Keys":[],"TotalKeys":0,"Block":2,"Trial":196,"Robot":2,"Valence":"Win","Action":"No-Go","Sham":0,"Color":"yellow","trial_type":"pit-trial","trial_index":217,"time_elapsed":1120550,"internal_node_id":"0.0-206.0","task_version":"test-retest-t4"},{"Rune":"rune_08_sigel","Hex":"#3366ff99","Correct":32,"Choice":32,"RT":406,"Accuracy":1,"Outcome":"-1","Keys":[1906],"TotalKeys":1,"Block":2,"Trial":197,"Robot":3,"Valence":"Lose","Action":"Go","Sham":0,"Color":"blue","trial_type":"pit-trial","trial_index":218,"time_elapsed":1123459,"internal_node_id":"0.0-207.0","task_version":"test-retest-t4"},{"Rune":"rune_08_pertho","Hex":"#ffcc3399","Correct":32,"Choice":32,"RT":426,"Accuracy":1,"Outcome":"+10","Keys":[1927],"TotalKeys":1,"Block":2,"Trial":198,"Robot":1,"Valence":"Win","Action":"Go","Sham":0,"Color":"yellow","trial_type":"pit-trial","trial_index":219,"time_elapsed":1126390,"internal_node_id":"0.0-208.0","task_version":"test-retest-t4"},{"Rune":"rune_08_fehu","Hex":"#3366ff99","Correct":-1,"Choice":-1,"RT":-1,"Accuracy":1,"Outcome":"-1","Keys":[],"TotalKeys":0,"Block":2,"Trial":199,"Robot":4,"Valence":"Lose","Action":"No-Go","Sham":0,"Color":"blue","trial_type":"pit-trial","trial_index":220,"time_elapsed":1130393,"internal_node_id":"0.0-209.0","task_version":"test-retest-t4"},{"Rune":"rune_08_mannaz","Hex":"#ffcc3399","Correct":-1,"Choice":-1,"RT":-1,"Accuracy":1,"Outcome":"+10","Keys":[],"TotalKeys":0,"Block":2,"Trial":200,"Robot":2,"Valence":"Win","Action":"No-Go","Sham":0,"Color":"yellow","trial_type":"pit-trial","trial_index":221,"time_elapsed":1134398,"internal_node_id":"0.0-210.0","task_version":"test-retest-t4"},{"Rune":"rune_08_pertho","Hex":"#ffcc3399","Correct":32,"Choice":32,"RT":367,"Accuracy":1,"Outcome":"+10","Keys":[1867],"TotalKeys":1,"Block":2,"Trial":201,"Robot":1,"Valence":"Win","Action":"Go","Sham":0,"Color":"yellow","trial_type":"pit-trial","trial_index":222,"time_elapsed":1137269,"internal_node_id":"0.0-211.0","task_version":"test-retest-t4"},{"Rune":"rune_08_fehu","Hex":"#3366ff99","Correct":-1,"Choice":-1,"RT":-1,"Accuracy":1,"Outcome":"-1","Keys":[],"TotalKeys":0,"Block":2,"Trial":202,"Robot":4,"Valence":"Lose","Action":"No-Go","Sham":0,"Color":"blue","trial_type":"pit-trial","trial_index":223,"time_elapsed":1141274,"internal_node_id":"0.0-212.0","task_version":"test-retest-t4"},{"Rune":"rune_08_mannaz","Hex":"#ffcc3399","Correct":-1,"Choice":-1,"RT":-1,"Accuracy":1,"Outcome":"+10","Keys":[],"TotalKeys":0,"Block":2,"Trial":203,"Robot":2,"Valence":"Win","Action":"No-Go","Sham":0,"Color":"yellow","trial_type":"pit-trial","trial_index":224,"time_elapsed":1145278,"internal_node_id":"0.0-213.0","task_version":"test-retest-t4"},{"Rune":"rune_08_sigel","Hex":"#3366ff99","Correct":32,"Choice":32,"RT":386,"Accuracy":1,"Outcome":"-1","Keys":[1886],"TotalKeys":1,"Block":2,"Trial":204,"Robot":3,"Valence":"Lose","Action":"Go","Sham":0,"Color":"blue","trial_type":"pit-trial","trial_index":225,"time_elapsed":1148168,"internal_node_id":"0.0-214.0","task_version":"test-retest-t4"},{"Rune":"rune_08_fehu","Hex":"#3366ff99","Correct":-1,"Choice":-1,"RT":-1,"Accuracy":1,"Outcome":"-10","Keys":[],"TotalKeys":0,"Block":2,"Trial":205,"Robot":4,"Valence":"Lose","Action":"No-Go","Sham":1,"Color":"blue","trial_type":"pit-trial","trial_index":226,"time_elapsed":1152174,"internal_node_id":"0.0-215.0","task_version":"test-retest-t4"},{"Rune":"rune_08_mannaz","Hex":"#ffcc3399","Correct":-1,"Choice":-1,"RT":-1,"Accuracy":1,"Outcome":"+1","Keys":[],"TotalKeys":0,"Block":2,"Trial":206,"Robot":2,"Valence":"Win","Action":"No-Go","Sham":1,"Color":"yellow","trial_type":"pit-trial","trial_index":227,"time_elapsed":1156178,"internal_node_id":"0.0-216.0","task_version":"test-retest-t4"},{"Rune":"rune_08_pertho","Hex":"#ffcc3399","Correct":32,"Choice":32,"RT":326,"Accuracy":1,"Outcome":"+10","Keys":[1827],"TotalKeys":1,"Block":2,"Trial":207,"Robot":1,"Valence":"Win","Action":"Go","Sham":0,"Color":"yellow","trial_type":"pit-trial","trial_index":228,"time_elapsed":1159009,"internal_node_id":"0.0-217.0","task_version":"test-retest-t4"},{"Rune":"rune_08_sigel","Hex":"#3366ff99","Correct":32,"Choice":32,"RT":490,"Accuracy":1,"Outcome":"-1","Keys":[1990],"TotalKeys":1,"Block":2,"Trial":208,"Robot":3,"Valence":"Lose","Action":"Go","Sham":0,"Color":"blue","trial_type":"pit-trial","trial_index":229,"time_elapsed":1162004,"internal_node_id":"0.0-218.0","task_version":"test-retest-t4"},{"Rune":"rune_08_sigel","Hex":"#3366ff99","Correct":32,"Choice":32,"RT":365,"Accuracy":1,"Outcome":"-10","Keys":[1865],"TotalKeys":1,"Block":2,"Trial":209,"Robot":3,"Valence":"Lose","Action":"Go","Sham":1,"Color":"blue","trial_type":"pit-trial","trial_index":230,"time_elapsed":1164871,"internal_node_id":"0.0-219.0","task_version":"test-retest-t4"},{"Rune":"rune_08_mannaz","Hex":"#ffcc3399","Correct":-1,"Choice":-1,"RT":-1,"Accuracy":1,"Outcome":"+10","Keys":[],"TotalKeys":0,"Block":2,"Trial":210,"Robot":2,"Valence":"Win","Action":"No-Go","Sham":0,"Color":"yellow","trial_type":"pit-trial","trial_index":231,"time_elapsed":1168876,"internal_node_id":"0.0-220.0","task_version":"test-retest-t4"},{"Rune":"rune_08_pertho","Hex":"#ffcc3399","Correct":32,"Choice":32,"RT":359,"Accuracy":1,"Outcome":"+1","Keys":[1859],"TotalKeys":1,"Block":2,"Trial":211,"Robot":1,"Valence":"Win","Action":"Go","Sham":1,"Color":"yellow","trial_type":"pit-trial","trial_index":232,"time_elapsed":1171739,"internal_node_id":"0.0-221.0","task_version":"test-retest-t4"},{"Rune":"rune_08_fehu","Hex":"#3366ff99","Correct":-1,"Choice":-1,"RT":-1,"Accuracy":1,"Outcome":"-1","Keys":[],"TotalKeys":0,"Block":2,"Trial":212,"Robot":4,"Valence":"Lose","Action":"No-Go","Sham":0,"Color":"blue","trial_type":"pit-trial","trial_index":233,"time_elapsed":1175744,"internal_node_id":"0.0-222.0","task_version":"test-retest-t4"},{"Rune":"rune_08_sigel","Hex":"#3366ff99","Correct":32,"Choice":32,"RT":369,"Accuracy":1,"Outcome":"-1","Keys":[1869],"TotalKeys":1,"Block":2,"Trial":213,"Robot":3,"Valence":"Lose","Action":"Go","Sham":0,"Color":"blue","trial_type":"pit-trial","trial_index":234,"time_elapsed":1178617,"internal_node_id":"0.0-223.0","task_version":"test-retest-t4"},{"Rune":"rune_08_fehu","Hex":"#3366ff99","Correct":-1,"Choice":-1,"RT":-1,"Accuracy":1,"Outcome":"-1","Keys":[],"TotalKeys":0,"Block":2,"Trial":214,"Robot":4,"Valence":"Lose","Action":"No-Go","Sham":0,"Color":"blue","trial_type":"pit-trial","trial_index":235,"time_elapsed":1182622,"internal_node_id":"0.0-224.0","task_version":"test-retest-t4"},{"Rune":"rune_08_pertho","Hex":"#ffcc3399","Correct":32,"Choice":32,"RT":321,"Accuracy":1,"Outcome":"+10","Keys":[1823],"TotalKeys":1,"Block":2,"Trial":215,"Robot":1,"Valence":"Win","Action":"Go","Sham":0,"Color":"yellow","trial_type":"pit-trial","trial_index":236,"time_elapsed":1185449,"internal_node_id":"0.0-225.0","task_version":"test-retest-t4"},{"Rune":"rune_08_mannaz","Hex":"#ffcc3399","Correct":-1,"Choice":-1,"RT":-1,"Accuracy":1,"Outcome":"+10","Keys":[],"TotalKeys":0,"Block":2,"Trial":216,"Robot":2,"Valence":"Win","Action":"No-Go","Sham":0,"Color":"yellow","trial_type":"pit-trial","trial_index":237,"time_elapsed":1189454,"internal_node_id":"0.0-226.0","task_version":"test-retest-t4"},{"Rune":"rune_08_mannaz","Hex":"#ffcc3399","Correct":-1,"Choice":-1,"RT":-1,"Accuracy":1,"Outcome":"+10","Keys":[],"TotalKeys":0,"Block":2,"Trial":217,"Robot":2,"Valence":"Win","Action":"No-Go","Sham":0,"Color":"yellow","trial_type":"pit-trial","trial_index":238,"time_elapsed":1193458,"internal_node_id":"0.0-227.0","task_version":"test-retest-t4"},{"Rune":"rune_08_fehu","Hex":"#3366ff99","Correct":-1,"Choice":-1,"RT":-1,"Accuracy":1,"Outcome":"-1","Keys":[],"TotalKeys":0,"Block":2,"Trial":218,"Robot":4,"Valence":"Lose","Action":"No-Go","Sham":0,"Color":"blue","trial_type":"pit-trial","trial_index":239,"time_elapsed":1197462,"internal_node_id":"0.0-228.0","task_version":"test-retest-t4"},{"Rune":"rune_08_pertho","Hex":"#ffcc3399","Correct":32,"Choice":32,"RT":368,"Accuracy":1,"Outcome":"+10","Keys":[1869],"TotalKeys":1,"Block":2,"Trial":219,"Robot":1,"Valence":"Win","Action":"Go","Sham":0,"Color":"yellow","trial_type":"pit-trial","trial_index":240,"time_elapsed":1200334,"internal_node_id":"0.0-229.0","task_version":"test-retest-t4"},{"Rune":"rune_08_sigel","Hex":"#3366ff99","Correct":32,"Choice":32,"RT":361,"Accuracy":1,"Outcome":"-1","Keys":[1861],"TotalKeys":1,"Block":2,"Trial":220,"Robot":3,"Valence":"Lose","Action":"Go","Sham":0,"Color":"blue","trial_type":"pit-trial","trial_index":241,"time_elapsed":1203198,"internal_node_id":"0.0-230.0","task_version":"test-retest-t4"},{"Rune":"rune_08_pertho","Hex":"#ffcc3399","Correct":32,"Choice":32,"RT":345,"Accuracy":1,"Outcome":"+10","Keys":[1845],"TotalKeys":1,"Block":2,"Trial":221,"Robot":1,"Valence":"Win","Action":"Go","Sham":0,"Color":"yellow","trial_type":"pit-trial","trial_index":242,"time_elapsed":1206046,"internal_node_id":"0.0-231.0","task_version":"test-retest-t4"},{"Rune":"rune_08_sigel","Hex":"#3366ff99","Correct":32,"Choice":32,"RT":348,"Accuracy":1,"Outcome":"-1","Keys":[1848],"TotalKeys":1,"Block":2,"Trial":222,"Robot":3,"Valence":"Lose","Action":"Go","Sham":0,"Color":"blue","trial_type":"pit-trial","trial_index":243,"time_elapsed":1208897,"internal_node_id":"0.0-232.0","task_version":"test-retest-t4"},{"Rune":"rune_08_mannaz","Hex":"#ffcc3399","Correct":-1,"Choice":-1,"RT":-1,"Accuracy":1,"Outcome":"+10","Keys":[],"TotalKeys":0,"Block":2,"Trial":223,"Robot":2,"Valence":"Win","Action":"No-Go","Sham":0,"Color":"yellow","trial_type":"pit-trial","trial_index":244,"time_elapsed":1212902,"internal_node_id":"0.0-233.0","task_version":"test-retest-t4"},{"Rune":"rune_08_fehu","Hex":"#3366ff99","Correct":-1,"Choice":-1,"RT":-1,"Accuracy":1,"Outcome":"-1","Keys":[],"TotalKeys":0,"Block":2,"Trial":224,"Robot":4,"Valence":"Lose","Action":"No-Go","Sham":0,"Color":"blue","trial_type":"pit-trial","trial_index":245,"time_elapsed":1216907,"internal_node_id":"0.0-234.0","task_version":"test-retest-t4"},{"Rune":"rune_08_sigel","Hex":"#3366ff99","Correct":32,"Choice":32,"RT":392,"Accuracy":1,"Outcome":"-10","Keys":[1892],"TotalKeys":1,"Block":2,"Trial":225,"Robot":3,"Valence":"Lose","Action":"Go","Sham":1,"Color":"blue","trial_type":"pit-trial","trial_index":246,"time_elapsed":1219804,"internal_node_id":"0.0-235.0","task_version":"test-retest-t4"},{"Rune":"rune_08_mannaz","Hex":"#ffcc3399","Correct":-1,"Choice":-1,"RT":-1,"Accuracy":1,"Outcome":"+10","Keys":[],"TotalKeys":0,"Block":2,"Trial":226,"Robot":2,"Valence":"Win","Action":"No-Go","Sham":0,"Color":"yellow","trial_type":"pit-trial","trial_index":247,"time_elapsed":1223808,"internal_node_id":"0.0-236.0","task_version":"test-retest-t4"},{"Rune":"rune_08_fehu","Hex":"#3366ff99","Correct":-1,"Choice":-1,"RT":-1,"Accuracy":1,"Outcome":"-1","Keys":[],"TotalKeys":0,"Block":2,"Trial":227,"Robot":4,"Valence":"Lose","Action":"No-Go","Sham":0,"Color":"blue","trial_type":"pit-trial","trial_index":248,"time_elapsed":1227812,"internal_node_id":"0.0-237.0","task_version":"test-retest-t4"},{"Rune":"rune_08_pertho","Hex":"#ffcc3399","Correct":32,"Choice":32,"RT":405,"Accuracy":1,"Outcome":"+10","Keys":[1905],"TotalKeys":1,"Block":2,"Trial":228,"Robot":1,"Valence":"Win","Action":"Go","Sham":0,"Color":"yellow","trial_type":"pit-trial","trial_index":249,"time_elapsed":1230720,"internal_node_id":"0.0-238.0","task_version":"test-retest-t4"},{"Rune":"rune_08_sigel","Hex":"#3366ff99","Correct":32,"Choice":32,"RT":403,"Accuracy":1,"Outcome":"-1","Keys":[1903],"TotalKeys":1,"Block":2,"Trial":229,"Robot":3,"Valence":"Lose","Action":"Go","Sham":0,"Color":"blue","trial_type":"pit-trial","trial_index":250,"time_elapsed":1233628,"internal_node_id":"0.0-239.0","task_version":"test-retest-t4"},{"Rune":"rune_08_pertho","Hex":"#ffcc3399","Correct":32,"Choice":32,"RT":318,"Accuracy":1,"Outcome":"+1","Keys":[1817],"TotalKeys":1,"Block":2,"Trial":230,"Robot":1,"Valence":"Win","Action":"Go","Sham":1,"Color":"yellow","trial_type":"pit-trial","trial_index":251,"time_elapsed":1236450,"internal_node_id":"0.0-240.0","task_version":"test-retest-t4"},{"Rune":"rune_08_fehu","Hex":"#3366ff99","Correct":-1,"Choice":-1,"RT":-1,"Accuracy":1,"Outcome":"-1","Keys":[],"TotalKeys":0,"Block":2,"Trial":231,"Robot":4,"Valence":"Lose","Action":"No-Go","Sham":0,"Color":"blue","trial_type":"pit-trial","trial_index":252,"time_elapsed":1240455,"internal_node_id":"0.0-241.0","task_version":"test-retest-t4"},{"Rune":"rune_08_mannaz","Hex":"#ffcc3399","Correct":-1,"Choice":32,"RT":290,"Accuracy":0,"Outcome":"+1","Keys":[1789],"TotalKeys":1,"Block":2,"Trial":232,"Robot":2,"Valence":"Win","Action":"No-Go","Sham":0,"Color":"yellow","trial_type":"pit-trial","trial_index":253,"time_elapsed":1243248,"internal_node_id":"0.0-242.0","task_version":"test-retest-t4"},{"Rune":"rune_08_sigel","Hex":"#3366ff99","Correct":32,"Choice":32,"RT":439,"Accuracy":1,"Outcome":"-1","Keys":[1938],"TotalKeys":1,"Block":2,"Trial":233,"Robot":3,"Valence":"Lose","Action":"Go","Sham":0,"Color":"blue","trial_type":"pit-trial","trial_index":254,"time_elapsed":1246191,"internal_node_id":"0.0-243.0","task_version":"test-retest-t4"},{"Rune":"rune_08_fehu","Hex":"#3366ff99","Correct":-1,"Choice":-1,"RT":-1,"Accuracy":1,"Outcome":"-10","Keys":[],"TotalKeys":0,"Block":2,"Trial":234,"Robot":4,"Valence":"Lose","Action":"No-Go","Sham":1,"Color":"blue","trial_type":"pit-trial","trial_index":255,"time_elapsed":1250196,"internal_node_id":"0.0-244.0","task_version":"test-retest-t4"},{"Rune":"rune_08_pertho","Hex":"#ffcc3399","Correct":32,"Choice":32,"RT":394,"Accuracy":1,"Outcome":"+10","Keys":[1894],"TotalKeys":1,"Block":2,"Trial":235,"Robot":1,"Valence":"Win","Action":"Go","Sham":0,"Color":"yellow","trial_type":"pit-trial","trial_index":256,"time_elapsed":1253094,"internal_node_id":"0.0-245.0","task_version":"test-retest-t4"},{"Rune":"rune_08_mannaz","Hex":"#ffcc3399","Correct":-1,"Choice":-1,"RT":-1,"Accuracy":1,"Outcome":"+1","Keys":[],"TotalKeys":0,"Block":2,"Trial":236,"Robot":2,"Valence":"Win","Action":"No-Go","Sham":1,"Color":"yellow","trial_type":"pit-trial","trial_index":257,"time_elapsed":1257099,"internal_node_id":"0.0-246.0","task_version":"test-retest-t4"},{"Rune":"rune_08_sigel","Hex":"#3366ff99","Correct":32,"Choice":32,"RT":420,"Accuracy":1,"Outcome":"-1","Keys":[1920],"TotalKeys":1,"Block":2,"Trial":237,"Robot":3,"Valence":"Lose","Action":"Go","Sham":0,"Color":"blue","trial_type":"pit-trial","trial_index":258,"time_elapsed":1260023,"internal_node_id":"0.0-247.0","task_version":"test-retest-t4"},{"Rune":"rune_08_fehu","Hex":"#3366ff99","Correct":-1,"Choice":-1,"RT":-1,"Accuracy":1,"Outcome":"-1","Keys":[],"TotalKeys":0,"Block":2,"Trial":238,"Robot":4,"Valence":"Lose","Action":"No-Go","Sham":0,"Color":"blue","trial_type":"pit-trial","trial_index":259,"time_elapsed":1264027,"internal_node_id":"0.0-248.0","task_version":"test-retest-t4"},{"Rune":"rune_08_mannaz","Hex":"#ffcc3399","Correct":-1,"Choice":-1,"RT":-1,"Accuracy":1,"Outcome":"+10","Keys":[],"TotalKeys":0,"Block":2,"Trial":239,"Robot":2,"Valence":"Win","Action":"No-Go","Sham":0,"Color":"yellow","trial_type":"pit-trial","trial_index":260,"time_elapsed":1268031,"internal_node_id":"0.0-249.0","task_version":"test-retest-t4"},{"Rune":"rune_08_pertho","Hex":"#ffcc3399","Correct":32,"Choice":32,"RT":303,"Accuracy":1,"Outcome":"+10","Keys":[1803],"TotalKeys":1,"Block":2,"Trial":240,"Robot":1,"Valence":"Win","Action":"Go","Sham":0,"Color":"yellow","trial_type":"pit-trial","trial_index":261,"time_elapsed":1270838,"internal_node_id":"0.0-250.0","task_version":"test-retest-t4"},{"view_history":"[{\"page_index\":0,\"viewing_time\":2336}]","rt":2338,"trial_type":"pit-instructions","trial_index":262,"time_elapsed":1273179,"internal_node_id":"0.0-251.0","task_version":"test-retest-t4"},{"rt":16746,"responses":{"age":"31","gender-categorical":"Male","gender-free-response":"","ethnicity":"Hispanic or Latino","race":"White","language":"Yes","fluency":"Very well"},"survey":"demographics","trial_type":"survey-demo","trial_index":263,"time_elapsed":1289934,"internal_node_id":"0.0-252.0","task_version":"test-retest-t4"},{"rt":49256,"responses":{"difficulty":"4","fun":"5","clarity":"5","strategy":"I didn't write anything down. Just used trial and error at first to determine which symbols were good/bad.","feedback":""},"survey":"debrief","trial_type":"survey-debrief","trial_index":264,"time_elapsed":1339197,"internal_node_id":"0.0-253.0","task_version":"test-retest-t4"},{"rt":3041,"stimulus":"You earned a bonus of $1.45 out of $1.5.<br><br>Press any key to complete the experiment.","key_press":32,"trial_type":"html-keyboard-response","trial_index":265,"time_elapsed":1342243,"internal_node_id":"0.0-254.0","task_version":"test-retest-t4","accuracy":0.9625,"bonus":1.45,"interactions":"[{\"event\":\"focus\",\"trial\":0,\"time\":0},{\"event\":\"blur\",\"trial\":2,\"time\":45629},{\"event\":\"focus\",\"trial\":2,\"time\":50569},{\"event\":\"blur\",\"trial\":3,\"time\":195990},{\"event\":\"focus\",\"trial\":3,\"time\":197025},{\"event\":\"blur\",\"trial\":3,\"time\":197475},{\"event\":\"focus\",\"trial\":3,\"time\":226696},{\"event\":\"blur\",\"trial\":3,\"time\":230291},{\"event\":\"focus\",\"trial\":3,\"time\":231494},{\"event\":\"blur\",\"trial\":3,\"time\":231525},{\"event\":\"focus\",\"trial\":3,\"time\":254477}]"}]