[{"slider_type":"valence","raw_loc":581,"loc":0.662,"trial_type":"affective-slider","trial_index":0,"time_elapsed":5641,"internal_node_id":"0.0-0.0","task_version":"test-retest-t4"},{"responses":{"Q01":"0","Q02":"0","Q11":"1","Q08":"0","Q13":"0","Q04":"0","Q09":"0","Q07":"0","Q05":"0","Q15":"0","Q14":"0","Q12":"0","Q06":"0","Q03":"0","Q10":"1"},"rt":65786.52999998303,"survey":"7up7down","trial_type":"survey-template","trial_index":1,"time_elapsed":71435,"internal_node_id":"0.0-1.0","task_version":"test-retest-t4"},{"responses":{"Q10":"2","Q05":"2","Q04":"1","Q09":"1","Q13":"0","Q02":"1","Q01":"1","Q11":"2","Q06":"2","Q08":"2","Q12":"1","Q07":"2","Q03":"1"},"rt":32568.11000002199,"survey":"bisbas","trial_type":"survey-template","trial_index":2,"time_elapsed":104009,"internal_node_id":"0.0-2.0","task_version":"test-retest-t4"},{"responses":{"Q07":"0","Q08":"0","Q06":"1","Q03":"0","Q01":"0","Q05":"0","Q04":"0","Q02":"0"},"rt":13663.904999993974,"survey":"gad7","trial_type":"survey-template","trial_index":3,"time_elapsed":117677,"internal_node_id":"0.0-3.0","task_version":"test-retest-t4"},{"view_history":"[{\"page_index\":0,\"viewing_time\":4053.9200000057463},{\"page_index\":1,\"viewing_time\":1895.684999995865},{\"page_index\":2,\"viewing_time\":2464.9899999785703},{\"page_index\":3,\"viewing_time\":5698.080000001937},{\"page_index\":4,\"viewing_time\":3373.9750000240747},{\"page_index\":5,\"viewing_time\":2500.9049999935087}]","rt":19988.764999987325,"trial_type":"pit-instructions","trial_index":4,"time_elapsed":137676,"internal_node_id":"0.0-4.0-0.0","task_version":"test-retest-t4"},{"Rune":"rune_00_ingz","Hex":"#FFFFF080","Correct":32,"Choice":32,"RT":852.5249999947846,"Accuracy":1,"Outcome":"+10","Keys":[1474.690000002738,2353.1800000055227],"TotalKeys":2,"Block":0,"Action":"Go","trial_type":"pit-trial","trial_index":5,"time_elapsed":141035,"internal_node_id":"0.0-4.0-1.0-0.0","task_version":"test-retest-t4"},{"Rune":"rune_00_ingz","Hex":"#FFFFF080","Correct":32,"Choice":32,"RT":562.1349999855738,"Accuracy":1,"Outcome":"+10","Keys":[2064.3350000027567],"TotalKeys":1,"Block":0,"Action":"Go","trial_type":"pit-trial","trial_index":6,"time_elapsed":144105,"internal_node_id":"0.0-4.0-1.0-0.1","task_version":"test-retest-t4"},{"Rune":"rune_00_ingz","Hex":"#FFFFF080","Correct":32,"Choice":32,"RT":446.88000000314787,"Accuracy":1,"Outcome":"+10","Keys":[1948.4149999916553],"TotalKeys":1,"Block":0,"Action":"Go","trial_type":"pit-trial","trial_index":7,"time_elapsed":147060,"internal_node_id":"0.0-4.0-1.0-0.2","task_version":"test-retest-t4"},{"Rune":"rune_00_ingz","Hex":"#FFFFF080","Correct":32,"Choice":32,"RT":477.7299999841489,"Accuracy":1,"Outcome":"+10","Keys":[1978.0350000073668],"TotalKeys":1,"Block":0,"Action":"Go","trial_type":"pit-trial","trial_index":8,"time_elapsed":150042,"internal_node_id":"0.0-4.0-1.0-0.3","task_version":"test-retest-t4"},{"view_history":"[{\"page_index\":0,\"viewing_time\":2636.399999988498}]","rt":2636.945000005653,"trial_type":"pit-instructions","trial_index":9,"time_elapsed":152681,"internal_node_id":"0.0-4.0-2.0","task_version":"test-retest-t4"},{"Rune":"rune_00_isaz","Hex":"#FFFFF080","Correct":-1,"Choice":-1,"RT":-1,"Accuracy":1,"Outcome":"+10","Keys":[],"TotalKeys":0,"Block":0,"Action":"No-Go","trial_type":"pit-trial","trial_index":10,"time_elapsed":156686,"internal_node_id":"0.0-4.0-3.0-0.0","task_version":"test-retest-t4"},{"Rune":"rune_00_isaz","Hex":"#FFFFF080","Correct":-1,"Choice":-1,"RT":-1,"Accuracy":1,"Outcome":"+10","Keys":[],"TotalKeys":0,"Block":0,"Action":"No-Go","trial_type":"pit-trial","trial_index":11,"time_elapsed":160691,"internal_node_id":"0.0-4.0-3.0-0.1","task_version":"test-retest-t4"},{"Rune":"rune_00_isaz","Hex":"#FFFFF080","Correct":-1,"Choice":-1,"RT":-1,"Accuracy":1,"Outcome":"+10","Keys":[],"TotalKeys":0,"Block":0,"Action":"No-Go","trial_type":"pit-trial","trial_index":12,"time_elapsed":164696,"internal_node_id":"0.0-4.0-3.0-0.2","task_version":"test-retest-t4"},{"Rune":"rune_00_isaz","Hex":"#FFFFF080","Correct":-1,"Choice":-1,"RT":-1,"Accuracy":1,"Outcome":"+10","Keys":[],"TotalKeys":0,"Block":0,"Action":"No-Go","trial_type":"pit-trial","trial_index":13,"time_elapsed":168701,"internal_node_id":"0.0-4.0-3.0-0.3","task_version":"test-retest-t4"},{"view_history":"[{\"page_index\":0,\"viewing_time\":2513.0349999817554},{\"page_index\":1,\"viewing_time\":15772.785000008298},{\"page_index\":2,\"viewing_time\":7479.900000005728},{\"page_index\":3,\"viewing_time\":69.73999997717328},{\"page_index\":4,\"viewing_time\":3581.275000004098},{\"page_index\":5,\"viewing_time\":3919.8949999990873},{\"page_index\":6,\"viewing_time\":3803.0000000144355},{\"page_index\":7,\"viewing_time\":2164.950000005774}]","rt":39305.134999973234,"trial_type":"pit-instructions","trial_index":14,"time_elapsed":208007,"internal_node_id":"0.0-4.0-4.0","task_version":"test-retest-t4"},{"responses":["Do nothing","+10","-1","True","Yes"],"num_errors":0,"rt":19816.794999991544,"trial_type":"pit-comprehension","trial_index":15,"time_elapsed":227829,"internal_node_id":"0.0-4.0-5.0","task_version":"test-retest-t4"},{"trial_type":"call-function","trial_index":16,"time_elapsed":227836,"internal_node_id":"0.0-5.0","task_version":"test-retest-t4"},{"view_history":"[{\"page_index\":0,\"viewing_time\":1801.500000001397},{\"page_index\":1,\"viewing_time\":2119.11999998847},{\"page_index\":2,\"viewing_time\":2457.829999999376}]","rt":6379.019999993034,"trial_type":"pit-instructions","trial_index":17,"time_elapsed":234216,"internal_node_id":"0.0-6.0","task_version":"test-retest-t4"},{"Rune":"rune_08_pertho","Hex":"#ffcc3399","Correct":-1,"Choice":-1,"RT":-1,"Accuracy":1,"Outcome":"+10","Keys":[],"TotalKeys":0,"Block":1,"Trial":1,"Robot":2,"Valence":"Win","Action":"No-Go","Sham":0,"Color":"yellow","trial_type":"pit-trial","trial_index":18,"time_elapsed":238224,"internal_node_id":"0.0-7.0","task_version":"test-retest-t4"},{"Rune":"rune_08_fehu","Hex":"#ffcc3399","Correct":32,"Choice":-1,"RT":-1,"Accuracy":0,"Outcome":"+1","Keys":[],"TotalKeys":0,"Block":1,"Trial":2,"Robot":1,"Valence":"Win","Action":"Go","Sham":0,"Color":"yellow","trial_type":"pit-trial","trial_index":19,"time_elapsed":242229,"internal_node_id":"0.0-8.0","task_version":"test-retest-t4"},{"Rune":"rune_08_mannaz","Hex":"#3366ff99","Correct":32,"Choice":-1,"RT":-1,"Accuracy":0,"Outcome":"-10","Keys":[],"TotalKeys":0,"Block":1,"Trial":3,"Robot":3,"Valence":"Lose","Action":"Go","Sham":0,"Color":"blue","trial_type":"pit-trial","trial_index":20,"time_elapsed":246234,"internal_node_id":"0.0-9.0","task_version":"test-retest-t4"},{"Rune":"rune_08_sigel","Hex":"#3366ff99","Correct":-1,"Choice":-1,"RT":-1,"Accuracy":1,"Outcome":"-10","Keys":[],"TotalKeys":0,"Block":1,"Trial":4,"Robot":4,"Valence":"Lose","Action":"No-Go","Sham":1,"Color":"blue","trial_type":"pit-trial","trial_index":21,"time_elapsed":250240,"internal_node_id":"0.0-10.0","task_version":"test-retest-t4"},{"Rune":"rune_08_fehu","Hex":"#ffcc3399","Correct":32,"Choice":-1,"RT":-1,"Accuracy":0,"Outcome":"+1","Keys":[],"TotalKeys":0,"Block":1,"Trial":5,"Robot":1,"Valence":"Win","Action":"Go","Sham":0,"Color":"yellow","trial_type":"pit-trial","trial_index":22,"time_elapsed":254244,"internal_node_id":"0.0-11.0","task_version":"test-retest-t4"},{"Rune":"rune_08_pertho","Hex":"#ffcc3399","Correct":-1,"Choice":-1,"RT":-1,"Accuracy":1,"Outcome":"+10","Keys":[],"TotalKeys":0,"Block":1,"Trial":6,"Robot":2,"Valence":"Win","Action":"No-Go","Sham":0,"Color":"yellow","trial_type":"pit-trial","trial_index":23,"time_elapsed":258249,"internal_node_id":"0.0-12.0","task_version":"test-retest-t4"},{"Rune":"rune_08_mannaz","Hex":"#3366ff99","Correct":32,"Choice":32,"RT":390.39000001503155,"Accuracy":1,"Outcome":"-1","Keys":[1890.8300000184681],"TotalKeys":1,"Block":1,"Trial":7,"Robot":3,"Valence":"Lose","Action":"Go","Sham":0,"Color":"blue","trial_type":"pit-trial","trial_index":24,"time_elapsed":261145,"internal_node_id":"0.0-13.0","task_version":"test-retest-t4"},{"Rune":"rune_08_sigel","Hex":"#3366ff99","Correct":-1,"Choice":32,"RT":820.319999998901,"Accuracy":0,"Outcome":"-10","Keys":[2322.9500000015832],"TotalKeys":1,"Block":1,"Trial":8,"Robot":4,"Valence":"Lose","Action":"No-Go","Sham":0,"Color":"blue","trial_type":"pit-trial","trial_index":25,"time_elapsed":264471,"internal_node_id":"0.0-14.0","task_version":"test-retest-t4"},{"Rune":"rune_08_sigel","Hex":"#3366ff99","Correct":-1,"Choice":32,"RT":696.6249999823049,"Accuracy":0,"Outcome":"-10","Keys":[2196.974999998929],"TotalKeys":1,"Block":1,"Trial":9,"Robot":4,"Valence":"Lose","Action":"No-Go","Sham":0,"Color":"blue","trial_type":"pit-trial","trial_index":26,"time_elapsed":267672,"internal_node_id":"0.0-15.0","task_version":"test-retest-t4"},{"Rune":"rune_08_pertho","Hex":"#ffcc3399","Correct":-1,"Choice":-1,"RT":-1,"Accuracy":1,"Outcome":"+10","Keys":[],"TotalKeys":0,"Block":1,"Trial":10,"Robot":2,"Valence":"Win","Action":"No-Go","Sham":0,"Color":"yellow","trial_type":"pit-trial","trial_index":27,"time_elapsed":271678,"internal_node_id":"0.0-16.0","task_version":"test-retest-t4"},{"Rune":"rune_08_fehu","Hex":"#ffcc3399","Correct":32,"Choice":32,"RT":961.3499999977648,"Accuracy":1,"Outcome":"+10","Keys":[2462.4649999896064],"TotalKeys":1,"Block":1,"Trial":11,"Robot":1,"Valence":"Win","Action":"Go","Sham":0,"Color":"yellow","trial_type":"pit-trial","trial_index":28,"time_elapsed":275144,"internal_node_id":"0.0-17.0","task_version":"test-retest-t4"},{"Rune":"rune_08_mannaz","Hex":"#3366ff99","Correct":32,"Choice":32,"RT":607.6049999974202,"Accuracy":1,"Outcome":"-10","Keys":[2107.654999999795],"TotalKeys":1,"Block":1,"Trial":12,"Robot":3,"Valence":"Lose","Action":"Go","Sham":1,"Color":"blue","trial_type":"pit-trial","trial_index":29,"time_elapsed":278256,"internal_node_id":"0.0-18.0","task_version":"test-retest-t4"},{"Rune":"rune_08_mannaz","Hex":"#3366ff99","Correct":32,"Choice":-1,"RT":-1,"Accuracy":0,"Outcome":"-10","Keys":[],"TotalKeys":0,"Block":1,"Trial":13,"Robot":3,"Valence":"Lose","Action":"Go","Sham":0,"Color":"blue","trial_type":"pit-trial","trial_index":30,"time_elapsed":282261,"internal_node_id":"0.0-19.0","task_version":"test-retest-t4"},{"Rune":"rune_08_pertho","Hex":"#ffcc3399","Correct":-1,"Choice":-1,"RT":-1,"Accuracy":1,"Outcome":"+10","Keys":[],"TotalKeys":0,"Block":1,"Trial":14,"Robot":2,"Valence":"Win","Action":"No-Go","Sham":0,"Color":"yellow","trial_type":"pit-trial","trial_index":31,"time_elapsed":286267,"internal_node_id":"0.0-20.0","task_version":"test-retest-t4"},{"Rune":"rune_08_sigel","Hex":"#3366ff99","Correct":-1,"Choice":-1,"RT":-1,"Accuracy":1,"Outcome":"-1","Keys":[],"TotalKeys":0,"Block":1,"Trial":15,"Robot":4,"Valence":"Lose","Action":"No-Go","Sham":0,"Color":"blue","trial_type":"pit-trial","trial_index":32,"time_elapsed":290272,"internal_node_id":"0.0-21.0","task_version":"test-retest-t4"},{"Rune":"rune_08_fehu","Hex":"#ffcc3399","Correct":32,"Choice":32,"RT":999.0099999995437,"Accuracy":1,"Outcome":"+10","Keys":[2499.905000004219],"TotalKeys":1,"Block":1,"Trial":16,"Robot":1,"Valence":"Win","Action":"Go","Sham":0,"Color":"yellow","trial_type":"pit-trial","trial_index":33,"time_elapsed":293776,"internal_node_id":"0.0-22.0","task_version":"test-retest-t4"},{"Rune":"rune_08_pertho","Hex":"#ffcc3399","Correct":-1,"Choice":-1,"RT":-1,"Accuracy":1,"Outcome":"+1","Keys":[],"TotalKeys":0,"Block":1,"Trial":17,"Robot":2,"Valence":"Win","Action":"No-Go","Sham":1,"Color":"yellow","trial_type":"pit-trial","trial_index":34,"time_elapsed":297782,"internal_node_id":"0.0-23.0","task_version":"test-retest-t4"},{"Rune":"rune_08_mannaz","Hex":"#3366ff99","Correct":32,"Choice":-1,"RT":-1,"Accuracy":0,"Outcome":"-10","Keys":[],"TotalKeys":0,"Block":1,"Trial":18,"Robot":3,"Valence":"Lose","Action":"Go","Sham":0,"Color":"blue","trial_type":"pit-trial","trial_index":35,"time_elapsed":301788,"internal_node_id":"0.0-24.0","task_version":"test-retest-t4"},{"Rune":"rune_08_fehu","Hex":"#ffcc3399","Correct":32,"Choice":32,"RT":683.4600000001956,"Accuracy":1,"Outcome":"+1","Keys":[2183.98500001058],"TotalKeys":1,"Block":1,"Trial":19,"Robot":1,"Valence":"Win","Action":"Go","Sham":1,"Color":"yellow","trial_type":"pit-trial","trial_index":36,"time_elapsed":304976,"internal_node_id":"0.0-25.0","task_version":"test-retest-t4"},{"Rune":"rune_08_sigel","Hex":"#3366ff99","Correct":-1,"Choice":32,"RT":861.5249999857042,"Accuracy":0,"Outcome":"-10","Keys":[2363.4299999976065],"TotalKeys":1,"Block":1,"Trial":20,"Robot":4,"Valence":"Lose","Action":"No-Go","Sham":0,"Color":"blue","trial_type":"pit-trial","trial_index":37,"time_elapsed":308344,"internal_node_id":"0.0-26.0","task_version":"test-retest-t4"},{"Rune":"rune_08_sigel","Hex":"#3366ff99","Correct":-1,"Choice":-1,"RT":-1,"Accuracy":1,"Outcome":"-1","Keys":[],"TotalKeys":0,"Block":1,"Trial":21,"Robot":4,"Valence":"Lose","Action":"No-Go","Sham":0,"Color":"blue","trial_type":"pit-trial","trial_index":38,"time_elapsed":312349,"internal_node_id":"0.0-27.0","task_version":"test-retest-t4"},{"Rune":"rune_08_mannaz","Hex":"#3366ff99","Correct":32,"Choice":-1,"RT":-1,"Accuracy":0,"Outcome":"-10","Keys":[],"TotalKeys":0,"Block":1,"Trial":22,"Robot":3,"Valence":"Lose","Action":"Go","Sham":0,"Color":"blue","trial_type":"pit-trial","trial_index":39,"time_elapsed":316354,"internal_node_id":"0.0-28.0","task_version":"test-retest-t4"},{"Rune":"rune_08_fehu","Hex":"#ffcc3399","Correct":32,"Choice":32,"RT":781.4599999983329,"Accuracy":1,"Outcome":"+10","Keys":[2281.959999992978],"TotalKeys":1,"Block":1,"Trial":23,"Robot":1,"Valence":"Win","Action":"Go","Sham":0,"Color":"yellow","trial_type":"pit-trial","trial_index":40,"time_elapsed":319640,"internal_node_id":"0.0-29.0","task_version":"test-retest-t4"},{"Rune":"rune_08_pertho","Hex":"#ffcc3399","Correct":-1,"Choice":32,"RT":1254.5800000079907,"Accuracy":0,"Outcome":"+1","Keys":[2755.4499999969266],"TotalKeys":1,"Block":1,"Trial":24,"Robot":2,"Valence":"Win","Action":"No-Go","Sham":0,"Color":"yellow","trial_type":"pit-trial","trial_index":41,"time_elapsed":323399,"internal_node_id":"0.0-30.0","task_version":"test-retest-t4"},{"Rune":"rune_08_sigel","Hex":"#3366ff99","Correct":-1,"Choice":-1,"RT":-1,"Accuracy":1,"Outcome":"-1","Keys":[],"TotalKeys":0,"Block":1,"Trial":25,"Robot":4,"Valence":"Lose","Action":"No-Go","Sham":0,"Color":"blue","trial_type":"pit-trial","trial_index":42,"time_elapsed":327404,"internal_node_id":"0.0-31.0","task_version":"test-retest-t4"},{"Rune":"rune_08_pertho","Hex":"#ffcc3399","Correct":-1,"Choice":-1,"RT":-1,"Accuracy":1,"Outcome":"+1","Keys":[],"TotalKeys":0,"Block":1,"Trial":26,"Robot":2,"Valence":"Win","Action":"No-Go","Sham":1,"Color":"yellow","trial_type":"pit-trial","trial_index":43,"time_elapsed":331410,"internal_node_id":"0.0-32.0","task_version":"test-retest-t4"},{"Rune":"rune_08_fehu","Hex":"#ffcc3399","Correct":32,"Choice":32,"RT":653.1450000184122,"Accuracy":1,"Outcome":"+10","Keys":[2153.4500000125263],"TotalKeys":1,"Block":1,"Trial":27,"Robot":1,"Valence":"Win","Action":"Go","Sham":0,"Color":"yellow","trial_type":"pit-trial","trial_index":44,"time_elapsed":334567,"internal_node_id":"0.0-33.0","task_version":"test-retest-t4"},{"Rune":"rune_08_mannaz","Hex":"#3366ff99","Correct":32,"Choice":32,"RT":615.1799999934155,"Accuracy":1,"Outcome":"-1","Keys":[2115.859999990789],"TotalKeys":1,"Block":1,"Trial":28,"Robot":3,"Valence":"Lose","Action":"Go","Sham":0,"Color":"blue","trial_type":"pit-trial","trial_index":45,"time_elapsed":337688,"internal_node_id":"0.0-34.0","task_version":"test-retest-t4"},{"Rune":"rune_08_pertho","Hex":"#ffcc3399","Correct":-1,"Choice":-1,"RT":-1,"Accuracy":1,"Outcome":"+10","Keys":[],"TotalKeys":0,"Block":1,"Trial":29,"Robot":2,"Valence":"Win","Action":"No-Go","Sham":0,"Color":"yellow","trial_type":"pit-trial","trial_index":46,"time_elapsed":341692,"internal_node_id":"0.0-35.0","task_version":"test-retest-t4"},{"Rune":"rune_08_mannaz","Hex":"#3366ff99","Correct":32,"Choice":32,"RT":546.1399999912828,"Accuracy":1,"Outcome":"-1","Keys":[2047.244999994291],"TotalKeys":1,"Block":1,"Trial":30,"Robot":3,"Valence":"Lose","Action":"Go","Sham":0,"Color":"blue","trial_type":"pit-trial","trial_index":47,"time_elapsed":344745,"internal_node_id":"0.0-36.0","task_version":"test-retest-t4"},{"Rune":"rune_08_sigel","Hex":"#3366ff99","Correct":-1,"Choice":-1,"RT":-1,"Accuracy":1,"Outcome":"-1","Keys":[],"TotalKeys":0,"Block":1,"Trial":31,"Robot":4,"Valence":"Lose","Action":"No-Go","Sham":0,"Color":"blue","trial_type":"pit-trial","trial_index":48,"time_elapsed":348752,"internal_node_id":"0.0-37.0","task_version":"test-retest-t4"},{"Rune":"rune_08_fehu","Hex":"#ffcc3399","Correct":32,"Choice":32,"RT":748.8850000081584,"Accuracy":1,"Outcome":"+10","Keys":[2250.6350000039674],"TotalKeys":1,"Block":1,"Trial":32,"Robot":1,"Valence":"Win","Action":"Go","Sham":0,"Color":"yellow","trial_type":"pit-trial","trial_index":49,"time_elapsed":352008,"internal_node_id":"0.0-38.0","task_version":"test-retest-t4"},{"Rune":"rune_08_fehu","Hex":"#ffcc3399","Correct":32,"Choice":32,"RT":686.9950000254903,"Accuracy":1,"Outcome":"+1","Keys":[2187.4149999930523],"TotalKeys":1,"Block":1,"Trial":33,"Robot":1,"Valence":"Win","Action":"Go","Sham":1,"Color":"yellow","trial_type":"pit-trial","trial_index":50,"time_elapsed":355199,"internal_node_id":"0.0-39.0","task_version":"test-retest-t4"},{"Rune":"rune_08_mannaz","Hex":"#3366ff99","Correct":32,"Choice":32,"RT":455.44499999959953,"Accuracy":1,"Outcome":"-1","Keys":[1955.51999998861],"TotalKeys":1,"Block":1,"Trial":34,"Robot":3,"Valence":"Lose","Action":"Go","Sham":0,"Color":"blue","trial_type":"pit-trial","trial_index":51,"time_elapsed":358160,"internal_node_id":"0.0-40.0","task_version":"test-retest-t4"},{"Rune":"rune_08_pertho","Hex":"#ffcc3399","Correct":-1,"Choice":-1,"RT":-1,"Accuracy":1,"Outcome":"+10","Keys":[],"TotalKeys":0,"Block":1,"Trial":35,"Robot":2,"Valence":"Win","Action":"No-Go","Sham":0,"Color":"yellow","trial_type":"pit-trial","trial_index":52,"time_elapsed":362167,"internal_node_id":"0.0-41.0","task_version":"test-retest-t4"},{"Rune":"rune_08_sigel","Hex":"#3366ff99","Correct":-1,"Choice":-1,"RT":-1,"Accuracy":1,"Outcome":"-10","Keys":[],"TotalKeys":0,"Block":1,"Trial":36,"Robot":4,"Valence":"Lose","Action":"No-Go","Sham":1,"Color":"blue","trial_type":"pit-trial","trial_index":53,"time_elapsed":366172,"internal_node_id":"0.0-42.0","task_version":"test-retest-t4"},{"Rune":"rune_08_pertho","Hex":"#ffcc3399","Correct":-1,"Choice":-1,"RT":-1,"Accuracy":1,"Outcome":"+10","Keys":[],"TotalKeys":0,"Block":1,"Trial":37,"Robot":2,"Valence":"Win","Action":"No-Go","Sham":0,"Color":"yellow","trial_type":"pit-trial","trial_index":54,"time_elapsed":370178,"internal_node_id":"0.0-43.0","task_version":"test-retest-t4"},{"Rune":"rune_08_fehu","Hex":"#ffcc3399","Correct":32,"Choice":32,"RT":516.6650000028312,"Accuracy":1,"Outcome":"+10","Keys":[2017.0100000104867],"TotalKeys":1,"Block":1,"Trial":38,"Robot":1,"Valence":"Win","Action":"Go","Sham":0,"Color":"yellow","trial_type":"pit-trial","trial_index":55,"time_elapsed":373199,"internal_node_id":"0.0-44.0","task_version":"test-retest-t4"},{"Rune":"rune_08_mannaz","Hex":"#3366ff99","Correct":32,"Choice":32,"RT":469.4599999929778,"Accuracy":1,"Outcome":"-10","Keys":[1971.5849999920465],"TotalKeys":1,"Block":1,"Trial":39,"Robot":3,"Valence":"Lose","Action":"Go","Sham":1,"Color":"blue","trial_type":"pit-trial","trial_index":56,"time_elapsed":376175,"internal_node_id":"0.0-45.0","task_version":"test-retest-t4"},{"Rune":"rune_08_sigel","Hex":"#3366ff99","Correct":-1,"Choice":32,"RT":1054.8200000193901,"Accuracy":0,"Outcome":"-10","Keys":[2555.575000005774,2763.684999983525],"TotalKeys":2,"Block":1,"Trial":40,"Robot":4,"Valence":"Lose","Action":"No-Go","Sham":0,"Color":"blue","trial_type":"pit-trial","trial_index":57,"time_elapsed":379735,"internal_node_id":"0.0-46.0","task_version":"test-retest-t4"},{"Rune":"rune_08_pertho","Hex":"#ffcc3399","Correct":-1,"Choice":-1,"RT":-1,"Accuracy":1,"Outcome":"+10","Keys":[],"TotalKeys":0,"Block":1,"Trial":41,"Robot":2,"Valence":"Win","Action":"No-Go","Sham":0,"Color":"yellow","trial_type":"pit-trial","trial_index":58,"time_elapsed":383742,"internal_node_id":"0.0-47.0","task_version":"test-retest-t4"},{"Rune":"rune_08_fehu","Hex":"#ffcc3399","Correct":32,"Choice":32,"RT":615.8500000019558,"Accuracy":1,"Outcome":"+10","Keys":[2117.079999996349],"TotalKeys":1,"Block":1,"Trial":42,"Robot":1,"Valence":"Win","Action":"Go","Sham":0,"Color":"yellow","trial_type":"pit-trial","trial_index":59,"time_elapsed":386864,"internal_node_id":"0.0-48.0","task_version":"test-retest-t4"},{"Rune":"rune_08_mannaz","Hex":"#3366ff99","Correct":32,"Choice":32,"RT":469.52000001329,"Accuracy":1,"Outcome":"-1","Keys":[1970.2450000040699],"TotalKeys":1,"Block":1,"Trial":43,"Robot":3,"Valence":"Lose","Action":"Go","Sham":0,"Color":"blue","trial_type":"pit-trial","trial_index":60,"time_elapsed":389839,"internal_node_id":"0.0-49.0","task_version":"test-retest-t4"},{"Rune":"rune_08_sigel","Hex":"#3366ff99","Correct":-1,"Choice":32,"RT":558.805000007851,"Accuracy":0,"Outcome":"-1","Keys":[2060.319999989588],"TotalKeys":1,"Block":1,"Trial":44,"Robot":4,"Valence":"Lose","Action":"No-Go","Sham":1,"Color":"blue","trial_type":"pit-trial","trial_index":61,"time_elapsed":392904,"internal_node_id":"0.0-50.0","task_version":"test-retest-t4"},{"Rune":"rune_08_fehu","Hex":"#ffcc3399","Correct":32,"Choice":32,"RT":463.66999999736436,"Accuracy":1,"Outcome":"+10","Keys":[1963.8250000134576],"TotalKeys":1,"Block":1,"Trial":45,"Robot":1,"Valence":"Win","Action":"Go","Sham":0,"Color":"yellow","trial_type":"pit-trial","trial_index":62,"time_elapsed":395871,"internal_node_id":"0.0-51.0","task_version":"test-retest-t4"},{"Rune":"rune_08_pertho","Hex":"#ffcc3399","Correct":-1,"Choice":-1,"RT":-1,"Accuracy":1,"Outcome":"+10","Keys":[],"TotalKeys":0,"Block":1,"Trial":46,"Robot":2,"Valence":"Win","Action":"No-Go","Sham":0,"Color":"yellow","trial_type":"pit-trial","trial_index":63,"time_elapsed":399878,"internal_node_id":"0.0-52.0","task_version":"test-retest-t4"},{"Rune":"rune_08_mannaz","Hex":"#3366ff99","Correct":32,"Choice":32,"RT":424.92000001948327,"Accuracy":1,"Outcome":"-1","Keys":[1925.8649999974295],"TotalKeys":1,"Block":1,"Trial":47,"Robot":3,"Valence":"Lose","Action":"Go","Sham":0,"Color":"blue","trial_type":"pit-trial","trial_index":64,"time_elapsed":402808,"internal_node_id":"0.0-53.0","task_version":"test-retest-t4"},{"Rune":"rune_08_sigel","Hex":"#3366ff99","Correct":-1,"Choice":32,"RT":387.91499999933876,"Accuracy":0,"Outcome":"-10","Keys":[1890.7300000137184],"TotalKeys":1,"Block":1,"Trial":48,"Robot":4,"Valence":"Lose","Action":"No-Go","Sham":0,"Color":"blue","trial_type":"pit-trial","trial_index":65,"time_elapsed":405703,"internal_node_id":"0.0-54.0","task_version":"test-retest-t4"},{"Rune":"rune_08_mannaz","Hex":"#3366ff99","Correct":32,"Choice":32,"RT":400.5299999844283,"Accuracy":1,"Outcome":"-10","Keys":[1900.5699999979697],"TotalKeys":1,"Block":1,"Trial":49,"Robot":3,"Valence":"Lose","Action":"Go","Sham":1,"Color":"blue","trial_type":"pit-trial","trial_index":66,"time_elapsed":408607,"internal_node_id":"0.0-55.0","task_version":"test-retest-t4"},{"Rune":"rune_08_fehu","Hex":"#ffcc3399","Correct":32,"Choice":32,"RT":567.1799999836367,"Accuracy":1,"Outcome":"+1","Keys":[2067.9700000036974],"TotalKeys":1,"Block":1,"Trial":50,"Robot":1,"Valence":"Win","Action":"Go","Sham":1,"Color":"yellow","trial_type":"pit-trial","trial_index":67,"time_elapsed":411680,"internal_node_id":"0.0-56.0","task_version":"test-retest-t4"},{"Rune":"rune_08_sigel","Hex":"#3366ff99","Correct":-1,"Choice":32,"RT":455.0450000097044,"Accuracy":0,"Outcome":"-10","Keys":[1955.2649999968708],"TotalKeys":1,"Block":1,"Trial":51,"Robot":4,"Valence":"Lose","Action":"No-Go","Sham":0,"Color":"blue","trial_type":"pit-trial","trial_index":68,"time_elapsed":414640,"internal_node_id":"0.0-57.0","task_version":"test-retest-t4"},{"Rune":"rune_08_pertho","Hex":"#ffcc3399","Correct":-1,"Choice":-1,"RT":-1,"Accuracy":1,"Outcome":"+10","Keys":[],"TotalKeys":0,"Block":1,"Trial":52,"Robot":2,"Valence":"Win","Action":"No-Go","Sham":0,"Color":"yellow","trial_type":"pit-trial","trial_index":69,"time_elapsed":418650,"internal_node_id":"0.0-58.0","task_version":"test-retest-t4"},{"Rune":"rune_08_fehu","Hex":"#ffcc3399","Correct":32,"Choice":32,"RT":500.8749999979045,"Accuracy":1,"Outcome":"+10","Keys":[2001.0850000253413],"TotalKeys":1,"Block":1,"Trial":53,"Robot":1,"Valence":"Win","Action":"Go","Sham":0,"Color":"yellow","trial_type":"pit-trial","trial_index":70,"time_elapsed":421657,"internal_node_id":"0.0-59.0","task_version":"test-retest-t4"},{"Rune":"rune_08_mannaz","Hex":"#3366ff99","Correct":32,"Choice":32,"RT":541.880000004312,"Accuracy":1,"Outcome":"-1","Keys":[2042.7049999998417],"TotalKeys":1,"Block":1,"Trial":54,"Robot":3,"Valence":"Lose","Action":"Go","Sham":0,"Color":"blue","trial_type":"pit-trial","trial_index":71,"time_elapsed":424704,"internal_node_id":"0.0-60.0","task_version":"test-retest-t4"},{"Rune":"rune_08_sigel","Hex":"#3366ff99","Correct":-1,"Choice":32,"RT":575.1800000143703,"Accuracy":0,"Outcome":"-10","Keys":[2075.5049999861512],"TotalKeys":1,"Block":1,"Trial":55,"Robot":4,"Valence":"Lose","Action":"No-Go","Sham":0,"Color":"blue","trial_type":"pit-trial","trial_index":72,"time_elapsed":427784,"internal_node_id":"0.0-61.0","task_version":"test-retest-t4"},{"Rune":"rune_08_pertho","Hex":"#ffcc3399","Correct":-1,"Choice":-1,"RT":-1,"Accuracy":1,"Outcome":"+1","Keys":[],"TotalKeys":0,"Block":1,"Trial":56,"Robot":2,"Valence":"Win","Action":"No-Go","Sham":1,"Color":"yellow","trial_type":"pit-trial","trial_index":73,"time_elapsed":431789,"internal_node_id":"0.0-62.0","task_version":"test-retest-t4"},{"Rune":"rune_08_pertho","Hex":"#ffcc3399","Correct":-1,"Choice":-1,"RT":-1,"Accuracy":1,"Outcome":"+10","Keys":[],"TotalKeys":0,"Block":1,"Trial":57,"Robot":2,"Valence":"Win","Action":"No-Go","Sham":0,"Color":"yellow","trial_type":"pit-trial","trial_index":74,"time_elapsed":435794,"internal_node_id":"0.0-63.0","task_version":"test-retest-t4"},{"Rune":"rune_08_mannaz","Hex":"#3366ff99","Correct":32,"Choice":32,"RT":700.3099999856204,"Accuracy":1,"Outcome":"-1","Keys":[2201.5449999889825],"TotalKeys":1,"Block":1,"Trial":58,"Robot":3,"Valence":"Lose","Action":"Go","Sham":0,"Color":"blue","trial_type":"pit-trial","trial_index":75,"time_elapsed":438999,"internal_node_id":"0.0-64.0","task_version":"test-retest-t4"},{"Rune":"rune_08_fehu","Hex":"#ffcc3399","Correct":32,"Choice":32,"RT":550.4599999985658,"Accuracy":1,"Outcome":"+10","Keys":[2051.500000001397],"TotalKeys":1,"Block":1,"Trial":59,"Robot":1,"Valence":"Win","Action":"Go","Sham":0,"Color":"yellow","trial_type":"pit-trial","trial_index":76,"time_elapsed":442056,"internal_node_id":"0.0-65.0","task_version":"test-retest-t4"},{"Rune":"rune_08_sigel","Hex":"#3366ff99","Correct":-1,"Choice":-1,"RT":-1,"Accuracy":1,"Outcome":"-1","Keys":[],"TotalKeys":0,"Block":1,"Trial":60,"Robot":4,"Valence":"Lose","Action":"No-Go","Sham":0,"Color":"blue","trial_type":"pit-trial","trial_index":77,"time_elapsed":446061,"internal_node_id":"0.0-66.0","task_version":"test-retest-t4"},{"value":false,"trial_type":"call-function","trial_index":78,"time_elapsed":446065,"internal_node_id":"0.0-67.0","task_version":"test-retest-t4"},{"view_history":"[{\"page_index\":0,\"viewing_time\":2995.43999999878},{\"page_index\":1,\"viewing_time\":1093.9650000073016}]","rt":4089.959999982966,"trial_type":"pit-instructions","trial_index":79,"time_elapsed":450156,"internal_node_id":"0.0-68.0","task_version":"test-retest-t4"},{"Rune":"rune_08_fehu","Hex":"#ffcc3399","Correct":32,"Choice":32,"RT":502.78499998967163,"Accuracy":1,"Outcome":"+10","Keys":[2003.6550000077114],"TotalKeys":1,"Block":1,"Trial":61,"Robot":1,"Valence":"Win","Action":"Go","Sham":0,"Color":"yellow","trial_type":"pit-trial","trial_index":80,"time_elapsed":453166,"internal_node_id":"0.0-69.0","task_version":"test-retest-t4"},{"Rune":"rune_08_mannaz","Hex":"#3366ff99","Correct":32,"Choice":32,"RT":653.8200000068173,"Accuracy":1,"Outcome":"-1","Keys":[2155.5999999982305],"TotalKeys":1,"Block":1,"Trial":62,"Robot":3,"Valence":"Lose","Action":"Go","Sham":0,"Color":"blue","trial_type":"pit-trial","trial_index":81,"time_elapsed":456326,"internal_node_id":"0.0-70.0","task_version":"test-retest-t4"},{"Rune":"rune_08_pertho","Hex":"#ffcc3399","Correct":-1,"Choice":-1,"RT":-1,"Accuracy":1,"Outcome":"+10","Keys":[],"TotalKeys":0,"Block":1,"Trial":63,"Robot":2,"Valence":"Win","Action":"No-Go","Sham":0,"Color":"yellow","trial_type":"pit-trial","trial_index":82,"time_elapsed":460331,"internal_node_id":"0.0-71.0","task_version":"test-retest-t4"},{"Rune":"rune_08_sigel","Hex":"#3366ff99","Correct":-1,"Choice":-1,"RT":-1,"Accuracy":1,"Outcome":"-1","Keys":[],"TotalKeys":0,"Block":1,"Trial":64,"Robot":4,"Valence":"Lose","Action":"No-Go","Sham":0,"Color":"blue","trial_type":"pit-trial","trial_index":83,"time_elapsed":464336,"internal_node_id":"0.0-72.0","task_version":"test-retest-t4"},{"Rune":"rune_08_sigel","Hex":"#3366ff99","Correct":-1,"Choice":-1,"RT":-1,"Accuracy":1,"Outcome":"-1","Keys":[],"TotalKeys":0,"Block":1,"Trial":65,"Robot":4,"Valence":"Lose","Action":"No-Go","Sham":0,"Color":"blue","trial_type":"pit-trial","trial_index":84,"time_elapsed":468341,"internal_node_id":"0.0-73.0","task_version":"test-retest-t4"},{"Rune":"rune_08_mannaz","Hex":"#3366ff99","Correct":32,"Choice":32,"RT":591.0300000105053,"Accuracy":1,"Outcome":"-1","Keys":[2092.464999994263],"TotalKeys":1,"Block":1,"Trial":66,"Robot":3,"Valence":"Lose","Action":"Go","Sham":0,"Color":"blue","trial_type":"pit-trial","trial_index":85,"time_elapsed":471439,"internal_node_id":"0.0-74.0","task_version":"test-retest-t4"},{"Rune":"rune_08_fehu","Hex":"#ffcc3399","Correct":32,"Choice":32,"RT":598.2000000076368,"Accuracy":1,"Outcome":"+10","Keys":[2099.130000016885],"TotalKeys":1,"Block":1,"Trial":67,"Robot":1,"Valence":"Win","Action":"Go","Sham":0,"Color":"yellow","trial_type":"pit-trial","trial_index":86,"time_elapsed":474542,"internal_node_id":"0.0-75.0","task_version":"test-retest-t4"},{"Rune":"rune_08_pertho","Hex":"#ffcc3399","Correct":-1,"Choice":-1,"RT":-1,"Accuracy":1,"Outcome":"+10","Keys":[],"TotalKeys":0,"Block":1,"Trial":68,"Robot":2,"Valence":"Win","Action":"No-Go","Sham":0,"Color":"yellow","trial_type":"pit-trial","trial_index":87,"time_elapsed":478547,"internal_node_id":"0.0-76.0","task_version":"test-retest-t4"},{"Rune":"rune_08_sigel","Hex":"#3366ff99","Correct":-1,"Choice":-1,"RT":-1,"Accuracy":1,"Outcome":"-10","Keys":[],"TotalKeys":0,"Block":1,"Trial":69,"Robot":4,"Valence":"Lose","Action":"No-Go","Sham":1,"Color":"blue","trial_type":"pit-trial","trial_index":88,"time_elapsed":482552,"internal_node_id":"0.0-77.0","task_version":"test-retest-t4"},{"Rune":"rune_08_fehu","Hex":"#ffcc3399","Correct":32,"Choice":32,"RT":533.3800000080373,"Accuracy":1,"Outcome":"+10","Keys":[2033.9099999982864],"TotalKeys":1,"Block":1,"Trial":70,"Robot":1,"Valence":"Win","Action":"Go","Sham":0,"Color":"yellow","trial_type":"pit-trial","trial_index":89,"time_elapsed":485591,"internal_node_id":"0.0-78.0","task_version":"test-retest-t4"},{"Rune":"rune_08_mannaz","Hex":"#3366ff99","Correct":32,"Choice":32,"RT":679.2349999886937,"Accuracy":1,"Outcome":"-1","Keys":[2179.340000002412],"TotalKeys":1,"Block":1,"Trial":71,"Robot":3,"Valence":"Lose","Action":"Go","Sham":0,"Color":"blue","trial_type":"pit-trial","trial_index":90,"time_elapsed":488774,"internal_node_id":"0.0-79.0","task_version":"test-retest-t4"},{"Rune":"rune_08_pertho","Hex":"#ffcc3399","Correct":-1,"Choice":-1,"RT":-1,"Accuracy":1,"Outcome":"+10","Keys":[],"TotalKeys":0,"Block":1,"Trial":72,"Robot":2,"Valence":"Win","Action":"No-Go","Sham":0,"Color":"yellow","trial_type":"pit-trial","trial_index":91,"time_elapsed":492780,"internal_node_id":"0.0-80.0","task_version":"test-retest-t4"},{"Rune":"rune_08_pertho","Hex":"#ffcc3399","Correct":-1,"Choice":-1,"RT":-1,"Accuracy":1,"Outcome":"+10","Keys":[],"TotalKeys":0,"Block":1,"Trial":73,"Robot":2,"Valence":"Win","Action":"No-Go","Sham":0,"Color":"yellow","trial_type":"pit-trial","trial_index":92,"time_elapsed":496785,"internal_node_id":"0.0-81.0","task_version":"test-retest-t4"},{"Rune":"rune_08_mannaz","Hex":"#3366ff99","Correct":32,"Choice":32,"RT":428.7800000165589,"Accuracy":1,"Outcome":"-1","Keys":[1928.8400000077672],"TotalKeys":1,"Block":1,"Trial":74,"Robot":3,"Valence":"Lose","Action":"Go","Sham":0,"Color":"blue","trial_type":"pit-trial","trial_index":93,"time_elapsed":499718,"internal_node_id":"0.0-82.0","task_version":"test-retest-t4"},{"Rune":"rune_08_sigel","Hex":"#3366ff99","Correct":-1,"Choice":-1,"RT":-1,"Accuracy":1,"Outcome":"-1","Keys":[],"TotalKeys":0,"Block":1,"Trial":75,"Robot":4,"Valence":"Lose","Action":"No-Go","Sham":0,"Color":"blue","trial_type":"pit-trial","trial_index":94,"time_elapsed":503724,"internal_node_id":"0.0-83.0","task_version":"test-retest-t4"},{"Rune":"rune_08_fehu","Hex":"#ffcc3399","Correct":32,"Choice":32,"RT":536.8400000152178,"Accuracy":1,"Outcome":"+10","Keys":[2037.4700000102166],"TotalKeys":1,"Block":1,"Trial":76,"Robot":1,"Valence":"Win","Action":"Go","Sham":0,"Color":"yellow","trial_type":"pit-trial","trial_index":95,"time_elapsed":506766,"internal_node_id":"0.0-84.0","task_version":"test-retest-t4"},{"Rune":"rune_08_sigel","Hex":"#3366ff99","Correct":-1,"Choice":-1,"RT":-1,"Accuracy":1,"Outcome":"-1","Keys":[],"TotalKeys":0,"Block":1,"Trial":77,"Robot":4,"Valence":"Lose","Action":"No-Go","Sham":0,"Color":"blue","trial_type":"pit-trial","trial_index":96,"time_elapsed":510772,"internal_node_id":"0.0-85.0","task_version":"test-retest-t4"},{"Rune":"rune_08_mannaz","Hex":"#3366ff99","Correct":32,"Choice":32,"RT":392.69499998772517,"Accuracy":1,"Outcome":"-10","Keys":[1894.4400000036694],"TotalKeys":1,"Block":1,"Trial":78,"Robot":3,"Valence":"Lose","Action":"Go","Sham":1,"Color":"blue","trial_type":"pit-trial","trial_index":97,"time_elapsed":513670,"internal_node_id":"0.0-86.0","task_version":"test-retest-t4"},{"Rune":"rune_08_fehu","Hex":"#ffcc3399","Correct":32,"Choice":32,"RT":463.5899999993853,"Accuracy":1,"Outcome":"+1","Keys":[1963.9049999823328],"TotalKeys":1,"Block":1,"Trial":79,"Robot":1,"Valence":"Win","Action":"Go","Sham":1,"Color":"yellow","trial_type":"pit-trial","trial_index":98,"time_elapsed":516638,"internal_node_id":"0.0-87.0","task_version":"test-retest-t4"},{"Rune":"rune_08_pertho","Hex":"#ffcc3399","Correct":-1,"Choice":-1,"RT":-1,"Accuracy":1,"Outcome":"+1","Keys":[],"TotalKeys":0,"Block":1,"Trial":80,"Robot":2,"Valence":"Win","Action":"No-Go","Sham":1,"Color":"yellow","trial_type":"pit-trial","trial_index":99,"time_elapsed":520644,"internal_node_id":"0.0-88.0","task_version":"test-retest-t4"},{"Rune":"rune_08_pertho","Hex":"#ffcc3399","Correct":-1,"Choice":-1,"RT":-1,"Accuracy":1,"Outcome":"+10","Keys":[],"TotalKeys":0,"Block":1,"Trial":81,"Robot":2,"Valence":"Win","Action":"No-Go","Sham":0,"Color":"yellow","trial_type":"pit-trial","trial_index":100,"time_elapsed":524650,"internal_node_id":"0.0-89.0","task_version":"test-retest-t4"},{"Rune":"rune_08_mannaz","Hex":"#3366ff99","Correct":32,"Choice":32,"RT":507.47499999124557,"Accuracy":1,"Outcome":"-10","Keys":[2007.7049999963492],"TotalKeys":1,"Block":1,"Trial":82,"Robot":3,"Valence":"Lose","Action":"Go","Sham":1,"Color":"blue","trial_type":"pit-trial","trial_index":101,"time_elapsed":527662,"internal_node_id":"0.0-90.0","task_version":"test-retest-t4"},{"Rune":"rune_08_fehu","Hex":"#ffcc3399","Correct":32,"Choice":32,"RT":415.3500000247732,"Accuracy":1,"Outcome":"+10","Keys":[1915.7650000124704],"TotalKeys":1,"Block":1,"Trial":83,"Robot":1,"Valence":"Win","Action":"Go","Sham":0,"Color":"yellow","trial_type":"pit-trial","trial_index":102,"time_elapsed":530582,"internal_node_id":"0.0-91.0","task_version":"test-retest-t4"},{"Rune":"rune_08_sigel","Hex":"#3366ff99","Correct":-1,"Choice":32,"RT":613.4650000021793,"Accuracy":0,"Outcome":"-10","Keys":[2115.040000004228],"TotalKeys":1,"Block":1,"Trial":84,"Robot":4,"Valence":"Lose","Action":"No-Go","Sham":0,"Color":"blue","trial_type":"pit-trial","trial_index":103,"time_elapsed":533703,"internal_node_id":"0.0-92.0","task_version":"test-retest-t4"},{"Rune":"rune_08_pertho","Hex":"#ffcc3399","Correct":-1,"Choice":-1,"RT":-1,"Accuracy":1,"Outcome":"+1","Keys":[],"TotalKeys":0,"Block":1,"Trial":85,"Robot":2,"Valence":"Win","Action":"No-Go","Sham":1,"Color":"yellow","trial_type":"pit-trial","trial_index":104,"time_elapsed":537711,"internal_node_id":"0.0-93.0","task_version":"test-retest-t4"},{"Rune":"rune_08_sigel","Hex":"#3366ff99","Correct":-1,"Choice":-1,"RT":-1,"Accuracy":1,"Outcome":"-1","Keys":[],"TotalKeys":0,"Block":1,"Trial":86,"Robot":4,"Valence":"Lose","Action":"No-Go","Sham":0,"Color":"blue","trial_type":"pit-trial","trial_index":105,"time_elapsed":541716,"internal_node_id":"0.0-94.0","task_version":"test-retest-t4"},{"Rune":"rune_08_fehu","Hex":"#ffcc3399","Correct":32,"Choice":32,"RT":504.54000002355315,"Accuracy":1,"Outcome":"+1","Keys":[2005.5850000062492],"TotalKeys":1,"Block":1,"Trial":87,"Robot":1,"Valence":"Win","Action":"Go","Sham":1,"Color":"yellow","trial_type":"pit-trial","trial_index":106,"time_elapsed":544726,"internal_node_id":"0.0-95.0","task_version":"test-retest-t4"},{"Rune":"rune_08_mannaz","Hex":"#3366ff99","Correct":32,"Choice":32,"RT":621.3949999946635,"Accuracy":1,"Outcome":"-1","Keys":[2123.525000002701],"TotalKeys":1,"Block":1,"Trial":88,"Robot":3,"Valence":"Lose","Action":"Go","Sham":0,"Color":"blue","trial_type":"pit-trial","trial_index":107,"time_elapsed":547854,"internal_node_id":"0.0-96.0","task_version":"test-retest-t4"},{"Rune":"rune_08_sigel","Hex":"#3366ff99","Correct":-1,"Choice":-1,"RT":-1,"Accuracy":1,"Outcome":"-10","Keys":[],"TotalKeys":0,"Block":1,"Trial":89,"Robot":4,"Valence":"Lose","Action":"No-Go","Sham":1,"Color":"blue","trial_type":"pit-trial","trial_index":108,"time_elapsed":551860,"internal_node_id":"0.0-97.0","task_version":"test-retest-t4"},{"Rune":"rune_08_fehu","Hex":"#ffcc3399","Correct":32,"Choice":32,"RT":513.0400000198279,"Accuracy":1,"Outcome":"+10","Keys":[2014.1899999871384],"TotalKeys":1,"Block":1,"Trial":90,"Robot":1,"Valence":"Win","Action":"Go","Sham":0,"Color":"yellow","trial_type":"pit-trial","trial_index":109,"time_elapsed":554878,"internal_node_id":"0.0-98.0","task_version":"test-retest-t4"},{"Rune":"rune_08_mannaz","Hex":"#3366ff99","Correct":32,"Choice":32,"RT":637.959999992745,"Accuracy":1,"Outcome":"-1","Keys":[2139.545000012731],"TotalKeys":1,"Block":1,"Trial":91,"Robot":3,"Valence":"Lose","Action":"Go","Sham":0,"Color":"blue","trial_type":"pit-trial","trial_index":110,"time_elapsed":558021,"internal_node_id":"0.0-99.0","task_version":"test-retest-t4"},{"Rune":"rune_08_pertho","Hex":"#ffcc3399","Correct":-1,"Choice":-1,"RT":-1,"Accuracy":1,"Outcome":"+10","Keys":[],"TotalKeys":0,"Block":1,"Trial":92,"Robot":2,"Valence":"Win","Action":"No-Go","Sham":0,"Color":"yellow","trial_type":"pit-trial","trial_index":111,"time_elapsed":562026,"internal_node_id":"0.0-100.0","task_version":"test-retest-t4"},{"Rune":"rune_08_sigel","Hex":"#3366ff99","Correct":-1,"Choice":-1,"RT":-1,"Accuracy":1,"Outcome":"-1","Keys":[],"TotalKeys":0,"Block":1,"Trial":93,"Robot":4,"Valence":"Lose","Action":"No-Go","Sham":0,"Color":"blue","trial_type":"pit-trial","trial_index":112,"time_elapsed":566031,"internal_node_id":"0.0-101.0","task_version":"test-retest-t4"},{"Rune":"rune_08_fehu","Hex":"#ffcc3399","Correct":32,"Choice":32,"RT":572.5450000027195,"Accuracy":1,"Outcome":"+10","Keys":[2074.1500000003725],"TotalKeys":1,"Block":1,"Trial":94,"Robot":1,"Valence":"Win","Action":"Go","Sham":0,"Color":"yellow","trial_type":"pit-trial","trial_index":113,"time_elapsed":569111,"internal_node_id":"0.0-102.0","task_version":"test-retest-t4"},{"Rune":"rune_08_mannaz","Hex":"#3366ff99","Correct":32,"Choice":32,"RT":621.0900000005495,"Accuracy":1,"Outcome":"-1","Keys":[2122.2950000083074],"TotalKeys":1,"Block":1,"Trial":95,"Robot":3,"Valence":"Lose","Action":"Go","Sham":0,"Color":"blue","trial_type":"pit-trial","trial_index":114,"time_elapsed":572237,"internal_node_id":"0.0-103.0","task_version":"test-retest-t4"},{"Rune":"rune_08_pertho","Hex":"#ffcc3399","Correct":-1,"Choice":-1,"RT":-1,"Accuracy":1,"Outcome":"+10","Keys":[],"TotalKeys":0,"Block":1,"Trial":96,"Robot":2,"Valence":"Win","Action":"No-Go","Sham":0,"Color":"yellow","trial_type":"pit-trial","trial_index":115,"time_elapsed":576241,"internal_node_id":"0.0-104.0","task_version":"test-retest-t4"},{"Rune":"rune_08_fehu","Hex":"#ffcc3399","Correct":32,"Choice":32,"RT":682.9750000033528,"Accuracy":1,"Outcome":"+10","Keys":[2183.6550000007264],"TotalKeys":1,"Block":1,"Trial":97,"Robot":1,"Valence":"Win","Action":"Go","Sham":0,"Color":"yellow","trial_type":"pit-trial","trial_index":116,"time_elapsed":579429,"internal_node_id":"0.0-105.0","task_version":"test-retest-t4"},{"Rune":"rune_08_pertho","Hex":"#ffcc3399","Correct":-1,"Choice":-1,"RT":-1,"Accuracy":1,"Outcome":"+10","Keys":[],"TotalKeys":0,"Block":1,"Trial":98,"Robot":2,"Valence":"Win","Action":"No-Go","Sham":0,"Color":"yellow","trial_type":"pit-trial","trial_index":117,"time_elapsed":583435,"internal_node_id":"0.0-106.0","task_version":"test-retest-t4"},{"Rune":"rune_08_mannaz","Hex":"#3366ff99","Correct":32,"Choice":32,"RT":537.3749999853317,"Accuracy":1,"Outcome":"-1","Keys":[2038.0999999761116],"TotalKeys":1,"Block":1,"Trial":99,"Robot":3,"Valence":"Lose","Action":"Go","Sham":0,"Color":"blue","trial_type":"pit-trial","trial_index":118,"time_elapsed":586477,"internal_node_id":"0.0-107.0","task_version":"test-retest-t4"},{"Rune":"rune_08_sigel","Hex":"#3366ff99","Correct":-1,"Choice":-1,"RT":-1,"Accuracy":1,"Outcome":"-1","Keys":[],"TotalKeys":0,"Block":1,"Trial":100,"Robot":4,"Valence":"Lose","Action":"No-Go","Sham":0,"Color":"blue","trial_type":"pit-trial","trial_index":119,"time_elapsed":590481,"internal_node_id":"0.0-108.0","task_version":"test-retest-t4"},{"Rune":"rune_08_pertho","Hex":"#ffcc3399","Correct":-1,"Choice":-1,"RT":-1,"Accuracy":1,"Outcome":"+10","Keys":[],"TotalKeys":0,"Block":1,"Trial":101,"Robot":2,"Valence":"Win","Action":"No-Go","Sham":0,"Color":"yellow","trial_type":"pit-trial","trial_index":120,"time_elapsed":594486,"internal_node_id":"0.0-109.0","task_version":"test-retest-t4"},{"Rune":"rune_08_sigel","Hex":"#3366ff99","Correct":-1,"Choice":-1,"RT":-1,"Accuracy":1,"Outcome":"-1","Keys":[],"TotalKeys":0,"Block":1,"Trial":102,"Robot":4,"Valence":"Lose","Action":"No-Go","Sham":0,"Color":"blue","trial_type":"pit-trial","trial_index":121,"time_elapsed":598491,"internal_node_id":"0.0-110.0","task_version":"test-retest-t4"},{"Rune":"rune_08_mannaz","Hex":"#3366ff99","Correct":32,"Choice":32,"RT":625.1099999935832,"Accuracy":1,"Outcome":"-10","Keys":[2126.060000009602],"TotalKeys":1,"Block":1,"Trial":103,"Robot":3,"Valence":"Lose","Action":"Go","Sham":1,"Color":"blue","trial_type":"pit-trial","trial_index":122,"time_elapsed":601621,"internal_node_id":"0.0-111.0","task_version":"test-retest-t4"},{"Rune":"rune_08_fehu","Hex":"#ffcc3399","Correct":32,"Choice":32,"RT":911.8349999771453,"Accuracy":1,"Outcome":"+10","Keys":[2412.1650000161026],"TotalKeys":1,"Block":1,"Trial":104,"Robot":1,"Valence":"Win","Action":"Go","Sham":0,"Color":"yellow","trial_type":"pit-trial","trial_index":123,"time_elapsed":605037,"internal_node_id":"0.0-112.0","task_version":"test-retest-t4"},{"Rune":"rune_08_fehu","Hex":"#ffcc3399","Correct":32,"Choice":32,"RT":646.6050000162795,"Accuracy":1,"Outcome":"+1","Keys":[2147.465000016382],"TotalKeys":1,"Block":1,"Trial":105,"Robot":1,"Valence":"Win","Action":"Go","Sham":1,"Color":"yellow","trial_type":"pit-trial","trial_index":124,"time_elapsed":608189,"internal_node_id":"0.0-113.0","task_version":"test-retest-t4"},{"Rune":"rune_08_sigel","Hex":"#3366ff99","Correct":-1,"Choice":-1,"RT":-1,"Accuracy":1,"Outcome":"-1","Keys":[],"TotalKeys":0,"Block":1,"Trial":106,"Robot":4,"Valence":"Lose","Action":"No-Go","Sham":0,"Color":"blue","trial_type":"pit-trial","trial_index":125,"time_elapsed":612194,"internal_node_id":"0.0-114.0","task_version":"test-retest-t4"},{"Rune":"rune_08_mannaz","Hex":"#3366ff99","Correct":32,"Choice":32,"RT":680.9850000136066,"Accuracy":1,"Outcome":"-1","Keys":[2182.570000004489],"TotalKeys":1,"Block":1,"Trial":107,"Robot":3,"Valence":"Lose","Action":"Go","Sham":0,"Color":"blue","trial_type":"pit-trial","trial_index":126,"time_elapsed":615381,"internal_node_id":"0.0-115.0","task_version":"test-retest-t4"},{"Rune":"rune_08_pertho","Hex":"#ffcc3399","Correct":-1,"Choice":-1,"RT":-1,"Accuracy":1,"Outcome":"+10","Keys":[],"TotalKeys":0,"Block":1,"Trial":108,"Robot":2,"Valence":"Win","Action":"No-Go","Sham":0,"Color":"yellow","trial_type":"pit-trial","trial_index":127,"time_elapsed":619387,"internal_node_id":"0.0-116.0","task_version":"test-retest-t4"},{"Rune":"rune_08_mannaz","Hex":"#3366ff99","Correct":32,"Choice":32,"RT":808.6349999939557,"Accuracy":1,"Outcome":"-1","Keys":[2309.1000000131316],"TotalKeys":1,"Block":1,"Trial":109,"Robot":3,"Valence":"Lose","Action":"Go","Sham":0,"Color":"blue","trial_type":"pit-trial","trial_index":128,"time_elapsed":622702,"internal_node_id":"0.0-117.0","task_version":"test-retest-t4"},{"Rune":"rune_08_sigel","Hex":"#3366ff99","Correct":-1,"Choice":-1,"RT":-1,"Accuracy":1,"Outcome":"-10","Keys":[],"TotalKeys":0,"Block":1,"Trial":110,"Robot":4,"Valence":"Lose","Action":"No-Go","Sham":1,"Color":"blue","trial_type":"pit-trial","trial_index":129,"time_elapsed":626707,"internal_node_id":"0.0-118.0","task_version":"test-retest-t4"},{"Rune":"rune_08_pertho","Hex":"#ffcc3399","Correct":-1,"Choice":-1,"RT":-1,"Accuracy":1,"Outcome":"+1","Keys":[],"TotalKeys":0,"Block":1,"Trial":111,"Robot":2,"Valence":"Win","Action":"No-Go","Sham":1,"Color":"yellow","trial_type":"pit-trial","trial_index":130,"time_elapsed":630713,"internal_node_id":"0.0-119.0","task_version":"test-retest-t4"},{"Rune":"rune_08_fehu","Hex":"#ffcc3399","Correct":32,"Choice":32,"RT":730.4799999983516,"Accuracy":1,"Outcome":"+10","Keys":[2231.5750000125263],"TotalKeys":1,"Block":1,"Trial":112,"Robot":1,"Valence":"Win","Action":"Go","Sham":0,"Color":"yellow","trial_type":"pit-trial","trial_index":131,"time_elapsed":633949,"internal_node_id":"0.0-120.0","task_version":"test-retest-t4"},{"Rune":"rune_08_mannaz","Hex":"#3366ff99","Correct":32,"Choice":32,"RT":639.500000019325,"Accuracy":1,"Outcome":"-1","Keys":[2139.984999987064],"TotalKeys":1,"Block":1,"Trial":113,"Robot":3,"Valence":"Lose","Action":"Go","Sham":0,"Color":"blue","trial_type":"pit-trial","trial_index":132,"time_elapsed":637093,"internal_node_id":"0.0-121.0","task_version":"test-retest-t4"},{"Rune":"rune_08_fehu","Hex":"#ffcc3399","Correct":32,"Choice":32,"RT":495.3399999940302,"Accuracy":1,"Outcome":"+10","Keys":[1995.6949999905191],"TotalKeys":1,"Block":1,"Trial":114,"Robot":1,"Valence":"Win","Action":"Go","Sham":0,"Color":"yellow","trial_type":"pit-trial","trial_index":133,"time_elapsed":640093,"internal_node_id":"0.0-122.0","task_version":"test-retest-t4"},{"Rune":"rune_08_pertho","Hex":"#ffcc3399","Correct":-1,"Choice":-1,"RT":-1,"Accuracy":1,"Outcome":"+10","Keys":[],"TotalKeys":0,"Block":1,"Trial":115,"Robot":2,"Valence":"Win","Action":"No-Go","Sham":0,"Color":"yellow","trial_type":"pit-trial","trial_index":134,"time_elapsed":644099,"internal_node_id":"0.0-123.0","task_version":"test-retest-t4"},{"Rune":"rune_08_sigel","Hex":"#3366ff99","Correct":-1,"Choice":-1,"RT":-1,"Accuracy":1,"Outcome":"-1","Keys":[],"TotalKeys":0,"Block":1,"Trial":116,"Robot":4,"Valence":"Lose","Action":"No-Go","Sham":0,"Color":"blue","trial_type":"pit-trial","trial_index":135,"time_elapsed":648106,"internal_node_id":"0.0-124.0","task_version":"test-retest-t4"},{"Rune":"rune_08_fehu","Hex":"#ffcc3399","Correct":32,"Choice":32,"RT":585.2850000082981,"Accuracy":1,"Outcome":"+10","Keys":[2087.0400000130758],"TotalKeys":1,"Block":1,"Trial":117,"Robot":1,"Valence":"Win","Action":"Go","Sham":0,"Color":"yellow","trial_type":"pit-trial","trial_index":136,"time_elapsed":651197,"internal_node_id":"0.0-125.0","task_version":"test-retest-t4"},{"Rune":"rune_08_pertho","Hex":"#ffcc3399","Correct":-1,"Choice":-1,"RT":-1,"Accuracy":1,"Outcome":"+10","Keys":[],"TotalKeys":0,"Block":1,"Trial":118,"Robot":2,"Valence":"Win","Action":"No-Go","Sham":0,"Color":"yellow","trial_type":"pit-trial","trial_index":137,"time_elapsed":655204,"internal_node_id":"0.0-126.0","task_version":"test-retest-t4"},{"Rune":"rune_08_sigel","Hex":"#3366ff99","Correct":-1,"Choice":-1,"RT":-1,"Accuracy":1,"Outcome":"-1","Keys":[],"TotalKeys":0,"Block":1,"Trial":119,"Robot":4,"Valence":"Lose","Action":"No-Go","Sham":0,"Color":"blue","trial_type":"pit-trial","trial_index":138,"time_elapsed":659208,"internal_node_id":"0.0-127.0","task_version":"test-retest-t4"},{"Rune":"rune_08_mannaz","Hex":"#3366ff99","Correct":32,"Choice":32,"RT":571.5649999910966,"Accuracy":1,"Outcome":"-1","Keys":[2072.66500001424],"TotalKeys":1,"Block":1,"Trial":120,"Robot":3,"Valence":"Lose","Action":"Go","Sham":0,"Color":"blue","trial_type":"pit-trial","trial_index":139,"time_elapsed":662285,"internal_node_id":"0.0-128.0","task_version":"test-retest-t4"},{"view_history":"[{\"page_index\":0,\"viewing_time\":2255.2900000009686},{\"page_index\":1,\"viewing_time\":1573.789999994915},{\"page_index\":2,\"viewing_time\":1743.994999997085}]","rt":5573.624999989988,"trial_type":"pit-instructions","trial_index":140,"time_elapsed":667861,"internal_node_id":"0.0-129.0","task_version":"test-retest-t4"},{"Rune":"rune_07_laukaz","Hex":"#ffcc3399","Correct":-1,"Choice":-1,"RT":-1,"Accuracy":1,"Outcome":"+10","Keys":[],"TotalKeys":0,"Block":2,"Trial":121,"Robot":2,"Valence":"Win","Action":"No-Go","Sham":0,"Color":"yellow","trial_type":"pit-trial","trial_index":141,"time_elapsed":671868,"internal_node_id":"0.0-130.0","task_version":"test-retest-t4"},{"Rune":"rune_07_kauna","Hex":"#3366ff99","Correct":32,"Choice":-1,"RT":-1,"Accuracy":0,"Outcome":"-10","Keys":[],"TotalKeys":0,"Block":2,"Trial":122,"Robot":3,"Valence":"Lose","Action":"Go","Sham":0,"Color":"blue","trial_type":"pit-trial","trial_index":142,"time_elapsed":675875,"internal_node_id":"0.0-131.0","task_version":"test-retest-t4"},{"Rune":"rune_07_gar","Hex":"#3366ff99","Correct":-1,"Choice":-1,"RT":-1,"Accuracy":1,"Outcome":"-10","Keys":[],"TotalKeys":0,"Block":2,"Trial":123,"Robot":4,"Valence":"Lose","Action":"No-Go","Sham":1,"Color":"blue","trial_type":"pit-trial","trial_index":143,"time_elapsed":679880,"internal_node_id":"0.0-132.0","task_version":"test-retest-t4"},{"Rune":"rune_07_thurisaz","Hex":"#ffcc3399","Correct":32,"Choice":-1,"RT":-1,"Accuracy":0,"Outcome":"+1","Keys":[],"TotalKeys":0,"Block":2,"Trial":124,"Robot":1,"Valence":"Win","Action":"Go","Sham":0,"Color":"yellow","trial_type":"pit-trial","trial_index":144,"time_elapsed":683886,"internal_node_id":"0.0-133.0","task_version":"test-retest-t4"},{"Rune":"rune_07_gar","Hex":"#3366ff99","Correct":-1,"Choice":32,"RT":805.7799999951385,"Accuracy":0,"Outcome":"-10","Keys":[2306.089999998221],"TotalKeys":1,"Block":2,"Trial":125,"Robot":4,"Valence":"Lose","Action":"No-Go","Sham":0,"Color":"blue","trial_type":"pit-trial","trial_index":145,"time_elapsed":687197,"internal_node_id":"0.0-134.0","task_version":"test-retest-t4"},{"Rune":"rune_07_kauna","Hex":"#3366ff99","Correct":32,"Choice":32,"RT":686.1750000098255,"Accuracy":1,"Outcome":"-1","Keys":[2187.659999995958],"TotalKeys":1,"Block":2,"Trial":126,"Robot":3,"Valence":"Lose","Action":"Go","Sham":0,"Color":"blue","trial_type":"pit-trial","trial_index":146,"time_elapsed":690388,"internal_node_id":"0.0-135.0","task_version":"test-retest-t4"},{"Rune":"rune_07_laukaz","Hex":"#ffcc3399","Correct":-1,"Choice":32,"RT":933.9800000016112,"Accuracy":0,"Outcome":"+1","Keys":[2435.989999998128],"TotalKeys":1,"Block":2,"Trial":127,"Robot":2,"Valence":"Win","Action":"No-Go","Sham":0,"Color":"yellow","trial_type":"pit-trial","trial_index":147,"time_elapsed":693828,"internal_node_id":"0.0-136.0","task_version":"test-retest-t4"},{"Rune":"rune_07_thurisaz","Hex":"#ffcc3399","Correct":32,"Choice":32,"RT":1095.1200000126846,"Accuracy":1,"Outcome":"+10","Keys":[2595.405000000028],"TotalKeys":1,"Block":2,"Trial":128,"Robot":1,"Valence":"Win","Action":"Go","Sham":0,"Color":"yellow","trial_type":"pit-trial","trial_index":148,"time_elapsed":697428,"internal_node_id":"0.0-137.0","task_version":"test-retest-t4"},{"Rune":"rune_07_kauna","Hex":"#3366ff99","Correct":32,"Choice":-1,"RT":-1,"Accuracy":0,"Outcome":"-1","Keys":[],"TotalKeys":0,"Block":2,"Trial":129,"Robot":3,"Valence":"Lose","Action":"Go","Sham":1,"Color":"blue","trial_type":"pit-trial","trial_index":149,"time_elapsed":701434,"internal_node_id":"0.0-138.0","task_version":"test-retest-t4"},{"Rune":"rune_07_gar","Hex":"#3366ff99","Correct":-1,"Choice":-1,"RT":-1,"Accuracy":1,"Outcome":"-1","Keys":[],"TotalKeys":0,"Block":2,"Trial":130,"Robot":4,"Valence":"Lose","Action":"No-Go","Sham":0,"Color":"blue","trial_type":"pit-trial","trial_index":150,"time_elapsed":705438,"internal_node_id":"0.0-139.0","task_version":"test-retest-t4"},{"Rune":"rune_07_thurisaz","Hex":"#ffcc3399","Correct":32,"Choice":-1,"RT":-1,"Accuracy":0,"Outcome":"+1","Keys":[],"TotalKeys":0,"Block":2,"Trial":131,"Robot":1,"Valence":"Win","Action":"Go","Sham":0,"Color":"yellow","trial_type":"pit-trial","trial_index":151,"time_elapsed":709443,"internal_node_id":"0.0-140.0","task_version":"test-retest-t4"},{"Rune":"rune_07_laukaz","Hex":"#ffcc3399","Correct":-1,"Choice":-1,"RT":-1,"Accuracy":1,"Outcome":"+10","Keys":[],"TotalKeys":0,"Block":2,"Trial":132,"Robot":2,"Valence":"Win","Action":"No-Go","Sham":0,"Color":"yellow","trial_type":"pit-trial","trial_index":152,"time_elapsed":713447,"internal_node_id":"0.0-141.0","task_version":"test-retest-t4"},{"Rune":"rune_07_laukaz","Hex":"#ffcc3399","Correct":-1,"Choice":-1,"RT":-1,"Accuracy":1,"Outcome":"+10","Keys":[],"TotalKeys":0,"Block":2,"Trial":133,"Robot":2,"Valence":"Win","Action":"No-Go","Sham":0,"Color":"yellow","trial_type":"pit-trial","trial_index":153,"time_elapsed":717452,"internal_node_id":"0.0-142.0","task_version":"test-retest-t4"},{"Rune":"rune_07_thurisaz","Hex":"#ffcc3399","Correct":32,"Choice":32,"RT":662.9449999891222,"Accuracy":1,"Outcome":"+10","Keys":[2163.394999981392],"TotalKeys":1,"Block":2,"Trial":134,"Robot":1,"Valence":"Win","Action":"Go","Sham":0,"Color":"yellow","trial_type":"pit-trial","trial_index":154,"time_elapsed":720619,"internal_node_id":"0.0-143.0","task_version":"test-retest-t4"},{"Rune":"rune_07_kauna","Hex":"#3366ff99","Correct":32,"Choice":-1,"RT":-1,"Accuracy":0,"Outcome":"-10","Keys":[],"TotalKeys":0,"Block":2,"Trial":135,"Robot":3,"Valence":"Lose","Action":"Go","Sham":0,"Color":"blue","trial_type":"pit-trial","trial_index":155,"time_elapsed":724624,"internal_node_id":"0.0-144.0","task_version":"test-retest-t4"},{"Rune":"rune_07_gar","Hex":"#3366ff99","Correct":-1,"Choice":-1,"RT":-1,"Accuracy":1,"Outcome":"-1","Keys":[],"TotalKeys":0,"Block":2,"Trial":136,"Robot":4,"Valence":"Lose","Action":"No-Go","Sham":0,"Color":"blue","trial_type":"pit-trial","trial_index":156,"time_elapsed":728629,"internal_node_id":"0.0-145.0","task_version":"test-retest-t4"},{"Rune":"rune_07_laukaz","Hex":"#ffcc3399","Correct":-1,"Choice":-1,"RT":-1,"Accuracy":1,"Outcome":"+1","Keys":[],"TotalKeys":0,"Block":2,"Trial":137,"Robot":2,"Valence":"Win","Action":"No-Go","Sham":1,"Color":"yellow","trial_type":"pit-trial","trial_index":157,"time_elapsed":732634,"internal_node_id":"0.0-146.0","task_version":"test-retest-t4"},{"Rune":"rune_07_gar","Hex":"#3366ff99","Correct":-1,"Choice":32,"RT":623.77999999444,"Accuracy":0,"Outcome":"-10","Keys":[2125.5749999836553],"TotalKeys":1,"Block":2,"Trial":138,"Robot":4,"Valence":"Lose","Action":"No-Go","Sham":0,"Color":"blue","trial_type":"pit-trial","trial_index":158,"time_elapsed":735763,"internal_node_id":"0.0-147.0","task_version":"test-retest-t4"},{"Rune":"rune_07_thurisaz","Hex":"#ffcc3399","Correct":32,"Choice":32,"RT":711.2699999997858,"Accuracy":1,"Outcome":"+1","Keys":[2211.8550000013784],"TotalKeys":1,"Block":2,"Trial":139,"Robot":1,"Valence":"Win","Action":"Go","Sham":1,"Color":"yellow","trial_type":"pit-trial","trial_index":159,"time_elapsed":738979,"internal_node_id":"0.0-148.0","task_version":"test-retest-t4"},{"Rune":"rune_07_kauna","Hex":"#3366ff99","Correct":32,"Choice":-1,"RT":-1,"Accuracy":0,"Outcome":"-10","Keys":[],"TotalKeys":0,"Block":2,"Trial":140,"Robot":3,"Valence":"Lose","Action":"Go","Sham":0,"Color":"blue","trial_type":"pit-trial","trial_index":160,"time_elapsed":742985,"internal_node_id":"0.0-149.0","task_version":"test-retest-t4"},{"Rune":"rune_07_thurisaz","Hex":"#ffcc3399","Correct":32,"Choice":32,"RT":831.9100000080653,"Accuracy":1,"Outcome":"+10","Keys":[2333.9450000203215],"TotalKeys":1,"Block":2,"Trial":141,"Robot":1,"Valence":"Win","Action":"Go","Sham":0,"Color":"yellow","trial_type":"pit-trial","trial_index":161,"time_elapsed":746324,"internal_node_id":"0.0-150.0","task_version":"test-retest-t4"},{"Rune":"rune_07_gar","Hex":"#3366ff99","Correct":-1,"Choice":-1,"RT":-1,"Accuracy":1,"Outcome":"-1","Keys":[],"TotalKeys":0,"Block":2,"Trial":142,"Robot":4,"Valence":"Lose","Action":"No-Go","Sham":0,"Color":"blue","trial_type":"pit-trial","trial_index":162,"time_elapsed":750330,"internal_node_id":"0.0-151.0","task_version":"test-retest-t4"},{"Rune":"rune_07_kauna","Hex":"#3366ff99","Correct":32,"Choice":-1,"RT":-1,"Accuracy":0,"Outcome":"-10","Keys":[],"TotalKeys":0,"Block":2,"Trial":143,"Robot":3,"Valence":"Lose","Action":"Go","Sham":0,"Color":"blue","trial_type":"pit-trial","trial_index":163,"time_elapsed":754334,"internal_node_id":"0.0-152.0","task_version":"test-retest-t4"},{"Rune":"rune_07_laukaz","Hex":"#ffcc3399","Correct":-1,"Choice":-1,"RT":-1,"Accuracy":1,"Outcome":"+10","Keys":[],"TotalKeys":0,"Block":2,"Trial":144,"Robot":2,"Valence":"Win","Action":"No-Go","Sham":0,"Color":"yellow","trial_type":"pit-trial","trial_index":164,"time_elapsed":758340,"internal_node_id":"0.0-153.0","task_version":"test-retest-t4"},{"Rune":"rune_07_gar","Hex":"#3366ff99","Correct":-1,"Choice":-1,"RT":-1,"Accuracy":1,"Outcome":"-1","Keys":[],"TotalKeys":0,"Block":2,"Trial":145,"Robot":4,"Valence":"Lose","Action":"No-Go","Sham":0,"Color":"blue","trial_type":"pit-trial","trial_index":165,"time_elapsed":762346,"internal_node_id":"0.0-154.0","task_version":"test-retest-t4"},{"Rune":"rune_07_laukaz","Hex":"#ffcc3399","Correct":-1,"Choice":-1,"RT":-1,"Accuracy":1,"Outcome":"+1","Keys":[],"TotalKeys":0,"Block":2,"Trial":146,"Robot":2,"Valence":"Win","Action":"No-Go","Sham":1,"Color":"yellow","trial_type":"pit-trial","trial_index":166,"time_elapsed":766351,"internal_node_id":"0.0-155.0","task_version":"test-retest-t4"},{"Rune":"rune_07_kauna","Hex":"#3366ff99","Correct":32,"Choice":32,"RT":988.115000014659,"Accuracy":1,"Outcome":"-1","Keys":[2488.995000021532],"TotalKeys":1,"Block":2,"Trial":147,"Robot":3,"Valence":"Lose","Action":"Go","Sham":0,"Color":"blue","trial_type":"pit-trial","trial_index":167,"time_elapsed":769844,"internal_node_id":"0.0-156.0","task_version":"test-retest-t4"},{"Rune":"rune_07_thurisaz","Hex":"#ffcc3399","Correct":32,"Choice":32,"RT":683.1550000060815,"Accuracy":1,"Outcome":"+10","Keys":[2186.905000009574],"TotalKeys":1,"Block":2,"Trial":148,"Robot":1,"Valence":"Win","Action":"Go","Sham":0,"Color":"yellow","trial_type":"pit-trial","trial_index":168,"time_elapsed":773035,"internal_node_id":"0.0-157.0","task_version":"test-retest-t4"},{"Rune":"rune_07_kauna","Hex":"#3366ff99","Correct":32,"Choice":32,"RT":623.4600000025239,"Accuracy":1,"Outcome":"-1","Keys":[2124.1200000222307],"TotalKeys":1,"Block":2,"Trial":149,"Robot":3,"Valence":"Lose","Action":"Go","Sham":0,"Color":"blue","trial_type":"pit-trial","trial_index":169,"time_elapsed":776163,"internal_node_id":"0.0-158.0","task_version":"test-retest-t4"},{"Rune":"rune_07_laukaz","Hex":"#ffcc3399","Correct":-1,"Choice":-1,"RT":-1,"Accuracy":1,"Outcome":"+10","Keys":[],"TotalKeys":0,"Block":2,"Trial":150,"Robot":2,"Valence":"Win","Action":"No-Go","Sham":0,"Color":"yellow","trial_type":"pit-trial","trial_index":170,"time_elapsed":780168,"internal_node_id":"0.0-159.0","task_version":"test-retest-t4"},{"Rune":"rune_07_gar","Hex":"#3366ff99","Correct":-1,"Choice":-1,"RT":-1,"Accuracy":1,"Outcome":"-1","Keys":[],"TotalKeys":0,"Block":2,"Trial":151,"Robot":4,"Valence":"Lose","Action":"No-Go","Sham":0,"Color":"blue","trial_type":"pit-trial","trial_index":171,"time_elapsed":784175,"internal_node_id":"0.0-160.0","task_version":"test-retest-t4"},{"Rune":"rune_07_thurisaz","Hex":"#ffcc3399","Correct":32,"Choice":32,"RT":523.1349999958184,"Accuracy":1,"Outcome":"+10","Keys":[2024.794999975711],"TotalKeys":1,"Block":2,"Trial":152,"Robot":1,"Valence":"Win","Action":"Go","Sham":0,"Color":"yellow","trial_type":"pit-trial","trial_index":172,"time_elapsed":787204,"internal_node_id":"0.0-161.0","task_version":"test-retest-t4"},{"Rune":"rune_07_thurisaz","Hex":"#ffcc3399","Correct":32,"Choice":32,"RT":589.6599999978207,"Accuracy":1,"Outcome":"+1","Keys":[2091.499999980442],"TotalKeys":1,"Block":2,"Trial":153,"Robot":1,"Valence":"Win","Action":"Go","Sham":1,"Color":"yellow","trial_type":"pit-trial","trial_index":173,"time_elapsed":790299,"internal_node_id":"0.0-162.0","task_version":"test-retest-t4"},{"Rune":"rune_07_gar","Hex":"#3366ff99","Correct":-1,"Choice":-1,"RT":-1,"Accuracy":1,"Outcome":"-10","Keys":[],"TotalKeys":0,"Block":2,"Trial":154,"Robot":4,"Valence":"Lose","Action":"No-Go","Sham":1,"Color":"blue","trial_type":"pit-trial","trial_index":174,"time_elapsed":794305,"internal_node_id":"0.0-163.0","task_version":"test-retest-t4"},{"Rune":"rune_07_kauna","Hex":"#3366ff99","Correct":32,"Choice":32,"RT":542.9650000005495,"Accuracy":1,"Outcome":"-1","Keys":[2046.0299999976996],"TotalKeys":1,"Block":2,"Trial":155,"Robot":3,"Valence":"Lose","Action":"Go","Sham":0,"Color":"blue","trial_type":"pit-trial","trial_index":175,"time_elapsed":797355,"internal_node_id":"0.0-164.0","task_version":"test-retest-t4"},{"Rune":"rune_07_laukaz","Hex":"#ffcc3399","Correct":-1,"Choice":-1,"RT":-1,"Accuracy":1,"Outcome":"+10","Keys":[],"TotalKeys":0,"Block":2,"Trial":156,"Robot":2,"Valence":"Win","Action":"No-Go","Sham":0,"Color":"yellow","trial_type":"pit-trial","trial_index":176,"time_elapsed":801361,"internal_node_id":"0.0-165.0","task_version":"test-retest-t4"},{"Rune":"rune_07_gar","Hex":"#3366ff99","Correct":-1,"Choice":-1,"RT":-1,"Accuracy":1,"Outcome":"-1","Keys":[],"TotalKeys":0,"Block":2,"Trial":157,"Robot":4,"Valence":"Lose","Action":"No-Go","Sham":0,"Color":"blue","trial_type":"pit-trial","trial_index":177,"time_elapsed":805368,"internal_node_id":"0.0-166.0","task_version":"test-retest-t4"},{"Rune":"rune_07_thurisaz","Hex":"#ffcc3399","Correct":32,"Choice":32,"RT":523.4599999967031,"Accuracy":1,"Outcome":"+10","Keys":[2023.5049999901094],"TotalKeys":1,"Block":2,"Trial":158,"Robot":1,"Valence":"Win","Action":"Go","Sham":0,"Color":"yellow","trial_type":"pit-trial","trial_index":178,"time_elapsed":808396,"internal_node_id":"0.0-167.0","task_version":"test-retest-t4"},{"Rune":"rune_07_laukaz","Hex":"#ffcc3399","Correct":-1,"Choice":32,"RT":861.1500000115484,"Accuracy":0,"Outcome":"+1","Keys":[2362.3049999878276],"TotalKeys":1,"Block":2,"Trial":159,"Robot":2,"Valence":"Win","Action":"No-Go","Sham":0,"Color":"yellow","trial_type":"pit-trial","trial_index":179,"time_elapsed":811764,"internal_node_id":"0.0-168.0","task_version":"test-retest-t4"},{"Rune":"rune_07_kauna","Hex":"#3366ff99","Correct":32,"Choice":32,"RT":822.7650000189897,"Accuracy":1,"Outcome":"-10","Keys":[2322.9949999949895],"TotalKeys":1,"Block":2,"Trial":160,"Robot":3,"Valence":"Lose","Action":"Go","Sham":1,"Color":"blue","trial_type":"pit-trial","trial_index":180,"time_elapsed":815091,"internal_node_id":"0.0-169.0","task_version":"test-retest-t4"},{"Rune":"rune_07_thurisaz","Hex":"#ffcc3399","Correct":32,"Choice":32,"RT":502.06500000786036,"Accuracy":1,"Outcome":"+10","Keys":[2003.645000018878],"TotalKeys":1,"Block":2,"Trial":161,"Robot":1,"Valence":"Win","Action":"Go","Sham":0,"Color":"yellow","trial_type":"pit-trial","trial_index":181,"time_elapsed":818098,"internal_node_id":"0.0-170.0","task_version":"test-retest-t4"},{"Rune":"rune_07_gar","Hex":"#3366ff99","Correct":-1,"Choice":-1,"RT":-1,"Accuracy":1,"Outcome":"-10","Keys":[],"TotalKeys":0,"Block":2,"Trial":162,"Robot":4,"Valence":"Lose","Action":"No-Go","Sham":1,"Color":"blue","trial_type":"pit-trial","trial_index":182,"time_elapsed":822104,"internal_node_id":"0.0-171.0","task_version":"test-retest-t4"},{"Rune":"rune_07_kauna","Hex":"#3366ff99","Correct":32,"Choice":32,"RT":456.76000000094064,"Accuracy":1,"Outcome":"-1","Keys":[1958.4150000009686],"TotalKeys":1,"Block":2,"Trial":163,"Robot":3,"Valence":"Lose","Action":"Go","Sham":0,"Color":"blue","trial_type":"pit-trial","trial_index":183,"time_elapsed":825067,"internal_node_id":"0.0-172.0","task_version":"test-retest-t4"},{"Rune":"rune_07_laukaz","Hex":"#ffcc3399","Correct":-1,"Choice":-1,"RT":-1,"Accuracy":1,"Outcome":"+10","Keys":[],"TotalKeys":0,"Block":2,"Trial":164,"Robot":2,"Valence":"Win","Action":"No-Go","Sham":0,"Color":"yellow","trial_type":"pit-trial","trial_index":184,"time_elapsed":829072,"internal_node_id":"0.0-173.0","task_version":"test-retest-t4"},{"Rune":"rune_07_thurisaz","Hex":"#ffcc3399","Correct":32,"Choice":32,"RT":1089.2250000033528,"Accuracy":1,"Outcome":"+10","Keys":[2590.600000025006],"TotalKeys":1,"Block":2,"Trial":165,"Robot":1,"Valence":"Win","Action":"Go","Sham":0,"Color":"yellow","trial_type":"pit-trial","trial_index":185,"time_elapsed":832666,"internal_node_id":"0.0-174.0","task_version":"test-retest-t4"},{"Rune":"rune_07_laukaz","Hex":"#ffcc3399","Correct":-1,"Choice":-1,"RT":-1,"Accuracy":1,"Outcome":"+10","Keys":[],"TotalKeys":0,"Block":2,"Trial":166,"Robot":2,"Valence":"Win","Action":"No-Go","Sham":0,"Color":"yellow","trial_type":"pit-trial","trial_index":186,"time_elapsed":836671,"internal_node_id":"0.0-175.0","task_version":"test-retest-t4"},{"Rune":"rune_07_gar","Hex":"#3366ff99","Correct":-1,"Choice":-1,"RT":-1,"Accuracy":1,"Outcome":"-1","Keys":[],"TotalKeys":0,"Block":2,"Trial":167,"Robot":4,"Valence":"Lose","Action":"No-Go","Sham":0,"Color":"blue","trial_type":"pit-trial","trial_index":187,"time_elapsed":840676,"internal_node_id":"0.0-176.0","task_version":"test-retest-t4"},{"Rune":"rune_07_kauna","Hex":"#3366ff99","Correct":32,"Choice":32,"RT":667.9000000003725,"Accuracy":1,"Outcome":"-1","Keys":[2170.299999997951],"TotalKeys":1,"Block":2,"Trial":168,"Robot":3,"Valence":"Lose","Action":"Go","Sham":0,"Color":"blue","trial_type":"pit-trial","trial_index":188,"time_elapsed":843851,"internal_node_id":"0.0-177.0","task_version":"test-retest-t4"},{"Rune":"rune_07_kauna","Hex":"#3366ff99","Correct":32,"Choice":32,"RT":414.5600000047125,"Accuracy":1,"Outcome":"-10","Keys":[1915.1899999997113],"TotalKeys":1,"Block":2,"Trial":169,"Robot":3,"Valence":"Lose","Action":"Go","Sham":1,"Color":"blue","trial_type":"pit-trial","trial_index":189,"time_elapsed":846770,"internal_node_id":"0.0-178.0","task_version":"test-retest-t4"},{"Rune":"rune_07_laukaz","Hex":"#ffcc3399","Correct":-1,"Choice":-1,"RT":-1,"Accuracy":1,"Outcome":"+10","Keys":[],"TotalKeys":0,"Block":2,"Trial":170,"Robot":2,"Valence":"Win","Action":"No-Go","Sham":0,"Color":"yellow","trial_type":"pit-trial","trial_index":190,"time_elapsed":850774,"internal_node_id":"0.0-179.0","task_version":"test-retest-t4"},{"Rune":"rune_07_gar","Hex":"#3366ff99","Correct":-1,"Choice":-1,"RT":-1,"Accuracy":1,"Outcome":"-1","Keys":[],"TotalKeys":0,"Block":2,"Trial":171,"Robot":4,"Valence":"Lose","Action":"No-Go","Sham":0,"Color":"blue","trial_type":"pit-trial","trial_index":191,"time_elapsed":854782,"internal_node_id":"0.0-180.0","task_version":"test-retest-t4"},{"Rune":"rune_07_thurisaz","Hex":"#ffcc3399","Correct":32,"Choice":32,"RT":588.3350000076462,"Accuracy":1,"Outcome":"+1","Keys":[2088.580000010552],"TotalKeys":1,"Block":2,"Trial":172,"Robot":1,"Valence":"Win","Action":"Go","Sham":1,"Color":"yellow","trial_type":"pit-trial","trial_index":192,"time_elapsed":857874,"internal_node_id":"0.0-181.0","task_version":"test-retest-t4"},{"Rune":"rune_07_thurisaz","Hex":"#ffcc3399","Correct":32,"Choice":-1,"RT":-1,"Accuracy":0,"Outcome":"+1","Keys":[],"TotalKeys":0,"Block":2,"Trial":173,"Robot":1,"Valence":"Win","Action":"Go","Sham":0,"Color":"yellow","trial_type":"pit-trial","trial_index":193,"time_elapsed":861879,"internal_node_id":"0.0-182.0","task_version":"test-retest-t4"},{"Rune":"rune_07_kauna","Hex":"#3366ff99","Correct":32,"Choice":32,"RT":627.249999990454,"Accuracy":1,"Outcome":"-1","Keys":[2127.4499999999534],"TotalKeys":1,"Block":2,"Trial":174,"Robot":3,"Valence":"Lose","Action":"Go","Sham":0,"Color":"blue","trial_type":"pit-trial","trial_index":194,"time_elapsed":865010,"internal_node_id":"0.0-183.0","task_version":"test-retest-t4"},{"Rune":"rune_07_gar","Hex":"#3366ff99","Correct":-1,"Choice":-1,"RT":-1,"Accuracy":1,"Outcome":"-1","Keys":[],"TotalKeys":0,"Block":2,"Trial":175,"Robot":4,"Valence":"Lose","Action":"No-Go","Sham":0,"Color":"blue","trial_type":"pit-trial","trial_index":195,"time_elapsed":869015,"internal_node_id":"0.0-184.0","task_version":"test-retest-t4"},{"Rune":"rune_07_laukaz","Hex":"#ffcc3399","Correct":-1,"Choice":-1,"RT":-1,"Accuracy":1,"Outcome":"+1","Keys":[],"TotalKeys":0,"Block":2,"Trial":176,"Robot":2,"Valence":"Win","Action":"No-Go","Sham":1,"Color":"yellow","trial_type":"pit-trial","trial_index":196,"time_elapsed":873020,"internal_node_id":"0.0-185.0","task_version":"test-retest-t4"},{"Rune":"rune_07_gar","Hex":"#3366ff99","Correct":-1,"Choice":-1,"RT":-1,"Accuracy":1,"Outcome":"-1","Keys":[],"TotalKeys":0,"Block":2,"Trial":177,"Robot":4,"Valence":"Lose","Action":"No-Go","Sham":0,"Color":"blue","trial_type":"pit-trial","trial_index":197,"time_elapsed":877027,"internal_node_id":"0.0-186.0","task_version":"test-retest-t4"},{"Rune":"rune_07_laukaz","Hex":"#ffcc3399","Correct":-1,"Choice":-1,"RT":-1,"Accuracy":1,"Outcome":"+10","Keys":[],"TotalKeys":0,"Block":2,"Trial":178,"Robot":2,"Valence":"Win","Action":"No-Go","Sham":0,"Color":"yellow","trial_type":"pit-trial","trial_index":198,"time_elapsed":881031,"internal_node_id":"0.0-187.0","task_version":"test-retest-t4"},{"Rune":"rune_07_kauna","Hex":"#3366ff99","Correct":32,"Choice":32,"RT":570.305000001099,"Accuracy":1,"Outcome":"-1","Keys":[2071.0300000209827],"TotalKeys":1,"Block":2,"Trial":179,"Robot":3,"Valence":"Lose","Action":"Go","Sham":0,"Color":"blue","trial_type":"pit-trial","trial_index":199,"time_elapsed":884107,"internal_node_id":"0.0-188.0","task_version":"test-retest-t4"},{"Rune":"rune_07_thurisaz","Hex":"#ffcc3399","Correct":32,"Choice":32,"RT":710.0349999964237,"Accuracy":1,"Outcome":"+10","Keys":[2211.460000020452],"TotalKeys":1,"Block":2,"Trial":180,"Robot":1,"Valence":"Win","Action":"Go","Sham":0,"Color":"yellow","trial_type":"pit-trial","trial_index":200,"time_elapsed":887323,"internal_node_id":"0.0-189.0","task_version":"test-retest-t4"},{"view_history":"[{\"page_index\":0,\"viewing_time\":5664.939999987837},{\"page_index\":1,\"viewing_time\":1356.8599999998696}]","rt":7022.375000000466,"trial_type":"pit-instructions","trial_index":201,"time_elapsed":894348,"internal_node_id":"0.0-190.0","task_version":"test-retest-t4"},{"Rune":"rune_07_laukaz","Hex":"#ffcc3399","Correct":-1,"Choice":-1,"RT":-1,"Accuracy":1,"Outcome":"+10","Keys":[],"TotalKeys":0,"Block":2,"Trial":181,"Robot":2,"Valence":"Win","Action":"No-Go","Sham":0,"Color":"yellow","trial_type":"pit-trial","trial_index":202,"time_elapsed":898356,"internal_node_id":"0.0-191.0","task_version":"test-retest-t4"},{"Rune":"rune_07_kauna","Hex":"#3366ff99","Correct":32,"Choice":32,"RT":533.3800000080373,"Accuracy":1,"Outcome":"-1","Keys":[2034.4249999907333],"TotalKeys":1,"Block":2,"Trial":182,"Robot":3,"Valence":"Lose","Action":"Go","Sham":0,"Color":"blue","trial_type":"pit-trial","trial_index":203,"time_elapsed":901395,"internal_node_id":"0.0-192.0","task_version":"test-retest-t4"},{"Rune":"rune_07_gar","Hex":"#3366ff99","Correct":-1,"Choice":-1,"RT":-1,"Accuracy":1,"Outcome":"-1","Keys":[],"TotalKeys":0,"Block":2,"Trial":183,"Robot":4,"Valence":"Lose","Action":"No-Go","Sham":0,"Color":"blue","trial_type":"pit-trial","trial_index":204,"time_elapsed":905400,"internal_node_id":"0.0-193.0","task_version":"test-retest-t4"},{"Rune":"rune_07_thurisaz","Hex":"#ffcc3399","Correct":32,"Choice":32,"RT":722.3999999987427,"Accuracy":1,"Outcome":"+10","Keys":[2222.6249999948777],"TotalKeys":1,"Block":2,"Trial":184,"Robot":1,"Valence":"Win","Action":"Go","Sham":0,"Color":"yellow","trial_type":"pit-trial","trial_index":205,"time_elapsed":908627,"internal_node_id":"0.0-194.0","task_version":"test-retest-t4"},{"Rune":"rune_07_thurisaz","Hex":"#ffcc3399","Correct":32,"Choice":32,"RT":406.11000001081266,"Accuracy":1,"Outcome":"+10","Keys":[1906.7949999880511],"TotalKeys":1,"Block":2,"Trial":185,"Robot":1,"Valence":"Win","Action":"Go","Sham":0,"Color":"yellow","trial_type":"pit-trial","trial_index":206,"time_elapsed":911538,"internal_node_id":"0.0-195.0","task_version":"test-retest-t4"},{"Rune":"rune_07_laukaz","Hex":"#ffcc3399","Correct":-1,"Choice":-1,"RT":-1,"Accuracy":1,"Outcome":"+10","Keys":[],"TotalKeys":0,"Block":2,"Trial":186,"Robot":2,"Valence":"Win","Action":"No-Go","Sham":0,"Color":"yellow","trial_type":"pit-trial","trial_index":207,"time_elapsed":915544,"internal_node_id":"0.0-196.0","task_version":"test-retest-t4"},{"Rune":"rune_07_kauna","Hex":"#3366ff99","Correct":32,"Choice":32,"RT":504.21000001369976,"Accuracy":1,"Outcome":"-1","Keys":[2005.7850000157487],"TotalKeys":1,"Block":2,"Trial":187,"Robot":3,"Valence":"Lose","Action":"Go","Sham":0,"Color":"blue","trial_type":"pit-trial","trial_index":208,"time_elapsed":918554,"internal_node_id":"0.0-197.0","task_version":"test-retest-t4"},{"Rune":"rune_07_gar","Hex":"#3366ff99","Correct":-1,"Choice":-1,"RT":-1,"Accuracy":1,"Outcome":"-1","Keys":[],"TotalKeys":0,"Block":2,"Trial":188,"Robot":4,"Valence":"Lose","Action":"No-Go","Sham":0,"Color":"blue","trial_type":"pit-trial","trial_index":209,"time_elapsed":922560,"internal_node_id":"0.0-198.0","task_version":"test-retest-t4"},{"Rune":"rune_07_gar","Hex":"#3366ff99","Correct":-1,"Choice":-1,"RT":-1,"Accuracy":1,"Outcome":"-10","Keys":[],"TotalKeys":0,"Block":2,"Trial":189,"Robot":4,"Valence":"Lose","Action":"No-Go","Sham":1,"Color":"blue","trial_type":"pit-trial","trial_index":210,"time_elapsed":926565,"internal_node_id":"0.0-199.0","task_version":"test-retest-t4"},{"Rune":"rune_07_laukaz","Hex":"#ffcc3399","Correct":-1,"Choice":-1,"RT":-1,"Accuracy":1,"Outcome":"+10","Keys":[],"TotalKeys":0,"Block":2,"Trial":190,"Robot":2,"Valence":"Win","Action":"No-Go","Sham":0,"Color":"yellow","trial_type":"pit-trial","trial_index":211,"time_elapsed":930569,"internal_node_id":"0.0-200.0","task_version":"test-retest-t4"},{"Rune":"rune_07_kauna","Hex":"#3366ff99","Correct":32,"Choice":32,"RT":616.5900000196416,"Accuracy":1,"Outcome":"-1","Keys":[2116.7850000201724],"TotalKeys":1,"Block":2,"Trial":191,"Robot":3,"Valence":"Lose","Action":"Go","Sham":0,"Color":"blue","trial_type":"pit-trial","trial_index":212,"time_elapsed":933690,"internal_node_id":"0.0-201.0","task_version":"test-retest-t4"},{"Rune":"rune_07_thurisaz","Hex":"#ffcc3399","Correct":32,"Choice":32,"RT":621.1750000074971,"Accuracy":1,"Outcome":"+10","Keys":[2122.800000011921],"TotalKeys":1,"Block":2,"Trial":192,"Robot":1,"Valence":"Win","Action":"Go","Sham":0,"Color":"yellow","trial_type":"pit-trial","trial_index":213,"time_elapsed":936819,"internal_node_id":"0.0-202.0","task_version":"test-retest-t4"},{"Rune":"rune_07_thurisaz","Hex":"#ffcc3399","Correct":32,"Choice":32,"RT":460.72499998263083,"Accuracy":1,"Outcome":"+10","Keys":[1962.3399999982212],"TotalKeys":1,"Block":2,"Trial":193,"Robot":1,"Valence":"Win","Action":"Go","Sham":0,"Color":"yellow","trial_type":"pit-trial","trial_index":214,"time_elapsed":939785,"internal_node_id":"0.0-203.0","task_version":"test-retest-t4"},{"Rune":"rune_07_laukaz","Hex":"#ffcc3399","Correct":-1,"Choice":-1,"RT":-1,"Accuracy":1,"Outcome":"+10","Keys":[],"TotalKeys":0,"Block":2,"Trial":194,"Robot":2,"Valence":"Win","Action":"No-Go","Sham":0,"Color":"yellow","trial_type":"pit-trial","trial_index":215,"time_elapsed":943790,"internal_node_id":"0.0-204.0","task_version":"test-retest-t4"},{"Rune":"rune_07_gar","Hex":"#3366ff99","Correct":-1,"Choice":-1,"RT":-1,"Accuracy":1,"Outcome":"-1","Keys":[],"TotalKeys":0,"Block":2,"Trial":195,"Robot":4,"Valence":"Lose","Action":"No-Go","Sham":0,"Color":"blue","trial_type":"pit-trial","trial_index":216,"time_elapsed":947796,"internal_node_id":"0.0-205.0","task_version":"test-retest-t4"},{"Rune":"rune_07_kauna","Hex":"#3366ff99","Correct":32,"Choice":32,"RT":548.754999996163,"Accuracy":1,"Outcome":"-1","Keys":[2049.254999990808],"TotalKeys":1,"Block":2,"Trial":196,"Robot":3,"Valence":"Lose","Action":"Go","Sham":0,"Color":"blue","trial_type":"pit-trial","trial_index":217,"time_elapsed":950850,"internal_node_id":"0.0-206.0","task_version":"test-retest-t4"},{"Rune":"rune_07_kauna","Hex":"#3366ff99","Correct":32,"Choice":32,"RT":487.1500000008382,"Accuracy":1,"Outcome":"-10","Keys":[1987.4350000172853],"TotalKeys":1,"Block":2,"Trial":197,"Robot":3,"Valence":"Lose","Action":"Go","Sham":1,"Color":"blue","trial_type":"pit-trial","trial_index":218,"time_elapsed":953842,"internal_node_id":"0.0-207.0","task_version":"test-retest-t4"},{"Rune":"rune_07_laukaz","Hex":"#ffcc3399","Correct":-1,"Choice":-1,"RT":-1,"Accuracy":1,"Outcome":"+1","Keys":[],"TotalKeys":0,"Block":2,"Trial":198,"Robot":2,"Valence":"Win","Action":"No-Go","Sham":1,"Color":"yellow","trial_type":"pit-trial","trial_index":219,"time_elapsed":957846,"internal_node_id":"0.0-208.0","task_version":"test-retest-t4"},{"Rune":"rune_07_gar","Hex":"#3366ff99","Correct":-1,"Choice":-1,"RT":-1,"Accuracy":1,"Outcome":"-1","Keys":[],"TotalKeys":0,"Block":2,"Trial":199,"Robot":4,"Valence":"Lose","Action":"No-Go","Sham":0,"Color":"blue","trial_type":"pit-trial","trial_index":220,"time_elapsed":961852,"internal_node_id":"0.0-209.0","task_version":"test-retest-t4"},{"Rune":"rune_07_thurisaz","Hex":"#ffcc3399","Correct":32,"Choice":32,"RT":540.4749999870546,"Accuracy":1,"Outcome":"+1","Keys":[2040.7799999811687],"TotalKeys":1,"Block":2,"Trial":200,"Robot":1,"Valence":"Win","Action":"Go","Sham":1,"Color":"yellow","trial_type":"pit-trial","trial_index":221,"time_elapsed":964897,"internal_node_id":"0.0-210.0","task_version":"test-retest-t4"},{"Rune":"rune_07_kauna","Hex":"#3366ff99","Correct":32,"Choice":32,"RT":551.5899999882095,"Accuracy":1,"Outcome":"-10","Keys":[2052.2650000057183],"TotalKeys":1,"Block":2,"Trial":201,"Robot":3,"Valence":"Lose","Action":"Go","Sham":1,"Color":"blue","trial_type":"pit-trial","trial_index":222,"time_elapsed":967954,"internal_node_id":"0.0-211.0","task_version":"test-retest-t4"},{"Rune":"rune_07_gar","Hex":"#3366ff99","Correct":-1,"Choice":-1,"RT":-1,"Accuracy":1,"Outcome":"-1","Keys":[],"TotalKeys":0,"Block":2,"Trial":202,"Robot":4,"Valence":"Lose","Action":"No-Go","Sham":0,"Color":"blue","trial_type":"pit-trial","trial_index":223,"time_elapsed":971958,"internal_node_id":"0.0-212.0","task_version":"test-retest-t4"},{"Rune":"rune_07_thurisaz","Hex":"#ffcc3399","Correct":32,"Choice":32,"RT":448.52000000537373,"Accuracy":1,"Outcome":"+10","Keys":[1951.1050000146497],"TotalKeys":1,"Block":2,"Trial":203,"Robot":1,"Valence":"Win","Action":"Go","Sham":0,"Color":"yellow","trial_type":"pit-trial","trial_index":224,"time_elapsed":974914,"internal_node_id":"0.0-213.0","task_version":"test-retest-t4"},{"Rune":"rune_07_laukaz","Hex":"#ffcc3399","Correct":-1,"Choice":-1,"RT":-1,"Accuracy":1,"Outcome":"+10","Keys":[],"TotalKeys":0,"Block":2,"Trial":204,"Robot":2,"Valence":"Win","Action":"No-Go","Sham":0,"Color":"yellow","trial_type":"pit-trial","trial_index":225,"time_elapsed":978921,"internal_node_id":"0.0-214.0","task_version":"test-retest-t4"},{"Rune":"rune_07_gar","Hex":"#3366ff99","Correct":-1,"Choice":-1,"RT":-1,"Accuracy":1,"Outcome":"-1","Keys":[],"TotalKeys":0,"Block":2,"Trial":205,"Robot":4,"Valence":"Lose","Action":"No-Go","Sham":0,"Color":"blue","trial_type":"pit-trial","trial_index":226,"time_elapsed":982925,"internal_node_id":"0.0-215.0","task_version":"test-retest-t4"},{"Rune":"rune_07_laukaz","Hex":"#ffcc3399","Correct":-1,"Choice":-1,"RT":-1,"Accuracy":1,"Outcome":"+1","Keys":[],"TotalKeys":0,"Block":2,"Trial":206,"Robot":2,"Valence":"Win","Action":"No-Go","Sham":1,"Color":"yellow","trial_type":"pit-trial","trial_index":227,"time_elapsed":986931,"internal_node_id":"0.0-216.0","task_version":"test-retest-t4"},{"Rune":"rune_07_kauna","Hex":"#3366ff99","Correct":32,"Choice":32,"RT":525.3899999952409,"Accuracy":1,"Outcome":"-1","Keys":[2026.1699999973644],"TotalKeys":1,"Block":2,"Trial":207,"Robot":3,"Valence":"Lose","Action":"Go","Sham":0,"Color":"blue","trial_type":"pit-trial","trial_index":228,"time_elapsed":989962,"internal_node_id":"0.0-217.0","task_version":"test-retest-t4"},{"Rune":"rune_07_thurisaz","Hex":"#ffcc3399","Correct":32,"Choice":32,"RT":551.0749999957625,"Accuracy":1,"Outcome":"+1","Keys":[2051.575000019511],"TotalKeys":1,"Block":2,"Trial":208,"Robot":1,"Valence":"Win","Action":"Go","Sham":1,"Color":"yellow","trial_type":"pit-trial","trial_index":229,"time_elapsed":993019,"internal_node_id":"0.0-218.0","task_version":"test-retest-t4"},{"Rune":"rune_07_thurisaz","Hex":"#ffcc3399","Correct":32,"Choice":32,"RT":462.5250000099186,"Accuracy":1,"Outcome":"+10","Keys":[1962.9950000089593],"TotalKeys":1,"Block":2,"Trial":209,"Robot":1,"Valence":"Win","Action":"Go","Sham":0,"Color":"yellow","trial_type":"pit-trial","trial_index":230,"time_elapsed":995985,"internal_node_id":"0.0-219.0","task_version":"test-retest-t4"},{"Rune":"rune_07_gar","Hex":"#3366ff99","Correct":-1,"Choice":-1,"RT":-1,"Accuracy":1,"Outcome":"-10","Keys":[],"TotalKeys":0,"Block":2,"Trial":210,"Robot":4,"Valence":"Lose","Action":"No-Go","Sham":1,"Color":"blue","trial_type":"pit-trial","trial_index":231,"time_elapsed":999990,"internal_node_id":"0.0-220.0","task_version":"test-retest-t4"},{"Rune":"rune_07_kauna","Hex":"#3366ff99","Correct":32,"Choice":32,"RT":507.5799999758601,"Accuracy":1,"Outcome":"-1","Keys":[2008.1800000043586],"TotalKeys":1,"Block":2,"Trial":211,"Robot":3,"Valence":"Lose","Action":"Go","Sham":0,"Color":"blue","trial_type":"pit-trial","trial_index":232,"time_elapsed":1003002,"internal_node_id":"0.0-221.0","task_version":"test-retest-t4"},{"Rune":"rune_07_laukaz","Hex":"#ffcc3399","Correct":-1,"Choice":-1,"RT":-1,"Accuracy":1,"Outcome":"+10","Keys":[],"TotalKeys":0,"Block":2,"Trial":212,"Robot":2,"Valence":"Win","Action":"No-Go","Sham":0,"Color":"yellow","trial_type":"pit-trial","trial_index":233,"time_elapsed":1007009,"internal_node_id":"0.0-222.0","task_version":"test-retest-t4"},{"Rune":"rune_07_kauna","Hex":"#3366ff99","Correct":32,"Choice":32,"RT":519.3749999743886,"Accuracy":1,"Outcome":"-1","Keys":[2020.394999999553],"TotalKeys":1,"Block":2,"Trial":213,"Robot":3,"Valence":"Lose","Action":"Go","Sham":0,"Color":"blue","trial_type":"pit-trial","trial_index":234,"time_elapsed":1010034,"internal_node_id":"0.0-223.0","task_version":"test-retest-t4"},{"Rune":"rune_07_thurisaz","Hex":"#ffcc3399","Correct":32,"Choice":32,"RT":630.5599999905098,"Accuracy":1,"Outcome":"+10","Keys":[2130.6949999998324],"TotalKeys":1,"Block":2,"Trial":214,"Robot":1,"Valence":"Win","Action":"Go","Sham":0,"Color":"yellow","trial_type":"pit-trial","trial_index":235,"time_elapsed":1013170,"internal_node_id":"0.0-224.0","task_version":"test-retest-t4"},{"Rune":"rune_07_laukaz","Hex":"#ffcc3399","Correct":-1,"Choice":-1,"RT":-1,"Accuracy":1,"Outcome":"+10","Keys":[],"TotalKeys":0,"Block":2,"Trial":215,"Robot":2,"Valence":"Win","Action":"No-Go","Sham":0,"Color":"yellow","trial_type":"pit-trial","trial_index":236,"time_elapsed":1017174,"internal_node_id":"0.0-225.0","task_version":"test-retest-t4"},{"Rune":"rune_07_gar","Hex":"#3366ff99","Correct":-1,"Choice":-1,"RT":-1,"Accuracy":1,"Outcome":"-1","Keys":[],"TotalKeys":0,"Block":2,"Trial":216,"Robot":4,"Valence":"Lose","Action":"No-Go","Sham":0,"Color":"blue","trial_type":"pit-trial","trial_index":237,"time_elapsed":1021180,"internal_node_id":"0.0-226.0","task_version":"test-retest-t4"},{"Rune":"rune_07_gar","Hex":"#3366ff99","Correct":-1,"Choice":-1,"RT":-1,"Accuracy":1,"Outcome":"-1","Keys":[],"TotalKeys":0,"Block":2,"Trial":217,"Robot":4,"Valence":"Lose","Action":"No-Go","Sham":0,"Color":"blue","trial_type":"pit-trial","trial_index":238,"time_elapsed":1025185,"internal_node_id":"0.0-227.0","task_version":"test-retest-t4"},{"Rune":"rune_07_thurisaz","Hex":"#ffcc3399","Correct":32,"Choice":32,"RT":518.9799999934621,"Accuracy":1,"Outcome":"+10","Keys":[2019.9349999893457],"TotalKeys":1,"Block":2,"Trial":218,"Robot":1,"Valence":"Win","Action":"Go","Sham":0,"Color":"yellow","trial_type":"pit-trial","trial_index":239,"time_elapsed":1028211,"internal_node_id":"0.0-228.0","task_version":"test-retest-t4"},{"Rune":"rune_07_kauna","Hex":"#3366ff99","Correct":32,"Choice":-1,"RT":-1,"Accuracy":0,"Outcome":"-10","Keys":[],"TotalKeys":0,"Block":2,"Trial":219,"Robot":3,"Valence":"Lose","Action":"Go","Sham":0,"Color":"blue","trial_type":"pit-trial","trial_index":240,"time_elapsed":1032217,"internal_node_id":"0.0-229.0","task_version":"test-retest-t4"},{"Rune":"rune_07_laukaz","Hex":"#ffcc3399","Correct":-1,"Choice":-1,"RT":-1,"Accuracy":1,"Outcome":"+10","Keys":[3868.8700000056997],"TotalKeys":1,"Block":2,"Trial":220,"Robot":2,"Valence":"Win","Action":"No-Go","Sham":0,"Color":"yellow","trial_type":"pit-trial","trial_index":241,"time_elapsed":1036222,"internal_node_id":"0.0-230.0","task_version":"test-retest-t4"},{"Rune":"rune_07_gar","Hex":"#3366ff99","Correct":-1,"Choice":-1,"RT":-1,"Accuracy":1,"Outcome":"-1","Keys":[],"TotalKeys":0,"Block":2,"Trial":221,"Robot":4,"Valence":"Lose","Action":"No-Go","Sham":0,"Color":"blue","trial_type":"pit-trial","trial_index":242,"time_elapsed":1040227,"internal_node_id":"0.0-231.0","task_version":"test-retest-t4"},{"Rune":"rune_07_thurisaz","Hex":"#ffcc3399","Correct":32,"Choice":32,"RT":493.3549999841489,"Accuracy":1,"Outcome":"+10","Keys":[1994.4050000049174],"TotalKeys":1,"Block":2,"Trial":222,"Robot":1,"Valence":"Win","Action":"Go","Sham":0,"Color":"yellow","trial_type":"pit-trial","trial_index":243,"time_elapsed":1043225,"internal_node_id":"0.0-232.0","task_version":"test-retest-t4"},{"Rune":"rune_07_kauna","Hex":"#3366ff99","Correct":32,"Choice":32,"RT":495.4149999830406,"Accuracy":1,"Outcome":"-10","Keys":[1996.1550000007264],"TotalKeys":1,"Block":2,"Trial":223,"Robot":3,"Valence":"Lose","Action":"Go","Sham":1,"Color":"blue","trial_type":"pit-trial","trial_index":244,"time_elapsed":1046224,"internal_node_id":"0.0-233.0","task_version":"test-retest-t4"},{"Rune":"rune_07_laukaz","Hex":"#ffcc3399","Correct":-1,"Choice":-1,"RT":-1,"Accuracy":1,"Outcome":"+10","Keys":[],"TotalKeys":0,"Block":2,"Trial":224,"Robot":2,"Valence":"Win","Action":"No-Go","Sham":0,"Color":"yellow","trial_type":"pit-trial","trial_index":245,"time_elapsed":1050229,"internal_node_id":"0.0-234.0","task_version":"test-retest-t4"},{"Rune":"rune_07_laukaz","Hex":"#ffcc3399","Correct":-1,"Choice":-1,"RT":-1,"Accuracy":1,"Outcome":"+10","Keys":[],"TotalKeys":0,"Block":2,"Trial":225,"Robot":2,"Valence":"Win","Action":"No-Go","Sham":0,"Color":"yellow","trial_type":"pit-trial","trial_index":246,"time_elapsed":1054235,"internal_node_id":"0.0-235.0","task_version":"test-retest-t4"},{"Rune":"rune_07_kauna","Hex":"#3366ff99","Correct":32,"Choice":32,"RT":581.384999997681,"Accuracy":1,"Outcome":"-1","Keys":[2082.285000011325],"TotalKeys":1,"Block":2,"Trial":226,"Robot":3,"Valence":"Lose","Action":"Go","Sham":0,"Color":"blue","trial_type":"pit-trial","trial_index":247,"time_elapsed":1057322,"internal_node_id":"0.0-236.0","task_version":"test-retest-t4"},{"Rune":"rune_07_thurisaz","Hex":"#ffcc3399","Correct":32,"Choice":32,"RT":726.0349999996834,"Accuracy":1,"Outcome":"+1","Keys":[2226.714999997057],"TotalKeys":1,"Block":2,"Trial":227,"Robot":1,"Valence":"Win","Action":"Go","Sham":1,"Color":"yellow","trial_type":"pit-trial","trial_index":248,"time_elapsed":1060553,"internal_node_id":"0.0-237.0","task_version":"test-retest-t4"},{"Rune":"rune_07_gar","Hex":"#3366ff99","Correct":-1,"Choice":-1,"RT":-1,"Accuracy":1,"Outcome":"-1","Keys":[],"TotalKeys":0,"Block":2,"Trial":228,"Robot":4,"Valence":"Lose","Action":"No-Go","Sham":0,"Color":"blue","trial_type":"pit-trial","trial_index":249,"time_elapsed":1064558,"internal_node_id":"0.0-238.0","task_version":"test-retest-t4"},{"Rune":"rune_07_laukaz","Hex":"#ffcc3399","Correct":-1,"Choice":-1,"RT":-1,"Accuracy":1,"Outcome":"+1","Keys":[],"TotalKeys":0,"Block":2,"Trial":229,"Robot":2,"Valence":"Win","Action":"No-Go","Sham":1,"Color":"yellow","trial_type":"pit-trial","trial_index":250,"time_elapsed":1068563,"internal_node_id":"0.0-239.0","task_version":"test-retest-t4"},{"Rune":"rune_07_thurisaz","Hex":"#ffcc3399","Correct":32,"Choice":-1,"RT":-1,"Accuracy":0,"Outcome":"+1","Keys":[],"TotalKeys":0,"Block":2,"Trial":230,"Robot":1,"Valence":"Win","Action":"Go","Sham":0,"Color":"yellow","trial_type":"pit-trial","trial_index":251,"time_elapsed":1072567,"internal_node_id":"0.0-240.0","task_version":"test-retest-t4"},{"Rune":"rune_07_kauna","Hex":"#3366ff99","Correct":32,"Choice":32,"RT":680.4399999964517,"Accuracy":1,"Outcome":"-1","Keys":[2181.525000021793],"TotalKeys":1,"Block":2,"Trial":231,"Robot":3,"Valence":"Lose","Action":"Go","Sham":0,"Color":"blue","trial_type":"pit-trial","trial_index":252,"time_elapsed":1075754,"internal_node_id":"0.0-241.0","task_version":"test-retest-t4"},{"Rune":"rune_07_gar","Hex":"#3366ff99","Correct":-1,"Choice":-1,"RT":-1,"Accuracy":1,"Outcome":"-10","Keys":[],"TotalKeys":0,"Block":2,"Trial":232,"Robot":4,"Valence":"Lose","Action":"No-Go","Sham":1,"Color":"blue","trial_type":"pit-trial","trial_index":253,"time_elapsed":1079759,"internal_node_id":"0.0-242.0","task_version":"test-retest-t4"},{"Rune":"rune_07_kauna","Hex":"#3366ff99","Correct":32,"Choice":32,"RT":464.5450000243727,"Accuracy":1,"Outcome":"-1","Keys":[1965.5650000204332],"TotalKeys":1,"Block":2,"Trial":233,"Robot":3,"Valence":"Lose","Action":"Go","Sham":0,"Color":"blue","trial_type":"pit-trial","trial_index":254,"time_elapsed":1082729,"internal_node_id":"0.0-243.0","task_version":"test-retest-t4"},{"Rune":"rune_07_laukaz","Hex":"#ffcc3399","Correct":-1,"Choice":-1,"RT":-1,"Accuracy":1,"Outcome":"+10","Keys":[],"TotalKeys":0,"Block":2,"Trial":234,"Robot":2,"Valence":"Win","Action":"No-Go","Sham":0,"Color":"yellow","trial_type":"pit-trial","trial_index":255,"time_elapsed":1086735,"internal_node_id":"0.0-244.0","task_version":"test-retest-t4"},{"Rune":"rune_07_thurisaz","Hex":"#ffcc3399","Correct":32,"Choice":32,"RT":609.6700000052806,"Accuracy":1,"Outcome":"+10","Keys":[2110.0699999951757],"TotalKeys":1,"Block":2,"Trial":235,"Robot":1,"Valence":"Win","Action":"Go","Sham":0,"Color":"yellow","trial_type":"pit-trial","trial_index":256,"time_elapsed":1089849,"internal_node_id":"0.0-245.0","task_version":"test-retest-t4"},{"Rune":"rune_07_gar","Hex":"#3366ff99","Correct":-1,"Choice":-1,"RT":-1,"Accuracy":1,"Outcome":"-1","Keys":[],"TotalKeys":0,"Block":2,"Trial":236,"Robot":4,"Valence":"Lose","Action":"No-Go","Sham":0,"Color":"blue","trial_type":"pit-trial","trial_index":257,"time_elapsed":1093855,"internal_node_id":"0.0-246.0","task_version":"test-retest-t4"},{"Rune":"rune_07_gar","Hex":"#3366ff99","Correct":-1,"Choice":-1,"RT":-1,"Accuracy":1,"Outcome":"-1","Keys":[],"TotalKeys":0,"Block":2,"Trial":237,"Robot":4,"Valence":"Lose","Action":"No-Go","Sham":0,"Color":"blue","trial_type":"pit-trial","trial_index":258,"time_elapsed":1097859,"internal_node_id":"0.0-247.0","task_version":"test-retest-t4"},{"Rune":"rune_07_thurisaz","Hex":"#ffcc3399","Correct":32,"Choice":32,"RT":354.90000000572763,"Accuracy":1,"Outcome":"+10","Keys":[1857.6300000131596],"TotalKeys":1,"Block":2,"Trial":238,"Robot":1,"Valence":"Win","Action":"Go","Sham":0,"Color":"yellow","trial_type":"pit-trial","trial_index":259,"time_elapsed":1100722,"internal_node_id":"0.0-248.0","task_version":"test-retest-t4"},{"Rune":"rune_07_laukaz","Hex":"#ffcc3399","Correct":-1,"Choice":-1,"RT":-1,"Accuracy":1,"Outcome":"+10","Keys":[],"TotalKeys":0,"Block":2,"Trial":239,"Robot":2,"Valence":"Win","Action":"No-Go","Sham":0,"Color":"yellow","trial_type":"pit-trial","trial_index":260,"time_elapsed":1104726,"internal_node_id":"0.0-249.0","task_version":"test-retest-t4"},{"Rune":"rune_07_kauna","Hex":"#3366ff99","Correct":32,"Choice":32,"RT":601.4250000007451,"Accuracy":1,"Outcome":"-1","Keys":[2101.889999990817],"TotalKeys":1,"Block":2,"Trial":240,"Robot":3,"Valence":"Lose","Action":"Go","Sham":0,"Color":"blue","trial_type":"pit-trial","trial_index":261,"time_elapsed":1107833,"internal_node_id":"0.0-250.0","task_version":"test-retest-t4"},{"view_history":"[{\"page_index\":0,\"viewing_time\":4136.565000022529}]","rt":4137.120000028517,"trial_type":"pit-instructions","trial_index":262,"time_elapsed":1111972,"internal_node_id":"0.0-251.0","task_version":"test-retest-t4"},{"rt":18265.24999999674,"responses":{"age":"57","gender-categorical":"Female","gender-free-response":"","ethnicity":"Not Hispanic or Latino","race":"White","language":"Yes","fluency":"Very well"},"survey":"demographics","trial_type":"survey-demo","trial_index":263,"time_elapsed":1130246,"internal_node_id":"0.0-252.0","task_version":"test-retest-t4"},{"rt":14190.310000005411,"responses":{"difficulty":"4","fun":"4","clarity":"5","strategy":"no","feedback":"no"},"survey":"debrief","trial_type":"survey-debrief","trial_index":264,"time_elapsed":1144441,"internal_node_id":"0.0-253.0","task_version":"test-retest-t4"},{"rt":4922.320000012405,"stimulus":"You earned a bonus of $1.32 out of $1.5.<br><br>Press any key to complete the experiment.","key_press":32,"trial_type":"html-keyboard-response","trial_index":265,"time_elapsed":1149367,"internal_node_id":"0.0-254.0","task_version":"test-retest-t4","accuracy":0.875,"bonus":1.32,"interactions":"[]"}]