[{"slider_type":"valence","raw_loc":665,"loc":0.83,"trial_type":"affective-slider","trial_index":0,"time_elapsed":5632,"internal_node_id":"0.0-0.0","task_version":"test-retest-t4"},{"responses":{"Q03":"0","Q12":"0","Q04":"0","Q14":"0","Q08":"1","Q06":"0","Q07":"0","Q15":"0","Q02":"0","Q05":"1","Q11":"0","Q09":"1","Q01":"0","Q10":"0","Q13":"0"},"rt":100917.00000013225,"survey":"7up7down","trial_type":"survey-template","trial_index":1,"time_elapsed":106558,"internal_node_id":"0.0-1.0","task_version":"test-retest-t4"},{"responses":{"Q01":"1","Q06":"0","Q08":"0","Q02":"1","Q04":"0","Q03":"1","Q07":"0","Q05":"0"},"rt":25442.929999902844,"survey":"gad7","trial_type":"survey-template","trial_index":2,"time_elapsed":132005,"internal_node_id":"0.0-2.0","task_version":"test-retest-t4"},{"responses":{"Q06":"2","Q12":"1","Q07":"3","Q02":"3","Q13":"0","Q09":"1","Q05":"2","Q10":"2","Q04":"3","Q01":"3","Q08":"2","Q11":"1","Q03":"3"},"rt":51228.50500000641,"survey":"bisbas","trial_type":"survey-template","trial_index":3,"time_elapsed":183238,"internal_node_id":"0.0-3.0","task_version":"test-retest-t4"},{"view_history":"[{\"page_index\":0,\"viewing_time\":3384.885000064969},{\"page_index\":1,\"viewing_time\":1287.8399998880923},{\"page_index\":2,\"viewing_time\":4223.990000085905},{\"page_index\":3,\"viewing_time\":4367.954999906942},{\"page_index\":4,\"viewing_time\":2424.0149999968708},{\"page_index\":5,\"viewing_time\":2608.0249999649823}]","rt":18297.289999900386,"trial_type":"pit-instructions","trial_index":4,"time_elapsed":201541,"internal_node_id":"0.0-4.0-0.0","task_version":"test-retest-t4"},{"Rune":"rune_00_ingz","Hex":"#FFFFF080","Correct":32,"Choice":32,"RT":266.0000000614673,"Accuracy":1,"Outcome":"+10","Keys":[1766.1999999545515],"TotalKeys":1,"Block":0,"Action":"Go","trial_type":"pit-trial","trial_index":5,"time_elapsed":204313,"internal_node_id":"0.0-4.0-1.0-0.0","task_version":"test-retest-t4"},{"Rune":"rune_00_ingz","Hex":"#FFFFF080","Correct":32,"Choice":32,"RT":373.11000004410744,"Accuracy":1,"Outcome":"+10","Keys":[1875.1099999062717],"TotalKeys":1,"Block":0,"Action":"Go","trial_type":"pit-trial","trial_index":6,"time_elapsed":207207,"internal_node_id":"0.0-4.0-1.0-0.1","task_version":"test-retest-t4"},{"Rune":"rune_00_ingz","Hex":"#FFFFF080","Correct":32,"Choice":32,"RT":301.0299999732524,"Accuracy":1,"Outcome":"+10","Keys":[1801.4400000683963],"TotalKeys":1,"Block":0,"Action":"Go","trial_type":"pit-trial","trial_index":7,"time_elapsed":210021,"internal_node_id":"0.0-4.0-1.0-0.2","task_version":"test-retest-t4"},{"Rune":"rune_00_ingz","Hex":"#FFFFF080","Correct":32,"Choice":32,"RT":237.87000006996095,"Accuracy":1,"Outcome":"+10","Keys":[1738.5950000025332],"TotalKeys":1,"Block":0,"Action":"Go","trial_type":"pit-trial","trial_index":8,"time_elapsed":212767,"internal_node_id":"0.0-4.0-1.0-0.3","task_version":"test-retest-t4"},{"view_history":"[{\"page_index\":0,\"viewing_time\":4585.484999930486}]","rt":4585.729999933392,"trial_type":"pit-instructions","trial_index":9,"time_elapsed":217364,"internal_node_id":"0.0-4.0-2.0","task_version":"test-retest-t4"},{"Rune":"rune_00_isaz","Hex":"#FFFFF080","Correct":-1,"Choice":-1,"RT":-1,"Accuracy":1,"Outcome":"+10","Keys":[],"TotalKeys":0,"Block":0,"Action":"No-Go","trial_type":"pit-trial","trial_index":10,"time_elapsed":221370,"internal_node_id":"0.0-4.0-3.0-0.0","task_version":"test-retest-t4"},{"Rune":"rune_00_isaz","Hex":"#FFFFF080","Correct":-1,"Choice":-1,"RT":-1,"Accuracy":1,"Outcome":"+10","Keys":[],"TotalKeys":0,"Block":0,"Action":"No-Go","trial_type":"pit-trial","trial_index":11,"time_elapsed":225385,"internal_node_id":"0.0-4.0-3.0-0.1","task_version":"test-retest-t4"},{"Rune":"rune_00_isaz","Hex":"#FFFFF080","Correct":-1,"Choice":-1,"RT":-1,"Accuracy":1,"Outcome":"+10","Keys":[],"TotalKeys":0,"Block":0,"Action":"No-Go","trial_type":"pit-trial","trial_index":12,"time_elapsed":229399,"internal_node_id":"0.0-4.0-3.0-0.2","task_version":"test-retest-t4"},{"Rune":"rune_00_isaz","Hex":"#FFFFF080","Correct":-1,"Choice":-1,"RT":-1,"Accuracy":1,"Outcome":"+10","Keys":[],"TotalKeys":0,"Block":0,"Action":"No-Go","trial_type":"pit-trial","trial_index":13,"time_elapsed":233415,"internal_node_id":"0.0-4.0-3.0-0.3","task_version":"test-retest-t4"},{"view_history":"[{\"page_index\":0,\"viewing_time\":5104.999999981374},{\"page_index\":1,\"viewing_time\":4535.995000042021},{\"page_index\":2,\"viewing_time\":2559.970000060275},{\"page_index\":3,\"viewing_time\":4280.024999985471},{\"page_index\":4,\"viewing_time\":5415.929999900982},{\"page_index\":5,\"viewing_time\":5464.124999940395},{\"page_index\":6,\"viewing_time\":2151.985000120476},{\"page_index\":7,\"viewing_time\":1175.9200000669807}]","rt":30689.225000096485,"trial_type":"pit-instructions","trial_index":14,"time_elapsed":264116,"internal_node_id":"0.0-4.0-4.0","task_version":"test-retest-t4"},{"responses":["Do nothing","+10","-1","True","Yes"],"num_errors":0,"rt":17685.04000012763,"trial_type":"pit-comprehension","trial_index":15,"time_elapsed":281805,"internal_node_id":"0.0-4.0-5.0","task_version":"test-retest-t4"},{"trial_type":"call-function","trial_index":16,"time_elapsed":281810,"internal_node_id":"0.0-5.0","task_version":"test-retest-t4"},{"view_history":"[{\"page_index\":0,\"viewing_time\":2065.0500000920147},{\"page_index\":1,\"viewing_time\":2535.9950000420213},{\"page_index\":2,\"viewing_time\":3904.0999999269843}]","rt":8505.409999983385,"trial_type":"pit-instructions","trial_index":17,"time_elapsed":290316,"internal_node_id":"0.0-6.0","task_version":"test-retest-t4"},{"Rune":"rune_07_kauna","Hex":"#3366ff99","Correct":32,"Choice":-1,"RT":-1,"Accuracy":0,"Outcome":"-10","Keys":[],"TotalKeys":0,"Block":1,"Trial":1,"Robot":3,"Valence":"Lose","Action":"Go","Sham":0,"Color":"blue","trial_type":"pit-trial","trial_index":18,"time_elapsed":294323,"internal_node_id":"0.0-7.0","task_version":"test-retest-t4"},{"Rune":"rune_07_thurisaz","Hex":"#3366ff99","Correct":-1,"Choice":32,"RT":783.9550001081079,"Accuracy":0,"Outcome":"-10","Keys":[2284.8799999337643],"TotalKeys":1,"Block":1,"Trial":2,"Robot":4,"Valence":"Lose","Action":"No-Go","Sham":0,"Color":"blue","trial_type":"pit-trial","trial_index":19,"time_elapsed":297622,"internal_node_id":"0.0-8.0","task_version":"test-retest-t4"},{"Rune":"rune_07_gar","Hex":"#ffcc3399","Correct":-1,"Choice":-1,"RT":-1,"Accuracy":1,"Outcome":"+10","Keys":[],"TotalKeys":0,"Block":1,"Trial":3,"Robot":2,"Valence":"Win","Action":"No-Go","Sham":0,"Color":"yellow","trial_type":"pit-trial","trial_index":20,"time_elapsed":301631,"internal_node_id":"0.0-9.0","task_version":"test-retest-t4"},{"Rune":"rune_07_laukaz","Hex":"#ffcc3399","Correct":32,"Choice":32,"RT":481.9799999240786,"Accuracy":1,"Outcome":"+10","Keys":[1982.8099999576807],"TotalKeys":1,"Block":1,"Trial":4,"Robot":1,"Valence":"Win","Action":"Go","Sham":0,"Color":"yellow","trial_type":"pit-trial","trial_index":21,"time_elapsed":304621,"internal_node_id":"0.0-10.0","task_version":"test-retest-t4"},{"Rune":"rune_07_kauna","Hex":"#3366ff99","Correct":32,"Choice":32,"RT":413.3250000886619,"Accuracy":1,"Outcome":"-1","Keys":[1914.8000001441687],"TotalKeys":1,"Block":1,"Trial":5,"Robot":3,"Valence":"Lose","Action":"Go","Sham":0,"Color":"blue","trial_type":"pit-trial","trial_index":22,"time_elapsed":307550,"internal_node_id":"0.0-11.0","task_version":"test-retest-t4"},{"Rune":"rune_07_gar","Hex":"#ffcc3399","Correct":-1,"Choice":-1,"RT":-1,"Accuracy":1,"Outcome":"+1","Keys":[],"TotalKeys":0,"Block":1,"Trial":6,"Robot":2,"Valence":"Win","Action":"No-Go","Sham":1,"Color":"yellow","trial_type":"pit-trial","trial_index":23,"time_elapsed":311565,"internal_node_id":"0.0-12.0","task_version":"test-retest-t4"},{"Rune":"rune_07_laukaz","Hex":"#ffcc3399","Correct":32,"Choice":32,"RT":662.0150001253933,"Accuracy":1,"Outcome":"+10","Keys":[2162.6000001560897],"TotalKeys":1,"Block":1,"Trial":7,"Robot":1,"Valence":"Win","Action":"Go","Sham":0,"Color":"yellow","trial_type":"pit-trial","trial_index":24,"time_elapsed":314741,"internal_node_id":"0.0-13.0","task_version":"test-retest-t4"},{"Rune":"rune_07_thurisaz","Hex":"#3366ff99","Correct":-1,"Choice":-1,"RT":-1,"Accuracy":1,"Outcome":"-10","Keys":[],"TotalKeys":0,"Block":1,"Trial":8,"Robot":4,"Valence":"Lose","Action":"No-Go","Sham":1,"Color":"blue","trial_type":"pit-trial","trial_index":25,"time_elapsed":318757,"internal_node_id":"0.0-14.0","task_version":"test-retest-t4"},{"Rune":"rune_07_gar","Hex":"#ffcc3399","Correct":-1,"Choice":-1,"RT":-1,"Accuracy":1,"Outcome":"+10","Keys":[],"TotalKeys":0,"Block":1,"Trial":9,"Robot":2,"Valence":"Win","Action":"No-Go","Sham":0,"Color":"yellow","trial_type":"pit-trial","trial_index":26,"time_elapsed":322772,"internal_node_id":"0.0-15.0","task_version":"test-retest-t4"},{"Rune":"rune_07_kauna","Hex":"#3366ff99","Correct":32,"Choice":32,"RT":671.4900000952184,"Accuracy":1,"Outcome":"-10","Keys":[2171.834999928251],"TotalKeys":1,"Block":1,"Trial":10,"Robot":3,"Valence":"Lose","Action":"Go","Sham":1,"Color":"blue","trial_type":"pit-trial","trial_index":27,"time_elapsed":325958,"internal_node_id":"0.0-16.0","task_version":"test-retest-t4"},{"Rune":"rune_07_thurisaz","Hex":"#3366ff99","Correct":-1,"Choice":32,"RT":644.3450001534075,"Accuracy":0,"Outcome":"-10","Keys":[2146.279999986291],"TotalKeys":1,"Block":1,"Trial":11,"Robot":4,"Valence":"Lose","Action":"No-Go","Sham":0,"Color":"blue","trial_type":"pit-trial","trial_index":28,"time_elapsed":329117,"internal_node_id":"0.0-17.0","task_version":"test-retest-t4"},{"Rune":"rune_07_laukaz","Hex":"#ffcc3399","Correct":32,"Choice":32,"RT":533.2949999719858,"Accuracy":1,"Outcome":"+1","Keys":[2033.5800000466406],"TotalKeys":1,"Block":1,"Trial":12,"Robot":1,"Valence":"Win","Action":"Go","Sham":1,"Color":"yellow","trial_type":"pit-trial","trial_index":29,"time_elapsed":332166,"internal_node_id":"0.0-18.0","task_version":"test-retest-t4"},{"Rune":"rune_07_thurisaz","Hex":"#3366ff99","Correct":-1,"Choice":32,"RT":1413.9499999582767,"Accuracy":0,"Outcome":"-10","Keys":[2914.755000034347],"TotalKeys":1,"Block":1,"Trial":13,"Robot":4,"Valence":"Lose","Action":"No-Go","Sham":0,"Color":"blue","trial_type":"pit-trial","trial_index":30,"time_elapsed":336095,"internal_node_id":"0.0-19.0","task_version":"test-retest-t4"},{"Rune":"rune_07_laukaz","Hex":"#ffcc3399","Correct":32,"Choice":-1,"RT":-1,"Accuracy":0,"Outcome":"+1","Keys":[],"TotalKeys":0,"Block":1,"Trial":14,"Robot":1,"Valence":"Win","Action":"Go","Sham":0,"Color":"yellow","trial_type":"pit-trial","trial_index":31,"time_elapsed":340109,"internal_node_id":"0.0-20.0","task_version":"test-retest-t4"},{"Rune":"rune_07_kauna","Hex":"#3366ff99","Correct":32,"Choice":32,"RT":530.7400000747293,"Accuracy":1,"Outcome":"-1","Keys":[2031.0899999458343],"TotalKeys":1,"Block":1,"Trial":15,"Robot":3,"Valence":"Lose","Action":"Go","Sham":0,"Color":"blue","trial_type":"pit-trial","trial_index":32,"time_elapsed":343150,"internal_node_id":"0.0-21.0","task_version":"test-retest-t4"},{"Rune":"rune_07_gar","Hex":"#ffcc3399","Correct":-1,"Choice":-1,"RT":-1,"Accuracy":1,"Outcome":"+10","Keys":[],"TotalKeys":0,"Block":1,"Trial":16,"Robot":2,"Valence":"Win","Action":"No-Go","Sham":0,"Color":"yellow","trial_type":"pit-trial","trial_index":33,"time_elapsed":347166,"internal_node_id":"0.0-22.0","task_version":"test-retest-t4"},{"Rune":"rune_07_laukaz","Hex":"#ffcc3399","Correct":32,"Choice":32,"RT":526.1800000444055,"Accuracy":1,"Outcome":"+10","Keys":[2027.4449998978525],"TotalKeys":1,"Block":1,"Trial":17,"Robot":1,"Valence":"Win","Action":"Go","Sham":0,"Color":"yellow","trial_type":"pit-trial","trial_index":34,"time_elapsed":350208,"internal_node_id":"0.0-23.0","task_version":"test-retest-t4"},{"Rune":"rune_07_gar","Hex":"#ffcc3399","Correct":-1,"Choice":-1,"RT":-1,"Accuracy":1,"Outcome":"+10","Keys":[],"TotalKeys":0,"Block":1,"Trial":18,"Robot":2,"Valence":"Win","Action":"No-Go","Sham":0,"Color":"yellow","trial_type":"pit-trial","trial_index":35,"time_elapsed":354222,"internal_node_id":"0.0-24.0","task_version":"test-retest-t4"},{"Rune":"rune_07_kauna","Hex":"#3366ff99","Correct":32,"Choice":32,"RT":485.2899999823421,"Accuracy":1,"Outcome":"-1","Keys":[1986.36500001885],"TotalKeys":1,"Block":1,"Trial":19,"Robot":3,"Valence":"Lose","Action":"Go","Sham":0,"Color":"blue","trial_type":"pit-trial","trial_index":36,"time_elapsed":357223,"internal_node_id":"0.0-25.0","task_version":"test-retest-t4"},{"Rune":"rune_07_thurisaz","Hex":"#3366ff99","Correct":-1,"Choice":-1,"RT":-1,"Accuracy":1,"Outcome":"-1","Keys":[],"TotalKeys":0,"Block":1,"Trial":20,"Robot":4,"Valence":"Lose","Action":"No-Go","Sham":0,"Color":"blue","trial_type":"pit-trial","trial_index":37,"time_elapsed":361238,"internal_node_id":"0.0-26.0","task_version":"test-retest-t4"},{"Rune":"rune_07_kauna","Hex":"#3366ff99","Correct":32,"Choice":32,"RT":629.6149999834597,"Accuracy":1,"Outcome":"-1","Keys":[2130.750000011176],"TotalKeys":1,"Block":1,"Trial":21,"Robot":3,"Valence":"Lose","Action":"Go","Sham":0,"Color":"blue","trial_type":"pit-trial","trial_index":38,"time_elapsed":364384,"internal_node_id":"0.0-27.0","task_version":"test-retest-t4"},{"Rune":"rune_07_thurisaz","Hex":"#3366ff99","Correct":-1,"Choice":-1,"RT":-1,"Accuracy":1,"Outcome":"-1","Keys":[],"TotalKeys":0,"Block":1,"Trial":22,"Robot":4,"Valence":"Lose","Action":"No-Go","Sham":0,"Color":"blue","trial_type":"pit-trial","trial_index":39,"time_elapsed":368398,"internal_node_id":"0.0-28.0","task_version":"test-retest-t4"},{"Rune":"rune_07_gar","Hex":"#ffcc3399","Correct":-1,"Choice":-1,"RT":-1,"Accuracy":1,"Outcome":"+10","Keys":[],"TotalKeys":0,"Block":1,"Trial":23,"Robot":2,"Valence":"Win","Action":"No-Go","Sham":0,"Color":"yellow","trial_type":"pit-trial","trial_index":40,"time_elapsed":372413,"internal_node_id":"0.0-29.0","task_version":"test-retest-t4"},{"Rune":"rune_07_laukaz","Hex":"#ffcc3399","Correct":32,"Choice":32,"RT":514.7449998185039,"Accuracy":1,"Outcome":"+10","Keys":[2015.5700000468642],"TotalKeys":1,"Block":1,"Trial":24,"Robot":1,"Valence":"Win","Action":"Go","Sham":0,"Color":"yellow","trial_type":"pit-trial","trial_index":41,"time_elapsed":375439,"internal_node_id":"0.0-30.0","task_version":"test-retest-t4"},{"Rune":"rune_07_thurisaz","Hex":"#3366ff99","Correct":-1,"Choice":-1,"RT":-1,"Accuracy":1,"Outcome":"-1","Keys":[],"TotalKeys":0,"Block":1,"Trial":25,"Robot":4,"Valence":"Lose","Action":"No-Go","Sham":0,"Color":"blue","trial_type":"pit-trial","trial_index":42,"time_elapsed":379453,"internal_node_id":"0.0-31.0","task_version":"test-retest-t4"},{"Rune":"rune_07_laukaz","Hex":"#ffcc3399","Correct":32,"Choice":32,"RT":574.3549999315292,"Accuracy":1,"Outcome":"+1","Keys":[2075.890000211075],"TotalKeys":1,"Block":1,"Trial":26,"Robot":1,"Valence":"Win","Action":"Go","Sham":1,"Color":"yellow","trial_type":"pit-trial","trial_index":43,"time_elapsed":382544,"internal_node_id":"0.0-32.0","task_version":"test-retest-t4"},{"Rune":"rune_07_kauna","Hex":"#3366ff99","Correct":32,"Choice":32,"RT":636.3949999213219,"Accuracy":1,"Outcome":"-1","Keys":[2137.624999973923],"TotalKeys":1,"Block":1,"Trial":27,"Robot":3,"Valence":"Lose","Action":"Go","Sham":0,"Color":"blue","trial_type":"pit-trial","trial_index":44,"time_elapsed":385695,"internal_node_id":"0.0-33.0","task_version":"test-retest-t4"},{"Rune":"rune_07_gar","Hex":"#ffcc3399","Correct":-1,"Choice":-1,"RT":-1,"Accuracy":1,"Outcome":"+10","Keys":[],"TotalKeys":0,"Block":1,"Trial":28,"Robot":2,"Valence":"Win","Action":"No-Go","Sham":0,"Color":"yellow","trial_type":"pit-trial","trial_index":45,"time_elapsed":389711,"internal_node_id":"0.0-34.0","task_version":"test-retest-t4"},{"Rune":"rune_07_laukaz","Hex":"#ffcc3399","Correct":32,"Choice":32,"RT":467.98499999567866,"Accuracy":1,"Outcome":"+10","Keys":[1969.2550001200289],"TotalKeys":1,"Block":1,"Trial":29,"Robot":1,"Valence":"Win","Action":"Go","Sham":0,"Color":"yellow","trial_type":"pit-trial","trial_index":46,"time_elapsed":392695,"internal_node_id":"0.0-35.0","task_version":"test-retest-t4"},{"Rune":"rune_07_kauna","Hex":"#3366ff99","Correct":32,"Choice":32,"RT":451.6600000206381,"Accuracy":1,"Outcome":"-1","Keys":[1953.2349999062717],"TotalKeys":1,"Block":1,"Trial":30,"Robot":3,"Valence":"Lose","Action":"Go","Sham":0,"Color":"blue","trial_type":"pit-trial","trial_index":47,"time_elapsed":395661,"internal_node_id":"0.0-36.0","task_version":"test-retest-t4"},{"Rune":"rune_07_thurisaz","Hex":"#3366ff99","Correct":-1,"Choice":-1,"RT":-1,"Accuracy":1,"Outcome":"-1","Keys":[],"TotalKeys":0,"Block":1,"Trial":31,"Robot":4,"Valence":"Lose","Action":"No-Go","Sham":0,"Color":"blue","trial_type":"pit-trial","trial_index":48,"time_elapsed":399677,"internal_node_id":"0.0-37.0","task_version":"test-retest-t4"},{"Rune":"rune_07_gar","Hex":"#ffcc3399","Correct":-1,"Choice":-1,"RT":-1,"Accuracy":1,"Outcome":"+10","Keys":[],"TotalKeys":0,"Block":1,"Trial":32,"Robot":2,"Valence":"Win","Action":"No-Go","Sham":0,"Color":"yellow","trial_type":"pit-trial","trial_index":49,"time_elapsed":403692,"internal_node_id":"0.0-38.0","task_version":"test-retest-t4"},{"Rune":"rune_07_kauna","Hex":"#3366ff99","Correct":32,"Choice":32,"RT":520.079999929294,"Accuracy":1,"Outcome":"-1","Keys":[2020.8000000566244],"TotalKeys":1,"Block":1,"Trial":33,"Robot":3,"Valence":"Lose","Action":"Go","Sham":0,"Color":"blue","trial_type":"pit-trial","trial_index":50,"time_elapsed":406727,"internal_node_id":"0.0-39.0","task_version":"test-retest-t4"},{"Rune":"rune_07_gar","Hex":"#ffcc3399","Correct":-1,"Choice":-1,"RT":-1,"Accuracy":1,"Outcome":"+10","Keys":[],"TotalKeys":0,"Block":1,"Trial":34,"Robot":2,"Valence":"Win","Action":"No-Go","Sham":0,"Color":"yellow","trial_type":"pit-trial","trial_index":51,"time_elapsed":410742,"internal_node_id":"0.0-40.0","task_version":"test-retest-t4"},{"Rune":"rune_07_laukaz","Hex":"#ffcc3399","Correct":32,"Choice":32,"RT":509.4949998892844,"Accuracy":1,"Outcome":"+10","Keys":[2010.6800000648946],"TotalKeys":1,"Block":1,"Trial":35,"Robot":1,"Valence":"Win","Action":"Go","Sham":0,"Color":"yellow","trial_type":"pit-trial","trial_index":52,"time_elapsed":413767,"internal_node_id":"0.0-41.0","task_version":"test-retest-t4"},{"Rune":"rune_07_thurisaz","Hex":"#3366ff99","Correct":-1,"Choice":-1,"RT":-1,"Accuracy":1,"Outcome":"-1","Keys":[],"TotalKeys":0,"Block":1,"Trial":36,"Robot":4,"Valence":"Lose","Action":"No-Go","Sham":0,"Color":"blue","trial_type":"pit-trial","trial_index":53,"time_elapsed":417788,"internal_node_id":"0.0-42.0","task_version":"test-retest-t4"},{"Rune":"rune_07_laukaz","Hex":"#ffcc3399","Correct":32,"Choice":32,"RT":416.64499999023974,"Accuracy":1,"Outcome":"+10","Keys":[1916.8350000400096],"TotalKeys":1,"Block":1,"Trial":37,"Robot":1,"Valence":"Win","Action":"Go","Sham":0,"Color":"yellow","trial_type":"pit-trial","trial_index":54,"time_elapsed":420718,"internal_node_id":"0.0-43.0","task_version":"test-retest-t4"},{"Rune":"rune_07_thurisaz","Hex":"#3366ff99","Correct":-1,"Choice":-1,"RT":-1,"Accuracy":1,"Outcome":"-10","Keys":[],"TotalKeys":0,"Block":1,"Trial":38,"Robot":4,"Valence":"Lose","Action":"No-Go","Sham":1,"Color":"blue","trial_type":"pit-trial","trial_index":55,"time_elapsed":424733,"internal_node_id":"0.0-44.0","task_version":"test-retest-t4"},{"Rune":"rune_07_kauna","Hex":"#3366ff99","Correct":32,"Choice":32,"RT":454.3200000189245,"Accuracy":1,"Outcome":"-10","Keys":[1955.420000012964],"TotalKeys":1,"Block":1,"Trial":39,"Robot":3,"Valence":"Lose","Action":"Go","Sham":1,"Color":"blue","trial_type":"pit-trial","trial_index":56,"time_elapsed":427703,"internal_node_id":"0.0-45.0","task_version":"test-retest-t4"},{"Rune":"rune_07_gar","Hex":"#ffcc3399","Correct":-1,"Choice":-1,"RT":-1,"Accuracy":1,"Outcome":"+1","Keys":[],"TotalKeys":0,"Block":1,"Trial":40,"Robot":2,"Valence":"Win","Action":"No-Go","Sham":1,"Color":"yellow","trial_type":"pit-trial","trial_index":57,"time_elapsed":431720,"internal_node_id":"0.0-46.0","task_version":"test-retest-t4"},{"Rune":"rune_07_thurisaz","Hex":"#3366ff99","Correct":-1,"Choice":-1,"RT":-1,"Accuracy":1,"Outcome":"-1","Keys":[],"TotalKeys":0,"Block":1,"Trial":41,"Robot":4,"Valence":"Lose","Action":"No-Go","Sham":0,"Color":"blue","trial_type":"pit-trial","trial_index":58,"time_elapsed":435735,"internal_node_id":"0.0-47.0","task_version":"test-retest-t4"},{"Rune":"rune_07_laukaz","Hex":"#ffcc3399","Correct":32,"Choice":32,"RT":396.9050000887364,"Accuracy":1,"Outcome":"+10","Keys":[1897.8399999905378],"TotalKeys":1,"Block":1,"Trial":42,"Robot":1,"Valence":"Win","Action":"Go","Sham":0,"Color":"yellow","trial_type":"pit-trial","trial_index":59,"time_elapsed":438646,"internal_node_id":"0.0-48.0","task_version":"test-retest-t4"},{"Rune":"rune_07_kauna","Hex":"#3366ff99","Correct":32,"Choice":32,"RT":501.47999986074865,"Accuracy":1,"Outcome":"-1","Keys":[2001.6149999573827],"TotalKeys":1,"Block":1,"Trial":43,"Robot":3,"Valence":"Lose","Action":"Go","Sham":0,"Color":"blue","trial_type":"pit-trial","trial_index":60,"time_elapsed":441661,"internal_node_id":"0.0-49.0","task_version":"test-retest-t4"},{"Rune":"rune_07_gar","Hex":"#ffcc3399","Correct":-1,"Choice":-1,"RT":-1,"Accuracy":1,"Outcome":"+1","Keys":[],"TotalKeys":0,"Block":1,"Trial":44,"Robot":2,"Valence":"Win","Action":"No-Go","Sham":1,"Color":"yellow","trial_type":"pit-trial","trial_index":61,"time_elapsed":445676,"internal_node_id":"0.0-50.0","task_version":"test-retest-t4"},{"Rune":"rune_07_laukaz","Hex":"#ffcc3399","Correct":32,"Choice":32,"RT":407.81000000424683,"Accuracy":1,"Outcome":"+10","Keys":[1908.989999908954],"TotalKeys":1,"Block":1,"Trial":45,"Robot":1,"Valence":"Win","Action":"Go","Sham":0,"Color":"yellow","trial_type":"pit-trial","trial_index":62,"time_elapsed":448600,"internal_node_id":"0.0-51.0","task_version":"test-retest-t4"},{"Rune":"rune_07_kauna","Hex":"#3366ff99","Correct":32,"Choice":32,"RT":660.9300000127405,"Accuracy":1,"Outcome":"-1","Keys":[2161.4349998999387],"TotalKeys":1,"Block":1,"Trial":46,"Robot":3,"Valence":"Lose","Action":"Go","Sham":0,"Color":"blue","trial_type":"pit-trial","trial_index":63,"time_elapsed":451775,"internal_node_id":"0.0-52.0","task_version":"test-retest-t4"},{"Rune":"rune_07_gar","Hex":"#ffcc3399","Correct":-1,"Choice":-1,"RT":-1,"Accuracy":1,"Outcome":"+10","Keys":[],"TotalKeys":0,"Block":1,"Trial":47,"Robot":2,"Valence":"Win","Action":"No-Go","Sham":0,"Color":"yellow","trial_type":"pit-trial","trial_index":64,"time_elapsed":455790,"internal_node_id":"0.0-53.0","task_version":"test-retest-t4"},{"Rune":"rune_07_thurisaz","Hex":"#3366ff99","Correct":-1,"Choice":-1,"RT":-1,"Accuracy":1,"Outcome":"-10","Keys":[],"TotalKeys":0,"Block":1,"Trial":48,"Robot":4,"Valence":"Lose","Action":"No-Go","Sham":1,"Color":"blue","trial_type":"pit-trial","trial_index":65,"time_elapsed":459807,"internal_node_id":"0.0-54.0","task_version":"test-retest-t4"},{"Rune":"rune_07_gar","Hex":"#ffcc3399","Correct":-1,"Choice":-1,"RT":-1,"Accuracy":1,"Outcome":"+10","Keys":[],"TotalKeys":0,"Block":1,"Trial":49,"Robot":2,"Valence":"Win","Action":"No-Go","Sham":0,"Color":"yellow","trial_type":"pit-trial","trial_index":66,"time_elapsed":463822,"internal_node_id":"0.0-55.0","task_version":"test-retest-t4"},{"Rune":"rune_07_laukaz","Hex":"#ffcc3399","Correct":32,"Choice":32,"RT":497.34000000171363,"Accuracy":1,"Outcome":"+1","Keys":[1999.1450000088662],"TotalKeys":1,"Block":1,"Trial":50,"Robot":1,"Valence":"Win","Action":"Go","Sham":1,"Color":"yellow","trial_type":"pit-trial","trial_index":67,"time_elapsed":466831,"internal_node_id":"0.0-56.0","task_version":"test-retest-t4"},{"Rune":"rune_07_kauna","Hex":"#3366ff99","Correct":32,"Choice":32,"RT":540.2500000782311,"Accuracy":1,"Outcome":"-1","Keys":[2041.3549998775125],"TotalKeys":1,"Block":1,"Trial":51,"Robot":3,"Valence":"Lose","Action":"Go","Sham":0,"Color":"blue","trial_type":"pit-trial","trial_index":68,"time_elapsed":469886,"internal_node_id":"0.0-57.0","task_version":"test-retest-t4"},{"Rune":"rune_07_thurisaz","Hex":"#3366ff99","Correct":-1,"Choice":-1,"RT":-1,"Accuracy":1,"Outcome":"-1","Keys":[],"TotalKeys":0,"Block":1,"Trial":52,"Robot":4,"Valence":"Lose","Action":"No-Go","Sham":0,"Color":"blue","trial_type":"pit-trial","trial_index":69,"time_elapsed":473901,"internal_node_id":"0.0-58.0","task_version":"test-retest-t4"},{"Rune":"rune_07_thurisaz","Hex":"#3366ff99","Correct":-1,"Choice":-1,"RT":-1,"Accuracy":1,"Outcome":"-1","Keys":[],"TotalKeys":0,"Block":1,"Trial":53,"Robot":4,"Valence":"Lose","Action":"No-Go","Sham":0,"Color":"blue","trial_type":"pit-trial","trial_index":70,"time_elapsed":477915,"internal_node_id":"0.0-59.0","task_version":"test-retest-t4"},{"Rune":"rune_07_laukaz","Hex":"#ffcc3399","Correct":32,"Choice":32,"RT":440.934999845922,"Accuracy":1,"Outcome":"+10","Keys":[1941.5450000669807],"TotalKeys":1,"Block":1,"Trial":54,"Robot":1,"Valence":"Win","Action":"Go","Sham":0,"Color":"yellow","trial_type":"pit-trial","trial_index":71,"time_elapsed":480872,"internal_node_id":"0.0-60.0","task_version":"test-retest-t4"},{"Rune":"rune_07_gar","Hex":"#ffcc3399","Correct":-1,"Choice":-1,"RT":-1,"Accuracy":1,"Outcome":"+10","Keys":[],"TotalKeys":0,"Block":1,"Trial":55,"Robot":2,"Valence":"Win","Action":"No-Go","Sham":0,"Color":"yellow","trial_type":"pit-trial","trial_index":72,"time_elapsed":484886,"internal_node_id":"0.0-61.0","task_version":"test-retest-t4"},{"Rune":"rune_07_kauna","Hex":"#3366ff99","Correct":32,"Choice":32,"RT":501.30000011995435,"Accuracy":1,"Outcome":"-10","Keys":[2001.8749998416752],"TotalKeys":1,"Block":1,"Trial":56,"Robot":3,"Valence":"Lose","Action":"Go","Sham":1,"Color":"blue","trial_type":"pit-trial","trial_index":73,"time_elapsed":487902,"internal_node_id":"0.0-62.0","task_version":"test-retest-t4"},{"Rune":"rune_07_gar","Hex":"#ffcc3399","Correct":-1,"Choice":-1,"RT":-1,"Accuracy":1,"Outcome":"+10","Keys":[],"TotalKeys":0,"Block":1,"Trial":57,"Robot":2,"Valence":"Win","Action":"No-Go","Sham":0,"Color":"yellow","trial_type":"pit-trial","trial_index":74,"time_elapsed":491917,"internal_node_id":"0.0-63.0","task_version":"test-retest-t4"},{"Rune":"rune_07_laukaz","Hex":"#ffcc3399","Correct":32,"Choice":32,"RT":597.4200000055134,"Accuracy":1,"Outcome":"+10","Keys":[2098.530000075698],"TotalKeys":1,"Block":1,"Trial":58,"Robot":1,"Valence":"Win","Action":"Go","Sham":0,"Color":"yellow","trial_type":"pit-trial","trial_index":75,"time_elapsed":495030,"internal_node_id":"0.0-64.0","task_version":"test-retest-t4"},{"Rune":"rune_07_thurisaz","Hex":"#3366ff99","Correct":-1,"Choice":-1,"RT":-1,"Accuracy":1,"Outcome":"-1","Keys":[],"TotalKeys":0,"Block":1,"Trial":59,"Robot":4,"Valence":"Lose","Action":"No-Go","Sham":0,"Color":"blue","trial_type":"pit-trial","trial_index":76,"time_elapsed":499044,"internal_node_id":"0.0-65.0","task_version":"test-retest-t4"},{"Rune":"rune_07_kauna","Hex":"#3366ff99","Correct":32,"Choice":32,"RT":639.3350001890212,"Accuracy":1,"Outcome":"-1","Keys":[2140.5549999326468],"TotalKeys":1,"Block":1,"Trial":60,"Robot":3,"Valence":"Lose","Action":"Go","Sham":0,"Color":"blue","trial_type":"pit-trial","trial_index":77,"time_elapsed":502199,"internal_node_id":"0.0-66.0","task_version":"test-retest-t4"},{"value":false,"trial_type":"call-function","trial_index":78,"time_elapsed":502214,"internal_node_id":"0.0-67.0","task_version":"test-retest-t4"},{"view_history":"[{\"page_index\":0,\"viewing_time\":5916.11500014551},{\"page_index\":1,\"viewing_time\":1624.8550000600517}]","rt":7541.240000165999,"trial_type":"pit-instructions","trial_index":79,"time_elapsed":509757,"internal_node_id":"0.0-68.0","task_version":"test-retest-t4"},{"Rune":"rune_07_gar","Hex":"#ffcc3399","Correct":-1,"Choice":-1,"RT":-1,"Accuracy":1,"Outcome":"+1","Keys":[],"TotalKeys":0,"Block":1,"Trial":61,"Robot":2,"Valence":"Win","Action":"No-Go","Sham":1,"Color":"yellow","trial_type":"pit-trial","trial_index":80,"time_elapsed":513765,"internal_node_id":"0.0-69.0","task_version":"test-retest-t4"},{"Rune":"rune_07_kauna","Hex":"#3366ff99","Correct":32,"Choice":32,"RT":527.5050001218915,"Accuracy":1,"Outcome":"-1","Keys":[2027.6049999520183],"TotalKeys":1,"Block":1,"Trial":62,"Robot":3,"Valence":"Lose","Action":"Go","Sham":0,"Color":"blue","trial_type":"pit-trial","trial_index":81,"time_elapsed":516806,"internal_node_id":"0.0-70.0","task_version":"test-retest-t4"},{"Rune":"rune_07_thurisaz","Hex":"#3366ff99","Correct":-1,"Choice":-1,"RT":-1,"Accuracy":1,"Outcome":"-1","Keys":[],"TotalKeys":0,"Block":1,"Trial":63,"Robot":4,"Valence":"Lose","Action":"No-Go","Sham":0,"Color":"blue","trial_type":"pit-trial","trial_index":82,"time_elapsed":520811,"internal_node_id":"0.0-71.0","task_version":"test-retest-t4"},{"Rune":"rune_07_laukaz","Hex":"#ffcc3399","Correct":32,"Choice":32,"RT":671.7400001361966,"Accuracy":1,"Outcome":"+10","Keys":[2173.2849997933954],"TotalKeys":1,"Block":1,"Trial":64,"Robot":1,"Valence":"Win","Action":"Go","Sham":0,"Color":"yellow","trial_type":"pit-trial","trial_index":83,"time_elapsed":523999,"internal_node_id":"0.0-72.0","task_version":"test-retest-t4"},{"Rune":"rune_07_kauna","Hex":"#3366ff99","Correct":32,"Choice":32,"RT":572.8500001132488,"Accuracy":1,"Outcome":"-10","Keys":[2073.355000000447],"TotalKeys":1,"Block":1,"Trial":65,"Robot":3,"Valence":"Lose","Action":"Go","Sham":1,"Color":"blue","trial_type":"pit-trial","trial_index":84,"time_elapsed":527087,"internal_node_id":"0.0-73.0","task_version":"test-retest-t4"},{"Rune":"rune_07_laukaz","Hex":"#ffcc3399","Correct":32,"Choice":32,"RT":476.8950000870973,"Accuracy":1,"Outcome":"+10","Keys":[1977.6099999435246],"TotalKeys":1,"Block":1,"Trial":66,"Robot":1,"Valence":"Win","Action":"Go","Sham":0,"Color":"yellow","trial_type":"pit-trial","trial_index":85,"time_elapsed":530078,"internal_node_id":"0.0-74.0","task_version":"test-retest-t4"},{"Rune":"rune_07_gar","Hex":"#ffcc3399","Correct":-1,"Choice":-1,"RT":-1,"Accuracy":1,"Outcome":"+10","Keys":[],"TotalKeys":0,"Block":1,"Trial":67,"Robot":2,"Valence":"Win","Action":"No-Go","Sham":0,"Color":"yellow","trial_type":"pit-trial","trial_index":86,"time_elapsed":534094,"internal_node_id":"0.0-75.0","task_version":"test-retest-t4"},{"Rune":"rune_07_thurisaz","Hex":"#3366ff99","Correct":-1,"Choice":-1,"RT":-1,"Accuracy":1,"Outcome":"-1","Keys":[],"TotalKeys":0,"Block":1,"Trial":68,"Robot":4,"Valence":"Lose","Action":"No-Go","Sham":0,"Color":"blue","trial_type":"pit-trial","trial_index":87,"time_elapsed":538110,"internal_node_id":"0.0-76.0","task_version":"test-retest-t4"},{"Rune":"rune_07_thurisaz","Hex":"#3366ff99","Correct":-1,"Choice":32,"RT":1292.9400000721216,"Accuracy":0,"Outcome":"-1","Keys":[2794.465000042692],"TotalKeys":1,"Block":1,"Trial":69,"Robot":4,"Valence":"Lose","Action":"No-Go","Sham":1,"Color":"blue","trial_type":"pit-trial","trial_index":88,"time_elapsed":541920,"internal_node_id":"0.0-77.0","task_version":"test-retest-t4"},{"Rune":"rune_07_laukaz","Hex":"#ffcc3399","Correct":32,"Choice":32,"RT":522.7200000081211,"Accuracy":1,"Outcome":"+1","Keys":[2024.2749999742955],"TotalKeys":1,"Block":1,"Trial":70,"Robot":1,"Valence":"Win","Action":"Go","Sham":1,"Color":"yellow","trial_type":"pit-trial","trial_index":89,"time_elapsed":544958,"internal_node_id":"0.0-78.0","task_version":"test-retest-t4"},{"Rune":"rune_07_gar","Hex":"#ffcc3399","Correct":-1,"Choice":-1,"RT":-1,"Accuracy":1,"Outcome":"+10","Keys":[],"TotalKeys":0,"Block":1,"Trial":71,"Robot":2,"Valence":"Win","Action":"No-Go","Sham":0,"Color":"yellow","trial_type":"pit-trial","trial_index":90,"time_elapsed":548973,"internal_node_id":"0.0-79.0","task_version":"test-retest-t4"},{"Rune":"rune_07_kauna","Hex":"#3366ff99","Correct":32,"Choice":32,"RT":820.0749999377877,"Accuracy":1,"Outcome":"-1","Keys":[2321.974999969825],"TotalKeys":1,"Block":1,"Trial":72,"Robot":3,"Valence":"Lose","Action":"Go","Sham":0,"Color":"blue","trial_type":"pit-trial","trial_index":91,"time_elapsed":552309,"internal_node_id":"0.0-80.0","task_version":"test-retest-t4"},{"Rune":"rune_07_thurisaz","Hex":"#3366ff99","Correct":-1,"Choice":-1,"RT":-1,"Accuracy":1,"Outcome":"-1","Keys":[],"TotalKeys":0,"Block":1,"Trial":73,"Robot":4,"Valence":"Lose","Action":"No-Go","Sham":0,"Color":"blue","trial_type":"pit-trial","trial_index":92,"time_elapsed":556324,"internal_node_id":"0.0-81.0","task_version":"test-retest-t4"},{"Rune":"rune_07_laukaz","Hex":"#ffcc3399","Correct":32,"Choice":32,"RT":815.3450000099838,"Accuracy":1,"Outcome":"+10","Keys":[2315.565000055358],"TotalKeys":1,"Block":1,"Trial":74,"Robot":1,"Valence":"Win","Action":"Go","Sham":0,"Color":"yellow","trial_type":"pit-trial","trial_index":93,"time_elapsed":559653,"internal_node_id":"0.0-82.0","task_version":"test-retest-t4"},{"Rune":"rune_07_gar","Hex":"#ffcc3399","Correct":-1,"Choice":-1,"RT":-1,"Accuracy":1,"Outcome":"+10","Keys":[],"TotalKeys":0,"Block":1,"Trial":75,"Robot":2,"Valence":"Win","Action":"No-Go","Sham":0,"Color":"yellow","trial_type":"pit-trial","trial_index":94,"time_elapsed":563667,"internal_node_id":"0.0-83.0","task_version":"test-retest-t4"},{"Rune":"rune_07_kauna","Hex":"#3366ff99","Correct":32,"Choice":32,"RT":456.17500017397106,"Accuracy":1,"Outcome":"-1","Keys":[1957.18999998644],"TotalKeys":1,"Block":1,"Trial":76,"Robot":3,"Valence":"Lose","Action":"Go","Sham":0,"Color":"blue","trial_type":"pit-trial","trial_index":95,"time_elapsed":566638,"internal_node_id":"0.0-84.0","task_version":"test-retest-t4"},{"Rune":"rune_07_laukaz","Hex":"#ffcc3399","Correct":32,"Choice":32,"RT":907.2350000496954,"Accuracy":1,"Outcome":"+10","Keys":[2408.3649998065084],"TotalKeys":1,"Block":1,"Trial":77,"Robot":1,"Valence":"Win","Action":"Go","Sham":0,"Color":"yellow","trial_type":"pit-trial","trial_index":96,"time_elapsed":570054,"internal_node_id":"0.0-85.0","task_version":"test-retest-t4"},{"Rune":"rune_07_gar","Hex":"#ffcc3399","Correct":-1,"Choice":-1,"RT":-1,"Accuracy":1,"Outcome":"+10","Keys":[],"TotalKeys":0,"Block":1,"Trial":78,"Robot":2,"Valence":"Win","Action":"No-Go","Sham":0,"Color":"yellow","trial_type":"pit-trial","trial_index":97,"time_elapsed":574078,"internal_node_id":"0.0-86.0","task_version":"test-retest-t4"},{"Rune":"rune_07_thurisaz","Hex":"#3366ff99","Correct":-1,"Choice":-1,"RT":-1,"Accuracy":1,"Outcome":"-1","Keys":[],"TotalKeys":0,"Block":1,"Trial":79,"Robot":4,"Valence":"Lose","Action":"No-Go","Sham":0,"Color":"blue","trial_type":"pit-trial","trial_index":98,"time_elapsed":578094,"internal_node_id":"0.0-87.0","task_version":"test-retest-t4"},{"Rune":"rune_07_kauna","Hex":"#3366ff99","Correct":32,"Choice":32,"RT":772.920000134036,"Accuracy":1,"Outcome":"-1","Keys":[2274.330000160262],"TotalKeys":1,"Block":1,"Trial":80,"Robot":3,"Valence":"Lose","Action":"Go","Sham":0,"Color":"blue","trial_type":"pit-trial","trial_index":99,"time_elapsed":581381,"internal_node_id":"0.0-88.0","task_version":"test-retest-t4"},{"Rune":"rune_07_gar","Hex":"#ffcc3399","Correct":-1,"Choice":-1,"RT":-1,"Accuracy":1,"Outcome":"+10","Keys":[],"TotalKeys":0,"Block":1,"Trial":81,"Robot":2,"Valence":"Win","Action":"No-Go","Sham":0,"Color":"yellow","trial_type":"pit-trial","trial_index":100,"time_elapsed":585389,"internal_node_id":"0.0-89.0","task_version":"test-retest-t4"},{"Rune":"rune_07_kauna","Hex":"#3366ff99","Correct":32,"Choice":32,"RT":615.1850000023842,"Accuracy":1,"Outcome":"-1","Keys":[2115.294999908656],"TotalKeys":1,"Block":1,"Trial":82,"Robot":3,"Valence":"Lose","Action":"Go","Sham":0,"Color":"blue","trial_type":"pit-trial","trial_index":101,"time_elapsed":588517,"internal_node_id":"0.0-90.0","task_version":"test-retest-t4"},{"Rune":"rune_07_thurisaz","Hex":"#3366ff99","Correct":-1,"Choice":-1,"RT":-1,"Accuracy":1,"Outcome":"-1","Keys":[],"TotalKeys":0,"Block":1,"Trial":83,"Robot":4,"Valence":"Lose","Action":"No-Go","Sham":0,"Color":"blue","trial_type":"pit-trial","trial_index":102,"time_elapsed":592535,"internal_node_id":"0.0-91.0","task_version":"test-retest-t4"},{"Rune":"rune_07_laukaz","Hex":"#ffcc3399","Correct":32,"Choice":32,"RT":611.5699999500066,"Accuracy":1,"Outcome":"+10","Keys":[2113.5599999688566],"TotalKeys":1,"Block":1,"Trial":84,"Robot":1,"Valence":"Win","Action":"Go","Sham":0,"Color":"yellow","trial_type":"pit-trial","trial_index":103,"time_elapsed":595661,"internal_node_id":"0.0-92.0","task_version":"test-retest-t4"},{"Rune":"rune_07_thurisaz","Hex":"#3366ff99","Correct":-1,"Choice":-1,"RT":-1,"Accuracy":1,"Outcome":"-1","Keys":[],"TotalKeys":0,"Block":1,"Trial":85,"Robot":4,"Valence":"Lose","Action":"No-Go","Sham":0,"Color":"blue","trial_type":"pit-trial","trial_index":104,"time_elapsed":599667,"internal_node_id":"0.0-93.0","task_version":"test-retest-t4"},{"Rune":"rune_07_kauna","Hex":"#3366ff99","Correct":32,"Choice":32,"RT":889.5250000059605,"Accuracy":1,"Outcome":"-1","Keys":[2389.73500020802],"TotalKeys":1,"Block":1,"Trial":86,"Robot":3,"Valence":"Lose","Action":"Go","Sham":0,"Color":"blue","trial_type":"pit-trial","trial_index":105,"time_elapsed":603070,"internal_node_id":"0.0-94.0","task_version":"test-retest-t4"},{"Rune":"rune_07_laukaz","Hex":"#ffcc3399","Correct":32,"Choice":32,"RT":621.345000108704,"Accuracy":1,"Outcome":"+10","Keys":[2121.820000000298],"TotalKeys":1,"Block":1,"Trial":87,"Robot":1,"Valence":"Win","Action":"Go","Sham":0,"Color":"yellow","trial_type":"pit-trial","trial_index":106,"time_elapsed":606206,"internal_node_id":"0.0-95.0","task_version":"test-retest-t4"},{"Rune":"rune_07_gar","Hex":"#ffcc3399","Correct":-1,"Choice":-1,"RT":-1,"Accuracy":1,"Outcome":"+10","Keys":[],"TotalKeys":0,"Block":1,"Trial":88,"Robot":2,"Valence":"Win","Action":"No-Go","Sham":0,"Color":"yellow","trial_type":"pit-trial","trial_index":107,"time_elapsed":610222,"internal_node_id":"0.0-96.0","task_version":"test-retest-t4"},{"Rune":"rune_07_gar","Hex":"#ffcc3399","Correct":-1,"Choice":-1,"RT":-1,"Accuracy":1,"Outcome":"+1","Keys":[],"TotalKeys":0,"Block":1,"Trial":89,"Robot":2,"Valence":"Win","Action":"No-Go","Sham":1,"Color":"yellow","trial_type":"pit-trial","trial_index":108,"time_elapsed":614237,"internal_node_id":"0.0-97.0","task_version":"test-retest-t4"},{"Rune":"rune_07_laukaz","Hex":"#ffcc3399","Correct":32,"Choice":32,"RT":374.379999935627,"Accuracy":1,"Outcome":"+1","Keys":[1875.5550000350922],"TotalKeys":1,"Block":1,"Trial":90,"Robot":1,"Valence":"Win","Action":"Go","Sham":1,"Color":"yellow","trial_type":"pit-trial","trial_index":109,"time_elapsed":617126,"internal_node_id":"0.0-98.0","task_version":"test-retest-t4"},{"Rune":"rune_07_thurisaz","Hex":"#3366ff99","Correct":-1,"Choice":-1,"RT":-1,"Accuracy":1,"Outcome":"-10","Keys":[],"TotalKeys":0,"Block":1,"Trial":91,"Robot":4,"Valence":"Lose","Action":"No-Go","Sham":1,"Color":"blue","trial_type":"pit-trial","trial_index":110,"time_elapsed":621141,"internal_node_id":"0.0-99.0","task_version":"test-retest-t4"},{"Rune":"rune_07_kauna","Hex":"#3366ff99","Correct":32,"Choice":32,"RT":933.0899999476969,"Accuracy":1,"Outcome":"-10","Keys":[2433.9149999432266],"TotalKeys":1,"Block":1,"Trial":92,"Robot":3,"Valence":"Lose","Action":"Go","Sham":1,"Color":"blue","trial_type":"pit-trial","trial_index":111,"time_elapsed":624589,"internal_node_id":"0.0-100.0","task_version":"test-retest-t4"},{"Rune":"rune_07_kauna","Hex":"#3366ff99","Correct":32,"Choice":32,"RT":647.374999942258,"Accuracy":1,"Outcome":"-1","Keys":[2147.7350001223385],"TotalKeys":1,"Block":1,"Trial":93,"Robot":3,"Valence":"Lose","Action":"Go","Sham":0,"Color":"blue","trial_type":"pit-trial","trial_index":112,"time_elapsed":627742,"internal_node_id":"0.0-101.0","task_version":"test-retest-t4"},{"Rune":"rune_07_thurisaz","Hex":"#3366ff99","Correct":-1,"Choice":-1,"RT":-1,"Accuracy":1,"Outcome":"-1","Keys":[],"TotalKeys":0,"Block":1,"Trial":94,"Robot":4,"Valence":"Lose","Action":"No-Go","Sham":0,"Color":"blue","trial_type":"pit-trial","trial_index":113,"time_elapsed":631758,"internal_node_id":"0.0-102.0","task_version":"test-retest-t4"},{"Rune":"rune_07_laukaz","Hex":"#ffcc3399","Correct":32,"Choice":32,"RT":757.099999813363,"Accuracy":1,"Outcome":"+10","Keys":[2258.3000001031905],"TotalKeys":1,"Block":1,"Trial":95,"Robot":1,"Valence":"Win","Action":"Go","Sham":0,"Color":"yellow","trial_type":"pit-trial","trial_index":114,"time_elapsed":635031,"internal_node_id":"0.0-103.0","task_version":"test-retest-t4"},{"Rune":"rune_07_gar","Hex":"#ffcc3399","Correct":-1,"Choice":-1,"RT":-1,"Accuracy":1,"Outcome":"+10","Keys":[],"TotalKeys":0,"Block":1,"Trial":96,"Robot":2,"Valence":"Win","Action":"No-Go","Sham":0,"Color":"yellow","trial_type":"pit-trial","trial_index":115,"time_elapsed":639046,"internal_node_id":"0.0-104.0","task_version":"test-retest-t4"},{"Rune":"rune_07_thurisaz","Hex":"#3366ff99","Correct":-1,"Choice":-1,"RT":-1,"Accuracy":1,"Outcome":"-1","Keys":[],"TotalKeys":0,"Block":1,"Trial":97,"Robot":4,"Valence":"Lose","Action":"No-Go","Sham":0,"Color":"blue","trial_type":"pit-trial","trial_index":116,"time_elapsed":643061,"internal_node_id":"0.0-105.0","task_version":"test-retest-t4"},{"Rune":"rune_07_kauna","Hex":"#3366ff99","Correct":32,"Choice":32,"RT":887.7499999944121,"Accuracy":1,"Outcome":"-1","Keys":[2387.929999968037],"TotalKeys":1,"Block":1,"Trial":98,"Robot":3,"Valence":"Lose","Action":"Go","Sham":0,"Color":"blue","trial_type":"pit-trial","trial_index":117,"time_elapsed":646463,"internal_node_id":"0.0-106.0","task_version":"test-retest-t4"},{"Rune":"rune_07_laukaz","Hex":"#ffcc3399","Correct":32,"Choice":32,"RT":622.0400000456721,"Accuracy":1,"Outcome":"+10","Keys":[2122.199999867007],"TotalKeys":1,"Block":1,"Trial":99,"Robot":1,"Valence":"Win","Action":"Go","Sham":0,"Color":"yellow","trial_type":"pit-trial","trial_index":118,"time_elapsed":649600,"internal_node_id":"0.0-107.0","task_version":"test-retest-t4"},{"Rune":"rune_07_gar","Hex":"#ffcc3399","Correct":-1,"Choice":-1,"RT":-1,"Accuracy":1,"Outcome":"+10","Keys":[],"TotalKeys":0,"Block":1,"Trial":100,"Robot":2,"Valence":"Win","Action":"No-Go","Sham":0,"Color":"yellow","trial_type":"pit-trial","trial_index":119,"time_elapsed":653618,"internal_node_id":"0.0-108.0","task_version":"test-retest-t4"},{"Rune":"rune_07_kauna","Hex":"#3366ff99","Correct":32,"Choice":32,"RT":514.824999962002,"Accuracy":1,"Outcome":"-1","Keys":[2015.6400001142174],"TotalKeys":1,"Block":1,"Trial":101,"Robot":3,"Valence":"Lose","Action":"Go","Sham":0,"Color":"blue","trial_type":"pit-trial","trial_index":120,"time_elapsed":656647,"internal_node_id":"0.0-109.0","task_version":"test-retest-t4"},{"Rune":"rune_07_laukaz","Hex":"#ffcc3399","Correct":32,"Choice":32,"RT":541.0299999639392,"Accuracy":1,"Outcome":"+1","Keys":[2041.844999883324],"TotalKeys":1,"Block":1,"Trial":102,"Robot":1,"Valence":"Win","Action":"Go","Sham":1,"Color":"yellow","trial_type":"pit-trial","trial_index":121,"time_elapsed":659703,"internal_node_id":"0.0-110.0","task_version":"test-retest-t4"},{"Rune":"rune_07_thurisaz","Hex":"#3366ff99","Correct":-1,"Choice":-1,"RT":-1,"Accuracy":1,"Outcome":"-1","Keys":[],"TotalKeys":0,"Block":1,"Trial":103,"Robot":4,"Valence":"Lose","Action":"No-Go","Sham":0,"Color":"blue","trial_type":"pit-trial","trial_index":122,"time_elapsed":663717,"internal_node_id":"0.0-111.0","task_version":"test-retest-t4"},{"Rune":"rune_07_gar","Hex":"#ffcc3399","Correct":-1,"Choice":-1,"RT":-1,"Accuracy":1,"Outcome":"+10","Keys":[],"TotalKeys":0,"Block":1,"Trial":104,"Robot":2,"Valence":"Win","Action":"No-Go","Sham":0,"Color":"yellow","trial_type":"pit-trial","trial_index":123,"time_elapsed":667732,"internal_node_id":"0.0-112.0","task_version":"test-retest-t4"},{"Rune":"rune_07_laukaz","Hex":"#ffcc3399","Correct":32,"Choice":32,"RT":568.5099998954684,"Accuracy":1,"Outcome":"+10","Keys":[2068.900000071153],"TotalKeys":1,"Block":1,"Trial":105,"Robot":1,"Valence":"Win","Action":"Go","Sham":0,"Color":"yellow","trial_type":"pit-trial","trial_index":124,"time_elapsed":670815,"internal_node_id":"0.0-113.0","task_version":"test-retest-t4"},{"Rune":"rune_07_gar","Hex":"#ffcc3399","Correct":-1,"Choice":-1,"RT":-1,"Accuracy":1,"Outcome":"+10","Keys":[],"TotalKeys":0,"Block":1,"Trial":106,"Robot":2,"Valence":"Win","Action":"No-Go","Sham":0,"Color":"yellow","trial_type":"pit-trial","trial_index":125,"time_elapsed":674831,"internal_node_id":"0.0-114.0","task_version":"test-retest-t4"},{"Rune":"rune_07_thurisaz","Hex":"#3366ff99","Correct":-1,"Choice":-1,"RT":-1,"Accuracy":1,"Outcome":"-1","Keys":[],"TotalKeys":0,"Block":1,"Trial":107,"Robot":4,"Valence":"Lose","Action":"No-Go","Sham":0,"Color":"blue","trial_type":"pit-trial","trial_index":126,"time_elapsed":678847,"internal_node_id":"0.0-115.0","task_version":"test-retest-t4"},{"Rune":"rune_07_kauna","Hex":"#3366ff99","Correct":32,"Choice":32,"RT":401.92499989643693,"Accuracy":1,"Outcome":"-1","Keys":[1903.0949999578297],"TotalKeys":1,"Block":1,"Trial":108,"Robot":3,"Valence":"Lose","Action":"Go","Sham":0,"Color":"blue","trial_type":"pit-trial","trial_index":127,"time_elapsed":681759,"internal_node_id":"0.0-116.0","task_version":"test-retest-t4"},{"Rune":"rune_07_kauna","Hex":"#3366ff99","Correct":32,"Choice":32,"RT":980.5750001687557,"Accuracy":1,"Outcome":"-1","Keys":[2481.209999881685],"TotalKeys":1,"Block":1,"Trial":109,"Robot":3,"Valence":"Lose","Action":"Go","Sham":0,"Color":"blue","trial_type":"pit-trial","trial_index":128,"time_elapsed":685255,"internal_node_id":"0.0-117.0","task_version":"test-retest-t4"},{"Rune":"rune_07_gar","Hex":"#ffcc3399","Correct":-1,"Choice":-1,"RT":-1,"Accuracy":1,"Outcome":"+10","Keys":[],"TotalKeys":0,"Block":1,"Trial":110,"Robot":2,"Valence":"Win","Action":"No-Go","Sham":0,"Color":"yellow","trial_type":"pit-trial","trial_index":129,"time_elapsed":689269,"internal_node_id":"0.0-118.0","task_version":"test-retest-t4"},{"Rune":"rune_07_thurisaz","Hex":"#3366ff99","Correct":-1,"Choice":-1,"RT":-1,"Accuracy":1,"Outcome":"-10","Keys":[],"TotalKeys":0,"Block":1,"Trial":111,"Robot":4,"Valence":"Lose","Action":"No-Go","Sham":1,"Color":"blue","trial_type":"pit-trial","trial_index":130,"time_elapsed":693285,"internal_node_id":"0.0-119.0","task_version":"test-retest-t4"},{"Rune":"rune_07_laukaz","Hex":"#ffcc3399","Correct":32,"Choice":32,"RT":567.1700001694262,"Accuracy":1,"Outcome":"+10","Keys":[2067.5299998838454],"TotalKeys":1,"Block":1,"Trial":112,"Robot":1,"Valence":"Win","Action":"Go","Sham":0,"Color":"yellow","trial_type":"pit-trial","trial_index":131,"time_elapsed":696359,"internal_node_id":"0.0-120.0","task_version":"test-retest-t4"},{"Rune":"rune_07_thurisaz","Hex":"#3366ff99","Correct":-1,"Choice":-1,"RT":-1,"Accuracy":1,"Outcome":"-1","Keys":[],"TotalKeys":0,"Block":1,"Trial":113,"Robot":4,"Valence":"Lose","Action":"No-Go","Sham":0,"Color":"blue","trial_type":"pit-trial","trial_index":132,"time_elapsed":700367,"internal_node_id":"0.0-121.0","task_version":"test-retest-t4"},{"Rune":"rune_07_gar","Hex":"#ffcc3399","Correct":-1,"Choice":-1,"RT":-1,"Accuracy":1,"Outcome":"+1","Keys":[],"TotalKeys":0,"Block":1,"Trial":114,"Robot":2,"Valence":"Win","Action":"No-Go","Sham":1,"Color":"yellow","trial_type":"pit-trial","trial_index":133,"time_elapsed":704383,"internal_node_id":"0.0-122.0","task_version":"test-retest-t4"},{"Rune":"rune_07_kauna","Hex":"#3366ff99","Correct":32,"Choice":32,"RT":645.8449999336153,"Accuracy":1,"Outcome":"-1","Keys":[2146.8449998646975],"TotalKeys":1,"Block":1,"Trial":115,"Robot":3,"Valence":"Lose","Action":"Go","Sham":0,"Color":"blue","trial_type":"pit-trial","trial_index":134,"time_elapsed":707544,"internal_node_id":"0.0-123.0","task_version":"test-retest-t4"},{"Rune":"rune_07_laukaz","Hex":"#ffcc3399","Correct":32,"Choice":32,"RT":428.46999992616475,"Accuracy":1,"Outcome":"+10","Keys":[1928.6950000096112],"TotalKeys":1,"Block":1,"Trial":116,"Robot":1,"Valence":"Win","Action":"Go","Sham":0,"Color":"yellow","trial_type":"pit-trial","trial_index":135,"time_elapsed":710486,"internal_node_id":"0.0-124.0","task_version":"test-retest-t4"},{"Rune":"rune_07_gar","Hex":"#ffcc3399","Correct":-1,"Choice":-1,"RT":-1,"Accuracy":1,"Outcome":"+10","Keys":[],"TotalKeys":0,"Block":1,"Trial":117,"Robot":2,"Valence":"Win","Action":"No-Go","Sham":0,"Color":"yellow","trial_type":"pit-trial","trial_index":136,"time_elapsed":714501,"internal_node_id":"0.0-125.0","task_version":"test-retest-t4"},{"Rune":"rune_07_laukaz","Hex":"#ffcc3399","Correct":32,"Choice":32,"RT":420.1800001319498,"Accuracy":1,"Outcome":"+10","Keys":[1920.725000090897],"TotalKeys":1,"Block":1,"Trial":118,"Robot":1,"Valence":"Win","Action":"Go","Sham":0,"Color":"yellow","trial_type":"pit-trial","trial_index":137,"time_elapsed":717431,"internal_node_id":"0.0-126.0","task_version":"test-retest-t4"},{"Rune":"rune_07_thurisaz","Hex":"#3366ff99","Correct":-1,"Choice":-1,"RT":-1,"Accuracy":1,"Outcome":"-1","Keys":[],"TotalKeys":0,"Block":1,"Trial":119,"Robot":4,"Valence":"Lose","Action":"No-Go","Sham":0,"Color":"blue","trial_type":"pit-trial","trial_index":138,"time_elapsed":721446,"internal_node_id":"0.0-127.0","task_version":"test-retest-t4"},{"Rune":"rune_07_kauna","Hex":"#3366ff99","Correct":32,"Choice":32,"RT":429.2000001296401,"Accuracy":1,"Outcome":"-10","Keys":[1930.5499999318272],"TotalKeys":1,"Block":1,"Trial":120,"Robot":3,"Valence":"Lose","Action":"Go","Sham":1,"Color":"blue","trial_type":"pit-trial","trial_index":139,"time_elapsed":724391,"internal_node_id":"0.0-128.0","task_version":"test-retest-t4"},{"view_history":"[{\"page_index\":0,\"viewing_time\":2392.89000001736},{\"page_index\":1,\"viewing_time\":912.0350000448525},{\"page_index\":2,\"viewing_time\":927.9849999584258}]","rt":4233.185000019148,"trial_type":"pit-instructions","trial_index":140,"time_elapsed":728636,"internal_node_id":"0.0-129.0","task_version":"test-retest-t4"},{"Rune":"rune_08_mannaz","Hex":"#3366ff99","Correct":32,"Choice":-1,"RT":-1,"Accuracy":0,"Outcome":"-10","Keys":[],"TotalKeys":0,"Block":2,"Trial":121,"Robot":3,"Valence":"Lose","Action":"Go","Sham":0,"Color":"blue","trial_type":"pit-trial","trial_index":141,"time_elapsed":732642,"internal_node_id":"0.0-130.0","task_version":"test-retest-t4"},{"Rune":"rune_08_sigel","Hex":"#ffcc3399","Correct":-1,"Choice":-1,"RT":-1,"Accuracy":1,"Outcome":"+10","Keys":[],"TotalKeys":0,"Block":2,"Trial":122,"Robot":2,"Valence":"Win","Action":"No-Go","Sham":0,"Color":"yellow","trial_type":"pit-trial","trial_index":142,"time_elapsed":736650,"internal_node_id":"0.0-131.0","task_version":"test-retest-t4"},{"Rune":"rune_08_fehu","Hex":"#ffcc3399","Correct":32,"Choice":32,"RT":767.6250000949949,"Accuracy":1,"Outcome":"+10","Keys":[2270.2200000640005],"TotalKeys":1,"Block":2,"Trial":123,"Robot":1,"Valence":"Win","Action":"Go","Sham":0,"Color":"yellow","trial_type":"pit-trial","trial_index":143,"time_elapsed":739926,"internal_node_id":"0.0-132.0","task_version":"test-retest-t4"},{"Rune":"rune_08_pertho","Hex":"#3366ff99","Correct":-1,"Choice":-1,"RT":-1,"Accuracy":1,"Outcome":"-1","Keys":[],"TotalKeys":0,"Block":2,"Trial":124,"Robot":4,"Valence":"Lose","Action":"No-Go","Sham":0,"Color":"blue","trial_type":"pit-trial","trial_index":144,"time_elapsed":743938,"internal_node_id":"0.0-133.0","task_version":"test-retest-t4"},{"Rune":"rune_08_fehu","Hex":"#ffcc3399","Correct":32,"Choice":32,"RT":481.69000004418194,"Accuracy":1,"Outcome":"+10","Keys":[1982.0850000251085],"TotalKeys":1,"Block":2,"Trial":125,"Robot":1,"Valence":"Win","Action":"Go","Sham":0,"Color":"yellow","trial_type":"pit-trial","trial_index":145,"time_elapsed":746934,"internal_node_id":"0.0-134.0","task_version":"test-retest-t4"},{"Rune":"rune_08_sigel","Hex":"#ffcc3399","Correct":-1,"Choice":-1,"RT":-1,"Accuracy":1,"Outcome":"+1","Keys":[],"TotalKeys":0,"Block":2,"Trial":126,"Robot":2,"Valence":"Win","Action":"No-Go","Sham":1,"Color":"yellow","trial_type":"pit-trial","trial_index":146,"time_elapsed":750946,"internal_node_id":"0.0-135.0","task_version":"test-retest-t4"},{"Rune":"rune_08_pertho","Hex":"#3366ff99","Correct":-1,"Choice":-1,"RT":-1,"Accuracy":1,"Outcome":"-10","Keys":[],"TotalKeys":0,"Block":2,"Trial":127,"Robot":4,"Valence":"Lose","Action":"No-Go","Sham":1,"Color":"blue","trial_type":"pit-trial","trial_index":147,"time_elapsed":754962,"internal_node_id":"0.0-136.0","task_version":"test-retest-t4"},{"Rune":"rune_08_mannaz","Hex":"#3366ff99","Correct":32,"Choice":32,"RT":360.1949999574572,"Accuracy":1,"Outcome":"-1","Keys":[1862.0449998416007],"TotalKeys":1,"Block":2,"Trial":128,"Robot":3,"Valence":"Lose","Action":"Go","Sham":0,"Color":"blue","trial_type":"pit-trial","trial_index":148,"time_elapsed":757838,"internal_node_id":"0.0-137.0","task_version":"test-retest-t4"},{"Rune":"rune_08_sigel","Hex":"#ffcc3399","Correct":-1,"Choice":-1,"RT":-1,"Accuracy":1,"Outcome":"+10","Keys":[],"TotalKeys":0,"Block":2,"Trial":129,"Robot":2,"Valence":"Win","Action":"No-Go","Sham":0,"Color":"yellow","trial_type":"pit-trial","trial_index":149,"time_elapsed":761853,"internal_node_id":"0.0-138.0","task_version":"test-retest-t4"},{"Rune":"rune_08_pertho","Hex":"#3366ff99","Correct":-1,"Choice":-1,"RT":-1,"Accuracy":1,"Outcome":"-1","Keys":[],"TotalKeys":0,"Block":2,"Trial":130,"Robot":4,"Valence":"Lose","Action":"No-Go","Sham":0,"Color":"blue","trial_type":"pit-trial","trial_index":150,"time_elapsed":765868,"internal_node_id":"0.0-139.0","task_version":"test-retest-t4"},{"Rune":"rune_08_fehu","Hex":"#ffcc3399","Correct":32,"Choice":32,"RT":352.9950000811368,"Accuracy":1,"Outcome":"+1","Keys":[1853.774999966845],"TotalKeys":1,"Block":2,"Trial":131,"Robot":1,"Valence":"Win","Action":"Go","Sham":1,"Color":"yellow","trial_type":"pit-trial","trial_index":151,"time_elapsed":768735,"internal_node_id":"0.0-140.0","task_version":"test-retest-t4"},{"Rune":"rune_08_mannaz","Hex":"#3366ff99","Correct":32,"Choice":32,"RT":605.2149999886751,"Accuracy":1,"Outcome":"-10","Keys":[2106.224999995902],"TotalKeys":1,"Block":2,"Trial":132,"Robot":3,"Valence":"Lose","Action":"Go","Sham":1,"Color":"blue","trial_type":"pit-trial","trial_index":152,"time_elapsed":771855,"internal_node_id":"0.0-141.0","task_version":"test-retest-t4"},{"Rune":"rune_08_fehu","Hex":"#ffcc3399","Correct":32,"Choice":32,"RT":621.5249998494983,"Accuracy":1,"Outcome":"+10","Keys":[2121.7950000427663],"TotalKeys":1,"Block":2,"Trial":133,"Robot":1,"Valence":"Win","Action":"Go","Sham":0,"Color":"yellow","trial_type":"pit-trial","trial_index":153,"time_elapsed":774991,"internal_node_id":"0.0-142.0","task_version":"test-retest-t4"},{"Rune":"rune_08_sigel","Hex":"#ffcc3399","Correct":-1,"Choice":-1,"RT":-1,"Accuracy":1,"Outcome":"+10","Keys":[],"TotalKeys":0,"Block":2,"Trial":134,"Robot":2,"Valence":"Win","Action":"No-Go","Sham":0,"Color":"yellow","trial_type":"pit-trial","trial_index":154,"time_elapsed":779006,"internal_node_id":"0.0-143.0","task_version":"test-retest-t4"},{"Rune":"rune_08_mannaz","Hex":"#3366ff99","Correct":32,"Choice":32,"RT":478.9249999448657,"Accuracy":1,"Outcome":"-1","Keys":[1979.554999852553],"TotalKeys":1,"Block":2,"Trial":135,"Robot":3,"Valence":"Lose","Action":"Go","Sham":0,"Color":"blue","trial_type":"pit-trial","trial_index":155,"time_elapsed":781999,"internal_node_id":"0.0-144.0","task_version":"test-retest-t4"},{"Rune":"rune_08_pertho","Hex":"#3366ff99","Correct":-1,"Choice":-1,"RT":-1,"Accuracy":1,"Outcome":"-1","Keys":[],"TotalKeys":0,"Block":2,"Trial":136,"Robot":4,"Valence":"Lose","Action":"No-Go","Sham":0,"Color":"blue","trial_type":"pit-trial","trial_index":156,"time_elapsed":786014,"internal_node_id":"0.0-145.0","task_version":"test-retest-t4"},{"Rune":"rune_08_fehu","Hex":"#ffcc3399","Correct":32,"Choice":32,"RT":470.2250000555068,"Accuracy":1,"Outcome":"+10","Keys":[1970.4599999822676],"TotalKeys":1,"Block":2,"Trial":137,"Robot":1,"Valence":"Win","Action":"Go","Sham":0,"Color":"yellow","trial_type":"pit-trial","trial_index":157,"time_elapsed":788999,"internal_node_id":"0.0-146.0","task_version":"test-retest-t4"},{"Rune":"rune_08_mannaz","Hex":"#3366ff99","Correct":32,"Choice":32,"RT":853.7449999712408,"Accuracy":1,"Outcome":"-1","Keys":[2354.1950001381338],"TotalKeys":1,"Block":2,"Trial":138,"Robot":3,"Valence":"Lose","Action":"Go","Sham":0,"Color":"blue","trial_type":"pit-trial","trial_index":158,"time_elapsed":792367,"internal_node_id":"0.0-147.0","task_version":"test-retest-t4"},{"Rune":"rune_08_pertho","Hex":"#3366ff99","Correct":-1,"Choice":-1,"RT":-1,"Accuracy":1,"Outcome":"-1","Keys":[],"TotalKeys":0,"Block":2,"Trial":139,"Robot":4,"Valence":"Lose","Action":"No-Go","Sham":0,"Color":"blue","trial_type":"pit-trial","trial_index":159,"time_elapsed":796383,"internal_node_id":"0.0-148.0","task_version":"test-retest-t4"},{"Rune":"rune_08_sigel","Hex":"#ffcc3399","Correct":-1,"Choice":-1,"RT":-1,"Accuracy":1,"Outcome":"+10","Keys":[],"TotalKeys":0,"Block":2,"Trial":140,"Robot":2,"Valence":"Win","Action":"No-Go","Sham":0,"Color":"yellow","trial_type":"pit-trial","trial_index":160,"time_elapsed":800399,"internal_node_id":"0.0-149.0","task_version":"test-retest-t4"},{"Rune":"rune_08_mannaz","Hex":"#3366ff99","Correct":32,"Choice":32,"RT":461.2050000578165,"Accuracy":1,"Outcome":"-1","Keys":[1962.085000006482],"TotalKeys":1,"Block":2,"Trial":141,"Robot":3,"Valence":"Lose","Action":"Go","Sham":0,"Color":"blue","trial_type":"pit-trial","trial_index":161,"time_elapsed":803375,"internal_node_id":"0.0-150.0","task_version":"test-retest-t4"},{"Rune":"rune_08_fehu","Hex":"#ffcc3399","Correct":32,"Choice":32,"RT":894.33000003919,"Accuracy":1,"Outcome":"+10","Keys":[2394.395000068471],"TotalKeys":1,"Block":2,"Trial":142,"Robot":1,"Valence":"Win","Action":"Go","Sham":0,"Color":"yellow","trial_type":"pit-trial","trial_index":162,"time_elapsed":806783,"internal_node_id":"0.0-151.0","task_version":"test-retest-t4"},{"Rune":"rune_08_sigel","Hex":"#ffcc3399","Correct":-1,"Choice":-1,"RT":-1,"Accuracy":1,"Outcome":"+10","Keys":[],"TotalKeys":0,"Block":2,"Trial":143,"Robot":2,"Valence":"Win","Action":"No-Go","Sham":0,"Color":"yellow","trial_type":"pit-trial","trial_index":163,"time_elapsed":810797,"internal_node_id":"0.0-152.0","task_version":"test-retest-t4"},{"Rune":"rune_08_pertho","Hex":"#3366ff99","Correct":-1,"Choice":-1,"RT":-1,"Accuracy":1,"Outcome":"-1","Keys":[],"TotalKeys":0,"Block":2,"Trial":144,"Robot":4,"Valence":"Lose","Action":"No-Go","Sham":0,"Color":"blue","trial_type":"pit-trial","trial_index":164,"time_elapsed":814813,"internal_node_id":"0.0-153.0","task_version":"test-retest-t4"},{"Rune":"rune_08_pertho","Hex":"#3366ff99","Correct":-1,"Choice":-1,"RT":-1,"Accuracy":1,"Outcome":"-1","Keys":[],"TotalKeys":0,"Block":2,"Trial":145,"Robot":4,"Valence":"Lose","Action":"No-Go","Sham":0,"Color":"blue","trial_type":"pit-trial","trial_index":165,"time_elapsed":818827,"internal_node_id":"0.0-154.0","task_version":"test-retest-t4"},{"Rune":"rune_08_sigel","Hex":"#ffcc3399","Correct":-1,"Choice":-1,"RT":-1,"Accuracy":1,"Outcome":"+10","Keys":[],"TotalKeys":0,"Block":2,"Trial":146,"Robot":2,"Valence":"Win","Action":"No-Go","Sham":0,"Color":"yellow","trial_type":"pit-trial","trial_index":166,"time_elapsed":822841,"internal_node_id":"0.0-155.0","task_version":"test-retest-t4"},{"Rune":"rune_08_fehu","Hex":"#ffcc3399","Correct":32,"Choice":32,"RT":490.77500007115304,"Accuracy":1,"Outcome":"+1","Keys":[1991.4850001223385],"TotalKeys":1,"Block":2,"Trial":147,"Robot":1,"Valence":"Win","Action":"Go","Sham":1,"Color":"yellow","trial_type":"pit-trial","trial_index":167,"time_elapsed":825847,"internal_node_id":"0.0-156.0","task_version":"test-retest-t4"},{"Rune":"rune_08_mannaz","Hex":"#3366ff99","Correct":32,"Choice":32,"RT":500.9550000540912,"Accuracy":1,"Outcome":"-1","Keys":[2001.7850000876933],"TotalKeys":1,"Block":2,"Trial":148,"Robot":3,"Valence":"Lose","Action":"Go","Sham":0,"Color":"blue","trial_type":"pit-trial","trial_index":168,"time_elapsed":828863,"internal_node_id":"0.0-157.0","task_version":"test-retest-t4"},{"Rune":"rune_08_pertho","Hex":"#3366ff99","Correct":-1,"Choice":-1,"RT":-1,"Accuracy":1,"Outcome":"-1","Keys":[],"TotalKeys":0,"Block":2,"Trial":149,"Robot":4,"Valence":"Lose","Action":"No-Go","Sham":0,"Color":"blue","trial_type":"pit-trial","trial_index":169,"time_elapsed":832879,"internal_node_id":"0.0-158.0","task_version":"test-retest-t4"},{"Rune":"rune_08_mannaz","Hex":"#3366ff99","Correct":32,"Choice":32,"RT":604.5850000809878,"Accuracy":1,"Outcome":"-1","Keys":[2105.11999996379],"TotalKeys":1,"Block":2,"Trial":150,"Robot":3,"Valence":"Lose","Action":"Go","Sham":0,"Color":"blue","trial_type":"pit-trial","trial_index":170,"time_elapsed":835999,"internal_node_id":"0.0-159.0","task_version":"test-retest-t4"},{"Rune":"rune_08_fehu","Hex":"#ffcc3399","Correct":32,"Choice":32,"RT":884.6599999815226,"Accuracy":1,"Outcome":"+10","Keys":[2385.069999843836],"TotalKeys":1,"Block":2,"Trial":151,"Robot":1,"Valence":"Win","Action":"Go","Sham":0,"Color":"yellow","trial_type":"pit-trial","trial_index":171,"time_elapsed":839397,"internal_node_id":"0.0-160.0","task_version":"test-retest-t4"},{"Rune":"rune_08_sigel","Hex":"#ffcc3399","Correct":-1,"Choice":-1,"RT":-1,"Accuracy":1,"Outcome":"+10","Keys":[],"TotalKeys":0,"Block":2,"Trial":152,"Robot":2,"Valence":"Win","Action":"No-Go","Sham":0,"Color":"yellow","trial_type":"pit-trial","trial_index":172,"time_elapsed":843413,"internal_node_id":"0.0-161.0","task_version":"test-retest-t4"},{"Rune":"rune_08_pertho","Hex":"#3366ff99","Correct":-1,"Choice":-1,"RT":-1,"Accuracy":1,"Outcome":"-1","Keys":[],"TotalKeys":0,"Block":2,"Trial":153,"Robot":4,"Valence":"Lose","Action":"No-Go","Sham":0,"Color":"blue","trial_type":"pit-trial","trial_index":173,"time_elapsed":847429,"internal_node_id":"0.0-162.0","task_version":"test-retest-t4"},{"Rune":"rune_08_fehu","Hex":"#ffcc3399","Correct":32,"Choice":32,"RT":679.380000103265,"Accuracy":1,"Outcome":"+10","Keys":[2180.075000040233],"TotalKeys":1,"Block":2,"Trial":154,"Robot":1,"Valence":"Win","Action":"Go","Sham":0,"Color":"yellow","trial_type":"pit-trial","trial_index":174,"time_elapsed":850623,"internal_node_id":"0.0-163.0","task_version":"test-retest-t4"},{"Rune":"rune_08_sigel","Hex":"#ffcc3399","Correct":-1,"Choice":-1,"RT":-1,"Accuracy":1,"Outcome":"+10","Keys":[],"TotalKeys":0,"Block":2,"Trial":155,"Robot":2,"Valence":"Win","Action":"No-Go","Sham":0,"Color":"yellow","trial_type":"pit-trial","trial_index":175,"time_elapsed":854638,"internal_node_id":"0.0-164.0","task_version":"test-retest-t4"},{"Rune":"rune_08_mannaz","Hex":"#3366ff99","Correct":32,"Choice":32,"RT":524.0700000431389,"Accuracy":1,"Outcome":"-1","Keys":[2025.3699999302626],"TotalKeys":1,"Block":2,"Trial":156,"Robot":3,"Valence":"Lose","Action":"Go","Sham":0,"Color":"blue","trial_type":"pit-trial","trial_index":176,"time_elapsed":857678,"internal_node_id":"0.0-165.0","task_version":"test-retest-t4"},{"Rune":"rune_08_mannaz","Hex":"#3366ff99","Correct":32,"Choice":32,"RT":581.2450000084937,"Accuracy":1,"Outcome":"-10","Keys":[2082.9100001137704],"TotalKeys":1,"Block":2,"Trial":157,"Robot":3,"Valence":"Lose","Action":"Go","Sham":1,"Color":"blue","trial_type":"pit-trial","trial_index":177,"time_elapsed":860774,"internal_node_id":"0.0-166.0","task_version":"test-retest-t4"},{"Rune":"rune_08_fehu","Hex":"#ffcc3399","Correct":32,"Choice":32,"RT":598.035000031814,"Accuracy":1,"Outcome":"+10","Keys":[2097.970000002533],"TotalKeys":1,"Block":2,"Trial":158,"Robot":1,"Valence":"Win","Action":"Go","Sham":0,"Color":"yellow","trial_type":"pit-trial","trial_index":178,"time_elapsed":863886,"internal_node_id":"0.0-167.0","task_version":"test-retest-t4"},{"Rune":"rune_08_sigel","Hex":"#ffcc3399","Correct":-1,"Choice":-1,"RT":-1,"Accuracy":1,"Outcome":"+1","Keys":[],"TotalKeys":0,"Block":2,"Trial":159,"Robot":2,"Valence":"Win","Action":"No-Go","Sham":1,"Color":"yellow","trial_type":"pit-trial","trial_index":179,"time_elapsed":867901,"internal_node_id":"0.0-168.0","task_version":"test-retest-t4"},{"Rune":"rune_08_pertho","Hex":"#3366ff99","Correct":-1,"Choice":-1,"RT":-1,"Accuracy":1,"Outcome":"-10","Keys":[],"TotalKeys":0,"Block":2,"Trial":160,"Robot":4,"Valence":"Lose","Action":"No-Go","Sham":1,"Color":"blue","trial_type":"pit-trial","trial_index":180,"time_elapsed":871916,"internal_node_id":"0.0-169.0","task_version":"test-retest-t4"},{"Rune":"rune_08_fehu","Hex":"#ffcc3399","Correct":32,"Choice":32,"RT":583.6199999321252,"Accuracy":1,"Outcome":"+10","Keys":[2084.785000188276],"TotalKeys":1,"Block":2,"Trial":161,"Robot":1,"Valence":"Win","Action":"Go","Sham":0,"Color":"yellow","trial_type":"pit-trial","trial_index":181,"time_elapsed":875015,"internal_node_id":"0.0-170.0","task_version":"test-retest-t4"},{"Rune":"rune_08_mannaz","Hex":"#3366ff99","Correct":32,"Choice":32,"RT":1044.5449999533594,"Accuracy":1,"Outcome":"-1","Keys":[2545.3749999869615],"TotalKeys":1,"Block":2,"Trial":162,"Robot":3,"Valence":"Lose","Action":"Go","Sham":0,"Color":"blue","trial_type":"pit-trial","trial_index":182,"time_elapsed":878574,"internal_node_id":"0.0-171.0","task_version":"test-retest-t4"},{"Rune":"rune_08_sigel","Hex":"#ffcc3399","Correct":-1,"Choice":-1,"RT":-1,"Accuracy":1,"Outcome":"+1","Keys":[],"TotalKeys":0,"Block":2,"Trial":163,"Robot":2,"Valence":"Win","Action":"No-Go","Sham":1,"Color":"yellow","trial_type":"pit-trial","trial_index":183,"time_elapsed":882589,"internal_node_id":"0.0-172.0","task_version":"test-retest-t4"},{"Rune":"rune_08_pertho","Hex":"#3366ff99","Correct":-1,"Choice":-1,"RT":-1,"Accuracy":1,"Outcome":"-1","Keys":[],"TotalKeys":0,"Block":2,"Trial":164,"Robot":4,"Valence":"Lose","Action":"No-Go","Sham":0,"Color":"blue","trial_type":"pit-trial","trial_index":184,"time_elapsed":886606,"internal_node_id":"0.0-173.0","task_version":"test-retest-t4"},{"Rune":"rune_08_sigel","Hex":"#ffcc3399","Correct":-1,"Choice":-1,"RT":-1,"Accuracy":1,"Outcome":"+10","Keys":[],"TotalKeys":0,"Block":2,"Trial":165,"Robot":2,"Valence":"Win","Action":"No-Go","Sham":0,"Color":"yellow","trial_type":"pit-trial","trial_index":185,"time_elapsed":890620,"internal_node_id":"0.0-174.0","task_version":"test-retest-t4"},{"Rune":"rune_08_pertho","Hex":"#3366ff99","Correct":-1,"Choice":-1,"RT":-1,"Accuracy":1,"Outcome":"-10","Keys":[],"TotalKeys":0,"Block":2,"Trial":166,"Robot":4,"Valence":"Lose","Action":"No-Go","Sham":1,"Color":"blue","trial_type":"pit-trial","trial_index":186,"time_elapsed":894635,"internal_node_id":"0.0-175.0","task_version":"test-retest-t4"},{"Rune":"rune_08_mannaz","Hex":"#3366ff99","Correct":32,"Choice":32,"RT":517.7350000012666,"Accuracy":1,"Outcome":"-1","Keys":[2019.5650001987815],"TotalKeys":1,"Block":2,"Trial":167,"Robot":3,"Valence":"Lose","Action":"Go","Sham":0,"Color":"blue","trial_type":"pit-trial","trial_index":187,"time_elapsed":897663,"internal_node_id":"0.0-176.0","task_version":"test-retest-t4"},{"Rune":"rune_08_fehu","Hex":"#ffcc3399","Correct":32,"Choice":32,"RT":500.06499979645014,"Accuracy":1,"Outcome":"+10","Keys":[2002.6800001505762],"TotalKeys":1,"Block":2,"Trial":168,"Robot":1,"Valence":"Win","Action":"Go","Sham":0,"Color":"yellow","trial_type":"pit-trial","trial_index":188,"time_elapsed":900671,"internal_node_id":"0.0-177.0","task_version":"test-retest-t4"},{"Rune":"rune_08_mannaz","Hex":"#3366ff99","Correct":32,"Choice":32,"RT":709.1900000814348,"Accuracy":1,"Outcome":"-1","Keys":[2209.2899999115616],"TotalKeys":1,"Block":2,"Trial":169,"Robot":3,"Valence":"Lose","Action":"Go","Sham":0,"Color":"blue","trial_type":"pit-trial","trial_index":189,"time_elapsed":903894,"internal_node_id":"0.0-178.0","task_version":"test-retest-t4"},{"Rune":"rune_08_sigel","Hex":"#ffcc3399","Correct":-1,"Choice":-1,"RT":-1,"Accuracy":1,"Outcome":"+10","Keys":[],"TotalKeys":0,"Block":2,"Trial":170,"Robot":2,"Valence":"Win","Action":"No-Go","Sham":0,"Color":"yellow","trial_type":"pit-trial","trial_index":190,"time_elapsed":907909,"internal_node_id":"0.0-179.0","task_version":"test-retest-t4"},{"Rune":"rune_08_fehu","Hex":"#ffcc3399","Correct":32,"Choice":32,"RT":412.27500000968575,"Accuracy":1,"Outcome":"+1","Keys":[1913.4299999568611],"TotalKeys":1,"Block":2,"Trial":171,"Robot":1,"Valence":"Win","Action":"Go","Sham":1,"Color":"yellow","trial_type":"pit-trial","trial_index":191,"time_elapsed":910840,"internal_node_id":"0.0-180.0","task_version":"test-retest-t4"},{"Rune":"rune_08_pertho","Hex":"#3366ff99","Correct":-1,"Choice":-1,"RT":-1,"Accuracy":1,"Outcome":"-1","Keys":[],"TotalKeys":0,"Block":2,"Trial":172,"Robot":4,"Valence":"Lose","Action":"No-Go","Sham":0,"Color":"blue","trial_type":"pit-trial","trial_index":192,"time_elapsed":914855,"internal_node_id":"0.0-181.0","task_version":"test-retest-t4"},{"Rune":"rune_08_mannaz","Hex":"#3366ff99","Correct":32,"Choice":32,"RT":397.4800000432879,"Accuracy":1,"Outcome":"-10","Keys":[1897.8949999436736],"TotalKeys":1,"Block":2,"Trial":173,"Robot":3,"Valence":"Lose","Action":"Go","Sham":1,"Color":"blue","trial_type":"pit-trial","trial_index":193,"time_elapsed":917766,"internal_node_id":"0.0-182.0","task_version":"test-retest-t4"},{"Rune":"rune_08_pertho","Hex":"#3366ff99","Correct":-1,"Choice":-1,"RT":-1,"Accuracy":1,"Outcome":"-1","Keys":[],"TotalKeys":0,"Block":2,"Trial":174,"Robot":4,"Valence":"Lose","Action":"No-Go","Sham":0,"Color":"blue","trial_type":"pit-trial","trial_index":194,"time_elapsed":921782,"internal_node_id":"0.0-183.0","task_version":"test-retest-t4"},{"Rune":"rune_08_fehu","Hex":"#ffcc3399","Correct":32,"Choice":32,"RT":477.63999993912876,"Accuracy":1,"Outcome":"+10","Keys":[1979.1349999140948],"TotalKeys":1,"Block":2,"Trial":175,"Robot":1,"Valence":"Win","Action":"Go","Sham":0,"Color":"yellow","trial_type":"pit-trial","trial_index":195,"time_elapsed":924775,"internal_node_id":"0.0-184.0","task_version":"test-retest-t4"},{"Rune":"rune_08_sigel","Hex":"#ffcc3399","Correct":-1,"Choice":-1,"RT":-1,"Accuracy":1,"Outcome":"+10","Keys":[],"TotalKeys":0,"Block":2,"Trial":176,"Robot":2,"Valence":"Win","Action":"No-Go","Sham":0,"Color":"yellow","trial_type":"pit-trial","trial_index":196,"time_elapsed":928788,"internal_node_id":"0.0-185.0","task_version":"test-retest-t4"},{"Rune":"rune_08_pertho","Hex":"#3366ff99","Correct":-1,"Choice":32,"RT":571.0849999450147,"Accuracy":0,"Outcome":"-10","Keys":[2072.355000069365],"TotalKeys":1,"Block":2,"Trial":177,"Robot":4,"Valence":"Lose","Action":"No-Go","Sham":0,"Color":"blue","trial_type":"pit-trial","trial_index":197,"time_elapsed":931870,"internal_node_id":"0.0-186.0","task_version":"test-retest-t4"},{"Rune":"rune_08_mannaz","Hex":"#3366ff99","Correct":32,"Choice":32,"RT":453.7250001449138,"Accuracy":1,"Outcome":"-1","Keys":[1954.4450000394136],"TotalKeys":1,"Block":2,"Trial":178,"Robot":3,"Valence":"Lose","Action":"Go","Sham":0,"Color":"blue","trial_type":"pit-trial","trial_index":198,"time_elapsed":934840,"internal_node_id":"0.0-187.0","task_version":"test-retest-t4"},{"Rune":"rune_08_sigel","Hex":"#ffcc3399","Correct":-1,"Choice":-1,"RT":-1,"Accuracy":1,"Outcome":"+10","Keys":[],"TotalKeys":0,"Block":2,"Trial":179,"Robot":2,"Valence":"Win","Action":"No-Go","Sham":0,"Color":"yellow","trial_type":"pit-trial","trial_index":199,"time_elapsed":938855,"internal_node_id":"0.0-188.0","task_version":"test-retest-t4"},{"Rune":"rune_08_fehu","Hex":"#ffcc3399","Correct":32,"Choice":32,"RT":429.44000009447336,"Accuracy":1,"Outcome":"+10","Keys":[1929.655000101775],"TotalKeys":1,"Block":2,"Trial":180,"Robot":1,"Valence":"Win","Action":"Go","Sham":0,"Color":"yellow","trial_type":"pit-trial","trial_index":200,"time_elapsed":941799,"internal_node_id":"0.0-189.0","task_version":"test-retest-t4"},{"view_history":"[{\"page_index\":0,\"viewing_time\":2136.3250000867993},{\"page_index\":1,\"viewing_time\":1231.9799999240786}]","rt":3368.575000204146,"trial_type":"pit-instructions","trial_index":201,"time_elapsed":945180,"internal_node_id":"0.0-190.0","task_version":"test-retest-t4"},{"Rune":"rune_08_pertho","Hex":"#3366ff99","Correct":-1,"Choice":-1,"RT":-1,"Accuracy":1,"Outcome":"-1","Keys":[],"TotalKeys":0,"Block":2,"Trial":181,"Robot":4,"Valence":"Lose","Action":"No-Go","Sham":0,"Color":"blue","trial_type":"pit-trial","trial_index":202,"time_elapsed":949187,"internal_node_id":"0.0-191.0","task_version":"test-retest-t4"},{"Rune":"rune_08_mannaz","Hex":"#3366ff99","Correct":32,"Choice":32,"RT":441.8299999088049,"Accuracy":1,"Outcome":"-1","Keys":[1941.9500001240522],"TotalKeys":1,"Block":2,"Trial":182,"Robot":3,"Valence":"Lose","Action":"Go","Sham":0,"Color":"blue","trial_type":"pit-trial","trial_index":203,"time_elapsed":952143,"internal_node_id":"0.0-192.0","task_version":"test-retest-t4"},{"Rune":"rune_08_fehu","Hex":"#ffcc3399","Correct":32,"Choice":32,"RT":412.5100001692772,"Accuracy":1,"Outcome":"+10","Keys":[1913.4150000754744],"TotalKeys":1,"Block":2,"Trial":183,"Robot":1,"Valence":"Win","Action":"Go","Sham":0,"Color":"yellow","trial_type":"pit-trial","trial_index":204,"time_elapsed":955071,"internal_node_id":"0.0-193.0","task_version":"test-retest-t4"},{"Rune":"rune_08_sigel","Hex":"#ffcc3399","Correct":-1,"Choice":-1,"RT":-1,"Accuracy":1,"Outcome":"+1","Keys":[],"TotalKeys":0,"Block":2,"Trial":184,"Robot":2,"Valence":"Win","Action":"No-Go","Sham":1,"Color":"yellow","trial_type":"pit-trial","trial_index":205,"time_elapsed":959086,"internal_node_id":"0.0-194.0","task_version":"test-retest-t4"},{"Rune":"rune_08_pertho","Hex":"#3366ff99","Correct":-1,"Choice":-1,"RT":-1,"Accuracy":1,"Outcome":"-1","Keys":[],"TotalKeys":0,"Block":2,"Trial":185,"Robot":4,"Valence":"Lose","Action":"No-Go","Sham":0,"Color":"blue","trial_type":"pit-trial","trial_index":206,"time_elapsed":963101,"internal_node_id":"0.0-195.0","task_version":"test-retest-t4"},{"Rune":"rune_08_fehu","Hex":"#ffcc3399","Correct":32,"Choice":32,"RT":423.7150000408292,"Accuracy":1,"Outcome":"+10","Keys":[1923.7750000320375],"TotalKeys":1,"Block":2,"Trial":186,"Robot":1,"Valence":"Win","Action":"Go","Sham":0,"Color":"yellow","trial_type":"pit-trial","trial_index":207,"time_elapsed":966039,"internal_node_id":"0.0-196.0","task_version":"test-retest-t4"},{"Rune":"rune_08_sigel","Hex":"#ffcc3399","Correct":-1,"Choice":-1,"RT":-1,"Accuracy":1,"Outcome":"+10","Keys":[],"TotalKeys":0,"Block":2,"Trial":187,"Robot":2,"Valence":"Win","Action":"No-Go","Sham":0,"Color":"yellow","trial_type":"pit-trial","trial_index":208,"time_elapsed":970048,"internal_node_id":"0.0-197.0","task_version":"test-retest-t4"},{"Rune":"rune_08_mannaz","Hex":"#3366ff99","Correct":32,"Choice":32,"RT":450.79499995335937,"Accuracy":1,"Outcome":"-10","Keys":[1952.4150001816452],"TotalKeys":1,"Block":2,"Trial":188,"Robot":3,"Valence":"Lose","Action":"Go","Sham":1,"Color":"blue","trial_type":"pit-trial","trial_index":209,"time_elapsed":973014,"internal_node_id":"0.0-198.0","task_version":"test-retest-t4"},{"Rune":"rune_08_mannaz","Hex":"#3366ff99","Correct":32,"Choice":32,"RT":796.8049999326468,"Accuracy":1,"Outcome":"-1","Keys":[2297.294999938458],"TotalKeys":1,"Block":2,"Trial":189,"Robot":3,"Valence":"Lose","Action":"Go","Sham":0,"Color":"blue","trial_type":"pit-trial","trial_index":210,"time_elapsed":976325,"internal_node_id":"0.0-199.0","task_version":"test-retest-t4"},{"Rune":"rune_08_pertho","Hex":"#3366ff99","Correct":-1,"Choice":-1,"RT":-1,"Accuracy":1,"Outcome":"-10","Keys":[],"TotalKeys":0,"Block":2,"Trial":190,"Robot":4,"Valence":"Lose","Action":"No-Go","Sham":1,"Color":"blue","trial_type":"pit-trial","trial_index":211,"time_elapsed":980331,"internal_node_id":"0.0-200.0","task_version":"test-retest-t4"},{"Rune":"rune_08_sigel","Hex":"#ffcc3399","Correct":-1,"Choice":-1,"RT":-1,"Accuracy":1,"Outcome":"+10","Keys":[],"TotalKeys":0,"Block":2,"Trial":191,"Robot":2,"Valence":"Win","Action":"No-Go","Sham":0,"Color":"yellow","trial_type":"pit-trial","trial_index":212,"time_elapsed":984345,"internal_node_id":"0.0-201.0","task_version":"test-retest-t4"},{"Rune":"rune_08_fehu","Hex":"#ffcc3399","Correct":32,"Choice":32,"RT":403.5600000061095,"Accuracy":1,"Outcome":"+1","Keys":[1904.34499992989],"TotalKeys":1,"Block":2,"Trial":192,"Robot":1,"Valence":"Win","Action":"Go","Sham":1,"Color":"yellow","trial_type":"pit-trial","trial_index":213,"time_elapsed":987263,"internal_node_id":"0.0-202.0","task_version":"test-retest-t4"},{"Rune":"rune_08_mannaz","Hex":"#3366ff99","Correct":32,"Choice":32,"RT":445.50999999046326,"Accuracy":1,"Outcome":"-1","Keys":[1946.0799999069422],"TotalKeys":1,"Block":2,"Trial":193,"Robot":3,"Valence":"Lose","Action":"Go","Sham":0,"Color":"blue","trial_type":"pit-trial","trial_index":214,"time_elapsed":990222,"internal_node_id":"0.0-203.0","task_version":"test-retest-t4"},{"Rune":"rune_08_pertho","Hex":"#3366ff99","Correct":-1,"Choice":-1,"RT":-1,"Accuracy":1,"Outcome":"-1","Keys":[],"TotalKeys":0,"Block":2,"Trial":194,"Robot":4,"Valence":"Lose","Action":"No-Go","Sham":0,"Color":"blue","trial_type":"pit-trial","trial_index":215,"time_elapsed":994236,"internal_node_id":"0.0-204.0","task_version":"test-retest-t4"},{"Rune":"rune_08_fehu","Hex":"#ffcc3399","Correct":32,"Choice":32,"RT":333.8699999731034,"Accuracy":1,"Outcome":"+10","Keys":[1835.2150002028793],"TotalKeys":1,"Block":2,"Trial":195,"Robot":1,"Valence":"Win","Action":"Go","Sham":0,"Color":"yellow","trial_type":"pit-trial","trial_index":216,"time_elapsed":997079,"internal_node_id":"0.0-205.0","task_version":"test-retest-t4"},{"Rune":"rune_08_sigel","Hex":"#ffcc3399","Correct":-1,"Choice":-1,"RT":-1,"Accuracy":1,"Outcome":"+10","Keys":[],"TotalKeys":0,"Block":2,"Trial":196,"Robot":2,"Valence":"Win","Action":"No-Go","Sham":0,"Color":"yellow","trial_type":"pit-trial","trial_index":217,"time_elapsed":1001093,"internal_node_id":"0.0-206.0","task_version":"test-retest-t4"},{"Rune":"rune_08_fehu","Hex":"#ffcc3399","Correct":32,"Choice":32,"RT":407.1499998681247,"Accuracy":1,"Outcome":"+10","Keys":[1907.3099999222904],"TotalKeys":1,"Block":2,"Trial":197,"Robot":1,"Valence":"Win","Action":"Go","Sham":0,"Color":"yellow","trial_type":"pit-trial","trial_index":218,"time_elapsed":1004015,"internal_node_id":"0.0-207.0","task_version":"test-retest-t4"},{"Rune":"rune_08_mannaz","Hex":"#3366ff99","Correct":32,"Choice":32,"RT":725.0300000887364,"Accuracy":1,"Outcome":"-1","Keys":[2225.984999909997],"TotalKeys":1,"Block":2,"Trial":198,"Robot":3,"Valence":"Lose","Action":"Go","Sham":0,"Color":"blue","trial_type":"pit-trial","trial_index":219,"time_elapsed":1007255,"internal_node_id":"0.0-208.0","task_version":"test-retest-t4"},{"Rune":"rune_08_sigel","Hex":"#ffcc3399","Correct":-1,"Choice":-1,"RT":-1,"Accuracy":1,"Outcome":"+10","Keys":[],"TotalKeys":0,"Block":2,"Trial":199,"Robot":2,"Valence":"Win","Action":"No-Go","Sham":0,"Color":"yellow","trial_type":"pit-trial","trial_index":220,"time_elapsed":1011270,"internal_node_id":"0.0-209.0","task_version":"test-retest-t4"},{"Rune":"rune_08_pertho","Hex":"#3366ff99","Correct":-1,"Choice":-1,"RT":-1,"Accuracy":1,"Outcome":"-1","Keys":[],"TotalKeys":0,"Block":2,"Trial":200,"Robot":4,"Valence":"Lose","Action":"No-Go","Sham":0,"Color":"blue","trial_type":"pit-trial","trial_index":221,"time_elapsed":1015284,"internal_node_id":"0.0-210.0","task_version":"test-retest-t4"},{"Rune":"rune_08_mannaz","Hex":"#3366ff99","Correct":32,"Choice":32,"RT":464.1100000590086,"Accuracy":1,"Outcome":"-1","Keys":[1964.7450000047684],"TotalKeys":1,"Block":2,"Trial":201,"Robot":3,"Valence":"Lose","Action":"Go","Sham":0,"Color":"blue","trial_type":"pit-trial","trial_index":222,"time_elapsed":1018264,"internal_node_id":"0.0-211.0","task_version":"test-retest-t4"},{"Rune":"rune_08_sigel","Hex":"#ffcc3399","Correct":-1,"Choice":-1,"RT":-1,"Accuracy":1,"Outcome":"+10","Keys":[],"TotalKeys":0,"Block":2,"Trial":202,"Robot":2,"Valence":"Win","Action":"No-Go","Sham":0,"Color":"yellow","trial_type":"pit-trial","trial_index":223,"time_elapsed":1022279,"internal_node_id":"0.0-212.0","task_version":"test-retest-t4"},{"Rune":"rune_08_pertho","Hex":"#3366ff99","Correct":-1,"Choice":-1,"RT":-1,"Accuracy":1,"Outcome":"-1","Keys":[],"TotalKeys":0,"Block":2,"Trial":203,"Robot":4,"Valence":"Lose","Action":"No-Go","Sham":0,"Color":"blue","trial_type":"pit-trial","trial_index":224,"time_elapsed":1026293,"internal_node_id":"0.0-213.0","task_version":"test-retest-t4"},{"Rune":"rune_08_fehu","Hex":"#ffcc3399","Correct":32,"Choice":32,"RT":404.48999986983836,"Accuracy":1,"Outcome":"+10","Keys":[1905.6599999312311],"TotalKeys":1,"Block":2,"Trial":204,"Robot":1,"Valence":"Win","Action":"Go","Sham":0,"Color":"yellow","trial_type":"pit-trial","trial_index":225,"time_elapsed":1029215,"internal_node_id":"0.0-214.0","task_version":"test-retest-t4"},{"Rune":"rune_08_sigel","Hex":"#ffcc3399","Correct":-1,"Choice":-1,"RT":-1,"Accuracy":1,"Outcome":"+10","Keys":[],"TotalKeys":0,"Block":2,"Trial":205,"Robot":2,"Valence":"Win","Action":"No-Go","Sham":0,"Color":"yellow","trial_type":"pit-trial","trial_index":226,"time_elapsed":1033230,"internal_node_id":"0.0-215.0","task_version":"test-retest-t4"},{"Rune":"rune_08_mannaz","Hex":"#3366ff99","Correct":32,"Choice":32,"RT":404.57000001333654,"Accuracy":1,"Outcome":"-1","Keys":[1906.1499999370426],"TotalKeys":1,"Block":2,"Trial":206,"Robot":3,"Valence":"Lose","Action":"Go","Sham":0,"Color":"blue","trial_type":"pit-trial","trial_index":227,"time_elapsed":1036151,"internal_node_id":"0.0-216.0","task_version":"test-retest-t4"},{"Rune":"rune_08_fehu","Hex":"#ffcc3399","Correct":32,"Choice":32,"RT":451.82499988004565,"Accuracy":1,"Outcome":"+10","Keys":[1952.5800000410527],"TotalKeys":1,"Block":2,"Trial":207,"Robot":1,"Valence":"Win","Action":"Go","Sham":0,"Color":"yellow","trial_type":"pit-trial","trial_index":228,"time_elapsed":1039118,"internal_node_id":"0.0-217.0","task_version":"test-retest-t4"},{"Rune":"rune_08_pertho","Hex":"#3366ff99","Correct":-1,"Choice":-1,"RT":-1,"Accuracy":1,"Outcome":"-1","Keys":[],"TotalKeys":0,"Block":2,"Trial":208,"Robot":4,"Valence":"Lose","Action":"No-Go","Sham":0,"Color":"blue","trial_type":"pit-trial","trial_index":229,"time_elapsed":1043133,"internal_node_id":"0.0-218.0","task_version":"test-retest-t4"},{"Rune":"rune_08_fehu","Hex":"#ffcc3399","Correct":32,"Choice":32,"RT":471.09000012278557,"Accuracy":1,"Outcome":"+1","Keys":[1971.6400001198053],"TotalKeys":1,"Block":2,"Trial":209,"Robot":1,"Valence":"Win","Action":"Go","Sham":1,"Color":"yellow","trial_type":"pit-trial","trial_index":230,"time_elapsed":1046119,"internal_node_id":"0.0-219.0","task_version":"test-retest-t4"},{"Rune":"rune_08_mannaz","Hex":"#3366ff99","Correct":32,"Choice":32,"RT":492.58500011637807,"Accuracy":1,"Outcome":"-10","Keys":[1993.5950001236051],"TotalKeys":1,"Block":2,"Trial":210,"Robot":3,"Valence":"Lose","Action":"Go","Sham":1,"Color":"blue","trial_type":"pit-trial","trial_index":231,"time_elapsed":1049126,"internal_node_id":"0.0-220.0","task_version":"test-retest-t4"},{"Rune":"rune_08_sigel","Hex":"#ffcc3399","Correct":-1,"Choice":-1,"RT":-1,"Accuracy":1,"Outcome":"+1","Keys":[],"TotalKeys":0,"Block":2,"Trial":211,"Robot":2,"Valence":"Win","Action":"No-Go","Sham":1,"Color":"yellow","trial_type":"pit-trial","trial_index":232,"time_elapsed":1053142,"internal_node_id":"0.0-221.0","task_version":"test-retest-t4"},{"Rune":"rune_08_pertho","Hex":"#3366ff99","Correct":-1,"Choice":-1,"RT":-1,"Accuracy":1,"Outcome":"-10","Keys":[],"TotalKeys":0,"Block":2,"Trial":212,"Robot":4,"Valence":"Lose","Action":"No-Go","Sham":1,"Color":"blue","trial_type":"pit-trial","trial_index":233,"time_elapsed":1057158,"internal_node_id":"0.0-222.0","task_version":"test-retest-t4"},{"Rune":"rune_08_pertho","Hex":"#3366ff99","Correct":-1,"Choice":-1,"RT":-1,"Accuracy":1,"Outcome":"-1","Keys":[],"TotalKeys":0,"Block":2,"Trial":213,"Robot":4,"Valence":"Lose","Action":"No-Go","Sham":0,"Color":"blue","trial_type":"pit-trial","trial_index":234,"time_elapsed":1061173,"internal_node_id":"0.0-223.0","task_version":"test-retest-t4"},{"Rune":"rune_08_sigel","Hex":"#ffcc3399","Correct":-1,"Choice":-1,"RT":-1,"Accuracy":1,"Outcome":"+10","Keys":[],"TotalKeys":0,"Block":2,"Trial":214,"Robot":2,"Valence":"Win","Action":"No-Go","Sham":0,"Color":"yellow","trial_type":"pit-trial","trial_index":235,"time_elapsed":1065187,"internal_node_id":"0.0-224.0","task_version":"test-retest-t4"},{"Rune":"rune_08_mannaz","Hex":"#3366ff99","Correct":32,"Choice":32,"RT":407.97000005841255,"Accuracy":1,"Outcome":"-1","Keys":[1909.6549998503178],"TotalKeys":1,"Block":2,"Trial":215,"Robot":3,"Valence":"Lose","Action":"Go","Sham":0,"Color":"blue","trial_type":"pit-trial","trial_index":236,"time_elapsed":1068111,"internal_node_id":"0.0-225.0","task_version":"test-retest-t4"},{"Rune":"rune_08_fehu","Hex":"#ffcc3399","Correct":32,"Choice":32,"RT":540.9099999815226,"Accuracy":1,"Outcome":"+10","Keys":[2041.2399999331683],"TotalKeys":1,"Block":2,"Trial":216,"Robot":1,"Valence":"Win","Action":"Go","Sham":0,"Color":"yellow","trial_type":"pit-trial","trial_index":237,"time_elapsed":1071167,"internal_node_id":"0.0-226.0","task_version":"test-retest-t4"},{"Rune":"rune_08_fehu","Hex":"#ffcc3399","Correct":32,"Choice":32,"RT":652.5499999988824,"Accuracy":1,"Outcome":"+10","Keys":[2153.8300001993775],"TotalKeys":1,"Block":2,"Trial":217,"Robot":1,"Valence":"Win","Action":"Go","Sham":0,"Color":"yellow","trial_type":"pit-trial","trial_index":238,"time_elapsed":1074335,"internal_node_id":"0.0-227.0","task_version":"test-retest-t4"},{"Rune":"rune_08_mannaz","Hex":"#3366ff99","Correct":32,"Choice":32,"RT":668.0149999447167,"Accuracy":1,"Outcome":"-1","Keys":[2169.4900000002235],"TotalKeys":1,"Block":2,"Trial":218,"Robot":3,"Valence":"Lose","Action":"Go","Sham":0,"Color":"blue","trial_type":"pit-trial","trial_index":239,"time_elapsed":1077519,"internal_node_id":"0.0-228.0","task_version":"test-retest-t4"},{"Rune":"rune_08_pertho","Hex":"#3366ff99","Correct":-1,"Choice":-1,"RT":-1,"Accuracy":1,"Outcome":"-1","Keys":[],"TotalKeys":0,"Block":2,"Trial":219,"Robot":4,"Valence":"Lose","Action":"No-Go","Sham":0,"Color":"blue","trial_type":"pit-trial","trial_index":240,"time_elapsed":1081534,"internal_node_id":"0.0-229.0","task_version":"test-retest-t4"},{"Rune":"rune_08_sigel","Hex":"#ffcc3399","Correct":-1,"Choice":-1,"RT":-1,"Accuracy":1,"Outcome":"+10","Keys":[],"TotalKeys":0,"Block":2,"Trial":220,"Robot":2,"Valence":"Win","Action":"No-Go","Sham":0,"Color":"yellow","trial_type":"pit-trial","trial_index":241,"time_elapsed":1085550,"internal_node_id":"0.0-230.0","task_version":"test-retest-t4"},{"Rune":"rune_08_fehu","Hex":"#ffcc3399","Correct":32,"Choice":32,"RT":654.1300001554191,"Accuracy":1,"Outcome":"+1","Keys":[2154.25999998115],"TotalKeys":1,"Block":2,"Trial":221,"Robot":1,"Valence":"Win","Action":"Go","Sham":1,"Color":"yellow","trial_type":"pit-trial","trial_index":242,"time_elapsed":1088719,"internal_node_id":"0.0-231.0","task_version":"test-retest-t4"},{"Rune":"rune_08_sigel","Hex":"#ffcc3399","Correct":-1,"Choice":-1,"RT":-1,"Accuracy":1,"Outcome":"+10","Keys":[],"TotalKeys":0,"Block":2,"Trial":222,"Robot":2,"Valence":"Win","Action":"No-Go","Sham":0,"Color":"yellow","trial_type":"pit-trial","trial_index":243,"time_elapsed":1092734,"internal_node_id":"0.0-232.0","task_version":"test-retest-t4"},{"Rune":"rune_08_pertho","Hex":"#3366ff99","Correct":-1,"Choice":-1,"RT":-1,"Accuracy":1,"Outcome":"-1","Keys":[],"TotalKeys":0,"Block":2,"Trial":223,"Robot":4,"Valence":"Lose","Action":"No-Go","Sham":0,"Color":"blue","trial_type":"pit-trial","trial_index":244,"time_elapsed":1096749,"internal_node_id":"0.0-233.0","task_version":"test-retest-t4"},{"Rune":"rune_08_mannaz","Hex":"#3366ff99","Correct":32,"Choice":32,"RT":407.05999988131225,"Accuracy":1,"Outcome":"-1","Keys":[1907.9549999441952],"TotalKeys":1,"Block":2,"Trial":224,"Robot":3,"Valence":"Lose","Action":"Go","Sham":0,"Color":"blue","trial_type":"pit-trial","trial_index":245,"time_elapsed":1099670,"internal_node_id":"0.0-234.0","task_version":"test-retest-t4"},{"Rune":"rune_08_mannaz","Hex":"#3366ff99","Correct":32,"Choice":32,"RT":781.1750001274049,"Accuracy":1,"Outcome":"-1","Keys":[2282.9400000628084],"TotalKeys":1,"Block":2,"Trial":225,"Robot":3,"Valence":"Lose","Action":"Go","Sham":0,"Color":"blue","trial_type":"pit-trial","trial_index":246,"time_elapsed":1102958,"internal_node_id":"0.0-235.0","task_version":"test-retest-t4"},{"Rune":"rune_08_pertho","Hex":"#3366ff99","Correct":-1,"Choice":-1,"RT":-1,"Accuracy":1,"Outcome":"-1","Keys":[],"TotalKeys":0,"Block":2,"Trial":226,"Robot":4,"Valence":"Lose","Action":"No-Go","Sham":0,"Color":"blue","trial_type":"pit-trial","trial_index":247,"time_elapsed":1106973,"internal_node_id":"0.0-236.0","task_version":"test-retest-t4"},{"Rune":"rune_08_fehu","Hex":"#ffcc3399","Correct":32,"Choice":32,"RT":453.6049999296665,"Accuracy":1,"Outcome":"+10","Keys":[1954.7699999529868],"TotalKeys":1,"Block":2,"Trial":227,"Robot":1,"Valence":"Win","Action":"Go","Sham":0,"Color":"yellow","trial_type":"pit-trial","trial_index":248,"time_elapsed":1109943,"internal_node_id":"0.0-237.0","task_version":"test-retest-t4"},{"Rune":"rune_08_sigel","Hex":"#ffcc3399","Correct":-1,"Choice":-1,"RT":-1,"Accuracy":1,"Outcome":"+10","Keys":[],"TotalKeys":0,"Block":2,"Trial":228,"Robot":2,"Valence":"Win","Action":"No-Go","Sham":0,"Color":"yellow","trial_type":"pit-trial","trial_index":249,"time_elapsed":1113958,"internal_node_id":"0.0-238.0","task_version":"test-retest-t4"},{"Rune":"rune_08_fehu","Hex":"#ffcc3399","Correct":32,"Choice":32,"RT":564.3399998079985,"Accuracy":1,"Outcome":"+10","Keys":[2066.0049999132752],"TotalKeys":1,"Block":2,"Trial":229,"Robot":1,"Valence":"Win","Action":"Go","Sham":0,"Color":"yellow","trial_type":"pit-trial","trial_index":250,"time_elapsed":1117038,"internal_node_id":"0.0-239.0","task_version":"test-retest-t4"},{"Rune":"rune_08_pertho","Hex":"#3366ff99","Correct":-1,"Choice":-1,"RT":-1,"Accuracy":1,"Outcome":"-10","Keys":[],"TotalKeys":0,"Block":2,"Trial":230,"Robot":4,"Valence":"Lose","Action":"No-Go","Sham":1,"Color":"blue","trial_type":"pit-trial","trial_index":251,"time_elapsed":1121047,"internal_node_id":"0.0-240.0","task_version":"test-retest-t4"},{"Rune":"rune_08_mannaz","Hex":"#3366ff99","Correct":32,"Choice":32,"RT":516.8349999003112,"Accuracy":1,"Outcome":"-1","Keys":[2018.3149999938905],"TotalKeys":1,"Block":2,"Trial":231,"Robot":3,"Valence":"Lose","Action":"Go","Sham":0,"Color":"blue","trial_type":"pit-trial","trial_index":252,"time_elapsed":1124079,"internal_node_id":"0.0-241.0","task_version":"test-retest-t4"},{"Rune":"rune_08_sigel","Hex":"#ffcc3399","Correct":-1,"Choice":-1,"RT":-1,"Accuracy":1,"Outcome":"+10","Keys":[],"TotalKeys":0,"Block":2,"Trial":232,"Robot":2,"Valence":"Win","Action":"No-Go","Sham":0,"Color":"yellow","trial_type":"pit-trial","trial_index":253,"time_elapsed":1128094,"internal_node_id":"0.0-242.0","task_version":"test-retest-t4"},{"Rune":"rune_08_fehu","Hex":"#ffcc3399","Correct":32,"Choice":32,"RT":486.68999993242323,"Accuracy":1,"Outcome":"+10","Keys":[1986.900000134483],"TotalKeys":1,"Block":2,"Trial":233,"Robot":1,"Valence":"Win","Action":"Go","Sham":0,"Color":"yellow","trial_type":"pit-trial","trial_index":254,"time_elapsed":1131094,"internal_node_id":"0.0-243.0","task_version":"test-retest-t4"},{"Rune":"rune_08_mannaz","Hex":"#3366ff99","Correct":32,"Choice":32,"RT":925.1449999865144,"Accuracy":1,"Outcome":"-1","Keys":[2426.1549999937415],"TotalKeys":1,"Block":2,"Trial":234,"Robot":3,"Valence":"Lose","Action":"Go","Sham":0,"Color":"blue","trial_type":"pit-trial","trial_index":255,"time_elapsed":1134535,"internal_node_id":"0.0-244.0","task_version":"test-retest-t4"},{"Rune":"rune_08_sigel","Hex":"#ffcc3399","Correct":-1,"Choice":-1,"RT":-1,"Accuracy":1,"Outcome":"+1","Keys":[],"TotalKeys":0,"Block":2,"Trial":235,"Robot":2,"Valence":"Win","Action":"No-Go","Sham":1,"Color":"yellow","trial_type":"pit-trial","trial_index":256,"time_elapsed":1138549,"internal_node_id":"0.0-245.0","task_version":"test-retest-t4"},{"Rune":"rune_08_pertho","Hex":"#3366ff99","Correct":-1,"Choice":-1,"RT":-1,"Accuracy":1,"Outcome":"-1","Keys":[],"TotalKeys":0,"Block":2,"Trial":236,"Robot":4,"Valence":"Lose","Action":"No-Go","Sham":0,"Color":"blue","trial_type":"pit-trial","trial_index":257,"time_elapsed":1142558,"internal_node_id":"0.0-246.0","task_version":"test-retest-t4"},{"Rune":"rune_08_mannaz","Hex":"#3366ff99","Correct":32,"Choice":32,"RT":510.5349998921156,"Accuracy":1,"Outcome":"-10","Keys":[2011.1049998085946],"TotalKeys":1,"Block":2,"Trial":237,"Robot":3,"Valence":"Lose","Action":"Go","Sham":1,"Color":"blue","trial_type":"pit-trial","trial_index":258,"time_elapsed":1145583,"internal_node_id":"0.0-247.0","task_version":"test-retest-t4"},{"Rune":"rune_08_sigel","Hex":"#ffcc3399","Correct":-1,"Choice":-1,"RT":-1,"Accuracy":1,"Outcome":"+10","Keys":[],"TotalKeys":0,"Block":2,"Trial":238,"Robot":2,"Valence":"Win","Action":"No-Go","Sham":0,"Color":"yellow","trial_type":"pit-trial","trial_index":259,"time_elapsed":1149598,"internal_node_id":"0.0-248.0","task_version":"test-retest-t4"},{"Rune":"rune_08_pertho","Hex":"#3366ff99","Correct":-1,"Choice":-1,"RT":-1,"Accuracy":1,"Outcome":"-1","Keys":[],"TotalKeys":0,"Block":2,"Trial":239,"Robot":4,"Valence":"Lose","Action":"No-Go","Sham":0,"Color":"blue","trial_type":"pit-trial","trial_index":260,"time_elapsed":1153612,"internal_node_id":"0.0-249.0","task_version":"test-retest-t4"},{"Rune":"rune_08_fehu","Hex":"#ffcc3399","Correct":32,"Choice":32,"RT":463.4750001132488,"Accuracy":1,"Outcome":"+10","Keys":[1964.4500000867993],"TotalKeys":1,"Block":2,"Trial":240,"Robot":1,"Valence":"Win","Action":"Go","Sham":0,"Color":"yellow","trial_type":"pit-trial","trial_index":261,"time_elapsed":1156590,"internal_node_id":"0.0-250.0","task_version":"test-retest-t4"},{"view_history":"[{\"page_index\":0,\"viewing_time\":2785.2050000801682}]","rt":2785.454999888316,"trial_type":"pit-instructions","trial_index":262,"time_elapsed":1159388,"internal_node_id":"0.0-251.0","task_version":"test-retest-t4"},{"rt":10941.149999853224,"responses":{"age":"22","gender-categorical":"Female","gender-free-response":"","ethnicity":"Not Hispanic or Latino","race":"White","language":"Yes","fluency":"Very well"},"survey":"demographics","trial_type":"survey-demo","trial_index":263,"time_elapsed":1170334,"internal_node_id":"0.0-252.0","task_version":"test-retest-t4"},{"rt":52771.435000002384,"responses":{"difficulty":"5","fun":"5","clarity":"5","strategy":"I let all the robots be rejected in the beginning to determine which ones I should accept going forward.  I also tried to see if the machinery malfunctioned at certain intervals, but was not able to find any pattern.","feedback":""},"survey":"debrief","trial_type":"survey-debrief","trial_index":264,"time_elapsed":1223109,"internal_node_id":"0.0-253.0","task_version":"test-retest-t4"},{"rt":4324.275000020862,"stimulus":"You earned a bonus of $1.45 out of $1.5.<br><br>Press any key to complete the experiment.","key_press":32,"trial_type":"html-keyboard-response","trial_index":265,"time_elapsed":1227437,"internal_node_id":"0.0-254.0","task_version":"test-retest-t4","accuracy":0.9666666666666667,"bonus":1.45,"interactions":"[]"}]