subject,session,block,trial,exposure,stimulus,valence,action,robot,rune,color,correct,choice,rt,accuracy,sham,outcome,totalkeys
0ubclurpshlgyru3cwo3stun,2,1,1,1,1,win,go,gw,rune_04_wunjo,yellow,1,1,0.178,1,0.0,+10,1
0ubclurpshlgyru3cwo3stun,2,1,2,1,2,lose,no-go,ngal,rune_04_dagaz,blue,0,1,0.433,0,0.0,-10,1
0ubclurpshlgyru3cwo3stun,2,1,3,1,3,win,no-go,ngw,rune_04_iwaz,yellow,0,1,0.619,0,0.0,+1,1
0ubclurpshlgyru3cwo3stun,2,1,4,1,4,lose,go,gal,rune_04_ac,blue,1,1,0.562,1,0.0,-1,1
0ubclurpshlgyru3cwo3stun,2,1,5,2,2,lose,no-go,ngal,rune_04_dagaz,blue,0,0,,1,1.0,-10,1
0ubclurpshlgyru3cwo3stun,2,1,6,2,1,win,go,gw,rune_04_wunjo,yellow,1,1,0.447,1,0.0,+10,1
0ubclurpshlgyru3cwo3stun,2,1,7,2,3,win,no-go,ngw,rune_04_iwaz,yellow,0,1,0.547,0,1.0,+10,1
0ubclurpshlgyru3cwo3stun,2,1,8,2,4,lose,go,gal,rune_04_ac,blue,1,0,,0,0.0,-10,0
0ubclurpshlgyru3cwo3stun,2,1,9,3,3,win,no-go,ngw,rune_04_iwaz,yellow,0,1,0.76,0,0.0,+1,1
0ubclurpshlgyru3cwo3stun,2,1,10,3,1,win,go,gw,rune_04_wunjo,yellow,1,1,0.442,1,1.0,+1,1
0ubclurpshlgyru3cwo3stun,2,1,11,3,4,lose,go,gal,rune_04_ac,blue,1,1,0.442,1,1.0,-10,1
0ubclurpshlgyru3cwo3stun,2,1,12,3,2,lose,no-go,ngal,rune_04_dagaz,blue,0,1,0.78,0,0.0,-10,1
0ubclurpshlgyru3cwo3stun,2,1,13,4,2,lose,no-go,ngal,rune_04_dagaz,blue,0,1,0.812,0,0.0,-10,1
0ubclurpshlgyru3cwo3stun,2,1,14,4,4,lose,go,gal,rune_04_ac,blue,1,0,,0,0.0,-10,1
0ubclurpshlgyru3cwo3stun,2,1,15,4,1,win,go,gw,rune_04_wunjo,yellow,1,1,0.4,1,0.0,+10,1
0ubclurpshlgyru3cwo3stun,2,1,16,4,3,win,no-go,ngw,rune_04_iwaz,yellow,0,0,,1,0.0,+10,0
0ubclurpshlgyru3cwo3stun,2,1,17,5,1,win,go,gw,rune_04_wunjo,yellow,1,1,0.588,1,0.0,+10,1
0ubclurpshlgyru3cwo3stun,2,1,18,5,2,lose,no-go,ngal,rune_04_dagaz,blue,0,1,0.903,0,0.0,-10,1
0ubclurpshlgyru3cwo3stun,2,1,19,5,3,win,no-go,ngw,rune_04_iwaz,yellow,0,0,,1,0.0,+10,0
0ubclurpshlgyru3cwo3stun,2,1,20,5,4,lose,go,gal,rune_04_ac,blue,1,1,1.076,1,0.0,-1,1
0ubclurpshlgyru3cwo3stun,2,1,21,6,3,win,no-go,ngw,rune_04_iwaz,yellow,0,0,,1,0.0,+10,0
0ubclurpshlgyru3cwo3stun,2,1,22,6,4,lose,go,gal,rune_04_ac,blue,1,1,1.285,1,0.0,-1,1
0ubclurpshlgyru3cwo3stun,2,1,23,6,1,win,go,gw,rune_04_wunjo,yellow,1,1,0.572,1,0.0,+10,1
0ubclurpshlgyru3cwo3stun,2,1,24,6,2,lose,no-go,ngal,rune_04_dagaz,blue,0,0,,1,1.0,-10,0
0ubclurpshlgyru3cwo3stun,2,1,25,7,3,win,no-go,ngw,rune_04_iwaz,yellow,0,0,,1,0.0,+10,0
0ubclurpshlgyru3cwo3stun,2,1,26,7,2,lose,no-go,ngal,rune_04_dagaz,blue,0,0,,1,0.0,-1,0
0ubclurpshlgyru3cwo3stun,2,1,27,7,1,win,go,gw,rune_04_wunjo,yellow,1,1,0.512,1,1.0,+1,1
0ubclurpshlgyru3cwo3stun,2,1,28,7,4,lose,go,gal,rune_04_ac,blue,1,1,0.885,1,0.0,-1,1
0ubclurpshlgyru3cwo3stun,2,1,29,8,3,win,no-go,ngw,rune_04_iwaz,yellow,0,0,,1,0.0,+10,0
0ubclurpshlgyru3cwo3stun,2,1,30,8,1,win,go,gw,rune_04_wunjo,yellow,1,1,0.465,1,0.0,+10,1
0ubclurpshlgyru3cwo3stun,2,1,31,8,2,lose,no-go,ngal,rune_04_dagaz,blue,0,0,,1,0.0,-1,0
0ubclurpshlgyru3cwo3stun,2,1,32,8,4,lose,go,gal,rune_04_ac,blue,1,1,0.853,1,0.0,-1,1
0ubclurpshlgyru3cwo3stun,2,1,33,9,2,lose,no-go,ngal,rune_04_dagaz,blue,0,0,,1,0.0,-1,0
0ubclurpshlgyru3cwo3stun,2,1,34,9,1,win,go,gw,rune_04_wunjo,yellow,1,1,0.326,1,0.0,+10,1
0ubclurpshlgyru3cwo3stun,2,1,35,9,4,lose,go,gal,rune_04_ac,blue,1,1,0.549,1,1.0,-10,1
0ubclurpshlgyru3cwo3stun,2,1,36,9,3,win,no-go,ngw,rune_04_iwaz,yellow,0,0,,1,1.0,+1,0
0ubclurpshlgyru3cwo3stun,2,1,37,10,3,win,no-go,ngw,rune_04_iwaz,yellow,0,0,,1,0.0,+10,0
0ubclurpshlgyru3cwo3stun,2,1,38,10,1,win,go,gw,rune_04_wunjo,yellow,1,1,0.391,1,0.0,+10,1
0ubclurpshlgyru3cwo3stun,2,1,39,10,4,lose,go,gal,rune_04_ac,blue,1,1,0.462,1,0.0,-1,1
0ubclurpshlgyru3cwo3stun,2,1,40,10,2,lose,no-go,ngal,rune_04_dagaz,blue,0,0,,1,0.0,-1,0
0ubclurpshlgyru3cwo3stun,2,1,41,11,2,lose,no-go,ngal,rune_04_dagaz,blue,0,0,,1,0.0,-1,0
0ubclurpshlgyru3cwo3stun,2,1,42,11,1,win,go,gw,rune_04_wunjo,yellow,1,1,0.409,1,0.0,+10,1
0ubclurpshlgyru3cwo3stun,2,1,43,11,3,win,no-go,ngw,rune_04_iwaz,yellow,0,0,,1,0.0,+10,0
0ubclurpshlgyru3cwo3stun,2,1,44,11,4,lose,go,gal,rune_04_ac,blue,1,1,0.324,1,0.0,-1,1
0ubclurpshlgyru3cwo3stun,2,1,45,12,1,win,go,gw,rune_04_wunjo,yellow,1,1,0.406,1,0.0,+10,1
0ubclurpshlgyru3cwo3stun,2,1,46,12,4,lose,go,gal,rune_04_ac,blue,1,1,0.354,1,0.0,-1,1
0ubclurpshlgyru3cwo3stun,2,1,47,12,3,win,no-go,ngw,rune_04_iwaz,yellow,0,0,,1,0.0,+10,0
0ubclurpshlgyru3cwo3stun,2,1,48,12,2,lose,no-go,ngal,rune_04_dagaz,blue,0,0,,1,0.0,-1,0
0ubclurpshlgyru3cwo3stun,2,1,49,13,4,lose,go,gal,rune_04_ac,blue,1,1,0.397,1,1.0,-10,1
0ubclurpshlgyru3cwo3stun,2,1,50,13,2,lose,no-go,ngal,rune_04_dagaz,blue,0,0,,1,1.0,-10,0
0ubclurpshlgyru3cwo3stun,2,1,51,13,3,win,no-go,ngw,rune_04_iwaz,yellow,0,0,,1,0.0,+10,0
0ubclurpshlgyru3cwo3stun,2,1,52,13,1,win,go,gw,rune_04_wunjo,yellow,1,1,0.391,1,0.0,+10,1
0ubclurpshlgyru3cwo3stun,2,1,53,14,4,lose,go,gal,rune_04_ac,blue,1,1,0.345,1,0.0,-1,1
0ubclurpshlgyru3cwo3stun,2,1,54,14,3,win,no-go,ngw,rune_04_iwaz,yellow,0,0,,1,0.0,+10,0
0ubclurpshlgyru3cwo3stun,2,1,55,14,2,lose,no-go,ngal,rune_04_dagaz,blue,0,0,,1,0.0,-1,0
0ubclurpshlgyru3cwo3stun,2,1,56,14,1,win,go,gw,rune_04_wunjo,yellow,1,1,0.3,1,1.0,+1,1
0ubclurpshlgyru3cwo3stun,2,1,57,15,3,win,no-go,ngw,rune_04_iwaz,yellow,0,0,,1,1.0,+1,0
0ubclurpshlgyru3cwo3stun,2,1,58,15,1,win,go,gw,rune_04_wunjo,yellow,1,1,0.54,1,0.0,+10,1
0ubclurpshlgyru3cwo3stun,2,1,59,15,4,lose,go,gal,rune_04_ac,blue,1,1,0.359,1,0.0,-1,1
0ubclurpshlgyru3cwo3stun,2,1,60,15,2,lose,no-go,ngal,rune_04_dagaz,blue,0,0,,1,0.0,-1,0
0ubclurpshlgyru3cwo3stun,2,1,61,16,3,win,no-go,ngw,rune_04_iwaz,yellow,0,0,,1,0.0,+10,0
0ubclurpshlgyru3cwo3stun,2,1,62,16,2,lose,no-go,ngal,rune_04_dagaz,blue,0,0,,1,0.0,-1,0
0ubclurpshlgyru3cwo3stun,2,1,63,16,1,win,go,gw,rune_04_wunjo,yellow,1,1,0.322,1,1.0,+1,1
0ubclurpshlgyru3cwo3stun,2,1,64,16,4,lose,go,gal,rune_04_ac,blue,1,1,0.338,1,0.0,-1,1
0ubclurpshlgyru3cwo3stun,2,1,65,17,1,win,go,gw,rune_04_wunjo,yellow,1,1,0.418,1,0.0,+10,1
0ubclurpshlgyru3cwo3stun,2,1,66,17,4,lose,go,gal,rune_04_ac,blue,1,1,0.449,1,0.0,-1,1
0ubclurpshlgyru3cwo3stun,2,1,67,17,2,lose,no-go,ngal,rune_04_dagaz,blue,0,0,,1,0.0,-1,0
0ubclurpshlgyru3cwo3stun,2,1,68,17,3,win,no-go,ngw,rune_04_iwaz,yellow,0,0,,1,0.0,+10,0
0ubclurpshlgyru3cwo3stun,2,1,69,18,2,lose,no-go,ngal,rune_04_dagaz,blue,0,0,,1,1.0,-10,0
0ubclurpshlgyru3cwo3stun,2,1,70,18,3,win,no-go,ngw,rune_04_iwaz,yellow,0,0,,1,1.0,+1,0
0ubclurpshlgyru3cwo3stun,2,1,71,18,4,lose,go,gal,rune_04_ac,blue,1,1,0.466,1,0.0,-1,1
0ubclurpshlgyru3cwo3stun,2,1,72,18,1,win,go,gw,rune_04_wunjo,yellow,1,1,0.281,1,0.0,+10,1
0ubclurpshlgyru3cwo3stun,2,1,73,19,2,lose,no-go,ngal,rune_04_dagaz,blue,0,0,,1,0.0,-1,0
0ubclurpshlgyru3cwo3stun,2,1,74,19,4,lose,go,gal,rune_04_ac,blue,1,1,0.315,1,0.0,-1,1
0ubclurpshlgyru3cwo3stun,2,1,75,19,1,win,go,gw,rune_04_wunjo,yellow,1,1,0.315,1,0.0,+10,1
0ubclurpshlgyru3cwo3stun,2,1,76,19,3,win,no-go,ngw,rune_04_iwaz,yellow,0,0,,1,0.0,+10,0
0ubclurpshlgyru3cwo3stun,2,1,77,20,1,win,go,gw,rune_04_wunjo,yellow,1,1,0.45,1,0.0,+10,1
0ubclurpshlgyru3cwo3stun,2,1,78,20,3,win,no-go,ngw,rune_04_iwaz,yellow,0,0,,1,0.0,+10,0
0ubclurpshlgyru3cwo3stun,2,1,79,20,2,lose,no-go,ngal,rune_04_dagaz,blue,0,0,,1,0.0,-1,0
0ubclurpshlgyru3cwo3stun,2,1,80,20,4,lose,go,gal,rune_04_ac,blue,1,1,0.507,1,1.0,-10,1
0ubclurpshlgyru3cwo3stun,2,1,81,21,2,lose,no-go,ngal,rune_04_dagaz,blue,0,0,,1,1.0,-10,0
0ubclurpshlgyru3cwo3stun,2,1,82,21,3,win,no-go,ngw,rune_04_iwaz,yellow,0,0,,1,0.0,+10,0
0ubclurpshlgyru3cwo3stun,2,1,83,21,1,win,go,gw,rune_04_wunjo,yellow,1,1,0.45,1,0.0,+10,1
0ubclurpshlgyru3cwo3stun,2,1,84,21,4,lose,go,gal,rune_04_ac,blue,1,1,0.357,1,1.0,-10,1
0ubclurpshlgyru3cwo3stun,2,1,85,22,2,lose,no-go,ngal,rune_04_dagaz,blue,0,0,,1,0.0,-1,0
0ubclurpshlgyru3cwo3stun,2,1,86,22,1,win,go,gw,rune_04_wunjo,yellow,1,1,0.51,1,0.0,+10,1
0ubclurpshlgyru3cwo3stun,2,1,87,22,4,lose,go,gal,rune_04_ac,blue,1,1,0.37,1,0.0,-1,1
0ubclurpshlgyru3cwo3stun,2,1,88,22,3,win,no-go,ngw,rune_04_iwaz,yellow,0,0,,1,0.0,+10,0
0ubclurpshlgyru3cwo3stun,2,1,89,23,4,lose,go,gal,rune_04_ac,blue,1,1,0.488,1,0.0,-1,1
0ubclurpshlgyru3cwo3stun,2,1,90,23,2,lose,no-go,ngal,rune_04_dagaz,blue,0,0,,1,0.0,-1,0
0ubclurpshlgyru3cwo3stun,2,1,91,23,1,win,go,gw,rune_04_wunjo,yellow,1,1,0.313,1,0.0,+10,1
0ubclurpshlgyru3cwo3stun,2,1,92,23,3,win,no-go,ngw,rune_04_iwaz,yellow,0,0,,1,1.0,+1,0
0ubclurpshlgyru3cwo3stun,2,1,93,24,3,win,no-go,ngw,rune_04_iwaz,yellow,0,0,,1,0.0,+10,0
0ubclurpshlgyru3cwo3stun,2,1,94,24,4,lose,go,gal,rune_04_ac,blue,1,1,0.403,1,0.0,-1,1
0ubclurpshlgyru3cwo3stun,2,1,95,24,2,lose,no-go,ngal,rune_04_dagaz,blue,0,0,,1,0.0,-1,0
0ubclurpshlgyru3cwo3stun,2,1,96,24,1,win,go,gw,rune_04_wunjo,yellow,1,1,0.357,1,1.0,+1,1
0ubclurpshlgyru3cwo3stun,2,1,97,25,3,win,no-go,ngw,rune_04_iwaz,yellow,0,0,,1,0.0,+10,0
0ubclurpshlgyru3cwo3stun,2,1,98,25,1,win,go,gw,rune_04_wunjo,yellow,1,1,0.468,1,0.0,+10,1
0ubclurpshlgyru3cwo3stun,2,1,99,25,2,lose,no-go,ngal,rune_04_dagaz,blue,0,0,,1,0.0,-1,0
0ubclurpshlgyru3cwo3stun,2,1,100,25,4,lose,go,gal,rune_04_ac,blue,1,1,0.5,1,0.0,-1,1
0ubclurpshlgyru3cwo3stun,2,1,101,26,4,lose,go,gal,rune_04_ac,blue,1,1,0.519,1,0.0,-1,1
0ubclurpshlgyru3cwo3stun,2,1,102,26,2,lose,no-go,ngal,rune_04_dagaz,blue,0,0,,1,0.0,-1,0
0ubclurpshlgyru3cwo3stun,2,1,103,26,1,win,go,gw,rune_04_wunjo,yellow,1,1,0.358,1,0.0,+10,1
0ubclurpshlgyru3cwo3stun,2,1,104,26,3,win,no-go,ngw,rune_04_iwaz,yellow,0,0,,1,1.0,+1,0
0ubclurpshlgyru3cwo3stun,2,1,105,27,2,lose,no-go,ngal,rune_04_dagaz,blue,0,0,,1,0.0,-1,0
0ubclurpshlgyru3cwo3stun,2,1,106,27,4,lose,go,gal,rune_04_ac,blue,1,1,0.481,1,0.0,-1,1
0ubclurpshlgyru3cwo3stun,2,1,107,27,3,win,no-go,ngw,rune_04_iwaz,yellow,0,0,,1,0.0,+10,0
0ubclurpshlgyru3cwo3stun,2,1,108,27,1,win,go,gw,rune_04_wunjo,yellow,1,1,0.537,1,0.0,+10,1
0ubclurpshlgyru3cwo3stun,2,1,109,28,3,win,no-go,ngw,rune_04_iwaz,yellow,0,0,,1,0.0,+10,0
0ubclurpshlgyru3cwo3stun,2,1,110,28,1,win,go,gw,rune_04_wunjo,yellow,1,1,0.486,1,0.0,+10,1
0ubclurpshlgyru3cwo3stun,2,1,111,28,2,lose,no-go,ngal,rune_04_dagaz,blue,0,0,,1,0.0,-1,0
0ubclurpshlgyru3cwo3stun,2,1,112,28,4,lose,go,gal,rune_04_ac,blue,1,1,0.47,1,0.0,-1,1
0ubclurpshlgyru3cwo3stun,2,1,113,29,3,win,no-go,ngw,rune_04_iwaz,yellow,0,0,,1,0.0,+10,0
0ubclurpshlgyru3cwo3stun,2,1,114,29,2,lose,no-go,ngal,rune_04_dagaz,blue,0,0,,1,1.0,-10,0
0ubclurpshlgyru3cwo3stun,2,1,115,29,1,win,go,gw,rune_04_wunjo,yellow,1,1,0.595,1,1.0,+1,1
0ubclurpshlgyru3cwo3stun,2,1,116,29,4,lose,go,gal,rune_04_ac,blue,1,1,0.512,1,1.0,-10,1
0ubclurpshlgyru3cwo3stun,2,1,117,30,4,lose,go,gal,rune_04_ac,blue,1,1,0.524,1,0.0,-1,1
0ubclurpshlgyru3cwo3stun,2,1,118,30,2,lose,no-go,ngal,rune_04_dagaz,blue,0,0,,1,0.0,-1,0
0ubclurpshlgyru3cwo3stun,2,1,119,30,1,win,go,gw,rune_04_wunjo,yellow,1,1,0.319,1,0.0,+10,1
0ubclurpshlgyru3cwo3stun,2,1,120,30,3,win,no-go,ngw,rune_04_iwaz,yellow,0,0,,1,0.0,+10,0
0ubclurpshlgyru3cwo3stun,2,2,121,1,5,lose,no-go,ngal,rune_03_uruz,blue,0,1,1.112,0,0.0,-10,1
0ubclurpshlgyru3cwo3stun,2,2,122,1,6,win,no-go,ngw,rune_03_naudiz,yellow,0,1,0.687,0,0.0,+1,1
0ubclurpshlgyru3cwo3stun,2,2,123,1,7,lose,go,gal,rune_03_algiz,blue,1,1,0.689,1,0.0,-1,1
0ubclurpshlgyru3cwo3stun,2,2,124,1,8,win,go,gw,rune_03_othalan,yellow,1,1,0.86,1,0.0,+10,1
0ubclurpshlgyru3cwo3stun,2,2,125,2,7,lose,go,gal,rune_03_algiz,blue,1,1,1.052,1,0.0,-1,1
0ubclurpshlgyru3cwo3stun,2,2,126,2,8,win,go,gw,rune_03_othalan,yellow,1,1,0.77,1,0.0,+10,1
0ubclurpshlgyru3cwo3stun,2,2,127,2,6,win,no-go,ngw,rune_03_naudiz,yellow,0,0,,1,1.0,+1,0
0ubclurpshlgyru3cwo3stun,2,2,128,2,5,lose,no-go,ngal,rune_03_uruz,blue,0,0,,1,1.0,-10,0
0ubclurpshlgyru3cwo3stun,2,2,129,3,6,win,no-go,ngw,rune_03_naudiz,yellow,0,1,0.323,0,0.0,+1,1
0ubclurpshlgyru3cwo3stun,2,2,130,3,8,win,go,gw,rune_03_othalan,yellow,1,1,0.514,1,1.0,+1,1
0ubclurpshlgyru3cwo3stun,2,2,131,3,5,lose,no-go,ngal,rune_03_uruz,blue,0,1,1.075,0,0.0,-10,1
0ubclurpshlgyru3cwo3stun,2,2,132,3,7,lose,go,gal,rune_03_algiz,blue,1,1,0.506,1,1.0,-10,1
0ubclurpshlgyru3cwo3stun,2,2,133,4,5,lose,no-go,ngal,rune_03_uruz,blue,0,0,,1,0.0,-1,0
0ubclurpshlgyru3cwo3stun,2,2,134,4,7,lose,go,gal,rune_03_algiz,blue,1,1,0.534,1,0.0,-1,1
0ubclurpshlgyru3cwo3stun,2,2,135,4,6,win,no-go,ngw,rune_03_naudiz,yellow,0,0,,1,0.0,+10,0
0ubclurpshlgyru3cwo3stun,2,2,136,4,8,win,go,gw,rune_03_othalan,yellow,1,1,0.357,1,0.0,+10,1
0ubclurpshlgyru3cwo3stun,2,2,137,5,8,win,go,gw,rune_03_othalan,yellow,1,1,0.77,1,0.0,+10,1
0ubclurpshlgyru3cwo3stun,2,2,138,5,6,win,no-go,ngw,rune_03_naudiz,yellow,0,0,,1,0.0,+10,0
0ubclurpshlgyru3cwo3stun,2,2,139,5,5,lose,no-go,ngal,rune_03_uruz,blue,0,1,1.07,0,0.0,-10,1
0ubclurpshlgyru3cwo3stun,2,2,140,5,7,lose,go,gal,rune_03_algiz,blue,1,1,0.505,1,0.0,-1,1
0ubclurpshlgyru3cwo3stun,2,2,141,6,7,lose,go,gal,rune_03_algiz,blue,1,1,0.576,1,0.0,-1,1
0ubclurpshlgyru3cwo3stun,2,2,142,6,6,win,no-go,ngw,rune_03_naudiz,yellow,0,0,,1,0.0,+10,0
0ubclurpshlgyru3cwo3stun,2,2,143,6,8,win,go,gw,rune_03_othalan,yellow,1,1,0.447,1,0.0,+10,1
0ubclurpshlgyru3cwo3stun,2,2,144,6,5,lose,no-go,ngal,rune_03_uruz,blue,0,0,,1,1.0,-10,0
0ubclurpshlgyru3cwo3stun,2,2,145,7,6,win,no-go,ngw,rune_03_naudiz,yellow,0,0,,1,0.0,+10,0
0ubclurpshlgyru3cwo3stun,2,2,146,7,8,win,go,gw,rune_03_othalan,yellow,1,1,0.479,1,1.0,+1,1
0ubclurpshlgyru3cwo3stun,2,2,147,7,7,lose,go,gal,rune_03_algiz,blue,1,1,0.333,1,0.0,-1,1
0ubclurpshlgyru3cwo3stun,2,2,148,7,5,lose,no-go,ngal,rune_03_uruz,blue,0,0,,1,0.0,-1,0
0ubclurpshlgyru3cwo3stun,2,2,149,8,6,win,no-go,ngw,rune_03_naudiz,yellow,0,0,,1,0.0,+10,0
0ubclurpshlgyru3cwo3stun,2,2,150,8,7,lose,go,gal,rune_03_algiz,blue,1,1,0.445,1,0.0,-1,1
0ubclurpshlgyru3cwo3stun,2,2,151,8,5,lose,no-go,ngal,rune_03_uruz,blue,0,0,,1,0.0,-1,0
0ubclurpshlgyru3cwo3stun,2,2,152,8,8,win,go,gw,rune_03_othalan,yellow,1,1,0.382,1,0.0,+10,1
0ubclurpshlgyru3cwo3stun,2,2,153,9,7,lose,go,gal,rune_03_algiz,blue,1,1,0.521,1,1.0,-10,1
0ubclurpshlgyru3cwo3stun,2,2,154,9,5,lose,no-go,ngal,rune_03_uruz,blue,0,0,,1,0.0,-1,0
0ubclurpshlgyru3cwo3stun,2,2,155,9,8,win,go,gw,rune_03_othalan,yellow,1,1,0.409,1,0.0,+10,1
0ubclurpshlgyru3cwo3stun,2,2,156,9,6,win,no-go,ngw,rune_03_naudiz,yellow,0,0,,1,1.0,+1,0
0ubclurpshlgyru3cwo3stun,2,2,157,10,5,lose,no-go,ngal,rune_03_uruz,blue,0,0,,1,0.0,-1,0
0ubclurpshlgyru3cwo3stun,2,2,158,10,7,lose,go,gal,rune_03_algiz,blue,1,1,0.488,1,0.0,-1,1
0ubclurpshlgyru3cwo3stun,2,2,159,10,6,win,no-go,ngw,rune_03_naudiz,yellow,0,0,,1,0.0,+10,0
0ubclurpshlgyru3cwo3stun,2,2,160,10,8,win,go,gw,rune_03_othalan,yellow,1,1,0.417,1,0.0,+10,1
0ubclurpshlgyru3cwo3stun,2,2,161,11,6,win,no-go,ngw,rune_03_naudiz,yellow,0,0,,1,0.0,+10,0
0ubclurpshlgyru3cwo3stun,2,2,162,11,5,lose,no-go,ngal,rune_03_uruz,blue,0,0,,1,0.0,-1,0
0ubclurpshlgyru3cwo3stun,2,2,163,11,7,lose,go,gal,rune_03_algiz,blue,1,1,0.462,1,0.0,-1,1
0ubclurpshlgyru3cwo3stun,2,2,164,11,8,win,go,gw,rune_03_othalan,yellow,1,1,0.46,1,0.0,+10,1
0ubclurpshlgyru3cwo3stun,2,2,165,12,6,win,no-go,ngw,rune_03_naudiz,yellow,0,0,,1,0.0,+10,0
0ubclurpshlgyru3cwo3stun,2,2,166,12,5,lose,no-go,ngal,rune_03_uruz,blue,0,0,,1,0.0,-1,0
0ubclurpshlgyru3cwo3stun,2,2,167,12,7,lose,go,gal,rune_03_algiz,blue,1,1,0.423,1,0.0,-1,1
0ubclurpshlgyru3cwo3stun,2,2,168,12,8,win,go,gw,rune_03_othalan,yellow,1,1,0.415,1,0.0,+10,1
0ubclurpshlgyru3cwo3stun,2,2,169,13,5,lose,no-go,ngal,rune_03_uruz,blue,0,0,,1,1.0,-10,0
0ubclurpshlgyru3cwo3stun,2,2,170,13,8,win,go,gw,rune_03_othalan,yellow,1,1,0.401,1,0.0,+10,1
0ubclurpshlgyru3cwo3stun,2,2,171,13,7,lose,go,gal,rune_03_algiz,blue,1,1,0.401,1,1.0,-10,1
0ubclurpshlgyru3cwo3stun,2,2,172,13,6,win,no-go,ngw,rune_03_naudiz,yellow,0,0,,1,0.0,+10,0
0ubclurpshlgyru3cwo3stun,2,2,173,14,6,win,no-go,ngw,rune_03_naudiz,yellow,0,0,,1,0.0,+10,0
0ubclurpshlgyru3cwo3stun,2,2,174,14,7,lose,go,gal,rune_03_algiz,blue,1,1,0.421,1,0.0,-1,1
0ubclurpshlgyru3cwo3stun,2,2,175,14,5,lose,no-go,ngal,rune_03_uruz,blue,0,0,,1,0.0,-1,0
0ubclurpshlgyru3cwo3stun,2,2,176,14,8,win,go,gw,rune_03_othalan,yellow,1,1,0.283,1,1.0,+1,1
0ubclurpshlgyru3cwo3stun,2,2,177,15,7,lose,go,gal,rune_03_algiz,blue,1,1,0.373,1,0.0,-1,1
0ubclurpshlgyru3cwo3stun,2,2,178,15,5,lose,no-go,ngal,rune_03_uruz,blue,0,0,,1,0.0,-1,0
0ubclurpshlgyru3cwo3stun,2,2,179,15,8,win,go,gw,rune_03_othalan,yellow,1,1,0.36,1,0.0,+10,1
0ubclurpshlgyru3cwo3stun,2,2,180,15,6,win,no-go,ngw,rune_03_naudiz,yellow,0,0,,1,1.0,+1,0
0ubclurpshlgyru3cwo3stun,2,2,181,16,7,lose,go,gal,rune_03_algiz,blue,1,1,0.28,1,0.0,-1,1
0ubclurpshlgyru3cwo3stun,2,2,182,16,6,win,no-go,ngw,rune_03_naudiz,yellow,0,0,,1,0.0,+10,0
0ubclurpshlgyru3cwo3stun,2,2,183,16,8,win,go,gw,rune_03_othalan,yellow,1,1,0.362,1,1.0,+1,1
0ubclurpshlgyru3cwo3stun,2,2,184,16,5,lose,no-go,ngal,rune_03_uruz,blue,0,0,,1,0.0,-1,0
0ubclurpshlgyru3cwo3stun,2,2,185,17,8,win,go,gw,rune_03_othalan,yellow,1,1,0.35,1,0.0,+10,1
0ubclurpshlgyru3cwo3stun,2,2,186,17,7,lose,go,gal,rune_03_algiz,blue,1,1,0.478,1,0.0,-1,1
0ubclurpshlgyru3cwo3stun,2,2,187,17,6,win,no-go,ngw,rune_03_naudiz,yellow,0,0,,1,0.0,+10,0
0ubclurpshlgyru3cwo3stun,2,2,188,17,5,lose,no-go,ngal,rune_03_uruz,blue,0,0,,1,0.0,-1,0
0ubclurpshlgyru3cwo3stun,2,2,189,18,5,lose,no-go,ngal,rune_03_uruz,blue,0,0,,1,1.0,-10,0
0ubclurpshlgyru3cwo3stun,2,2,190,18,6,win,no-go,ngw,rune_03_naudiz,yellow,0,0,,1,1.0,+1,0
0ubclurpshlgyru3cwo3stun,2,2,191,18,8,win,go,gw,rune_03_othalan,yellow,1,1,0.39,1,0.0,+10,1
0ubclurpshlgyru3cwo3stun,2,2,192,18,7,lose,go,gal,rune_03_algiz,blue,1,1,0.415,1,0.0,-1,1
0ubclurpshlgyru3cwo3stun,2,2,193,19,8,win,go,gw,rune_03_othalan,yellow,1,1,0.487,1,0.0,+10,1
0ubclurpshlgyru3cwo3stun,2,2,194,19,7,lose,go,gal,rune_03_algiz,blue,1,1,0.443,1,0.0,-1,1
0ubclurpshlgyru3cwo3stun,2,2,195,19,5,lose,no-go,ngal,rune_03_uruz,blue,0,0,,1,0.0,-1,0
0ubclurpshlgyru3cwo3stun,2,2,196,19,6,win,no-go,ngw,rune_03_naudiz,yellow,0,0,,1,0.0,+10,0
0ubclurpshlgyru3cwo3stun,2,2,197,20,6,win,no-go,ngw,rune_03_naudiz,yellow,0,0,,1,0.0,+10,0
0ubclurpshlgyru3cwo3stun,2,2,198,20,7,lose,go,gal,rune_03_algiz,blue,1,1,0.508,1,1.0,-10,1
0ubclurpshlgyru3cwo3stun,2,2,199,20,8,win,go,gw,rune_03_othalan,yellow,1,1,0.464,1,0.0,+10,1
0ubclurpshlgyru3cwo3stun,2,2,200,20,5,lose,no-go,ngal,rune_03_uruz,blue,0,0,,1,0.0,-1,0
0ubclurpshlgyru3cwo3stun,2,2,201,21,5,lose,no-go,ngal,rune_03_uruz,blue,0,0,,1,1.0,-10,0
0ubclurpshlgyru3cwo3stun,2,2,202,21,7,lose,go,gal,rune_03_algiz,blue,1,1,0.425,1,1.0,-10,1
0ubclurpshlgyru3cwo3stun,2,2,203,21,8,win,go,gw,rune_03_othalan,yellow,1,1,0.391,1,0.0,+10,1
0ubclurpshlgyru3cwo3stun,2,2,204,21,6,win,no-go,ngw,rune_03_naudiz,yellow,0,0,,1,0.0,+10,0
0ubclurpshlgyru3cwo3stun,2,2,205,22,6,win,no-go,ngw,rune_03_naudiz,yellow,0,0,,1,0.0,+10,0
0ubclurpshlgyru3cwo3stun,2,2,206,22,7,lose,go,gal,rune_03_algiz,blue,1,1,0.428,1,0.0,-1,1
0ubclurpshlgyru3cwo3stun,2,2,207,22,8,win,go,gw,rune_03_othalan,yellow,1,1,0.276,1,0.0,+10,1
0ubclurpshlgyru3cwo3stun,2,2,208,22,5,lose,no-go,ngal,rune_03_uruz,blue,0,0,,1,0.0,-1,0
0ubclurpshlgyru3cwo3stun,2,2,209,23,5,lose,no-go,ngal,rune_03_uruz,blue,0,0,,1,0.0,-1,0
0ubclurpshlgyru3cwo3stun,2,2,210,23,7,lose,go,gal,rune_03_algiz,blue,1,1,0.493,1,0.0,-1,1
0ubclurpshlgyru3cwo3stun,2,2,211,23,6,win,no-go,ngw,rune_03_naudiz,yellow,0,0,,1,1.0,+1,0
0ubclurpshlgyru3cwo3stun,2,2,212,23,8,win,go,gw,rune_03_othalan,yellow,1,1,0.347,1,0.0,+10,1
0ubclurpshlgyru3cwo3stun,2,2,213,24,8,win,go,gw,rune_03_othalan,yellow,1,1,0.442,1,1.0,+1,1
0ubclurpshlgyru3cwo3stun,2,2,214,24,6,win,no-go,ngw,rune_03_naudiz,yellow,0,0,,1,0.0,+10,0
0ubclurpshlgyru3cwo3stun,2,2,215,24,5,lose,no-go,ngal,rune_03_uruz,blue,0,0,,1,0.0,-1,0
0ubclurpshlgyru3cwo3stun,2,2,216,24,7,lose,go,gal,rune_03_algiz,blue,1,1,0.458,1,0.0,-1,1
0ubclurpshlgyru3cwo3stun,2,2,217,25,5,lose,no-go,ngal,rune_03_uruz,blue,0,0,,1,0.0,-1,0
0ubclurpshlgyru3cwo3stun,2,2,218,25,6,win,no-go,ngw,rune_03_naudiz,yellow,0,0,,1,0.0,+10,0
0ubclurpshlgyru3cwo3stun,2,2,219,25,8,win,go,gw,rune_03_othalan,yellow,1,1,0.457,1,0.0,+10,1
0ubclurpshlgyru3cwo3stun,2,2,220,25,7,lose,go,gal,rune_03_algiz,blue,1,1,0.444,1,0.0,-1,1
0ubclurpshlgyru3cwo3stun,2,2,221,26,6,win,no-go,ngw,rune_03_naudiz,yellow,0,0,,1,1.0,+1,0
0ubclurpshlgyru3cwo3stun,2,2,222,26,7,lose,go,gal,rune_03_algiz,blue,1,1,0.455,1,0.0,-1,1
0ubclurpshlgyru3cwo3stun,2,2,223,26,5,lose,no-go,ngal,rune_03_uruz,blue,0,0,,1,0.0,-1,0
0ubclurpshlgyru3cwo3stun,2,2,224,26,8,win,go,gw,rune_03_othalan,yellow,1,1,0.436,1,0.0,+10,1
0ubclurpshlgyru3cwo3stun,2,2,225,27,6,win,no-go,ngw,rune_03_naudiz,yellow,0,0,,1,0.0,+10,0
0ubclurpshlgyru3cwo3stun,2,2,226,27,5,lose,no-go,ngal,rune_03_uruz,blue,0,0,,1,0.0,-1,0
0ubclurpshlgyru3cwo3stun,2,2,227,27,8,win,go,gw,rune_03_othalan,yellow,1,1,0.385,1,0.0,+10,1
0ubclurpshlgyru3cwo3stun,2,2,228,27,7,lose,go,gal,rune_03_algiz,blue,1,1,0.532,1,0.0,-1,1
0ubclurpshlgyru3cwo3stun,2,2,229,28,5,lose,no-go,ngal,rune_03_uruz,blue,0,0,,1,0.0,-1,0
0ubclurpshlgyru3cwo3stun,2,2,230,28,7,lose,go,gal,rune_03_algiz,blue,1,1,0.408,1,0.0,-1,1
0ubclurpshlgyru3cwo3stun,2,2,231,28,6,win,no-go,ngw,rune_03_naudiz,yellow,0,0,,1,0.0,+10,0
0ubclurpshlgyru3cwo3stun,2,2,232,28,8,win,go,gw,rune_03_othalan,yellow,1,1,0.433,1,0.0,+10,1
0ubclurpshlgyru3cwo3stun,2,2,233,29,7,lose,go,gal,rune_03_algiz,blue,1,1,0.362,1,1.0,-10,1
0ubclurpshlgyru3cwo3stun,2,2,234,29,5,lose,no-go,ngal,rune_03_uruz,blue,0,0,,1,1.0,-10,0
0ubclurpshlgyru3cwo3stun,2,2,235,29,6,win,no-go,ngw,rune_03_naudiz,yellow,0,0,,1,0.0,+10,0
0ubclurpshlgyru3cwo3stun,2,2,236,29,8,win,go,gw,rune_03_othalan,yellow,1,1,0.361,1,1.0,+1,1
0ubclurpshlgyru3cwo3stun,2,2,237,30,7,lose,go,gal,rune_03_algiz,blue,1,1,0.462,1,0.0,-1,1
0ubclurpshlgyru3cwo3stun,2,2,238,30,5,lose,no-go,ngal,rune_03_uruz,blue,0,0,,1,0.0,-1,0
0ubclurpshlgyru3cwo3stun,2,2,239,30,6,win,no-go,ngw,rune_03_naudiz,yellow,0,0,,1,0.0,+10,0
0ubclurpshlgyru3cwo3stun,2,2,240,30,8,win,go,gw,rune_03_othalan,yellow,1,1,0.382,1,0.0,+10,1
12ide102xqajrz6cxib9berc,2,1,1,1,1,lose,no-go,ngal,rune_04_wunjo,yellow,0,1,0.903,0,0.0,-10,1
12ide102xqajrz6cxib9berc,2,1,2,1,2,win,no-go,ngw,rune_04_ac,blue,0,1,0.716,0,0.0,+1,1
12ide102xqajrz6cxib9berc,2,1,3,1,3,win,go,gw,rune_04_iwaz,blue,1,1,0.717,1,1.0,+1,1
12ide102xqajrz6cxib9berc,2,1,4,1,4,lose,go,gal,rune_04_dagaz,yellow,1,1,0.763,1,0.0,-1,1
12ide102xqajrz6cxib9berc,2,1,5,2,1,lose,no-go,ngal,rune_04_wunjo,yellow,0,0,,1,0.0,-1,0
12ide102xqajrz6cxib9berc,2,1,6,2,3,win,go,gw,rune_04_iwaz,blue,1,1,0.558,1,0.0,+10,1
12ide102xqajrz6cxib9berc,2,1,7,2,2,win,no-go,ngw,rune_04_ac,blue,0,0,,1,0.0,+10,0
12ide102xqajrz6cxib9berc,2,1,8,2,4,lose,go,gal,rune_04_dagaz,yellow,1,1,0.999,1,1.0,-10,1
12ide102xqajrz6cxib9berc,2,1,9,3,3,win,go,gw,rune_04_iwaz,blue,1,1,1.212,1,0.0,+10,1
12ide102xqajrz6cxib9berc,2,1,10,3,4,lose,go,gal,rune_04_dagaz,yellow,1,1,1.214,1,0.0,-1,1
12ide102xqajrz6cxib9berc,2,1,11,3,1,lose,no-go,ngal,rune_04_wunjo,yellow,0,0,,1,1.0,-10,0
12ide102xqajrz6cxib9berc,2,1,12,3,2,win,no-go,ngw,rune_04_ac,blue,0,0,,1,1.0,+1,0
12ide102xqajrz6cxib9berc,2,1,13,4,2,win,no-go,ngw,rune_04_ac,blue,0,1,0.948,0,0.0,+1,1
12ide102xqajrz6cxib9berc,2,1,14,4,3,win,go,gw,rune_04_iwaz,blue,1,1,0.833,1,0.0,+10,1
12ide102xqajrz6cxib9berc,2,1,15,4,1,lose,no-go,ngal,rune_04_wunjo,yellow,0,0,,1,0.0,-1,0
12ide102xqajrz6cxib9berc,2,1,16,4,4,lose,go,gal,rune_04_dagaz,yellow,1,1,0.867,1,0.0,-1,1
12ide102xqajrz6cxib9berc,2,1,17,5,1,lose,no-go,ngal,rune_04_wunjo,yellow,0,0,,1,0.0,-1,0
12ide102xqajrz6cxib9berc,2,1,18,5,4,lose,go,gal,rune_04_dagaz,yellow,1,1,1.302,1,0.0,-1,1
12ide102xqajrz6cxib9berc,2,1,19,5,2,win,no-go,ngw,rune_04_ac,blue,0,0,,1,0.0,+10,0
12ide102xqajrz6cxib9berc,2,1,20,5,3,win,go,gw,rune_04_iwaz,blue,1,1,0.734,1,0.0,+10,1
12ide102xqajrz6cxib9berc,2,1,21,6,4,lose,go,gal,rune_04_dagaz,yellow,1,1,0.903,1,1.0,-10,1
12ide102xqajrz6cxib9berc,2,1,22,6,1,lose,no-go,ngal,rune_04_wunjo,yellow,0,0,,1,0.0,-1,0
12ide102xqajrz6cxib9berc,2,1,23,6,2,win,no-go,ngw,rune_04_ac,blue,0,0,,1,0.0,+10,0
12ide102xqajrz6cxib9berc,2,1,24,6,3,win,go,gw,rune_04_iwaz,blue,1,1,0.683,1,1.0,+1,1
12ide102xqajrz6cxib9berc,2,1,25,7,1,lose,no-go,ngal,rune_04_wunjo,yellow,0,0,,1,0.0,-1,0
12ide102xqajrz6cxib9berc,2,1,26,7,4,lose,go,gal,rune_04_dagaz,yellow,1,1,0.748,1,0.0,-1,1
12ide102xqajrz6cxib9berc,2,1,27,7,3,win,go,gw,rune_04_iwaz,blue,1,1,0.965,1,0.0,+10,1
12ide102xqajrz6cxib9berc,2,1,28,7,2,win,no-go,ngw,rune_04_ac,blue,0,0,,1,0.0,+10,0
12ide102xqajrz6cxib9berc,2,1,29,8,3,win,go,gw,rune_04_iwaz,blue,1,1,1.116,1,0.0,+10,1
12ide102xqajrz6cxib9berc,2,1,30,8,2,win,no-go,ngw,rune_04_ac,blue,0,0,,1,1.0,+1,0
12ide102xqajrz6cxib9berc,2,1,31,8,4,lose,go,gal,rune_04_dagaz,yellow,1,1,1.181,1,0.0,-1,1
12ide102xqajrz6cxib9berc,2,1,32,8,1,lose,no-go,ngal,rune_04_wunjo,yellow,0,0,,1,0.0,-1,0
12ide102xqajrz6cxib9berc,2,1,33,9,2,win,no-go,ngw,rune_04_ac,blue,0,1,1.371,0,0.0,+1,1
12ide102xqajrz6cxib9berc,2,1,34,9,3,win,go,gw,rune_04_iwaz,blue,1,0,,0,0.0,+1,1
12ide102xqajrz6cxib9berc,2,1,35,9,1,lose,no-go,ngal,rune_04_wunjo,yellow,0,0,,1,1.0,-10,0
12ide102xqajrz6cxib9berc,2,1,36,9,4,lose,go,gal,rune_04_dagaz,yellow,1,1,0.774,1,0.0,-1,1
12ide102xqajrz6cxib9berc,2,1,37,10,1,lose,no-go,ngal,rune_04_wunjo,yellow,0,0,,1,0.0,-1,1
12ide102xqajrz6cxib9berc,2,1,38,10,2,win,no-go,ngw,rune_04_ac,blue,0,0,,1,0.0,+10,0
12ide102xqajrz6cxib9berc,2,1,39,10,4,lose,go,gal,rune_04_dagaz,yellow,1,0,,0,0.0,-10,1
12ide102xqajrz6cxib9berc,2,1,40,10,3,win,go,gw,rune_04_iwaz,blue,1,1,1.229,1,0.0,+10,1
12ide102xqajrz6cxib9berc,2,1,41,11,1,lose,no-go,ngal,rune_04_wunjo,yellow,0,1,0.968,0,0.0,-10,1
12ide102xqajrz6cxib9berc,2,1,42,11,2,win,no-go,ngw,rune_04_ac,blue,0,1,1.343,0,0.0,+1,1
12ide102xqajrz6cxib9berc,2,1,43,11,4,lose,go,gal,rune_04_dagaz,yellow,1,1,1.277,1,0.0,-1,1
12ide102xqajrz6cxib9berc,2,1,44,11,3,win,go,gw,rune_04_iwaz,blue,1,1,1.03,1,0.0,+10,1
12ide102xqajrz6cxib9berc,2,1,45,12,3,win,go,gw,rune_04_iwaz,blue,1,0,,0,0.0,+1,1
12ide102xqajrz6cxib9berc,2,1,46,12,4,lose,go,gal,rune_04_dagaz,yellow,1,1,1.288,1,0.0,-1,1
12ide102xqajrz6cxib9berc,2,1,47,12,2,win,no-go,ngw,rune_04_ac,blue,0,0,,1,0.0,+10,0
12ide102xqajrz6cxib9berc,2,1,48,12,1,lose,no-go,ngal,rune_04_wunjo,yellow,0,0,,1,1.0,-10,0
12ide102xqajrz6cxib9berc,2,1,49,13,1,lose,no-go,ngal,rune_04_wunjo,yellow,0,0,,1,0.0,-1,0
12ide102xqajrz6cxib9berc,2,1,50,13,4,lose,go,gal,rune_04_dagaz,yellow,1,1,0.79,1,0.0,-1,1
12ide102xqajrz6cxib9berc,2,1,51,13,3,win,go,gw,rune_04_iwaz,blue,1,0,,0,0.0,+1,1
12ide102xqajrz6cxib9berc,2,1,52,13,2,win,no-go,ngw,rune_04_ac,blue,0,0,,1,1.0,+1,0
12ide102xqajrz6cxib9berc,2,1,53,14,2,win,no-go,ngw,rune_04_ac,blue,0,1,1.27,0,0.0,+1,1
12ide102xqajrz6cxib9berc,2,1,54,14,3,win,go,gw,rune_04_iwaz,blue,1,1,1.09,1,1.0,+1,1
12ide102xqajrz6cxib9berc,2,1,55,14,4,lose,go,gal,rune_04_dagaz,yellow,1,0,,0,1.0,-1,1
12ide102xqajrz6cxib9berc,2,1,56,14,1,lose,no-go,ngal,rune_04_wunjo,yellow,0,0,,1,0.0,-1,0
12ide102xqajrz6cxib9berc,2,1,57,15,3,win,go,gw,rune_04_iwaz,blue,1,1,0.894,1,0.0,+10,1
12ide102xqajrz6cxib9berc,2,1,58,15,2,win,no-go,ngw,rune_04_ac,blue,0,0,,1,0.0,+10,0
12ide102xqajrz6cxib9berc,2,1,59,15,4,lose,go,gal,rune_04_dagaz,yellow,1,1,0.743,1,0.0,-1,1
12ide102xqajrz6cxib9berc,2,1,60,15,1,lose,no-go,ngal,rune_04_wunjo,yellow,0,0,,1,0.0,-1,0
12ide102xqajrz6cxib9berc,2,1,61,16,1,lose,no-go,ngal,rune_04_wunjo,yellow,0,1,1.212,0,0.0,-10,1
12ide102xqajrz6cxib9berc,2,1,62,16,4,lose,go,gal,rune_04_dagaz,yellow,1,1,0.844,1,0.0,-1,1
12ide102xqajrz6cxib9berc,2,1,63,16,2,win,no-go,ngw,rune_04_ac,blue,0,0,,1,0.0,+10,0
12ide102xqajrz6cxib9berc,2,1,64,16,3,win,go,gw,rune_04_iwaz,blue,1,1,0.684,1,0.0,+10,1
12ide102xqajrz6cxib9berc,2,1,65,17,1,lose,no-go,ngal,rune_04_wunjo,yellow,0,0,,1,0.0,-1,0
12ide102xqajrz6cxib9berc,2,1,66,17,4,lose,go,gal,rune_04_dagaz,yellow,1,1,0.673,1,0.0,-1,1
12ide102xqajrz6cxib9berc,2,1,67,17,3,win,go,gw,rune_04_iwaz,blue,1,1,1.403,1,0.0,+10,1
12ide102xqajrz6cxib9berc,2,1,68,17,2,win,no-go,ngw,rune_04_ac,blue,0,0,,1,0.0,+10,0
12ide102xqajrz6cxib9berc,2,1,69,18,1,lose,no-go,ngal,rune_04_wunjo,yellow,0,0,,1,1.0,-10,0
12ide102xqajrz6cxib9berc,2,1,70,18,4,lose,go,gal,rune_04_dagaz,yellow,1,1,0.806,1,0.0,-1,1
12ide102xqajrz6cxib9berc,2,1,71,18,2,win,no-go,ngw,rune_04_ac,blue,0,0,,1,1.0,+1,0
12ide102xqajrz6cxib9berc,2,1,72,18,3,win,go,gw,rune_04_iwaz,blue,1,1,0.623,1,0.0,+10,1
12ide102xqajrz6cxib9berc,2,1,73,19,4,lose,go,gal,rune_04_dagaz,yellow,1,1,0.899,1,1.0,-10,1
12ide102xqajrz6cxib9berc,2,1,74,19,1,lose,no-go,ngal,rune_04_wunjo,yellow,0,0,,1,0.0,-1,0
12ide102xqajrz6cxib9berc,2,1,75,19,2,win,no-go,ngw,rune_04_ac,blue,0,0,,1,0.0,+10,0
12ide102xqajrz6cxib9berc,2,1,76,19,3,win,go,gw,rune_04_iwaz,blue,1,1,0.771,1,0.0,+10,1
12ide102xqajrz6cxib9berc,2,1,77,20,3,win,go,gw,rune_04_iwaz,blue,1,1,0.831,1,1.0,+1,1
12ide102xqajrz6cxib9berc,2,1,78,20,2,win,no-go,ngw,rune_04_ac,blue,0,0,,1,0.0,+10,0
12ide102xqajrz6cxib9berc,2,1,79,20,1,lose,no-go,ngal,rune_04_wunjo,yellow,0,0,,1,0.0,-1,0
12ide102xqajrz6cxib9berc,2,1,80,20,4,lose,go,gal,rune_04_dagaz,yellow,1,1,0.773,1,0.0,-1,1
12ide102xqajrz6cxib9berc,2,1,81,21,3,win,go,gw,rune_04_iwaz,blue,1,1,1.03,1,1.0,+1,1
12ide102xqajrz6cxib9berc,2,1,82,21,2,win,no-go,ngw,rune_04_ac,blue,0,0,,1,1.0,+1,0
12ide102xqajrz6cxib9berc,2,1,83,21,4,lose,go,gal,rune_04_dagaz,yellow,1,1,0.876,1,0.0,-1,1
12ide102xqajrz6cxib9berc,2,1,84,21,1,lose,no-go,ngal,rune_04_wunjo,yellow,0,0,,1,0.0,-1,0
12ide102xqajrz6cxib9berc,2,1,85,22,4,lose,go,gal,rune_04_dagaz,yellow,1,1,0.812,1,0.0,-1,1
12ide102xqajrz6cxib9berc,2,1,86,22,1,lose,no-go,ngal,rune_04_wunjo,yellow,0,1,0.896,0,0.0,-10,1
12ide102xqajrz6cxib9berc,2,1,87,22,2,win,no-go,ngw,rune_04_ac,blue,0,0,,1,0.0,+10,0
12ide102xqajrz6cxib9berc,2,1,88,22,3,win,go,gw,rune_04_iwaz,blue,1,1,1.179,1,0.0,+10,1
12ide102xqajrz6cxib9berc,2,1,89,23,1,lose,no-go,ngal,rune_04_wunjo,yellow,0,0,,1,0.0,-1,0
12ide102xqajrz6cxib9berc,2,1,90,23,4,lose,go,gal,rune_04_dagaz,yellow,1,1,0.61,1,0.0,-1,1
12ide102xqajrz6cxib9berc,2,1,91,23,3,win,go,gw,rune_04_iwaz,blue,1,1,0.843,1,0.0,+10,1
12ide102xqajrz6cxib9berc,2,1,92,23,2,win,no-go,ngw,rune_04_ac,blue,0,0,,1,0.0,+10,0
12ide102xqajrz6cxib9berc,2,1,93,24,4,lose,go,gal,rune_04_dagaz,yellow,1,1,0.931,1,1.0,-10,1
12ide102xqajrz6cxib9berc,2,1,94,24,1,lose,no-go,ngal,rune_04_wunjo,yellow,0,0,,1,1.0,-10,0
12ide102xqajrz6cxib9berc,2,1,95,24,2,win,no-go,ngw,rune_04_ac,blue,0,0,,1,0.0,+10,0
12ide102xqajrz6cxib9berc,2,1,96,24,3,win,go,gw,rune_04_iwaz,blue,1,1,0.712,1,0.0,+10,1
12ide102xqajrz6cxib9berc,2,1,97,25,1,lose,no-go,ngal,rune_04_wunjo,yellow,0,1,0.791,0,0.0,-10,1
12ide102xqajrz6cxib9berc,2,1,98,25,4,lose,go,gal,rune_04_dagaz,yellow,1,1,0.697,1,0.0,-1,1
12ide102xqajrz6cxib9berc,2,1,99,25,2,win,no-go,ngw,rune_04_ac,blue,0,0,,1,0.0,+10,0
12ide102xqajrz6cxib9berc,2,1,100,25,3,win,go,gw,rune_04_iwaz,blue,1,1,0.625,1,0.0,+10,1
12ide102xqajrz6cxib9berc,2,1,101,26,1,lose,no-go,ngal,rune_04_wunjo,yellow,0,0,,1,0.0,-1,0
12ide102xqajrz6cxib9berc,2,1,102,26,3,win,go,gw,rune_04_iwaz,blue,1,1,0.872,1,0.0,+10,1
12ide102xqajrz6cxib9berc,2,1,103,26,2,win,no-go,ngw,rune_04_ac,blue,0,0,,1,0.0,+10,0
12ide102xqajrz6cxib9berc,2,1,104,26,4,lose,go,gal,rune_04_dagaz,yellow,1,1,0.928,1,1.0,-10,1
12ide102xqajrz6cxib9berc,2,1,105,27,4,lose,go,gal,rune_04_dagaz,yellow,1,1,0.836,1,0.0,-1,1
12ide102xqajrz6cxib9berc,2,1,106,27,1,lose,no-go,ngal,rune_04_wunjo,yellow,0,0,,1,0.0,-1,0
12ide102xqajrz6cxib9berc,2,1,107,27,3,win,go,gw,rune_04_iwaz,blue,1,1,0.798,1,0.0,+10,1
12ide102xqajrz6cxib9berc,2,1,108,27,2,win,no-go,ngw,rune_04_ac,blue,0,0,,1,0.0,+10,0
12ide102xqajrz6cxib9berc,2,1,109,28,1,lose,no-go,ngal,rune_04_wunjo,yellow,0,0,,1,0.0,-1,0
12ide102xqajrz6cxib9berc,2,1,110,28,2,win,no-go,ngw,rune_04_ac,blue,0,0,,1,0.0,+10,0
12ide102xqajrz6cxib9berc,2,1,111,28,4,lose,go,gal,rune_04_dagaz,yellow,1,1,0.803,1,0.0,-1,1
12ide102xqajrz6cxib9berc,2,1,112,28,3,win,go,gw,rune_04_iwaz,blue,1,1,0.721,1,1.0,+1,1
12ide102xqajrz6cxib9berc,2,1,113,29,3,win,go,gw,rune_04_iwaz,blue,1,1,0.892,1,0.0,+10,1
12ide102xqajrz6cxib9berc,2,1,114,29,1,lose,no-go,ngal,rune_04_wunjo,yellow,0,0,,1,0.0,-1,0
12ide102xqajrz6cxib9berc,2,1,115,29,4,lose,go,gal,rune_04_dagaz,yellow,1,1,0.745,1,0.0,-1,1
12ide102xqajrz6cxib9berc,2,1,116,29,2,win,no-go,ngw,rune_04_ac,blue,0,0,,1,1.0,+1,0
12ide102xqajrz6cxib9berc,2,1,117,30,1,lose,no-go,ngal,rune_04_wunjo,yellow,0,0,,1,1.0,-10,0
12ide102xqajrz6cxib9berc,2,1,118,30,4,lose,go,gal,rune_04_dagaz,yellow,1,1,0.704,1,0.0,-1,1
12ide102xqajrz6cxib9berc,2,1,119,30,2,win,no-go,ngw,rune_04_ac,blue,0,0,,1,0.0,+10,0
12ide102xqajrz6cxib9berc,2,1,120,30,3,win,go,gw,rune_04_iwaz,blue,1,1,0.747,1,0.0,+10,1
12ide102xqajrz6cxib9berc,2,2,121,1,5,win,go,gw,rune_03_uruz,blue,1,1,0.531,1,1.0,+1,1
12ide102xqajrz6cxib9berc,2,2,122,1,6,lose,go,gal,rune_03_othalan,yellow,1,0,,0,0.0,-10,0
12ide102xqajrz6cxib9berc,2,2,123,1,7,win,no-go,ngw,rune_03_algiz,blue,0,1,0.811,0,0.0,+1,1
12ide102xqajrz6cxib9berc,2,2,124,1,8,lose,no-go,ngal,rune_03_naudiz,yellow,0,0,,1,0.0,-1,0
12ide102xqajrz6cxib9berc,2,2,125,2,8,lose,no-go,ngal,rune_03_naudiz,yellow,0,0,,1,0.0,-1,0
12ide102xqajrz6cxib9berc,2,2,126,2,7,win,no-go,ngw,rune_03_algiz,blue,0,1,1.08,0,0.0,+1,1
12ide102xqajrz6cxib9berc,2,2,127,2,6,lose,go,gal,rune_03_othalan,yellow,1,1,0.966,1,1.0,-10,1
12ide102xqajrz6cxib9berc,2,2,128,2,5,win,go,gw,rune_03_uruz,blue,1,1,1.154,1,0.0,+10,1
12ide102xqajrz6cxib9berc,2,2,129,3,5,win,go,gw,rune_03_uruz,blue,1,0,,0,0.0,+1,0
12ide102xqajrz6cxib9berc,2,2,130,3,8,lose,no-go,ngal,rune_03_naudiz,yellow,0,0,,1,1.0,-10,0
12ide102xqajrz6cxib9berc,2,2,131,3,6,lose,go,gal,rune_03_othalan,yellow,1,1,0.653,1,0.0,-1,1
12ide102xqajrz6cxib9berc,2,2,132,3,7,win,no-go,ngw,rune_03_algiz,blue,0,0,,1,1.0,+1,0
12ide102xqajrz6cxib9berc,2,2,133,4,7,win,no-go,ngw,rune_03_algiz,blue,0,1,1.056,0,0.0,+1,1
12ide102xqajrz6cxib9berc,2,2,134,4,8,lose,no-go,ngal,rune_03_naudiz,yellow,0,1,1.205,0,0.0,-10,1
12ide102xqajrz6cxib9berc,2,2,135,4,6,lose,go,gal,rune_03_othalan,yellow,1,1,0.956,1,0.0,-1,1
12ide102xqajrz6cxib9berc,2,2,136,4,5,win,go,gw,rune_03_uruz,blue,1,0,,0,0.0,+1,0
12ide102xqajrz6cxib9berc,2,2,137,5,6,lose,go,gal,rune_03_othalan,yellow,1,1,1.053,1,0.0,-1,1
12ide102xqajrz6cxib9berc,2,2,138,5,7,win,no-go,ngw,rune_03_algiz,blue,0,1,0.842,0,0.0,+1,1
12ide102xqajrz6cxib9berc,2,2,139,5,8,lose,no-go,ngal,rune_03_naudiz,yellow,0,1,1.203,0,0.0,-10,1
12ide102xqajrz6cxib9berc,2,2,140,5,5,win,go,gw,rune_03_uruz,blue,1,1,0.844,1,0.0,+10,1
12ide102xqajrz6cxib9berc,2,2,141,6,7,win,no-go,ngw,rune_03_algiz,blue,0,0,,1,0.0,+10,0
12ide102xqajrz6cxib9berc,2,2,142,6,6,lose,go,gal,rune_03_othalan,yellow,1,1,0.744,1,1.0,-10,1
12ide102xqajrz6cxib9berc,2,2,143,6,8,lose,no-go,ngal,rune_03_naudiz,yellow,0,0,,1,0.0,-1,0
12ide102xqajrz6cxib9berc,2,2,144,6,5,win,go,gw,rune_03_uruz,blue,1,1,0.805,1,1.0,+1,1
12ide102xqajrz6cxib9berc,2,2,145,7,5,win,go,gw,rune_03_uruz,blue,1,1,0.967,1,0.0,+10,1
12ide102xqajrz6cxib9berc,2,2,146,7,8,lose,no-go,ngal,rune_03_naudiz,yellow,0,0,,1,0.0,-1,0
12ide102xqajrz6cxib9berc,2,2,147,7,7,win,no-go,ngw,rune_03_algiz,blue,0,1,1.124,0,0.0,+1,1
12ide102xqajrz6cxib9berc,2,2,148,7,6,lose,go,gal,rune_03_othalan,yellow,1,1,0.779,1,0.0,-1,1
12ide102xqajrz6cxib9berc,2,2,149,8,6,lose,go,gal,rune_03_othalan,yellow,1,1,0.89,1,0.0,-1,1
12ide102xqajrz6cxib9berc,2,2,150,8,8,lose,no-go,ngal,rune_03_naudiz,yellow,0,0,,1,0.0,-1,0
12ide102xqajrz6cxib9berc,2,2,151,8,5,win,go,gw,rune_03_uruz,blue,1,1,0.683,1,0.0,+10,1
12ide102xqajrz6cxib9berc,2,2,152,8,7,win,no-go,ngw,rune_03_algiz,blue,0,0,,1,1.0,+1,0
12ide102xqajrz6cxib9berc,2,2,153,9,7,win,no-go,ngw,rune_03_algiz,blue,0,0,,1,0.0,+10,0
12ide102xqajrz6cxib9berc,2,2,154,9,6,lose,go,gal,rune_03_othalan,yellow,1,1,0.838,1,0.0,-1,1
12ide102xqajrz6cxib9berc,2,2,155,9,8,lose,no-go,ngal,rune_03_naudiz,yellow,0,0,,1,1.0,-10,0
12ide102xqajrz6cxib9berc,2,2,156,9,5,win,go,gw,rune_03_uruz,blue,1,1,0.802,1,0.0,+10,1
12ide102xqajrz6cxib9berc,2,2,157,10,5,win,go,gw,rune_03_uruz,blue,1,0,,0,0.0,+1,1
12ide102xqajrz6cxib9berc,2,2,158,10,7,win,no-go,ngw,rune_03_algiz,blue,0,0,,1,0.0,+10,0
12ide102xqajrz6cxib9berc,2,2,159,10,6,lose,go,gal,rune_03_othalan,yellow,1,1,0.826,1,0.0,-1,1
12ide102xqajrz6cxib9berc,2,2,160,10,8,lose,no-go,ngal,rune_03_naudiz,yellow,0,0,,1,0.0,-1,0
12ide102xqajrz6cxib9berc,2,2,161,11,6,lose,go,gal,rune_03_othalan,yellow,1,1,0.618,1,0.0,-1,1
12ide102xqajrz6cxib9berc,2,2,162,11,7,win,no-go,ngw,rune_03_algiz,blue,0,0,,1,0.0,+10,0
12ide102xqajrz6cxib9berc,2,2,163,11,8,lose,no-go,ngal,rune_03_naudiz,yellow,0,0,,1,0.0,-1,0
12ide102xqajrz6cxib9berc,2,2,164,11,5,win,go,gw,rune_03_uruz,blue,1,1,0.961,1,0.0,+10,1
12ide102xqajrz6cxib9berc,2,2,165,12,6,lose,go,gal,rune_03_othalan,yellow,1,1,0.908,1,0.0,-1,1
12ide102xqajrz6cxib9berc,2,2,166,12,5,win,go,gw,rune_03_uruz,blue,1,1,0.956,1,0.0,+10,1
12ide102xqajrz6cxib9berc,2,2,167,12,8,lose,no-go,ngal,rune_03_naudiz,yellow,0,0,,1,1.0,-10,0
12ide102xqajrz6cxib9berc,2,2,168,12,7,win,no-go,ngw,rune_03_algiz,blue,0,0,,1,0.0,+10,0
12ide102xqajrz6cxib9berc,2,2,169,13,6,lose,go,gal,rune_03_othalan,yellow,1,1,0.901,1,0.0,-1,1
12ide102xqajrz6cxib9berc,2,2,170,13,7,win,no-go,ngw,rune_03_algiz,blue,0,0,,1,1.0,+1,0
12ide102xqajrz6cxib9berc,2,2,171,13,8,lose,no-go,ngal,rune_03_naudiz,yellow,0,0,,1,0.0,-1,0
12ide102xqajrz6cxib9berc,2,2,172,13,5,win,go,gw,rune_03_uruz,blue,1,1,0.825,1,0.0,+10,1
12ide102xqajrz6cxib9berc,2,2,173,14,6,lose,go,gal,rune_03_othalan,yellow,1,1,0.905,1,1.0,-10,1
12ide102xqajrz6cxib9berc,2,2,174,14,7,win,no-go,ngw,rune_03_algiz,blue,0,0,,1,0.0,+10,0
12ide102xqajrz6cxib9berc,2,2,175,14,8,lose,no-go,ngal,rune_03_naudiz,yellow,0,0,,1,0.0,-1,0
12ide102xqajrz6cxib9berc,2,2,176,14,5,win,go,gw,rune_03_uruz,blue,1,1,1.338,1,1.0,+1,1
12ide102xqajrz6cxib9berc,2,2,177,15,6,lose,go,gal,rune_03_othalan,yellow,1,1,1.09,1,0.0,-1,1
12ide102xqajrz6cxib9berc,2,2,178,15,8,lose,no-go,ngal,rune_03_naudiz,yellow,0,0,,1,0.0,-1,0
12ide102xqajrz6cxib9berc,2,2,179,15,5,win,go,gw,rune_03_uruz,blue,1,1,0.87,1,0.0,+10,1
12ide102xqajrz6cxib9berc,2,2,180,15,7,win,no-go,ngw,rune_03_algiz,blue,0,0,,1,0.0,+10,0
12ide102xqajrz6cxib9berc,2,2,181,16,8,lose,no-go,ngal,rune_03_naudiz,yellow,0,1,1.152,0,0.0,-10,1
12ide102xqajrz6cxib9berc,2,2,182,16,7,win,no-go,ngw,rune_03_algiz,blue,0,0,,1,0.0,+10,0
12ide102xqajrz6cxib9berc,2,2,183,16,6,lose,go,gal,rune_03_othalan,yellow,1,0,,0,0.0,-10,0
12ide102xqajrz6cxib9berc,2,2,184,16,5,win,go,gw,rune_03_uruz,blue,1,0,,0,0.0,+1,2
12ide102xqajrz6cxib9berc,2,2,185,17,7,win,no-go,ngw,rune_03_algiz,blue,0,0,,1,0.0,+10,0
12ide102xqajrz6cxib9berc,2,2,186,17,6,lose,go,gal,rune_03_othalan,yellow,1,0,,0,0.0,-10,1
12ide102xqajrz6cxib9berc,2,2,187,17,8,lose,no-go,ngal,rune_03_naudiz,yellow,0,0,,1,0.0,-1,1
12ide102xqajrz6cxib9berc,2,2,188,17,5,win,go,gw,rune_03_uruz,blue,1,0,,0,0.0,+1,1
12ide102xqajrz6cxib9berc,2,2,189,18,6,lose,go,gal,rune_03_othalan,yellow,1,0,,0,0.0,-10,1
12ide102xqajrz6cxib9berc,2,2,190,18,7,win,no-go,ngw,rune_03_algiz,blue,0,0,,1,1.0,+1,0
12ide102xqajrz6cxib9berc,2,2,191,18,8,lose,no-go,ngal,rune_03_naudiz,yellow,0,0,,1,1.0,-10,0
12ide102xqajrz6cxib9berc,2,2,192,18,5,win,go,gw,rune_03_uruz,blue,1,1,0.726,1,0.0,+10,1
12ide102xqajrz6cxib9berc,2,2,193,19,5,win,go,gw,rune_03_uruz,blue,1,1,1.03,1,0.0,+10,1
12ide102xqajrz6cxib9berc,2,2,194,19,7,win,no-go,ngw,rune_03_algiz,blue,0,0,,1,0.0,+10,0
12ide102xqajrz6cxib9berc,2,2,195,19,6,lose,go,gal,rune_03_othalan,yellow,1,1,0.798,1,1.0,-10,1
12ide102xqajrz6cxib9berc,2,2,196,19,8,lose,no-go,ngal,rune_03_naudiz,yellow,0,0,,1,0.0,-1,1
12ide102xqajrz6cxib9berc,2,2,197,20,8,lose,no-go,ngal,rune_03_naudiz,yellow,0,0,,1,0.0,-1,0
12ide102xqajrz6cxib9berc,2,2,198,20,5,win,go,gw,rune_03_uruz,blue,1,1,1.389,1,1.0,+1,1
12ide102xqajrz6cxib9berc,2,2,199,20,7,win,no-go,ngw,rune_03_algiz,blue,0,0,,1,0.0,+10,0
12ide102xqajrz6cxib9berc,2,2,200,20,6,lose,go,gal,rune_03_othalan,yellow,1,1,0.932,1,0.0,-1,1
12ide102xqajrz6cxib9berc,2,2,201,21,7,win,no-go,ngw,rune_03_algiz,blue,0,0,,1,1.0,+1,0
12ide102xqajrz6cxib9berc,2,2,202,21,6,lose,go,gal,rune_03_othalan,yellow,1,1,0.999,1,0.0,-1,1
12ide102xqajrz6cxib9berc,2,2,203,21,5,win,go,gw,rune_03_uruz,blue,1,0,,0,1.0,+10,1
12ide102xqajrz6cxib9berc,2,2,204,21,8,lose,no-go,ngal,rune_03_naudiz,yellow,0,0,,1,0.0,-1,0
12ide102xqajrz6cxib9berc,2,2,205,22,8,lose,no-go,ngal,rune_03_naudiz,yellow,0,0,,1,0.0,-1,0
12ide102xqajrz6cxib9berc,2,2,206,22,7,win,no-go,ngw,rune_03_algiz,blue,0,0,,1,0.0,+10,0
12ide102xqajrz6cxib9berc,2,2,207,22,5,win,go,gw,rune_03_uruz,blue,1,1,0.771,1,0.0,+10,1
12ide102xqajrz6cxib9berc,2,2,208,22,6,lose,go,gal,rune_03_othalan,yellow,1,1,0.835,1,0.0,-1,1
12ide102xqajrz6cxib9berc,2,2,209,23,6,lose,go,gal,rune_03_othalan,yellow,1,1,0.783,1,0.0,-1,1
12ide102xqajrz6cxib9berc,2,2,210,23,8,lose,no-go,ngal,rune_03_naudiz,yellow,0,0,,1,0.0,-1,0
12ide102xqajrz6cxib9berc,2,2,211,23,5,win,go,gw,rune_03_uruz,blue,1,1,0.663,1,0.0,+10,1
12ide102xqajrz6cxib9berc,2,2,212,23,7,win,no-go,ngw,rune_03_algiz,blue,0,0,,1,0.0,+10,0
12ide102xqajrz6cxib9berc,2,2,213,24,7,win,no-go,ngw,rune_03_algiz,blue,0,0,,1,0.0,+10,0
12ide102xqajrz6cxib9berc,2,2,214,24,8,lose,no-go,ngal,rune_03_naudiz,yellow,0,0,,1,1.0,-10,0
12ide102xqajrz6cxib9berc,2,2,215,24,6,lose,go,gal,rune_03_othalan,yellow,1,1,0.736,1,1.0,-10,1
12ide102xqajrz6cxib9berc,2,2,216,24,5,win,go,gw,rune_03_uruz,blue,1,1,0.784,1,0.0,+10,1
12ide102xqajrz6cxib9berc,2,2,217,25,8,lose,no-go,ngal,rune_03_naudiz,yellow,0,0,,1,0.0,-1,0
12ide102xqajrz6cxib9berc,2,2,218,25,6,lose,go,gal,rune_03_othalan,yellow,1,1,0.683,1,0.0,-1,1
12ide102xqajrz6cxib9berc,2,2,219,25,5,win,go,gw,rune_03_uruz,blue,1,1,0.904,1,0.0,+10,1
12ide102xqajrz6cxib9berc,2,2,220,25,7,win,no-go,ngw,rune_03_algiz,blue,0,0,,1,0.0,+10,0
12ide102xqajrz6cxib9berc,2,2,221,26,7,win,no-go,ngw,rune_03_algiz,blue,0,0,,1,0.0,+10,0
12ide102xqajrz6cxib9berc,2,2,222,26,8,lose,no-go,ngal,rune_03_naudiz,yellow,0,0,,1,0.0,-1,0
12ide102xqajrz6cxib9berc,2,2,223,26,6,lose,go,gal,rune_03_othalan,yellow,1,1,0.65,1,1.0,-10,1
12ide102xqajrz6cxib9berc,2,2,224,26,5,win,go,gw,rune_03_uruz,blue,1,1,0.655,1,0.0,+10,1
12ide102xqajrz6cxib9berc,2,2,225,27,6,lose,go,gal,rune_03_othalan,yellow,1,1,0.965,1,0.0,-1,1
12ide102xqajrz6cxib9berc,2,2,226,27,8,lose,no-go,ngal,rune_03_naudiz,yellow,0,0,,1,0.0,-1,0
12ide102xqajrz6cxib9berc,2,2,227,27,7,win,no-go,ngw,rune_03_algiz,blue,0,0,,1,0.0,+10,0
12ide102xqajrz6cxib9berc,2,2,228,27,5,win,go,gw,rune_03_uruz,blue,1,1,0.716,1,0.0,+10,1
12ide102xqajrz6cxib9berc,2,2,229,28,5,win,go,gw,rune_03_uruz,blue,1,1,0.773,1,1.0,+1,1
12ide102xqajrz6cxib9berc,2,2,230,28,8,lose,no-go,ngal,rune_03_naudiz,yellow,0,0,,1,0.0,-1,0
12ide102xqajrz6cxib9berc,2,2,231,28,7,win,no-go,ngw,rune_03_algiz,blue,0,0,,1,0.0,+10,0
12ide102xqajrz6cxib9berc,2,2,232,28,6,lose,go,gal,rune_03_othalan,yellow,1,1,0.896,1,0.0,-1,1
12ide102xqajrz6cxib9berc,2,2,233,29,6,lose,go,gal,rune_03_othalan,yellow,1,1,0.781,1,0.0,-1,1
12ide102xqajrz6cxib9berc,2,2,234,29,8,lose,no-go,ngal,rune_03_naudiz,yellow,0,0,,1,0.0,-1,0
12ide102xqajrz6cxib9berc,2,2,235,29,5,win,go,gw,rune_03_uruz,blue,1,1,0.737,1,0.0,+10,1
12ide102xqajrz6cxib9berc,2,2,236,29,7,win,no-go,ngw,rune_03_algiz,blue,0,0,,1,1.0,+1,0
12ide102xqajrz6cxib9berc,2,2,237,30,5,win,go,gw,rune_03_uruz,blue,1,1,0.683,1,0.0,+10,1
12ide102xqajrz6cxib9berc,2,2,238,30,6,lose,go,gal,rune_03_othalan,yellow,1,1,0.842,1,0.0,-1,1
12ide102xqajrz6cxib9berc,2,2,239,30,8,lose,no-go,ngal,rune_03_naudiz,yellow,0,0,,1,1.0,-10,0
12ide102xqajrz6cxib9berc,2,2,240,30,7,win,no-go,ngw,rune_03_algiz,blue,0,0,,1,0.0,+10,0
1e7zni3hs3hxwy7aqhg0bkb0,2,1,1,1,1,lose,no-go,ngal,rune_04_wunjo,yellow,0,1,0.162,0,0.0,-10,1
1e7zni3hs3hxwy7aqhg0bkb0,2,1,2,1,2,win,no-go,ngw,rune_04_iwaz,blue,0,1,0.407,0,0.0,+1,1
1e7zni3hs3hxwy7aqhg0bkb0,2,1,3,1,3,lose,go,gal,rune_04_ac,yellow,1,0,,0,1.0,-1,0
1e7zni3hs3hxwy7aqhg0bkb0,2,1,4,1,4,win,go,gw,rune_04_dagaz,blue,1,1,0.347,1,0.0,+10,1
1e7zni3hs3hxwy7aqhg0bkb0,2,1,5,2,4,win,go,gw,rune_04_dagaz,blue,1,1,0.343,1,0.0,+10,1
1e7zni3hs3hxwy7aqhg0bkb0,2,1,6,2,2,win,no-go,ngw,rune_04_iwaz,blue,0,1,0.872,0,0.0,+1,1
1e7zni3hs3hxwy7aqhg0bkb0,2,1,7,2,3,lose,go,gal,rune_04_ac,yellow,1,0,,0,0.0,-10,0
1e7zni3hs3hxwy7aqhg0bkb0,2,1,8,2,1,lose,no-go,ngal,rune_04_wunjo,yellow,0,1,0.652,0,0.0,-10,1
1e7zni3hs3hxwy7aqhg0bkb0,2,1,9,3,4,win,go,gw,rune_04_dagaz,blue,1,1,0.48,1,0.0,+10,1
1e7zni3hs3hxwy7aqhg0bkb0,2,1,10,3,2,win,no-go,ngw,rune_04_iwaz,blue,0,1,0.807,0,0.0,+1,1
1e7zni3hs3hxwy7aqhg0bkb0,2,1,11,3,3,lose,go,gal,rune_04_ac,yellow,1,0,,0,0.0,-10,0
1e7zni3hs3hxwy7aqhg0bkb0,2,1,12,3,1,lose,no-go,ngal,rune_04_wunjo,yellow,0,0,,1,0.0,-1,0
1e7zni3hs3hxwy7aqhg0bkb0,2,1,13,4,2,win,no-go,ngw,rune_04_iwaz,blue,0,1,0.598,0,1.0,+10,1
1e7zni3hs3hxwy7aqhg0bkb0,2,1,14,4,3,lose,go,gal,rune_04_ac,yellow,1,1,0.888,1,0.0,-1,1
1e7zni3hs3hxwy7aqhg0bkb0,2,1,15,4,1,lose,no-go,ngal,rune_04_wunjo,yellow,0,0,,1,0.0,-1,0
1e7zni3hs3hxwy7aqhg0bkb0,2,1,16,4,4,win,go,gw,rune_04_dagaz,blue,1,1,0.683,1,0.0,+10,1
1e7zni3hs3hxwy7aqhg0bkb0,2,1,17,5,2,win,no-go,ngw,rune_04_iwaz,blue,0,1,0.797,0,0.0,+1,1
1e7zni3hs3hxwy7aqhg0bkb0,2,1,18,5,3,lose,go,gal,rune_04_ac,yellow,1,0,,0,0.0,-10,0
1e7zni3hs3hxwy7aqhg0bkb0,2,1,19,5,1,lose,no-go,ngal,rune_04_wunjo,yellow,0,1,0.945,0,1.0,-1,1
1e7zni3hs3hxwy7aqhg0bkb0,2,1,20,5,4,win,go,gw,rune_04_dagaz,blue,1,1,0.575,1,1.0,+1,1
1e7zni3hs3hxwy7aqhg0bkb0,2,1,21,6,1,lose,no-go,ngal,rune_04_wunjo,yellow,0,0,,1,0.0,-1,0
1e7zni3hs3hxwy7aqhg0bkb0,2,1,22,6,4,win,go,gw,rune_04_dagaz,blue,1,1,0.404,1,0.0,+10,1
1e7zni3hs3hxwy7aqhg0bkb0,2,1,23,6,3,lose,go,gal,rune_04_ac,yellow,1,0,,0,1.0,-1,0
1e7zni3hs3hxwy7aqhg0bkb0,2,1,24,6,2,win,no-go,ngw,rune_04_iwaz,blue,0,0,,1,0.0,+10,0
1e7zni3hs3hxwy7aqhg0bkb0,2,1,25,7,1,lose,no-go,ngal,rune_04_wunjo,yellow,0,0,,1,0.0,-1,0
1e7zni3hs3hxwy7aqhg0bkb0,2,1,26,7,4,win,go,gw,rune_04_dagaz,blue,1,1,0.41,1,0.0,+10,1
1e7zni3hs3hxwy7aqhg0bkb0,2,1,27,7,2,win,no-go,ngw,rune_04_iwaz,blue,0,0,,1,0.0,+10,0
1e7zni3hs3hxwy7aqhg0bkb0,2,1,28,7,3,lose,go,gal,rune_04_ac,yellow,1,0,,0,0.0,-10,0
1e7zni3hs3hxwy7aqhg0bkb0,2,1,29,8,2,win,no-go,ngw,rune_04_iwaz,blue,0,1,0.495,0,1.0,+10,1
1e7zni3hs3hxwy7aqhg0bkb0,2,1,30,8,4,win,go,gw,rune_04_dagaz,blue,1,1,0.558,1,0.0,+10,1
1e7zni3hs3hxwy7aqhg0bkb0,2,1,31,8,3,lose,go,gal,rune_04_ac,yellow,1,0,,0,0.0,-10,0
1e7zni3hs3hxwy7aqhg0bkb0,2,1,32,8,1,lose,no-go,ngal,rune_04_wunjo,yellow,0,0,,1,0.0,-1,0
1e7zni3hs3hxwy7aqhg0bkb0,2,1,33,9,4,win,go,gw,rune_04_dagaz,blue,1,1,0.441,1,0.0,+10,1
1e7zni3hs3hxwy7aqhg0bkb0,2,1,34,9,3,lose,go,gal,rune_04_ac,yellow,1,1,1.055,1,0.0,-1,1
1e7zni3hs3hxwy7aqhg0bkb0,2,1,35,9,1,lose,no-go,ngal,rune_04_wunjo,yellow,0,0,,1,0.0,-1,0
1e7zni3hs3hxwy7aqhg0bkb0,2,1,36,9,2,win,no-go,ngw,rune_04_iwaz,blue,0,0,,1,0.0,+10,0
1e7zni3hs3hxwy7aqhg0bkb0,2,1,37,10,2,win,no-go,ngw,rune_04_iwaz,blue,0,0,,1,0.0,+10,0
1e7zni3hs3hxwy7aqhg0bkb0,2,1,38,10,3,lose,go,gal,rune_04_ac,yellow,1,1,0.742,1,0.0,-1,1
1e7zni3hs3hxwy7aqhg0bkb0,2,1,39,10,4,win,go,gw,rune_04_dagaz,blue,1,1,0.576,1,1.0,+1,1
1e7zni3hs3hxwy7aqhg0bkb0,2,1,40,10,1,lose,no-go,ngal,rune_04_wunjo,yellow,0,0,,1,1.0,-10,0
1e7zni3hs3hxwy7aqhg0bkb0,2,1,41,11,3,lose,go,gal,rune_04_ac,yellow,1,1,0.54,1,0.0,-1,1
1e7zni3hs3hxwy7aqhg0bkb0,2,1,42,11,1,lose,no-go,ngal,rune_04_wunjo,yellow,0,1,0.623,0,0.0,-10,1
1e7zni3hs3hxwy7aqhg0bkb0,2,1,43,11,4,win,go,gw,rune_04_dagaz,blue,1,1,0.359,1,1.0,+1,1
1e7zni3hs3hxwy7aqhg0bkb0,2,1,44,11,2,win,no-go,ngw,rune_04_iwaz,blue,0,1,0.735,0,0.0,+1,1
1e7zni3hs3hxwy7aqhg0bkb0,2,1,45,12,2,win,no-go,ngw,rune_04_iwaz,blue,0,0,,1,0.0,+10,0
1e7zni3hs3hxwy7aqhg0bkb0,2,1,46,12,3,lose,go,gal,rune_04_ac,yellow,1,1,0.528,1,1.0,-10,1
1e7zni3hs3hxwy7aqhg0bkb0,2,1,47,12,1,lose,no-go,ngal,rune_04_wunjo,yellow,0,0,,1,0.0,-1,0
1e7zni3hs3hxwy7aqhg0bkb0,2,1,48,12,4,win,go,gw,rune_04_dagaz,blue,1,1,0.449,1,0.0,+10,1
1e7zni3hs3hxwy7aqhg0bkb0,2,1,49,13,1,lose,no-go,ngal,rune_04_wunjo,yellow,0,0,,1,0.0,-1,0
1e7zni3hs3hxwy7aqhg0bkb0,2,1,50,13,3,lose,go,gal,rune_04_ac,yellow,1,1,1.281,1,0.0,-1,1
1e7zni3hs3hxwy7aqhg0bkb0,2,1,51,13,2,win,no-go,ngw,rune_04_iwaz,blue,0,0,,1,0.0,+10,0
1e7zni3hs3hxwy7aqhg0bkb0,2,1,52,13,4,win,go,gw,rune_04_dagaz,blue,1,1,0.618,1,0.0,+10,1
1e7zni3hs3hxwy7aqhg0bkb0,2,1,53,14,1,lose,no-go,ngal,rune_04_wunjo,yellow,0,0,,1,1.0,-10,0
1e7zni3hs3hxwy7aqhg0bkb0,2,1,54,14,4,win,go,gw,rune_04_dagaz,blue,1,1,0.466,1,0.0,+10,1
1e7zni3hs3hxwy7aqhg0bkb0,2,1,55,14,3,lose,go,gal,rune_04_ac,yellow,1,1,0.607,1,0.0,-1,1
1e7zni3hs3hxwy7aqhg0bkb0,2,1,56,14,2,win,no-go,ngw,rune_04_iwaz,blue,0,0,,1,1.0,+1,0
1e7zni3hs3hxwy7aqhg0bkb0,2,1,57,15,2,win,no-go,ngw,rune_04_iwaz,blue,0,1,0.746,0,0.0,+1,1
1e7zni3hs3hxwy7aqhg0bkb0,2,1,58,15,4,win,go,gw,rune_04_dagaz,blue,1,1,0.367,1,0.0,+10,1
1e7zni3hs3hxwy7aqhg0bkb0,2,1,59,15,1,lose,no-go,ngal,rune_04_wunjo,yellow,0,0,,1,0.0,-1,0
1e7zni3hs3hxwy7aqhg0bkb0,2,1,60,15,3,lose,go,gal,rune_04_ac,yellow,1,1,0.595,1,0.0,-1,1
1e7zni3hs3hxwy7aqhg0bkb0,2,1,61,16,4,win,go,gw,rune_04_dagaz,blue,1,1,0.479,1,0.0,+10,1
1e7zni3hs3hxwy7aqhg0bkb0,2,1,62,16,1,lose,no-go,ngal,rune_04_wunjo,yellow,0,0,,1,0.0,-1,0
1e7zni3hs3hxwy7aqhg0bkb0,2,1,63,16,3,lose,go,gal,rune_04_ac,yellow,1,1,0.768,1,0.0,-1,1
1e7zni3hs3hxwy7aqhg0bkb0,2,1,64,16,2,win,no-go,ngw,rune_04_iwaz,blue,0,0,,1,0.0,+10,0
1e7zni3hs3hxwy7aqhg0bkb0,2,1,65,17,2,win,no-go,ngw,rune_04_iwaz,blue,0,0,,1,0.0,+10,0
1e7zni3hs3hxwy7aqhg0bkb0,2,1,66,17,3,lose,go,gal,rune_04_ac,yellow,1,1,0.773,1,1.0,-10,1
1e7zni3hs3hxwy7aqhg0bkb0,2,1,67,17,1,lose,no-go,ngal,rune_04_wunjo,yellow,0,0,,1,0.0,-1,0
1e7zni3hs3hxwy7aqhg0bkb0,2,1,68,17,4,win,go,gw,rune_04_dagaz,blue,1,1,0.557,1,0.0,+10,1
1e7zni3hs3hxwy7aqhg0bkb0,2,1,69,18,2,win,no-go,ngw,rune_04_iwaz,blue,0,0,,1,1.0,+1,0
1e7zni3hs3hxwy7aqhg0bkb0,2,1,70,18,1,lose,no-go,ngal,rune_04_wunjo,yellow,0,0,,1,0.0,-1,0
1e7zni3hs3hxwy7aqhg0bkb0,2,1,71,18,4,win,go,gw,rune_04_dagaz,blue,1,1,0.334,1,0.0,+10,1
1e7zni3hs3hxwy7aqhg0bkb0,2,1,72,18,3,lose,go,gal,rune_04_ac,yellow,1,1,0.673,1,0.0,-1,1
1e7zni3hs3hxwy7aqhg0bkb0,2,1,73,19,4,win,go,gw,rune_04_dagaz,blue,1,1,0.463,1,0.0,+10,1
1e7zni3hs3hxwy7aqhg0bkb0,2,1,74,19,3,lose,go,gal,rune_04_ac,yellow,1,1,0.985,1,0.0,-1,1
1e7zni3hs3hxwy7aqhg0bkb0,2,1,75,19,2,win,no-go,ngw,rune_04_iwaz,blue,0,0,,1,0.0,+10,0
1e7zni3hs3hxwy7aqhg0bkb0,2,1,76,19,1,lose,no-go,ngal,rune_04_wunjo,yellow,0,0,,1,0.0,-1,0
1e7zni3hs3hxwy7aqhg0bkb0,2,1,77,20,2,win,no-go,ngw,rune_04_iwaz,blue,0,0,,1,0.0,+10,0
1e7zni3hs3hxwy7aqhg0bkb0,2,1,78,20,3,lose,go,gal,rune_04_ac,yellow,1,1,0.657,1,0.0,-1,1
1e7zni3hs3hxwy7aqhg0bkb0,2,1,79,20,1,lose,no-go,ngal,rune_04_wunjo,yellow,0,0,,1,1.0,-10,0
1e7zni3hs3hxwy7aqhg0bkb0,2,1,80,20,4,win,go,gw,rune_04_dagaz,blue,1,1,0.361,1,1.0,+1,1
1e7zni3hs3hxwy7aqhg0bkb0,2,1,81,21,4,win,go,gw,rune_04_dagaz,blue,1,1,0.448,1,0.0,+10,1
1e7zni3hs3hxwy7aqhg0bkb0,2,1,82,21,3,lose,go,gal,rune_04_ac,yellow,1,1,0.696,1,0.0,-1,1
1e7zni3hs3hxwy7aqhg0bkb0,2,1,83,21,2,win,no-go,ngw,rune_04_iwaz,blue,0,0,,1,0.0,+10,0
1e7zni3hs3hxwy7aqhg0bkb0,2,1,84,21,1,lose,no-go,ngal,rune_04_wunjo,yellow,0,1,1.33,0,0.0,-10,1
1e7zni3hs3hxwy7aqhg0bkb0,2,1,85,22,2,win,no-go,ngw,rune_04_iwaz,blue,0,0,,1,1.0,+1,0
1e7zni3hs3hxwy7aqhg0bkb0,2,1,86,22,1,lose,no-go,ngal,rune_04_wunjo,yellow,0,0,,1,0.0,-1,0
1e7zni3hs3hxwy7aqhg0bkb0,2,1,87,22,4,win,go,gw,rune_04_dagaz,blue,1,1,0.374,1,0.0,+10,1
1e7zni3hs3hxwy7aqhg0bkb0,2,1,88,22,3,lose,go,gal,rune_04_ac,yellow,1,1,1.031,1,0.0,-1,1
1e7zni3hs3hxwy7aqhg0bkb0,2,1,89,23,1,lose,no-go,ngal,rune_04_wunjo,yellow,0,0,,1,0.0,-1,0
1e7zni3hs3hxwy7aqhg0bkb0,2,1,90,23,2,win,no-go,ngw,rune_04_iwaz,blue,0,0,,1,0.0,+10,0
1e7zni3hs3hxwy7aqhg0bkb0,2,1,91,23,3,lose,go,gal,rune_04_ac,yellow,1,1,0.76,1,1.0,-10,1
1e7zni3hs3hxwy7aqhg0bkb0,2,1,92,23,4,win,go,gw,rune_04_dagaz,blue,1,1,0.352,1,1.0,+1,1
1e7zni3hs3hxwy7aqhg0bkb0,2,1,93,24,3,lose,go,gal,rune_04_ac,yellow,1,1,0.951,1,0.0,-1,1
1e7zni3hs3hxwy7aqhg0bkb0,2,1,94,24,4,win,go,gw,rune_04_dagaz,blue,1,1,0.544,1,0.0,+10,1
1e7zni3hs3hxwy7aqhg0bkb0,2,1,95,24,2,win,no-go,ngw,rune_04_iwaz,blue,0,0,,1,0.0,+10,0
1e7zni3hs3hxwy7aqhg0bkb0,2,1,96,24,1,lose,no-go,ngal,rune_04_wunjo,yellow,0,1,1.067,0,1.0,-1,1
1e7zni3hs3hxwy7aqhg0bkb0,2,1,97,25,1,lose,no-go,ngal,rune_04_wunjo,yellow,0,1,1.008,0,0.0,-10,1
1e7zni3hs3hxwy7aqhg0bkb0,2,1,98,25,2,win,no-go,ngw,rune_04_iwaz,blue,0,0,,1,0.0,+10,0
1e7zni3hs3hxwy7aqhg0bkb0,2,1,99,25,4,win,go,gw,rune_04_dagaz,blue,1,1,0.468,1,0.0,+10,1
1e7zni3hs3hxwy7aqhg0bkb0,2,1,100,25,3,lose,go,gal,rune_04_ac,yellow,1,1,0.856,1,0.0,-1,1
1e7zni3hs3hxwy7aqhg0bkb0,2,1,101,26,2,win,no-go,ngw,rune_04_iwaz,blue,0,0,,1,0.0,+10,0
1e7zni3hs3hxwy7aqhg0bkb0,2,1,102,26,1,lose,no-go,ngal,rune_04_wunjo,yellow,0,1,0.947,0,0.0,-10,1
1e7zni3hs3hxwy7aqhg0bkb0,2,1,103,26,4,win,go,gw,rune_04_dagaz,blue,1,1,0.455,1,0.0,+10,1
1e7zni3hs3hxwy7aqhg0bkb0,2,1,104,26,3,lose,go,gal,rune_04_ac,yellow,1,1,0.736,1,0.0,-1,1
1e7zni3hs3hxwy7aqhg0bkb0,2,1,105,27,1,lose,no-go,ngal,rune_04_wunjo,yellow,0,0,,1,0.0,-1,0
1e7zni3hs3hxwy7aqhg0bkb0,2,1,106,27,3,lose,go,gal,rune_04_ac,yellow,1,1,0.771,1,1.0,-10,1
1e7zni3hs3hxwy7aqhg0bkb0,2,1,107,27,2,win,no-go,ngw,rune_04_iwaz,blue,0,0,,1,0.0,+10,0
1e7zni3hs3hxwy7aqhg0bkb0,2,1,108,27,4,win,go,gw,rune_04_dagaz,blue,1,1,0.476,1,0.0,+10,1
1e7zni3hs3hxwy7aqhg0bkb0,2,1,109,28,1,lose,no-go,ngal,rune_04_wunjo,yellow,0,0,,1,1.0,-10,0
1e7zni3hs3hxwy7aqhg0bkb0,2,1,110,28,4,win,go,gw,rune_04_dagaz,blue,1,1,0.42,1,0.0,+10,1
1e7zni3hs3hxwy7aqhg0bkb0,2,1,111,28,3,lose,go,gal,rune_04_ac,yellow,1,1,0.889,1,0.0,-1,1
1e7zni3hs3hxwy7aqhg0bkb0,2,1,112,28,2,win,no-go,ngw,rune_04_iwaz,blue,0,0,,1,0.0,+10,0
1e7zni3hs3hxwy7aqhg0bkb0,2,1,113,29,3,lose,go,gal,rune_04_ac,yellow,1,1,1.204,1,0.0,-1,1
1e7zni3hs3hxwy7aqhg0bkb0,2,1,114,29,4,win,go,gw,rune_04_dagaz,blue,1,1,0.488,1,0.0,+10,1
1e7zni3hs3hxwy7aqhg0bkb0,2,1,115,29,1,lose,no-go,ngal,rune_04_wunjo,yellow,0,0,,1,0.0,-1,0
1e7zni3hs3hxwy7aqhg0bkb0,2,1,116,29,2,win,no-go,ngw,rune_04_iwaz,blue,0,0,,1,0.0,+10,0
1e7zni3hs3hxwy7aqhg0bkb0,2,1,117,30,4,win,go,gw,rune_04_dagaz,blue,1,1,0.598,1,1.0,+1,1
1e7zni3hs3hxwy7aqhg0bkb0,2,1,118,30,1,lose,no-go,ngal,rune_04_wunjo,yellow,0,0,,1,0.0,-1,0
1e7zni3hs3hxwy7aqhg0bkb0,2,1,119,30,3,lose,go,gal,rune_04_ac,yellow,1,1,0.833,1,0.0,-1,1
1e7zni3hs3hxwy7aqhg0bkb0,2,1,120,30,2,win,no-go,ngw,rune_04_iwaz,blue,0,0,,1,1.0,+1,0
1e7zni3hs3hxwy7aqhg0bkb0,2,2,121,1,5,win,no-go,ngw,rune_03_othalan,blue,0,1,0.488,0,0.0,+1,1
1e7zni3hs3hxwy7aqhg0bkb0,2,2,122,1,6,lose,no-go,ngal,rune_03_naudiz,yellow,0,1,0.496,0,0.0,-10,1
1e7zni3hs3hxwy7aqhg0bkb0,2,2,123,1,7,win,go,gw,rune_03_uruz,blue,1,1,0.509,1,0.0,+10,1
1e7zni3hs3hxwy7aqhg0bkb0,2,2,124,1,8,lose,go,gal,rune_03_algiz,yellow,1,0,,0,1.0,-1,0
1e7zni3hs3hxwy7aqhg0bkb0,2,2,125,2,7,win,go,gw,rune_03_uruz,blue,1,1,0.669,1,0.0,+10,1
1e7zni3hs3hxwy7aqhg0bkb0,2,2,126,2,8,lose,go,gal,rune_03_algiz,yellow,1,0,,0,0.0,-10,0
1e7zni3hs3hxwy7aqhg0bkb0,2,2,127,2,5,win,no-go,ngw,rune_03_othalan,blue,0,1,0.756,0,0.0,+1,1
1e7zni3hs3hxwy7aqhg0bkb0,2,2,128,2,6,lose,no-go,ngal,rune_03_naudiz,yellow,0,1,0.824,0,0.0,-10,1
1e7zni3hs3hxwy7aqhg0bkb0,2,2,129,3,6,lose,no-go,ngal,rune_03_naudiz,yellow,0,0,,1,0.0,-1,0
1e7zni3hs3hxwy7aqhg0bkb0,2,2,130,3,7,win,go,gw,rune_03_uruz,blue,1,1,0.452,1,0.0,+10,1
1e7zni3hs3hxwy7aqhg0bkb0,2,2,131,3,5,win,no-go,ngw,rune_03_othalan,blue,0,0,,1,0.0,+10,0
1e7zni3hs3hxwy7aqhg0bkb0,2,2,132,3,8,lose,go,gal,rune_03_algiz,yellow,1,1,0.668,1,0.0,-1,1
1e7zni3hs3hxwy7aqhg0bkb0,2,2,133,4,7,win,go,gw,rune_03_uruz,blue,1,0,,0,0.0,+1,0
1e7zni3hs3hxwy7aqhg0bkb0,2,2,134,4,5,win,no-go,ngw,rune_03_othalan,blue,0,1,0.516,0,1.0,+10,1
1e7zni3hs3hxwy7aqhg0bkb0,2,2,135,4,8,lose,go,gal,rune_03_algiz,yellow,1,1,0.599,1,0.0,-1,1
1e7zni3hs3hxwy7aqhg0bkb0,2,2,136,4,6,lose,no-go,ngal,rune_03_naudiz,yellow,0,0,,1,0.0,-1,0
1e7zni3hs3hxwy7aqhg0bkb0,2,2,137,5,8,lose,go,gal,rune_03_algiz,yellow,1,0,,0,0.0,-10,0
1e7zni3hs3hxwy7aqhg0bkb0,2,2,138,5,7,win,go,gw,rune_03_uruz,blue,1,1,0.594,1,1.0,+1,1
1e7zni3hs3hxwy7aqhg0bkb0,2,2,139,5,6,lose,no-go,ngal,rune_03_naudiz,yellow,0,0,,1,1.0,-10,0
1e7zni3hs3hxwy7aqhg0bkb0,2,2,140,5,5,win,no-go,ngw,rune_03_othalan,blue,0,1,0.643,0,0.0,+1,1
1e7zni3hs3hxwy7aqhg0bkb0,2,2,141,6,8,lose,go,gal,rune_03_algiz,yellow,1,1,0.639,1,1.0,-10,1
1e7zni3hs3hxwy7aqhg0bkb0,2,2,142,6,7,win,go,gw,rune_03_uruz,blue,1,1,0.872,1,0.0,+10,1
1e7zni3hs3hxwy7aqhg0bkb0,2,2,143,6,5,win,no-go,ngw,rune_03_othalan,blue,0,1,0.536,0,0.0,+1,1
1e7zni3hs3hxwy7aqhg0bkb0,2,2,144,6,6,lose,no-go,ngal,rune_03_naudiz,yellow,0,0,,1,0.0,-1,0
1e7zni3hs3hxwy7aqhg0bkb0,2,2,145,7,7,win,go,gw,rune_03_uruz,blue,1,1,0.634,1,0.0,+10,1
1e7zni3hs3hxwy7aqhg0bkb0,2,2,146,7,5,win,no-go,ngw,rune_03_othalan,blue,0,0,,1,0.0,+10,0
1e7zni3hs3hxwy7aqhg0bkb0,2,2,147,7,8,lose,go,gal,rune_03_algiz,yellow,1,0,,0,0.0,-10,0
1e7zni3hs3hxwy7aqhg0bkb0,2,2,148,7,6,lose,no-go,ngal,rune_03_naudiz,yellow,0,0,,1,0.0,-1,0
1e7zni3hs3hxwy7aqhg0bkb0,2,2,149,8,6,lose,no-go,ngal,rune_03_naudiz,yellow,0,0,,1,0.0,-1,0
1e7zni3hs3hxwy7aqhg0bkb0,2,2,150,8,7,win,go,gw,rune_03_uruz,blue,1,1,0.666,1,0.0,+10,1
1e7zni3hs3hxwy7aqhg0bkb0,2,2,151,8,8,lose,go,gal,rune_03_algiz,yellow,1,1,0.872,1,0.0,-1,1
1e7zni3hs3hxwy7aqhg0bkb0,2,2,152,8,5,win,no-go,ngw,rune_03_othalan,blue,0,1,0.936,0,1.0,+10,1
1e7zni3hs3hxwy7aqhg0bkb0,2,2,153,9,8,lose,go,gal,rune_03_algiz,yellow,1,0,,0,0.0,-10,0
1e7zni3hs3hxwy7aqhg0bkb0,2,2,154,9,5,win,no-go,ngw,rune_03_othalan,blue,0,1,0.451,0,0.0,+1,1
1e7zni3hs3hxwy7aqhg0bkb0,2,2,155,9,7,win,go,gw,rune_03_uruz,blue,1,1,0.927,1,0.0,+10,1
1e7zni3hs3hxwy7aqhg0bkb0,2,2,156,9,6,lose,no-go,ngal,rune_03_naudiz,yellow,0,0,,1,0.0,-1,0
1e7zni3hs3hxwy7aqhg0bkb0,2,2,157,10,7,win,go,gw,rune_03_uruz,blue,1,1,1.003,1,1.0,+1,1
1e7zni3hs3hxwy7aqhg0bkb0,2,2,158,10,8,lose,go,gal,rune_03_algiz,yellow,1,1,0.872,1,0.0,-1,1
1e7zni3hs3hxwy7aqhg0bkb0,2,2,159,10,6,lose,no-go,ngal,rune_03_naudiz,yellow,0,1,0.775,0,1.0,-1,1
1e7zni3hs3hxwy7aqhg0bkb0,2,2,160,10,5,win,no-go,ngw,rune_03_othalan,blue,0,1,0.656,0,0.0,+1,1
1e7zni3hs3hxwy7aqhg0bkb0,2,2,161,11,7,win,go,gw,rune_03_uruz,blue,1,1,0.592,1,1.0,+1,1
1e7zni3hs3hxwy7aqhg0bkb0,2,2,162,11,8,lose,go,gal,rune_03_algiz,yellow,1,0,,0,0.0,-10,0
1e7zni3hs3hxwy7aqhg0bkb0,2,2,163,11,6,lose,no-go,ngal,rune_03_naudiz,yellow,0,1,0.723,0,0.0,-10,1
1e7zni3hs3hxwy7aqhg0bkb0,2,2,164,11,5,win,no-go,ngw,rune_03_othalan,blue,0,1,0.431,0,0.0,+1,1
1e7zni3hs3hxwy7aqhg0bkb0,2,2,165,12,8,lose,go,gal,rune_03_algiz,yellow,1,0,,0,1.0,-1,0
1e7zni3hs3hxwy7aqhg0bkb0,2,2,166,12,6,lose,no-go,ngal,rune_03_naudiz,yellow,0,1,1.265,0,0.0,-10,1
1e7zni3hs3hxwy7aqhg0bkb0,2,2,167,12,7,win,go,gw,rune_03_uruz,blue,1,0,,0,0.0,+1,0
1e7zni3hs3hxwy7aqhg0bkb0,2,2,168,12,5,win,no-go,ngw,rune_03_othalan,blue,0,0,,1,0.0,+10,0
1e7zni3hs3hxwy7aqhg0bkb0,2,2,169,13,5,win,no-go,ngw,rune_03_othalan,blue,0,0,,1,0.0,+10,0
1e7zni3hs3hxwy7aqhg0bkb0,2,2,170,13,6,lose,no-go,ngal,rune_03_naudiz,yellow,0,1,1.478,0,0.0,-10,1
1e7zni3hs3hxwy7aqhg0bkb0,2,2,171,13,7,win,go,gw,rune_03_uruz,blue,1,0,,0,0.0,+1,0
1e7zni3hs3hxwy7aqhg0bkb0,2,2,172,13,8,lose,go,gal,rune_03_algiz,yellow,1,0,,0,0.0,-10,0
1e7zni3hs3hxwy7aqhg0bkb0,2,2,173,14,5,win,no-go,ngw,rune_03_othalan,blue,0,0,,1,1.0,+1,0
1e7zni3hs3hxwy7aqhg0bkb0,2,2,174,14,8,lose,go,gal,rune_03_algiz,yellow,1,1,1.142,1,0.0,-1,1
1e7zni3hs3hxwy7aqhg0bkb0,2,2,175,14,6,lose,no-go,ngal,rune_03_naudiz,yellow,0,0,,1,1.0,-10,0
1e7zni3hs3hxwy7aqhg0bkb0,2,2,176,14,7,win,go,gw,rune_03_uruz,blue,1,1,0.932,1,0.0,+10,1
1e7zni3hs3hxwy7aqhg0bkb0,2,2,177,15,6,lose,no-go,ngal,rune_03_naudiz,yellow,0,1,0.993,0,0.0,-10,1
1e7zni3hs3hxwy7aqhg0bkb0,2,2,178,15,8,lose,go,gal,rune_03_algiz,yellow,1,1,0.743,1,0.0,-1,1
1e7zni3hs3hxwy7aqhg0bkb0,2,2,179,15,7,win,go,gw,rune_03_uruz,blue,1,1,0.791,1,0.0,+10,1
1e7zni3hs3hxwy7aqhg0bkb0,2,2,180,15,5,win,no-go,ngw,rune_03_othalan,blue,0,0,,1,0.0,+10,0
1e7zni3hs3hxwy7aqhg0bkb0,2,2,181,16,6,lose,no-go,ngal,rune_03_naudiz,yellow,0,0,,1,0.0,-1,0
1e7zni3hs3hxwy7aqhg0bkb0,2,2,182,16,7,win,go,gw,rune_03_uruz,blue,1,1,0.751,1,0.0,+10,1
1e7zni3hs3hxwy7aqhg0bkb0,2,2,183,16,8,lose,go,gal,rune_03_algiz,yellow,1,0,,0,0.0,-10,0
1e7zni3hs3hxwy7aqhg0bkb0,2,2,184,16,5,win,no-go,ngw,rune_03_othalan,blue,0,0,,1,0.0,+10,0
1e7zni3hs3hxwy7aqhg0bkb0,2,2,185,17,8,lose,go,gal,rune_03_algiz,yellow,1,1,0.654,1,1.0,-10,1
1e7zni3hs3hxwy7aqhg0bkb0,2,2,186,17,7,win,go,gw,rune_03_uruz,blue,1,1,0.679,1,0.0,+10,1
1e7zni3hs3hxwy7aqhg0bkb0,2,2,187,17,5,win,no-go,ngw,rune_03_othalan,blue,0,0,,1,0.0,+10,0
1e7zni3hs3hxwy7aqhg0bkb0,2,2,188,17,6,lose,no-go,ngal,rune_03_naudiz,yellow,0,1,0.7,0,0.0,-10,1
1e7zni3hs3hxwy7aqhg0bkb0,2,2,189,18,5,win,no-go,ngw,rune_03_othalan,blue,0,0,,1,1.0,+1,0
1e7zni3hs3hxwy7aqhg0bkb0,2,2,190,18,7,win,go,gw,rune_03_uruz,blue,1,1,0.492,1,0.0,+10,1
1e7zni3hs3hxwy7aqhg0bkb0,2,2,191,18,8,lose,go,gal,rune_03_algiz,yellow,1,1,0.831,1,0.0,-1,1
1e7zni3hs3hxwy7aqhg0bkb0,2,2,192,18,6,lose,no-go,ngal,rune_03_naudiz,yellow,0,0,,1,0.0,-1,0
1e7zni3hs3hxwy7aqhg0bkb0,2,2,193,19,7,win,go,gw,rune_03_uruz,blue,1,1,0.612,1,0.0,+10,1
1e7zni3hs3hxwy7aqhg0bkb0,2,2,194,19,5,win,no-go,ngw,rune_03_othalan,blue,0,0,,1,0.0,+10,0
1e7zni3hs3hxwy7aqhg0bkb0,2,2,195,19,6,lose,no-go,ngal,rune_03_naudiz,yellow,0,1,0.738,0,0.0,-10,1
1e7zni3hs3hxwy7aqhg0bkb0,2,2,196,19,8,lose,go,gal,rune_03_algiz,yellow,1,1,0.873,1,0.0,-1,1
1e7zni3hs3hxwy7aqhg0bkb0,2,2,197,20,8,lose,go,gal,rune_03_algiz,yellow,1,1,0.791,1,0.0,-1,1
1e7zni3hs3hxwy7aqhg0bkb0,2,2,198,20,7,win,go,gw,rune_03_uruz,blue,1,1,0.69,1,1.0,+1,1
1e7zni3hs3hxwy7aqhg0bkb0,2,2,199,20,5,win,no-go,ngw,rune_03_othalan,blue,0,0,,1,0.0,+10,0
1e7zni3hs3hxwy7aqhg0bkb0,2,2,200,20,6,lose,no-go,ngal,rune_03_naudiz,yellow,0,1,0.49,0,1.0,-1,1
1e7zni3hs3hxwy7aqhg0bkb0,2,2,201,21,7,win,go,gw,rune_03_uruz,blue,1,1,0.734,1,0.0,+10,1
1e7zni3hs3hxwy7aqhg0bkb0,2,2,202,21,8,lose,go,gal,rune_03_algiz,yellow,1,0,,0,0.0,-10,0
1e7zni3hs3hxwy7aqhg0bkb0,2,2,203,21,6,lose,no-go,ngal,rune_03_naudiz,yellow,0,0,,1,0.0,-1,0
1e7zni3hs3hxwy7aqhg0bkb0,2,2,204,21,5,win,no-go,ngw,rune_03_othalan,blue,0,1,0.623,0,0.0,+1,1
1e7zni3hs3hxwy7aqhg0bkb0,2,2,205,22,8,lose,go,gal,rune_03_algiz,yellow,1,0,,0,0.0,-10,0
1e7zni3hs3hxwy7aqhg0bkb0,2,2,206,22,6,lose,no-go,ngal,rune_03_naudiz,yellow,0,1,0.532,0,0.0,-10,1
1e7zni3hs3hxwy7aqhg0bkb0,2,2,207,22,5,win,no-go,ngw,rune_03_othalan,blue,0,0,,1,1.0,+1,0
1e7zni3hs3hxwy7aqhg0bkb0,2,2,208,22,7,win,go,gw,rune_03_uruz,blue,1,1,0.283,1,0.0,+10,1
1e7zni3hs3hxwy7aqhg0bkb0,2,2,209,23,7,win,go,gw,rune_03_uruz,blue,1,1,0.647,1,1.0,+1,1
1e7zni3hs3hxwy7aqhg0bkb0,2,2,210,23,6,lose,no-go,ngal,rune_03_naudiz,yellow,0,0,,1,0.0,-1,0
1e7zni3hs3hxwy7aqhg0bkb0,2,2,211,23,5,win,no-go,ngw,rune_03_othalan,blue,0,0,,1,0.0,+10,0
1e7zni3hs3hxwy7aqhg0bkb0,2,2,212,23,8,lose,go,gal,rune_03_algiz,yellow,1,1,0.607,1,1.0,-10,1
1e7zni3hs3hxwy7aqhg0bkb0,2,2,213,24,8,lose,go,gal,rune_03_algiz,yellow,1,0,,0,0.0,-10,0
1e7zni3hs3hxwy7aqhg0bkb0,2,2,214,24,6,lose,no-go,ngal,rune_03_naudiz,yellow,0,1,0.715,0,1.0,-1,1
1e7zni3hs3hxwy7aqhg0bkb0,2,2,215,24,5,win,no-go,ngw,rune_03_othalan,blue,0,0,,1,0.0,+10,0
1e7zni3hs3hxwy7aqhg0bkb0,2,2,216,24,7,win,go,gw,rune_03_uruz,blue,1,1,0.372,1,0.0,+10,1
1e7zni3hs3hxwy7aqhg0bkb0,2,2,217,25,6,lose,no-go,ngal,rune_03_naudiz,yellow,0,0,,1,0.0,-1,0
1e7zni3hs3hxwy7aqhg0bkb0,2,2,218,25,5,win,no-go,ngw,rune_03_othalan,blue,0,0,,1,0.0,+10,0
1e7zni3hs3hxwy7aqhg0bkb0,2,2,219,25,8,lose,go,gal,rune_03_algiz,yellow,1,1,0.445,1,0.0,-1,1
1e7zni3hs3hxwy7aqhg0bkb0,2,2,220,25,7,win,go,gw,rune_03_uruz,blue,1,1,0.464,1,0.0,+10,1
1e7zni3hs3hxwy7aqhg0bkb0,2,2,221,26,6,lose,no-go,ngal,rune_03_naudiz,yellow,0,0,,1,0.0,-1,0
1e7zni3hs3hxwy7aqhg0bkb0,2,2,222,26,7,win,go,gw,rune_03_uruz,blue,1,1,0.556,1,0.0,+10,1
1e7zni3hs3hxwy7aqhg0bkb0,2,2,223,26,8,lose,go,gal,rune_03_algiz,yellow,1,0,,0,0.0,-10,0
1e7zni3hs3hxwy7aqhg0bkb0,2,2,224,26,5,win,no-go,ngw,rune_03_othalan,blue,0,0,,1,0.0,+10,0
1e7zni3hs3hxwy7aqhg0bkb0,2,2,225,27,6,lose,no-go,ngal,rune_03_naudiz,yellow,0,1,0.678,0,0.0,-10,1
1e7zni3hs3hxwy7aqhg0bkb0,2,2,226,27,7,win,go,gw,rune_03_uruz,blue,1,1,0.613,1,0.0,+10,1
1e7zni3hs3hxwy7aqhg0bkb0,2,2,227,27,8,lose,go,gal,rune_03_algiz,yellow,1,1,0.719,1,1.0,-10,1
1e7zni3hs3hxwy7aqhg0bkb0,2,2,228,27,5,win,no-go,ngw,rune_03_othalan,blue,0,0,,1,0.0,+10,0
1e7zni3hs3hxwy7aqhg0bkb0,2,2,229,28,5,win,no-go,ngw,rune_03_othalan,blue,0,0,,1,0.0,+10,0
1e7zni3hs3hxwy7aqhg0bkb0,2,2,230,28,6,lose,no-go,ngal,rune_03_naudiz,yellow,0,1,0.781,0,1.0,-1,1
1e7zni3hs3hxwy7aqhg0bkb0,2,2,231,28,8,lose,go,gal,rune_03_algiz,yellow,1,0,,0,0.0,-10,0
1e7zni3hs3hxwy7aqhg0bkb0,2,2,232,28,7,win,go,gw,rune_03_uruz,blue,1,1,0.395,1,0.0,+10,1
1e7zni3hs3hxwy7aqhg0bkb0,2,2,233,29,6,lose,no-go,ngal,rune_03_naudiz,yellow,0,1,0.808,0,0.0,-10,1
1e7zni3hs3hxwy7aqhg0bkb0,2,2,234,29,7,win,go,gw,rune_03_uruz,blue,1,1,0.383,1,0.0,+10,1
1e7zni3hs3hxwy7aqhg0bkb0,2,2,235,29,8,lose,go,gal,rune_03_algiz,yellow,1,0,,0,0.0,-10,0
1e7zni3hs3hxwy7aqhg0bkb0,2,2,236,29,5,win,no-go,ngw,rune_03_othalan,blue,0,0,,1,0.0,+10,0
1e7zni3hs3hxwy7aqhg0bkb0,2,2,237,30,7,win,go,gw,rune_03_uruz,blue,1,1,0.271,1,1.0,+1,1
1e7zni3hs3hxwy7aqhg0bkb0,2,2,238,30,5,win,no-go,ngw,rune_03_othalan,blue,0,0,,1,1.0,+1,0
1e7zni3hs3hxwy7aqhg0bkb0,2,2,239,30,6,lose,no-go,ngal,rune_03_naudiz,yellow,0,1,0.548,0,0.0,-10,1
1e7zni3hs3hxwy7aqhg0bkb0,2,2,240,30,8,lose,go,gal,rune_03_algiz,yellow,1,0,,0,0.0,-10,0
1idwvxzpt8dvsgsfthnl4uu1,2,1,1,1,1,lose,no-go,ngal,rune_03_uruz,yellow,0,1,0.268,0,1.0,-1,1
1idwvxzpt8dvsgsfthnl4uu1,2,1,2,1,2,win,go,gw,rune_03_othalan,blue,1,1,0.445,1,0.0,+10,1
1idwvxzpt8dvsgsfthnl4uu1,2,1,3,1,3,win,no-go,ngw,rune_03_naudiz,blue,0,0,,1,0.0,+10,0
1idwvxzpt8dvsgsfthnl4uu1,2,1,4,1,4,lose,go,gal,rune_03_algiz,yellow,1,0,,0,0.0,-10,0
1idwvxzpt8dvsgsfthnl4uu1,2,1,5,2,4,lose,go,gal,rune_03_algiz,yellow,1,1,0.395,1,1.0,-10,1
1idwvxzpt8dvsgsfthnl4uu1,2,1,6,2,2,win,go,gw,rune_03_othalan,blue,1,1,0.389,1,1.0,+1,1
1idwvxzpt8dvsgsfthnl4uu1,2,1,7,2,1,lose,no-go,ngal,rune_03_uruz,yellow,0,0,,1,0.0,-1,0
1idwvxzpt8dvsgsfthnl4uu1,2,1,8,2,3,win,no-go,ngw,rune_03_naudiz,blue,0,1,0.571,0,0.0,+1,1
1idwvxzpt8dvsgsfthnl4uu1,2,1,9,3,1,lose,no-go,ngal,rune_03_uruz,yellow,0,0,,1,0.0,-1,0
1idwvxzpt8dvsgsfthnl4uu1,2,1,10,3,4,lose,go,gal,rune_03_algiz,yellow,1,0,,0,0.0,-10,0
1idwvxzpt8dvsgsfthnl4uu1,2,1,11,3,2,win,go,gw,rune_03_othalan,blue,1,1,0.739,1,0.0,+10,1
1idwvxzpt8dvsgsfthnl4uu1,2,1,12,3,3,win,no-go,ngw,rune_03_naudiz,blue,0,0,,1,1.0,+1,0
1idwvxzpt8dvsgsfthnl4uu1,2,1,13,4,2,win,go,gw,rune_03_othalan,blue,1,1,0.616,1,0.0,+10,1
1idwvxzpt8dvsgsfthnl4uu1,2,1,14,4,4,lose,go,gal,rune_03_algiz,yellow,1,1,0.595,1,0.0,-1,1
1idwvxzpt8dvsgsfthnl4uu1,2,1,15,4,1,lose,no-go,ngal,rune_03_uruz,yellow,0,0,,1,0.0,-1,0
1idwvxzpt8dvsgsfthnl4uu1,2,1,16,4,3,win,no-go,ngw,rune_03_naudiz,blue,0,0,,1,0.0,+10,0
1idwvxzpt8dvsgsfthnl4uu1,2,1,17,5,4,lose,go,gal,rune_03_algiz,yellow,1,1,0.583,1,0.0,-1,1
1idwvxzpt8dvsgsfthnl4uu1,2,1,18,5,3,win,no-go,ngw,rune_03_naudiz,blue,0,0,,1,0.0,+10,0
1idwvxzpt8dvsgsfthnl4uu1,2,1,19,5,1,lose,no-go,ngal,rune_03_uruz,yellow,0,1,0.444,0,0.0,-10,1
1idwvxzpt8dvsgsfthnl4uu1,2,1,20,5,2,win,go,gw,rune_03_othalan,blue,1,1,0.345,1,0.0,+10,1
1idwvxzpt8dvsgsfthnl4uu1,2,1,21,6,2,win,go,gw,rune_03_othalan,blue,1,1,0.51,1,0.0,+10,1
1idwvxzpt8dvsgsfthnl4uu1,2,1,22,6,1,lose,no-go,ngal,rune_03_uruz,yellow,0,0,,1,0.0,-1,0
1idwvxzpt8dvsgsfthnl4uu1,2,1,23,6,4,lose,go,gal,rune_03_algiz,yellow,1,1,0.485,1,0.0,-1,1
1idwvxzpt8dvsgsfthnl4uu1,2,1,24,6,3,win,no-go,ngw,rune_03_naudiz,blue,0,0,,1,0.0,+10,0
1idwvxzpt8dvsgsfthnl4uu1,2,1,25,7,1,lose,no-go,ngal,rune_03_uruz,yellow,0,0,,1,0.0,-1,0
1idwvxzpt8dvsgsfthnl4uu1,2,1,26,7,2,win,go,gw,rune_03_othalan,blue,1,1,0.657,1,0.0,+10,1
1idwvxzpt8dvsgsfthnl4uu1,2,1,27,7,3,win,no-go,ngw,rune_03_naudiz,blue,0,0,,1,1.0,+1,0
1idwvxzpt8dvsgsfthnl4uu1,2,1,28,7,4,lose,go,gal,rune_03_algiz,yellow,1,1,0.441,1,0.0,-1,1
1idwvxzpt8dvsgsfthnl4uu1,2,1,29,8,2,win,go,gw,rune_03_othalan,blue,1,1,0.388,1,0.0,+10,1
1idwvxzpt8dvsgsfthnl4uu1,2,1,30,8,4,lose,go,gal,rune_03_algiz,yellow,1,1,0.624,1,0.0,-1,1
1idwvxzpt8dvsgsfthnl4uu1,2,1,31,8,3,win,no-go,ngw,rune_03_naudiz,blue,0,0,,1,0.0,+10,0
1idwvxzpt8dvsgsfthnl4uu1,2,1,32,8,1,lose,no-go,ngal,rune_03_uruz,yellow,0,1,0.586,0,1.0,-1,1
1idwvxzpt8dvsgsfthnl4uu1,2,1,33,9,2,win,go,gw,rune_03_othalan,blue,1,1,0.392,1,1.0,+1,1
1idwvxzpt8dvsgsfthnl4uu1,2,1,34,9,3,win,no-go,ngw,rune_03_naudiz,blue,0,0,,1,0.0,+10,0
1idwvxzpt8dvsgsfthnl4uu1,2,1,35,9,4,lose,go,gal,rune_03_algiz,yellow,1,1,0.459,1,0.0,-1,1
1idwvxzpt8dvsgsfthnl4uu1,2,1,36,9,1,lose,no-go,ngal,rune_03_uruz,yellow,0,0,,1,0.0,-1,0
1idwvxzpt8dvsgsfthnl4uu1,2,1,37,10,2,win,go,gw,rune_03_othalan,blue,1,1,0.365,1,0.0,+10,1
1idwvxzpt8dvsgsfthnl4uu1,2,1,38,10,3,win,no-go,ngw,rune_03_naudiz,blue,0,0,,1,0.0,+10,0
1idwvxzpt8dvsgsfthnl4uu1,2,1,39,10,1,lose,no-go,ngal,rune_03_uruz,yellow,0,0,,1,0.0,-1,0
1idwvxzpt8dvsgsfthnl4uu1,2,1,40,10,4,lose,go,gal,rune_03_algiz,yellow,1,1,0.564,1,1.0,-10,1
1idwvxzpt8dvsgsfthnl4uu1,2,1,41,11,3,win,no-go,ngw,rune_03_naudiz,blue,0,0,,1,0.0,+10,0
1idwvxzpt8dvsgsfthnl4uu1,2,1,42,11,1,lose,no-go,ngal,rune_03_uruz,yellow,0,0,,1,0.0,-1,0
1idwvxzpt8dvsgsfthnl4uu1,2,1,43,11,4,lose,go,gal,rune_03_algiz,yellow,1,1,0.514,1,0.0,-1,1
1idwvxzpt8dvsgsfthnl4uu1,2,1,44,11,2,win,go,gw,rune_03_othalan,blue,1,1,0.393,1,0.0,+10,1
1idwvxzpt8dvsgsfthnl4uu1,2,1,45,12,1,lose,no-go,ngal,rune_03_uruz,yellow,0,0,,1,0.0,-1,0
1idwvxzpt8dvsgsfthnl4uu1,2,1,46,12,2,win,go,gw,rune_03_othalan,blue,1,1,0.365,1,0.0,+10,1
1idwvxzpt8dvsgsfthnl4uu1,2,1,47,12,4,lose,go,gal,rune_03_algiz,yellow,1,1,0.543,1,1.0,-10,1
1idwvxzpt8dvsgsfthnl4uu1,2,1,48,12,3,win,no-go,ngw,rune_03_naudiz,blue,0,0,,1,1.0,+1,0
1idwvxzpt8dvsgsfthnl4uu1,2,1,49,13,2,win,go,gw,rune_03_othalan,blue,1,1,0.316,1,0.0,+10,1
1idwvxzpt8dvsgsfthnl4uu1,2,1,50,13,1,lose,no-go,ngal,rune_03_uruz,yellow,0,0,,1,1.0,-10,0
1idwvxzpt8dvsgsfthnl4uu1,2,1,51,13,4,lose,go,gal,rune_03_algiz,yellow,1,1,0.329,1,0.0,-1,1
1idwvxzpt8dvsgsfthnl4uu1,2,1,52,13,3,win,no-go,ngw,rune_03_naudiz,blue,0,0,,1,0.0,+10,0
1idwvxzpt8dvsgsfthnl4uu1,2,1,53,14,4,lose,go,gal,rune_03_algiz,yellow,1,1,0.471,1,0.0,-1,1
1idwvxzpt8dvsgsfthnl4uu1,2,1,54,14,3,win,no-go,ngw,rune_03_naudiz,blue,0,1,0.596,0,0.0,+1,1
1idwvxzpt8dvsgsfthnl4uu1,2,1,55,14,2,win,go,gw,rune_03_othalan,blue,1,1,0.386,1,1.0,+1,1
1idwvxzpt8dvsgsfthnl4uu1,2,1,56,14,1,lose,no-go,ngal,rune_03_uruz,yellow,0,0,,1,0.0,-1,0
1idwvxzpt8dvsgsfthnl4uu1,2,1,57,15,2,win,go,gw,rune_03_othalan,blue,1,1,0.341,1,0.0,+10,1
1idwvxzpt8dvsgsfthnl4uu1,2,1,58,15,4,lose,go,gal,rune_03_algiz,yellow,1,1,0.491,1,0.0,-1,1
1idwvxzpt8dvsgsfthnl4uu1,2,1,59,15,3,win,no-go,ngw,rune_03_naudiz,blue,0,0,,1,0.0,+10,0
1idwvxzpt8dvsgsfthnl4uu1,2,1,60,15,1,lose,no-go,ngal,rune_03_uruz,yellow,0,0,,1,0.0,-1,0
1idwvxzpt8dvsgsfthnl4uu1,2,1,61,16,1,lose,no-go,ngal,rune_03_uruz,yellow,0,0,,1,1.0,-10,0
1idwvxzpt8dvsgsfthnl4uu1,2,1,62,16,2,win,go,gw,rune_03_othalan,blue,1,1,0.412,1,1.0,+1,1
1idwvxzpt8dvsgsfthnl4uu1,2,1,63,16,3,win,no-go,ngw,rune_03_naudiz,blue,0,0,,1,0.0,+10,0
1idwvxzpt8dvsgsfthnl4uu1,2,1,64,16,4,lose,go,gal,rune_03_algiz,yellow,1,1,0.442,1,0.0,-1,1
1idwvxzpt8dvsgsfthnl4uu1,2,1,65,17,3,win,no-go,ngw,rune_03_naudiz,blue,0,0,,1,0.0,+10,0
1idwvxzpt8dvsgsfthnl4uu1,2,1,66,17,1,lose,no-go,ngal,rune_03_uruz,yellow,0,0,,1,0.0,-1,0
1idwvxzpt8dvsgsfthnl4uu1,2,1,67,17,2,win,go,gw,rune_03_othalan,blue,1,1,0.355,1,0.0,+10,1
1idwvxzpt8dvsgsfthnl4uu1,2,1,68,17,4,lose,go,gal,rune_03_algiz,yellow,1,1,0.509,1,0.0,-1,1
1idwvxzpt8dvsgsfthnl4uu1,2,1,69,18,1,lose,no-go,ngal,rune_03_uruz,yellow,0,0,,1,0.0,-1,0
1idwvxzpt8dvsgsfthnl4uu1,2,1,70,18,3,win,no-go,ngw,rune_03_naudiz,blue,0,0,,1,0.0,+10,0
1idwvxzpt8dvsgsfthnl4uu1,2,1,71,18,4,lose,go,gal,rune_03_algiz,yellow,1,1,0.504,1,1.0,-10,1
1idwvxzpt8dvsgsfthnl4uu1,2,1,72,18,2,win,go,gw,rune_03_othalan,blue,1,1,0.48,1,0.0,+10,1
1idwvxzpt8dvsgsfthnl4uu1,2,1,73,19,1,lose,no-go,ngal,rune_03_uruz,yellow,0,0,,1,0.0,-1,0
1idwvxzpt8dvsgsfthnl4uu1,2,1,74,19,3,win,no-go,ngw,rune_03_naudiz,blue,0,0,,1,1.0,+1,0
1idwvxzpt8dvsgsfthnl4uu1,2,1,75,19,2,win,go,gw,rune_03_othalan,blue,1,1,0.432,1,0.0,+10,1
1idwvxzpt8dvsgsfthnl4uu1,2,1,76,19,4,lose,go,gal,rune_03_algiz,yellow,1,1,0.525,1,0.0,-1,1
1idwvxzpt8dvsgsfthnl4uu1,2,1,77,20,4,lose,go,gal,rune_03_algiz,yellow,1,1,0.853,1,0.0,-1,1
1idwvxzpt8dvsgsfthnl4uu1,2,1,78,20,2,win,go,gw,rune_03_othalan,blue,1,1,0.371,1,0.0,+10,1
1idwvxzpt8dvsgsfthnl4uu1,2,1,79,20,1,lose,no-go,ngal,rune_03_uruz,yellow,0,0,,1,0.0,-1,0
1idwvxzpt8dvsgsfthnl4uu1,2,1,80,20,3,win,no-go,ngw,rune_03_naudiz,blue,0,0,,1,0.0,+10,0
1idwvxzpt8dvsgsfthnl4uu1,2,1,81,21,2,win,go,gw,rune_03_othalan,blue,1,1,0.558,1,0.0,+10,1
1idwvxzpt8dvsgsfthnl4uu1,2,1,82,21,4,lose,go,gal,rune_03_algiz,yellow,1,1,0.562,1,0.0,-1,1
1idwvxzpt8dvsgsfthnl4uu1,2,1,83,21,3,win,no-go,ngw,rune_03_naudiz,blue,0,0,,1,0.0,+10,0
1idwvxzpt8dvsgsfthnl4uu1,2,1,84,21,1,lose,no-go,ngal,rune_03_uruz,yellow,0,0,,1,1.0,-10,0
1idwvxzpt8dvsgsfthnl4uu1,2,1,85,22,3,win,no-go,ngw,rune_03_naudiz,blue,0,0,,1,0.0,+10,0
1idwvxzpt8dvsgsfthnl4uu1,2,1,86,22,4,lose,go,gal,rune_03_algiz,yellow,1,1,0.429,1,0.0,-1,1
1idwvxzpt8dvsgsfthnl4uu1,2,1,87,22,1,lose,no-go,ngal,rune_03_uruz,yellow,0,0,,1,0.0,-1,0
1idwvxzpt8dvsgsfthnl4uu1,2,1,88,22,2,win,go,gw,rune_03_othalan,blue,1,1,0.35,1,0.0,+10,1
1idwvxzpt8dvsgsfthnl4uu1,2,1,89,23,4,lose,go,gal,rune_03_algiz,yellow,1,1,0.53,1,0.0,-1,1
1idwvxzpt8dvsgsfthnl4uu1,2,1,90,23,1,lose,no-go,ngal,rune_03_uruz,yellow,0,0,,1,0.0,-1,0
1idwvxzpt8dvsgsfthnl4uu1,2,1,91,23,3,win,no-go,ngw,rune_03_naudiz,blue,0,0,,1,1.0,+1,0
1idwvxzpt8dvsgsfthnl4uu1,2,1,92,23,2,win,go,gw,rune_03_othalan,blue,1,1,0.465,1,1.0,+1,1
1idwvxzpt8dvsgsfthnl4uu1,2,1,93,24,3,win,no-go,ngw,rune_03_naudiz,blue,0,0,,1,0.0,+10,0
1idwvxzpt8dvsgsfthnl4uu1,2,1,94,24,2,win,go,gw,rune_03_othalan,blue,1,1,0.409,1,0.0,+10,1
1idwvxzpt8dvsgsfthnl4uu1,2,1,95,24,4,lose,go,gal,rune_03_algiz,yellow,1,1,0.468,1,0.0,-1,1
1idwvxzpt8dvsgsfthnl4uu1,2,1,96,24,1,lose,no-go,ngal,rune_03_uruz,yellow,0,0,,1,0.0,-1,0
1idwvxzpt8dvsgsfthnl4uu1,2,1,97,25,2,win,go,gw,rune_03_othalan,blue,1,1,0.389,1,0.0,+10,1
1idwvxzpt8dvsgsfthnl4uu1,2,1,98,25,4,lose,go,gal,rune_03_algiz,yellow,1,1,0.444,1,1.0,-10,1
1idwvxzpt8dvsgsfthnl4uu1,2,1,99,25,3,win,no-go,ngw,rune_03_naudiz,blue,0,0,,1,0.0,+10,0
1idwvxzpt8dvsgsfthnl4uu1,2,1,100,25,1,lose,no-go,ngal,rune_03_uruz,yellow,0,0,,1,0.0,-1,0
1idwvxzpt8dvsgsfthnl4uu1,2,1,101,26,4,lose,go,gal,rune_03_algiz,yellow,1,1,0.521,1,0.0,-1,1
1idwvxzpt8dvsgsfthnl4uu1,2,1,102,26,2,win,go,gw,rune_03_othalan,blue,1,1,0.336,1,0.0,+10,1
1idwvxzpt8dvsgsfthnl4uu1,2,1,103,26,1,lose,no-go,ngal,rune_03_uruz,yellow,0,0,,1,0.0,-1,0
1idwvxzpt8dvsgsfthnl4uu1,2,1,104,26,3,win,no-go,ngw,rune_03_naudiz,blue,0,0,,1,0.0,+10,0
1idwvxzpt8dvsgsfthnl4uu1,2,1,105,27,1,lose,no-go,ngal,rune_03_uruz,yellow,0,0,,1,1.0,-10,0
1idwvxzpt8dvsgsfthnl4uu1,2,1,106,27,2,win,go,gw,rune_03_othalan,blue,1,1,0.328,1,1.0,+1,1
1idwvxzpt8dvsgsfthnl4uu1,2,1,107,27,4,lose,go,gal,rune_03_algiz,yellow,1,1,0.444,1,0.0,-1,1
1idwvxzpt8dvsgsfthnl4uu1,2,1,108,27,3,win,no-go,ngw,rune_03_naudiz,blue,0,0,,1,0.0,+10,0
1idwvxzpt8dvsgsfthnl4uu1,2,1,109,28,4,lose,go,gal,rune_03_algiz,yellow,1,1,0.449,1,1.0,-10,1
1idwvxzpt8dvsgsfthnl4uu1,2,1,110,28,2,win,go,gw,rune_03_othalan,blue,1,1,0.431,1,0.0,+10,1
1idwvxzpt8dvsgsfthnl4uu1,2,1,111,28,3,win,no-go,ngw,rune_03_naudiz,blue,0,0,,1,1.0,+1,0
1idwvxzpt8dvsgsfthnl4uu1,2,1,112,28,1,lose,no-go,ngal,rune_03_uruz,yellow,0,0,,1,0.0,-1,0
1idwvxzpt8dvsgsfthnl4uu1,2,1,113,29,4,lose,go,gal,rune_03_algiz,yellow,1,1,0.422,1,0.0,-1,1
1idwvxzpt8dvsgsfthnl4uu1,2,1,114,29,3,win,no-go,ngw,rune_03_naudiz,blue,0,0,,1,0.0,+10,0
1idwvxzpt8dvsgsfthnl4uu1,2,1,115,29,1,lose,no-go,ngal,rune_03_uruz,yellow,0,0,,1,0.0,-1,0
1idwvxzpt8dvsgsfthnl4uu1,2,1,116,29,2,win,go,gw,rune_03_othalan,blue,1,1,0.286,1,0.0,+10,1
1idwvxzpt8dvsgsfthnl4uu1,2,1,117,30,4,lose,go,gal,rune_03_algiz,yellow,1,1,0.341,1,0.0,-1,1
1idwvxzpt8dvsgsfthnl4uu1,2,1,118,30,3,win,no-go,ngw,rune_03_naudiz,blue,0,0,,1,0.0,+10,0
1idwvxzpt8dvsgsfthnl4uu1,2,1,119,30,2,win,go,gw,rune_03_othalan,blue,1,1,0.398,1,0.0,+10,1
1idwvxzpt8dvsgsfthnl4uu1,2,1,120,30,1,lose,no-go,ngal,rune_03_uruz,yellow,0,0,,1,0.0,-1,0
1idwvxzpt8dvsgsfthnl4uu1,2,2,121,1,5,lose,go,gal,rune_04_dagaz,yellow,1,1,0.234,1,0.0,-1,1
1idwvxzpt8dvsgsfthnl4uu1,2,2,122,1,6,win,no-go,ngw,rune_04_iwaz,blue,0,1,0.36,0,0.0,+1,1
1idwvxzpt8dvsgsfthnl4uu1,2,2,123,1,7,win,go,gw,rune_04_ac,blue,1,1,0.313,1,0.0,+10,1
1idwvxzpt8dvsgsfthnl4uu1,2,2,124,1,8,lose,no-go,ngal,rune_04_wunjo,yellow,0,0,,1,1.0,-10,0
1idwvxzpt8dvsgsfthnl4uu1,2,2,125,2,7,win,go,gw,rune_04_ac,blue,1,1,0.494,1,1.0,+1,1
1idwvxzpt8dvsgsfthnl4uu1,2,2,126,2,5,lose,go,gal,rune_04_dagaz,yellow,1,1,0.453,1,1.0,-10,1
1idwvxzpt8dvsgsfthnl4uu1,2,2,127,2,8,lose,no-go,ngal,rune_04_wunjo,yellow,0,1,0.375,0,0.0,-10,1
1idwvxzpt8dvsgsfthnl4uu1,2,2,128,2,6,win,no-go,ngw,rune_04_iwaz,blue,0,1,0.495,0,0.0,+1,1
1idwvxzpt8dvsgsfthnl4uu1,2,2,129,3,6,win,no-go,ngw,rune_04_iwaz,blue,0,0,,1,1.0,+1,0
1idwvxzpt8dvsgsfthnl4uu1,2,2,130,3,8,lose,no-go,ngal,rune_04_wunjo,yellow,0,1,0.811,0,0.0,-10,1
1idwvxzpt8dvsgsfthnl4uu1,2,2,131,3,5,lose,go,gal,rune_04_dagaz,yellow,1,0,,0,0.0,-10,0
1idwvxzpt8dvsgsfthnl4uu1,2,2,132,3,7,win,go,gw,rune_04_ac,blue,1,1,0.459,1,0.0,+10,1
1idwvxzpt8dvsgsfthnl4uu1,2,2,133,4,8,lose,no-go,ngal,rune_04_wunjo,yellow,0,0,,1,0.0,-1,0
1idwvxzpt8dvsgsfthnl4uu1,2,2,134,4,6,win,no-go,ngw,rune_04_iwaz,blue,0,0,,1,0.0,+10,0
1idwvxzpt8dvsgsfthnl4uu1,2,2,135,4,5,lose,go,gal,rune_04_dagaz,yellow,1,1,0.455,1,0.0,-1,1
1idwvxzpt8dvsgsfthnl4uu1,2,2,136,4,7,win,go,gw,rune_04_ac,blue,1,1,0.313,1,0.0,+10,1
1idwvxzpt8dvsgsfthnl4uu1,2,2,137,5,8,lose,no-go,ngal,rune_04_wunjo,yellow,0,1,1.319,0,0.0,-10,1
1idwvxzpt8dvsgsfthnl4uu1,2,2,138,5,7,win,go,gw,rune_04_ac,blue,1,1,0.432,1,0.0,+10,1
1idwvxzpt8dvsgsfthnl4uu1,2,2,139,5,6,win,no-go,ngw,rune_04_iwaz,blue,0,0,,1,0.0,+10,0
1idwvxzpt8dvsgsfthnl4uu1,2,2,140,5,5,lose,go,gal,rune_04_dagaz,yellow,1,1,0.277,1,0.0,-1,1
1idwvxzpt8dvsgsfthnl4uu1,2,2,141,6,5,lose,go,gal,rune_04_dagaz,yellow,1,1,0.538,1,0.0,-1,1
1idwvxzpt8dvsgsfthnl4uu1,2,2,142,6,8,lose,no-go,ngal,rune_04_wunjo,yellow,0,0,,1,0.0,-1,0
1idwvxzpt8dvsgsfthnl4uu1,2,2,143,6,6,win,no-go,ngw,rune_04_iwaz,blue,0,0,,1,0.0,+10,0
1idwvxzpt8dvsgsfthnl4uu1,2,2,144,6,7,win,go,gw,rune_04_ac,blue,1,1,0.493,1,0.0,+10,1
1idwvxzpt8dvsgsfthnl4uu1,2,2,145,7,8,lose,no-go,ngal,rune_04_wunjo,yellow,0,0,,1,0.0,-1,0
1idwvxzpt8dvsgsfthnl4uu1,2,2,146,7,7,win,go,gw,rune_04_ac,blue,1,1,0.432,1,0.0,+10,1
1idwvxzpt8dvsgsfthnl4uu1,2,2,147,7,6,win,no-go,ngw,rune_04_iwaz,blue,0,0,,1,1.0,+1,0
1idwvxzpt8dvsgsfthnl4uu1,2,2,148,7,5,lose,go,gal,rune_04_dagaz,yellow,1,1,0.561,1,0.0,-1,1
1idwvxzpt8dvsgsfthnl4uu1,2,2,149,8,6,win,no-go,ngw,rune_04_iwaz,blue,0,0,,1,0.0,+10,0
1idwvxzpt8dvsgsfthnl4uu1,2,2,150,8,7,win,go,gw,rune_04_ac,blue,1,1,0.395,1,0.0,+10,1
1idwvxzpt8dvsgsfthnl4uu1,2,2,151,8,8,lose,no-go,ngal,rune_04_wunjo,yellow,0,0,,1,1.0,-10,0
1idwvxzpt8dvsgsfthnl4uu1,2,2,152,8,5,lose,go,gal,rune_04_dagaz,yellow,1,1,0.276,1,0.0,-1,1
1idwvxzpt8dvsgsfthnl4uu1,2,2,153,9,7,win,go,gw,rune_04_ac,blue,1,1,0.364,1,1.0,+1,1
1idwvxzpt8dvsgsfthnl4uu1,2,2,154,9,5,lose,go,gal,rune_04_dagaz,yellow,1,1,0.491,1,0.0,-1,1
1idwvxzpt8dvsgsfthnl4uu1,2,2,155,9,6,win,no-go,ngw,rune_04_iwaz,blue,0,0,,1,0.0,+10,0
1idwvxzpt8dvsgsfthnl4uu1,2,2,156,9,8,lose,no-go,ngal,rune_04_wunjo,yellow,0,0,,1,0.0,-1,0
1idwvxzpt8dvsgsfthnl4uu1,2,2,157,10,6,win,no-go,ngw,rune_04_iwaz,blue,0,0,,1,0.0,+10,0
1idwvxzpt8dvsgsfthnl4uu1,2,2,158,10,7,win,go,gw,rune_04_ac,blue,1,1,0.473,1,0.0,+10,1
1idwvxzpt8dvsgsfthnl4uu1,2,2,159,10,8,lose,no-go,ngal,rune_04_wunjo,yellow,0,0,,1,0.0,-1,0
1idwvxzpt8dvsgsfthnl4uu1,2,2,160,10,5,lose,go,gal,rune_04_dagaz,yellow,1,1,0.39,1,1.0,-10,1
1idwvxzpt8dvsgsfthnl4uu1,2,2,161,11,6,win,no-go,ngw,rune_04_iwaz,blue,0,0,,1,0.0,+10,0
1idwvxzpt8dvsgsfthnl4uu1,2,2,162,11,7,win,go,gw,rune_04_ac,blue,1,1,0.487,1,0.0,+10,1
1idwvxzpt8dvsgsfthnl4uu1,2,2,163,11,5,lose,go,gal,rune_04_dagaz,yellow,1,1,0.377,1,0.0,-1,1
1idwvxzpt8dvsgsfthnl4uu1,2,2,164,11,8,lose,no-go,ngal,rune_04_wunjo,yellow,0,0,,1,0.0,-1,0
1idwvxzpt8dvsgsfthnl4uu1,2,2,165,12,6,win,no-go,ngw,rune_04_iwaz,blue,0,0,,1,1.0,+1,0
1idwvxzpt8dvsgsfthnl4uu1,2,2,166,12,8,lose,no-go,ngal,rune_04_wunjo,yellow,0,0,,1,0.0,-1,0
1idwvxzpt8dvsgsfthnl4uu1,2,2,167,12,5,lose,go,gal,rune_04_dagaz,yellow,1,1,0.241,1,1.0,-10,1
1idwvxzpt8dvsgsfthnl4uu1,2,2,168,12,7,win,go,gw,rune_04_ac,blue,1,1,0.48,1,0.0,+10,1
1idwvxzpt8dvsgsfthnl4uu1,2,2,169,13,6,win,no-go,ngw,rune_04_iwaz,blue,0,0,,1,0.0,+10,0
1idwvxzpt8dvsgsfthnl4uu1,2,2,170,13,8,lose,no-go,ngal,rune_04_wunjo,yellow,0,0,,1,1.0,-10,0
1idwvxzpt8dvsgsfthnl4uu1,2,2,171,13,5,lose,go,gal,rune_04_dagaz,yellow,1,1,0.776,1,0.0,-1,1
1idwvxzpt8dvsgsfthnl4uu1,2,2,172,13,7,win,go,gw,rune_04_ac,blue,1,1,0.386,1,0.0,+10,1
1idwvxzpt8dvsgsfthnl4uu1,2,2,173,14,5,lose,go,gal,rune_04_dagaz,yellow,1,1,0.447,1,0.0,-1,1
1idwvxzpt8dvsgsfthnl4uu1,2,2,174,14,8,lose,no-go,ngal,rune_04_wunjo,yellow,0,0,,1,0.0,-1,0
1idwvxzpt8dvsgsfthnl4uu1,2,2,175,14,7,win,go,gw,rune_04_ac,blue,1,1,0.506,1,1.0,+1,1
1idwvxzpt8dvsgsfthnl4uu1,2,2,176,14,6,win,no-go,ngw,rune_04_iwaz,blue,0,0,,1,0.0,+10,0
1idwvxzpt8dvsgsfthnl4uu1,2,2,177,15,5,lose,go,gal,rune_04_dagaz,yellow,1,1,0.598,1,0.0,-1,1
1idwvxzpt8dvsgsfthnl4uu1,2,2,178,15,6,win,no-go,ngw,rune_04_iwaz,blue,0,0,,1,0.0,+10,0
1idwvxzpt8dvsgsfthnl4uu1,2,2,179,15,7,win,go,gw,rune_04_ac,blue,1,1,0.46,1,0.0,+10,1
1idwvxzpt8dvsgsfthnl4uu1,2,2,180,15,8,lose,no-go,ngal,rune_04_wunjo,yellow,0,0,,1,0.0,-1,0
1idwvxzpt8dvsgsfthnl4uu1,2,2,181,16,5,lose,go,gal,rune_04_dagaz,yellow,1,1,0.356,1,0.0,-1,1
1idwvxzpt8dvsgsfthnl4uu1,2,2,182,16,6,win,no-go,ngw,rune_04_iwaz,blue,0,0,,1,0.0,+10,0
1idwvxzpt8dvsgsfthnl4uu1,2,2,183,16,7,win,go,gw,rune_04_ac,blue,1,1,0.376,1,1.0,+1,1
1idwvxzpt8dvsgsfthnl4uu1,2,2,184,16,8,lose,no-go,ngal,rune_04_wunjo,yellow,0,0,,1,1.0,-10,0
1idwvxzpt8dvsgsfthnl4uu1,2,2,185,17,5,lose,go,gal,rune_04_dagaz,yellow,1,1,0.439,1,0.0,-1,1
1idwvxzpt8dvsgsfthnl4uu1,2,2,186,17,6,win,no-go,ngw,rune_04_iwaz,blue,0,0,,1,0.0,+10,0
1idwvxzpt8dvsgsfthnl4uu1,2,2,187,17,7,win,go,gw,rune_04_ac,blue,1,1,0.416,1,0.0,+10,1
1idwvxzpt8dvsgsfthnl4uu1,2,2,188,17,8,lose,no-go,ngal,rune_04_wunjo,yellow,0,0,,1,0.0,-1,0
1idwvxzpt8dvsgsfthnl4uu1,2,2,189,18,8,lose,no-go,ngal,rune_04_wunjo,yellow,0,0,,1,0.0,-1,0
1idwvxzpt8dvsgsfthnl4uu1,2,2,190,18,5,lose,go,gal,rune_04_dagaz,yellow,1,1,0.332,1,1.0,-10,1
1idwvxzpt8dvsgsfthnl4uu1,2,2,191,18,7,win,go,gw,rune_04_ac,blue,1,1,0.41,1,0.0,+10,1
1idwvxzpt8dvsgsfthnl4uu1,2,2,192,18,6,win,no-go,ngw,rune_04_iwaz,blue,0,0,,1,0.0,+10,0
1idwvxzpt8dvsgsfthnl4uu1,2,2,193,19,8,lose,no-go,ngal,rune_04_wunjo,yellow,0,0,,1,0.0,-1,0
1idwvxzpt8dvsgsfthnl4uu1,2,2,194,19,7,win,go,gw,rune_04_ac,blue,1,1,0.486,1,0.0,+10,1
1idwvxzpt8dvsgsfthnl4uu1,2,2,195,19,5,lose,go,gal,rune_04_dagaz,yellow,1,1,0.383,1,0.0,-1,1
1idwvxzpt8dvsgsfthnl4uu1,2,2,196,19,6,win,no-go,ngw,rune_04_iwaz,blue,0,0,,1,1.0,+1,0
1idwvxzpt8dvsgsfthnl4uu1,2,2,197,20,6,win,no-go,ngw,rune_04_iwaz,blue,0,0,,1,0.0,+10,0
1idwvxzpt8dvsgsfthnl4uu1,2,2,198,20,8,lose,no-go,ngal,rune_04_wunjo,yellow,0,0,,1,0.0,-1,0
1idwvxzpt8dvsgsfthnl4uu1,2,2,199,20,5,lose,go,gal,rune_04_dagaz,yellow,1,1,0.324,1,0.0,-1,1
1idwvxzpt8dvsgsfthnl4uu1,2,2,200,20,7,win,go,gw,rune_04_ac,blue,1,1,0.448,1,0.0,+10,1
1idwvxzpt8dvsgsfthnl4uu1,2,2,201,21,6,win,no-go,ngw,rune_04_iwaz,blue,0,0,,1,0.0,+10,0
1idwvxzpt8dvsgsfthnl4uu1,2,2,202,21,5,lose,go,gal,rune_04_dagaz,yellow,1,1,0.412,1,0.0,-1,1
1idwvxzpt8dvsgsfthnl4uu1,2,2,203,21,7,win,go,gw,rune_04_ac,blue,1,1,0.446,1,0.0,+10,1
1idwvxzpt8dvsgsfthnl4uu1,2,2,204,21,8,lose,no-go,ngal,rune_04_wunjo,yellow,0,0,,1,1.0,-10,0
1idwvxzpt8dvsgsfthnl4uu1,2,2,205,22,5,lose,go,gal,rune_04_dagaz,yellow,1,1,0.403,1,0.0,-1,1
1idwvxzpt8dvsgsfthnl4uu1,2,2,206,22,7,win,go,gw,rune_04_ac,blue,1,1,0.397,1,0.0,+10,1
1idwvxzpt8dvsgsfthnl4uu1,2,2,207,22,6,win,no-go,ngw,rune_04_iwaz,blue,0,0,,1,0.0,+10,0
1idwvxzpt8dvsgsfthnl4uu1,2,2,208,22,8,lose,no-go,ngal,rune_04_wunjo,yellow,0,0,,1,0.0,-1,0
1idwvxzpt8dvsgsfthnl4uu1,2,2,209,23,5,lose,go,gal,rune_04_dagaz,yellow,1,1,0.444,1,0.0,-1,1
1idwvxzpt8dvsgsfthnl4uu1,2,2,210,23,6,win,no-go,ngw,rune_04_iwaz,blue,0,0,,1,1.0,+1,0
1idwvxzpt8dvsgsfthnl4uu1,2,2,211,23,8,lose,no-go,ngal,rune_04_wunjo,yellow,0,0,,1,0.0,-1,0
1idwvxzpt8dvsgsfthnl4uu1,2,2,212,23,7,win,go,gw,rune_04_ac,blue,1,1,0.313,1,1.0,+1,1
1idwvxzpt8dvsgsfthnl4uu1,2,2,213,24,5,lose,go,gal,rune_04_dagaz,yellow,1,1,0.584,1,0.0,-1,1
1idwvxzpt8dvsgsfthnl4uu1,2,2,214,24,6,win,no-go,ngw,rune_04_iwaz,blue,0,0,,1,0.0,+10,0
1idwvxzpt8dvsgsfthnl4uu1,2,2,215,24,8,lose,no-go,ngal,rune_04_wunjo,yellow,0,0,,1,0.0,-1,0
1idwvxzpt8dvsgsfthnl4uu1,2,2,216,24,7,win,go,gw,rune_04_ac,blue,1,1,0.351,1,0.0,+10,1
1idwvxzpt8dvsgsfthnl4uu1,2,2,217,25,6,win,no-go,ngw,rune_04_iwaz,blue,0,0,,1,0.0,+10,0
1idwvxzpt8dvsgsfthnl4uu1,2,2,218,25,8,lose,no-go,ngal,rune_04_wunjo,yellow,0,0,,1,0.0,-1,0
1idwvxzpt8dvsgsfthnl4uu1,2,2,219,25,7,win,go,gw,rune_04_ac,blue,1,1,0.649,1,0.0,+10,1
1idwvxzpt8dvsgsfthnl4uu1,2,2,220,25,5,lose,go,gal,rune_04_dagaz,yellow,1,1,0.709,1,1.0,-10,1
1idwvxzpt8dvsgsfthnl4uu1,2,2,221,26,8,lose,no-go,ngal,rune_04_wunjo,yellow,0,0,,1,0.0,-1,0
1idwvxzpt8dvsgsfthnl4uu1,2,2,222,26,6,win,no-go,ngw,rune_04_iwaz,blue,0,0,,1,0.0,+10,0
1idwvxzpt8dvsgsfthnl4uu1,2,2,223,26,7,win,go,gw,rune_04_ac,blue,1,1,0.506,1,0.0,+10,1
1idwvxzpt8dvsgsfthnl4uu1,2,2,224,26,5,lose,go,gal,rune_04_dagaz,yellow,1,1,0.715,1,0.0,-1,2
1idwvxzpt8dvsgsfthnl4uu1,2,2,225,27,7,win,go,gw,rune_04_ac,blue,1,1,0.802,1,1.0,+1,1
1idwvxzpt8dvsgsfthnl4uu1,2,2,226,27,8,lose,no-go,ngal,rune_04_wunjo,yellow,0,0,,1,1.0,-10,0
1idwvxzpt8dvsgsfthnl4uu1,2,2,227,27,5,lose,go,gal,rune_04_dagaz,yellow,1,1,0.414,1,0.0,-1,1
1idwvxzpt8dvsgsfthnl4uu1,2,2,228,27,6,win,no-go,ngw,rune_04_iwaz,blue,0,0,,1,0.0,+10,0
1idwvxzpt8dvsgsfthnl4uu1,2,2,229,28,6,win,no-go,ngw,rune_04_iwaz,blue,0,0,,1,1.0,+1,0
1idwvxzpt8dvsgsfthnl4uu1,2,2,230,28,8,lose,no-go,ngal,rune_04_wunjo,yellow,0,0,,1,0.0,-1,0
1idwvxzpt8dvsgsfthnl4uu1,2,2,231,28,7,win,go,gw,rune_04_ac,blue,1,1,0.357,1,0.0,+10,1
1idwvxzpt8dvsgsfthnl4uu1,2,2,232,28,5,lose,go,gal,rune_04_dagaz,yellow,1,1,0.621,1,1.0,-10,1
1idwvxzpt8dvsgsfthnl4uu1,2,2,233,29,8,lose,no-go,ngal,rune_04_wunjo,yellow,0,0,,1,0.0,-1,0
1idwvxzpt8dvsgsfthnl4uu1,2,2,234,29,5,lose,go,gal,rune_04_dagaz,yellow,1,1,0.299,1,0.0,-1,1
1idwvxzpt8dvsgsfthnl4uu1,2,2,235,29,7,win,go,gw,rune_04_ac,blue,1,1,0.77,1,0.0,+10,1
1idwvxzpt8dvsgsfthnl4uu1,2,2,236,29,6,win,no-go,ngw,rune_04_iwaz,blue,0,0,,1,0.0,+10,0
1idwvxzpt8dvsgsfthnl4uu1,2,2,237,30,8,lose,no-go,ngal,rune_04_wunjo,yellow,0,0,,1,0.0,-1,0
1idwvxzpt8dvsgsfthnl4uu1,2,2,238,30,7,win,go,gw,rune_04_ac,blue,1,1,0.524,1,0.0,+10,1
1idwvxzpt8dvsgsfthnl4uu1,2,2,239,30,5,lose,go,gal,rune_04_dagaz,yellow,1,1,0.33,1,0.0,-1,1
1idwvxzpt8dvsgsfthnl4uu1,2,2,240,30,6,win,no-go,ngw,rune_04_iwaz,blue,0,0,,1,0.0,+10,0
1pvf4ir8v21v5wrnei5xl1zq,2,1,1,1,1,win,no-go,ngw,rune_03_uruz,yellow,0,1,0.371,0,0.0,+1,1
1pvf4ir8v21v5wrnei5xl1zq,2,1,2,1,2,win,go,gw,rune_03_naudiz,yellow,1,1,0.534,1,0.0,+10,1
1pvf4ir8v21v5wrnei5xl1zq,2,1,3,1,3,lose,go,gal,rune_03_othalan,blue,1,1,0.496,1,1.0,-10,1
1pvf4ir8v21v5wrnei5xl1zq,2,1,4,1,4,lose,no-go,ngal,rune_03_algiz,blue,0,1,0.299,0,0.0,-10,1
1pvf4ir8v21v5wrnei5xl1zq,2,1,5,2,2,win,go,gw,rune_03_naudiz,yellow,1,1,0.426,1,0.0,+10,1
1pvf4ir8v21v5wrnei5xl1zq,2,1,6,2,3,lose,go,gal,rune_03_othalan,blue,1,1,0.475,1,0.0,-1,1
1pvf4ir8v21v5wrnei5xl1zq,2,1,7,2,1,win,no-go,ngw,rune_03_uruz,yellow,0,0,,1,0.0,+10,0
1pvf4ir8v21v5wrnei5xl1zq,2,1,8,2,4,lose,no-go,ngal,rune_03_algiz,blue,0,0,,1,0.0,-1,0
1pvf4ir8v21v5wrnei5xl1zq,2,1,9,3,1,win,no-go,ngw,rune_03_uruz,yellow,0,0,,1,1.0,+1,0
1pvf4ir8v21v5wrnei5xl1zq,2,1,10,3,2,win,go,gw,rune_03_naudiz,yellow,1,1,0.405,1,0.0,+10,1
1pvf4ir8v21v5wrnei5xl1zq,2,1,11,3,4,lose,no-go,ngal,rune_03_algiz,blue,0,0,,1,0.0,-1,0
1pvf4ir8v21v5wrnei5xl1zq,2,1,12,3,3,lose,go,gal,rune_03_othalan,blue,1,1,0.382,1,0.0,-1,1
1pvf4ir8v21v5wrnei5xl1zq,2,1,13,4,4,lose,no-go,ngal,rune_03_algiz,blue,0,0,,1,1.0,-10,0
1pvf4ir8v21v5wrnei5xl1zq,2,1,14,4,3,lose,go,gal,rune_03_othalan,blue,1,1,0.445,1,0.0,-1,1
1pvf4ir8v21v5wrnei5xl1zq,2,1,15,4,2,win,go,gw,rune_03_naudiz,yellow,1,1,0.26,1,1.0,+1,1
1pvf4ir8v21v5wrnei5xl1zq,2,1,16,4,1,win,no-go,ngw,rune_03_uruz,yellow,0,0,,1,0.0,+10,0
1pvf4ir8v21v5wrnei5xl1zq,2,1,17,5,3,lose,go,gal,rune_03_othalan,blue,1,1,0.404,1,0.0,-1,1
1pvf4ir8v21v5wrnei5xl1zq,2,1,18,5,1,win,no-go,ngw,rune_03_uruz,yellow,0,0,,1,0.0,+10,0
1pvf4ir8v21v5wrnei5xl1zq,2,1,19,5,2,win,go,gw,rune_03_naudiz,yellow,1,1,0.423,1,0.0,+10,1
1pvf4ir8v21v5wrnei5xl1zq,2,1,20,5,4,lose,no-go,ngal,rune_03_algiz,blue,0,0,,1,0.0,-1,0
1pvf4ir8v21v5wrnei5xl1zq,2,1,21,6,3,lose,go,gal,rune_03_othalan,blue,1,1,0.292,1,0.0,-1,1
1pvf4ir8v21v5wrnei5xl1zq,2,1,22,6,1,win,no-go,ngw,rune_03_uruz,yellow,0,0,,1,0.0,+10,0
1pvf4ir8v21v5wrnei5xl1zq,2,1,23,6,4,lose,no-go,ngal,rune_03_algiz,blue,0,0,,1,0.0,-1,0
1pvf4ir8v21v5wrnei5xl1zq,2,1,24,6,2,win,go,gw,rune_03_naudiz,yellow,1,1,0.438,1,1.0,+1,1
1pvf4ir8v21v5wrnei5xl1zq,2,1,25,7,3,lose,go,gal,rune_03_othalan,blue,1,1,0.261,1,0.0,-1,1
1pvf4ir8v21v5wrnei5xl1zq,2,1,26,7,2,win,go,gw,rune_03_naudiz,yellow,1,1,0.281,1,0.0,+10,1
1pvf4ir8v21v5wrnei5xl1zq,2,1,27,7,1,win,no-go,ngw,rune_03_uruz,yellow,0,0,,1,1.0,+1,0
1pvf4ir8v21v5wrnei5xl1zq,2,1,28,7,4,lose,no-go,ngal,rune_03_algiz,blue,0,0,,1,0.0,-1,0
1pvf4ir8v21v5wrnei5xl1zq,2,1,29,8,4,lose,no-go,ngal,rune_03_algiz,blue,0,0,,1,1.0,-10,0
1pvf4ir8v21v5wrnei5xl1zq,2,1,30,8,2,win,go,gw,rune_03_naudiz,yellow,1,1,0.417,1,0.0,+10,1
1pvf4ir8v21v5wrnei5xl1zq,2,1,31,8,3,lose,go,gal,rune_03_othalan,blue,1,1,0.294,1,0.0,-1,1
1pvf4ir8v21v5wrnei5xl1zq,2,1,32,8,1,win,no-go,ngw,rune_03_uruz,yellow,0,0,,1,0.0,+10,0
1pvf4ir8v21v5wrnei5xl1zq,2,1,33,9,2,win,go,gw,rune_03_naudiz,yellow,1,1,0.386,1,0.0,+10,1
1pvf4ir8v21v5wrnei5xl1zq,2,1,34,9,4,lose,no-go,ngal,rune_03_algiz,blue,0,0,,1,0.0,-1,0
1pvf4ir8v21v5wrnei5xl1zq,2,1,35,9,3,lose,go,gal,rune_03_othalan,blue,1,1,0.303,1,1.0,-10,1
1pvf4ir8v21v5wrnei5xl1zq,2,1,36,9,1,win,no-go,ngw,rune_03_uruz,yellow,0,0,,1,0.0,+10,0
1pvf4ir8v21v5wrnei5xl1zq,2,1,37,10,2,win,go,gw,rune_03_naudiz,yellow,1,1,0.443,1,0.0,+10,1
1pvf4ir8v21v5wrnei5xl1zq,2,1,38,10,3,lose,go,gal,rune_03_othalan,blue,1,1,0.293,1,0.0,-1,1
1pvf4ir8v21v5wrnei5xl1zq,2,1,39,10,1,win,no-go,ngw,rune_03_uruz,yellow,0,0,,1,0.0,+10,0
1pvf4ir8v21v5wrnei5xl1zq,2,1,40,10,4,lose,no-go,ngal,rune_03_algiz,blue,0,0,,1,0.0,-1,0
1pvf4ir8v21v5wrnei5xl1zq,2,1,41,11,4,lose,no-go,ngal,rune_03_algiz,blue,0,0,,1,0.0,-1,0
1pvf4ir8v21v5wrnei5xl1zq,2,1,42,11,2,win,go,gw,rune_03_naudiz,yellow,1,1,0.374,1,0.0,+10,1
1pvf4ir8v21v5wrnei5xl1zq,2,1,43,11,1,win,no-go,ngw,rune_03_uruz,yellow,0,0,,1,1.0,+1,0
1pvf4ir8v21v5wrnei5xl1zq,2,1,44,11,3,lose,go,gal,rune_03_othalan,blue,1,1,0.423,1,0.0,-1,1
1pvf4ir8v21v5wrnei5xl1zq,2,1,45,12,2,win,go,gw,rune_03_naudiz,yellow,1,1,0.379,1,1.0,+1,1
1pvf4ir8v21v5wrnei5xl1zq,2,1,46,12,3,lose,go,gal,rune_03_othalan,blue,1,1,0.43,1,0.0,-1,1
1pvf4ir8v21v5wrnei5xl1zq,2,1,47,12,1,win,no-go,ngw,rune_03_uruz,yellow,0,0,,1,0.0,+10,0
1pvf4ir8v21v5wrnei5xl1zq,2,1,48,12,4,lose,no-go,ngal,rune_03_algiz,blue,0,0,,1,1.0,-10,0
1pvf4ir8v21v5wrnei5xl1zq,2,1,49,13,4,lose,no-go,ngal,rune_03_algiz,blue,0,0,,1,0.0,-1,0
1pvf4ir8v21v5wrnei5xl1zq,2,1,50,13,1,win,no-go,ngw,rune_03_uruz,yellow,0,0,,1,0.0,+10,0
1pvf4ir8v21v5wrnei5xl1zq,2,1,51,13,3,lose,go,gal,rune_03_othalan,blue,1,1,0.296,1,1.0,-10,1
1pvf4ir8v21v5wrnei5xl1zq,2,1,52,13,2,win,go,gw,rune_03_naudiz,yellow,1,1,0.382,1,0.0,+10,1
1pvf4ir8v21v5wrnei5xl1zq,2,1,53,14,4,lose,no-go,ngal,rune_03_algiz,blue,0,0,,1,0.0,-1,0
1pvf4ir8v21v5wrnei5xl1zq,2,1,54,14,2,win,go,gw,rune_03_naudiz,yellow,1,1,0.349,1,0.0,+10,1
1pvf4ir8v21v5wrnei5xl1zq,2,1,55,14,3,lose,go,gal,rune_03_othalan,blue,1,1,0.406,1,0.0,-1,1
1pvf4ir8v21v5wrnei5xl1zq,2,1,56,14,1,win,no-go,ngw,rune_03_uruz,yellow,0,0,,1,0.0,+10,0
1pvf4ir8v21v5wrnei5xl1zq,2,1,57,15,4,lose,no-go,ngal,rune_03_algiz,blue,0,0,,1,0.0,-1,0
1pvf4ir8v21v5wrnei5xl1zq,2,1,58,15,1,win,no-go,ngw,rune_03_uruz,yellow,0,0,,1,0.0,+10,0
1pvf4ir8v21v5wrnei5xl1zq,2,1,59,15,2,win,go,gw,rune_03_naudiz,yellow,1,1,0.342,1,0.0,+10,1
1pvf4ir8v21v5wrnei5xl1zq,2,1,60,15,3,lose,go,gal,rune_03_othalan,blue,1,1,0.309,1,0.0,-1,1
1pvf4ir8v21v5wrnei5xl1zq,2,1,61,16,3,lose,go,gal,rune_03_othalan,blue,1,1,0.281,1,1.0,-10,1
1pvf4ir8v21v5wrnei5xl1zq,2,1,62,16,4,lose,no-go,ngal,rune_03_algiz,blue,0,0,,1,0.0,-1,0
1pvf4ir8v21v5wrnei5xl1zq,2,1,63,16,1,win,no-go,ngw,rune_03_uruz,yellow,0,0,,1,0.0,+10,0
1pvf4ir8v21v5wrnei5xl1zq,2,1,64,16,2,win,go,gw,rune_03_naudiz,yellow,1,1,0.361,1,0.0,+10,1
1pvf4ir8v21v5wrnei5xl1zq,2,1,65,17,4,lose,no-go,ngal,rune_03_algiz,blue,0,0,,1,0.0,-1,0
1pvf4ir8v21v5wrnei5xl1zq,2,1,66,17,3,lose,go,gal,rune_03_othalan,blue,1,1,0.398,1,0.0,-1,1
1pvf4ir8v21v5wrnei5xl1zq,2,1,67,17,1,win,no-go,ngw,rune_03_uruz,yellow,0,0,,1,0.0,+10,0
1pvf4ir8v21v5wrnei5xl1zq,2,1,68,17,2,win,go,gw,rune_03_naudiz,yellow,1,1,0.362,1,0.0,+10,1
1pvf4ir8v21v5wrnei5xl1zq,2,1,69,18,1,win,no-go,ngw,rune_03_uruz,yellow,0,0,,1,1.0,+1,0
1pvf4ir8v21v5wrnei5xl1zq,2,1,70,18,4,lose,no-go,ngal,rune_03_algiz,blue,0,0,,1,0.0,-1,0
1pvf4ir8v21v5wrnei5xl1zq,2,1,71,18,3,lose,go,gal,rune_03_othalan,blue,1,1,0.269,1,0.0,-1,1
1pvf4ir8v21v5wrnei5xl1zq,2,1,72,18,2,win,go,gw,rune_03_naudiz,yellow,1,1,0.413,1,0.0,+10,1
1pvf4ir8v21v5wrnei5xl1zq,2,1,73,19,4,lose,no-go,ngal,rune_03_algiz,blue,0,0,,1,0.0,-1,0
1pvf4ir8v21v5wrnei5xl1zq,2,1,74,19,2,win,go,gw,rune_03_naudiz,yellow,1,1,0.407,1,0.0,+10,1
1pvf4ir8v21v5wrnei5xl1zq,2,1,75,19,3,lose,go,gal,rune_03_othalan,blue,1,1,0.336,1,0.0,-1,1
1pvf4ir8v21v5wrnei5xl1zq,2,1,76,19,1,win,no-go,ngw,rune_03_uruz,yellow,0,0,,1,0.0,+10,0
1pvf4ir8v21v5wrnei5xl1zq,2,1,77,20,1,win,no-go,ngw,rune_03_uruz,yellow,0,0,,1,0.0,+10,0
1pvf4ir8v21v5wrnei5xl1zq,2,1,78,20,3,lose,go,gal,rune_03_othalan,blue,1,1,0.387,1,0.0,-1,1
1pvf4ir8v21v5wrnei5xl1zq,2,1,79,20,4,lose,no-go,ngal,rune_03_algiz,blue,0,0,,1,1.0,-10,0
1pvf4ir8v21v5wrnei5xl1zq,2,1,80,20,2,win,go,gw,rune_03_naudiz,yellow,1,1,0.326,1,1.0,+1,1
1pvf4ir8v21v5wrnei5xl1zq,2,1,81,21,4,lose,no-go,ngal,rune_03_algiz,blue,0,0,,1,0.0,-1,0
1pvf4ir8v21v5wrnei5xl1zq,2,1,82,21,1,win,no-go,ngw,rune_03_uruz,yellow,0,0,,1,0.0,+10,0
1pvf4ir8v21v5wrnei5xl1zq,2,1,83,21,3,lose,go,gal,rune_03_othalan,blue,1,1,0.397,1,0.0,-1,1
1pvf4ir8v21v5wrnei5xl1zq,2,1,84,21,2,win,go,gw,rune_03_naudiz,yellow,1,1,0.3,1,0.0,+10,1
1pvf4ir8v21v5wrnei5xl1zq,2,1,85,22,2,win,go,gw,rune_03_naudiz,yellow,1,1,0.344,1,0.0,+10,1
1pvf4ir8v21v5wrnei5xl1zq,2,1,86,22,4,lose,no-go,ngal,rune_03_algiz,blue,0,0,,1,0.0,-1,0
1pvf4ir8v21v5wrnei5xl1zq,2,1,87,22,3,lose,go,gal,rune_03_othalan,blue,1,1,0.383,1,0.0,-1,1
1pvf4ir8v21v5wrnei5xl1zq,2,1,88,22,1,win,no-go,ngw,rune_03_uruz,yellow,0,0,,1,0.0,+10,0
1pvf4ir8v21v5wrnei5xl1zq,2,1,89,23,3,lose,go,gal,rune_03_othalan,blue,1,1,0.376,1,0.0,-1,1
1pvf4ir8v21v5wrnei5xl1zq,2,1,90,23,2,win,go,gw,rune_03_naudiz,yellow,1,1,0.439,1,0.0,+10,1
1pvf4ir8v21v5wrnei5xl1zq,2,1,91,23,4,lose,no-go,ngal,rune_03_algiz,blue,0,0,,1,1.0,-10,0
1pvf4ir8v21v5wrnei5xl1zq,2,1,92,23,1,win,no-go,ngw,rune_03_uruz,yellow,0,0,,1,0.0,+10,0
1pvf4ir8v21v5wrnei5xl1zq,2,1,93,24,3,lose,go,gal,rune_03_othalan,blue,1,1,0.463,1,1.0,-10,1
1pvf4ir8v21v5wrnei5xl1zq,2,1,94,24,1,win,no-go,ngw,rune_03_uruz,yellow,0,0,,1,0.0,+10,0
1pvf4ir8v21v5wrnei5xl1zq,2,1,95,24,2,win,go,gw,rune_03_naudiz,yellow,1,1,0.346,1,0.0,+10,1
1pvf4ir8v21v5wrnei5xl1zq,2,1,96,24,4,lose,no-go,ngal,rune_03_algiz,blue,0,0,,1,0.0,-1,0
1pvf4ir8v21v5wrnei5xl1zq,2,1,97,25,4,lose,no-go,ngal,rune_03_algiz,blue,0,0,,1,0.0,-1,0
1pvf4ir8v21v5wrnei5xl1zq,2,1,98,25,1,win,no-go,ngw,rune_03_uruz,yellow,0,0,,1,1.0,+1,0
1pvf4ir8v21v5wrnei5xl1zq,2,1,99,25,2,win,go,gw,rune_03_naudiz,yellow,1,1,0.418,1,1.0,+1,1
1pvf4ir8v21v5wrnei5xl1zq,2,1,100,25,3,lose,go,gal,rune_03_othalan,blue,1,1,0.417,1,0.0,-1,1
1pvf4ir8v21v5wrnei5xl1zq,2,1,101,26,4,lose,no-go,ngal,rune_03_algiz,blue,0,0,,1,0.0,-1,0
1pvf4ir8v21v5wrnei5xl1zq,2,1,102,26,3,lose,go,gal,rune_03_othalan,blue,1,1,0.4,1,0.0,-1,1
1pvf4ir8v21v5wrnei5xl1zq,2,1,103,26,1,win,no-go,ngw,rune_03_uruz,yellow,0,0,,1,0.0,+10,0
1pvf4ir8v21v5wrnei5xl1zq,2,1,104,26,2,win,go,gw,rune_03_naudiz,yellow,1,1,0.32,1,0.0,+10,1
1pvf4ir8v21v5wrnei5xl1zq,2,1,105,27,1,win,no-go,ngw,rune_03_uruz,yellow,0,0,,1,0.0,+10,0
1pvf4ir8v21v5wrnei5xl1zq,2,1,106,27,3,lose,go,gal,rune_03_othalan,blue,1,1,0.576,1,0.0,-1,1
1pvf4ir8v21v5wrnei5xl1zq,2,1,107,27,4,lose,no-go,ngal,rune_03_algiz,blue,0,0,,1,0.0,-1,0
1pvf4ir8v21v5wrnei5xl1zq,2,1,108,27,2,win,go,gw,rune_03_naudiz,yellow,1,1,0.475,1,0.0,+10,1
1pvf4ir8v21v5wrnei5xl1zq,2,1,109,28,1,win,no-go,ngw,rune_03_uruz,yellow,0,0,,1,1.0,+1,0
1pvf4ir8v21v5wrnei5xl1zq,2,1,110,28,2,win,go,gw,rune_03_naudiz,yellow,1,1,0.33,1,1.0,+1,1
1pvf4ir8v21v5wrnei5xl1zq,2,1,111,28,3,lose,go,gal,rune_03_othalan,blue,1,1,0.395,1,0.0,-1,1
1pvf4ir8v21v5wrnei5xl1zq,2,1,112,28,4,lose,no-go,ngal,rune_03_algiz,blue,0,0,,1,0.0,-1,0
1pvf4ir8v21v5wrnei5xl1zq,2,1,113,29,1,win,no-go,ngw,rune_03_uruz,yellow,0,0,,1,0.0,+10,0
1pvf4ir8v21v5wrnei5xl1zq,2,1,114,29,3,lose,go,gal,rune_03_othalan,blue,1,1,0.354,1,0.0,-1,1
1pvf4ir8v21v5wrnei5xl1zq,2,1,115,29,2,win,go,gw,rune_03_naudiz,yellow,1,1,0.371,1,0.0,+10,1
1pvf4ir8v21v5wrnei5xl1zq,2,1,116,29,4,lose,no-go,ngal,rune_03_algiz,blue,0,0,,1,1.0,-10,0
1pvf4ir8v21v5wrnei5xl1zq,2,1,117,30,3,lose,go,gal,rune_03_othalan,blue,1,1,0.381,1,1.0,-10,1
1pvf4ir8v21v5wrnei5xl1zq,2,1,118,30,1,win,no-go,ngw,rune_03_uruz,yellow,0,0,,1,0.0,+10,0
1pvf4ir8v21v5wrnei5xl1zq,2,1,119,30,4,lose,no-go,ngal,rune_03_algiz,blue,0,0,,1,0.0,-1,0
1pvf4ir8v21v5wrnei5xl1zq,2,1,120,30,2,win,go,gw,rune_03_naudiz,yellow,1,1,0.359,1,0.0,+10,1
1pvf4ir8v21v5wrnei5xl1zq,2,2,121,1,5,win,go,gw,rune_04_iwaz,yellow,1,1,0.38,1,0.0,+10,1
1pvf4ir8v21v5wrnei5xl1zq,2,2,122,1,6,win,no-go,ngw,rune_04_dagaz,yellow,0,1,0.476,0,0.0,+1,1
1pvf4ir8v21v5wrnei5xl1zq,2,2,123,1,7,lose,no-go,ngal,rune_04_wunjo,blue,0,1,0.462,0,0.0,-10,1
1pvf4ir8v21v5wrnei5xl1zq,2,2,124,1,8,lose,go,gal,rune_04_ac,blue,1,1,0.382,1,1.0,-10,1
1pvf4ir8v21v5wrnei5xl1zq,2,2,125,2,5,win,go,gw,rune_04_iwaz,yellow,1,1,0.287,1,0.0,+10,1
1pvf4ir8v21v5wrnei5xl1zq,2,2,126,2,6,win,no-go,ngw,rune_04_dagaz,yellow,0,0,,1,0.0,+10,0
1pvf4ir8v21v5wrnei5xl1zq,2,2,127,2,7,lose,no-go,ngal,rune_04_wunjo,blue,0,1,0.341,0,0.0,-10,1
1pvf4ir8v21v5wrnei5xl1zq,2,2,128,2,8,lose,go,gal,rune_04_ac,blue,1,1,0.384,1,0.0,-1,1
1pvf4ir8v21v5wrnei5xl1zq,2,2,129,3,7,lose,no-go,ngal,rune_04_wunjo,blue,0,0,,1,0.0,-1,0
1pvf4ir8v21v5wrnei5xl1zq,2,2,130,3,6,win,no-go,ngw,rune_04_dagaz,yellow,0,0,,1,1.0,+1,0
1pvf4ir8v21v5wrnei5xl1zq,2,2,131,3,8,lose,go,gal,rune_04_ac,blue,1,1,0.471,1,0.0,-1,1
1pvf4ir8v21v5wrnei5xl1zq,2,2,132,3,5,win,go,gw,rune_04_iwaz,yellow,1,1,0.26,1,0.0,+10,1
1pvf4ir8v21v5wrnei5xl1zq,2,2,133,4,8,lose,go,gal,rune_04_ac,blue,1,1,0.385,1,0.0,-1,1
1pvf4ir8v21v5wrnei5xl1zq,2,2,134,4,7,lose,no-go,ngal,rune_04_wunjo,blue,0,0,,1,1.0,-10,0
1pvf4ir8v21v5wrnei5xl1zq,2,2,135,4,6,win,no-go,ngw,rune_04_dagaz,yellow,0,0,,1,0.0,+10,0
1pvf4ir8v21v5wrnei5xl1zq,2,2,136,4,5,win,go,gw,rune_04_iwaz,yellow,1,1,0.331,1,1.0,+1,1
1pvf4ir8v21v5wrnei5xl1zq,2,2,137,5,7,lose,no-go,ngal,rune_04_wunjo,blue,0,0,,1,0.0,-1,0
1pvf4ir8v21v5wrnei5xl1zq,2,2,138,5,8,lose,go,gal,rune_04_ac,blue,1,1,0.292,1,0.0,-1,1
1pvf4ir8v21v5wrnei5xl1zq,2,2,139,5,5,win,go,gw,rune_04_iwaz,yellow,1,1,0.303,1,0.0,+10,1
1pvf4ir8v21v5wrnei5xl1zq,2,2,140,5,6,win,no-go,ngw,rune_04_dagaz,yellow,0,0,,1,0.0,+10,0
1pvf4ir8v21v5wrnei5xl1zq,2,2,141,6,8,lose,go,gal,rune_04_ac,blue,1,1,0.517,1,0.0,-1,1
1pvf4ir8v21v5wrnei5xl1zq,2,2,142,6,5,win,go,gw,rune_04_iwaz,yellow,1,1,0.29,1,1.0,+1,1
1pvf4ir8v21v5wrnei5xl1zq,2,2,143,6,7,lose,no-go,ngal,rune_04_wunjo,blue,0,0,,1,0.0,-1,0
1pvf4ir8v21v5wrnei5xl1zq,2,2,144,6,6,win,no-go,ngw,rune_04_dagaz,yellow,0,0,,1,0.0,+10,0
1pvf4ir8v21v5wrnei5xl1zq,2,2,145,7,6,win,no-go,ngw,rune_04_dagaz,yellow,0,0,,1,1.0,+1,0
1pvf4ir8v21v5wrnei5xl1zq,2,2,146,7,5,win,go,gw,rune_04_iwaz,yellow,1,1,0.389,1,0.0,+10,1
1pvf4ir8v21v5wrnei5xl1zq,2,2,147,7,8,lose,go,gal,rune_04_ac,blue,1,1,0.434,1,0.0,-1,1
1pvf4ir8v21v5wrnei5xl1zq,2,2,148,7,7,lose,no-go,ngal,rune_04_wunjo,blue,0,0,,1,0.0,-1,0
1pvf4ir8v21v5wrnei5xl1zq,2,2,149,8,6,win,no-go,ngw,rune_04_dagaz,yellow,0,0,,1,0.0,+10,0
1pvf4ir8v21v5wrnei5xl1zq,2,2,150,8,7,lose,no-go,ngal,rune_04_wunjo,blue,0,0,,1,1.0,-10,0
1pvf4ir8v21v5wrnei5xl1zq,2,2,151,8,5,win,go,gw,rune_04_iwaz,yellow,1,1,0.315,1,0.0,+10,1
1pvf4ir8v21v5wrnei5xl1zq,2,2,152,8,8,lose,go,gal,rune_04_ac,blue,1,1,0.414,1,0.0,-1,1
1pvf4ir8v21v5wrnei5xl1zq,2,2,153,9,8,lose,go,gal,rune_04_ac,blue,1,1,0.469,1,1.0,-10,1
1pvf4ir8v21v5wrnei5xl1zq,2,2,154,9,7,lose,no-go,ngal,rune_04_wunjo,blue,0,0,,1,0.0,-1,0
1pvf4ir8v21v5wrnei5xl1zq,2,2,155,9,5,win,go,gw,rune_04_iwaz,yellow,1,1,0.466,1,0.0,+10,1
1pvf4ir8v21v5wrnei5xl1zq,2,2,156,9,6,win,no-go,ngw,rune_04_dagaz,yellow,0,0,,1,0.0,+10,0
1pvf4ir8v21v5wrnei5xl1zq,2,2,157,10,6,win,no-go,ngw,rune_04_dagaz,yellow,0,0,,1,0.0,+10,0
1pvf4ir8v21v5wrnei5xl1zq,2,2,158,10,7,lose,no-go,ngal,rune_04_wunjo,blue,0,0,,1,0.0,-1,0
1pvf4ir8v21v5wrnei5xl1zq,2,2,159,10,5,win,go,gw,rune_04_iwaz,yellow,1,1,0.381,1,0.0,+10,1
1pvf4ir8v21v5wrnei5xl1zq,2,2,160,10,8,lose,go,gal,rune_04_ac,blue,1,1,0.441,1,0.0,-1,1
