[{"slider_type":"valence","raw_loc":662,"loc":0.824,"trial_type":"affective-slider","trial_index":0,"time_elapsed":3479,"internal_node_id":"0.0-0.0","task_version":"test-retest"},{"view_history":"[{\"page_index\":0,\"viewing_time\":2487.0000001974404},{\"page_index\":1,\"viewing_time\":888.9999999664724},{\"page_index\":2,\"viewing_time\":1378.000000026077},{\"page_index\":3,\"viewing_time\":1976.9999999552965},{\"page_index\":4,\"viewing_time\":782.9999998211861}]","rt":7516.999999992549,"trial_type":"pit-instructions","trial_index":1,"time_elapsed":10997,"internal_node_id":"0.0-1.0-0.0","task_version":"test-retest"},{"Rune":"rune_00_ingz","Hex":"#FFFFF080","Correct":32,"Choice":32,"RT":320.0000002980232,"Accuracy":1,"Outcome":"+10","Keys":[1820.0000002980232],"TotalKeys":1,"Block":0,"Action":"Go","trial_type":"pit-trial","trial_index":2,"time_elapsed":13826,"internal_node_id":"0.0-1.0-1.0-0.0","task_version":"test-retest"},{"Rune":"rune_00_ingz","Hex":"#FFFFF080","Correct":32,"Choice":32,"RT":671.9999997876585,"Accuracy":1,"Outcome":"+10","Keys":[1302.9999998398125,2172.999999951571,2668.00000006333,2950.999999884516],"TotalKeys":4,"Block":0,"Action":"Go","trial_type":"pit-trial","trial_index":3,"time_elapsed":17012,"internal_node_id":"0.0-1.0-1.0-0.1","task_version":"test-retest"},{"Rune":"rune_00_ingz","Hex":"#FFFFF080","Correct":32,"Choice":-1,"RT":-1,"Accuracy":0,"Outcome":"+0","Keys":[25.99999960511923,291.99999989941716,3815.999999642372],"TotalKeys":3,"Block":0,"Action":"Go","trial_type":"pit-trial","trial_index":4,"time_elapsed":21031,"internal_node_id":"0.0-1.0-1.0-0.2","task_version":"test-retest"},{"Rune":"rune_00_ingz","Hex":"#FFFFF080","Correct":32,"Choice":32,"RT":123.00000013783574,"Accuracy":1,"Outcome":"+10","Keys":[1095.9999999031425,1365.0000002235174,1624.0000003017485,1899.0000002086163],"TotalKeys":4,"Block":0,"Action":"Go","trial_type":"pit-trial","trial_index":5,"time_elapsed":23669,"internal_node_id":"0.0-1.0-1.0-0.3","task_version":"test-retest"},{"view_history":"[{\"page_index\":0,\"viewing_time\":3783.999999985099}]","rt":3785.0000001490116,"trial_type":"pit-instructions","trial_index":6,"time_elapsed":27456,"internal_node_id":"0.0-1.0-2.0","task_version":"test-retest"},{"Rune":"rune_00_isaz","Hex":"#FFFFF080","Correct":-1,"Choice":32,"RT":824.9999997206032,"Accuracy":0,"Outcome":"+0","Keys":[1413.0000001750886,2325.999999884516,2706.99999993667],"TotalKeys":3,"Block":0,"Action":"No-Go","trial_type":"pit-trial","trial_index":7,"time_elapsed":30786,"internal_node_id":"0.0-1.0-3.0-0.0","task_version":"test-retest"},{"Rune":"rune_00_isaz","Hex":"#FFFFF080","Correct":-1,"Choice":32,"RT":23.99999974295497,"Accuracy":0,"Outcome":"+0","Keys":[1171.000000089407,1348.000000230968,1524.9999999068677,1686.9999999180436,1879.9999998882413],"TotalKeys":5,"Block":0,"Action":"No-Go","trial_type":"pit-trial","trial_index":8,"time_elapsed":33315,"internal_node_id":"0.0-1.0-3.0-0.1","task_version":"test-retest"},{"Rune":"rune_00_isaz","Hex":"#FFFFF080","Correct":-1,"Choice":32,"RT":64.00000024586916,"Accuracy":0,"Outcome":"+0","Keys":[1158.9999999850988,1370.9999998100102,1564.9999999441206,1810.0000000558794,2026.999999769032,2268.000000156462],"TotalKeys":6,"Block":0,"Action":"No-Go","trial_type":"pit-trial","trial_index":9,"time_elapsed":35884,"internal_node_id":"0.0-1.0-3.0-0.2","task_version":"test-retest"},{"Rune":"rune_00_isaz","Hex":"#FFFFF080","Correct":-1,"Choice":-1,"RT":-1,"Accuracy":1,"Outcome":"+10","Keys":[3173.9999996498227],"TotalKeys":1,"Block":0,"Action":"No-Go","trial_type":"pit-trial","trial_index":10,"time_elapsed":39891,"internal_node_id":"0.0-1.0-3.0-0.3","task_version":"test-retest"},{"view_history":"[{\"page_index\":0,\"viewing_time\":4197.999999858439},{\"page_index\":1,\"viewing_time\":6195.999999996275},{\"page_index\":2,\"viewing_time\":3720.000000204891},{\"page_index\":3,\"viewing_time\":3078.999999910593},{\"page_index\":4,\"viewing_time\":1827.0000000484288},{\"page_index\":5,\"viewing_time\":2137.9999998025596},{\"page_index\":6,\"viewing_time\":978.0000001192093},{\"page_index\":7,\"viewing_time\":1038.9999998733401}]","rt":23177.00000014156,"trial_type":"pit-instructions","trial_index":11,"time_elapsed":63074,"internal_node_id":"0.0-1.0-4.0","task_version":"test-retest"},{"responses":["Press SPACE","+10","-10","False","Yes"],"num_errors":3,"rt":30520.000000018626,"trial_type":"pit-comprehension","trial_index":12,"time_elapsed":93609,"internal_node_id":"0.0-1.0-5.0","task_version":"test-retest"},{"view_history":"[{\"page_index\":0,\"viewing_time\":2006.9999997504056},{\"page_index\":1,\"viewing_time\":1064.9999999441206},{\"page_index\":2,\"viewing_time\":1134.000000078231},{\"page_index\":3,\"viewing_time\":3391.9999999925494},{\"page_index\":4,\"viewing_time\":768.9999998547137},{\"page_index\":3,\"viewing_time\":204.00000037625432},{\"page_index\":2,\"viewing_time\":163.99999987334013},{\"page_index\":1,\"viewing_time\":166.99999989941716},{\"page_index\":0,\"viewing_time\":1322.999999858439},{\"page_index\":1,\"viewing_time\":2978.0000001192093},{\"page_index\":2,\"viewing_time\":5964.000000152737},{\"page_index\":3,\"viewing_time\":3128.000000026077},{\"page_index\":4,\"viewing_time\":1317.9999999701977}]","rt":23612.999999895692,"trial_type":"pit-instructions","trial_index":13,"time_elapsed":117233,"internal_node_id":"0.0-1.1-0.1","task_version":"test-retest"},{"Rune":"rune_00_ingz","Hex":"#FFFFF080","Correct":32,"Choice":32,"RT":191.9999998062849,"Accuracy":1,"Outcome":"+10","Keys":[1689.9999999441206],"TotalKeys":1,"Block":0,"Action":"Go","trial_type":"pit-trial","trial_index":14,"time_elapsed":119932,"internal_node_id":"0.0-1.1-1.1-0.4","task_version":"test-retest"},{"Rune":"rune_00_ingz","Hex":"#FFFFF080","Correct":32,"Choice":32,"RT":78.00000021234155,"Accuracy":1,"Outcome":"+10","Keys":[1578.999999910593],"TotalKeys":1,"Block":0,"Action":"Go","trial_type":"pit-trial","trial_index":15,"time_elapsed":122525,"internal_node_id":"0.0-1.1-1.1-0.5","task_version":"test-retest"},{"Rune":"rune_00_ingz","Hex":"#FFFFF080","Correct":32,"Choice":32,"RT":989.0000000596046,"Accuracy":1,"Outcome":"+10","Keys":[1402.9999999329448,2487.999999895692],"TotalKeys":2,"Block":0,"Action":"Go","trial_type":"pit-trial","trial_index":16,"time_elapsed":126020,"internal_node_id":"0.0-1.1-1.1-0.6","task_version":"test-retest"},{"Rune":"rune_00_ingz","Hex":"#FFFFF080","Correct":32,"Choice":32,"RT":631.0000000521541,"Accuracy":1,"Outcome":"+10","Keys":[2131.000000052154],"TotalKeys":1,"Block":0,"Action":"Go","trial_type":"pit-trial","trial_index":17,"time_elapsed":129156,"internal_node_id":"0.0-1.1-1.1-0.7","task_version":"test-retest"},{"view_history":"[{\"page_index\":0,\"viewing_time\":6217.000000178814}]","rt":6219.000000040978,"trial_type":"pit-instructions","trial_index":18,"time_elapsed":135383,"internal_node_id":"0.0-1.1-2.1","task_version":"test-retest"},{"Rune":"rune_00_isaz","Hex":"#FFFFF080","Correct":-1,"Choice":32,"RT":180.00000016763806,"Accuracy":0,"Outcome":"+0","Keys":[1134.9999997764826,1680.9999998658895],"TotalKeys":2,"Block":0,"Action":"No-Go","trial_type":"pit-trial","trial_index":19,"time_elapsed":138071,"internal_node_id":"0.0-1.1-3.1-0.4","task_version":"test-retest"},{"Rune":"rune_00_isaz","Hex":"#FFFFF080","Correct":-1,"Choice":32,"RT":301.99999967589974,"Accuracy":0,"Outcome":"+0","Keys":[1802.9999998398125],"TotalKeys":1,"Block":0,"Action":"No-Go","trial_type":"pit-trial","trial_index":20,"time_elapsed":140882,"internal_node_id":"0.0-1.1-3.1-0.5","task_version":"test-retest"},{"Rune":"rune_00_isaz","Hex":"#FFFFF080","Correct":-1,"Choice":32,"RT":1134.9999997764826,"Accuracy":0,"Outcome":"+0","Keys":[2635.9999999403954],"TotalKeys":1,"Block":0,"Action":"No-Go","trial_type":"pit-trial","trial_index":21,"time_elapsed":144525,"internal_node_id":"0.0-1.1-3.1-0.6","task_version":"test-retest"},{"Rune":"rune_00_isaz","Hex":"#FFFFF080","Correct":-1,"Choice":32,"RT":3.000000026077032,"Accuracy":0,"Outcome":"+0","Keys":[981.0000001452863,1293.00000006333,1504.0000001899898,1709.999999962747,1880.0000003539026],"TotalKeys":5,"Block":0,"Action":"No-Go","trial_type":"pit-trial","trial_index":22,"time_elapsed":147038,"internal_node_id":"0.0-1.1-3.1-0.7","task_version":"test-retest"},{"view_history":"[{\"page_index\":0,\"viewing_time\":2358.0000000074506},{\"page_index\":1,\"viewing_time\":11661.000000312924},{\"page_index\":2,\"viewing_time\":3086.9999998249114},{\"page_index\":3,\"viewing_time\":3882.000000216067},{\"page_index\":4,\"viewing_time\":2813.999999780208},{\"page_index\":5,\"viewing_time\":1799.000000115484},{\"page_index\":6,\"viewing_time\":1094.0000000409782},{\"page_index\":7,\"viewing_time\":2513.9999999664724},{\"page_index\":6,\"viewing_time\":6533.999999985099},{\"page_index\":5,\"viewing_time\":2324.0000000223517},{\"page_index\":6,\"viewing_time\":1290.000000037253},{\"page_index\":7,\"viewing_time\":6584.999999962747}]","rt":45942.000000271946,"trial_type":"pit-instructions","trial_index":23,"time_elapsed":192983,"internal_node_id":"0.0-1.1-4.1","task_version":"test-retest"},{"responses":["Do nothing","+10","-1","True","Yes"],"num_errors":0,"rt":19575.999999884516,"trial_type":"pit-comprehension","trial_index":24,"time_elapsed":212562,"internal_node_id":"0.0-1.1-5.1","task_version":"test-retest"},{"view_history":"[{\"page_index\":0,\"viewing_time\":2384.000000078231},{\"page_index\":1,\"viewing_time\":2714.9999998509884}]","rt":5104.000000283122,"trial_type":"pit-instructions","trial_index":25,"time_elapsed":217674,"internal_node_id":"0.0-2.0","task_version":"test-retest"},{"Rune":"rune_01_ingwaz","Hex":"#3366ff99","Correct":-1,"Choice":32,"RT":339.0000001527369,"Accuracy":0,"Outcome":"-1","Keys":[1837.9999999888241],"TotalKeys":1,"Block":1,"Trial":1,"Robot":4,"Valence":"Lose","Action":"No-Go","Sham":1,"Color":"blue","trial_type":"pit-trial","trial_index":26,"time_elapsed":220534,"internal_node_id":"0.0-3.0","task_version":"test-retest"},{"Rune":"rune_01_ear","Hex":"#ffcc3399","Correct":32,"Choice":32,"RT":18.000000156462193,"Accuracy":1,"Outcome":"+10","Keys":[671.000000089407,1065.000000409782,1288.0000001750886,1519.000000320375],"TotalKeys":4,"Block":1,"Trial":2,"Robot":1,"Valence":"Win","Action":"Go","Sham":0,"Color":"yellow","trial_type":"pit-trial","trial_index":27,"time_elapsed":223059,"internal_node_id":"0.0-4.0","task_version":"test-retest"},{"Rune":"rune_01_ger","Hex":"#ffcc3399","Correct":-1,"Choice":32,"RT":249.0000003017485,"Accuracy":0,"Outcome":"+10","Keys":[1078.0000002123415,1419.0000002272427,1749.0000003017485],"TotalKeys":3,"Block":1,"Trial":3,"Robot":2,"Valence":"Win","Action":"No-Go","Sham":1,"Color":"yellow","trial_type":"pit-trial","trial_index":28,"time_elapsed":225816,"internal_node_id":"0.0-5.0","task_version":"test-retest"},{"Rune":"rune_01_yr","Hex":"#3366ff99","Correct":32,"Choice":32,"RT":155.00000026077032,"Accuracy":1,"Outcome":"-1","Keys":[895.0000000186265,1260.0000002421439,1655.0000002607703],"TotalKeys":3,"Block":1,"Trial":4,"Robot":3,"Valence":"Lose","Action":"Go","Sham":0,"Color":"blue","trial_type":"pit-trial","trial_index":29,"time_elapsed":228505,"internal_node_id":"0.0-6.0","task_version":"test-retest"},{"Rune":"rune_01_ear","Hex":"#ffcc3399","Correct":32,"Choice":32,"RT":134.0000000782311,"Accuracy":1,"Outcome":"+10","Keys":[981.9999998435378,1328.999999910593,1637.0000001043081,1973.9999999292195],"TotalKeys":4,"Block":1,"Trial":5,"Robot":1,"Valence":"Win","Action":"Go","Sham":0,"Color":"yellow","trial_type":"pit-trial","trial_index":30,"time_elapsed":231165,"internal_node_id":"0.0-7.0","task_version":"test-retest"},{"Rune":"rune_01_ingwaz","Hex":"#3366ff99","Correct":-1,"Choice":32,"RT":26.000000070780516,"Accuracy":0,"Outcome":"-10","Keys":[710.9999996609986,1054.9999997019768,1290.9999997355044,1526.999999769032,1712.9999999888241,1909.9999996833503,2182.999999728054],"TotalKeys":7,"Block":1,"Trial":6,"Robot":4,"Valence":"Lose","Action":"No-Go","Sham":0,"Color":"blue","trial_type":"pit-trial","trial_index":31,"time_elapsed":233699,"internal_node_id":"0.0-8.0","task_version":"test-retest"},{"Rune":"rune_01_yr","Hex":"#3366ff99","Correct":32,"Choice":32,"RT":284.9999996833503,"Accuracy":1,"Outcome":"-1","Keys":[1785.0000001490116,2502.0000003278255],"TotalKeys":2,"Block":1,"Trial":7,"Robot":3,"Valence":"Lose","Action":"Go","Sham":0,"Color":"blue","trial_type":"pit-trial","trial_index":32,"time_elapsed":236507,"internal_node_id":"0.0-9.0","task_version":"test-retest"},{"Rune":"rune_01_ger","Hex":"#ffcc3399","Correct":-1,"Choice":32,"RT":858.0000000074506,"Accuracy":0,"Outcome":"+1","Keys":[1344.9999997392297,2358.0000000074506],"TotalKeys":2,"Block":1,"Trial":8,"Robot":2,"Valence":"Win","Action":"No-Go","Sham":0,"Color":"yellow","trial_type":"pit-trial","trial_index":33,"time_elapsed":239882,"internal_node_id":"0.0-10.0","task_version":"test-retest"},{"Rune":"rune_01_ear","Hex":"#ffcc3399","Correct":32,"Choice":32,"RT":44.999999925494194,"Accuracy":1,"Outcome":"+10","Keys":[439.00000024586916,999.0000003017485,1402.0000002346933,1546.000000089407,1746.0000002756715,2013.9999999664724,2351.9999999552965,2375],"TotalKeys":8,"Block":1,"Trial":9,"Robot":1,"Valence":"Win","Action":"Go","Sham":0,"Color":"yellow","trial_type":"pit-trial","trial_index":34,"time_elapsed":242451,"internal_node_id":"0.0-11.0","task_version":"test-retest"},{"Rune":"rune_01_ingwaz","Hex":"#3366ff99","Correct":-1,"Choice":32,"RT":46.99999978765845,"Accuracy":0,"Outcome":"-10","Keys":[70.99999999627471,697.0000001601875,992.0000000856817,1141.000000294298,1414.0000003390014,1547.9999999515712],"TotalKeys":6,"Block":1,"Trial":10,"Robot":4,"Valence":"Lose","Action":"No-Go","Sham":0,"Color":"blue","trial_type":"pit-trial","trial_index":35,"time_elapsed":245006,"internal_node_id":"0.0-12.0","task_version":"test-retest"},{"Rune":"rune_01_ger","Hex":"#ffcc3399","Correct":-1,"Choice":32,"RT":199.99999972060323,"Accuracy":0,"Outcome":"+1","Keys":[1701.9999995827675],"TotalKeys":1,"Block":1,"Trial":11,"Robot":2,"Valence":"Win","Action":"No-Go","Sham":0,"Color":"yellow","trial_type":"pit-trial","trial_index":36,"time_elapsed":247722,"internal_node_id":"0.0-13.0","task_version":"test-retest"},{"Rune":"rune_01_yr","Hex":"#3366ff99","Correct":32,"Choice":32,"RT":495.0000001117587,"Accuracy":1,"Outcome":"-1","Keys":[1995.9999998100102],"TotalKeys":1,"Block":1,"Trial":12,"Robot":3,"Valence":"Lose","Action":"Go","Sham":0,"Color":"blue","trial_type":"pit-trial","trial_index":37,"time_elapsed":250726,"internal_node_id":"0.0-14.0","task_version":"test-retest"},{"Rune":"rune_01_ingwaz","Hex":"#3366ff99","Correct":-1,"Choice":32,"RT":498.00000013783574,"Accuracy":0,"Outcome":"-10","Keys":[1998.0000001378357],"TotalKeys":1,"Block":1,"Trial":13,"Robot":4,"Valence":"Lose","Action":"No-Go","Sham":0,"Color":"blue","trial_type":"pit-trial","trial_index":38,"time_elapsed":253731,"internal_node_id":"0.0-15.0","task_version":"test-retest"},{"Rune":"rune_01_yr","Hex":"#3366ff99","Correct":32,"Choice":-1,"RT":-1,"Accuracy":0,"Outcome":"-1","Keys":[],"TotalKeys":0,"Block":1,"Trial":14,"Robot":3,"Valence":"Lose","Action":"Go","Sham":1,"Color":"blue","trial_type":"pit-trial","trial_index":39,"time_elapsed":257745,"internal_node_id":"0.0-16.0","task_version":"test-retest"},{"Rune":"rune_01_ger","Hex":"#ffcc3399","Correct":-1,"Choice":32,"RT":560.0000000558794,"Accuracy":0,"Outcome":"+1","Keys":[2060.0000000558794,2603.0000001192093],"TotalKeys":2,"Block":1,"Trial":15,"Robot":2,"Valence":"Win","Action":"No-Go","Sham":0,"Color":"yellow","trial_type":"pit-trial","trial_index":40,"time_elapsed":260820,"internal_node_id":"0.0-17.0","task_version":"test-retest"},{"Rune":"rune_01_ear","Hex":"#ffcc3399","Correct":32,"Choice":32,"RT":700.0000001862645,"Accuracy":1,"Outcome":"+1","Keys":[2200.999999884516],"TotalKeys":1,"Block":1,"Trial":16,"Robot":1,"Valence":"Win","Action":"Go","Sham":1,"Color":"yellow","trial_type":"pit-trial","trial_index":41,"time_elapsed":264029,"internal_node_id":"0.0-18.0","task_version":"test-retest"},{"Rune":"rune_01_ear","Hex":"#ffcc3399","Correct":32,"Choice":32,"RT":470.00000020489097,"Accuracy":1,"Outcome":"+10","Keys":[1973.9999999292195],"TotalKeys":1,"Block":1,"Trial":17,"Robot":1,"Valence":"Win","Action":"Go","Sham":0,"Color":"yellow","trial_type":"pit-trial","trial_index":42,"time_elapsed":267008,"internal_node_id":"0.0-19.0","task_version":"test-retest"},{"Rune":"rune_01_ger","Hex":"#ffcc3399","Correct":-1,"Choice":32,"RT":410.0000001490116,"Accuracy":0,"Outcome":"+1","Keys":[1918.9999997615814],"TotalKeys":1,"Block":1,"Trial":18,"Robot":2,"Valence":"Win","Action":"No-Go","Sham":0,"Color":"yellow","trial_type":"pit-trial","trial_index":43,"time_elapsed":269932,"internal_node_id":"0.0-20.0","task_version":"test-retest"},{"Rune":"rune_01_ingwaz","Hex":"#3366ff99","Correct":-1,"Choice":32,"RT":654.999999795109,"Accuracy":0,"Outcome":"-10","Keys":[2157.0000001229346],"TotalKeys":1,"Block":1,"Trial":19,"Robot":4,"Valence":"Lose","Action":"No-Go","Sham":0,"Color":"blue","trial_type":"pit-trial","trial_index":44,"time_elapsed":273094,"internal_node_id":"0.0-21.0","task_version":"test-retest"},{"Rune":"rune_01_yr","Hex":"#3366ff99","Correct":32,"Choice":-1,"RT":-1,"Accuracy":0,"Outcome":"-10","Keys":[],"TotalKeys":0,"Block":1,"Trial":20,"Robot":3,"Valence":"Lose","Action":"Go","Sham":0,"Color":"blue","trial_type":"pit-trial","trial_index":45,"time_elapsed":277101,"internal_node_id":"0.0-22.0","task_version":"test-retest"},{"Rune":"rune_01_ger","Hex":"#ffcc3399","Correct":-1,"Choice":32,"RT":1020.9999997168779,"Accuracy":0,"Outcome":"+1","Keys":[2520.999999716878],"TotalKeys":1,"Block":1,"Trial":21,"Robot":2,"Valence":"Win","Action":"No-Go","Sham":0,"Color":"yellow","trial_type":"pit-trial","trial_index":46,"time_elapsed":280630,"internal_node_id":"0.0-23.0","task_version":"test-retest"},{"Rune":"rune_01_ear","Hex":"#ffcc3399","Correct":32,"Choice":32,"RT":597.0000000670552,"Accuracy":1,"Outcome":"+10","Keys":[254.0000001899898,461.00000012665987,2101.000000257045],"TotalKeys":3,"Block":1,"Trial":22,"Robot":1,"Valence":"Win","Action":"Go","Sham":0,"Color":"yellow","trial_type":"pit-trial","trial_index":47,"time_elapsed":283736,"internal_node_id":"0.0-24.0","task_version":"test-retest"},{"Rune":"rune_01_ingwaz","Hex":"#3366ff99","Correct":-1,"Choice":-1,"RT":-1,"Accuracy":1,"Outcome":"-10","Keys":[],"TotalKeys":0,"Block":1,"Trial":23,"Robot":4,"Valence":"Lose","Action":"No-Go","Sham":1,"Color":"blue","trial_type":"pit-trial","trial_index":48,"time_elapsed":287746,"internal_node_id":"0.0-25.0","task_version":"test-retest"},{"Rune":"rune_01_yr","Hex":"#3366ff99","Correct":32,"Choice":32,"RT":38.99999987334013,"Accuracy":1,"Outcome":"-1","Keys":[1095.9999999031425,1362.9999998956919,1546.000000089407,1726.9999999552965,1907.0000001229346,2086.00000012666,2290.000000037253,2469.000000040978],"TotalKeys":8,"Block":1,"Trial":24,"Robot":3,"Valence":"Lose","Action":"Go","Sham":0,"Color":"blue","trial_type":"pit-trial","trial_index":49,"time_elapsed":290295,"internal_node_id":"0.0-26.0","task_version":"test-retest"},{"Rune":"rune_01_ingwaz","Hex":"#3366ff99","Correct":-1,"Choice":32,"RT":48.99999964982271,"Accuracy":0,"Outcome":"-10","Keys":[79.99999960884452,266.9999999925494,435.99999975413084,613.9999995939434,794.9999999254942,970.9999999031425,1149.9999999068677,1339.9999998509884,1548.9999996498227,2037.0000000111759],"TotalKeys":10,"Block":1,"Trial":25,"Robot":4,"Valence":"Lose","Action":"No-Go","Sham":0,"Color":"blue","trial_type":"pit-trial","trial_index":50,"time_elapsed":292849,"internal_node_id":"0.0-27.0","task_version":"test-retest"},{"Rune":"rune_01_yr","Hex":"#3366ff99","Correct":32,"Choice":32,"RT":7.999999914318323,"Accuracy":1,"Outcome":"-1","Keys":[58.99999989196658,1205.0000000745058,1507.9999999143183,2149.0000002086163],"TotalKeys":4,"Block":1,"Trial":26,"Robot":3,"Valence":"Lose","Action":"Go","Sham":0,"Color":"blue","trial_type":"pit-trial","trial_index":51,"time_elapsed":295368,"internal_node_id":"0.0-28.0","task_version":"test-retest"},{"Rune":"rune_01_ear","Hex":"#ffcc3399","Correct":32,"Choice":32,"RT":533.9999999850988,"Accuracy":1,"Outcome":"+10","Keys":[2035.0000001490116],"TotalKeys":1,"Block":1,"Trial":27,"Robot":1,"Valence":"Win","Action":"Go","Sham":0,"Color":"yellow","trial_type":"pit-trial","trial_index":52,"time_elapsed":298416,"internal_node_id":"0.0-29.0","task_version":"test-retest"},{"Rune":"rune_01_ger","Hex":"#ffcc3399","Correct":-1,"Choice":32,"RT":705.9999997727573,"Accuracy":0,"Outcome":"+10","Keys":[2206.99999993667],"TotalKeys":1,"Block":1,"Trial":28,"Robot":2,"Valence":"Win","Action":"No-Go","Sham":1,"Color":"yellow","trial_type":"pit-trial","trial_index":53,"time_elapsed":301632,"internal_node_id":"0.0-30.0","task_version":"test-retest"},{"Rune":"rune_01_ingwaz","Hex":"#3366ff99","Correct":-1,"Choice":32,"RT":1172.9999999515712,"Accuracy":0,"Outcome":"-10","Keys":[2673.9999996498227],"TotalKeys":1,"Block":1,"Trial":29,"Robot":4,"Valence":"Lose","Action":"No-Go","Sham":0,"Color":"blue","trial_type":"pit-trial","trial_index":54,"time_elapsed":305318,"internal_node_id":"0.0-31.0","task_version":"test-retest"},{"Rune":"rune_01_yr","Hex":"#3366ff99","Correct":32,"Choice":32,"RT":692.9999999701977,"Accuracy":1,"Outcome":"-10","Keys":[234.99999986961484,2195.9999999962747,2546.9999997876585,2824.0000000223517],"TotalKeys":4,"Block":1,"Trial":30,"Robot":3,"Valence":"Lose","Action":"Go","Sham":1,"Color":"blue","trial_type":"pit-trial","trial_index":55,"time_elapsed":308525,"internal_node_id":"0.0-32.0","task_version":"test-retest"},{"Rune":"rune_01_ear","Hex":"#ffcc3399","Correct":32,"Choice":-1,"RT":-1,"Accuracy":0,"Outcome":"+1","Keys":[3219.9999997392297,3626.9999998621643],"TotalKeys":2,"Block":1,"Trial":31,"Robot":1,"Valence":"Win","Action":"Go","Sham":0,"Color":"yellow","trial_type":"pit-trial","trial_index":56,"time_elapsed":312535,"internal_node_id":"0.0-33.0","task_version":"test-retest"},{"Rune":"rune_01_ger","Hex":"#ffcc3399","Correct":-1,"Choice":32,"RT":279.00000009685755,"Accuracy":0,"Outcome":"+1","Keys":[145.00000001862645,662.0000000111759,862.9999998956919,1044.9999999254942,1220.000000204891,1396.9999998807907,1785.0000001490116,2171.000000089407,2388.9999999664724,2793.00000006333],"TotalKeys":10,"Block":1,"Trial":32,"Robot":2,"Valence":"Win","Action":"No-Go","Sham":0,"Color":"yellow","trial_type":"pit-trial","trial_index":57,"time_elapsed":315337,"internal_node_id":"0.0-34.0","task_version":"test-retest"},{"Rune":"rune_01_ingwaz","Hex":"#3366ff99","Correct":-1,"Choice":32,"RT":228.99999981746078,"Accuracy":0,"Outcome":"-10","Keys":[507.00000021606684,748.9999998360872,1175.0000002793968,1729.9999999813735,1935.0000000558794,2351.000000257045],"TotalKeys":6,"Block":1,"Trial":33,"Robot":4,"Valence":"Lose","Action":"No-Go","Sham":0,"Color":"blue","trial_type":"pit-trial","trial_index":58,"time_elapsed":318074,"internal_node_id":"0.0-35.0","task_version":"test-retest"},{"Rune":"rune_01_ger","Hex":"#ffcc3399","Correct":-1,"Choice":32,"RT":398.0000000447035,"Accuracy":0,"Outcome":"+1","Keys":[121.99999997392297,351.9999999552965,756.0000000521541,1260.9999999403954,1462.9999999888241,1898.0000000447035,2354.000000283122,2618.999999947846],"TotalKeys":8,"Block":1,"Trial":34,"Robot":2,"Valence":"Win","Action":"No-Go","Sham":0,"Color":"yellow","trial_type":"pit-trial","trial_index":59,"time_elapsed":320989,"internal_node_id":"0.0-36.0","task_version":"test-retest"},{"Rune":"rune_01_yr","Hex":"#3366ff99","Correct":32,"Choice":32,"RT":23.000000044703484,"Accuracy":1,"Outcome":"-1","Keys":[902.0000002346933,1523.0000000447035,1756.000000052154,2035.0000001490116,2396.9999998807907],"TotalKeys":5,"Block":1,"Trial":35,"Robot":3,"Valence":"Lose","Action":"Go","Sham":0,"Color":"blue","trial_type":"pit-trial","trial_index":60,"time_elapsed":323523,"internal_node_id":"0.0-37.0","task_version":"test-retest"},{"Rune":"rune_01_ear","Hex":"#ffcc3399","Correct":32,"Choice":32,"RT":169.9999999254942,"Accuracy":1,"Outcome":"+1","Keys":[61.00000021979213,225.00000009313226,398.0000000447035,635.0000002421439,865.9999999217689,1063.0000000819564,1260.0000002421439,1669.9999999254942],"TotalKeys":8,"Block":1,"Trial":36,"Robot":1,"Valence":"Win","Action":"Go","Sham":1,"Color":"yellow","trial_type":"pit-trial","trial_index":61,"time_elapsed":326200,"internal_node_id":"0.0-38.0","task_version":"test-retest"},{"Rune":"rune_01_yr","Hex":"#3366ff99","Correct":32,"Choice":-1,"RT":-1,"Accuracy":0,"Outcome":"-10","Keys":[1487.9999998956919,3023.0000000447035],"TotalKeys":2,"Block":1,"Trial":37,"Robot":3,"Valence":"Lose","Action":"Go","Sham":0,"Color":"blue","trial_type":"pit-trial","trial_index":62,"time_elapsed":330206,"internal_node_id":"0.0-39.0","task_version":"test-retest"},{"Rune":"rune_01_ear","Hex":"#ffcc3399","Correct":32,"Choice":32,"RT":554.0000000037253,"Accuracy":1,"Outcome":"+10","Keys":[2060.0000000558794],"TotalKeys":1,"Block":1,"Trial":38,"Robot":1,"Valence":"Win","Action":"Go","Sham":0,"Color":"yellow","trial_type":"pit-trial","trial_index":63,"time_elapsed":333275,"internal_node_id":"0.0-40.0","task_version":"test-retest"},{"Rune":"rune_01_ger","Hex":"#ffcc3399","Correct":-1,"Choice":32,"RT":882.9999999143183,"Accuracy":0,"Outcome":"+1","Keys":[2384.9999997764826],"TotalKeys":1,"Block":1,"Trial":39,"Robot":2,"Valence":"Win","Action":"No-Go","Sham":0,"Color":"yellow","trial_type":"pit-trial","trial_index":64,"time_elapsed":336667,"internal_node_id":"0.0-41.0","task_version":"test-retest"},{"Rune":"rune_01_ingwaz","Hex":"#3366ff99","Correct":-1,"Choice":-1,"RT":-1,"Accuracy":1,"Outcome":"-1","Keys":[],"TotalKeys":0,"Block":1,"Trial":40,"Robot":4,"Valence":"Lose","Action":"No-Go","Sham":0,"Color":"blue","trial_type":"pit-trial","trial_index":65,"time_elapsed":340678,"internal_node_id":"0.0-42.0","task_version":"test-retest"},{"Rune":"rune_01_yr","Hex":"#3366ff99","Correct":32,"Choice":-1,"RT":-1,"Accuracy":0,"Outcome":"-1","Keys":[],"TotalKeys":0,"Block":1,"Trial":41,"Robot":3,"Valence":"Lose","Action":"Go","Sham":1,"Color":"blue","trial_type":"pit-trial","trial_index":66,"time_elapsed":344689,"internal_node_id":"0.0-43.0","task_version":"test-retest"},{"Rune":"rune_01_ingwaz","Hex":"#3366ff99","Correct":-1,"Choice":-1,"RT":-1,"Accuracy":1,"Outcome":"-1","Keys":[],"TotalKeys":0,"Block":1,"Trial":42,"Robot":4,"Valence":"Lose","Action":"No-Go","Sham":0,"Color":"blue","trial_type":"pit-trial","trial_index":67,"time_elapsed":348697,"internal_node_id":"0.0-44.0","task_version":"test-retest"},{"Rune":"rune_01_ear","Hex":"#ffcc3399","Correct":32,"Choice":32,"RT":418.00000006332994,"Accuracy":1,"Outcome":"+10","Keys":[1930.9999998658895],"TotalKeys":1,"Block":1,"Trial":43,"Robot":1,"Valence":"Win","Action":"Go","Sham":0,"Color":"yellow","trial_type":"pit-trial","trial_index":68,"time_elapsed":351642,"internal_node_id":"0.0-45.0","task_version":"test-retest"},{"Rune":"rune_01_ger","Hex":"#ffcc3399","Correct":-1,"Choice":32,"RT":436.9999999180436,"Accuracy":0,"Outcome":"+1","Keys":[1939.0000002458692],"TotalKeys":1,"Block":1,"Trial":44,"Robot":2,"Valence":"Win","Action":"No-Go","Sham":0,"Color":"yellow","trial_type":"pit-trial","trial_index":69,"time_elapsed":354615,"internal_node_id":"0.0-46.0","task_version":"test-retest"},{"Rune":"rune_01_ear","Hex":"#ffcc3399","Correct":32,"Choice":32,"RT":472.9999997653067,"Accuracy":1,"Outcome":"+1","Keys":[1972.9999997653067],"TotalKeys":1,"Block":1,"Trial":45,"Robot":1,"Valence":"Win","Action":"Go","Sham":1,"Color":"yellow","trial_type":"pit-trial","trial_index":70,"time_elapsed":357602,"internal_node_id":"0.0-47.0","task_version":"test-retest"},{"Rune":"rune_01_ingwaz","Hex":"#3366ff99","Correct":-1,"Choice":-1,"RT":-1,"Accuracy":1,"Outcome":"-10","Keys":[],"TotalKeys":0,"Block":1,"Trial":46,"Robot":4,"Valence":"Lose","Action":"No-Go","Sham":1,"Color":"blue","trial_type":"pit-trial","trial_index":71,"time_elapsed":361613,"internal_node_id":"0.0-48.0","task_version":"test-retest"},{"Rune":"rune_01_yr","Hex":"#3366ff99","Correct":32,"Choice":-1,"RT":-1,"Accuracy":0,"Outcome":"-10","Keys":[],"TotalKeys":0,"Block":1,"Trial":47,"Robot":3,"Valence":"Lose","Action":"Go","Sham":0,"Color":"blue","trial_type":"pit-trial","trial_index":72,"time_elapsed":365624,"internal_node_id":"0.0-49.0","task_version":"test-retest"},{"Rune":"rune_01_ger","Hex":"#ffcc3399","Correct":-1,"Choice":32,"RT":729.0000002831221,"Accuracy":0,"Outcome":"+1","Keys":[2229.9999999813735],"TotalKeys":1,"Block":1,"Trial":48,"Robot":2,"Valence":"Win","Action":"No-Go","Sham":0,"Color":"yellow","trial_type":"pit-trial","trial_index":73,"time_elapsed":368865,"internal_node_id":"0.0-50.0","task_version":"test-retest"},{"Rune":"rune_01_ger","Hex":"#ffcc3399","Correct":-1,"Choice":32,"RT":571.9999996945262,"Accuracy":0,"Outcome":"+1","Keys":[2072.999999858439],"TotalKeys":1,"Block":1,"Trial":49,"Robot":2,"Valence":"Win","Action":"No-Go","Sham":0,"Color":"yellow","trial_type":"pit-trial","trial_index":74,"time_elapsed":371948,"internal_node_id":"0.0-51.0","task_version":"test-retest"},{"Rune":"rune_01_ingwaz","Hex":"#3366ff99","Correct":-1,"Choice":32,"RT":800.9999999776483,"Accuracy":0,"Outcome":"-10","Keys":[2305.000000167638],"TotalKeys":1,"Block":1,"Trial":50,"Robot":4,"Valence":"Lose","Action":"No-Go","Sham":0,"Color":"blue","trial_type":"pit-trial","trial_index":75,"time_elapsed":375271,"internal_node_id":"0.0-52.0","task_version":"test-retest"},{"Rune":"rune_01_ear","Hex":"#ffcc3399","Correct":32,"Choice":32,"RT":276.0000000707805,"Accuracy":1,"Outcome":"+10","Keys":[208.99999979883432,751.9999998621643,1296.9999997876585,1447.999999858439,1776.0000000707805],"TotalKeys":5,"Block":1,"Trial":51,"Robot":1,"Valence":"Win","Action":"Go","Sham":0,"Color":"yellow","trial_type":"pit-trial","trial_index":76,"time_elapsed":378059,"internal_node_id":"0.0-53.0","task_version":"test-retest"},{"Rune":"rune_01_yr","Hex":"#3366ff99","Correct":32,"Choice":-1,"RT":-1,"Accuracy":0,"Outcome":"-10","Keys":[3043.00000006333,3898.0000000447035],"TotalKeys":2,"Block":1,"Trial":52,"Robot":3,"Valence":"Lose","Action":"Go","Sham":0,"Color":"blue","trial_type":"pit-trial","trial_index":77,"time_elapsed":382065,"internal_node_id":"0.0-54.0","task_version":"test-retest"},{"Rune":"rune_01_ingwaz","Hex":"#3366ff99","Correct":-1,"Choice":-1,"RT":-1,"Accuracy":1,"Outcome":"-1","Keys":[3480.999999679625,3851.9999999552965],"TotalKeys":2,"Block":1,"Trial":53,"Robot":4,"Valence":"Lose","Action":"No-Go","Sham":0,"Color":"blue","trial_type":"pit-trial","trial_index":78,"time_elapsed":386071,"internal_node_id":"0.0-55.0","task_version":"test-retest"},{"Rune":"rune_01_ear","Hex":"#ffcc3399","Correct":32,"Choice":32,"RT":100.00000009313226,"Accuracy":1,"Outcome":"+10","Keys":[44.00000022724271,1603.0000001192093,1841.0000000149012,2155.0000002607703,2371.0000002756715],"TotalKeys":5,"Block":1,"Trial":54,"Robot":1,"Valence":"Win","Action":"Go","Sham":0,"Color":"yellow","trial_type":"pit-trial","trial_index":79,"time_elapsed":388681,"internal_node_id":"0.0-56.0","task_version":"test-retest"},{"Rune":"rune_01_yr","Hex":"#3366ff99","Correct":32,"Choice":32,"RT":279.99999979510903,"Accuracy":1,"Outcome":"-1","Keys":[32.00000012293458,686.9999999180436,1137.9999998025596,1464.000000152737,1819.999999832362,2344.000000040978,2601.000000257045],"TotalKeys":7,"Block":1,"Trial":55,"Robot":3,"Valence":"Lose","Action":"Go","Sham":0,"Color":"blue","trial_type":"pit-trial","trial_index":80,"time_elapsed":391508,"internal_node_id":"0.0-57.0","task_version":"test-retest"},{"Rune":"rune_01_ger","Hex":"#ffcc3399","Correct":-1,"Choice":32,"RT":199.00000002235174,"Accuracy":0,"Outcome":"+1","Keys":[262.9999998025596,296.99999978765845,595.000000204891,888.9999999664724,1483.0000000074506,1714.000000152737,1981.0000001452863],"TotalKeys":7,"Block":1,"Trial":56,"Robot":2,"Valence":"Win","Action":"No-Go","Sham":0,"Color":"yellow","trial_type":"pit-trial","trial_index":81,"time_elapsed":394227,"internal_node_id":"0.0-58.0","task_version":"test-retest"},{"Rune":"rune_01_ger","Hex":"#ffcc3399","Correct":-1,"Choice":32,"RT":157.00000012293458,"Accuracy":0,"Outcome":"+10","Keys":[0,612.9999998956919,1254.9999998882413,1662.0000000111759,2351.9999999552965],"TotalKeys":5,"Block":1,"Trial":57,"Robot":2,"Valence":"Win","Action":"No-Go","Sham":1,"Color":"yellow","trial_type":"pit-trial","trial_index":82,"time_elapsed":396897,"internal_node_id":"0.0-59.0","task_version":"test-retest"},{"Rune":"rune_01_ear","Hex":"#ffcc3399","Correct":32,"Choice":32,"RT":401.0000000707805,"Accuracy":1,"Outcome":"+10","Keys":[69.00000013411045,682.0000000298023,1295.0000003911555,1902.0000002346933,2457.0000004023314],"TotalKeys":5,"Block":1,"Trial":58,"Robot":1,"Valence":"Win","Action":"Go","Sham":0,"Color":"yellow","trial_type":"pit-trial","trial_index":83,"time_elapsed":399816,"internal_node_id":"0.0-60.0","task_version":"test-retest"},{"Rune":"rune_01_yr","Hex":"#3366ff99","Correct":32,"Choice":32,"RT":303.0000003054738,"Accuracy":1,"Outcome":"-1","Keys":[113.00000036135316,438.0000000819564,681.0000003315508,1242.0000000856817,1803.0000003054738,2321.000000461936],"TotalKeys":6,"Block":1,"Trial":59,"Robot":3,"Valence":"Lose","Action":"Go","Sham":0,"Color":"blue","trial_type":"pit-trial","trial_index":84,"time_elapsed":402630,"internal_node_id":"0.0-61.0","task_version":"test-retest"},{"Rune":"rune_01_ingwaz","Hex":"#3366ff99","Correct":-1,"Choice":32,"RT":383.9999996125698,"Accuracy":0,"Outcome":"-10","Keys":[131.00000005215406,672.9999999515712,1308.9999998919666,1887.9999998025596,2515.000000130385],"TotalKeys":5,"Block":1,"Trial":60,"Robot":4,"Valence":"Lose","Action":"No-Go","Sham":0,"Color":"blue","trial_type":"pit-trial","trial_index":85,"time_elapsed":405525,"internal_node_id":"0.0-62.0","task_version":"test-retest"},{"value":false,"trial_type":"call-function","trial_index":86,"time_elapsed":405530,"internal_node_id":"0.0-63.0","task_version":"test-retest"},{"view_history":"[{\"page_index\":0,\"viewing_time\":14930.000000167638},{\"page_index\":1,\"viewing_time\":2452.000000048429}]","rt":17382.99999991432,"trial_type":"pit-instructions","trial_index":87,"time_elapsed":422916,"internal_node_id":"0.0-64.0","task_version":"test-retest"},{"Rune":"rune_01_yr","Hex":"#3366ff99","Correct":32,"Choice":32,"RT":141.99999999254942,"Accuracy":1,"Outcome":"-1","Keys":[1643.0000001564622],"TotalKeys":1,"Block":1,"Trial":61,"Robot":3,"Valence":"Lose","Action":"Go","Sham":0,"Color":"blue","trial_type":"pit-trial","trial_index":88,"time_elapsed":425572,"internal_node_id":"0.0-65.0","task_version":"test-retest"},{"Rune":"rune_01_ger","Hex":"#ffcc3399","Correct":-1,"Choice":32,"RT":447.99999985843897,"Accuracy":0,"Outcome":"+10","Keys":[273.0000000447035,881.0000000521541,1438.0000000819564,1975.0000000931323,2526.0000000707805],"TotalKeys":5,"Block":1,"Trial":62,"Robot":2,"Valence":"Win","Action":"No-Go","Sham":1,"Color":"yellow","trial_type":"pit-trial","trial_index":89,"time_elapsed":428554,"internal_node_id":"0.0-66.0","task_version":"test-retest"},{"Rune":"rune_01_ear","Hex":"#ffcc3399","Correct":32,"Choice":32,"RT":395.00000001862645,"Accuracy":1,"Outcome":"+10","Keys":[152.0000002346933,788.0000001750886,1333.0000001005828,1896.0000001825392,2656.000000424683],"TotalKeys":5,"Block":1,"Trial":63,"Robot":1,"Valence":"Win","Action":"Go","Sham":0,"Color":"yellow","trial_type":"pit-trial","trial_index":90,"time_elapsed":431457,"internal_node_id":"0.0-67.0","task_version":"test-retest"},{"Rune":"rune_01_ingwaz","Hex":"#3366ff99","Correct":-1,"Choice":32,"RT":18.99999985471368,"Accuracy":0,"Outcome":"-10","Keys":[444.00000013411045,1056.0000003315508,1519.000000320375,2200.999999884516],"TotalKeys":4,"Block":1,"Trial":64,"Robot":4,"Valence":"Lose","Action":"No-Go","Sham":0,"Color":"blue","trial_type":"pit-trial","trial_index":91,"time_elapsed":433983,"internal_node_id":"0.0-68.0","task_version":"test-retest"},{"Rune":"rune_01_ingwaz","Hex":"#3366ff99","Correct":-1,"Choice":32,"RT":578.0000002123415,"Accuracy":0,"Outcome":"-10","Keys":[978.0000001192093,1444.999999832362,2080.000000074506,3015.9999998286366],"TotalKeys":4,"Block":1,"Trial":65,"Robot":4,"Valence":"Lose","Action":"No-Go","Sham":0,"Color":"blue","trial_type":"pit-trial","trial_index":92,"time_elapsed":437069,"internal_node_id":"0.0-69.0","task_version":"test-retest"},{"Rune":"rune_01_yr","Hex":"#3366ff99","Correct":32,"Choice":32,"RT":175.99999997764826,"Accuracy":1,"Outcome":"-10","Keys":[480.99999967962503,1114.9999997578561,1676.9999996758997,2226.9999999552965],"TotalKeys":4,"Block":1,"Trial":66,"Robot":3,"Valence":"Lose","Action":"Go","Sham":1,"Color":"blue","trial_type":"pit-trial","trial_index":93,"time_elapsed":439752,"internal_node_id":"0.0-70.0","task_version":"test-retest"},{"Rune":"rune_01_ear","Hex":"#ffcc3399","Correct":32,"Choice":32,"RT":203.99999991059303,"Accuracy":1,"Outcome":"+10","Keys":[67.00000027194619,583.0000001005828,1150.000000372529,1705.0000000745058,2226.000000257045],"TotalKeys":5,"Block":1,"Trial":67,"Robot":1,"Valence":"Win","Action":"Go","Sham":0,"Color":"yellow","trial_type":"pit-trial","trial_index":94,"time_elapsed":442465,"internal_node_id":"0.0-71.0","task_version":"test-retest"},{"Rune":"rune_01_ger","Hex":"#ffcc3399","Correct":-1,"Choice":32,"RT":382.9999999143183,"Accuracy":0,"Outcome":"+1","Keys":[160.9999998472631,822.999999858439,1392.999999690801,1887.9999998025596,2483.999999705702],"TotalKeys":5,"Block":1,"Trial":68,"Robot":2,"Valence":"Win","Action":"No-Go","Sham":0,"Color":"yellow","trial_type":"pit-trial","trial_index":95,"time_elapsed":445366,"internal_node_id":"0.0-72.0","task_version":"test-retest"},{"Rune":"rune_01_ingwaz","Hex":"#3366ff99","Correct":-1,"Choice":32,"RT":342.9999998770654,"Accuracy":0,"Outcome":"-10","Keys":[67.00000027194619,695.0000002980232,1276.0000000707805,1844.0000000409782,2458.000000100583],"TotalKeys":5,"Block":1,"Trial":69,"Robot":4,"Valence":"Lose","Action":"No-Go","Sham":0,"Color":"blue","trial_type":"pit-trial","trial_index":96,"time_elapsed":448221,"internal_node_id":"0.0-73.0","task_version":"test-retest"},{"Rune":"rune_01_ear","Hex":"#ffcc3399","Correct":32,"Choice":32,"RT":405.0000002607703,"Accuracy":1,"Outcome":"+1","Keys":[101.00000025704503,751.0000001639128,1347.0000000670552,1906.000000424683,2512.000000104308],"TotalKeys":5,"Block":1,"Trial":70,"Robot":1,"Valence":"Win","Action":"Go","Sham":1,"Color":"yellow","trial_type":"pit-trial","trial_index":97,"time_elapsed":451146,"internal_node_id":"0.0-74.0","task_version":"test-retest"},{"Rune":"rune_01_ger","Hex":"#ffcc3399","Correct":-1,"Choice":32,"RT":479.00000028312206,"Accuracy":0,"Outcome":"+1","Keys":[211.00000012665987,850.0000000931323,1347.0000000670552,1992.0000000856817,2660.999999847263],"TotalKeys":5,"Block":1,"Trial":71,"Robot":2,"Valence":"Win","Action":"No-Go","Sham":0,"Color":"yellow","trial_type":"pit-trial","trial_index":98,"time_elapsed":454152,"internal_node_id":"0.0-75.0","task_version":"test-retest"},{"Rune":"rune_01_yr","Hex":"#3366ff99","Correct":32,"Choice":32,"RT":417.99999959766865,"Accuracy":1,"Outcome":"-1","Keys":[223.99999992921948,808.9999998919666,1917.9999995976686,2468.999999575317,2908.999999985099],"TotalKeys":5,"Block":1,"Trial":72,"Robot":3,"Valence":"Lose","Action":"Go","Sham":0,"Color":"blue","trial_type":"pit-trial","trial_index":99,"time_elapsed":457080,"internal_node_id":"0.0-76.0","task_version":"test-retest"},{"Rune":"rune_01_ger","Hex":"#ffcc3399","Correct":-1,"Choice":32,"RT":92.99999987706542,"Accuracy":0,"Outcome":"+1","Keys":[612.9999998956919,1033.9999999850988,1597.0000000670552,2212.0000002905726],"TotalKeys":4,"Block":1,"Trial":73,"Robot":2,"Valence":"Win","Action":"No-Go","Sham":0,"Color":"yellow","trial_type":"pit-trial","trial_index":100,"time_elapsed":459683,"internal_node_id":"0.0-77.0","task_version":"test-retest"},{"Rune":"rune_01_ingwaz","Hex":"#3366ff99","Correct":-1,"Choice":32,"RT":304.9999997019768,"Accuracy":0,"Outcome":"-10","Keys":[248.99999983608723,745.9999998100102,1294.9999999254942,1819.999999832362,2456.0000002384186],"TotalKeys":5,"Block":1,"Trial":74,"Robot":4,"Valence":"Lose","Action":"No-Go","Sham":0,"Color":"blue","trial_type":"pit-trial","trial_index":101,"time_elapsed":462508,"internal_node_id":"0.0-78.0","task_version":"test-retest"},{"Rune":"rune_01_yr","Hex":"#3366ff99","Correct":32,"Choice":32,"RT":263.9999999664724,"Accuracy":1,"Outcome":"-1","Keys":[191.9999998062849,682.9999997280538,1200.0000001862645,1768.0000001564622,2219.9999997392297],"TotalKeys":5,"Block":1,"Trial":75,"Robot":3,"Valence":"Lose","Action":"Go","Sham":0,"Color":"blue","trial_type":"pit-trial","trial_index":102,"time_elapsed":465284,"internal_node_id":"0.0-79.0","task_version":"test-retest"},{"Rune":"rune_01_ear","Hex":"#ffcc3399","Correct":32,"Choice":32,"RT":118.99999994784594,"Accuracy":1,"Outcome":"+10","Keys":[41.99999989941716,1063.9999997802079,1618.999999947846,2195.9999999962747],"TotalKeys":4,"Block":1,"Trial":76,"Robot":1,"Valence":"Win","Action":"Go","Sham":0,"Color":"yellow","trial_type":"pit-trial","trial_index":103,"time_elapsed":467904,"internal_node_id":"0.0-80.0","task_version":"test-retest"},{"Rune":"rune_01_ear","Hex":"#ffcc3399","Correct":32,"Choice":32,"RT":183.99999989196658,"Accuracy":1,"Outcome":"+10","Keys":[86.00000012665987,631.0000000521541,1169.0000002272427,1685.0000000558794,2257.9999999143183],"TotalKeys":5,"Block":1,"Trial":77,"Robot":1,"Valence":"Win","Action":"Go","Sham":0,"Color":"yellow","trial_type":"pit-trial","trial_index":104,"time_elapsed":470595,"internal_node_id":"0.0-81.0","task_version":"test-retest"},{"Rune":"rune_01_yr","Hex":"#3366ff99","Correct":32,"Choice":32,"RT":180.99999986588955,"Accuracy":1,"Outcome":"-1","Keys":[250,773.999999742955,1265.9999998286366,1680.9999998658895,2165.9999997355044],"TotalKeys":5,"Block":1,"Trial":78,"Robot":3,"Valence":"Lose","Action":"Go","Sham":0,"Color":"blue","trial_type":"pit-trial","trial_index":105,"time_elapsed":473291,"internal_node_id":"0.0-82.0","task_version":"test-retest"},{"Rune":"rune_01_ingwaz","Hex":"#3366ff99","Correct":-1,"Choice":32,"RT":191.00000010803342,"Accuracy":0,"Outcome":"-1","Keys":[135.99999994039536,660.9999998472631,1183.9999998919666,1694.999999832362,2167.9999995976686],"TotalKeys":5,"Block":1,"Trial":79,"Robot":4,"Valence":"Lose","Action":"No-Go","Sham":1,"Color":"blue","trial_type":"pit-trial","trial_index":106,"time_elapsed":475994,"internal_node_id":"0.0-83.0","task_version":"test-retest"},{"Rune":"rune_01_ger","Hex":"#ffcc3399","Correct":-1,"Choice":32,"RT":191.00000010803342,"Accuracy":0,"Outcome":"+1","Keys":[57.99999972805381,584.9999999627471,1132.9999999143183,1691.0000001080334,2262.9999998025596],"TotalKeys":5,"Block":1,"Trial":80,"Robot":2,"Valence":"Win","Action":"No-Go","Sham":0,"Color":"yellow","trial_type":"pit-trial","trial_index":107,"time_elapsed":478693,"internal_node_id":"0.0-84.0","task_version":"test-retest"},{"Rune":"rune_01_yr","Hex":"#3366ff99","Correct":32,"Choice":32,"RT":304.0000000037253,"Accuracy":1,"Outcome":"-1","Keys":[138.0000002682209,672.0000002533197,753.000000026077,1246.999999973923,1805.000000167638,2413.0000001750886],"TotalKeys":6,"Block":1,"Trial":81,"Robot":3,"Valence":"Lose","Action":"Go","Sham":0,"Color":"blue","trial_type":"pit-trial","trial_index":108,"time_elapsed":481505,"internal_node_id":"0.0-85.0","task_version":"test-retest"},{"Rune":"rune_01_ear","Hex":"#ffcc3399","Correct":32,"Choice":32,"RT":328.00000021234155,"Accuracy":1,"Outcome":"+10","Keys":[114.00000005960464,689.9999999441206,1253.000000026077,1828.0000002123415,2435.0000000558794],"TotalKeys":5,"Block":1,"Trial":82,"Robot":1,"Valence":"Win","Action":"Go","Sham":0,"Color":"yellow","trial_type":"pit-trial","trial_index":109,"time_elapsed":484357,"internal_node_id":"0.0-86.0","task_version":"test-retest"},{"Rune":"rune_01_ger","Hex":"#ffcc3399","Correct":-1,"Choice":32,"RT":262.0000001043081,"Accuracy":0,"Outcome":"+1","Keys":[131.00000005215406,675.0000002793968,1291.9999998994172,1763.000000268221,2364.0000000596046],"TotalKeys":5,"Block":1,"Trial":83,"Robot":2,"Valence":"Win","Action":"No-Go","Sham":0,"Color":"yellow","trial_type":"pit-trial","trial_index":110,"time_elapsed":487137,"internal_node_id":"0.0-87.0","task_version":"test-retest"},{"Rune":"rune_01_ingwaz","Hex":"#3366ff99","Correct":-1,"Choice":32,"RT":77.99999974668026,"Accuracy":0,"Outcome":"-10","Keys":[115.00000022351742,621.999999973923,1058.9999998919666,1578.999999910593,2175.0000002793968],"TotalKeys":5,"Block":1,"Trial":84,"Robot":4,"Valence":"Lose","Action":"No-Go","Sham":0,"Color":"blue","trial_type":"pit-trial","trial_index":111,"time_elapsed":489724,"internal_node_id":"0.0-88.0","task_version":"test-retest"},{"Rune":"rune_01_ear","Hex":"#ffcc3399","Correct":32,"Choice":32,"RT":448.00000032410026,"Accuracy":1,"Outcome":"+10","Keys":[300.99999997764826,771.9999998807907,1379.9999998882413,1950.999999884516,2606.999999843538],"TotalKeys":5,"Block":1,"Trial":85,"Robot":1,"Valence":"Win","Action":"Go","Sham":0,"Color":"yellow","trial_type":"pit-trial","trial_index":112,"time_elapsed":492683,"internal_node_id":"0.0-89.0","task_version":"test-retest"},{"Rune":"rune_01_ingwaz","Hex":"#3366ff99","Correct":-1,"Choice":32,"RT":260.99999994039536,"Accuracy":0,"Outcome":"-1","Keys":[281.9999996572733,915.0000000372529,1760.9999999403954,2458.9999997988343],"TotalKeys":4,"Block":1,"Trial":86,"Robot":4,"Valence":"Lose","Action":"No-Go","Sham":1,"Color":"blue","trial_type":"pit-trial","trial_index":113,"time_elapsed":495452,"internal_node_id":"0.0-90.0","task_version":"test-retest"},{"Rune":"rune_01_ger","Hex":"#ffcc3399","Correct":-1,"Choice":32,"RT":407.0000001229346,"Accuracy":0,"Outcome":"+1","Keys":[277.9999999329448,784.9999996833503,1243.999999947846,1907.999999821186,2577.9999997466803],"TotalKeys":5,"Block":1,"Trial":87,"Robot":2,"Valence":"Win","Action":"No-Go","Sham":0,"Color":"yellow","trial_type":"pit-trial","trial_index":114,"time_elapsed":498368,"internal_node_id":"0.0-91.0","task_version":"test-retest"},{"Rune":"rune_01_yr","Hex":"#3366ff99","Correct":32,"Choice":32,"RT":32.00000012293458,"Accuracy":1,"Outcome":"-1","Keys":[299.9999998137355,1018.0000001564622,1532.0000001229346,1949.9999997206032],"TotalKeys":4,"Block":1,"Trial":88,"Robot":3,"Valence":"Lose","Action":"Go","Sham":0,"Color":"blue","trial_type":"pit-trial","trial_index":115,"time_elapsed":500907,"internal_node_id":"0.0-92.0","task_version":"test-retest"},{"Rune":"rune_01_ger","Hex":"#ffcc3399","Correct":-1,"Choice":32,"RT":329.0000003762543,"Accuracy":0,"Outcome":"+1","Keys":[64.99999994412065,617.0000000856817,1283.9999999850988,1830.0000000745058,2515.9999998286366],"TotalKeys":5,"Block":1,"Trial":89,"Robot":2,"Valence":"Win","Action":"No-Go","Sham":0,"Color":"yellow","trial_type":"pit-trial","trial_index":116,"time_elapsed":503742,"internal_node_id":"0.0-93.0","task_version":"test-retest"},{"Rune":"rune_01_ingwaz","Hex":"#3366ff99","Correct":-1,"Choice":32,"RT":205.9999997727573,"Accuracy":0,"Outcome":"-10","Keys":[403.99999963119626,1009.9999997764826,1705.9999997727573,2258.99999961257],"TotalKeys":4,"Block":1,"Trial":90,"Robot":4,"Valence":"Lose","Action":"No-Go","Sham":0,"Color":"blue","trial_type":"pit-trial","trial_index":117,"time_elapsed":506457,"internal_node_id":"0.0-94.0","task_version":"test-retest"},{"Rune":"rune_01_yr","Hex":"#3366ff99","Correct":32,"Choice":32,"RT":368.00000024959445,"Accuracy":1,"Outcome":"-1","Keys":[201.9999995827675,919.9999999254942,1199.0000000223517,1443.9999996684492,1868.999999947846,2346.999999601394,2577.9999997466803],"TotalKeys":7,"Block":1,"Trial":91,"Robot":3,"Valence":"Lose","Action":"Go","Sham":0,"Color":"blue","trial_type":"pit-trial","trial_index":118,"time_elapsed":509332,"internal_node_id":"0.0-95.0","task_version":"test-retest"},{"Rune":"rune_01_ear","Hex":"#ffcc3399","Correct":32,"Choice":32,"RT":299.000000115484,"Accuracy":1,"Outcome":"+10","Keys":[123.00000013783574,646.9999998807907,865.0000002235174,1302.000000141561,1800.0000002793968,2405.0000002607703],"TotalKeys":6,"Block":1,"Trial":92,"Robot":1,"Valence":"Win","Action":"Go","Sham":0,"Color":"yellow","trial_type":"pit-trial","trial_index":119,"time_elapsed":512139,"internal_node_id":"0.0-96.0","task_version":"test-retest"},{"Rune":"rune_01_ger","Hex":"#ffcc3399","Correct":-1,"Choice":32,"RT":612.9999998956919,"Accuracy":0,"Outcome":"+10","Keys":[217.99999987706542,811.0000002197921,1413.9999998733401,2114.0000000596046,2691.0000001080334],"TotalKeys":5,"Block":1,"Trial":93,"Robot":2,"Valence":"Win","Action":"No-Go","Sham":1,"Color":"yellow","trial_type":"pit-trial","trial_index":120,"time_elapsed":515259,"internal_node_id":"0.0-97.0","task_version":"test-retest"},{"Rune":"rune_01_yr","Hex":"#3366ff99","Correct":32,"Choice":32,"RT":324.00000002235174,"Accuracy":1,"Outcome":"-10","Keys":[212.00000029057264,700.0000001862645,899.0000002086163,1293.00000006333,1824.0000000223517,1995.0000001117587,2442.000000271946],"TotalKeys":7,"Block":1,"Trial":94,"Robot":3,"Valence":"Lose","Action":"Go","Sham":1,"Color":"blue","trial_type":"pit-trial","trial_index":121,"time_elapsed":518089,"internal_node_id":"0.0-98.0","task_version":"test-retest"},{"Rune":"rune_01_ear","Hex":"#ffcc3399","Correct":32,"Choice":32,"RT":30.999999959021807,"Accuracy":1,"Outcome":"+10","Keys":[196.9999996945262,324.00000002235174,767.9999996908009,1361.999999731779,1531.9999996572733,1932.9999997280538,2193.999999668449,2483.999999705702],"TotalKeys":8,"Block":1,"Trial":95,"Robot":1,"Valence":"Win","Action":"Go","Sham":0,"Color":"yellow","trial_type":"pit-trial","trial_index":122,"time_elapsed":520625,"internal_node_id":"0.0-99.0","task_version":"test-retest"},{"Rune":"rune_01_ingwaz","Hex":"#3366ff99","Correct":-1,"Choice":32,"RT":233.99999970570207,"Accuracy":0,"Outcome":"-10","Keys":[334.0000002644956,513.9999999664724,714.0000001527369,1049.000000115484,1386.0000004060566,1735.0000003352761,2115.0000002235174,2493.999999947846],"TotalKeys":8,"Block":1,"Trial":96,"Robot":4,"Valence":"Lose","Action":"No-Go","Sham":0,"Color":"blue","trial_type":"pit-trial","trial_index":123,"time_elapsed":523368,"internal_node_id":"0.0-100.0","task_version":"test-retest"},{"Rune":"rune_01_ear","Hex":"#ffcc3399","Correct":32,"Choice":32,"RT":228.0000001192093,"Accuracy":1,"Outcome":"+1","Keys":[172.99999995157123,537.0000000111759,682.9999997280538,990.9999999217689,1174.9999998137355,1486.999999731779,1729.9999999813735,1949.9999997206032,2143.9999998547137,2497.9999996721745,2668.9999997615814],"TotalKeys":11,"Block":1,"Trial":97,"Robot":1,"Valence":"Win","Action":"Go","Sham":1,"Color":"yellow","trial_type":"pit-trial","trial_index":124,"time_elapsed":526109,"internal_node_id":"0.0-101.0","task_version":"test-retest"},{"Rune":"rune_01_yr","Hex":"#3366ff99","Correct":32,"Choice":32,"RT":260.99999994039536,"Accuracy":1,"Outcome":"-1","Keys":[186.9999999180436,361.0000000335276,712.9999999888241,1046.9999997876585,1257.9999999143183,1435.0000000558794,1763.9999999664724,1964.9999998509884,2253.000000026077,2461.9999998249114],"TotalKeys":10,"Block":1,"Trial":98,"Robot":3,"Valence":"Lose","Action":"Go","Sham":0,"Color":"blue","trial_type":"pit-trial","trial_index":125,"time_elapsed":528878,"internal_node_id":"0.0-102.0","task_version":"test-retest"},{"Rune":"rune_01_ingwaz","Hex":"#3366ff99","Correct":-1,"Choice":32,"RT":158.99999998509884,"Accuracy":0,"Outcome":"-10","Keys":[32.00000012293458,411.0000003129244,584.0000002644956,783.0000002868474,1104.9999999813735,1481.0000001452863,1658.9999999850988,1841.0000000149012,2148.0000000447035,2513.9999999664724],"TotalKeys":10,"Block":1,"Trial":99,"Robot":4,"Valence":"Lose","Action":"No-Go","Sham":0,"Color":"blue","trial_type":"pit-trial","trial_index":126,"time_elapsed":531542,"internal_node_id":"0.0-103.0","task_version":"test-retest"},{"Rune":"rune_01_ger","Hex":"#ffcc3399","Correct":-1,"Choice":32,"RT":120.9999998100102,"Accuracy":0,"Outcome":"+1","Keys":[29.000000096857548,521.0000001825392,986.0000000335276,1466.0000000149012,1620.9999998100102,1808.9999998919666,1966.0000000149012,2169.999999925494,2348.9999999292195],"TotalKeys":9,"Block":1,"Trial":100,"Robot":2,"Valence":"Win","Action":"No-Go","Sham":0,"Color":"yellow","trial_type":"pit-trial","trial_index":127,"time_elapsed":534167,"internal_node_id":"0.0-104.0","task_version":"test-retest"},{"Rune":"rune_01_yr","Hex":"#3366ff99","Correct":32,"Choice":32,"RT":316.0000001080334,"Accuracy":1,"Outcome":"-1","Keys":[203.00000021234155,913.0000001750886,1097.0000000670552,1413.9999998733401,1827.0000000484288,2316.0000001080334,2535.0000001490116,2807.0000000298023],"TotalKeys":8,"Block":1,"Trial":101,"Robot":3,"Valence":"Lose","Action":"Go","Sham":0,"Color":"blue","trial_type":"pit-trial","trial_index":128,"time_elapsed":537004,"internal_node_id":"0.0-105.0","task_version":"test-retest"},{"Rune":"rune_01_ear","Hex":"#ffcc3399","Correct":32,"Choice":32,"RT":206.99999993667006,"Accuracy":1,"Outcome":"+1","Keys":[186.9999999180436,570.9999999962747,935.0000000558794,1708.9999997988343,1959.999999962747,2507.9999999143183],"TotalKeys":6,"Block":1,"Trial":102,"Robot":1,"Valence":"Win","Action":"Go","Sham":1,"Color":"yellow","trial_type":"pit-trial","trial_index":129,"time_elapsed":539720,"internal_node_id":"0.0-106.0","task_version":"test-retest"},{"Rune":"rune_01_ingwaz","Hex":"#3366ff99","Correct":-1,"Choice":32,"RT":109.00000017136335,"Accuracy":0,"Outcome":"-10","Keys":[188.0000000819564,459.0000002644956,938.0000000819564,1396.0000001825392,1610.0000003352761,2172.0000002533197,2560.0000000558794],"TotalKeys":7,"Block":1,"Trial":103,"Robot":4,"Valence":"Lose","Action":"No-Go","Sham":0,"Color":"blue","trial_type":"pit-trial","trial_index":130,"time_elapsed":542335,"internal_node_id":"0.0-107.0","task_version":"test-retest"},{"Rune":"rune_01_ger","Hex":"#ffcc3399","Correct":-1,"Choice":32,"RT":290.0000000372529,"Accuracy":0,"Outcome":"+1","Keys":[199.99999972060323,686.9999999180436,1141.9999999925494,1431.999999564141,1790.9999997355044,2264.999999664724,2522.999999579042],"TotalKeys":7,"Block":1,"Trial":104,"Robot":2,"Valence":"Win","Action":"No-Go","Sham":0,"Color":"yellow","trial_type":"pit-trial","trial_index":131,"time_elapsed":545131,"internal_node_id":"0.0-108.0","task_version":"test-retest"},{"Rune":"rune_01_yr","Hex":"#3366ff99","Correct":32,"Choice":32,"RT":228.0000001192093,"Accuracy":1,"Outcome":"-1","Keys":[106.00000014528632,972.0000000670552,1422.9999999515712,1731.0000001452863,1972.0000000670552,2404.0000000968575],"TotalKeys":6,"Block":1,"Trial":105,"Robot":3,"Valence":"Lose","Action":"Go","Sham":0,"Color":"blue","trial_type":"pit-trial","trial_index":132,"time_elapsed":547870,"internal_node_id":"0.0-109.0","task_version":"test-retest"},{"Rune":"rune_01_ear","Hex":"#ffcc3399","Correct":32,"Choice":32,"RT":155.00000026077032,"Accuracy":1,"Outcome":"+10","Keys":[132.00000021606684,438.0000000819564,634.0000000782311,958.0000001005828,1308.000000193715,1656.000000424683,2307.0000000298023],"TotalKeys":7,"Block":1,"Trial":106,"Robot":1,"Valence":"Win","Action":"Go","Sham":0,"Color":"yellow","trial_type":"pit-trial","trial_index":133,"time_elapsed":550533,"internal_node_id":"0.0-110.0","task_version":"test-retest"},{"Rune":"rune_01_ger","Hex":"#ffcc3399","Correct":-1,"Choice":32,"RT":674.000000115484,"Accuracy":0,"Outcome":"+1","Keys":[42.00000036507845,516.9999999925494,926.0000004433095,1253.000000026077,2181.000000331551,2496.0000002756715,2961.00000012666],"TotalKeys":7,"Block":1,"Trial":107,"Robot":2,"Valence":"Win","Action":"No-Go","Sham":0,"Color":"yellow","trial_type":"pit-trial","trial_index":134,"time_elapsed":553722,"internal_node_id":"0.0-111.0","task_version":"test-retest"},{"Rune":"rune_01_ingwaz","Hex":"#3366ff99","Correct":-1,"Choice":32,"RT":395.00000001862645,"Accuracy":0,"Outcome":"-1","Keys":[169.9999999254942,452.0000000484288,1367.0000000856817,1896.0000001825392,2379.9999998882413,2680.000000167638],"TotalKeys":6,"Block":1,"Trial":108,"Robot":4,"Valence":"Lose","Action":"No-Go","Sham":1,"Color":"blue","trial_type":"pit-trial","trial_index":135,"time_elapsed":556624,"internal_node_id":"0.0-112.0","task_version":"test-retest"},{"Rune":"rune_01_ingwaz","Hex":"#3366ff99","Correct":-1,"Choice":32,"RT":270.00000001862645,"Accuracy":0,"Outcome":"-10","Keys":[308.9999998919666,628.000000026077,875,1391.9999999925494,1771.0000001825392,2057.0000000298023],"TotalKeys":6,"Block":1,"Trial":109,"Robot":4,"Valence":"Lose","Action":"No-Go","Sham":0,"Color":"blue","trial_type":"pit-trial","trial_index":136,"time_elapsed":559401,"internal_node_id":"0.0-113.0","task_version":"test-retest"},{"Rune":"rune_01_ear","Hex":"#ffcc3399","Correct":32,"Choice":32,"RT":149.00000020861626,"Accuracy":1,"Outcome":"+10","Keys":[182.00000002980232,506.00000005215406,1033.0000002868474,1405.9999999590218,1649.0000002086163,2098.000000230968,2612.999999895692],"TotalKeys":7,"Block":1,"Trial":110,"Robot":1,"Valence":"Win","Action":"Go","Sham":0,"Color":"yellow","trial_type":"pit-trial","trial_index":137,"time_elapsed":562068,"internal_node_id":"0.0-114.0","task_version":"test-retest"},{"Rune":"rune_01_yr","Hex":"#3366ff99","Correct":32,"Choice":32,"RT":254.9999998882413,"Accuracy":1,"Outcome":"-10","Keys":[146.00000018253922,1756.000000052154,2192.000000271946,2691.0000001080334],"TotalKeys":4,"Block":1,"Trial":111,"Robot":3,"Valence":"Lose","Action":"Go","Sham":1,"Color":"blue","trial_type":"pit-trial","trial_index":138,"time_elapsed":564833,"internal_node_id":"0.0-115.0","task_version":"test-retest"},{"Rune":"rune_01_ger","Hex":"#ffcc3399","Correct":-1,"Choice":32,"RT":308.9999998919666,"Accuracy":0,"Outcome":"+1","Keys":[344.0000000409782,974.999999627471,1386.9999996386468,1818.9999996684492,2191.999999806285,2512.9999998025596],"TotalKeys":6,"Block":1,"Trial":112,"Robot":2,"Valence":"Win","Action":"No-Go","Sham":0,"Color":"yellow","trial_type":"pit-trial","trial_index":139,"time_elapsed":567674,"internal_node_id":"0.0-116.0","task_version":"test-retest"},{"Rune":"rune_01_ear","Hex":"#ffcc3399","Correct":32,"Choice":32,"RT":246.99999997392297,"Accuracy":1,"Outcome":"+10","Keys":[461.00000012665987,740.0000002235174,1281.000000424683,1754.0000001899898,2131.000000052154,2353.0000001192093],"TotalKeys":6,"Block":1,"Trial":113,"Robot":1,"Valence":"Win","Action":"Go","Sham":0,"Color":"yellow","trial_type":"pit-trial","trial_index":140,"time_elapsed":570439,"internal_node_id":"0.0-117.0","task_version":"test-retest"},{"Rune":"rune_01_ger","Hex":"#ffcc3399","Correct":-1,"Choice":32,"RT":81.00000023841858,"Accuracy":0,"Outcome":"+1","Keys":[14.999999664723873,615.9999999217689,1063.9999997802079,1586.9999998249114,1983.0000000074506,2202.9999997466803],"TotalKeys":6,"Block":1,"Trial":114,"Robot":2,"Valence":"Win","Action":"No-Go","Sham":0,"Color":"yellow","trial_type":"pit-trial","trial_index":141,"time_elapsed":573032,"internal_node_id":"0.0-118.0","task_version":"test-retest"},{"Rune":"rune_01_ingwaz","Hex":"#3366ff99","Correct":-1,"Choice":32,"RT":37.99999970942736,"Accuracy":0,"Outcome":"-10","Keys":[47.00000025331974,433.0000001937151,662.0000000111759,1152.0000002346933,1543.00000006333,1816.0000001080334,2375],"TotalKeys":7,"Block":1,"Trial":115,"Robot":4,"Valence":"Lose","Action":"No-Go","Sham":0,"Color":"blue","trial_type":"pit-trial","trial_index":142,"time_elapsed":575585,"internal_node_id":"0.0-119.0","task_version":"test-retest"},{"Rune":"rune_01_yr","Hex":"#3366ff99","Correct":32,"Choice":32,"RT":95.99999990314245,"Accuracy":1,"Outcome":"-1","Keys":[412.00000001117587,899.0000002086163,1402.9999999329448,1595.9999999031425,2550.0000002793968],"TotalKeys":5,"Block":1,"Trial":116,"Robot":3,"Valence":"Lose","Action":"Go","Sham":0,"Color":"blue","trial_type":"pit-trial","trial_index":143,"time_elapsed":578189,"internal_node_id":"0.0-120.0","task_version":"test-retest"},{"Rune":"rune_01_ger","Hex":"#ffcc3399","Correct":-1,"Choice":32,"RT":740.0000002235174,"Accuracy":0,"Outcome":"+10","Keys":[175.99999997764826,638.9999999664724,1118.999999947846,1339.9999998509884,2240.999999921769,2469.9999997392297,2952.000000048429],"TotalKeys":7,"Block":1,"Trial":117,"Robot":2,"Valence":"Win","Action":"No-Go","Sham":1,"Color":"yellow","trial_type":"pit-trial","trial_index":144,"time_elapsed":581439,"internal_node_id":"0.0-121.0","task_version":"test-retest"},{"Rune":"rune_01_yr","Hex":"#3366ff99","Correct":32,"Choice":32,"RT":283.99999998509884,"Accuracy":1,"Outcome":"-1","Keys":[155.9999999590218,367.0000000856817,794.0000002272427,1070.9999999962747,1237.9999998956919,1785.0000001490116,2179.0000000037253,2361.0000000335276,2634.000000078231],"TotalKeys":9,"Block":1,"Trial":118,"Robot":3,"Valence":"Lose","Action":"Go","Sham":0,"Color":"blue","trial_type":"pit-trial","trial_index":145,"time_elapsed":584233,"internal_node_id":"0.0-122.0","task_version":"test-retest"},{"Rune":"rune_01_ear","Hex":"#ffcc3399","Correct":32,"Choice":32,"RT":469.0000000409782,"Accuracy":1,"Outcome":"+10","Keys":[473.9999999292195,1149.9999999068677,1972.0000000670552,2396.000000182539,2876.000000163913],"TotalKeys":5,"Block":1,"Trial":119,"Robot":1,"Valence":"Win","Action":"Go","Sham":0,"Color":"yellow","trial_type":"pit-trial","trial_index":146,"time_elapsed":587211,"internal_node_id":"0.0-123.0","task_version":"test-retest"},{"Rune":"rune_01_ingwaz","Hex":"#3366ff99","Correct":-1,"Choice":32,"RT":404.00000009685755,"Accuracy":0,"Outcome":"-10","Keys":[212.99999998882413,725.9999997913837,1429.9999997019768,1904.999999795109,2339.9999998509884,2604.9999999813735],"TotalKeys":6,"Block":1,"Trial":120,"Robot":4,"Valence":"Lose","Action":"No-Go","Sham":0,"Color":"blue","trial_type":"pit-trial","trial_index":147,"time_elapsed":590126,"internal_node_id":"0.0-124.0","task_version":"test-retest"},{"view_history":"[{\"page_index\":0,\"viewing_time\":50844.00000004098},{\"page_index\":1,\"viewing_time\":2189.9999999441206},{\"page_index\":2,\"viewing_time\":2529.0000000968575}]","rt":55563.99999978021,"trial_type":"pit-instructions","trial_index":148,"time_elapsed":645697,"internal_node_id":"0.0-125.0","task_version":"test-retest"},{"Rune":"rune_02_os","Hex":"#3366ff99","Correct":-1,"Choice":32,"RT":587.9999999888241,"Accuracy":0,"Outcome":"-1","Keys":[1298.9999996498227,2088.9999996870756,2609.999999869615],"TotalKeys":3,"Block":2,"Trial":121,"Robot":4,"Valence":"Lose","Action":"No-Go","Sham":1,"Color":"blue","trial_type":"pit-trial","trial_index":149,"time_elapsed":648807,"internal_node_id":"0.0-126.0","task_version":"test-retest"},{"Rune":"rune_02_raido","Hex":"#ffcc3399","Correct":32,"Choice":32,"RT":35.00000014901161,"Accuracy":1,"Outcome":"+10","Keys":[489.00000005960464,674.000000115484,1038.0000001750886,1397.000000346452,1536.0000003129244,1756.000000052154,2070.9999999962747],"TotalKeys":7,"Block":2,"Trial":122,"Robot":1,"Valence":"Win","Action":"Go","Sham":0,"Color":"yellow","trial_type":"pit-trial","trial_index":150,"time_elapsed":651349,"internal_node_id":"0.0-127.0","task_version":"test-retest"},{"Rune":"rune_02_haglaz","Hex":"#3366ff99","Correct":32,"Choice":32,"RT":342.00000017881393,"Accuracy":1,"Outcome":"-1","Keys":[493.00000024959445,868.9999999478459,1185.0000000558794,1500,1842.000000178814,2128.000000026077,2472.000000067055,2759.000000078231],"TotalKeys":8,"Block":2,"Trial":123,"Robot":3,"Valence":"Lose","Action":"Go","Sham":0,"Color":"blue","trial_type":"pit-trial","trial_index":151,"time_elapsed":654196,"internal_node_id":"0.0-128.0","task_version":"test-retest"},{"Rune":"rune_02_cen","Hex":"#ffcc3399","Correct":-1,"Choice":32,"RT":74.00000002235174,"Accuracy":0,"Outcome":"+10","Keys":[73.00000032410026,271.0000001825392,598.000000230968,1575.0000001862645,1896.0000001825392,2053.000000305474,2248.0000001378357,2547.0000002533197],"TotalKeys":8,"Block":2,"Trial":124,"Robot":2,"Valence":"Win","Action":"No-Go","Sham":1,"Color":"yellow","trial_type":"pit-trial","trial_index":152,"time_elapsed":656788,"internal_node_id":"0.0-129.0","task_version":"test-retest"},{"Rune":"rune_02_haglaz","Hex":"#3366ff99","Correct":32,"Choice":32,"RT":55.00000016763806,"Accuracy":1,"Outcome":"-1","Keys":[450.0000001862645,905.9999999590218,1201.0000003501773,1373.0000001378357,1559.0000003576279,1849.0000003948808],"TotalKeys":6,"Block":2,"Trial":125,"Robot":3,"Valence":"Lose","Action":"Go","Sham":0,"Color":"blue","trial_type":"pit-trial","trial_index":153,"time_elapsed":659355,"internal_node_id":"0.0-130.0","task_version":"test-retest"},{"Rune":"rune_02_cen","Hex":"#ffcc3399","Correct":-1,"Choice":32,"RT":75.999999884516,"Accuracy":0,"Outcome":"+1","Keys":[263.0000002682209,601.9999999552965,913.0000001750886,1250,1577.0000000484288,1927.000000141561,2222.000000067055,2493.0000002495944],"TotalKeys":8,"Block":2,"Trial":126,"Robot":2,"Valence":"Win","Action":"No-Go","Sham":0,"Color":"yellow","trial_type":"pit-trial","trial_index":154,"time_elapsed":661939,"internal_node_id":"0.0-131.0","task_version":"test-retest"},{"Rune":"rune_02_raido","Hex":"#ffcc3399","Correct":32,"Choice":32,"RT":0,"Accuracy":1,"Outcome":"+10","Keys":[319.99999983236194,615.9999999217689,1500.9999996982515,1765.9999998286366,2167.9999995976686,2443.999999668449],"TotalKeys":6,"Block":2,"Trial":127,"Robot":1,"Valence":"Win","Action":"Go","Sham":0,"Color":"yellow","trial_type":"pit-trial","trial_index":155,"time_elapsed":664453,"internal_node_id":"0.0-132.0","task_version":"test-retest"},{"Rune":"rune_02_os","Hex":"#3366ff99","Correct":-1,"Choice":32,"RT":0.9999996982514858,"Accuracy":0,"Outcome":"-10","Keys":[231.00000014528632,478.0000001192093,736.0000000335276,1021.0000001825392,1271.0000001825392,1507.9999999143183,2178.000000305474,2441.0000001080334],"TotalKeys":8,"Block":2,"Trial":128,"Robot":4,"Valence":"Lose","Action":"No-Go","Sham":0,"Color":"blue","trial_type":"pit-trial","trial_index":156,"time_elapsed":666969,"internal_node_id":"0.0-133.0","task_version":"test-retest"},{"Rune":"rune_02_cen","Hex":"#ffcc3399","Correct":-1,"Choice":32,"RT":2.0000003278255463,"Accuracy":0,"Outcome":"+1","Keys":[150.99999960511923,336.99999982491136,569.9999998323619,799.9999998137355,946.9999996945262,1153.9999996311963,1358.999999705702,1510.9999999403954,2069.999999832362,2290.000000037253,2500.9999996982515],"TotalKeys":11,"Block":2,"Trial":129,"Robot":2,"Valence":"Win","Action":"No-Go","Sham":0,"Color":"yellow","trial_type":"pit-trial","trial_index":157,"time_elapsed":669488,"internal_node_id":"0.0-134.0","task_version":"test-retest"},{"Rune":"rune_02_os","Hex":"#3366ff99","Correct":-1,"Choice":-1,"RT":-1,"Accuracy":1,"Outcome":"-1","Keys":[108.00000000745058,316.0000001080334,550.9999999776483,694.0000001341105,882.9999999143183,1100.0000000931323],"TotalKeys":6,"Block":2,"Trial":130,"Robot":4,"Valence":"Lose","Action":"No-Go","Sham":0,"Color":"blue","trial_type":"pit-trial","trial_index":158,"time_elapsed":673497,"internal_node_id":"0.0-135.0","task_version":"test-retest"},{"Rune":"rune_02_raido","Hex":"#ffcc3399","Correct":32,"Choice":-1,"RT":-1,"Accuracy":0,"Outcome":"+1","Keys":[],"TotalKeys":0,"Block":2,"Trial":131,"Robot":1,"Valence":"Win","Action":"Go","Sham":0,"Color":"yellow","trial_type":"pit-trial","trial_index":159,"time_elapsed":677508,"internal_node_id":"0.0-136.0","task_version":"test-retest"},{"Rune":"rune_02_haglaz","Hex":"#3366ff99","Correct":32,"Choice":32,"RT":26.000000070780516,"Accuracy":1,"Outcome":"-1","Keys":[1239.0000000596046,1527.0000002346933,2161.0000003129244],"TotalKeys":3,"Block":2,"Trial":132,"Robot":3,"Valence":"Lose","Action":"Go","Sham":0,"Color":"blue","trial_type":"pit-trial","trial_index":160,"time_elapsed":680046,"internal_node_id":"0.0-137.0","task_version":"test-retest"},{"Rune":"rune_02_os","Hex":"#3366ff99","Correct":-1,"Choice":32,"RT":109.99999986961484,"Accuracy":0,"Outcome":"-10","Keys":[632.0000002160668,1023.0000000447035,1314.0000002458692,1611.0000000335276,1944.0000001341105,2235.000000335276,2387.000000104308],"TotalKeys":7,"Block":2,"Trial":133,"Robot":4,"Valence":"Lose","Action":"No-Go","Sham":0,"Color":"blue","trial_type":"pit-trial","trial_index":161,"time_elapsed":682665,"internal_node_id":"0.0-138.0","task_version":"test-retest"},{"Rune":"rune_02_cen","Hex":"#ffcc3399","Correct":-1,"Choice":32,"RT":214.0000001527369,"Accuracy":0,"Outcome":"+1","Keys":[57.99999972805381,325.999999884516,496.99999997392297,763.9999999664724,1020.0000000186265,1163.9999998733401,1484.9999998696148,1717.9999998770654,1866.9999996200204,2141.9999999925494,2427.9999998398125,2562.999999616295],"TotalKeys":12,"Block":2,"Trial":134,"Robot":2,"Valence":"Win","Action":"No-Go","Sham":0,"Color":"yellow","trial_type":"pit-trial","trial_index":162,"time_elapsed":685391,"internal_node_id":"0.0-139.0","task_version":"test-retest"},{"Rune":"rune_02_haglaz","Hex":"#3366ff99","Correct":32,"Choice":32,"RT":151.00000007078052,"Accuracy":1,"Outcome":"-10","Keys":[111.00000003352761,360.0000003352761,507.00000021606684,1141.000000294298,1419.0000002272427,1652.0000002346933,1816.0000001080334,2072.0000001601875,2312.000000383705,2472.000000067055],"TotalKeys":10,"Block":2,"Trial":135,"Robot":3,"Valence":"Lose","Action":"Go","Sham":1,"Color":"blue","trial_type":"pit-trial","trial_index":163,"time_elapsed":688051,"internal_node_id":"0.0-140.0","task_version":"test-retest"},{"Rune":"rune_02_raido","Hex":"#ffcc3399","Correct":32,"Choice":32,"RT":10.999999940395355,"Accuracy":1,"Outcome":"+1","Keys":[67.99999997019768,322.0000001601875,459.9999999627471,1047.9999999515712,1325.0000001862645,1512.0000001043081,1666.0000002011657,1944.999999832362,2171.000000089407,2327.000000048429],"TotalKeys":10,"Block":2,"Trial":136,"Robot":1,"Valence":"Win","Action":"Go","Sham":1,"Color":"yellow","trial_type":"pit-trial","trial_index":164,"time_elapsed":690569,"internal_node_id":"0.0-141.0","task_version":"test-retest"},{"Rune":"rune_02_cen","Hex":"#ffcc3399","Correct":-1,"Choice":32,"RT":166.00000020116568,"Accuracy":0,"Outcome":"+1","Keys":[66.9999998062849,296.00000008940697,444.99999983236194,989.0000000596046,1299.9999998137355,1496.999999973923,1668.00000006333,1916.9999998994172,2145.0000000186265,2285.999999847263,2540.9999997355044],"TotalKeys":11,"Block":2,"Trial":137,"Robot":2,"Valence":"Win","Action":"No-Go","Sham":0,"Color":"yellow","trial_type":"pit-trial","trial_index":165,"time_elapsed":693242,"internal_node_id":"0.0-142.0","task_version":"test-retest"},{"Rune":"rune_02_os","Hex":"#3366ff99","Correct":-1,"Choice":32,"RT":274.99999990686774,"Accuracy":0,"Outcome":"-10","Keys":[114.99999975785613,261.99999963864684,865.9999999217689,1774.9999999068677,2044.9999999254942,2212.999999988824],"TotalKeys":6,"Block":2,"Trial":138,"Robot":4,"Valence":"Lose","Action":"No-Go","Sham":0,"Color":"blue","trial_type":"pit-trial","trial_index":166,"time_elapsed":696021,"internal_node_id":"0.0-143.0","task_version":"test-retest"},{"Rune":"rune_02_haglaz","Hex":"#3366ff99","Correct":32,"Choice":32,"RT":586.9999998249114,"Accuracy":1,"Outcome":"-1","Keys":[450.0000001862645,657.9999998211861,827.0000000484288,1086.0000001266599,2086.9999998249114,2336.9999998249114,2492.0000000856817,2692.9999999701977,2956.99999993667,3087.999999988824],"TotalKeys":10,"Block":2,"Trial":139,"Robot":3,"Valence":"Lose","Action":"Go","Sham":0,"Color":"blue","trial_type":"pit-trial","trial_index":167,"time_elapsed":699111,"internal_node_id":"0.0-144.0","task_version":"test-retest"},{"Rune":"rune_02_raido","Hex":"#ffcc3399","Correct":32,"Choice":32,"RT":67.99999997019768,"Accuracy":1,"Outcome":"+10","Keys":[674.9999998137355,1568.9999996684492,1820.9999999962747,2347.9999997653067],"TotalKeys":4,"Block":2,"Trial":140,"Robot":1,"Valence":"Win","Action":"Go","Sham":0,"Color":"yellow","trial_type":"pit-trial","trial_index":168,"time_elapsed":701687,"internal_node_id":"0.0-145.0","task_version":"test-retest"},{"Rune":"rune_02_cen","Hex":"#ffcc3399","Correct":-1,"Choice":32,"RT":430.00000016763806,"Accuracy":0,"Outcome":"+1","Keys":[826.0000003501773,1254.9999998882413,1931.0000003315508,2723.9999999292195],"TotalKeys":4,"Block":2,"Trial":141,"Robot":2,"Valence":"Win","Action":"No-Go","Sham":0,"Color":"yellow","trial_type":"pit-trial","trial_index":169,"time_elapsed":704627,"internal_node_id":"0.0-146.0","task_version":"test-retest"},{"Rune":"rune_02_haglaz","Hex":"#3366ff99","Correct":32,"Choice":32,"RT":788.0000001750886,"Accuracy":1,"Outcome":"-1","Keys":[601.000000257045,1447.0000001601875,2289.0000003390014,3033.999999985099],"TotalKeys":4,"Block":2,"Trial":142,"Robot":3,"Valence":"Lose","Action":"Go","Sham":0,"Color":"blue","trial_type":"pit-trial","trial_index":170,"time_elapsed":707921,"internal_node_id":"0.0-147.0","task_version":"test-retest"},{"Rune":"rune_02_raido","Hex":"#ffcc3399","Correct":32,"Choice":32,"RT":40.99999973550439,"Accuracy":1,"Outcome":"+10","Keys":[25.99999960511923,182.9999997280538,324.9999997206032,609.9999998696148,1540.9999997355044,1804.9999997019768,2114.999999757856,2389.999999664724],"TotalKeys":8,"Block":2,"Trial":143,"Robot":1,"Valence":"Win","Action":"Go","Sham":0,"Color":"yellow","trial_type":"pit-trial","trial_index":171,"time_elapsed":710470,"internal_node_id":"0.0-148.0","task_version":"test-retest"},{"Rune":"rune_02_os","Hex":"#3366ff99","Correct":-1,"Choice":32,"RT":67.00000027194619,"Accuracy":0,"Outcome":"-1","Keys":[733.0000000074506,969.0000000409782,1129.0000001899898,1304.0000000037253,1584.0000002644956,2434.000000357628],"TotalKeys":6,"Block":2,"Trial":144,"Robot":4,"Valence":"Lose","Action":"No-Go","Sham":1,"Color":"blue","trial_type":"pit-trial","trial_index":172,"time_elapsed":713061,"internal_node_id":"0.0-149.0","task_version":"test-retest"},{"Rune":"rune_02_haglaz","Hex":"#3366ff99","Correct":32,"Choice":32,"RT":185.00000005587935,"Accuracy":1,"Outcome":"-1","Keys":[97.00000006705523,395.00000001862645,1430.000000167638,1685.0000000558794,1843.0000003427267,2066.0000001080334,2365.999999921769],"TotalKeys":7,"Block":2,"Trial":145,"Robot":3,"Valence":"Lose","Action":"Go","Sham":0,"Color":"blue","trial_type":"pit-trial","trial_index":173,"time_elapsed":715755,"internal_node_id":"0.0-150.0","task_version":"test-retest"},{"Rune":"rune_02_raido","Hex":"#ffcc3399","Correct":32,"Choice":32,"RT":47.999999951571226,"Accuracy":1,"Outcome":"+10","Keys":[52.99999983981252,162.00000001117587,345.00000020489097,632.0000002160668,1265.0000001303852,1549.000000115484,1851.9999999552965,2103.0000001192093,2395.0000000186265],"TotalKeys":9,"Block":2,"Trial":146,"Robot":1,"Valence":"Win","Action":"Go","Sham":0,"Color":"yellow","trial_type":"pit-trial","trial_index":174,"time_elapsed":718326,"internal_node_id":"0.0-151.0","task_version":"test-retest"},{"Rune":"rune_02_os","Hex":"#3366ff99","Correct":-1,"Choice":32,"RT":2.0000003278255463,"Accuracy":0,"Outcome":"-10","Keys":[634.0000000782311,1020.9999997168779,1506.000000052154,2365.999999921769],"TotalKeys":4,"Block":2,"Trial":147,"Robot":4,"Valence":"Lose","Action":"No-Go","Sham":0,"Color":"blue","trial_type":"pit-trial","trial_index":175,"time_elapsed":720835,"internal_node_id":"0.0-152.0","task_version":"test-retest"},{"Rune":"rune_02_cen","Hex":"#ffcc3399","Correct":-1,"Choice":32,"RT":146.9999998807907,"Accuracy":0,"Outcome":"+10","Keys":[89.0000001527369,242.99999978393316,424.9999998137355,711.9999998249114,1648.0000000447035,2635.9999999403954],"TotalKeys":6,"Block":2,"Trial":148,"Robot":2,"Valence":"Win","Action":"No-Go","Sham":1,"Color":"yellow","trial_type":"pit-trial","trial_index":176,"time_elapsed":723487,"internal_node_id":"0.0-153.0","task_version":"test-retest"},{"Rune":"rune_02_cen","Hex":"#ffcc3399","Correct":-1,"Choice":32,"RT":155.9999999590218,"Accuracy":0,"Outcome":"+1","Keys":[868.9999999478459,1153.000000398606,1655.9999999590218,2566.0000001080334],"TotalKeys":4,"Block":2,"Trial":149,"Robot":2,"Valence":"Win","Action":"No-Go","Sham":0,"Color":"yellow","trial_type":"pit-trial","trial_index":177,"time_elapsed":726147,"internal_node_id":"0.0-154.0","task_version":"test-retest"},{"Rune":"rune_02_haglaz","Hex":"#3366ff99","Correct":32,"Choice":32,"RT":200.999999884516,"Accuracy":1,"Outcome":"-10","Keys":[862.9999998956919,1700.999999884516,2563.0000000819564],"TotalKeys":3,"Block":2,"Trial":150,"Robot":3,"Valence":"Lose","Action":"Go","Sham":1,"Color":"blue","trial_type":"pit-trial","trial_index":178,"time_elapsed":728854,"internal_node_id":"0.0-155.0","task_version":"test-retest"},{"Rune":"rune_02_raido","Hex":"#ffcc3399","Correct":32,"Choice":32,"RT":212.00000029057264,"Accuracy":1,"Outcome":"+10","Keys":[666.9999998994172,1714.000000152737,2558.9999998919666],"TotalKeys":3,"Block":2,"Trial":151,"Robot":1,"Valence":"Win","Action":"Go","Sham":0,"Color":"yellow","trial_type":"pit-trial","trial_index":179,"time_elapsed":731575,"internal_node_id":"0.0-156.0","task_version":"test-retest"},{"Rune":"rune_02_os","Hex":"#3366ff99","Correct":-1,"Choice":32,"RT":197.99999985843897,"Accuracy":0,"Outcome":"-10","Keys":[222.00000006705523,635.9999999403954,1422.9999999515712,1700.999999884516,1956.0000002384186,2205.000000074506],"TotalKeys":6,"Block":2,"Trial":152,"Robot":4,"Valence":"Lose","Action":"No-Go","Sham":0,"Color":"blue","trial_type":"pit-trial","trial_index":180,"time_elapsed":734281,"internal_node_id":"0.0-157.0","task_version":"test-retest"},{"Rune":"rune_02_cen","Hex":"#ffcc3399","Correct":-1,"Choice":32,"RT":408.00000028684735,"Accuracy":0,"Outcome":"+1","Keys":[330.0000000745058,751.9999998621643,1160.0000001490116,1910.0000001490116,2172.0000002533197,2432.0000000298023,2708.000000100583,2820.9999999962747],"TotalKeys":8,"Block":2,"Trial":153,"Robot":2,"Valence":"Win","Action":"No-Go","Sham":0,"Color":"yellow","trial_type":"pit-trial","trial_index":181,"time_elapsed":737197,"internal_node_id":"0.0-158.0","task_version":"test-retest"},{"Rune":"rune_02_raido","Hex":"#ffcc3399","Correct":32,"Choice":32,"RT":645.0000000186265,"Accuracy":1,"Outcome":"+1","Keys":[169.0000002272427,584.0000002644956,987.9999998956919,1391.9999999925494,2145.0000000186265,2387.000000104308,2628.000000026077,2882.000000216067],"TotalKeys":8,"Block":2,"Trial":154,"Robot":1,"Valence":"Win","Action":"Go","Sham":1,"Color":"yellow","trial_type":"pit-trial","trial_index":182,"time_elapsed":740348,"internal_node_id":"0.0-159.0","task_version":"test-retest"},{"Rune":"rune_02_haglaz","Hex":"#3366ff99","Correct":32,"Choice":32,"RT":702.9999997466803,"Accuracy":1,"Outcome":"-1","Keys":[583.0000001005828,995.0000001117587,1429.0000000037253,2202.9999997466803,2464.9999998509884,2751.9999998621643,3023.999999742955,3185.999999754131],"TotalKeys":8,"Block":2,"Trial":155,"Robot":3,"Valence":"Lose","Action":"Go","Sham":0,"Color":"blue","trial_type":"pit-trial","trial_index":183,"time_elapsed":743562,"internal_node_id":"0.0-160.0","task_version":"test-retest"},{"Rune":"rune_02_os","Hex":"#3366ff99","Correct":-1,"Choice":32,"RT":347.9999997653067,"Accuracy":0,"Outcome":"-10","Keys":[646.0000001825392,1089.9999998509884,1462.9999999888241,1848.9999999292195,2354.9999999813735,2629.00000018999],"TotalKeys":6,"Block":2,"Trial":156,"Robot":4,"Valence":"Lose","Action":"No-Go","Sham":0,"Color":"blue","trial_type":"pit-trial","trial_index":184,"time_elapsed":746414,"internal_node_id":"0.0-161.0","task_version":"test-retest"},{"Rune":"rune_02_haglaz","Hex":"#3366ff99","Correct":32,"Choice":32,"RT":149.99999990686774,"Accuracy":1,"Outcome":"-1","Keys":[7.000000216066837,294.0000002272427,1178.0000003054738,1657.0000001229346,2081.0000002384186],"TotalKeys":5,"Block":2,"Trial":157,"Robot":3,"Valence":"Lose","Action":"Go","Sham":0,"Color":"blue","trial_type":"pit-trial","trial_index":185,"time_elapsed":749078,"internal_node_id":"0.0-162.0","task_version":"test-retest"},{"Rune":"rune_02_os","Hex":"#3366ff99","Correct":-1,"Choice":32,"RT":503.00000002607703,"Accuracy":0,"Outcome":"-10","Keys":[166.99999989941716,441.9999998062849,706.9999999366701,926.9999996758997,2003.000000026077,2900.9999996051192],"TotalKeys":6,"Block":2,"Trial":158,"Robot":4,"Valence":"Lose","Action":"No-Go","Sham":0,"Color":"blue","trial_type":"pit-trial","trial_index":186,"time_elapsed":752087,"internal_node_id":"0.0-163.0","task_version":"test-retest"},{"Rune":"rune_02_cen","Hex":"#ffcc3399","Correct":-1,"Choice":32,"RT":174.000000115484,"Accuracy":0,"Outcome":"+1","Keys":[197.00000016018748,518.0000001564622,807.0000000298023,987.0000001974404,1334.999999962747,1675.9999999776483,1873.9999998360872,2070.9999999962747,2398.0000000447035,2476.9999999552965,2578.999999910593],"TotalKeys":11,"Block":2,"Trial":159,"Robot":2,"Valence":"Win","Action":"No-Go","Sham":0,"Color":"yellow","trial_type":"pit-trial","trial_index":187,"time_elapsed":754771,"internal_node_id":"0.0-164.0","task_version":"test-retest"},{"Rune":"rune_02_raido","Hex":"#ffcc3399","Correct":32,"Choice":32,"RT":345.00000020489097,"Accuracy":1,"Outcome":"+10","Keys":[777.9999999329448,1322.0000001601875,1845.000000204891],"TotalKeys":3,"Block":2,"Trial":160,"Robot":1,"Valence":"Win","Action":"Go","Sham":0,"Color":"yellow","trial_type":"pit-trial","trial_index":188,"time_elapsed":757622,"internal_node_id":"0.0-165.0","task_version":"test-retest"},{"Rune":"rune_02_cen","Hex":"#ffcc3399","Correct":-1,"Choice":32,"RT":689.9999999441206,"Accuracy":0,"Outcome":"+1","Keys":[129.9999998882413,423.9999996498227,570.9999999962747,750.9999996982515,1118.999999947846,2194.999999832362,2694.999999832362,3186.9999999180436],"TotalKeys":8,"Block":2,"Trial":161,"Robot":2,"Valence":"Win","Action":"No-Go","Sham":0,"Color":"yellow","trial_type":"pit-trial","trial_index":189,"time_elapsed":760827,"internal_node_id":"0.0-166.0","task_version":"test-retest"},{"Rune":"rune_02_os","Hex":"#3366ff99","Correct":-1,"Choice":32,"RT":77.99999974668026,"Accuracy":0,"Outcome":"-10","Keys":[1091.0000000149012,1401.0000000707805,1578.999999910593,1800.9999999776483,2158.0000002868474],"TotalKeys":5,"Block":2,"Trial":162,"Robot":4,"Valence":"Lose","Action":"No-Go","Sham":0,"Color":"blue","trial_type":"pit-trial","trial_index":190,"time_elapsed":763415,"internal_node_id":"0.0-167.0","task_version":"test-retest"},{"Rune":"rune_02_raido","Hex":"#ffcc3399","Correct":32,"Choice":32,"RT":194.99999983236194,"Accuracy":1,"Outcome":"+10","Keys":[666.0000002011657,1216.0000000149012,1714.000000152737,2036.0000003129244,2357.000000309199],"TotalKeys":5,"Block":2,"Trial":163,"Robot":1,"Valence":"Win","Action":"Go","Sham":0,"Color":"yellow","trial_type":"pit-trial","trial_index":191,"time_elapsed":766138,"internal_node_id":"0.0-168.0","task_version":"test-retest"},{"Rune":"rune_02_haglaz","Hex":"#3366ff99","Correct":32,"Choice":32,"RT":649.9999999068677,"Accuracy":1,"Outcome":"-10","Keys":[206.99999993667006,463.9999996870756,608.0000000074506,783.9999999850988,1087.9999999888241,2149.9999999068677,2671.000000089407],"TotalKeys":7,"Block":2,"Trial":164,"Robot":3,"Valence":"Lose","Action":"Go","Sham":1,"Color":"blue","trial_type":"pit-trial","trial_index":192,"time_elapsed":769307,"internal_node_id":"0.0-169.0","task_version":"test-retest"},{"Rune":"rune_02_os","Hex":"#3366ff99","Correct":-1,"Choice":32,"RT":166.99999989941716,"Accuracy":0,"Outcome":"-1","Keys":[15.999999828636646,995.9999998100102,1321.9999996945262,1486.0000000335276,1666.9999998994172,1981.9999998435378],"TotalKeys":6,"Block":2,"Trial":165,"Robot":4,"Valence":"Lose","Action":"No-Go","Sham":1,"Color":"blue","trial_type":"pit-trial","trial_index":193,"time_elapsed":771982,"internal_node_id":"0.0-170.0","task_version":"test-retest"},{"Rune":"rune_02_raido","Hex":"#ffcc3399","Correct":32,"Choice":32,"RT":86.99999982491136,"Accuracy":1,"Outcome":"+1","Keys":[682.0000000298023,1114.0000000596046,1586.9999998249114,2577.000000048429],"TotalKeys":4,"Block":2,"Trial":166,"Robot":1,"Valence":"Win","Action":"Go","Sham":1,"Color":"yellow","trial_type":"pit-trial","trial_index":194,"time_elapsed":774581,"internal_node_id":"0.0-171.0","task_version":"test-retest"},{"Rune":"rune_02_haglaz","Hex":"#3366ff99","Correct":32,"Choice":32,"RT":423.9999996498227,"Accuracy":1,"Outcome":"-1","Keys":[311.9999999180436,675.9999999776483,1009.9999997764826,1923.9999996498227,2386.999999638647,2916.999999899417],"TotalKeys":6,"Block":2,"Trial":167,"Robot":3,"Valence":"Lose","Action":"Go","Sham":0,"Color":"blue","trial_type":"pit-trial","trial_index":195,"time_elapsed":777522,"internal_node_id":"0.0-172.0","task_version":"test-retest"},{"Rune":"rune_02_cen","Hex":"#ffcc3399","Correct":-1,"Choice":32,"RT":107.0000003091991,"Accuracy":0,"Outcome":"+1","Keys":[1009.0000000782311,1276.0000000707805,1436.9999999180436,1607.000000309199,1907.0000001229346],"TotalKeys":5,"Block":2,"Trial":168,"Robot":2,"Valence":"Win","Action":"No-Go","Sham":0,"Color":"yellow","trial_type":"pit-trial","trial_index":196,"time_elapsed":780140,"internal_node_id":"0.0-173.0","task_version":"test-retest"},{"Rune":"rune_02_cen","Hex":"#ffcc3399","Correct":-1,"Choice":32,"RT":546.000000089407,"Accuracy":0,"Outcome":"+1","Keys":[175.99999997764826,645.0000000186265,1083.0000001005828,2047.0000002533197,2337.0000002905726,2481.0000001452863,2668.00000006333,3012.000000104308],"TotalKeys":8,"Block":2,"Trial":169,"Robot":2,"Valence":"Win","Action":"No-Go","Sham":0,"Color":"yellow","trial_type":"pit-trial","trial_index":197,"time_elapsed":783200,"internal_node_id":"0.0-174.0","task_version":"test-retest"},{"Rune":"rune_02_haglaz","Hex":"#3366ff99","Correct":32,"Choice":32,"RT":413.00000017508864,"Accuracy":1,"Outcome":"-1","Keys":[1018.9999998547137,1432.0000000298023,1913.9999998733401],"TotalKeys":3,"Block":2,"Trial":170,"Robot":3,"Valence":"Lose","Action":"Go","Sham":0,"Color":"blue","trial_type":"pit-trial","trial_index":198,"time_elapsed":786123,"internal_node_id":"0.0-175.0","task_version":"test-retest"},{"Rune":"rune_02_os","Hex":"#3366ff99","Correct":-1,"Choice":32,"RT":1395.0000000186265,"Accuracy":0,"Outcome":"-10","Keys":[2907.0000001229346,3212.999999988824,3391.9999999925494],"TotalKeys":3,"Block":2,"Trial":171,"Robot":4,"Valence":"Lose","Action":"No-Go","Sham":0,"Color":"blue","trial_type":"pit-trial","trial_index":199,"time_elapsed":790037,"internal_node_id":"0.0-176.0","task_version":"test-retest"},{"Rune":"rune_02_raido","Hex":"#ffcc3399","Correct":32,"Choice":32,"RT":688.9999997802079,"Accuracy":1,"Outcome":"+10","Keys":[1217.000000178814,2189.9999999441206,2598.9999999292195,3054.0000000037253],"TotalKeys":4,"Block":2,"Trial":172,"Robot":1,"Valence":"Win","Action":"Go","Sham":0,"Color":"yellow","trial_type":"pit-trial","trial_index":200,"time_elapsed":793232,"internal_node_id":"0.0-177.0","task_version":"test-retest"},{"Rune":"rune_02_raido","Hex":"#ffcc3399","Correct":32,"Choice":32,"RT":280.9999999590218,"Accuracy":1,"Outcome":"+10","Keys":[131.99999975040555,291.99999989941716,497.99999967217445,830.0000000745058,1780.9999999590218,2617.999999783933],"TotalKeys":6,"Block":2,"Trial":173,"Robot":1,"Valence":"Win","Action":"Go","Sham":0,"Color":"yellow","trial_type":"pit-trial","trial_index":201,"time_elapsed":796018,"internal_node_id":"0.0-178.0","task_version":"test-retest"},{"Rune":"rune_02_os","Hex":"#3366ff99","Correct":-1,"Choice":32,"RT":538.9999998733401,"Accuracy":0,"Outcome":"-10","Keys":[436.9999999180436,665.0000000372529,864.9999997578561,1288.9999998733401,2037.9999997094274,2864.999999757856],"TotalKeys":6,"Block":2,"Trial":174,"Robot":4,"Valence":"Lose","Action":"No-Go","Sham":0,"Color":"blue","trial_type":"pit-trial","trial_index":202,"time_elapsed":799063,"internal_node_id":"0.0-179.0","task_version":"test-retest"},{"Rune":"rune_02_cen","Hex":"#ffcc3399","Correct":-1,"Choice":32,"RT":199.00000002235174,"Accuracy":0,"Outcome":"+1","Keys":[347.9999997653067,768.9999998547137,1699.0000000223517,2065.999999642372,2226.9999999552965,2435.999999754131],"TotalKeys":6,"Block":2,"Trial":175,"Robot":2,"Valence":"Win","Action":"No-Go","Sham":0,"Color":"yellow","trial_type":"pit-trial","trial_index":203,"time_elapsed":801770,"internal_node_id":"0.0-180.0","task_version":"test-retest"},{"Rune":"rune_02_haglaz","Hex":"#3366ff99","Correct":32,"Choice":32,"RT":83.00000010058284,"Accuracy":1,"Outcome":"-1","Keys":[604.9999999813735,1583.0000001005828],"TotalKeys":2,"Block":2,"Trial":176,"Robot":3,"Valence":"Lose","Action":"Go","Sham":0,"Color":"blue","trial_type":"pit-trial","trial_index":204,"time_elapsed":804357,"internal_node_id":"0.0-181.0","task_version":"test-retest"},{"Rune":"rune_02_cen","Hex":"#ffcc3399","Correct":-1,"Choice":32,"RT":49.999999813735485,"Accuracy":0,"Outcome":"+10","Keys":[328.00000021234155,750,1043.00000006333,1277.9999999329448,1549.9999998137355,1836.9999998249114,2240.0000002235174,2370.0000001117587],"TotalKeys":8,"Block":2,"Trial":177,"Robot":2,"Valence":"Win","Action":"No-Go","Sham":1,"Color":"yellow","trial_type":"pit-trial","trial_index":205,"time_elapsed":806914,"internal_node_id":"0.0-182.0","task_version":"test-retest"},{"Rune":"rune_02_haglaz","Hex":"#3366ff99","Correct":32,"Choice":32,"RT":708.9999997988343,"Accuracy":1,"Outcome":"-1","Keys":[30.999999959021807,524.9999999068677,675.9999999776483,839.9999998509884,1131.000000052154,1413.0000001750886,2209.999999962747,2881.9999997504056,3171.9999997876585],"TotalKeys":9,"Block":2,"Trial":178,"Robot":3,"Valence":"Lose","Action":"Go","Sham":0,"Color":"blue","trial_type":"pit-trial","trial_index":206,"time_elapsed":810135,"internal_node_id":"0.0-183.0","task_version":"test-retest"},{"Rune":"rune_02_raido","Hex":"#ffcc3399","Correct":32,"Choice":32,"RT":4.999999888241291,"Accuracy":1,"Outcome":"+10","Keys":[135.00000024214387,331.0000002384186,513.9999999664724,740.0000002235174,1066.0000001080334,1322.0000001601875,1506.000000052154,1672.9999999515712,1939.0000002458692,2239.0000000596046,2496.999999973923],"TotalKeys":11,"Block":2,"Trial":179,"Robot":1,"Valence":"Win","Action":"Go","Sham":0,"Color":"yellow","trial_type":"pit-trial","trial_index":207,"time_elapsed":812647,"internal_node_id":"0.0-184.0","task_version":"test-retest"},{"Rune":"rune_02_os","Hex":"#3366ff99","Correct":-1,"Choice":32,"RT":10.999999940395355,"Accuracy":0,"Outcome":"-10","Keys":[243.99999994784594,969.0000000409782,1182.0000000298023,1362.9999998956919,1511.9999996386468,1761.9999996386468],"TotalKeys":6,"Block":2,"Trial":180,"Robot":4,"Valence":"Lose","Action":"No-Go","Sham":0,"Color":"blue","trial_type":"pit-trial","trial_index":208,"time_elapsed":815163,"internal_node_id":"0.0-185.0","task_version":"test-retest"},{"view_history":"[{\"page_index\":0,\"viewing_time\":4575.999999884516},{\"page_index\":1,\"viewing_time\":1175.0000002793968}]","rt":5751.999999862164,"trial_type":"pit-instructions","trial_index":209,"time_elapsed":820918,"internal_node_id":"0.0-186.0","task_version":"test-retest"},{"Rune":"rune_02_os","Hex":"#3366ff99","Correct":-1,"Choice":32,"RT":308.0000001937151,"Accuracy":0,"Outcome":"-10","Keys":[992.9999997839332,1808.9999998919666,2430.9999998658895,2666.999999899417],"TotalKeys":4,"Block":2,"Trial":181,"Robot":4,"Valence":"Lose","Action":"No-Go","Sham":0,"Color":"blue","trial_type":"pit-trial","trial_index":210,"time_elapsed":823737,"internal_node_id":"0.0-187.0","task_version":"test-retest"},{"Rune":"rune_02_cen","Hex":"#ffcc3399","Correct":-1,"Choice":32,"RT":226.00000025704503,"Accuracy":0,"Outcome":"+10","Keys":[56.00000033155084,1158.9999999850988,1485.0000003352761,1726.000000257045,2217.000000178814,2464.000000152737],"TotalKeys":6,"Block":2,"Trial":182,"Robot":2,"Valence":"Win","Action":"No-Go","Sham":1,"Color":"yellow","trial_type":"pit-trial","trial_index":211,"time_elapsed":826468,"internal_node_id":"0.0-188.0","task_version":"test-retest"},{"Rune":"rune_02_raido","Hex":"#ffcc3399","Correct":32,"Choice":32,"RT":631.9999997504056,"Accuracy":1,"Outcome":"+10","Keys":[217.00000017881393,665.0000000372529,1146.0000001825392,1412.0000000111759,2138.9999999664724,2490.0000002235174,2856.999999843538],"TotalKeys":7,"Block":2,"Trial":183,"Robot":1,"Valence":"Win","Action":"Go","Sham":0,"Color":"yellow","trial_type":"pit-trial","trial_index":212,"time_elapsed":829615,"internal_node_id":"0.0-189.0","task_version":"test-retest"},{"Rune":"rune_02_haglaz","Hex":"#3366ff99","Correct":32,"Choice":32,"RT":192.0000002719462,"Accuracy":1,"Outcome":"-1","Keys":[30.999999959021807,1005.0000003539026,1344.0000000409782,1692.0000002719462,1969.0000000409782],"TotalKeys":5,"Block":2,"Trial":184,"Robot":3,"Valence":"Lose","Action":"Go","Sham":0,"Color":"blue","trial_type":"pit-trial","trial_index":213,"time_elapsed":832314,"internal_node_id":"0.0-190.0","task_version":"test-retest"},{"Rune":"rune_02_os","Hex":"#3366ff99","Correct":-1,"Choice":32,"RT":341.99999971315265,"Accuracy":0,"Outcome":"-10","Keys":[145.00000001862645,507.9999999143183,805.9999998658895,1163.0000001750886,1842.9999998770654,2311.000000219792],"TotalKeys":6,"Block":2,"Trial":185,"Robot":4,"Valence":"Lose","Action":"No-Go","Sham":0,"Color":"blue","trial_type":"pit-trial","trial_index":214,"time_elapsed":835166,"internal_node_id":"0.0-191.0","task_version":"test-retest"},{"Rune":"rune_02_raido","Hex":"#ffcc3399","Correct":32,"Choice":32,"RT":341.00000001490116,"Accuracy":1,"Outcome":"+10","Keys":[1073.0000003241003,1490.999999921769,1845.000000204891,2162.000000011176,2481.0000001452863,2814.9999999441206],"TotalKeys":6,"Block":2,"Trial":186,"Robot":1,"Valence":"Win","Action":"Go","Sham":0,"Color":"yellow","trial_type":"pit-trial","trial_index":215,"time_elapsed":838026,"internal_node_id":"0.0-192.0","task_version":"test-retest"},{"Rune":"rune_02_haglaz","Hex":"#3366ff99","Correct":32,"Choice":32,"RT":250.9999996982515,"Accuracy":1,"Outcome":"-10","Keys":[240.00000022351742,493.99999994784594,774.0000002086163,1024.9999999068677,1262.0000001043081,1518.0000001564622,1768.9999998547137,2470.9999999031425,2697.999999858439],"TotalKeys":9,"Block":2,"Trial":187,"Robot":3,"Valence":"Lose","Action":"Go","Sham":1,"Color":"blue","trial_type":"pit-trial","trial_index":216,"time_elapsed":840806,"internal_node_id":"0.0-193.0","task_version":"test-retest"},{"Rune":"rune_02_cen","Hex":"#ffcc3399","Correct":-1,"Choice":32,"RT":513.9999999664724,"Accuracy":0,"Outcome":"+1","Keys":[157.99999982118607,353.9999998174608,600.9999997913837,901.999999769032,1174.9999998137355,2013.9999999664724,2265.9999998286366,2487.999999895692,2726.9999999552965],"TotalKeys":9,"Block":2,"Trial":188,"Robot":2,"Valence":"Win","Action":"No-Go","Sham":0,"Color":"yellow","trial_type":"pit-trial","trial_index":217,"time_elapsed":843822,"internal_node_id":"0.0-194.0","task_version":"test-retest"},{"Rune":"rune_02_cen","Hex":"#ffcc3399","Correct":-1,"Choice":32,"RT":268.9999998547137,"Accuracy":0,"Outcome":"+1","Keys":[518.0000001564622,1157.999999821186,1770.0000000186265,2020.0000000186265,2237.0000001974404,2342.000000178814,2455.000000074506],"TotalKeys":7,"Block":2,"Trial":189,"Robot":2,"Valence":"Win","Action":"No-Go","Sham":0,"Color":"yellow","trial_type":"pit-trial","trial_index":218,"time_elapsed":846598,"internal_node_id":"0.0-195.0","task_version":"test-retest"},{"Rune":"rune_02_raido","Hex":"#ffcc3399","Correct":32,"Choice":32,"RT":425.99999997764826,"Accuracy":1,"Outcome":"+1","Keys":[166.00000020116568,243.99999994784594,1095.000000204891,1927.000000141561,2803.000000305474],"TotalKeys":5,"Block":2,"Trial":190,"Robot":1,"Valence":"Win","Action":"Go","Sham":1,"Color":"yellow","trial_type":"pit-trial","trial_index":219,"time_elapsed":849531,"internal_node_id":"0.0-196.0","task_version":"test-retest"},{"Rune":"rune_02_haglaz","Hex":"#3366ff99","Correct":32,"Choice":32,"RT":815.9999996423721,"Accuracy":1,"Outcome":"-1","Keys":[666.9999998994172,1487.9999998956919,2315.999999642372],"TotalKeys":3,"Block":2,"Trial":191,"Robot":3,"Valence":"Lose","Action":"Go","Sham":0,"Color":"blue","trial_type":"pit-trial","trial_index":220,"time_elapsed":852849,"internal_node_id":"0.0-197.0","task_version":"test-retest"},{"Rune":"rune_02_os","Hex":"#3366ff99","Correct":-1,"Choice":32,"RT":293.9999997615814,"Accuracy":0,"Outcome":"-10","Keys":[54.00000000372529,467.00000017881393,810.0000000558794,1174.000000115484,1461.9999998249114,1796.9999997876585,2086.9999998249114,2422.999999951571,2702.9999997466803],"TotalKeys":9,"Block":2,"Trial":192,"Robot":4,"Valence":"Lose","Action":"No-Go","Sham":0,"Color":"blue","trial_type":"pit-trial","trial_index":221,"time_elapsed":855649,"internal_node_id":"0.0-198.0","task_version":"test-retest"},{"Rune":"rune_02_os","Hex":"#3366ff99","Correct":-1,"Choice":32,"RT":132.00000021606684,"Accuracy":0,"Outcome":"-10","Keys":[215.00000031664968,1056.0000003315508,1366.0000003874302,1633.0000003799796,1900.000000372529,2155.999999959022,2418.00000006333],"TotalKeys":7,"Block":2,"Trial":193,"Robot":4,"Valence":"Lose","Action":"No-Go","Sham":0,"Color":"blue","trial_type":"pit-trial","trial_index":222,"time_elapsed":858287,"internal_node_id":"0.0-199.0","task_version":"test-retest"},{"Rune":"rune_02_haglaz","Hex":"#3366ff99","Correct":32,"Choice":32,"RT":1189.9999999441206,"Accuracy":1,"Outcome":"-1","Keys":[69.00000013411045,891.9999999925494,1479.000000283122,2695.9999999962747,3295.0000003911555],"TotalKeys":5,"Block":2,"Trial":194,"Robot":3,"Valence":"Lose","Action":"Go","Sham":0,"Color":"blue","trial_type":"pit-trial","trial_index":223,"time_elapsed":861991,"internal_node_id":"0.0-200.0","task_version":"test-retest"},{"Rune":"rune_02_cen","Hex":"#ffcc3399","Correct":-1,"Choice":32,"RT":705.9999997727573,"Accuracy":0,"Outcome":"+1","Keys":[360.0000003352761,1157.0000001229346,2206.99999993667,3033.0000002868474],"TotalKeys":4,"Block":2,"Trial":195,"Robot":2,"Valence":"Win","Action":"No-Go","Sham":0,"Color":"yellow","trial_type":"pit-trial","trial_index":224,"time_elapsed":865204,"internal_node_id":"0.0-201.0","task_version":"test-retest"},{"Rune":"rune_02_raido","Hex":"#ffcc3399","Correct":32,"Choice":32,"RT":490.9999999217689,"Accuracy":1,"Outcome":"+10","Keys":[541.9999998994172,1233.0000000074506,1991.9999996200204,2082.9999996349216,2712.999999988824],"TotalKeys":5,"Block":2,"Trial":196,"Robot":1,"Valence":"Win","Action":"Go","Sham":0,"Color":"yellow","trial_type":"pit-trial","trial_index":225,"time_elapsed":868201,"internal_node_id":"0.0-202.0","task_version":"test-retest"},{"Rune":"rune_02_os","Hex":"#3366ff99","Correct":-1,"Choice":32,"RT":496.0000002756715,"Accuracy":0,"Outcome":"-1","Keys":[290.9999997355044,890.9999998286366,1443.9999996684492,2000,2535.999999847263],"TotalKeys":5,"Block":2,"Trial":197,"Robot":4,"Valence":"Lose","Action":"No-Go","Sham":1,"Color":"blue","trial_type":"pit-trial","trial_index":226,"time_elapsed":871205,"internal_node_id":"0.0-203.0","task_version":"test-retest"},{"Rune":"rune_02_haglaz","Hex":"#3366ff99","Correct":32,"Choice":32,"RT":148.99999974295497,"Accuracy":1,"Outcome":"-1","Keys":[98.99999992921948,654.999999795109,1118.999999947846,1649.9999999068677,2094.9999997392297],"TotalKeys":5,"Block":2,"Trial":198,"Robot":3,"Valence":"Lose","Action":"Go","Sham":0,"Color":"blue","trial_type":"pit-trial","trial_index":227,"time_elapsed":873863,"internal_node_id":"0.0-204.0","task_version":"test-retest"},{"Rune":"rune_02_raido","Hex":"#ffcc3399","Correct":32,"Choice":32,"RT":100.00000009313226,"Accuracy":1,"Outcome":"+10","Keys":[36.000000312924385,547.0000002533197,1110.0000003352761,1601.000000257045,2032.0000001229346,2496.0000002756715],"TotalKeys":6,"Block":2,"Trial":199,"Robot":1,"Valence":"Win","Action":"Go","Sham":0,"Color":"yellow","trial_type":"pit-trial","trial_index":228,"time_elapsed":876473,"internal_node_id":"0.0-205.0","task_version":"test-retest"},{"Rune":"rune_02_cen","Hex":"#ffcc3399","Correct":-1,"Choice":32,"RT":300.99999997764826,"Accuracy":0,"Outcome":"+1","Keys":[345.99999990314245,702.0000000484288,1070.9999999962747,1479.9999999813735,1802.000000141561,2126.9999998621643,2475.0000000931323,2796.99