[{"slider_type":"valence","raw_loc":590.5,"loc":0.681,"trial_type":"affective-slider","trial_index":0,"time_elapsed":52227,"internal_node_id":"0.0-0.0","task_version":"test-retest-t4"},{"responses":{"Q09":"3","Q12":"2","Q11":"3","Q01":"0","Q13":"3","Q05":"3","Q02":"2","Q07":"0","Q15":"0","Q04":"0","Q14":"2","Q06":"0","Q03":"0","Q08":"0","Q10":"3"},"rt":549198,"survey":"7up7down","trial_type":"survey-template","trial_index":1,"time_elapsed":601437,"internal_node_id":"0.0-1.0","task_version":"test-retest-t4"},{"responses":{"Q05":"0","Q08":"0","Q07":"1","Q04":"0","Q03":"2","Q02":"2","Q01":"2","Q06":"0"},"rt":23631,"survey":"gad7","trial_type":"survey-template","trial_index":2,"time_elapsed":625077,"internal_node_id":"0.0-2.0","task_version":"test-retest-t4"},{"responses":{"Q08":"1","Q05":"1","Q09":"0","Q12":"0","Q04":"3","Q10":"0","Q01":"3","Q03":"3","Q07":"2","Q13":"0","Q11":"1","Q02":"3","Q06":"1"},"rt":33110,"survey":"bisbas","trial_type":"survey-template","trial_index":3,"time_elapsed":658195,"internal_node_id":"0.0-3.0","task_version":"test-retest-t4"},{"view_history":"[{\"page_index\":0,\"viewing_time\":3367},{\"page_index\":1,\"viewing_time\":799},{\"page_index\":2,\"viewing_time\":1028},{\"page_index\":3,\"viewing_time\":2730},{\"page_index\":4,\"viewing_time\":2192},{\"page_index\":5,\"viewing_time\":1519}]","rt":11636,"trial_type":"pit-instructions","trial_index":4,"time_elapsed":669842,"internal_node_id":"0.0-4.0-0.0","task_version":"test-retest-t4"},{"Rune":"rune_00_ingz","Hex":"#FFFFF080","Correct":32,"Choice":32,"RT":329,"Accuracy":1,"Outcome":"+10","Keys":[1158,1830],"TotalKeys":2,"Block":0,"Action":"Go","trial_type":"pit-trial","trial_index":5,"time_elapsed":672676,"internal_node_id":"0.0-4.0-1.0-0.0","task_version":"test-retest-t4"},{"Rune":"rune_00_ingz","Hex":"#FFFFF080","Correct":32,"Choice":32,"RT":191,"Accuracy":1,"Outcome":"+10","Keys":[1692],"TotalKeys":1,"Block":0,"Action":"Go","trial_type":"pit-trial","trial_index":6,"time_elapsed":675372,"internal_node_id":"0.0-4.0-1.0-0.1","task_version":"test-retest-t4"},{"Rune":"rune_00_ingz","Hex":"#FFFFF080","Correct":32,"Choice":32,"RT":196,"Accuracy":1,"Outcome":"+10","Keys":[1696],"TotalKeys":1,"Block":0,"Action":"Go","trial_type":"pit-trial","trial_index":7,"time_elapsed":678076,"internal_node_id":"0.0-4.0-1.0-0.2","task_version":"test-retest-t4"},{"Rune":"rune_00_ingz","Hex":"#FFFFF080","Correct":32,"Choice":32,"RT":192,"Accuracy":1,"Outcome":"+10","Keys":[1692],"TotalKeys":1,"Block":0,"Action":"Go","trial_type":"pit-trial","trial_index":8,"time_elapsed":680776,"internal_node_id":"0.0-4.0-1.0-0.3","task_version":"test-retest-t4"},{"view_history":"[{\"page_index\":0,\"viewing_time\":1964}]","rt":1964,"trial_type":"pit-instructions","trial_index":9,"time_elapsed":682745,"internal_node_id":"0.0-4.0-2.0","task_version":"test-retest-t4"},{"Rune":"rune_00_isaz","Hex":"#FFFFF080","Correct":-1,"Choice":-1,"RT":-1,"Accuracy":1,"Outcome":"+10","Keys":[],"TotalKeys":0,"Block":0,"Action":"No-Go","trial_type":"pit-trial","trial_index":10,"time_elapsed":686747,"internal_node_id":"0.0-4.0-3.0-0.0","task_version":"test-retest-t4"},{"Rune":"rune_00_isaz","Hex":"#FFFFF080","Correct":-1,"Choice":-1,"RT":-1,"Accuracy":1,"Outcome":"+10","Keys":[],"TotalKeys":0,"Block":0,"Action":"No-Go","trial_type":"pit-trial","trial_index":11,"time_elapsed":690751,"internal_node_id":"0.0-4.0-3.0-0.1","task_version":"test-retest-t4"},{"Rune":"rune_00_isaz","Hex":"#FFFFF080","Correct":-1,"Choice":-1,"RT":-1,"Accuracy":1,"Outcome":"+10","Keys":[],"TotalKeys":0,"Block":0,"Action":"No-Go","trial_type":"pit-trial","trial_index":12,"time_elapsed":694755,"internal_node_id":"0.0-4.0-3.0-0.2","task_version":"test-retest-t4"},{"Rune":"rune_00_isaz","Hex":"#FFFFF080","Correct":-1,"Choice":-1,"RT":-1,"Accuracy":1,"Outcome":"+10","Keys":[],"TotalKeys":0,"Block":0,"Action":"No-Go","trial_type":"pit-trial","trial_index":13,"time_elapsed":698761,"internal_node_id":"0.0-4.0-3.0-0.3","task_version":"test-retest-t4"},{"view_history":"[{\"page_index\":0,\"viewing_time\":2783},{\"page_index\":1,\"viewing_time\":63945},{\"page_index\":2,\"viewing_time\":2340},{\"page_index\":3,\"viewing_time\":1583},{\"page_index\":4,\"viewing_time\":1059},{\"page_index\":5,\"viewing_time\":1802},{\"page_index\":6,\"viewing_time\":884},{\"page_index\":7,\"viewing_time\":747}]","rt":75143,"trial_type":"pit-instructions","trial_index":14,"time_elapsed":773906,"internal_node_id":"0.0-4.0-4.0","task_version":"test-retest-t4"},{"responses":["Do nothing","+10","-1","True","Yes"],"num_errors":0,"rt":12917,"trial_type":"pit-comprehension","trial_index":15,"time_elapsed":786829,"internal_node_id":"0.0-4.0-5.0","task_version":"test-retest-t4"},{"trial_type":"call-function","trial_index":16,"time_elapsed":786835,"internal_node_id":"0.0-5.0","task_version":"test-retest-t4"},{"view_history":"[{\"page_index\":0,\"viewing_time\":1212},{\"page_index\":1,\"viewing_time\":1192},{\"page_index\":2,\"viewing_time\":975}]","rt":3380,"trial_type":"pit-instructions","trial_index":17,"time_elapsed":790214,"internal_node_id":"0.0-6.0","task_version":"test-retest-t4"},{"Rune":"rune_07_laukaz","Hex":"#ffcc3399","Correct":-1,"Choice":32,"RT":185,"Accuracy":0,"Outcome":"+1","Keys":[1686],"TotalKeys":1,"Block":1,"Trial":1,"Robot":2,"Valence":"Win","Action":"No-Go","Sham":0,"Color":"yellow","trial_type":"pit-trial","trial_index":18,"time_elapsed":792906,"internal_node_id":"0.0-7.0","task_version":"test-retest-t4"},{"Rune":"rune_07_gar","Hex":"#3366ff99","Correct":32,"Choice":32,"RT":293,"Accuracy":1,"Outcome":"-1","Keys":[1794],"TotalKeys":1,"Block":1,"Trial":2,"Robot":3,"Valence":"Lose","Action":"Go","Sham":0,"Color":"blue","trial_type":"pit-trial","trial_index":19,"time_elapsed":795705,"internal_node_id":"0.0-8.0","task_version":"test-retest-t4"},{"Rune":"rune_07_thurisaz","Hex":"#ffcc3399","Correct":32,"Choice":32,"RT":254,"Accuracy":1,"Outcome":"+10","Keys":[1756],"TotalKeys":1,"Block":1,"Trial":3,"Robot":1,"Valence":"Win","Action":"Go","Sham":0,"Color":"yellow","trial_type":"pit-trial","trial_index":20,"time_elapsed":798464,"internal_node_id":"0.0-9.0","task_version":"test-retest-t4"},{"Rune":"rune_07_kauna","Hex":"#3366ff99","Correct":-1,"Choice":-1,"RT":-1,"Accuracy":1,"Outcome":"-1","Keys":[],"TotalKeys":0,"Block":1,"Trial":4,"Robot":4,"Valence":"Lose","Action":"No-Go","Sham":0,"Color":"blue","trial_type":"pit-trial","trial_index":21,"time_elapsed":802469,"internal_node_id":"0.0-10.0","task_version":"test-retest-t4"},{"Rune":"rune_07_laukaz","Hex":"#ffcc3399","Correct":-1,"Choice":32,"RT":521,"Accuracy":0,"Outcome":"+1","Keys":[2023],"TotalKeys":1,"Block":1,"Trial":5,"Robot":2,"Valence":"Win","Action":"No-Go","Sham":0,"Color":"yellow","trial_type":"pit-trial","trial_index":22,"time_elapsed":805500,"internal_node_id":"0.0-11.0","task_version":"test-retest-t4"},{"Rune":"rune_07_kauna","Hex":"#3366ff99","Correct":-1,"Choice":-1,"RT":-1,"Accuracy":1,"Outcome":"-1","Keys":[],"TotalKeys":0,"Block":1,"Trial":6,"Robot":4,"Valence":"Lose","Action":"No-Go","Sham":0,"Color":"blue","trial_type":"pit-trial","trial_index":23,"time_elapsed":809505,"internal_node_id":"0.0-12.0","task_version":"test-retest-t4"},{"Rune":"rune_07_thurisaz","Hex":"#ffcc3399","Correct":32,"Choice":32,"RT":310,"Accuracy":1,"Outcome":"+10","Keys":[1810],"TotalKeys":1,"Block":1,"Trial":7,"Robot":1,"Valence":"Win","Action":"Go","Sham":0,"Color":"yellow","trial_type":"pit-trial","trial_index":24,"time_elapsed":812323,"internal_node_id":"0.0-13.0","task_version":"test-retest-t4"},{"Rune":"rune_07_gar","Hex":"#3366ff99","Correct":32,"Choice":32,"RT":476,"Accuracy":1,"Outcome":"-1","Keys":[1976],"TotalKeys":1,"Block":1,"Trial":8,"Robot":3,"Valence":"Lose","Action":"Go","Sham":0,"Color":"blue","trial_type":"pit-trial","trial_index":25,"time_elapsed":815307,"internal_node_id":"0.0-14.0","task_version":"test-retest-t4"},{"Rune":"rune_07_laukaz","Hex":"#ffcc3399","Correct":-1,"Choice":32,"RT":731,"Accuracy":0,"Outcome":"+10","Keys":[2231],"TotalKeys":1,"Block":1,"Trial":9,"Robot":2,"Valence":"Win","Action":"No-Go","Sham":1,"Color":"yellow","trial_type":"pit-trial","trial_index":26,"time_elapsed":818543,"internal_node_id":"0.0-15.0","task_version":"test-retest-t4"},{"Rune":"rune_07_gar","Hex":"#3366ff99","Correct":32,"Choice":32,"RT":388,"Accuracy":1,"Outcome":"-1","Keys":[1889],"TotalKeys":1,"Block":1,"Trial":10,"Robot":3,"Valence":"Lose","Action":"Go","Sham":0,"Color":"blue","trial_type":"pit-trial","trial_index":27,"time_elapsed":821436,"internal_node_id":"0.0-16.0","task_version":"test-retest-t4"},{"Rune":"rune_07_thurisaz","Hex":"#ffcc3399","Correct":32,"Choice":-1,"RT":-1,"Accuracy":0,"Outcome":"+10","Keys":[],"TotalKeys":0,"Block":1,"Trial":11,"Robot":1,"Valence":"Win","Action":"Go","Sham":1,"Color":"yellow","trial_type":"pit-trial","trial_index":28,"time_elapsed":825439,"internal_node_id":"0.0-17.0","task_version":"test-retest-t4"},{"Rune":"rune_07_kauna","Hex":"#3366ff99","Correct":-1,"Choice":-1,"RT":-1,"Accuracy":1,"Outcome":"-1","Keys":[],"TotalKeys":0,"Block":1,"Trial":12,"Robot":4,"Valence":"Lose","Action":"No-Go","Sham":0,"Color":"blue","trial_type":"pit-trial","trial_index":29,"time_elapsed":829441,"internal_node_id":"0.0-18.0","task_version":"test-retest-t4"},{"Rune":"rune_07_kauna","Hex":"#3366ff99","Correct":-1,"Choice":-1,"RT":-1,"Accuracy":1,"Outcome":"-1","Keys":[],"TotalKeys":0,"Block":1,"Trial":13,"Robot":4,"Valence":"Lose","Action":"No-Go","Sham":0,"Color":"blue","trial_type":"pit-trial","trial_index":30,"time_elapsed":833448,"internal_node_id":"0.0-19.0","task_version":"test-retest-t4"},{"Rune":"rune_07_laukaz","Hex":"#ffcc3399","Correct":-1,"Choice":32,"RT":304,"Accuracy":0,"Outcome":"+1","Keys":[1804],"TotalKeys":1,"Block":1,"Trial":14,"Robot":2,"Valence":"Win","Action":"No-Go","Sham":0,"Color":"yellow","trial_type":"pit-trial","trial_index":31,"time_elapsed":836259,"internal_node_id":"0.0-20.0","task_version":"test-retest-t4"},{"Rune":"rune_07_thurisaz","Hex":"#ffcc3399","Correct":32,"Choice":-1,"RT":-1,"Accuracy":0,"Outcome":"+1","Keys":[],"TotalKeys":0,"Block":1,"Trial":15,"Robot":1,"Valence":"Win","Action":"Go","Sham":0,"Color":"yellow","trial_type":"pit-trial","trial_index":32,"time_elapsed":840263,"internal_node_id":"0.0-21.0","task_version":"test-retest-t4"},{"Rune":"rune_07_gar","Hex":"#3366ff99","Correct":32,"Choice":32,"RT":408,"Accuracy":1,"Outcome":"-1","Keys":[1908],"TotalKeys":1,"Block":1,"Trial":16,"Robot":3,"Valence":"Lose","Action":"Go","Sham":0,"Color":"blue","trial_type":"pit-trial","trial_index":33,"time_elapsed":843177,"internal_node_id":"0.0-22.0","task_version":"test-retest-t4"},{"Rune":"rune_07_thurisaz","Hex":"#ffcc3399","Correct":32,"Choice":-1,"RT":-1,"Accuracy":0,"Outcome":"+1","Keys":[],"TotalKeys":0,"Block":1,"Trial":17,"Robot":1,"Valence":"Win","Action":"Go","Sham":0,"Color":"yellow","trial_type":"pit-trial","trial_index":34,"time_elapsed":847180,"internal_node_id":"0.0-23.0","task_version":"test-retest-t4"},{"Rune":"rune_07_kauna","Hex":"#3366ff99","Correct":-1,"Choice":-1,"RT":-1,"Accuracy":1,"Outcome":"-10","Keys":[],"TotalKeys":0,"Block":1,"Trial":18,"Robot":4,"Valence":"Lose","Action":"No-Go","Sham":1,"Color":"blue","trial_type":"pit-trial","trial_index":35,"time_elapsed":851186,"internal_node_id":"0.0-24.0","task_version":"test-retest-t4"},{"Rune":"rune_07_gar","Hex":"#3366ff99","Correct":32,"Choice":32,"RT":414,"Accuracy":1,"Outcome":"-10","Keys":[1914],"TotalKeys":1,"Block":1,"Trial":19,"Robot":3,"Valence":"Lose","Action":"Go","Sham":1,"Color":"blue","trial_type":"pit-trial","trial_index":36,"time_elapsed":854107,"internal_node_id":"0.0-25.0","task_version":"test-retest-t4"},{"Rune":"rune_07_laukaz","Hex":"#ffcc3399","Correct":-1,"Choice":32,"RT":475,"Accuracy":0,"Outcome":"+1","Keys":[1977],"TotalKeys":1,"Block":1,"Trial":20,"Robot":2,"Valence":"Win","Action":"No-Go","Sham":0,"Color":"yellow","trial_type":"pit-trial","trial_index":37,"time_elapsed":857090,"internal_node_id":"0.0-26.0","task_version":"test-retest-t4"},{"Rune":"rune_07_laukaz","Hex":"#ffcc3399","Correct":-1,"Choice":32,"RT":630,"Accuracy":0,"Outcome":"+1","Keys":[2130],"TotalKeys":1,"Block":1,"Trial":21,"Robot":2,"Valence":"Win","Action":"No-Go","Sham":0,"Color":"yellow","trial_type":"pit-trial","trial_index":38,"time_elapsed":860228,"internal_node_id":"0.0-27.0","task_version":"test-retest-t4"},{"Rune":"rune_07_kauna","Hex":"#3366ff99","Correct":-1,"Choice":-1,"RT":-1,"Accuracy":1,"Outcome":"-10","Keys":[],"TotalKeys":0,"Block":1,"Trial":22,"Robot":4,"Valence":"Lose","Action":"No-Go","Sham":1,"Color":"blue","trial_type":"pit-trial","trial_index":39,"time_elapsed":864234,"internal_node_id":"0.0-28.0","task_version":"test-retest-t4"},{"Rune":"rune_07_gar","Hex":"#3366ff99","Correct":32,"Choice":32,"RT":464,"Accuracy":1,"Outcome":"-10","Keys":[1964],"TotalKeys":1,"Block":1,"Trial":23,"Robot":3,"Valence":"Lose","Action":"Go","Sham":1,"Color":"blue","trial_type":"pit-trial","trial_index":40,"time_elapsed":867201,"internal_node_id":"0.0-29.0","task_version":"test-retest-t4"},{"Rune":"rune_07_thurisaz","Hex":"#ffcc3399","Correct":32,"Choice":32,"RT":514,"Accuracy":1,"Outcome":"+10","Keys":[2014],"TotalKeys":1,"Block":1,"Trial":24,"Robot":1,"Valence":"Win","Action":"Go","Sham":0,"Color":"yellow","trial_type":"pit-trial","trial_index":41,"time_elapsed":870218,"internal_node_id":"0.0-30.0","task_version":"test-retest-t4"},{"Rune":"rune_07_thurisaz","Hex":"#ffcc3399","Correct":32,"Choice":32,"RT":687,"Accuracy":1,"Outcome":"+1","Keys":[2188],"TotalKeys":1,"Block":1,"Trial":25,"Robot":1,"Valence":"Win","Action":"Go","Sham":1,"Color":"yellow","trial_type":"pit-trial","trial_index":42,"time_elapsed":873410,"internal_node_id":"0.0-31.0","task_version":"test-retest-t4"},{"Rune":"rune_07_gar","Hex":"#3366ff99","Correct":32,"Choice":32,"RT":607,"Accuracy":1,"Outcome":"-1","Keys":[2109],"TotalKeys":1,"Block":1,"Trial":26,"Robot":3,"Valence":"Lose","Action":"Go","Sham":0,"Color":"blue","trial_type":"pit-trial","trial_index":43,"time_elapsed":876522,"internal_node_id":"0.0-32.0","task_version":"test-retest-t4"},{"Rune":"rune_07_laukaz","Hex":"#ffcc3399","Correct":-1,"Choice":32,"RT":562,"Accuracy":0,"Outcome":"+1","Keys":[2063],"TotalKeys":1,"Block":1,"Trial":27,"Robot":2,"Valence":"Win","Action":"No-Go","Sham":0,"Color":"yellow","trial_type":"pit-trial","trial_index":44,"time_elapsed":879592,"internal_node_id":"0.0-33.0","task_version":"test-retest-t4"},{"Rune":"rune_07_kauna","Hex":"#3366ff99","Correct":-1,"Choice":-1,"RT":-1,"Accuracy":1,"Outcome":"-1","Keys":[],"TotalKeys":0,"Block":1,"Trial":28,"Robot":4,"Valence":"Lose","Action":"No-Go","Sham":0,"Color":"blue","trial_type":"pit-trial","trial_index":45,"time_elapsed":883596,"internal_node_id":"0.0-34.0","task_version":"test-retest-t4"},{"Rune":"rune_07_gar","Hex":"#3366ff99","Correct":32,"Choice":32,"RT":438,"Accuracy":1,"Outcome":"-1","Keys":[1939],"TotalKeys":1,"Block":1,"Trial":29,"Robot":3,"Valence":"Lose","Action":"Go","Sham":0,"Color":"blue","trial_type":"pit-trial","trial_index":46,"time_elapsed":886537,"internal_node_id":"0.0-35.0","task_version":"test-retest-t4"},{"Rune":"rune_07_kauna","Hex":"#3366ff99","Correct":-1,"Choice":-1,"RT":-1,"Accuracy":1,"Outcome":"-1","Keys":[],"TotalKeys":0,"Block":1,"Trial":30,"Robot":4,"Valence":"Lose","Action":"No-Go","Sham":0,"Color":"blue","trial_type":"pit-trial","trial_index":47,"time_elapsed":890541,"internal_node_id":"0.0-36.0","task_version":"test-retest-t4"},{"Rune":"rune_07_thurisaz","Hex":"#ffcc3399","Correct":32,"Choice":32,"RT":569,"Accuracy":1,"Outcome":"+10","Keys":[2070],"TotalKeys":1,"Block":1,"Trial":31,"Robot":1,"Valence":"Win","Action":"Go","Sham":0,"Color":"yellow","trial_type":"pit-trial","trial_index":48,"time_elapsed":893615,"internal_node_id":"0.0-37.0","task_version":"test-retest-t4"},{"Rune":"rune_07_laukaz","Hex":"#ffcc3399","Correct":-1,"Choice":-1,"RT":-1,"Accuracy":1,"Outcome":"+1","Keys":[],"TotalKeys":0,"Block":1,"Trial":32,"Robot":2,"Valence":"Win","Action":"No-Go","Sham":1,"Color":"yellow","trial_type":"pit-trial","trial_index":49,"time_elapsed":897619,"internal_node_id":"0.0-38.0","task_version":"test-retest-t4"},{"Rune":"rune_07_laukaz","Hex":"#ffcc3399","Correct":-1,"Choice":32,"RT":812,"Accuracy":0,"Outcome":"+1","Keys":[2314],"TotalKeys":1,"Block":1,"Trial":33,"Robot":2,"Valence":"Win","Action":"No-Go","Sham":0,"Color":"yellow","trial_type":"pit-trial","trial_index":50,"time_elapsed":900936,"internal_node_id":"0.0-39.0","task_version":"test-retest-t4"},{"Rune":"rune_07_gar","Hex":"#3366ff99","Correct":32,"Choice":32,"RT":537,"Accuracy":1,"Outcome":"-1","Keys":[2037],"TotalKeys":1,"Block":1,"Trial":34,"Robot":3,"Valence":"Lose","Action":"Go","Sham":0,"Color":"blue","trial_type":"pit-trial","trial_index":51,"time_elapsed":903976,"internal_node_id":"0.0-40.0","task_version":"test-retest-t4"},{"Rune":"rune_07_kauna","Hex":"#3366ff99","Correct":-1,"Choice":-1,"RT":-1,"Accuracy":1,"Outcome":"-1","Keys":[],"TotalKeys":0,"Block":1,"Trial":35,"Robot":4,"Valence":"Lose","Action":"No-Go","Sham":0,"Color":"blue","trial_type":"pit-trial","trial_index":52,"time_elapsed":907980,"internal_node_id":"0.0-41.0","task_version":"test-retest-t4"},{"Rune":"rune_07_thurisaz","Hex":"#ffcc3399","Correct":32,"Choice":32,"RT":384,"Accuracy":1,"Outcome":"+10","Keys":[1886],"TotalKeys":1,"Block":1,"Trial":36,"Robot":1,"Valence":"Win","Action":"Go","Sham":0,"Color":"yellow","trial_type":"pit-trial","trial_index":53,"time_elapsed":910873,"internal_node_id":"0.0-42.0","task_version":"test-retest-t4"},{"Rune":"rune_07_kauna","Hex":"#3366ff99","Correct":-1,"Choice":-1,"RT":-1,"Accuracy":1,"Outcome":"-1","Keys":[],"TotalKeys":0,"Block":1,"Trial":37,"Robot":4,"Valence":"Lose","Action":"No-Go","Sham":0,"Color":"blue","trial_type":"pit-trial","trial_index":54,"time_elapsed":914876,"internal_node_id":"0.0-43.0","task_version":"test-retest-t4"},{"Rune":"rune_07_thurisaz","Hex":"#ffcc3399","Correct":32,"Choice":32,"RT":453,"Accuracy":1,"Outcome":"+10","Keys":[1954],"TotalKeys":1,"Block":1,"Trial":38,"Robot":1,"Valence":"Win","Action":"Go","Sham":0,"Color":"yellow","trial_type":"pit-trial","trial_index":55,"time_elapsed":917831,"internal_node_id":"0.0-44.0","task_version":"test-retest-t4"},{"Rune":"rune_07_laukaz","Hex":"#ffcc3399","Correct":-1,"Choice":-1,"RT":-1,"Accuracy":1,"Outcome":"+10","Keys":[],"TotalKeys":0,"Block":1,"Trial":39,"Robot":2,"Valence":"Win","Action":"No-Go","Sham":0,"Color":"yellow","trial_type":"pit-trial","trial_index":56,"time_elapsed":921834,"internal_node_id":"0.0-45.0","task_version":"test-retest-t4"},{"Rune":"rune_07_gar","Hex":"#3366ff99","Correct":32,"Choice":32,"RT":449,"Accuracy":1,"Outcome":"-1","Keys":[1949],"TotalKeys":1,"Block":1,"Trial":40,"Robot":3,"Valence":"Lose","Action":"Go","Sham":0,"Color":"blue","trial_type":"pit-trial","trial_index":57,"time_elapsed":924786,"internal_node_id":"0.0-46.0","task_version":"test-retest-t4"},{"Rune":"rune_07_laukaz","Hex":"#ffcc3399","Correct":-1,"Choice":-1,"RT":-1,"Accuracy":1,"Outcome":"+10","Keys":[],"TotalKeys":0,"Block":1,"Trial":41,"Robot":2,"Valence":"Win","Action":"No-Go","Sham":0,"Color":"yellow","trial_type":"pit-trial","trial_index":58,"time_elapsed":928792,"internal_node_id":"0.0-47.0","task_version":"test-retest-t4"},{"Rune":"rune_07_thurisaz","Hex":"#ffcc3399","Correct":32,"Choice":32,"RT":337,"Accuracy":1,"Outcome":"+1","Keys":[1837],"TotalKeys":1,"Block":1,"Trial":42,"Robot":1,"Valence":"Win","Action":"Go","Sham":1,"Color":"yellow","trial_type":"pit-trial","trial_index":59,"time_elapsed":931633,"internal_node_id":"0.0-48.0","task_version":"test-retest-t4"},{"Rune":"rune_07_kauna","Hex":"#3366ff99","Correct":-1,"Choice":-1,"RT":-1,"Accuracy":1,"Outcome":"-1","Keys":[],"TotalKeys":0,"Block":1,"Trial":43,"Robot":4,"Valence":"Lose","Action":"No-Go","Sham":0,"Color":"blue","trial_type":"pit-trial","trial_index":60,"time_elapsed":935638,"internal_node_id":"0.0-49.0","task_version":"test-retest-t4"},{"Rune":"rune_07_gar","Hex":"#3366ff99","Correct":32,"Choice":32,"RT":295,"Accuracy":1,"Outcome":"-1","Keys":[1795],"TotalKeys":1,"Block":1,"Trial":44,"Robot":3,"Valence":"Lose","Action":"Go","Sham":0,"Color":"blue","trial_type":"pit-trial","trial_index":61,"time_elapsed":938436,"internal_node_id":"0.0-50.0","task_version":"test-retest-t4"},{"Rune":"rune_07_laukaz","Hex":"#ffcc3399","Correct":-1,"Choice":-1,"RT":-1,"Accuracy":1,"Outcome":"+1","Keys":[],"TotalKeys":0,"Block":1,"Trial":45,"Robot":2,"Valence":"Win","Action":"No-Go","Sham":1,"Color":"yellow","trial_type":"pit-trial","trial_index":62,"time_elapsed":942443,"internal_node_id":"0.0-51.0","task_version":"test-retest-t4"},{"Rune":"rune_07_gar","Hex":"#3366ff99","Correct":32,"Choice":32,"RT":325,"Accuracy":1,"Outcome":"-1","Keys":[1826],"TotalKeys":1,"Block":1,"Trial":46,"Robot":3,"Valence":"Lose","Action":"Go","Sham":0,"Color":"blue","trial_type":"pit-trial","trial_index":63,"time_elapsed":945273,"internal_node_id":"0.0-52.0","task_version":"test-retest-t4"},{"Rune":"rune_07_kauna","Hex":"#3366ff99","Correct":-1,"Choice":-1,"RT":-1,"Accuracy":1,"Outcome":"-1","Keys":[],"TotalKeys":0,"Block":1,"Trial":47,"Robot":4,"Valence":"Lose","Action":"No-Go","Sham":0,"Color":"blue","trial_type":"pit-trial","trial_index":64,"time_elapsed":949275,"internal_node_id":"0.0-53.0","task_version":"test-retest-t4"},{"Rune":"rune_07_thurisaz","Hex":"#ffcc3399","Correct":32,"Choice":32,"RT":485,"Accuracy":1,"Outcome":"+10","Keys":[1986],"TotalKeys":1,"Block":1,"Trial":48,"Robot":1,"Valence":"Win","Action":"Go","Sham":0,"Color":"yellow","trial_type":"pit-trial","trial_index":65,"time_elapsed":952265,"internal_node_id":"0.0-54.0","task_version":"test-retest-t4"},{"Rune":"rune_07_thurisaz","Hex":"#ffcc3399","Correct":32,"Choice":32,"RT":560,"Accuracy":1,"Outcome":"+10","Keys":[2061],"TotalKeys":1,"Block":1,"Trial":49,"Robot":1,"Valence":"Win","Action":"Go","Sham":0,"Color":"yellow","trial_type":"pit-trial","trial_index":66,"time_elapsed":955328,"internal_node_id":"0.0-55.0","task_version":"test-retest-t4"},{"Rune":"rune_07_laukaz","Hex":"#ffcc3399","Correct":-1,"Choice":-1,"RT":-1,"Accuracy":1,"Outcome":"+10","Keys":[],"TotalKeys":0,"Block":1,"Trial":50,"Robot":2,"Valence":"Win","Action":"No-Go","Sham":0,"Color":"yellow","trial_type":"pit-trial","trial_index":67,"time_elapsed":959332,"internal_node_id":"0.0-56.0","task_version":"test-retest-t4"},{"Rune":"rune_07_gar","Hex":"#3366ff99","Correct":32,"Choice":32,"RT":331,"Accuracy":1,"Outcome":"-1","Keys":[1833],"TotalKeys":1,"Block":1,"Trial":51,"Robot":3,"Valence":"Lose","Action":"Go","Sham":0,"Color":"blue","trial_type":"pit-trial","trial_index":68,"time_elapsed":962169,"internal_node_id":"0.0-57.0","task_version":"test-retest-t4"},{"Rune":"rune_07_kauna","Hex":"#3366ff99","Correct":-1,"Choice":-1,"RT":-1,"Accuracy":1,"Outcome":"-10","Keys":[],"TotalKeys":0,"Block":1,"Trial":52,"Robot":4,"Valence":"Lose","Action":"No-Go","Sham":1,"Color":"blue","trial_type":"pit-trial","trial_index":69,"time_elapsed":966176,"internal_node_id":"0.0-58.0","task_version":"test-retest-t4"},{"Rune":"rune_07_kauna","Hex":"#3366ff99","Correct":-1,"Choice":-1,"RT":-1,"Accuracy":1,"Outcome":"-1","Keys":[],"TotalKeys":0,"Block":1,"Trial":53,"Robot":4,"Valence":"Lose","Action":"No-Go","Sham":0,"Color":"blue","trial_type":"pit-trial","trial_index":70,"time_elapsed":970178,"internal_node_id":"0.0-59.0","task_version":"test-retest-t4"},{"Rune":"rune_07_laukaz","Hex":"#ffcc3399","Correct":-1,"Choice":-1,"RT":-1,"Accuracy":1,"Outcome":"+10","Keys":[],"TotalKeys":0,"Block":1,"Trial":54,"Robot":2,"Valence":"Win","Action":"No-Go","Sham":0,"Color":"yellow","trial_type":"pit-trial","trial_index":71,"time_elapsed":974183,"internal_node_id":"0.0-60.0","task_version":"test-retest-t4"},{"Rune":"rune_07_thurisaz","Hex":"#ffcc3399","Correct":32,"Choice":32,"RT":377,"Accuracy":1,"Outcome":"+10","Keys":[1878],"TotalKeys":1,"Block":1,"Trial":55,"Robot":1,"Valence":"Win","Action":"Go","Sham":0,"Color":"yellow","trial_type":"pit-trial","trial_index":72,"time_elapsed":977065,"internal_node_id":"0.0-61.0","task_version":"test-retest-t4"},{"Rune":"rune_07_gar","Hex":"#3366ff99","Correct":32,"Choice":32,"RT":407,"Accuracy":1,"Outcome":"-10","Keys":[1908],"TotalKeys":1,"Block":1,"Trial":56,"Robot":3,"Valence":"Lose","Action":"Go","Sham":1,"Color":"blue","trial_type":"pit-trial","trial_index":73,"time_elapsed":979979,"internal_node_id":"0.0-62.0","task_version":"test-retest-t4"},{"Rune":"rune_07_gar","Hex":"#3366ff99","Correct":32,"Choice":32,"RT":414,"Accuracy":1,"Outcome":"-1","Keys":[1915],"TotalKeys":1,"Block":1,"Trial":57,"Robot":3,"Valence":"Lose","Action":"Go","Sham":0,"Color":"blue","trial_type":"pit-trial","trial_index":74,"time_elapsed":982899,"internal_node_id":"0.0-63.0","task_version":"test-retest-t4"},{"Rune":"rune_07_kauna","Hex":"#3366ff99","Correct":-1,"Choice":-1,"RT":-1,"Accuracy":1,"Outcome":"-1","Keys":[],"TotalKeys":0,"Block":1,"Trial":58,"Robot":4,"Valence":"Lose","Action":"No-Go","Sham":0,"Color":"blue","trial_type":"pit-trial","trial_index":75,"time_elapsed":986907,"internal_node_id":"0.0-64.0","task_version":"test-retest-t4"},{"Rune":"rune_07_thurisaz","Hex":"#ffcc3399","Correct":32,"Choice":32,"RT":437,"Accuracy":1,"Outcome":"+10","Keys":[1937],"TotalKeys":1,"Block":1,"Trial":59,"Robot":1,"Valence":"Win","Action":"Go","Sham":0,"Color":"yellow","trial_type":"pit-trial","trial_index":76,"time_elapsed":989850,"internal_node_id":"0.0-65.0","task_version":"test-retest-t4"},{"Rune":"rune_07_laukaz","Hex":"#ffcc3399","Correct":-1,"Choice":-1,"RT":-1,"Accuracy":1,"Outcome":"+10","Keys":[],"TotalKeys":0,"Block":1,"Trial":60,"Robot":2,"Valence":"Win","Action":"No-Go","Sham":0,"Color":"yellow","trial_type":"pit-trial","trial_index":77,"time_elapsed":993853,"internal_node_id":"0.0-66.0","task_version":"test-retest-t4"},{"value":false,"trial_type":"call-function","trial_index":78,"time_elapsed":993859,"internal_node_id":"0.0-67.0","task_version":"test-retest-t4"},{"view_history":"[{\"page_index\":0,\"viewing_time\":131472},{\"page_index\":1,\"viewing_time\":1284}]","rt":132756,"trial_type":"pit-instructions","trial_index":79,"time_elapsed":1126616,"internal_node_id":"0.0-68.0","task_version":"test-retest-t4"},{"Rune":"rune_07_thurisaz","Hex":"#ffcc3399","Correct":32,"Choice":32,"RT":454,"Accuracy":1,"Outcome":"+10","Keys":[1954],"TotalKeys":1,"Block":1,"Trial":61,"Robot":1,"Valence":"Win","Action":"Go","Sham":0,"Color":"yellow","trial_type":"pit-trial","trial_index":80,"time_elapsed":1129578,"internal_node_id":"0.0-69.0","task_version":"test-retest-t4"},{"Rune":"rune_07_laukaz","Hex":"#ffcc3399","Correct":-1,"Choice":-1,"RT":-1,"Accuracy":1,"Outcome":"+10","Keys":[],"TotalKeys":0,"Block":1,"Trial":62,"Robot":2,"Valence":"Win","Action":"No-Go","Sham":0,"Color":"yellow","trial_type":"pit-trial","trial_index":81,"time_elapsed":1133586,"internal_node_id":"0.0-70.0","task_version":"test-retest-t4"},{"Rune":"rune_07_gar","Hex":"#3366ff99","Correct":32,"Choice":32,"RT":294,"Accuracy":1,"Outcome":"-1","Keys":[1795],"TotalKeys":1,"Block":1,"Trial":63,"Robot":3,"Valence":"Lose","Action":"Go","Sham":0,"Color":"blue","trial_type":"pit-trial","trial_index":82,"time_elapsed":1136387,"internal_node_id":"0.0-71.0","task_version":"test-retest-t4"},{"Rune":"rune_07_kauna","Hex":"#3366ff99","Correct":-1,"Choice":-1,"RT":-1,"Accuracy":1,"Outcome":"-1","Keys":[],"TotalKeys":0,"Block":1,"Trial":64,"Robot":4,"Valence":"Lose","Action":"No-Go","Sham":0,"Color":"blue","trial_type":"pit-trial","trial_index":83,"time_elapsed":1140389,"internal_node_id":"0.0-72.0","task_version":"test-retest-t4"},{"Rune":"rune_07_gar","Hex":"#3366ff99","Correct":32,"Choice":32,"RT":464,"Accuracy":1,"Outcome":"-1","Keys":[1966],"TotalKeys":1,"Block":1,"Trial":65,"Robot":3,"Valence":"Lose","Action":"Go","Sham":0,"Color":"blue","trial_type":"pit-trial","trial_index":84,"time_elapsed":1143362,"internal_node_id":"0.0-73.0","task_version":"test-retest-t4"},{"Rune":"rune_07_kauna","Hex":"#3366ff99","Correct":-1,"Choice":-1,"RT":-1,"Accuracy":1,"Outcome":"-10","Keys":[],"TotalKeys":0,"Block":1,"Trial":66,"Robot":4,"Valence":"Lose","Action":"No-Go","Sham":1,"Color":"blue","trial_type":"pit-trial","trial_index":85,"time_elapsed":1147371,"internal_node_id":"0.0-74.0","task_version":"test-retest-t4"},{"Rune":"rune_07_laukaz","Hex":"#ffcc3399","Correct":-1,"Choice":-1,"RT":-1,"Accuracy":1,"Outcome":"+10","Keys":[],"TotalKeys":0,"Block":1,"Trial":67,"Robot":2,"Valence":"Win","Action":"No-Go","Sham":0,"Color":"yellow","trial_type":"pit-trial","trial_index":86,"time_elapsed":1151376,"internal_node_id":"0.0-75.0","task_version":"test-retest-t4"},{"Rune":"rune_07_thurisaz","Hex":"#ffcc3399","Correct":32,"Choice":32,"RT":484,"Accuracy":1,"Outcome":"+10","Keys":[1984],"TotalKeys":1,"Block":1,"Trial":68,"Robot":1,"Valence":"Win","Action":"Go","Sham":0,"Color":"yellow","trial_type":"pit-trial","trial_index":87,"time_elapsed":1154360,"internal_node_id":"0.0-76.0","task_version":"test-retest-t4"},{"Rune":"rune_07_gar","Hex":"#3366ff99","Correct":32,"Choice":32,"RT":456,"Accuracy":1,"Outcome":"-1","Keys":[1958],"TotalKeys":1,"Block":1,"Trial":69,"Robot":3,"Valence":"Lose","Action":"Go","Sham":0,"Color":"blue","trial_type":"pit-trial","trial_index":88,"time_elapsed":1157322,"internal_node_id":"0.0-77.0","task_version":"test-retest-t4"},{"Rune":"rune_07_kauna","Hex":"#3366ff99","Correct":-1,"Choice":-1,"RT":-1,"Accuracy":1,"Outcome":"-1","Keys":[],"TotalKeys":0,"Block":1,"Trial":70,"Robot":4,"Valence":"Lose","Action":"No-Go","Sham":0,"Color":"blue","trial_type":"pit-trial","trial_index":89,"time_elapsed":1161329,"internal_node_id":"0.0-78.0","task_version":"test-retest-t4"},{"Rune":"rune_07_laukaz","Hex":"#ffcc3399","Correct":-1,"Choice":-1,"RT":-1,"Accuracy":1,"Outcome":"+10","Keys":[],"TotalKeys":0,"Block":1,"Trial":71,"Robot":2,"Valence":"Win","Action":"No-Go","Sham":0,"Color":"yellow","trial_type":"pit-trial","trial_index":90,"time_elapsed":1165334,"internal_node_id":"0.0-79.0","task_version":"test-retest-t4"},{"Rune":"rune_07_thurisaz","Hex":"#ffcc3399","Correct":32,"Choice":32,"RT":291,"Accuracy":1,"Outcome":"+1","Keys":[1791],"TotalKeys":1,"Block":1,"Trial":72,"Robot":1,"Valence":"Win","Action":"Go","Sham":1,"Color":"yellow","trial_type":"pit-trial","trial_index":91,"time_elapsed":1168129,"internal_node_id":"0.0-80.0","task_version":"test-retest-t4"},{"Rune":"rune_07_gar","Hex":"#3366ff99","Correct":32,"Choice":32,"RT":289,"Accuracy":1,"Outcome":"-10","Keys":[1789],"TotalKeys":1,"Block":1,"Trial":73,"Robot":3,"Valence":"Lose","Action":"Go","Sham":1,"Color":"blue","trial_type":"pit-trial","trial_index":92,"time_elapsed":1170925,"internal_node_id":"0.0-81.0","task_version":"test-retest-t4"},{"Rune":"rune_07_laukaz","Hex":"#ffcc3399","Correct":-1,"Choice":-1,"RT":-1,"Accuracy":1,"Outcome":"+10","Keys":[],"TotalKeys":0,"Block":1,"Trial":74,"Robot":2,"Valence":"Win","Action":"No-Go","Sham":0,"Color":"yellow","trial_type":"pit-trial","trial_index":93,"time_elapsed":1174930,"internal_node_id":"0.0-82.0","task_version":"test-retest-t4"},{"Rune":"rune_07_thurisaz","Hex":"#ffcc3399","Correct":32,"Choice":32,"RT":310,"Accuracy":1,"Outcome":"+10","Keys":[1811],"TotalKeys":1,"Block":1,"Trial":75,"Robot":1,"Valence":"Win","Action":"Go","Sham":0,"Color":"yellow","trial_type":"pit-trial","trial_index":94,"time_elapsed":1177744,"internal_node_id":"0.0-83.0","task_version":"test-retest-t4"},{"Rune":"rune_07_kauna","Hex":"#3366ff99","Correct":-1,"Choice":-1,"RT":-1,"Accuracy":1,"Outcome":"-1","Keys":[],"TotalKeys":0,"Block":1,"Trial":76,"Robot":4,"Valence":"Lose","Action":"No-Go","Sham":0,"Color":"blue","trial_type":"pit-trial","trial_index":95,"time_elapsed":1181747,"internal_node_id":"0.0-84.0","task_version":"test-retest-t4"},{"Rune":"rune_07_thurisaz","Hex":"#ffcc3399","Correct":32,"Choice":32,"RT":339,"Accuracy":1,"Outcome":"+10","Keys":[1839],"TotalKeys":1,"Block":1,"Trial":77,"Robot":1,"Valence":"Win","Action":"Go","Sham":0,"Color":"yellow","trial_type":"pit-trial","trial_index":96,"time_elapsed":1184594,"internal_node_id":"0.0-85.0","task_version":"test-retest-t4"},{"Rune":"rune_07_gar","Hex":"#3366ff99","Correct":32,"Choice":32,"RT":437,"Accuracy":1,"Outcome":"-1","Keys":[1938],"TotalKeys":1,"Block":1,"Trial":78,"Robot":3,"Valence":"Lose","Action":"Go","Sham":0,"Color":"blue","trial_type":"pit-trial","trial_index":97,"time_elapsed":1187539,"internal_node_id":"0.0-86.0","task_version":"test-retest-t4"},{"Rune":"rune_07_laukaz","Hex":"#ffcc3399","Correct":-1,"Choice":-1,"RT":-1,"Accuracy":1,"Outcome":"+1","Keys":[],"TotalKeys":0,"Block":1,"Trial":79,"Robot":2,"Valence":"Win","Action":"No-Go","Sham":1,"Color":"yellow","trial_type":"pit-trial","trial_index":98,"time_elapsed":1191548,"internal_node_id":"0.0-87.0","task_version":"test-retest-t4"},{"Rune":"rune_07_kauna","Hex":"#3366ff99","Correct":-1,"Choice":-1,"RT":-1,"Accuracy":1,"Outcome":"-1","Keys":[],"TotalKeys":0,"Block":1,"Trial":80,"Robot":4,"Valence":"Lose","Action":"No-Go","Sham":0,"Color":"blue","trial_type":"pit-trial","trial_index":99,"time_elapsed":1195555,"internal_node_id":"0.0-88.0","task_version":"test-retest-t4"},{"Rune":"rune_07_laukaz","Hex":"#ffcc3399","Correct":-1,"Choice":-1,"RT":-1,"Accuracy":1,"Outcome":"+1","Keys":[],"TotalKeys":0,"Block":1,"Trial":81,"Robot":2,"Valence":"Win","Action":"No-Go","Sham":1,"Color":"yellow","trial_type":"pit-trial","trial_index":100,"time_elapsed":1199562,"internal_node_id":"0.0-89.0","task_version":"test-retest-t4"},{"Rune":"rune_07_kauna","Hex":"#3366ff99","Correct":-1,"Choice":-1,"RT":-1,"Accuracy":1,"Outcome":"-1","Keys":[],"TotalKeys":0,"Block":1,"Trial":82,"Robot":4,"Valence":"Lose","Action":"No-Go","Sham":0,"Color":"blue","trial_type":"pit-trial","trial_index":101,"time_elapsed":1203569,"internal_node_id":"0.0-90.0","task_version":"test-retest-t4"},{"Rune":"rune_07_thurisaz","Hex":"#ffcc3399","Correct":32,"Choice":32,"RT":354,"Accuracy":1,"Outcome":"+1","Keys":[1855],"TotalKeys":1,"Block":1,"Trial":83,"Robot":1,"Valence":"Win","Action":"Go","Sham":1,"Color":"yellow","trial_type":"pit-trial","trial_index":102,"time_elapsed":1206425,"internal_node_id":"0.0-91.0","task_version":"test-retest-t4"},{"Rune":"rune_07_gar","Hex":"#3366ff99","Correct":32,"Choice":32,"RT":359,"Accuracy":1,"Outcome":"-1","Keys":[1860],"TotalKeys":1,"Block":1,"Trial":84,"Robot":3,"Valence":"Lose","Action":"Go","Sham":0,"Color":"blue","trial_type":"pit-trial","trial_index":103,"time_elapsed":1209288,"internal_node_id":"0.0-92.0","task_version":"test-retest-t4"},{"Rune":"rune_07_thurisaz","Hex":"#ffcc3399","Correct":32,"Choice":32,"RT":363,"Accuracy":1,"Outcome":"+10","Keys":[1862],"TotalKeys":1,"Block":1,"Trial":85,"Robot":1,"Valence":"Win","Action":"Go","Sham":0,"Color":"yellow","trial_type":"pit-trial","trial_index":104,"time_elapsed":1212155,"internal_node_id":"0.0-93.0","task_version":"test-retest-t4"},{"Rune":"rune_07_laukaz","Hex":"#ffcc3399","Correct":-1,"Choice":-1,"RT":-1,"Accuracy":1,"Outcome":"+10","Keys":[],"TotalKeys":0,"Block":1,"Trial":86,"Robot":2,"Valence":"Win","Action":"No-Go","Sham":0,"Color":"yellow","trial_type":"pit-trial","trial_index":105,"time_elapsed":1216159,"internal_node_id":"0.0-94.0","task_version":"test-retest-t4"},{"Rune":"rune_07_kauna","Hex":"#3366ff99","Correct":-1,"Choice":-1,"RT":-1,"Accuracy":1,"Outcome":"-1","Keys":[],"TotalKeys":0,"Block":1,"Trial":87,"Robot":4,"Valence":"Lose","Action":"No-Go","Sham":0,"Color":"blue","trial_type":"pit-trial","trial_index":106,"time_elapsed":1220162,"internal_node_id":"0.0-95.0","task_version":"test-retest-t4"},{"Rune":"rune_07_gar","Hex":"#3366ff99","Correct":32,"Choice":32,"RT":304,"Accuracy":1,"Outcome":"-1","Keys":[1804],"TotalKeys":1,"Block":1,"Trial":88,"Robot":3,"Valence":"Lose","Action":"Go","Sham":0,"Color":"blue","trial_type":"pit-trial","trial_index":107,"time_elapsed":1222972,"internal_node_id":"0.0-96.0","task_version":"test-retest-t4"},{"Rune":"rune_07_laukaz","Hex":"#ffcc3399","Correct":-1,"Choice":-1,"RT":-1,"Accuracy":1,"Outcome":"+10","Keys":[],"TotalKeys":0,"Block":1,"Trial":89,"Robot":2,"Valence":"Win","Action":"No-Go","Sham":0,"Color":"yellow","trial_type":"pit-trial","trial_index":108,"time_elapsed":1226976,"internal_node_id":"0.0-97.0","task_version":"test-retest-t4"},{"Rune":"rune_07_gar","Hex":"#3366ff99","Correct":32,"Choice":32,"RT":400,"Accuracy":1,"Outcome":"-10","Keys":[1901],"TotalKeys":1,"Block":1,"Trial":90,"Robot":3,"Valence":"Lose","Action":"Go","Sham":1,"Color":"blue","trial_type":"pit-trial","trial_index":109,"time_elapsed":1229882,"internal_node_id":"0.0-98.0","task_version":"test-retest-t4"},{"Rune":"rune_07_thurisaz","Hex":"#ffcc3399","Correct":32,"Choice":32,"RT":447,"Accuracy":1,"Outcome":"+10","Keys":[1948],"TotalKeys":1,"Block":1,"Trial":91,"Robot":1,"Valence":"Win","Action":"Go","Sham":0,"Color":"yellow","trial_type":"pit-trial","trial_index":110,"time_elapsed":1232833,"internal_node_id":"0.0-99.0","task_version":"test-retest-t4"},{"Rune":"rune_07_kauna","Hex":"#3366ff99","Correct":-1,"Choice":-1,"RT":-1,"Accuracy":1,"Outcome":"-1","Keys":[],"TotalKeys":0,"Block":1,"Trial":92,"Robot":4,"Valence":"Lose","Action":"No-Go","Sham":0,"Color":"blue","trial_type":"pit-trial","trial_index":111,"time_elapsed":1236838,"internal_node_id":"0.0-100.0","task_version":"test-retest-t4"},{"Rune":"rune_07_kauna","Hex":"#3366ff99","Correct":-1,"Choice":-1,"RT":-1,"Accuracy":1,"Outcome":"-1","Keys":[],"TotalKeys":0,"Block":1,"Trial":93,"Robot":4,"Valence":"Lose","Action":"No-Go","Sham":0,"Color":"blue","trial_type":"pit-trial","trial_index":112,"time_elapsed":1240845,"internal_node_id":"0.0-101.0","task_version":"test-retest-t4"},{"Rune":"rune_07_thurisaz","Hex":"#ffcc3399","Correct":32,"Choice":32,"RT":288,"Accuracy":1,"Outcome":"+10","Keys":[1788],"TotalKeys":1,"Block":1,"Trial":94,"Robot":1,"Valence":"Win","Action":"Go","Sham":0,"Color":"yellow","trial_type":"pit-trial","trial_index":113,"time_elapsed":1243635,"internal_node_id":"0.0-102.0","task_version":"test-retest-t4"},{"Rune":"rune_07_gar","Hex":"#3366ff99","Correct":32,"Choice":32,"RT":452,"Accuracy":1,"Outcome":"-1","Keys":[1952],"TotalKeys":1,"Block":1,"Trial":95,"Robot":3,"Valence":"Lose","Action":"Go","Sham":0,"Color":"blue","trial_type":"pit-trial","trial_index":114,"time_elapsed":1246593,"internal_node_id":"0.0-103.0","task_version":"test-retest-t4"},{"Rune":"rune_07_laukaz","Hex":"#ffcc3399","Correct":-1,"Choice":-1,"RT":-1,"Accuracy":1,"Outcome":"+10","Keys":[],"TotalKeys":0,"Block":1,"Trial":96,"Robot":2,"Valence":"Win","Action":"No-Go","Sham":0,"Color":"yellow","trial_type":"pit-trial","trial_index":115,"time_elapsed":1250598,"internal_node_id":"0.0-104.0","task_version":"test-retest-t4"},{"Rune":"rune_07_gar","Hex":"#3366ff99","Correct":32,"Choice":32,"RT":391,"Accuracy":1,"Outcome":"-1","Keys":[1891],"TotalKeys":1,"Block":1,"Trial":97,"Robot":3,"Valence":"Lose","Action":"Go","Sham":0,"Color":"blue","trial_type":"pit-trial","trial_index":116,"time_elapsed":1253496,"internal_node_id":"0.0-105.0","task_version":"test-retest-t4"},{"Rune":"rune_07_laukaz","Hex":"#ffcc3399","Correct":-1,"Choice":-1,"RT":-1,"Accuracy":1,"Outcome":"+10","Keys":[],"TotalKeys":0,"Block":1,"Trial":98,"Robot":2,"Valence":"Win","Action":"No-Go","Sham":0,"Color":"yellow","trial_type":"pit-trial","trial_index":117,"time_elapsed":1257499,"internal_node_id":"0.0-106.0","task_version":"test-retest-t4"},{"Rune":"rune_07_thurisaz","Hex":"#ffcc3399","Correct":32,"Choice":32,"RT":310,"Accuracy":1,"Outcome":"+10","Keys":[1812],"TotalKeys":1,"Block":1,"Trial":99,"Robot":1,"Valence":"Win","Action":"Go","Sham":0,"Color":"yellow","trial_type":"pit-trial","trial_index":118,"time_elapsed":1260315,"internal_node_id":"0.0-107.0","task_version":"test-retest-t4"},{"Rune":"rune_07_kauna","Hex":"#3366ff99","Correct":-1,"Choice":-1,"RT":-1,"Accuracy":1,"Outcome":"-10","Keys":[],"TotalKeys":0,"Block":1,"Trial":100,"Robot":4,"Valence":"Lose","Action":"No-Go","Sham":1,"Color":"blue","trial_type":"pit-trial","trial_index":119,"time_elapsed":1264323,"internal_node_id":"0.0-108.0","task_version":"test-retest-t4"},{"Rune":"rune_07_laukaz","Hex":"#ffcc3399","Correct":-1,"Choice":-1,"RT":-1,"Accuracy":1,"Outcome":"+10","Keys":[],"TotalKeys":0,"Block":1,"Trial":101,"Robot":2,"Valence":"Win","Action":"No-Go","Sham":0,"Color":"yellow","trial_type":"pit-trial","trial_index":120,"time_elapsed":1268329,"internal_node_id":"0.0-109.0","task_version":"test-retest-t4"},{"Rune":"rune_07_kauna","Hex":"#3366ff99","Correct":-1,"Choice":-1,"RT":-1,"Accuracy":1,"Outcome":"-1","Keys":[],"TotalKeys":0,"Block":1,"Trial":102,"Robot":4,"Valence":"Lose","Action":"No-Go","Sham":0,"Color":"blue","trial_type":"pit-trial","trial_index":121,"time_elapsed":1272337,"internal_node_id":"0.0-110.0","task_version":"test-retest-t4"},{"Rune":"rune_07_thurisaz","Hex":"#ffcc3399","Correct":32,"Choice":32,"RT":421,"Accuracy":1,"Outcome":"+10","Keys":[1922],"TotalKeys":1,"Block":1,"Trial":103,"Robot":1,"Valence":"Win","Action":"Go","Sham":0,"Color":"yellow","trial_type":"pit-trial","trial_index":122,"time_elapsed":1275264,"internal_node_id":"0.0-111.0","task_version":"test-retest-t4"},{"Rune":"rune_07_gar","Hex":"#3366ff99","Correct":32,"Choice":32,"RT":434,"Accuracy":1,"Outcome":"-10","Keys":[1935],"TotalKeys":1,"Block":1,"Trial":104,"Robot":3,"Valence":"Lose","Action":"Go","Sham":1,"Color":"blue","trial_type":"pit-trial","trial_index":123,"time_elapsed":1278204,"internal_node_id":"0.0-112.0","task_version":"test-retest-t4"},{"Rune":"rune_07_gar","Hex":"#3366ff99","Correct":32,"Choice":32,"RT":575,"Accuracy":1,"Outcome":"-1","Keys":[2075],"TotalKeys":1,"Block":1,"Trial":105,"Robot":3,"Valence":"Lose","Action":"Go","Sham":0,"Color":"blue","trial_type":"pit-trial","trial_index":124,"time_elapsed":1281283,"internal_node_id":"0.0-113.0","task_version":"test-retest-t4"},{"Rune":"rune_07_thurisaz","Hex":"#ffcc3399","Correct":32,"Choice":32,"RT":428,"Accuracy":1,"Outcome":"+10","Keys":[1930],"TotalKeys":1,"Block":1,"Trial":106,"Robot":1,"Valence":"Win","Action":"Go","Sham":0,"Color":"yellow","trial_type":"pit-trial","trial_index":125,"time_elapsed":1284218,"internal_node_id":"0.0-114.0","task_version":"test-retest-t4"},{"Rune":"rune_07_laukaz","Hex":"#ffcc3399","Correct":-1,"Choice":32,"RT":471,"Accuracy":0,"Outcome":"+1","Keys":[1973],"TotalKeys":1,"Block":1,"Trial":107,"Robot":2,"Valence":"Win","Action":"No-Go","Sham":0,"Color":"yellow","trial_type":"pit-trial","trial_index":126,"time_elapsed":1287196,"internal_node_id":"0.0-115.0","task_version":"test-retest-t4"},{"Rune":"rune_07_kauna","Hex":"#3366ff99","Correct":-1,"Choice":-1,"RT":-1,"Accuracy":1,"Outcome":"-10","Keys":[],"TotalKeys":0,"Block":1,"Trial":108,"Robot":4,"Valence":"Lose","Action":"No-Go","Sham":1,"Color":"blue","trial_type":"pit-trial","trial_index":127,"time_elapsed":1291205,"internal_node_id":"0.0-116.0","task_version":"test-retest-t4"},{"Rune":"rune_07_thurisaz","Hex":"#ffcc3399","Correct":32,"Choice":32,"RT":442,"Accuracy":1,"Outcome":"+1","Keys":[1941],"TotalKeys":1,"Block":1,"Trial":109,"Robot":1,"Valence":"Win","Action":"Go","Sham":1,"Color":"yellow","trial_type":"pit-trial","trial_index":128,"time_elapsed":1294151,"internal_node_id":"0.0-117.0","task_version":"test-retest-t4"},{"Rune":"rune_07_gar","Hex":"#3366ff99","Correct":32,"Choice":32,"RT":419,"Accuracy":1,"Outcome":"-1","Keys":[1919],"TotalKeys":1,"Block":1,"Trial":110,"Robot":3,"Valence":"Lose","Action":"Go","Sham":0,"Color":"blue","trial_type":"pit-trial","trial_index":129,"time_elapsed":1297075,"internal_node_id":"0.0-118.0","task_version":"test-retest-t4"},{"Rune":"rune_07_laukaz","Hex":"#ffcc3399","Correct":-1,"Choice":-1,"RT":-1,"Accuracy":1,"Outcome":"+10","Keys":[],"TotalKeys":0,"Block":1,"Trial":111,"Robot":2,"Valence":"Win","Action":"No-Go","Sham":0,"Color":"yellow","trial_type":"pit-trial","trial_index":130,"time_elapsed":1301082,"internal_node_id":"0.0-119.0","task_version":"test-retest-t4"},{"Rune":"rune_07_kauna","Hex":"#3366ff99","Correct":-1,"Choice":-1,"RT":-1,"Accuracy":1,"Outcome":"-1","Keys":[],"TotalKeys":0,"Block":1,"Trial":112,"Robot":4,"Valence":"Lose","Action":"No-Go","Sham":0,"Color":"blue","trial_type":"pit-trial","trial_index":131,"time_elapsed":1305086,"internal_node_id":"0.0-120.0","task_version":"test-retest-t4"},{"Rune":"rune_07_laukaz","Hex":"#ffcc3399","Correct":-1,"Choice":-1,"RT":-1,"Accuracy":1,"Outcome":"+1","Keys":[],"TotalKeys":0,"Block":1,"Trial":113,"Robot":2,"Valence":"Win","Action":"No-Go","Sham":1,"Color":"yellow","trial_type":"pit-trial","trial_index":132,"time_elapsed":1309092,"internal_node_id":"0.0-121.0","task_version":"test-retest-t4"},{"Rune":"rune_07_thurisaz","Hex":"#ffcc3399","Correct":32,"Choice":32,"RT":483,"Accuracy":1,"Outcome":"+10","Keys":[1983],"TotalKeys":1,"Block":1,"Trial":114,"Robot":1,"Valence":"Win","Action":"Go","Sham":0,"Color":"yellow","trial_type":"pit-trial","trial_index":133,"time_elapsed":1312085,"internal_node_id":"0.0-122.0","task_version":"test-retest-t4"},{"Rune":"rune_07_gar","Hex":"#3366ff99","Correct":32,"Choice":32,"RT":473,"Accuracy":1,"Outcome":"-1","Keys":[1974],"TotalKeys":1,"Block":1,"Trial":115,"Robot":3,"Valence":"Lose","Action":"Go","Sham":0,"Color":"blue","trial_type":"pit-trial","trial_index":134,"time_elapsed":1315065,"internal_node_id":"0.0-123.0","task_version":"test-retest-t4"},{"Rune":"rune_07_kauna","Hex":"#3366ff99","Correct":-1,"Choice":-1,"RT":-1,"Accuracy":1,"Outcome":"-1","Keys":[],"TotalKeys":0,"Block":1,"Trial":116,"Robot":4,"Valence":"Lose","Action":"No-Go","Sham":0,"Color":"blue","trial_type":"pit-trial","trial_index":135,"time_elapsed":1319068,"internal_node_id":"0.0-124.0","task_version":"test-retest-t4"},{"Rune":"rune_07_thurisaz","Hex":"#ffcc3399","Correct":32,"Choice":32,"RT":422,"Accuracy":1,"Outcome":"+10","Keys":[1922],"TotalKeys":1,"Block":1,"Trial":117,"Robot":1,"Valence":"Win","Action":"Go","Sham":0,"Color":"yellow","trial_type":"pit-trial","trial_index":136,"time_elapsed":1321992,"internal_node_id":"0.0-125.0","task_version":"test-retest-t4"},{"Rune":"rune_07_laukaz","Hex":"#ffcc3399","Correct":-1,"Choice":-1,"RT":-1,"Accuracy":1,"Outcome":"+10","Keys":[],"TotalKeys":0,"Block":1,"Trial":118,"Robot":2,"Valence":"Win","Action":"No-Go","Sham":0,"Color":"yellow","trial_type":"pit-trial","trial_index":137,"time_elapsed":1325996,"internal_node_id":"0.0-126.0","task_version":"test-retest-t4"},{"Rune":"rune_07_gar","Hex":"#3366ff99","Correct":32,"Choice":32,"RT":388,"Accuracy":1,"Outcome":"-1","Keys":[1889],"TotalKeys":1,"Block":1,"Trial":119,"Robot":3,"Valence":"Lose","Action":"Go","Sham":0,"Color":"blue","trial_type":"pit-trial","trial_index":138,"time_elapsed":1328890,"internal_node_id":"0.0-127.0","task_version":"test-retest-t4"},{"Rune":"rune_07_kauna","Hex":"#3366ff99","Correct":-1,"Choice":-1,"RT":-1,"Accuracy":1,"Outcome":"-1","Keys":[],"TotalKeys":0,"Block":1,"Trial":120,"Robot":4,"Valence":"Lose","Action":"No-Go","Sham":0,"Color":"blue","trial_type":"pit-trial","trial_index":139,"time_elapsed":1332897,"internal_node_id":"0.0-128.0","task_version":"test-retest-t4"},{"view_history":"[{\"page_index\":0,\"viewing_time\":497233},{\"page_index\":1,\"viewing_time\":1042},{\"page_index\":2,\"viewing_time\":947}]","rt":499223,"trial_type":"pit-instructions","trial_index":140,"time_elapsed":1832127,"internal_node_id":"0.0-129.0","task_version":"test-retest-t4"},{"Rune":"rune_08_fehu","Hex":"#3366ff99","Correct":32,"Choice":32,"RT":238,"Accuracy":1,"Outcome":"-1","Keys":[1737],"TotalKeys":1,"Block":2,"Trial":121,"Robot":3,"Valence":"Lose","Action":"Go","Sham":0,"Color":"blue","trial_type":"pit-trial","trial_index":141,"time_elapsed":1834872,"internal_node_id":"0.0-130.0","task_version":"test-retest-t4"},{"Rune":"rune_08_pertho","Hex":"#ffcc3399","Correct":-1,"Choice":32,"RT":621,"Accuracy":0,"Outcome":"+1","Keys":[2121],"TotalKeys":1,"Block":2,"Trial":122,"Robot":2,"Valence":"Win","Action":"No-Go","Sham":0,"Color":"yellow","trial_type":"pit-trial","trial_index":142,"time_elapsed":1838002,"internal_node_id":"0.0-131.0","task_version":"test-retest-t4"},{"Rune":"rune_08_sigel","Hex":"#ffcc3399","Correct":32,"Choice":32,"RT":1296,"Accuracy":1,"Outcome":"+10","Keys":[2797],"TotalKeys":1,"Block":2,"Trial":123,"Robot":1,"Valence":"Win","Action":"Go","Sham":0,"Color":"yellow","trial_type":"pit-trial","trial_index":143,"time_elapsed":1841803,"internal_node_id":"0.0-132.0","task_version":"test-retest-t4"},{"Rune":"rune_08_mannaz","Hex":"#3366ff99","Correct":-1,"Choice":-1,"RT":-1,"Accuracy":1,"Outcome":"-1","Keys":[],"TotalKeys":0,"Block":2,"Trial":124,"Robot":4,"Valence":"Lose","Action":"No-Go","Sham":0,"Color":"blue","trial_type":"pit-trial","trial_index":144,"time_elapsed":1845808,"internal_node_id":"0.0-133.0","task_version":"test-retest-t4"},{"Rune":"rune_08_pertho","Hex":"#ffcc3399","Correct":-1,"Choice":-1,"RT":-1,"Accuracy":1,"Outcome":"+10","Keys":[],"TotalKeys":0,"Block":2,"Trial":125,"Robot":2,"Valence":"Win","Action":"No-Go","Sham":0,"Color":"yellow","trial_type":"pit-trial","trial_index":145,"time_elapsed":1849815,"internal_node_id":"0.0-134.0","task_version":"test-retest-t4"},{"Rune":"rune_08_mannaz","Hex":"#3366ff99","Correct":-1,"Choice":-1,"RT":-1,"Accuracy":1,"Outcome":"-1","Keys":[],"TotalKeys":0,"Block":2,"Trial":126,"Robot":4,"Valence":"Lose","Action":"No-Go","Sham":0,"Color":"blue","trial_type":"pit-trial","trial_index":146,"time_elapsed":1853825,"internal_node_id":"0.0-135.0","task_version":"test-retest-t4"},{"Rune":"rune_08_fehu","Hex":"#3366ff99","Correct":32,"Choice":32,"RT":329,"Accuracy":1,"Outcome":"-1","Keys":[1829],"TotalKeys":1,"Block":2,"Trial":127,"Robot":3,"Valence":"Lose","Action":"Go","Sham":0,"Color":"blue","trial_type":"pit-trial","trial_index":147,"time_elapsed":1856660,"internal_node_id":"0.0-136.0","task_version":"test-retest-t4"},{"Rune":"rune_08_sigel","Hex":"#ffcc3399","Correct":32,"Choice":32,"RT":303,"Accuracy":1,"Outcome":"+10","Keys":[1804],"TotalKeys":1,"Block":2,"Trial":128,"Robot":1,"Valence":"Win","Action":"Go","Sham":0,"Color":"yellow","trial_type":"pit-trial","trial_index":148,"time_elapsed":1859469,"internal_node_id":"0.0-137.0","task_version":"test-retest-t4"},{"Rune":"rune_08_pertho","Hex":"#ffcc3399","Correct":-1,"Choice":-1,"RT":-1,"Accuracy":1,"Outcome":"+1","Keys":[],"TotalKeys":0,"Block":2,"Trial":129,"Robot":2,"Valence":"Win","Action":"No-Go","Sham":1,"Color":"yellow","trial_type":"pit-trial","trial_index":149,"time_elapsed":1863476,"internal_node_id":"0.0-138.0","task_version":"test-retest-t4"},{"Rune":"rune_08_sigel","Hex":"#ffcc3399","Correct":32,"Choice":32,"RT":421,"Accuracy":1,"Outcome":"+1","Keys":[1921],"TotalKeys":1,"Block":2,"Trial":130,"Robot":1,"Valence":"Win","Action":"Go","Sham":1,"Color":"yellow","trial_type":"pit-trial","trial_index":150,"time_elapsed":1866403,"internal_node_id":"0.0-139.0","task_version":"test-retest-t4"},{"Rune":"rune_08_mannaz","Hex":"#3366ff99","Correct":-1,"Choice":-1,"RT":-1,"Accuracy":1,"Outcome":"-1","Keys":[],"TotalKeys":0,"Block":2,"Trial":131,"Robot":4,"Valence":"Lose","Action":"No-Go","Sham":0,"Color":"blue","trial_type":"pit-trial","trial_index":151,"time_elapsed":1870410,"internal_node_id":"0.0-140.0","task_version":"test-retest-t4"},{"Rune":"rune_08_fehu","Hex":"#3366ff99","Correct":32,"Choice":32,"RT":323,"Accuracy":1,"Outcome":"-1","Keys":[1825],"TotalKeys":1,"Block":2,"Trial":132,"Robot":3,"Valence":"Lose","Action":"Go","Sham":0,"Color":"blue","trial_type":"pit-trial","trial_index":152,"time_elapsed":1873241,"internal_node_id":"0.0-141.0","task_version":"test-retest-t4"},{"Rune":"rune_08_pertho","Hex":"#ffcc3399","Correct":-1,"Choice":-1,"RT":-1,"Accuracy":1,"Outcome":"+10","Keys":[],"TotalKeys":0,"Block":2,"Trial":133,"Robot":2,"Valence":"Win","Action":"No-Go","Sham":0,"Color":"yellow","trial_type":"pit-trial","trial_index":153,"time_elapsed":1877248,"internal_node_id":"0.0-142.0","task_version":"test-retest-t4"},{"Rune":"rune_08_mannaz","Hex":"#3366ff99","Correct":-1,"Choice":-1,"RT":-1,"Accuracy":1,"Outcome":"-1","Keys":[],"TotalKeys":0,"Block":2,"Trial":134,"Robot":4,"Valence":"Lose","Action":"No-Go","Sham":0,"Color":"blue","trial_type":"pit-trial","trial_index":154,"time_elapsed":1881251,"internal_node_id":"0.0-143.0","task_version":"test-retest-t4"},{"Rune":"rune_08_sigel","Hex":"#ffcc3399","Correct":32,"Choice":32,"RT":277,"Accuracy":1,"Outcome":"+10","Keys":[1776],"TotalKeys":1,"Block":2,"Trial":135,"Robot":1,"Valence":"Win","Action":"Go","Sham":0,"Color":"yellow","trial_type":"pit-trial","trial_index":155,"time_elapsed":1884036,"internal_node_id":"0.0-144.0","task_version":"test-retest-t4"},{"Rune":"rune_08_fehu","Hex":"#3366ff99","Correct":32,"Choice":32,"RT":432,"Accuracy":1,"Outcome":"-1","Keys":[1931],"TotalKeys":1,"Block":2,"Trial":136,"Robot":3,"Valence":"Lose","Action":"Go","Sham":0,"Color":"blue","trial_type":"pit-trial","trial_index":156,"time_elapsed":1886971,"internal_node_id":"0.0-145.0","task_version":"test-retest-t4"},{"Rune":"rune_08_pertho","Hex":"#ffcc3399","Correct":-1,"Choice":-1,"RT":-1,"Accuracy":1,"Outcome":"+10","Keys":[],"TotalKeys":0,"Block":2,"Trial":137,"Robot":2,"Valence":"Win","Action":"No-Go","Sham":0,"Color":"yellow","trial_type":"pit-trial","trial_index":157,"time_elapsed":1890978,"internal_node_id":"0.0-146.0","task_version":"test-retest-t4"},{"Rune":"rune_08_mannaz","Hex":"#3366ff99","Correct":-1,"Choice":-1,"RT":-1,"Accuracy":1,"Outcome":"-10","Keys":[],"TotalKeys":0,"Block":2,"Trial":138,"Robot":4,"Valence":"Lose","Action":"No-Go","Sham":1,"Color":"blue","trial_type":"pit-trial","trial_index":158,"time_elapsed":1894984,"internal_node_id":"0.0-147.0","task_version":"test-retest-t4"},{"Rune":"rune_08_sigel","Hex":"#ffcc3399","Correct":32,"Choice":32,"RT":327,"Accuracy":1,"Outcome":"+10","Keys":[1827],"TotalKeys":1,"Block":2,"Trial":139,"Robot":1,"Valence":"Win","Action":"Go","Sham":0,"Color":"yellow","trial_type":"pit-trial","trial_index":159,"time_elapsed":1897816,"internal_node_id":"0.0-148.0","task_version":"test-retest-t4"},{"Rune":"rune_08_fehu","Hex":"#3366ff99","Correct":32,"Choice":32,"RT":447,"Accuracy":1,"Outcome":"-10","Keys":[1946],"TotalKeys":1,"Block":2,"Trial":140,"Robot":3,"Valence":"Lose","Action":"Go","Sham":1,"Color":"blue","trial_type":"pit-trial","trial_index":160,"time_elapsed":1900770,"internal_node_id":"0.0-149.0","task_version":"test-retest-t4"},{"Rune":"rune_08_fehu","Hex":"#3366ff99","Correct":32,"Choice":32,"RT":438,"Accuracy":1,"Outcome":"-10","Keys":[1937],"TotalKeys":1,"Block":2,"Trial":141,"Robot":3,"Valence":"Lose","Action":"Go","Sham":1,"Color":"blue","trial_type":"pit-trial","trial_index":161,"time_elapsed":1903715,"internal_node_id":"0.0-150.0","task_version":"test-retest-t4"},{"Rune":"rune_08_pertho","Hex":"#ffcc3399","Correct":-1,"Choice":-1,"RT":-1,"Accuracy":1,"Outcome":"+10","Keys":[],"TotalKeys":0,"Block":2,"Trial":142,"Robot":2,"Valence":"Win","Action":"No-Go","Sham":0,"Color":"yellow","trial_type":"pit-trial","trial_index":162,"time_elapsed":1907724,"internal_node_id":"0.0-151.0","task_version":"test-retest-t4"},{"Rune":"rune_08_mannaz","Hex":"#3366ff99","Correct":-1,"Choice":32,"RT":303,"Accuracy":0,"Outcome":"-1","Keys":[1803],"TotalKeys":1,"Block":2,"Trial":143,"Robot":4,"Valence":"Lose","Action":"No-Go","Sham":1,"Color":"blue","trial_type":"pit-trial","trial_index":163,"time_elapsed":1910531,"internal_node_id":"0.0-152.0","task_version":"test-retest-t4"},{"Rune":"rune_08_sigel","Hex":"#ffcc3399","Correct":32,"Choice":32,"RT":261,"Accuracy":1,"Outcome":"+10","Keys":[1763],"TotalKeys":1,"Block":2,"Trial":144,"Robot":1,"Valence":"Win","Action":"Go","Sham":0,"Color":"yellow","trial_type":"pit-trial","trial_index":164,"time_elapsed":1913296,"internal_node_id":"0.0-153.0","task_version":"test-retest-t4"},{"Rune":"rune_08_sigel","Hex":"#ffcc3399","Correct":32,"Choice":32,"RT":489,"Accuracy":1,"Outcome":"+1","Keys":[1990],"TotalKeys":1,"Block":2,"Trial":145,"Robot":1,"Valence":"Win","Action":"Go","Sham":1,"Color":"yellow","trial_type":"pit-trial","trial_index":165,"time_elapsed":1916289,"internal_node_id":"0.0-154.0","task_version":"test-retest-t4"},{"Rune":"rune_08_pertho","Hex":"#ffcc3399","Correct":-1,"Choice":-1,"RT":-1,"Accuracy":1,"Outcome":"+10","Keys":[],"TotalKeys":0,"Block":2,"Trial":146,"Robot":2,"Valence":"Win","Action":"No-Go","Sham":0,"Color":"yellow","trial_type":"pit-trial","trial_index":166,"time_elapsed":1920290,"internal_node_id":"0.0-155.0","task_version":"test-retest-t4"},{"Rune":"rune_08_fehu","Hex":"#3366ff99","Correct":32,"Choice":-1,"RT":-1,"Accuracy":0,"Outcome":"-10","Keys":[],"TotalKeys":0,"Block":2,"Trial":147,"Robot":3,"Valence":"Lose","Action":"Go","Sham":0,"Color":"blue","trial_type":"pit-trial","trial_index":167,"time_elapsed":1924295,"internal_node_id":"0.0-156.0","task_version":"test-retest-t4"},{"Rune":"rune_08_mannaz","Hex":"#3366ff99","Correct":-1,"Choice":32,"RT":435,"Accuracy":0,"Outcome":"-10","Keys":[1935],"TotalKeys":1,"Block":2,"Trial":148,"Robot":4,"Valence":"Lose","Action":"No-Go","Sham":0,"Color":"blue","trial_type":"pit-trial","trial_index":168,"time_elapsed":1927233,"internal_node_id":"0.0-157.0","task_version":"test-retest-t4"},{"Rune":"rune_08_sigel","Hex":"#ffcc3399","Correct":32,"Choice":32,"RT":347,"Accuracy":1,"Outcome":"+10","Keys":[1847],"TotalKeys":1,"Block":2,"Trial":149,"Robot":1,"Valence":"Win","Action":"Go","Sham":0,"Color":"yellow","trial_type":"pit-trial","trial_index":169,"time_elapsed":1930083,"internal_node_id":"0.0-158.0","task_version":"test-retest-t4"},{"Rune":"rune_08_pertho","Hex":"#ffcc3399","Correct":-1,"Choice":-1,"RT":-1,"Accuracy":1,"Outcome":"+1","Keys":[],"TotalKeys":0,"Block":2,"Trial":150,"Robot":2,"Valence":"Win","Action":"No-Go","Sham":1,"Color":"yellow","trial_type":"pit-trial","trial_index":170,"time_elapsed":1934092,"internal_node_id":"0.0-159.0","task_version":"test-retest-t4"},{"Rune":"rune_08_fehu","Hex":"#3366ff99","Correct":32,"Choice":32,"RT":343,"Accuracy":1,"Outcome":"-1","Keys":[1844],"TotalKeys":1,"Block":2,"Trial":151,"Robot":3,"Valence":"Lose","Action":"Go","Sham":0,"Color":"blue","trial_type":"pit-trial","trial_index":171,"time_elapsed":1936942,"internal_node_id":"0.0-160.0","task_version":"test-retest-t4"},{"Rune":"rune_08_mannaz","Hex":"#3366ff99","Correct":-1,"Choice":-1,"RT":-1,"Accuracy":1,"Outcome":"-1","Keys":[],"TotalKeys":0,"Block":2,"Trial":152,"Robot":4,"Valence":"Lose","Action":"No-Go","Sham":0,"Color":"blue","trial_type":"pit-trial","trial_index":172,"time_elapsed":1940948,"internal_node_id":"0.0-161.0","task_version":"test-retest-t4"},{"Rune":"rune_08_pertho","Hex":"#ffcc3399","Correct":-1,"Choice":-1,"RT":-1,"Accuracy":1,"Outcome":"+10","Keys":[],"TotalKeys":0,"Block":2,"Trial":153,"Robot":2,"Valence":"Win","Action":"No-Go","Sham":0,"Color":"yellow","trial_type":"pit-trial","trial_index":173,"time_elapsed":1944955,"internal_node_id":"0.0-162.0","task_version":"test-retest-t4"},{"Rune":"rune_08_fehu","Hex":"#3366ff99","Correct":32,"Choice":32,"RT":396,"Accuracy":1,"Outcome":"-1","Keys":[1897],"TotalKeys":1,"Block":2,"Trial":154,"Robot":3,"Valence":"Lose","Action":"Go","Sham":0,"Color":"blue","trial_type":"pit-trial","trial_index":174,"time_elapsed":1947857,"internal_node_id":"0.0-163.0","task_version":"test-retest-t4"},{"Rune":"rune_08_sigel","Hex":"#ffcc3399","Correct":32,"Choice":32,"RT":399,"Accuracy":1,"Outcome":"+10","Keys":[1901],"TotalKeys":1,"Block":2,"Trial":155,"Robot":1,"Valence":"Win","Action":"Go","Sham":0,"Color":"yellow","trial_type":"pit-trial","trial_index":175,"time_elapsed":1950764,"internal_node_id":"0.0-164.0","task_version":"test-retest-t4"},{"Rune":"rune_08_mannaz","Hex":"#3366ff99","Correct":-1,"Choice":-1,"RT":-1,"Accuracy":1,"Outcome":"-1","Keys":[],"TotalKeys":0,"Block":2,"Trial":156,"Robot":4,"Valence":"Lose","Action":"No-Go","Sham":0,"Color":"blue","trial_type":"pit-trial","trial_index":176,"time_elapsed":1954771,"internal_node_id":"0.0-165.0","task_version":"test-retest-t4"},{"Rune":"rune_08_pertho","Hex":"#ffcc3399","Correct":-1,"Choice":-1,"RT":-1,"Accuracy":1,"Outcome":"+10","Keys":[],"TotalKeys":0,"Block":2,"Trial":157,"Robot":2,"Valence":"Win","Action":"No-Go","Sham":0,"Color":"yellow","trial_type":"pit-trial","trial_index":177,"time_elapsed":1958777,"internal_node_id":"0.0-166.0","task_version":"test-retest-t4"},{"Rune":"rune_08_mannaz","Hex":"#3366ff99","Correct":-1,"Choice":-1,"RT":-1,"Accuracy":1,"Outcome":"-1","Keys":[],"TotalKeys":0,"Block":2,"Trial":158,"Robot":4,"Valence":"Lose","Action":"No-Go","Sham":0,"Color":"blue","trial_type":"pit-trial","trial_index":178,"time_elapsed":1962780,"internal_node_id":"0.0-167.0","task_version":"test-retest-t4"},{"Rune":"rune_08_sigel","Hex":"#ffcc3399","Correct":32,"Choice":32,"RT":300,"Accuracy":1,"Outcome":"+10","Keys":[1801],"TotalKeys":1,"Block":2,"Trial":159,"Robot":1,"Valence":"Win","Action":"Go","Sham":0,"Color":"yellow","trial_type":"pit-trial","trial_index":179,"time_elapsed":1965585,"internal_node_id":"0.0-168.0","task_version":"test-retest-t4"},{"Rune":"rune_08_fehu","Hex":"#3366ff99","Correct":32,"Choice":32,"RT":632,"Accuracy":1,"Outcome":"-1","Keys":[2132],"TotalKeys":1,"Block":2,"Trial":160,"Robot":3,"Valence":"Lose","Action":"Go","Sham":0,"Color":"blue","trial_type":"pit-trial","trial_index":180,"time_elapsed":1968721,"internal_node_id":"0.0-169.0","task_version":"test-retest-t4"},{"Rune":"rune_08_fehu","Hex":"#3366ff99","Correct":32,"Choice":32,"RT":472,"Accuracy":1,"Outcome":"-1","Keys":[1973],"TotalKeys":1,"Block":2,"Trial":161,"Robot":3,"Valence":"Lose","Action":"Go","Sham":0,"Color":"blue","trial_type":"pit-trial","trial_index":181,"time_elapsed":1971705,"internal_node_id":"0.0-170.0","task_version":"test-retest-t4"},{"Rune":"rune_08_pertho","Hex":"#ffcc3399","Correct":-1,"Choice":-1,"RT":-1,"Accuracy":1,"Outcome":"+10","Keys":[],"TotalKeys":0,"Block":2,"Trial":162,"Robot":2,"Valence":"Win","Action":"No-Go","Sham":0,"Color":"yellow","trial_type":"pit-trial","trial_index":182,"time_elapsed":1975711,"internal_node_id":"0.0-171.0","task_version":"test-retest-t4"},{"Rune":"rune_08_sigel","Hex":"#ffcc3399","Correct":32,"Choice":32,"RT":276,"Accuracy":1,"Outcome":"+1","Keys":[1776],"TotalKeys":1,"Block":2,"Trial":163,"Robot":1,"Valence":"Win","Action":"Go","Sham":1,"Color":"yellow","trial_type":"pit-trial","trial_index":183,"time_elapsed":1978488,"internal_node_id":"0.0-172.0","task_version":"test-retest-t4"},{"Rune":"rune_08_mannaz","Hex":"#3366ff99","Correct":-1,"Choice":-1,"RT":-1,"Accuracy":1,"Outcome":"-1","Keys":[],"TotalKeys":0,"Block":2,"Trial":164,"Robot":4,"Valence":"Lose","Action":"No-Go","Sham":0,"Color":"blue","trial_type":"pit-trial","trial_index":184,"time_elapsed":1982492,"internal_node_id":"0.0-173.0","task_version":"test-retest-t4"},{"Rune":"rune_08_fehu","Hex":"#3366ff99","Correct":32,"Choice":32,"RT":287,"Accuracy":1,"Outcome":"-1","Keys":[1788],"TotalKeys":1,"Block":2,"Trial":165,"Robot":3,"Valence":"Lose","Action":"Go","Sham":0,"Color":"blue","trial_type":"pit-trial","trial_index":185,"time_elapsed":1985282,"internal_node_id":"0.0-174.0","task_version":"test-retest-t4"},{"Rune":"rune_08_pertho","Hex":"#ffcc3399","Correct":-1,"Choice":32,"RT":294,"Accuracy":0,"Outcome":"+10","Keys":[1796],"TotalKeys":1,"Block":2,"Trial":166,"Robot":2,"Valence":"Win","Action":"No-Go","Sham":1,"Color":"yellow","trial_type":"pit-trial","trial_index":186,"time_elapsed":1988085,"internal_node_id":"0.0-175.0","task_version":"test-retest-t4"},{"Rune":"rune_08_sigel","Hex":"#ffcc3399","Correct":32,"Choice":32,"RT":271,"Accuracy":1,"Outcome":"+10","Keys":[1771],"TotalKeys":1,"Block":2,"Trial":167,"Robot":1,"Valence":"Win","Action":"Go","Sham":0,"Color":"yellow","trial_type":"pit-trial","trial_index":187,"time_elapsed":1990865,"internal_node_id":"0.0-176.0","task_version":"test-retest-t4"},{"Rune":"rune_08_mannaz","Hex":"#3366ff99","Correct":-1,"Choice":-1,"RT":-1,"Accuracy":1,"Outcome":"-1","Keys":[],"TotalKeys":0,"Block":2,"Trial":168,"Robot":4,"Valence":"Lose","Action":"No-Go","Sham":0,"Color":"blue","trial_type":"pit-trial","trial_index":188,"time_elapsed":1994872,"internal_node_id":"0.0-177.0","task_version":"test-retest-t4"},{"Rune":"rune_08_mannaz","Hex":"#3366ff99","Correct":-1,"Choice":-1,"RT":-1,"Accuracy":1,"Outcome":"-10","Keys":[],"TotalKeys":0,"Block":2,"Trial":169,"Robot":4,"Valence":"Lose","Action":"No-Go","Sham":1,"Color":"blue","trial_type":"pit-trial","trial_index":189,"time_elapsed":1998879,"internal_node_id":"0.0-178.0","task_version":"test-retest-t4"},{"Rune":"rune_08_fehu","Hex":"#3366ff99","Correct":32,"Choice":32,"RT":321,"Accuracy":1,"Outcome":"-1","Keys":[1822],"TotalKeys":1,"Block":2,"Trial":170,"Robot":3,"Valence":"Lose","Action":"Go","Sham":0,"Color":"blue","trial_type":"pit-trial","trial_index":190,"time_elapsed":2001704,"internal_node_id":"0.0-179.0","task_version":"test-retest-t4"},{"Rune":"rune_08_pertho","Hex":"#ffcc3399","Correct":-1,"Choice":-1,"RT":-1,"Accuracy":1,"Outcome":"+10","Keys":[],"TotalKeys":0,"Block":2,"Trial":171,"Robot":2,"Valence":"Win","Action":"No-Go","Sham":0,"Color":"yellow","trial_type":"pit-trial","trial_index":191,"time_elapsed":2005708,"internal_node_id":"0.0-180.0","task_version":"test-retest-t4"},{"Rune":"rune_08_sigel","Hex":"#ffcc3399","Correct":32,"Choice":32,"RT":296,"Accuracy":1,"Outcome":"+10","Keys":[1795],"TotalKeys":1,"Block":2,"Trial":172,"Robot":1,"Valence":"Win","Action":"Go","Sham":0,"Color":"yellow","trial_type":"pit-trial","trial_index":192,"time_elapsed":2008506,"internal_node_id":"0.0-181.0","task_version":"test-retest-t4"},{"Rune":"rune_08_mannaz","Hex":"#3366ff99","Correct":-1,"Choice":-1,"RT":-1,"Accuracy":1,"Outcome":"-1","Keys":[],"TotalKeys":0,"Block":2,"Trial":173,"Robot":4,"Valence":"Lose","Action":"No-Go","Sham":0,"Color":"blue","trial_type":"pit-trial","trial_index":193,"time_elapsed":2012511,"internal_node_id":"0.0-182.0","task_version":"test-retest-t4"},{"Rune":"rune_08_pertho","Hex":"#ffcc3399","Correct":-1,"Choice":-1,"RT":-1,"Accuracy":1,"Outcome":"+10","Keys":[],"TotalKeys":0,"Block":2,"Trial":174,"Robot":2,"Valence":"Win","Action":"No-Go","Sham":0,"Color":"yellow","trial_type":"pit-trial","trial_index":194,"time_elapsed":2016515,"internal_node_id":"0.0-183.0","task_version":"test-retest-t4"},{"Rune":"rune_08_fehu","Hex":"#3366ff99","Correct":32,"Choice":32,"RT":446,"Accuracy":1,"Outcome":"-10","Keys":[1947],"TotalKeys":1,"Block":2,"Trial":175,"Robot":3,"Valence":"Lose","Action":"Go","Sham":1,"Color":"blue","trial_type":"pit-trial","trial_index":195,"time_elapsed":2019469,"internal_node_id":"0.0-184.0","task_version":"test-retest-t4"},{"Rune":"rune_08_sigel","Hex":"#ffcc3399","Correct":32,"Choice":32,"RT":308,"Accuracy":1,"Outcome":"+10","Keys":[1809],"TotalKeys":1,"Block":2,"Trial":176,"Robot":1,"Valence":"Win","Action":"Go","Sham":0,"Color":"yellow","trial_type":"pit-trial","trial_index":196,"time_elapsed":2022281,"internal_node_id":"0.0-185.0","task_version":"test-retest-t4"},{"Rune":"rune_08_sigel","Hex":"#ffcc3399","Correct":32,"Choice":32,"RT":321,"Accuracy":1,"Outcome":"+10","Keys":[1822],"TotalKeys":1,"Block":2,"Trial":177,"Robot":1,"Valence":"Win","Action":"Go","Sham":0,"Color":"yellow","trial_type":"pit-trial","trial_index":197,"time_elapsed":2025107,"internal_node_id":"0.0-186.0","task_version":"test-retest-t4"},{"Rune":"rune_08_fehu","Hex":"#3366ff99","Correct":32,"Choice":32,"RT":374,"Accuracy":1,"Outcome":"-1","Keys":[1873],"TotalKeys":1,"Block":2,"Trial":178,"Robot":3,"Valence":"Lose","Action":"Go","Sham":0,"Color":"blue","trial_type":"pit-trial","trial_index":198,"time_elapsed":2027989,"internal_node_id":"0.0-187.0","task_version":"test-retest-t4"},{"Rune":"rune_08_pertho","Hex":"#ffcc3399","Correct":-1,"Choice":-1,"RT":-1,"Accuracy":1,"Outcome":"+10","Keys":[],"TotalKeys":0,"Block":2,"Trial":179,"Robot":2,"Valence":"Win","Action":"No-Go","Sham":0,"Color":"yellow","trial_type":"pit-trial","trial_index":199,"time_elapsed":2031996,"internal_node_id":"0.0-188.0","task_version":"test-retest-t4"},{"Rune":"rune_08_mannaz","Hex":"#3366ff99","Correct":-1,"Choice":-1,"RT":-1,"Accuracy":1,"Outcome":"-1","Keys":[],"TotalKeys":0,"Block":2,"Trial":180,"Robot":4,"Valence":"Lose","Action":"No-Go","Sham":0,"Color":"blue","trial_type":"pit-trial","trial_index":200,"time_elapsed":2036002,"internal_node_id":"0.0-189.0","task_version":"test-retest-t4"},{"view_history":"[{\"page_index\":0,\"viewing_time\":181595},{\"page_index\":1,\"viewing_time\":1002}]","rt":182597,"trial_type":"pit-instructions","trial_index":201,"time_elapsed":2218601,"internal_node_id":"0.0-190.0","task_version":"test-retest-t4"},{"Rune":"rune_08_fehu","Hex":"#3366ff99","Correct":32,"Choice":32,"RT":272,"Accuracy":1,"Outcome":"-1","Keys":[1774],"TotalKeys":1,"Block":2,"Trial":181,"Robot":3,"Valence":"Lose","Action":"Go","Sham":0,"Color":"blue","trial_type":"pit-trial","trial_index":202,"time_elapsed":2221385,"internal_node_id":"0.0-191.0","task_version":"test-retest-t4"},{"Rune":"rune_08_sigel","Hex":"#ffcc3399","Correct":32,"Choice":32,"RT":257,"Accuracy":1,"Outcome":"+10","Keys":[1758],"TotalKeys":1,"Block":2,"Trial":182,"Robot":1,"Valence":"Win","Action":"Go","Sham":0,"Color":"yellow","trial_type":"pit-trial","trial_index":203,"time_elapsed":2224147,"internal_node_id":"0.0-192.0","task_version":"test-retest-t4"},{"Rune":"rune_08_mannaz","Hex":"#3366ff99","Correct":-1,"Choice":-1,"RT":-1,"Accuracy":1,"Outcome":"-1","Keys":[],"TotalKeys":0,"Block":2,"Trial":183,"Robot":4,"Valence":"Lose","Action":"No-Go","Sham":0,"Color":"blue","trial_type":"pit-trial","trial_index":204,"time_elapsed":2228151,"internal_node_id":"0.0-193.0","task_version":"test-retest-t4"},{"Rune":"rune_08_pertho","Hex":"#ffcc3399","Correct":-1,"Choice":-1,"RT":-1,"Accuracy":1,"Outcome":"+10","Keys":[],"TotalKeys":0,"Block":2,"Trial":184,"Robot":2,"Valence":"Win","Action":"No-Go","Sham":0,"Color":"yellow","trial_type":"pit-trial","trial_index":205,"time_elapsed":2232155,"internal_node_id":"0.0-194.0","task_version":"test-retest-t4"},{"Rune":"rune_08_mannaz","Hex":"#3366ff99","Correct":-1,"Choice":-1,"RT":-1,"Accuracy":1,"Outcome":"-10","Keys":[],"TotalKeys":0,"Block":2,"Trial":185,"Robot":4,"Valence":"Lose","Action":"No-Go","Sham":1,"Color":"blue","trial_type":"pit-trial","trial_index":206,"time_elapsed":2236158,"internal_node_id":"0.0-195.0","task_version":"test-retest-t4"},{"Rune":"rune_08_fehu","Hex":"#3366ff99","Correct":32,"Choice":32,"RT":333,"Accuracy":1,"Outcome":"-1","Keys":[1833],"TotalKeys":1,"Block":2,"Trial":186,"Robot":3,"Valence":"Lose","Action":"Go","Sham":0,"Color":"blue","trial_type":"pit-trial","trial_index":207,"time_elapsed":2238997,"internal_node_id":"0.0-196.0","task_version":"test-retest-t4"},{"Rune":"rune_08_pertho","Hex":"#ffcc3399","Correct":-1,"Choice":-1,"RT":-1,"Accuracy":1,"Outcome":"+10","Keys":[],"TotalKeys":0,"Block":2,"Trial":187,"Robot":2,"Valence":"Win","Action":"No-Go","Sham":0,"Color":"yellow","trial_type":"pit-trial","trial_index":208,"time_elapsed":2243005,"internal_node_id":"0.0-197.0","task_version":"test-retest-t4"},{"Rune":"rune_08_sigel","Hex":"#ffcc3399","Correct":32,"Choice":32,"RT":297,"Accuracy":1,"Outcome":"+10","Keys":[1798],"TotalKeys":1,"Block":2,"Trial":188,"Robot":1,"Valence":"Win","Action":"Go","Sham":0,"Color":"yellow","trial_type":"pit-trial","trial_index":209,"time_elapsed":2245809,"internal_node_id":"0.0-198.0","task_version":"test-retest-t4"},{"Rune":"rune_08_pertho","Hex":"#ffcc3399","Correct":-1,"Choice":-1,"RT":-1,"Accuracy":1,"Outcome":"+10","Keys":[],"TotalKeys":0,"Block":2,"Trial":189,"Robot":2,"Valence":"Win","Action":"No-Go","Sham":0,"Color":"yellow","trial_type":"pit-trial","trial_index":210,"time_elapsed":2249811,"internal_node_id":"0.0-199.0","task_version":"test-retest-t4"},{"Rune":"rune_08_mannaz","Hex":"#3366ff99","Correct":-1,"Choice":-1,"RT":-1,"Accuracy":1,"Outcome":"-1","Keys":[],"TotalKeys":0,"Block":2,"Trial":190,"Robot":4,"Valence":"Lose","Action":"No-Go","Sham":0,"Color":"blue","trial_type":"pit-trial","trial_index":211,"time_elapsed":2253813,"internal_node_id":"0.0-200.0","task_version":"test-retest-t4"},{"Rune":"rune_08_sigel","Hex":"#ffcc3399","Correct":32,"Choice":32,"RT":339,"Accuracy":1,"Outcome":"+1","Keys":[1840],"TotalKeys":1,"Block":2,"Trial":191,"Robot":1,"Valence":"Win","Action":"Go","Sham":1,"Color":"yellow","trial_type":"pit-trial","trial_index":212,"time_elapsed":2256659,"internal_node_id":"0.0-201.0","task_version":"test-retest-t4"},{"Rune":"rune_08_fehu","Hex":"#3366ff99","Correct":32,"Choice":32,"RT":463,"Accuracy":1,"Outcome":"-1","Keys":[1963],"TotalKeys":1,"Block":2,"Trial":192,"Robot":3,"Valence":"Lose","Action":"Go","Sham":0,"Color":"blue","trial_type":"pit-trial","trial_index":213,"time_elapsed":2259628,"internal_node_id":"0.0-202.0","task_version":"test-retest-t4"},{"Rune":"rune_08_fehu","Hex":"#3366ff99","Correct":32,"Choice":32,"RT":452,"Accuracy":1,"Outcome":"-10","Keys":[1952],"TotalKeys":1,"Block":2,"Trial":193,"Robot":3,"Valence":"Lose","Action":"Go","Sham":1,"Color":"blue","trial_type":"pit-trial","trial_index":214,"time_elapsed":2262584,"internal_node_id":"0.0-203.0","task_version":"test-retest-t4"},{"Rune":"rune_08_pertho","Hex":"#ffcc3399","Correct":-1,"Choice":-1,"RT":-1,"Accuracy":1,"Outcome":"+10","Keys":[],"TotalKeys":0,"Block":2,"Trial":194,"Robot":2,"Valence":"Win","Action":"No-Go","Sham":0,"Color":"yellow","trial_type":"pit-trial","trial_index":215,"time_elapsed":2266586,"internal_node_id":"0.0-204.0","task_version":"test-retest-t4"},{"Rune":"rune_08_sigel","Hex":"#ffcc3399","Correct":32,"Choice":32,"RT":305,"Accuracy":1,"Outcome":"+10","Keys":[1806],"TotalKeys":1,"Block":2,"Trial":195,"Robot":1,"Valence":"Win","Action":"Go","Sham":0,"Color":"yellow","trial_type":"pit-trial","trial_index":216,"time_elapsed":2269397,"internal_node_id":"0.0-205.0","task_version":"test-retest-t4"},{"Rune":"rune_08_mannaz","Hex":"#3366ff99","Correct":-1,"Choice":-1,"RT":-1,"Accuracy":1,"Outcome":"-1","Keys":[],"TotalKeys":0,"Block":2,"Trial":196,"Robot":4,"Valence":"Lose","Action":"No-Go","Sham":0,"Color":"blue","trial_type":"pit-trial","trial_index":217,"time_elapsed":2273404,"internal_node_id":"0.0-206.0","task_version":"test-retest-t4"},{"Rune":"rune_08_mannaz","Hex":"#3366ff99","Correct":-1,"Choice":-1,"RT":-1,"Accuracy":1,"Outcome":"-1","Keys":[],"TotalKeys":0,"Block":2,"Trial":197,"Robot":4,"Valence":"Lose","Action":"No-Go","Sham":0,"Color":"blue","trial_type":"pit-trial","trial_index":218,"time_elapsed":2277409,"internal_node_id":"0.0-207.0","task_version":"test-retest-t4"},{"Rune":"rune_08_sigel","Hex":"#ffcc3399","Correct":32,"Choice":32,"RT":362,"Accuracy":1,"Outcome":"+10","Keys":[1864],"TotalKeys":1,"Block":2,"Trial":198,"Robot":1,"Valence":"Win","Action":"Go","Sham":0,"Color":"yellow","trial_type":"pit-trial","trial_index":219,"time_elapsed":2280274,"internal_node_id":"0.0-208.0","task_version":"test-retest-t4"},{"Rune":"rune_08_pertho","Hex":"#ffcc3399","Correct":-1,"Choice":-1,"RT":-1,"Accuracy":1,"Outcome":"+1","Keys":[],"TotalKeys":0,"Block":2,"Trial":199,"Robot":2,"Valence":"Win","Action":"No-Go","Sham":1,"Color":"yellow","trial_type":"pit-trial","trial_index":220,"time_elapsed":2284279,"internal_node_id":"0.0-209.0","task_version":"test-retest-t4"},{"Rune":"rune_08_fehu","Hex":"#3366ff99","Correct":32,"Choice":32,"RT":417,"Accuracy":1,"Outcome":"-1","Keys":[1917],"TotalKeys":1,"Block":2,"Trial":200,"Robot":3,"Valence":"Lose","Action":"Go","Sham":0,"Color":"blue","trial_type":"pit-trial","trial_index":221,"time_elapsed":2287205,"internal_node_id":"0.0-210.0","task_version":"test-retest-t4"},{"Rune":"rune_08_fehu","Hex":"#3366ff99","Correct":32,"Choice":32,"RT":405,"Accuracy":1,"Outcome":"-1","Keys":[1906],"TotalKeys":1,"Block":2,"Trial":201,"Robot":3,"Valence":"Lose","Action":"Go","Sham":0,"Color":"blue","trial_type":"pit-trial","trial_index":222,"time_elapsed":2290116,"internal_node_id":"0.0-211.0","task_version":"test-retest-t4"},{"Rune":"rune_08_mannaz","Hex":"#3366ff99","Correct":-1,"Choice":-1,"RT":-1,"Accuracy":1,"Outcome":"-1","Keys":[],"TotalKeys":0,"Block":2,"Trial":202,"Robot":4,"Valence":"Lose","Action":"No-Go","Sham":0,"Color":"blue","trial_type":"pit-trial","trial_index":223,"time_elapsed":2294125,"internal_node_id":"0.0-212.0","task_version":"test-retest-t4"},{"Rune":"rune_08_pertho","Hex":"#ffcc3399","Correct":-1,"Choice":-1,"RT":-1,"Accuracy":1,"Outcome":"+1","Keys":[],"TotalKeys":0,"Block":2,"Trial":203,"Robot":2,"Valence":"Win","Action":"No-Go","Sham":1,"Color":"yellow","trial_type":"pit-trial","trial_index":224,"time_elapsed":2298131,"internal_node_id":"0.0-213.0","task_version":"test-retest-t4"},{"Rune":"rune_08_sigel","Hex":"#ffcc3399","Correct":32,"Choice":32,"RT":338,"Accuracy":1,"Outcome":"+1","Keys":[1838],"TotalKeys":1,"Block":2,"Trial":204,"Robot":1,"Valence":"Win","Action":"Go","Sham":1,"Color":"yellow","trial_type":"pit-trial","trial_index":225,"time_elapsed":2300972,"internal_node_id":"0.0-214.0","task_version":"test-retest-t4"},{"Rune":"rune_08_fehu","Hex":"#3366ff99","Correct":32,"Choice":32,"RT":358,"Accuracy":1,"Outcome":"-1","Keys":[1859],"TotalKeys":1,"Block":2,"Trial":205,"Robot":3,"Valence":"Lose","Action":"Go","Sham":0,"Color":"blue","trial_type":"pit-trial","trial_index":226,"time_elapsed":2303834,"internal_node_id":"0.0-215.0","task_version":"test-retest-t4"},{"Rune":"rune_08_sigel","Hex":"#ffcc3399","Correct":32,"Choice":32,"RT":410,"Accuracy":1,"Outcome":"+10","Keys":[1910],"TotalKeys":1,"Block":2,"Trial":206,"Robot":1,"Valence":"Win","Action":"Go","Sham":0,"Color":"yellow","trial_type":"pit-trial","trial_index":227,"time_elapsed":2306749,"internal_node_id":"0.0-216.0","task_version":"test-retest-t4"},{"Rune":"rune_08_pertho","Hex":"#ffcc3399","Correct":-1,"Choice":-1,"RT":-1,"Accuracy":1,"Outcome":"+10","Keys":[],"TotalKeys":0,"Block":2,"Trial":207,"Robot":2,"Valence":"Win","Action":"No-Go","Sham":0,"Color":"yellow","trial_type":"pit-trial","trial_index":228,"time_elapsed":2310756,"internal_node_id":"0.0-217.0","task_version":"test-retest-t4"},{"Rune":"rune_08_mannaz","Hex":"#3366ff99","Correct":-1,"Choice":-1,"RT":-1,"Accuracy":1,"Outcome":"-1","Keys":[],"TotalKeys":0,"Block":2,"Trial":208,"Robot":4,"Valence":"Lose","Action":"No-Go","Sham":0,"Color":"blue","trial_type":"pit-trial","trial_index":229,"time_elapsed":2314766,"internal_node_id":"0.0-218.0","task_version":"test-retest-t4"},{"Rune":"rune_08_pertho","Hex":"#ffcc3399","Correct":-1,"Choice":-1,"RT":-1,"Accuracy":1,"Outcome":"+10","Keys":[],"TotalKeys":0,"Block":2,"Trial":209,"Robot":2,"Valence":"Win","Action":"No-Go","Sham":0,"Color":"yellow","trial_type":"pit-trial","trial_index":230,"time_elapsed":2318771,"internal_node_id":"0.0-219.0","task_version":"test-retest-t4"},{"Rune":"rune_08_sigel","Hex":"#ffcc3399","Correct":32,"Choice":32,"RT":360,"Accuracy":1,"Outcome":"+10","Keys":[1859],"TotalKeys":1,"Block":2,"Trial":210,"Robot":1,"Valence":"Win","Action":"Go","Sham":0,"Color":"yellow","trial_type":"pit-trial","trial_index":231,"time_elapsed":2321636,"internal_node_id":"0.0-220.0","task_version":"test-retest-t4"},{"Rune":"rune_08_fehu","Hex":"#3366ff99","Correct":32,"Choice":32,"RT":397,"Accuracy":1,"Outcome":"-10","Keys":[1896],"TotalKeys":1,"Block":2,"Trial":211,"Robot":3,"Valence":"Lose","Action":"Go","Sham":1,"Color":"blue","trial_type":"pit-trial","trial_index":232,"time_elapsed":2324540,"internal_node_id":"0.0-221.0","task_version":"test-retest-t4"},{"Rune":"rune_08_mannaz","Hex":"#3366ff99","Correct":-1,"Choice":-1,"RT":-1,"Accuracy":1,"Outcome":"-1","Keys":[],"TotalKeys":0,"Block":2,"Trial":212,"Robot":4,"Valence":"Lose","Action":"No-Go","Sham":0,"Color":"blue","trial_type":"pit-trial","trial_index":233,"time_elapsed":2328546,"internal_node_id":"0.0-222.0","task_version":"test-retest-t4"},{"Rune":"rune_08_pertho","Hex":"#ffcc3399","Correct":-1,"Choice":-1,"RT":-1,"Accuracy":1,"Outcome":"+10","Keys":[],"TotalKeys":0,"Block":2,"Trial":213,"Robot":2,"Valence":"Win","Action":"No-Go","Sham":0,"Color":"yellow","trial_type":"pit-trial","trial_index":234,"time_elapsed":2332552,"internal_node_id":"0.0-223.0","task_version":"test-retest-t4"},{"Rune":"rune_08_sigel","Hex":"#ffcc3399","Correct":32,"Choice":32,"RT":328,"Accuracy":1,"Outcome":"+10","Keys":[1829],"TotalKeys":1,"Block":2,"Trial":214,"Robot":1,"Valence":"Win","Action":"Go","Sham":0,"Color":"yellow","trial_type":"pit-trial","trial_index":235,"time_elapsed":2335388,"internal_node_id":"0.0-224.0","task_version":"test-retest-t4"},{"Rune":"rune_08_mannaz","Hex":"#3366ff99","Correct":-1,"Choice":-1,"RT":-1,"Accuracy":1,"Outcome":"-1","Keys":[],"TotalKeys":0,"Block":2,"Trial":215,"Robot":4,"Valence":"Lose","Action":"No-Go","Sham":0,"Color":"blue","trial_type":"pit-trial","trial_index":236,"time_elapsed":2339393,"internal_node_id":"0.0-225.0","task_version":"test-retest-t4"},{"Rune":"rune_08_fehu","Hex":"#3366ff99","Correct":32,"Choice":32,"RT":997,"Accuracy":1,"Outcome":"-1","Keys":[2499],"TotalKeys":1,"Block":2,"Trial":216,"Robot":3,"Valence":"Lose","Action":"Go","Sham":0,"Color":"blue","trial_type":"pit-trial","trial_index":237,"time_elapsed":2342898,"internal_node_id":"0.0-226.0","task_version":"test-retest-t4"},{"Rune":"rune_08_fehu","Hex":"#3366ff99","Correct":32,"Choice":32,"RT":760,"Accuracy":1,"Outcome":"-1","Keys":[2261],"TotalKeys":1,"Block":2,"Trial":217,"Robot":3,"Valence":"Lose","Action":"Go","Sham":0,"Color":"blue","trial_type":"pit-trial","trial_index":238,"time_elapsed":2346161,"internal_node_id":"0.0-227.0","task_version":"test-retest-t4"},{"Rune":"rune_08_pertho","Hex":"#ffcc3399","Correct":-1,"Choice":-1,"RT":-1,"Accuracy":1,"Outcome":"+10","Keys":[],"TotalKeys":0,"Block":2,"Trial":218,"Robot":2,"Valence":"Win","Action":"No-Go","Sham":0,"Color":"yellow","trial_type":"pit-trial","trial_index":239,"time_elapsed":2350166,"internal_node_id":"0.0-228.0","task_version":"test-retest-t4"},{"Rune":"rune_08_sigel","Hex":"#ffcc3399","Correct":32,"Choice":32,"RT":353,"Accuracy":1,"Outcome":"+10","Keys":[1855],"TotalKeys":1,"Block":2,"Trial":219,"Robot":1,"Valence":"Win","Action":"Go","Sham":0,"Color":"yellow","trial_type":"pit-trial","trial_index":240,"time_elapsed":2353025,"internal_node_id":"0.0-229.0","task_version":"test-retest-t4"},{"Rune":"rune_08_mannaz","Hex":"#3366ff99","Correct":-1,"Choice":-1,"RT":-1,"Accuracy":1,"Outcome":"-10","Keys":[],"TotalKeys":0,"Block":2,"Trial":220,"Robot":4,"Valence":"Lose","Action":"No-Go","Sham":1,"Color":"blue","trial_type":"pit-trial","trial_index":241,"time_elapsed":2357032,"internal_node_id":"0.0-230.0","task_version":"test-retest-t4"},{"Rune":"rune_08_fehu","Hex":"#3366ff99","Correct":32,"Choice":32,"RT":448,"Accuracy":1,"Outcome":"-10","Keys":[1949],"TotalKeys":1,"Block":2,"Trial":221,"Robot":3,"Valence":"Lose","Action":"Go","Sham":1,"Color":"blue","trial_type":"pit-trial","trial_index":242,"time_elapsed":2359988,"internal_node_id":"0.0-231.0","task_version":"test-retest-t4"},{"Rune":"rune_08_sigel","Hex":"#ffcc3399","Correct":32,"Choice":32,"RT":388,"Accuracy":1,"Outcome":"+10","Keys":[1889],"TotalKeys":1,"Block":2,"Trial":222,"Robot":1,"Valence":"Win","Action":"Go","Sham":0,"Color":"yellow","trial_type":"pit-trial","trial_index":243,"time_elapsed":2362881,"internal_node_id":"0.0-232.0","task_version":"test-retest-t4"},{"Rune":"rune_08_mannaz","Hex":"#3366ff99","Correct":-1,"Choice":-1,"RT":-1,"Accuracy":1,"Outcome":"-1","Keys":[],"TotalKeys":0,"Block":2,"Trial":223,"Robot":4,"Valence":"Lose","Action":"No-Go","Sham":0,"Color":"blue","trial_type":"pit-trial","trial_index":244,"time_elapsed":2366886,"internal_node_id":"0.0-233.0","task_version":"test-retest-t4"},{"Rune":"rune_08_pertho","Hex":"#ffcc3399","Correct":-1,"Choice":-1,"RT":-1,"Accuracy":1,"Outcome":"+10","Keys":[],"TotalKeys":0,"Block":2,"Trial":224,"Robot":2,"Valence":"Win","Action":"No-Go","Sham":0,"Color":"yellow","trial_type":"pit-trial","trial_index":245,"time_elapsed":2370889,"internal_node_id":"0.0-234.0","task_version":"test-retest-t4"},{"Rune":"rune_08_mannaz","Hex":"#3366ff99","Correct":-1,"Choice":-1,"RT":-1,"Accuracy":1,"Outcome":"-10","Keys":[],"TotalKeys":0,"Block":2,"Trial":225,"Robot":4,"Valence":"Lose","Action":"No-Go","Sham":1,"Color":"blue","trial_type":"pit-trial","trial_index":246,"time_elapsed":2374893,"internal_node_id":"0.0-235.0","task_version":"test-retest-t4"},{"Rune":"rune_08_pertho","Hex":"#ffcc3399","Correct":-1,"Choice":-1,"RT":-1,"Accuracy":1,"Outcome":"+10","Keys":[],"TotalKeys":0,"Block":2,"Trial":226,"Robot":2,"Valence":"Win","Action":"No-Go","Sham":0,"Color":"yellow","trial_type":"pit-trial","trial_index":247,"time_elapsed":2378896,"internal_node_id":"0.0-236.0","task_version":"test-retest-t4"},{"Rune":"rune_08_sigel","Hex":"#ffcc3399","Correct":32,"Choice":32,"RT":300,"Accuracy":1,"Outcome":"+10","Keys":[1801],"TotalKeys":1,"Block":2,"Trial":227,"Robot":1,"Valence":"Win","Action":"Go","Sham":0,"Color":"yellow","trial_type":"pit-trial","trial_index":248,"time_elapsed":2381701,"internal_node_id":"0.0-237.0","task_version":"test-retest-t4"},{"Rune":"rune_08_fehu","Hex":"#3366ff99","Correct":32,"Choice":32,"RT":375,"Accuracy":1,"Outcome":"-1","Keys":[1886],"TotalKeys":1,"Block":2,"Trial":228,"Robot":3,"Valence":"Lose","Action":"Go","Sham":0,"Color":"blue","trial_type":"pit-trial","trial_index":249,"time_elapsed":2384592,"internal_node_id":"0.0-238.0","task_version":"test-retest-t4"},{"Rune":"rune_08_pertho","Hex":"#ffcc3399","Correct":-1,"Choice":-1,"RT":-1,"Accuracy":1,"Outcome":"+10","Keys":[],"TotalKeys":0,"Block":2,"Trial":229,"Robot":2,"Valence":"Win","Action":"No-Go","Sham":0,"Color":"yellow","trial_type":"pit-trial","trial_index":250,"time_elapsed":2388596,"internal_node_id":"0.0-239.0","task_version":"test-retest-t4"},{"Rune":"rune_08_sigel","Hex":"#ffcc3399","Correct":32,"Choice":32,"RT":341,"Accuracy":1,"Outcome":"+1","Keys":[1841],"TotalKeys":1,"Block":2,"Trial":230,"Robot":1,"Valence":"Win","Action":"Go","Sham":1,"Color":"yellow","trial_type":"pit-trial","trial_index":251,"time_elapsed":2391442,"internal_node_id":"0.0-240.0","task_version":"test-retest-t4"},{"Rune":"rune_08_mannaz","Hex":"#3366ff99","Correct":-1,"Choice":-1,"RT":-1,"Accuracy":1,"Outcome":"-1","Keys":[],"TotalKeys":0,"Block":2,"Trial":231,"Robot":4,"Valence":"Lose","Action":"No-Go","Sham":0,"Color":"blue","trial_type":"pit-trial","trial_index":252,"time_elapsed":2395444,"internal_node_id":"0.0-241.0","task_version":"test-retest-t4"},{"Rune":"rune_08_fehu","Hex":"#3366ff99","Correct":32,"Choice":32,"RT":440,"Accuracy":1,"Outcome":"-1","Keys":[1940],"TotalKeys":1,"Block":2,"Trial":232,"Robot":3,"Valence":"Lose","Action":"Go","Sham":0,"Color":"blue","trial_type":"pit-trial","trial_index":253,"time_elapsed":2398387,"internal_node_id":"0.0-242.0","task_version":"test-retest-t4"},{"Rune":"rune_08_sigel","Hex":"#ffcc3399","Correct":32,"Choice":32,"RT":365,"Accuracy":1,"Outcome":"+10","Keys":[1867],"TotalKeys":1,"Block":2,"Trial":233,"Robot":1,"Valence":"Win","Action":"Go","Sham":0,"Color":"yellow","trial_type":"pit-trial","trial_index":254,"time_elapsed":2401259,"internal_node_id":"0.0-243.0","task_version":"test-retest-t4"},{"Rune":"rune_08_mannaz","Hex":"#3366ff99","Correct":-1,"Choice":-1,"RT":-1,"Accuracy":1,"Outcome":"-1","Keys":[],"TotalKeys":0,"Block":2,"Trial":234,"Robot":4,"Valence":"Lose","Action":"No-Go","Sham":0,"Color":"blue","trial_type":"pit-trial","trial_index":255,"time_elapsed":2405267,"internal_node_id":"0.0-244.0","task_version":"test-retest-t4"},{"Rune":"rune_08_pertho","Hex":"#ffcc3399","Correct":-1,"Choice":-1,"RT":-1,"Accuracy":1,"Outcome":"+1","Keys":[],"TotalKeys":0,"Block":2,"Trial":235,"Robot":2,"Valence":"Win","Action":"No-Go","Sham":1,"Color":"yellow","trial_type":"pit-trial","trial_index":256,"time_elapsed":2409275,"internal_node_id":"0.0-245.0","task_version":"test-retest-t4"},{"Rune":"rune_08_fehu","Hex":"#3366ff99","Correct":32,"Choice":32,"RT":327,"Accuracy":1,"Outcome":"-1","Keys":[1829],"TotalKeys":1,"Block":2,"Trial":236,"Robot":3,"Valence":"Lose","Action":"Go","Sham":0,"Color":"blue","trial_type":"pit-trial","trial_index":257,"time_elapsed":2412109,"internal_node_id":"0.0-246.0","task_version":"test-retest-t4"},{"Rune":"rune_08_pertho","Hex":"#ffcc3399","Correct":-1,"Choice":-1,"RT":-1,"Accuracy":1,"Outcome":"+10","Keys":[],"TotalKeys":0,"Block":2,"Trial":237,"Robot":2,"Valence":"Win","Action":"No-Go","Sham":0,"Color":"yellow","trial_type":"pit-trial","trial_index":258,"time_elapsed":2416113,"internal_node_id":"0.0-247.0","task_version":"test-retest-t4"},{"Rune":"rune_08_mannaz","Hex":"#3366ff99","Correct":-1,"Choice":-1,"RT":-1,"Accuracy":1,"Outcome":"-1","Keys":[],"TotalKeys":0,"Block":2,"Trial":238,"Robot":4,"Valence":"Lose","Action":"No-Go","Sham":0,"Color":"blue","trial_type":"pit-trial","trial_index":259,"time_elapsed":2420119,"internal_node_id":"0.0-248.0","task_version":"test-retest-t4"},{"Rune":"rune_08_sigel","Hex":"#ffcc3399","Correct":32,"Choice":32,"RT":344,"Accuracy":1,"Outcome":"+10","Keys":[1844],"TotalKeys":1,"Block":2,"Trial":239,"Robot":1,"Valence":"Win","Action":"Go","Sham":0,"Color":"yellow","trial_type":"pit-trial","trial_index":260,"time_elapsed":2422968,"internal_node_id":"0.0-249.0","task_version":"test-retest-t4"},{"Rune":"rune_08_fehu","Hex":"#3366ff99","Correct":32,"Choice":32,"RT":418,"Accuracy":1,"Outcome":"-1","Keys":[1920],"TotalKeys":1,"Block":2,"Trial":240,"Robot":3,"Valence":"Lose","Action":"Go","Sham":0,"Color":"blue","trial_type":"pit-trial","trial_index":261,"time_elapsed":2425891,"internal_node_id":"0.0-250.0","task_version":"test-retest-t4"},{"view_history":"[{\"page_index\":0,\"viewing_time\":2093}]","rt":2093,"trial_type":"pit-instructions","trial_index":262,"time_elapsed":2427990,"internal_node_id":"0.0-251.0","task_version":"test-retest-t4"},{"rt":8488,"responses":{"age":"29","gender-categorical":"Male","gender-free-response":"","ethnicity":"Hispanic or Latino","race":"Rather not say","language":"Yes","fluency":"Very well"},"survey":"demographics","trial_type":"survey-demo","trial_index":263,"time_elapsed":2436486,"internal_node_id":"0.0-252.0","task_version":"test-retest-t4"},{"rt":133417,"responses":{"difficulty":"5","fun":"5","clarity":"5","strategy":"I just tried to remember what was correct. On a few occasions it seemed like my original belief of which response was correct was in fact incorrect. When this happened I changed my response a couple of times to verify.","feedback":""},"survey":"debrief","trial_type":"survey-debrief","trial_index":264,"time_elapsed":2569908,"internal_node_id":"0.0-253.0","task_version":"test-retest-t4"},{"rt":1797,"stimulus":"You earned a bonus of $1.4 out of $1.5.<br><br>Press any key to complete the experiment.","key_press":32,"trial_type":"html-keyboard-response","trial_index":265,"time_elapsed":2571712,"internal_node_id":"0.0-254.0","task_version":"test-retest-t4","accuracy":0.9291666666666667,"bonus":1.4,"interactions":"[{\"event\":\"focus\",\"trial\":0,\"time\":0},{\"event\":\"blur\",\"trial\":0,\"time\":808},{\"event\":\"focus\",\"trial\":0,\"time\":48825},{\"event\":\"blur\",\"trial\":1,\"time\":74197},{\"event\":\"focus\",\"trial\":1,\"time\":541994},{\"event\":\"blur\",\"trial\":79,\"time\":997379},{\"event\":\"focus\",\"trial\":79,\"time\":1123755},{\"event\":\"blur\",\"trial\":140,\"time\":1335650},{\"event\":\"focus\",\"trial\":140,\"time\":1828588},{\"event\":\"blur\",\"trial\":201,\"time\":2038390},{\"event\":\"focus\",\"trial\":201,\"time\":2138439},{\"event\":\"blur\",\"trial\":201,\"time\":2139416},{\"event\":\"focus\",\"trial\":201,\"time\":2216753}]"}]