[{"slider_type":"valence","raw_loc":686,"loc":0.872,"trial_type":"affective-slider","trial_index":0,"time_elapsed":5458,"internal_node_id":"0.0-0.0","task_version":"test-retest-t2"},{"responses":{"Q01":"2","Q07":"3","Q02":"3","Q08":"0","Q05":"0","Q04":"1","Q03":"3","Q06":"3"},"rt":23223.264999999858,"survey":"gad7","trial_type":"survey-template","trial_index":1,"time_elapsed":28692,"internal_node_id":"0.0-1.0","task_version":"test-retest-t2"},{"view_history":"[{\"page_index\":0,\"viewing_time\":2477.9200000000383},{\"page_index\":1,\"viewing_time\":2087.679999999862},{\"page_index\":2,\"viewing_time\":6376.560000000158},{\"page_index\":3,\"viewing_time\":2564.634999999951},{\"page_index\":4,\"viewing_time\":2017.7999999998574}]","rt":15526.734999999917,"trial_type":"pit-instructions","trial_index":2,"time_elapsed":44233,"internal_node_id":"0.0-2.0-0.0","task_version":"test-retest-t2"},{"Rune":"rune_00_ingz","Hex":"#FFFFF080","Correct":32,"Choice":32,"RT":505.83499999993364,"Accuracy":1,"Outcome":"+10","Keys":[2005.965000000062],"TotalKeys":1,"Block":0,"Action":"Go","trial_type":"pit-trial","trial_index":3,"time_elapsed":47248,"internal_node_id":"0.0-2.0-1.0-0.0","task_version":"test-retest-t2"},{"Rune":"rune_00_ingz","Hex":"#FFFFF080","Correct":32,"Choice":32,"RT":635.890000000014,"Accuracy":1,"Outcome":"+10","Keys":[2136.1550000001444],"TotalKeys":1,"Block":0,"Action":"Go","trial_type":"pit-trial","trial_index":4,"time_elapsed":50390,"internal_node_id":"0.0-2.0-1.0-0.1","task_version":"test-retest-t2"},{"Rune":"rune_00_ingz","Hex":"#FFFFF080","Correct":32,"Choice":32,"RT":586.0199999999677,"Accuracy":1,"Outcome":"+10","Keys":[2087.594999999965],"TotalKeys":1,"Block":0,"Action":"Go","trial_type":"pit-trial","trial_index":5,"time_elapsed":53484,"internal_node_id":"0.0-2.0-1.0-0.2","task_version":"test-retest-t2"},{"Rune":"rune_00_ingz","Hex":"#FFFFF080","Correct":32,"Choice":32,"RT":410.72499999996217,"Accuracy":1,"Outcome":"+10","Keys":[1911.3050000000803],"TotalKeys":1,"Block":0,"Action":"Go","trial_type":"pit-trial","trial_index":6,"time_elapsed":56403,"internal_node_id":"0.0-2.0-1.0-0.3","task_version":"test-retest-t2"},{"view_history":"[{\"page_index\":0,\"viewing_time\":1759.4350000001723}]","rt":1760.4800000001487,"trial_type":"pit-instructions","trial_index":7,"time_elapsed":58167,"internal_node_id":"0.0-2.0-2.0","task_version":"test-retest-t2"},{"Rune":"rune_00_isaz","Hex":"#FFFFF080","Correct":-1,"Choice":-1,"RT":-1,"Accuracy":1,"Outcome":"+10","Keys":[],"TotalKeys":0,"Block":0,"Action":"No-Go","trial_type":"pit-trial","trial_index":8,"time_elapsed":62173,"internal_node_id":"0.0-2.0-3.0-0.0","task_version":"test-retest-t2"},{"Rune":"rune_00_isaz","Hex":"#FFFFF080","Correct":-1,"Choice":-1,"RT":-1,"Accuracy":1,"Outcome":"+10","Keys":[],"TotalKeys":0,"Block":0,"Action":"No-Go","trial_type":"pit-trial","trial_index":9,"time_elapsed":66179,"internal_node_id":"0.0-2.0-3.0-0.1","task_version":"test-retest-t2"},{"Rune":"rune_00_isaz","Hex":"#FFFFF080","Correct":-1,"Choice":-1,"RT":-1,"Accuracy":1,"Outcome":"+10","Keys":[],"TotalKeys":0,"Block":0,"Action":"No-Go","trial_type":"pit-trial","trial_index":10,"time_elapsed":70184,"internal_node_id":"0.0-2.0-3.0-0.2","task_version":"test-retest-t2"},{"Rune":"rune_00_isaz","Hex":"#FFFFF080","Correct":-1,"Choice":-1,"RT":-1,"Accuracy":1,"Outcome":"+10","Keys":[],"TotalKeys":0,"Block":0,"Action":"No-Go","trial_type":"pit-trial","trial_index":11,"time_elapsed":74190,"internal_node_id":"0.0-2.0-3.0-0.3","task_version":"test-retest-t2"},{"view_history":"[{\"page_index\":0,\"viewing_time\":3047.1900000000023},{\"page_index\":1,\"viewing_time\":2316.3600000000297},{\"page_index\":2,\"viewing_time\":10218.004999999946},{\"page_index\":3,\"viewing_time\":2869.120000000068},{\"page_index\":4,\"viewing_time\":1748.0499999999302},{\"page_index\":5,\"viewing_time\":33220.80000000005},{\"page_index\":6,\"viewing_time\":1765.7099999999045},{\"page_index\":7,\"viewing_time\":1564.875000000029}]","rt":56751.344999999914,"trial_type":"pit-instructions","trial_index":12,"time_elapsed":130945,"internal_node_id":"0.0-2.0-4.0","task_version":"test-retest-t2"},{"responses":["Do nothing","+10","-1","True","Yes"],"num_errors":0,"rt":16862.475000000122,"trial_type":"pit-comprehension","trial_index":13,"time_elapsed":147821,"internal_node_id":"0.0-2.0-5.0","task_version":"test-retest-t2"},{"trial_type":"call-function","trial_index":14,"time_elapsed":147833,"internal_node_id":"0.0-3.0","task_version":"test-retest-t2"},{"view_history":"[{\"page_index\":0,\"viewing_time\":1547.1050000000978},{\"page_index\":1,\"viewing_time\":998.2499999998836},{\"page_index\":2,\"viewing_time\":1798.9199999999546}]","rt":4345.514999999985,"trial_type":"pit-instructions","trial_index":15,"time_elapsed":152181,"internal_node_id":"0.0-4.0","task_version":"test-retest-t2"},{"Rune":"rune_03_naudiz","Hex":"#ffcc3399","Correct":32,"Choice":32,"RT":478.38000000003376,"Accuracy":1,"Outcome":"+10","Keys":[1978.9099999998289],"TotalKeys":1,"Block":1,"Trial":1,"Robot":1,"Valence":"Win","Action":"Go","Sham":0,"Color":"yellow","trial_type":"pit-trial","trial_index":16,"time_elapsed":155176,"internal_node_id":"0.0-5.0","task_version":"test-retest-t2"},{"Rune":"rune_03_algiz","Hex":"#3366ff99","Correct":32,"Choice":-1,"RT":-1,"Accuracy":0,"Outcome":"-1","Keys":[],"TotalKeys":0,"Block":1,"Trial":2,"Robot":3,"Valence":"Lose","Action":"Go","Sham":1,"Color":"blue","trial_type":"pit-trial","trial_index":17,"time_elapsed":159183,"internal_node_id":"0.0-6.0","task_version":"test-retest-t2"},{"Rune":"rune_03_uruz","Hex":"#ffcc3399","Correct":-1,"Choice":32,"RT":1302.6299999999173,"Accuracy":0,"Outcome":"+1","Keys":[2803.0750000000407],"TotalKeys":1,"Block":1,"Trial":3,"Robot":2,"Valence":"Win","Action":"No-Go","Sham":0,"Color":"yellow","trial_type":"pit-trial","trial_index":18,"time_elapsed":162994,"internal_node_id":"0.0-7.0","task_version":"test-retest-t2"},{"Rune":"rune_03_othalan","Hex":"#3366ff99","Correct":-1,"Choice":32,"RT":1023.9050000000279,"Accuracy":0,"Outcome":"-1","Keys":[2524.1849999999977],"TotalKeys":1,"Block":1,"Trial":4,"Robot":4,"Valence":"Lose","Action":"No-Go","Sham":1,"Color":"blue","trial_type":"pit-trial","trial_index":19,"time_elapsed":166526,"internal_node_id":"0.0-8.0","task_version":"test-retest-t2"},{"Rune":"rune_03_othalan","Hex":"#3366ff99","Correct":-1,"Choice":-1,"RT":-1,"Accuracy":1,"Outcome":"-1","Keys":[],"TotalKeys":0,"Block":1,"Trial":5,"Robot":4,"Valence":"Lose","Action":"No-Go","Sham":0,"Color":"blue","trial_type":"pit-trial","trial_index":20,"time_elapsed":170532,"internal_node_id":"0.0-9.0","task_version":"test-retest-t2"},{"Rune":"rune_03_algiz","Hex":"#3366ff99","Correct":32,"Choice":32,"RT":1264.1350000001257,"Accuracy":1,"Outcome":"-1","Keys":[2764.7099999999045],"TotalKeys":1,"Block":1,"Trial":6,"Robot":3,"Valence":"Lose","Action":"Go","Sham":0,"Color":"blue","trial_type":"pit-trial","trial_index":21,"time_elapsed":174302,"internal_node_id":"0.0-10.0","task_version":"test-retest-t2"},{"Rune":"rune_03_naudiz","Hex":"#ffcc3399","Correct":32,"Choice":32,"RT":644.950000000099,"Accuracy":1,"Outcome":"+1","Keys":[2145.070000000036],"TotalKeys":1,"Block":1,"Trial":7,"Robot":1,"Valence":"Win","Action":"Go","Sham":1,"Color":"yellow","trial_type":"pit-trial","trial_index":22,"time_elapsed":177453,"internal_node_id":"0.0-11.0","task_version":"test-retest-t2"},{"Rune":"rune_03_uruz","Hex":"#ffcc3399","Correct":-1,"Choice":32,"RT":725.6849999998813,"Accuracy":0,"Outcome":"+1","Keys":[2226.325000000099],"TotalKeys":1,"Block":1,"Trial":8,"Robot":2,"Valence":"Win","Action":"No-Go","Sham":0,"Color":"yellow","trial_type":"pit-trial","trial_index":23,"time_elapsed":180684,"internal_node_id":"0.0-12.0","task_version":"test-retest-t2"},{"Rune":"rune_03_algiz","Hex":"#3366ff99","Correct":32,"Choice":32,"RT":795.0999999998312,"Accuracy":1,"Outcome":"-1","Keys":[2295.8900000001013],"TotalKeys":1,"Block":1,"Trial":9,"Robot":3,"Valence":"Lose","Action":"Go","Sham":0,"Color":"blue","trial_type":"pit-trial","trial_index":24,"time_elapsed":183986,"internal_node_id":"0.0-13.0","task_version":"test-retest-t2"},{"Rune":"rune_03_othalan","Hex":"#3366ff99","Correct":-1,"Choice":-1,"RT":-1,"Accuracy":1,"Outcome":"-1","Keys":[],"TotalKeys":0,"Block":1,"Trial":10,"Robot":4,"Valence":"Lose","Action":"No-Go","Sham":0,"Color":"blue","trial_type":"pit-trial","trial_index":25,"time_elapsed":187992,"internal_node_id":"0.0-14.0","task_version":"test-retest-t2"},{"Rune":"rune_03_uruz","Hex":"#ffcc3399","Correct":-1,"Choice":32,"RT":694.1800000001967,"Accuracy":0,"Outcome":"+1","Keys":[2194.3449999998847],"TotalKeys":1,"Block":1,"Trial":11,"Robot":2,"Valence":"Win","Action":"No-Go","Sham":0,"Color":"yellow","trial_type":"pit-trial","trial_index":26,"time_elapsed":191193,"internal_node_id":"0.0-15.0","task_version":"test-retest-t2"},{"Rune":"rune_03_naudiz","Hex":"#ffcc3399","Correct":32,"Choice":32,"RT":508.76000000015483,"Accuracy":1,"Outcome":"+10","Keys":[2010.4899999998743],"TotalKeys":1,"Block":1,"Trial":12,"Robot":1,"Valence":"Win","Action":"Go","Sham":0,"Color":"yellow","trial_type":"pit-trial","trial_index":27,"time_elapsed":194209,"internal_node_id":"0.0-16.0","task_version":"test-retest-t2"},{"Rune":"rune_03_uruz","Hex":"#ffcc3399","Correct":-1,"Choice":-1,"RT":-1,"Accuracy":1,"Outcome":"+1","Keys":[],"TotalKeys":0,"Block":1,"Trial":13,"Robot":2,"Valence":"Win","Action":"No-Go","Sham":1,"Color":"yellow","trial_type":"pit-trial","trial_index":28,"time_elapsed":198217,"internal_node_id":"0.0-17.0","task_version":"test-retest-t2"},{"Rune":"rune_03_naudiz","Hex":"#ffcc3399","Correct":32,"Choice":32,"RT":633.0350000000617,"Accuracy":1,"Outcome":"+10","Keys":[2133.759999999922],"TotalKeys":1,"Block":1,"Trial":14,"Robot":1,"Valence":"Win","Action":"Go","Sham":0,"Color":"yellow","trial_type":"pit-trial","trial_index":29,"time_elapsed":201360,"internal_node_id":"0.0-18.0","task_version":"test-retest-t2"},{"Rune":"rune_03_algiz","Hex":"#3366ff99","Correct":32,"Choice":32,"RT":1004.9949999999953,"Accuracy":1,"Outcome":"-1","Keys":[2505.670000000013],"TotalKeys":1,"Block":1,"Trial":15,"Robot":3,"Valence":"Lose","Action":"Go","Sham":0,"Color":"blue","trial_type":"pit-trial","trial_index":30,"time_elapsed":204873,"internal_node_id":"0.0-19.0","task_version":"test-retest-t2"},{"Rune":"rune_03_othalan","Hex":"#3366ff99","Correct":-1,"Choice":-1,"RT":-1,"Accuracy":1,"Outcome":"-1","Keys":[],"TotalKeys":0,"Block":1,"Trial":16,"Robot":4,"Valence":"Lose","Action":"No-Go","Sham":0,"Color":"blue","trial_type":"pit-trial","trial_index":31,"time_elapsed":208879,"internal_node_id":"0.0-20.0","task_version":"test-retest-t2"},{"Rune":"rune_03_othalan","Hex":"#3366ff99","Correct":-1,"Choice":-1,"RT":-1,"Accuracy":1,"Outcome":"-1","Keys":[],"TotalKeys":0,"Block":1,"Trial":17,"Robot":4,"Valence":"Lose","Action":"No-Go","Sham":0,"Color":"blue","trial_type":"pit-trial","trial_index":32,"time_elapsed":212885,"internal_node_id":"0.0-21.0","task_version":"test-retest-t2"},{"Rune":"rune_03_naudiz","Hex":"#ffcc3399","Correct":32,"Choice":32,"RT":581.9349999999395,"Accuracy":1,"Outcome":"+10","Keys":[2082.20000000007],"TotalKeys":1,"Block":1,"Trial":18,"Robot":1,"Valence":"Win","Action":"Go","Sham":0,"Color":"yellow","trial_type":"pit-trial","trial_index":33,"time_elapsed":215974,"internal_node_id":"0.0-22.0","task_version":"test-retest-t2"},{"Rune":"rune_03_uruz","Hex":"#ffcc3399","Correct":-1,"Choice":-1,"RT":-1,"Accuracy":1,"Outcome":"+10","Keys":[],"TotalKeys":0,"Block":1,"Trial":19,"Robot":2,"Valence":"Win","Action":"No-Go","Sham":0,"Color":"yellow","trial_type":"pit-trial","trial_index":34,"time_elapsed":219984,"internal_node_id":"0.0-23.0","task_version":"test-retest-t2"},{"Rune":"rune_03_algiz","Hex":"#3366ff99","Correct":32,"Choice":32,"RT":856.9700000000303,"Accuracy":1,"Outcome":"-1","Keys":[2357.2149999999965],"TotalKeys":1,"Block":1,"Trial":20,"Robot":3,"Valence":"Lose","Action":"Go","Sham":0,"Color":"blue","trial_type":"pit-trial","trial_index":35,"time_elapsed":223346,"internal_node_id":"0.0-24.0","task_version":"test-retest-t2"},{"Rune":"rune_03_othalan","Hex":"#3366ff99","Correct":-1,"Choice":-1,"RT":-1,"Accuracy":1,"Outcome":"-1","Keys":[],"TotalKeys":0,"Block":1,"Trial":21,"Robot":4,"Valence":"Lose","Action":"No-Go","Sham":0,"Color":"blue","trial_type":"pit-trial","trial_index":36,"time_elapsed":227352,"internal_node_id":"0.0-25.0","task_version":"test-retest-t2"},{"Rune":"rune_03_algiz","Hex":"#3366ff99","Correct":32,"Choice":32,"RT":729.0799999998417,"Accuracy":1,"Outcome":"-10","Keys":[2229.1950000001234],"TotalKeys":1,"Block":1,"Trial":22,"Robot":3,"Valence":"Lose","Action":"Go","Sham":1,"Color":"blue","trial_type":"pit-trial","trial_index":37,"time_elapsed":230589,"internal_node_id":"0.0-26.0","task_version":"test-retest-t2"},{"Rune":"rune_03_uruz","Hex":"#ffcc3399","Correct":-1,"Choice":-1,"RT":-1,"Accuracy":1,"Outcome":"+10","Keys":[],"TotalKeys":0,"Block":1,"Trial":23,"Robot":2,"Valence":"Win","Action":"No-Go","Sham":0,"Color":"yellow","trial_type":"pit-trial","trial_index":38,"time_elapsed":234600,"internal_node_id":"0.0-27.0","task_version":"test-retest-t2"},{"Rune":"rune_03_naudiz","Hex":"#ffcc3399","Correct":32,"Choice":32,"RT":642.0049999999173,"Accuracy":1,"Outcome":"+10","Keys":[2142.240000000136],"TotalKeys":1,"Block":1,"Trial":24,"Robot":1,"Valence":"Win","Action":"Go","Sham":0,"Color":"yellow","trial_type":"pit-trial","trial_index":39,"time_elapsed":237749,"internal_node_id":"0.0-28.0","task_version":"test-retest-t2"},{"Rune":"rune_03_naudiz","Hex":"#ffcc3399","Correct":32,"Choice":32,"RT":869.554999999993,"Accuracy":1,"Outcome":"+10","Keys":[2370.1699999999255],"TotalKeys":1,"Block":1,"Trial":25,"Robot":1,"Valence":"Win","Action":"Go","Sham":0,"Color":"yellow","trial_type":"pit-trial","trial_index":40,"time_elapsed":241125,"internal_node_id":"0.0-29.0","task_version":"test-retest-t2"},{"Rune":"rune_03_othalan","Hex":"#3366ff99","Correct":-1,"Choice":-1,"RT":-1,"Accuracy":1,"Outcome":"-10","Keys":[],"TotalKeys":0,"Block":1,"Trial":26,"Robot":4,"Valence":"Lose","Action":"No-Go","Sham":1,"Color":"blue","trial_type":"pit-trial","trial_index":41,"time_elapsed":245132,"internal_node_id":"0.0-30.0","task_version":"test-retest-t2"},{"Rune":"rune_03_algiz","Hex":"#3366ff99","Correct":32,"Choice":32,"RT":1040.4700000001467,"Accuracy":1,"Outcome":"-1","Keys":[2543.4849999998987],"TotalKeys":1,"Block":1,"Trial":27,"Robot":3,"Valence":"Lose","Action":"Go","Sham":0,"Color":"blue","trial_type":"pit-trial","trial_index":42,"time_elapsed":248681,"internal_node_id":"0.0-31.0","task_version":"test-retest-t2"},{"Rune":"rune_03_uruz","Hex":"#ffcc3399","Correct":-1,"Choice":-1,"RT":-1,"Accuracy":1,"Outcome":"+10","Keys":[],"TotalKeys":0,"Block":1,"Trial":28,"Robot":2,"Valence":"Win","Action":"No-Go","Sham":0,"Color":"yellow","trial_type":"pit-trial","trial_index":43,"time_elapsed":252687,"internal_node_id":"0.0-32.0","task_version":"test-retest-t2"},{"Rune":"rune_03_uruz","Hex":"#ffcc3399","Correct":-1,"Choice":-1,"RT":-1,"Accuracy":1,"Outcome":"+10","Keys":[],"TotalKeys":0,"Block":1,"Trial":29,"Robot":2,"Valence":"Win","Action":"No-Go","Sham":0,"Color":"yellow","trial_type":"pit-trial","trial_index":44,"time_elapsed":256694,"internal_node_id":"0.0-33.0","task_version":"test-retest-t2"},{"Rune":"rune_03_othalan","Hex":"#3366ff99","Correct":-1,"Choice":-1,"RT":-1,"Accuracy":1,"Outcome":"-1","Keys":[],"TotalKeys":0,"Block":1,"Trial":30,"Robot":4,"Valence":"Lose","Action":"No-Go","Sham":0,"Color":"blue","trial_type":"pit-trial","trial_index":45,"time_elapsed":260704,"internal_node_id":"0.0-34.0","task_version":"test-retest-t2"},{"Rune":"rune_03_naudiz","Hex":"#ffcc3399","Correct":32,"Choice":32,"RT":640.3099999999977,"Accuracy":1,"Outcome":"+1","Keys":[2140.914999999979],"TotalKeys":1,"Block":1,"Trial":31,"Robot":1,"Valence":"Win","Action":"Go","Sham":1,"Color":"yellow","trial_type":"pit-trial","trial_index":46,"time_elapsed":263855,"internal_node_id":"0.0-35.0","task_version":"test-retest-t2"},{"Rune":"rune_03_algiz","Hex":"#3366ff99","Correct":32,"Choice":32,"RT":776.7249999999185,"Accuracy":1,"Outcome":"-1","Keys":[2276.859999999928],"TotalKeys":1,"Block":1,"Trial":32,"Robot":3,"Valence":"Lose","Action":"Go","Sham":0,"Color":"blue","trial_type":"pit-trial","trial_index":47,"time_elapsed":267140,"internal_node_id":"0.0-36.0","task_version":"test-retest-t2"},{"Rune":"rune_03_othalan","Hex":"#3366ff99","Correct":-1,"Choice":-1,"RT":-1,"Accuracy":1,"Outcome":"-1","Keys":[],"TotalKeys":0,"Block":1,"Trial":33,"Robot":4,"Valence":"Lose","Action":"No-Go","Sham":0,"Color":"blue","trial_type":"pit-trial","trial_index":48,"time_elapsed":271148,"internal_node_id":"0.0-37.0","task_version":"test-retest-t2"},{"Rune":"rune_03_uruz","Hex":"#ffcc3399","Correct":-1,"Choice":-1,"RT":-1,"Accuracy":1,"Outcome":"+1","Keys":[],"TotalKeys":0,"Block":1,"Trial":34,"Robot":2,"Valence":"Win","Action":"No-Go","Sham":1,"Color":"yellow","trial_type":"pit-trial","trial_index":49,"time_elapsed":275154,"internal_node_id":"0.0-38.0","task_version":"test-retest-t2"},{"Rune":"rune_03_algiz","Hex":"#3366ff99","Correct":32,"Choice":32,"RT":792.7500000000582,"Accuracy":1,"Outcome":"-1","Keys":[2292.8350000001956],"TotalKeys":1,"Block":1,"Trial":35,"Robot":3,"Valence":"Lose","Action":"Go","Sham":0,"Color":"blue","trial_type":"pit-trial","trial_index":50,"time_elapsed":278453,"internal_node_id":"0.0-39.0","task_version":"test-retest-t2"},{"Rune":"rune_03_naudiz","Hex":"#ffcc3399","Correct":32,"Choice":32,"RT":756.8750000000582,"Accuracy":1,"Outcome":"+10","Keys":[2259.6049999999814],"TotalKeys":1,"Block":1,"Trial":36,"Robot":1,"Valence":"Win","Action":"Go","Sham":0,"Color":"yellow","trial_type":"pit-trial","trial_index":51,"time_elapsed":281722,"internal_node_id":"0.0-40.0","task_version":"test-retest-t2"},{"Rune":"rune_03_othalan","Hex":"#3366ff99","Correct":-1,"Choice":-1,"RT":-1,"Accuracy":1,"Outcome":"-1","Keys":[],"TotalKeys":0,"Block":1,"Trial":37,"Robot":4,"Valence":"Lose","Action":"No-Go","Sham":0,"Color":"blue","trial_type":"pit-trial","trial_index":52,"time_elapsed":285734,"internal_node_id":"0.0-41.0","task_version":"test-retest-t2"},{"Rune":"rune_03_uruz","Hex":"#ffcc3399","Correct":-1,"Choice":-1,"RT":-1,"Accuracy":1,"Outcome":"+10","Keys":[],"TotalKeys":0,"Block":1,"Trial":38,"Robot":2,"Valence":"Win","Action":"No-Go","Sham":0,"Color":"yellow","trial_type":"pit-trial","trial_index":53,"time_elapsed":289745,"internal_node_id":"0.0-42.0","task_version":"test-retest-t2"},{"Rune":"rune_03_naudiz","Hex":"#ffcc3399","Correct":32,"Choice":32,"RT":661.340000000142,"Accuracy":1,"Outcome":"+10","Keys":[2161.8649999999907],"TotalKeys":1,"Block":1,"Trial":39,"Robot":1,"Valence":"Win","Action":"Go","Sham":0,"Color":"yellow","trial_type":"pit-trial","trial_index":54,"time_elapsed":292915,"internal_node_id":"0.0-43.0","task_version":"test-retest-t2"},{"Rune":"rune_03_algiz","Hex":"#3366ff99","Correct":32,"Choice":32,"RT":659.5399999998626,"Accuracy":1,"Outcome":"-1","Keys":[2159.6650000000955],"TotalKeys":1,"Block":1,"Trial":40,"Robot":3,"Valence":"Lose","Action":"Go","Sham":0,"Color":"blue","trial_type":"pit-trial","trial_index":55,"time_elapsed":296083,"internal_node_id":"0.0-44.0","task_version":"test-retest-t2"},{"Rune":"rune_03_othalan","Hex":"#3366ff99","Correct":-1,"Choice":-1,"RT":-1,"Accuracy":1,"Outcome":"-1","Keys":[],"TotalKeys":0,"Block":1,"Trial":41,"Robot":4,"Valence":"Lose","Action":"No-Go","Sham":0,"Color":"blue","trial_type":"pit-trial","trial_index":56,"time_elapsed":300094,"internal_node_id":"0.0-45.0","task_version":"test-retest-t2"},{"Rune":"rune_03_naudiz","Hex":"#ffcc3399","Correct":32,"Choice":32,"RT":683.2150000000256,"Accuracy":1,"Outcome":"+10","Keys":[2183.8700000000536],"TotalKeys":1,"Block":1,"Trial":42,"Robot":1,"Valence":"Win","Action":"Go","Sham":0,"Color":"yellow","trial_type":"pit-trial","trial_index":57,"time_elapsed":303286,"internal_node_id":"0.0-46.0","task_version":"test-retest-t2"},{"Rune":"rune_03_uruz","Hex":"#ffcc3399","Correct":-1,"Choice":-1,"RT":-1,"Accuracy":1,"Outcome":"+10","Keys":[],"TotalKeys":0,"Block":1,"Trial":43,"Robot":2,"Valence":"Win","Action":"No-Go","Sham":0,"Color":"yellow","trial_type":"pit-trial","trial_index":58,"time_elapsed":307295,"internal_node_id":"0.0-47.0","task_version":"test-retest-t2"},{"Rune":"rune_03_algiz","Hex":"#3366ff99","Correct":32,"Choice":32,"RT":573.144999999844,"Accuracy":1,"Outcome":"-1","Keys":[2073.2399999999325],"TotalKeys":1,"Block":1,"Trial":44,"Robot":3,"Valence":"Lose","Action":"Go","Sham":0,"Color":"blue","trial_type":"pit-trial","trial_index":59,"time_elapsed":310377,"internal_node_id":"0.0-48.0","task_version":"test-retest-t2"},{"Rune":"rune_03_naudiz","Hex":"#ffcc3399","Correct":32,"Choice":32,"RT":772.7999999999884,"Accuracy":1,"Outcome":"+10","Keys":[2273.304999999935],"TotalKeys":1,"Block":1,"Trial":45,"Robot":1,"Valence":"Win","Action":"Go","Sham":0,"Color":"yellow","trial_type":"pit-trial","trial_index":60,"time_elapsed":313657,"internal_node_id":"0.0-49.0","task_version":"test-retest-t2"},{"Rune":"rune_03_algiz","Hex":"#3366ff99","Correct":32,"Choice":32,"RT":777.1949999998906,"Accuracy":1,"Outcome":"-1","Keys":[2277.2600000000675],"TotalKeys":1,"Block":1,"Trial":46,"Robot":3,"Valence":"Lose","Action":"Go","Sham":0,"Color":"blue","trial_type":"pit-trial","trial_index":61,"time_elapsed":316943,"internal_node_id":"0.0-50.0","task_version":"test-retest-t2"},{"Rune":"rune_03_uruz","Hex":"#ffcc3399","Correct":-1,"Choice":-1,"RT":-1,"Accuracy":1,"Outcome":"+1","Keys":[],"TotalKeys":0,"Block":1,"Trial":47,"Robot":2,"Valence":"Win","Action":"No-Go","Sham":1,"Color":"yellow","trial_type":"pit-trial","trial_index":62,"time_elapsed":320952,"internal_node_id":"0.0-51.0","task_version":"test-retest-t2"},{"Rune":"rune_03_othalan","Hex":"#3366ff99","Correct":-1,"Choice":-1,"RT":-1,"Accuracy":1,"Outcome":"-1","Keys":[],"TotalKeys":0,"Block":1,"Trial":48,"Robot":4,"Valence":"Lose","Action":"No-Go","Sham":0,"Color":"blue","trial_type":"pit-trial","trial_index":63,"time_elapsed":324960,"internal_node_id":"0.0-52.0","task_version":"test-retest-t2"},{"Rune":"rune_03_naudiz","Hex":"#ffcc3399","Correct":32,"Choice":32,"RT":539.5300000000279,"Accuracy":1,"Outcome":"+10","Keys":[2041.4100000000326],"TotalKeys":1,"Block":1,"Trial":49,"Robot":1,"Valence":"Win","Action":"Go","Sham":0,"Color":"yellow","trial_type":"pit-trial","trial_index":64,"time_elapsed":328009,"internal_node_id":"0.0-53.0","task_version":"test-retest-t2"},{"Rune":"rune_03_algiz","Hex":"#3366ff99","Correct":32,"Choice":32,"RT":719.5999999999185,"Accuracy":1,"Outcome":"-1","Keys":[2219.7450000001118],"TotalKeys":1,"Block":1,"Trial":50,"Robot":3,"Valence":"Lose","Action":"Go","Sham":0,"Color":"blue","trial_type":"pit-trial","trial_index":65,"time_elapsed":331241,"internal_node_id":"0.0-54.0","task_version":"test-retest-t2"},{"Rune":"rune_03_uruz","Hex":"#ffcc3399","Correct":-1,"Choice":-1,"RT":-1,"Accuracy":1,"Outcome":"+10","Keys":[],"TotalKeys":0,"Block":1,"Trial":51,"Robot":2,"Valence":"Win","Action":"No-Go","Sham":0,"Color":"yellow","trial_type":"pit-trial","trial_index":66,"time_elapsed":335249,"internal_node_id":"0.0-55.0","task_version":"test-retest-t2"},{"Rune":"rune_03_othalan","Hex":"#3366ff99","Correct":-1,"Choice":-1,"RT":-1,"Accuracy":1,"Outcome":"-1","Keys":[],"TotalKeys":0,"Block":1,"Trial":52,"Robot":4,"Valence":"Lose","Action":"No-Go","Sham":0,"Color":"blue","trial_type":"pit-trial","trial_index":67,"time_elapsed":339259,"internal_node_id":"0.0-56.0","task_version":"test-retest-t2"},{"Rune":"rune_03_othalan","Hex":"#3366ff99","Correct":-1,"Choice":-1,"RT":-1,"Accuracy":1,"Outcome":"-10","Keys":[],"TotalKeys":0,"Block":1,"Trial":53,"Robot":4,"Valence":"Lose","Action":"No-Go","Sham":1,"Color":"blue","trial_type":"pit-trial","trial_index":68,"time_elapsed":343266,"internal_node_id":"0.0-57.0","task_version":"test-retest-t2"},{"Rune":"rune_03_uruz","Hex":"#ffcc3399","Correct":-1,"Choice":-1,"RT":-1,"Accuracy":1,"Outcome":"+10","Keys":[],"TotalKeys":0,"Block":1,"Trial":54,"Robot":2,"Valence":"Win","Action":"No-Go","Sham":0,"Color":"yellow","trial_type":"pit-trial","trial_index":69,"time_elapsed":347276,"internal_node_id":"0.0-58.0","task_version":"test-retest-t2"},{"Rune":"rune_03_algiz","Hex":"#3366ff99","Correct":32,"Choice":32,"RT":573.0949999999721,"Accuracy":1,"Outcome":"-1","Keys":[2073.4950000001118],"TotalKeys":1,"Block":1,"Trial":55,"Robot":3,"Valence":"Lose","Action":"Go","Sham":0,"Color":"blue","trial_type":"pit-trial","trial_index":70,"time_elapsed":350355,"internal_node_id":"0.0-59.0","task_version":"test-retest-t2"},{"Rune":"rune_03_naudiz","Hex":"#ffcc3399","Correct":32,"Choice":32,"RT":799.9299999998766,"Accuracy":1,"Outcome":"+10","Keys":[2300.4700000001467],"TotalKeys":1,"Block":1,"Trial":56,"Robot":1,"Valence":"Win","Action":"Go","Sham":0,"Color":"yellow","trial_type":"pit-trial","trial_index":71,"time_elapsed":353662,"internal_node_id":"0.0-60.0","task_version":"test-retest-t2"},{"Rune":"rune_03_othalan","Hex":"#3366ff99","Correct":-1,"Choice":-1,"RT":-1,"Accuracy":1,"Outcome":"-1","Keys":[],"TotalKeys":0,"Block":1,"Trial":57,"Robot":4,"Valence":"Lose","Action":"No-Go","Sham":0,"Color":"blue","trial_type":"pit-trial","trial_index":72,"time_elapsed":357671,"internal_node_id":"0.0-61.0","task_version":"test-retest-t2"},{"Rune":"rune_03_uruz","Hex":"#ffcc3399","Correct":-1,"Choice":-1,"RT":-1,"Accuracy":1,"Outcome":"+10","Keys":[],"TotalKeys":0,"Block":1,"Trial":58,"Robot":2,"Valence":"Win","Action":"No-Go","Sham":0,"Color":"yellow","trial_type":"pit-trial","trial_index":73,"time_elapsed":361681,"internal_node_id":"0.0-62.0","task_version":"test-retest-t2"},{"Rune":"rune_03_naudiz","Hex":"#ffcc3399","Correct":32,"Choice":32,"RT":463.3400000000256,"Accuracy":1,"Outcome":"+1","Keys":[1969.6699999999837],"TotalKeys":1,"Block":1,"Trial":59,"Robot":1,"Valence":"Win","Action":"Go","Sham":1,"Color":"yellow","trial_type":"pit-trial","trial_index":74,"time_elapsed":364656,"internal_node_id":"0.0-63.0","task_version":"test-retest-t2"},{"Rune":"rune_03_algiz","Hex":"#3366ff99","Correct":32,"Choice":32,"RT":688.8500000000349,"Accuracy":1,"Outcome":"-10","Keys":[2189.4049999998533],"TotalKeys":1,"Block":1,"Trial":60,"Robot":3,"Valence":"Lose","Action":"Go","Sham":1,"Color":"blue","trial_type":"pit-trial","trial_index":75,"time_elapsed":367852,"internal_node_id":"0.0-64.0","task_version":"test-retest-t2"},{"value":false,"trial_type":"call-function","trial_index":76,"time_elapsed":367858,"internal_node_id":"0.0-65.0","task_version":"test-retest-t2"},{"view_history":"[{\"page_index\":0,\"viewing_time\":6105.289999999979},{\"page_index\":1,\"viewing_time\":1819.7350000000442}]","rt":7926.189999999886,"trial_type":"pit-instructions","trial_index":77,"time_elapsed":375787,"internal_node_id":"0.0-66.0","task_version":"test-retest-t2"},{"Rune":"rune_03_uruz","Hex":"#ffcc3399","Correct":-1,"Choice":32,"RT":955.3149999999441,"Accuracy":0,"Outcome":"+1","Keys":[2455.8600000000442],"TotalKeys":1,"Block":1,"Trial":61,"Robot":2,"Valence":"Win","Action":"No-Go","Sham":0,"Color":"yellow","trial_type":"pit-trial","trial_index":78,"time_elapsed":379254,"internal_node_id":"0.0-67.0","task_version":"test-retest-t2"},{"Rune":"rune_03_othalan","Hex":"#3366ff99","Correct":-1,"Choice":-1,"RT":-1,"Accuracy":1,"Outcome":"-10","Keys":[],"TotalKeys":0,"Block":1,"Trial":62,"Robot":4,"Valence":"Lose","Action":"No-Go","Sham":1,"Color":"blue","trial_type":"pit-trial","trial_index":79,"time_elapsed":383261,"internal_node_id":"0.0-68.0","task_version":"test-retest-t2"},{"Rune":"rune_03_algiz","Hex":"#3366ff99","Correct":32,"Choice":32,"RT":621.7450000001118,"Accuracy":1,"Outcome":"-10","Keys":[2122.3150000000605],"TotalKeys":1,"Block":1,"Trial":63,"Robot":3,"Valence":"Lose","Action":"Go","Sham":1,"Color":"blue","trial_type":"pit-trial","trial_index":80,"time_elapsed":386389,"internal_node_id":"0.0-69.0","task_version":"test-retest-t2"},{"Rune":"rune_03_naudiz","Hex":"#ffcc3399","Correct":32,"Choice":32,"RT":526.1199999999953,"Accuracy":1,"Outcome":"+10","Keys":[2026.8949999999604],"TotalKeys":1,"Block":1,"Trial":64,"Robot":1,"Valence":"Win","Action":"Go","Sham":0,"Color":"yellow","trial_type":"pit-trial","trial_index":81,"time_elapsed":389422,"internal_node_id":"0.0-70.0","task_version":"test-retest-t2"},{"Rune":"rune_03_uruz","Hex":"#ffcc3399","Correct":-1,"Choice":-1,"RT":-1,"Accuracy":1,"Outcome":"+10","Keys":[],"TotalKeys":0,"Block":1,"Trial":65,"Robot":2,"Valence":"Win","Action":"No-Go","Sham":0,"Color":"yellow","trial_type":"pit-trial","trial_index":82,"time_elapsed":393429,"internal_node_id":"0.0-71.0","task_version":"test-retest-t2"},{"Rune":"rune_03_othalan","Hex":"#3366ff99","Correct":-1,"Choice":-1,"RT":-1,"Accuracy":1,"Outcome":"-1","Keys":[],"TotalKeys":0,"Block":1,"Trial":66,"Robot":4,"Valence":"Lose","Action":"No-Go","Sham":0,"Color":"blue","trial_type":"pit-trial","trial_index":83,"time_elapsed":397436,"internal_node_id":"0.0-72.0","task_version":"test-retest-t2"},{"Rune":"rune_03_algiz","Hex":"#3366ff99","Correct":32,"Choice":32,"RT":535.2650000001886,"Accuracy":1,"Outcome":"-1","Keys":[2035.5850000000792],"TotalKeys":1,"Block":1,"Trial":67,"Robot":3,"Valence":"Lose","Action":"Go","Sham":0,"Color":"blue","trial_type":"pit-trial","trial_index":84,"time_elapsed":400477,"internal_node_id":"0.0-73.0","task_version":"test-retest-t2"},{"Rune":"rune_03_naudiz","Hex":"#ffcc3399","Correct":32,"Choice":32,"RT":773.019999999844,"Accuracy":1,"Outcome":"+10","Keys":[2273.2799999999115],"TotalKeys":1,"Block":1,"Trial":68,"Robot":1,"Valence":"Win","Action":"Go","Sham":0,"Color":"yellow","trial_type":"pit-trial","trial_index":85,"time_elapsed":403758,"internal_node_id":"0.0-74.0","task_version":"test-retest-t2"},{"Rune":"rune_03_uruz","Hex":"#ffcc3399","Correct":-1,"Choice":-1,"RT":-1,"Accuracy":1,"Outcome":"+10","Keys":[],"TotalKeys":0,"Block":1,"Trial":69,"Robot":2,"Valence":"Win","Action":"No-Go","Sham":0,"Color":"yellow","trial_type":"pit-trial","trial_index":86,"time_elapsed":407772,"internal_node_id":"0.0-75.0","task_version":"test-retest-t2"},{"Rune":"rune_03_algiz","Hex":"#3366ff99","Correct":32,"Choice":32,"RT":625.7749999999651,"Accuracy":1,"Outcome":"-1","Keys":[2126.200000000128],"TotalKeys":1,"Block":1,"Trial":70,"Robot":3,"Valence":"Lose","Action":"Go","Sham":0,"Color":"blue","trial_type":"pit-trial","trial_index":87,"time_elapsed":410909,"internal_node_id":"0.0-76.0","task_version":"test-retest-t2"},{"Rune":"rune_03_othalan","Hex":"#3366ff99","Correct":-1,"Choice":-1,"RT":-1,"Accuracy":1,"Outcome":"-1","Keys":[],"TotalKeys":0,"Block":1,"Trial":71,"Robot":4,"Valence":"Lose","Action":"No-Go","Sham":0,"Color":"blue","trial_type":"pit-trial","trial_index":88,"time_elapsed":414916,"internal_node_id":"0.0-77.0","task_version":"test-retest-t2"},{"Rune":"rune_03_naudiz","Hex":"#ffcc3399","Correct":32,"Choice":32,"RT":624.4150000000373,"Accuracy":1,"Outcome":"+10","Keys":[2125],"TotalKeys":1,"Block":1,"Trial":72,"Robot":1,"Valence":"Win","Action":"Go","Sham":0,"Color":"yellow","trial_type":"pit-trial","trial_index":89,"time_elapsed":418048,"internal_node_id":"0.0-78.0","task_version":"test-retest-t2"},{"Rune":"rune_03_naudiz","Hex":"#ffcc3399","Correct":32,"Choice":32,"RT":595.824999999837,"Accuracy":1,"Outcome":"+10","Keys":[2095.940000000177],"TotalKeys":1,"Block":1,"Trial":73,"Robot":1,"Valence":"Win","Action":"Go","Sham":0,"Color":"yellow","trial_type":"pit-trial","trial_index":90,"time_elapsed":421152,"internal_node_id":"0.0-79.0","task_version":"test-retest-t2"},{"Rune":"rune_03_othalan","Hex":"#3366ff99","Correct":-1,"Choice":-1,"RT":-1,"Accuracy":1,"Outcome":"-1","Keys":[],"TotalKeys":0,"Block":1,"Trial":74,"Robot":4,"Valence":"Lose","Action":"No-Go","Sham":0,"Color":"blue","trial_type":"pit-trial","trial_index":91,"time_elapsed":425159,"internal_node_id":"0.0-80.0","task_version":"test-retest-t2"},{"Rune":"rune_03_uruz","Hex":"#ffcc3399","Correct":-1,"Choice":-1,"RT":-1,"Accuracy":1,"Outcome":"+1","Keys":[],"TotalKeys":0,"Block":1,"Trial":75,"Robot":2,"Valence":"Win","Action":"No-Go","Sham":1,"Color":"yellow","trial_type":"pit-trial","trial_index":92,"time_elapsed":429165,"internal_node_id":"0.0-81.0","task_version":"test-retest-t2"},{"Rune":"rune_03_algiz","Hex":"#3366ff99","Correct":32,"Choice":32,"RT":657.5499999999302,"Accuracy":1,"Outcome":"-1","Keys":[2157.6450000000186],"TotalKeys":1,"Block":1,"Trial":76,"Robot":3,"Valence":"Lose","Action":"Go","Sham":0,"Color":"blue","trial_type":"pit-trial","trial_index":93,"time_elapsed":432328,"internal_node_id":"0.0-82.0","task_version":"test-retest-t2"},{"Rune":"rune_03_naudiz","Hex":"#ffcc3399","Correct":32,"Choice":32,"RT":649.2049999998999,"Accuracy":1,"Outcome":"+1","Keys":[2149.3150000001187],"TotalKeys":1,"Block":1,"Trial":77,"Robot":1,"Valence":"Win","Action":"Go","Sham":1,"Color":"yellow","trial_type":"pit-trial","trial_index":94,"time_elapsed":435483,"internal_node_id":"0.0-83.0","task_version":"test-retest-t2"},{"Rune":"rune_03_othalan","Hex":"#3366ff99","Correct":-1,"Choice":-1,"RT":-1,"Accuracy":1,"Outcome":"-1","Keys":[],"TotalKeys":0,"Block":1,"Trial":78,"Robot":4,"Valence":"Lose","Action":"No-Go","Sham":0,"Color":"blue","trial_type":"pit-trial","trial_index":95,"time_elapsed":439488,"internal_node_id":"0.0-84.0","task_version":"test-retest-t2"},{"Rune":"rune_03_algiz","Hex":"#3366ff99","Correct":32,"Choice":32,"RT":824.3999999999651,"Accuracy":1,"Outcome":"-1","Keys":[2325.0049999999464],"TotalKeys":1,"Block":1,"Trial":79,"Robot":3,"Valence":"Lose","Action":"Go","Sham":0,"Color":"blue","trial_type":"pit-trial","trial_index":96,"time_elapsed":442818,"internal_node_id":"0.0-85.0","task_version":"test-retest-t2"},{"Rune":"rune_03_uruz","Hex":"#ffcc3399","Correct":-1,"Choice":-1,"RT":-1,"Accuracy":1,"Outcome":"+10","Keys":[],"TotalKeys":0,"Block":1,"Trial":80,"Robot":2,"Valence":"Win","Action":"No-Go","Sham":0,"Color":"yellow","trial_type":"pit-trial","trial_index":97,"time_elapsed":446824,"internal_node_id":"0.0-86.0","task_version":"test-retest-t2"},{"Rune":"rune_03_othalan","Hex":"#3366ff99","Correct":-1,"Choice":-1,"RT":-1,"Accuracy":1,"Outcome":"-10","Keys":[],"TotalKeys":0,"Block":1,"Trial":81,"Robot":4,"Valence":"Lose","Action":"No-Go","Sham":1,"Color":"blue","trial_type":"pit-trial","trial_index":98,"time_elapsed":450831,"internal_node_id":"0.0-87.0","task_version":"test-retest-t2"},{"Rune":"rune_03_uruz","Hex":"#ffcc3399","Correct":-1,"Choice":-1,"RT":-1,"Accuracy":1,"Outcome":"+10","Keys":[],"TotalKeys":0,"Block":1,"Trial":82,"Robot":2,"Valence":"Win","Action":"No-Go","Sham":0,"Color":"yellow","trial_type":"pit-trial","trial_index":99,"time_elapsed":454840,"internal_node_id":"0.0-88.0","task_version":"test-retest-t2"},{"Rune":"rune_03_naudiz","Hex":"#ffcc3399","Correct":32,"Choice":32,"RT":609.9349999999395,"Accuracy":1,"Outcome":"+10","Keys":[2110.2550000000047],"TotalKeys":1,"Block":1,"Trial":83,"Robot":1,"Valence":"Win","Action":"Go","Sham":0,"Color":"yellow","trial_type":"pit-trial","trial_index":100,"time_elapsed":457959,"internal_node_id":"0.0-89.0","task_version":"test-retest-t2"},{"Rune":"rune_03_algiz","Hex":"#3366ff99","Correct":32,"Choice":32,"RT":978.0249999998487,"Accuracy":1,"Outcome":"-1","Keys":[2481.479999999923],"TotalKeys":1,"Block":1,"Trial":84,"Robot":3,"Valence":"Lose","Action":"Go","Sham":0,"Color":"blue","trial_type":"pit-trial","trial_index":101,"time_elapsed":461450,"internal_node_id":"0.0-90.0","task_version":"test-retest-t2"},{"Rune":"rune_03_algiz","Hex":"#3366ff99","Correct":32,"Choice":32,"RT":750.9899999999907,"Accuracy":1,"Outcome":"-1","Keys":[2251.2200000000885],"TotalKeys":1,"Block":1,"Trial":85,"Robot":3,"Valence":"Lose","Action":"Go","Sham":0,"Color":"blue","trial_type":"pit-trial","trial_index":102,"time_elapsed":464707,"internal_node_id":"0.0-91.0","task_version":"test-retest-t2"},{"Rune":"rune_03_naudiz","Hex":"#ffcc3399","Correct":32,"Choice":32,"RT":439.0100000000675,"Accuracy":1,"Outcome":"+10","Keys":[1939.3649999999325],"TotalKeys":1,"Block":1,"Trial":86,"Robot":1,"Valence":"Win","Action":"Go","Sham":0,"Color":"yellow","trial_type":"pit-trial","trial_index":103,"time_elapsed":467654,"internal_node_id":"0.0-92.0","task_version":"test-retest-t2"},{"Rune":"rune_03_othalan","Hex":"#3366ff99","Correct":-1,"Choice":-1,"RT":-1,"Accuracy":1,"Outcome":"-1","Keys":[],"TotalKeys":0,"Block":1,"Trial":87,"Robot":4,"Valence":"Lose","Action":"No-Go","Sham":0,"Color":"blue","trial_type":"pit-trial","trial_index":104,"time_elapsed":471661,"internal_node_id":"0.0-93.0","task_version":"test-retest-t2"},{"Rune":"rune_03_uruz","Hex":"#ffcc3399","Correct":-1,"Choice":-1,"RT":-1,"Accuracy":1,"Outcome":"+10","Keys":[],"TotalKeys":0,"Block":1,"Trial":88,"Robot":2,"Valence":"Win","Action":"No-Go","Sham":0,"Color":"yellow","trial_type":"pit-trial","trial_index":105,"time_elapsed":475667,"internal_node_id":"0.0-94.0","task_version":"test-retest-t2"},{"Rune":"rune_03_algiz","Hex":"#3366ff99","Correct":32,"Choice":32,"RT":862.7999999998719,"Accuracy":1,"Outcome":"-1","Keys":[2363.45000000007],"TotalKeys":1,"Block":1,"Trial":89,"Robot":3,"Valence":"Lose","Action":"Go","Sham":0,"Color":"blue","trial_type":"pit-trial","trial_index":106,"time_elapsed":479038,"internal_node_id":"0.0-95.0","task_version":"test-retest-t2"},{"Rune":"rune_03_uruz","Hex":"#ffcc3399","Correct":-1,"Choice":-1,"RT":-1,"Accuracy":1,"Outcome":"+10","Keys":[],"TotalKeys":0,"Block":1,"Trial":90,"Robot":2,"Valence":"Win","Action":"No-Go","Sham":0,"Color":"yellow","trial_type":"pit-trial","trial_index":107,"time_elapsed":483051,"internal_node_id":"0.0-96.0","task_version":"test-retest-t2"},{"Rune":"rune_03_naudiz","Hex":"#ffcc3399","Correct":32,"Choice":32,"RT":512.2049999999581,"Accuracy":1,"Outcome":"+1","Keys":[2012.2650000000722],"TotalKeys":1,"Block":1,"Trial":91,"Robot":1,"Valence":"Win","Action":"Go","Sham":1,"Color":"yellow","trial_type":"pit-trial","trial_index":108,"time_elapsed":486074,"internal_node_id":"0.0-97.0","task_version":"test-retest-t2"},{"Rune":"rune_03_othalan","Hex":"#3366ff99","Correct":-1,"Choice":-1,"RT":-1,"Accuracy":1,"Outcome":"-1","Keys":[],"TotalKeys":0,"Block":1,"Trial":92,"Robot":4,"Valence":"Lose","Action":"No-Go","Sham":0,"Color":"blue","trial_type":"pit-trial","trial_index":109,"time_elapsed":490086,"internal_node_id":"0.0-98.0","task_version":"test-retest-t2"},{"Rune":"rune_03_naudiz","Hex":"#ffcc3399","Correct":32,"Choice":32,"RT":449.38000000000466,"Accuracy":1,"Outcome":"+10","Keys":[1949.7949999999837],"TotalKeys":1,"Block":1,"Trial":93,"Robot":1,"Valence":"Win","Action":"Go","Sham":0,"Color":"yellow","trial_type":"pit-trial","trial_index":110,"time_elapsed":493045,"internal_node_id":"0.0-99.0","task_version":"test-retest-t2"},{"Rune":"rune_03_uruz","Hex":"#ffcc3399","Correct":-1,"Choice":-1,"RT":-1,"Accuracy":1,"Outcome":"+10","Keys":[],"TotalKeys":0,"Block":1,"Trial":94,"Robot":2,"Valence":"Win","Action":"No-Go","Sham":0,"Color":"yellow","trial_type":"pit-trial","trial_index":111,"time_elapsed":497052,"internal_node_id":"0.0-100.0","task_version":"test-retest-t2"},{"Rune":"rune_03_othalan","Hex":"#3366ff99","Correct":-1,"Choice":-1,"RT":-1,"Accuracy":1,"Outcome":"-1","Keys":[],"TotalKeys":0,"Block":1,"Trial":95,"Robot":4,"Valence":"Lose","Action":"No-Go","Sham":0,"Color":"blue","trial_type":"pit-trial","trial_index":112,"time_elapsed":501064,"internal_node_id":"0.0-101.0","task_version":"test-retest-t2"},{"Rune":"rune_03_algiz","Hex":"#3366ff99","Correct":32,"Choice":32,"RT":691.6749999999884,"Accuracy":1,"Outcome":"-1","Keys":[2192.410000000149],"TotalKeys":1,"Block":1,"Trial":96,"Robot":3,"Valence":"Lose","Action":"Go","Sham":0,"Color":"blue","trial_type":"pit-trial","trial_index":113,"time_elapsed":504264,"internal_node_id":"0.0-102.0","task_version":"test-retest-t2"},{"Rune":"rune_03_naudiz","Hex":"#ffcc3399","Correct":32,"Choice":32,"RT":625.5200000000186,"Accuracy":1,"Outcome":"+10","Keys":[2126.365000000049],"TotalKeys":1,"Block":1,"Trial":97,"Robot":1,"Valence":"Win","Action":"Go","Sham":0,"Color":"yellow","trial_type":"pit-trial","trial_index":114,"time_elapsed":507401,"internal_node_id":"0.0-103.0","task_version":"test-retest-t2"},{"Rune":"rune_03_uruz","Hex":"#ffcc3399","Correct":-1,"Choice":-1,"RT":-1,"Accuracy":1,"Outcome":"+1","Keys":[],"TotalKeys":0,"Block":1,"Trial":98,"Robot":2,"Valence":"Win","Action":"No-Go","Sham":1,"Color":"yellow","trial_type":"pit-trial","trial_index":115,"time_elapsed":511408,"internal_node_id":"0.0-104.0","task_version":"test-retest-t2"},{"Rune":"rune_03_algiz","Hex":"#3366ff99","Correct":32,"Choice":32,"RT":419.47500000015134,"Accuracy":1,"Outcome":"-10","Keys":[1919.6750000001048],"TotalKeys":1,"Block":1,"Trial":99,"Robot":3,"Valence":"Lose","Action":"Go","Sham":1,"Color":"blue","trial_type":"pit-trial","trial_index":116,"time_elapsed":514337,"internal_node_id":"0.0-105.0","task_version":"test-retest-t2"},{"Rune":"rune_03_othalan","Hex":"#3366ff99","Correct":-1,"Choice":-1,"RT":-1,"Accuracy":1,"Outcome":"-1","Keys":[],"TotalKeys":0,"Block":1,"Trial":100,"Robot":4,"Valence":"Lose","Action":"No-Go","Sham":0,"Color":"blue","trial_type":"pit-trial","trial_index":117,"time_elapsed":518349,"internal_node_id":"0.0-106.0","task_version":"test-retest-t2"},{"Rune":"rune_03_uruz","Hex":"#ffcc3399","Correct":-1,"Choice":-1,"RT":-1,"Accuracy":1,"Outcome":"+10","Keys":[],"TotalKeys":0,"Block":1,"Trial":101,"Robot":2,"Valence":"Win","Action":"No-Go","Sham":0,"Color":"yellow","trial_type":"pit-trial","trial_index":118,"time_elapsed":522358,"internal_node_id":"0.0-107.0","task_version":"test-retest-t2"},{"Rune":"rune_03_algiz","Hex":"#3366ff99","Correct":32,"Choice":-1,"RT":-1,"Accuracy":0,"Outcome":"-10","Keys":[],"TotalKeys":0,"Block":1,"Trial":102,"Robot":3,"Valence":"Lose","Action":"Go","Sham":0,"Color":"blue","trial_type":"pit-trial","trial_index":119,"time_elapsed":526365,"internal_node_id":"0.0-108.0","task_version":"test-retest-t2"},{"Rune":"rune_03_naudiz","Hex":"#ffcc3399","Correct":32,"Choice":32,"RT":608.6099999997532,"Accuracy":1,"Outcome":"+10","Keys":[2109.13499999966],"TotalKeys":1,"Block":1,"Trial":103,"Robot":1,"Valence":"Win","Action":"Go","Sham":0,"Color":"yellow","trial_type":"pit-trial","trial_index":120,"time_elapsed":529482,"internal_node_id":"0.0-109.0","task_version":"test-retest-t2"},{"Rune":"rune_03_othalan","Hex":"#3366ff99","Correct":-1,"Choice":-1,"RT":-1,"Accuracy":1,"Outcome":"-1","Keys":[],"TotalKeys":0,"Block":1,"Trial":104,"Robot":4,"Valence":"Lose","Action":"No-Go","Sham":0,"Color":"blue","trial_type":"pit-trial","trial_index":121,"time_elapsed":533494,"internal_node_id":"0.0-110.0","task_version":"test-retest-t2"},{"Rune":"rune_03_othalan","Hex":"#3366ff99","Correct":-1,"Choice":-1,"RT":-1,"Accuracy":1,"Outcome":"-1","Keys":[],"TotalKeys":0,"Block":1,"Trial":105,"Robot":4,"Valence":"Lose","Action":"No-Go","Sham":0,"Color":"blue","trial_type":"pit-trial","trial_index":122,"time_elapsed":537501,"internal_node_id":"0.0-111.0","task_version":"test-retest-t2"},{"Rune":"rune_03_algiz","Hex":"#3366ff99","Correct":32,"Choice":32,"RT":798.7600000001257,"Accuracy":1,"Outcome":"-1","Keys":[2299.57500000007],"TotalKeys":1,"Block":1,"Trial":106,"Robot":3,"Valence":"Lose","Action":"Go","Sham":0,"Color":"blue","trial_type":"pit-trial","trial_index":123,"time_elapsed":540811,"internal_node_id":"0.0-112.0","task_version":"test-retest-t2"},{"Rune":"rune_03_uruz","Hex":"#ffcc3399","Correct":-1,"Choice":-1,"RT":-1,"Accuracy":1,"Outcome":"+1","Keys":[],"TotalKeys":0,"Block":1,"Trial":107,"Robot":2,"Valence":"Win","Action":"No-Go","Sham":1,"Color":"yellow","trial_type":"pit-trial","trial_index":124,"time_elapsed":544822,"internal_node_id":"0.0-113.0","task_version":"test-retest-t2"},{"Rune":"rune_03_naudiz","Hex":"#ffcc3399","Correct":32,"Choice":32,"RT":498.1899999997113,"Accuracy":1,"Outcome":"+1","Keys":[1998.634999999893],"TotalKeys":1,"Block":1,"Trial":108,"Robot":1,"Valence":"Win","Action":"Go","Sham":1,"Color":"yellow","trial_type":"pit-trial","trial_index":125,"time_elapsed":547828,"internal_node_id":"0.0-114.0","task_version":"test-retest-t2"},{"Rune":"rune_03_othalan","Hex":"#3366ff99","Correct":-1,"Choice":-1,"RT":-1,"Accuracy":1,"Outcome":"-1","Keys":[],"TotalKeys":0,"Block":1,"Trial":109,"Robot":4,"Valence":"Lose","Action":"No-Go","Sham":0,"Color":"blue","trial_type":"pit-trial","trial_index":126,"time_elapsed":551836,"internal_node_id":"0.0-115.0","task_version":"test-retest-t2"},{"Rune":"rune_03_naudiz","Hex":"#ffcc3399","Correct":32,"Choice":32,"RT":581.6449999997858,"Accuracy":1,"Outcome":"+10","Keys":[2081.8750000003492],"TotalKeys":1,"Block":1,"Trial":110,"Robot":1,"Valence":"Win","Action":"Go","Sham":0,"Color":"yellow","trial_type":"pit-trial","trial_index":127,"time_elapsed":554925,"internal_node_id":"0.0-116.0","task_version":"test-retest-t2"},{"Rune":"rune_03_uruz","Hex":"#ffcc3399","Correct":-1,"Choice":-1,"RT":-1,"Accuracy":1,"Outcome":"+10","Keys":[],"TotalKeys":0,"Block":1,"Trial":111,"Robot":2,"Valence":"Win","Action":"No-Go","Sham":0,"Color":"yellow","trial_type":"pit-trial","trial_index":128,"time_elapsed":558932,"internal_node_id":"0.0-117.0","task_version":"test-retest-t2"},{"Rune":"rune_03_algiz","Hex":"#3366ff99","Correct":32,"Choice":32,"RT":591.3449999998556,"Accuracy":1,"Outcome":"-1","Keys":[2091.394999999902],"TotalKeys":1,"Block":1,"Trial":112,"Robot":3,"Valence":"Lose","Action":"Go","Sham":0,"Color":"blue","trial_type":"pit-trial","trial_index":129,"time_elapsed":562029,"internal_node_id":"0.0-118.0","task_version":"test-retest-t2"},{"Rune":"rune_03_algiz","Hex":"#3366ff99","Correct":32,"Choice":32,"RT":524.4050000001444,"Accuracy":1,"Outcome":"-10","Keys":[2024.5350000000326],"TotalKeys":1,"Block":1,"Trial":113,"Robot":3,"Valence":"Lose","Action":"Go","Sham":1,"Color":"blue","trial_type":"pit-trial","trial_index":130,"time_elapsed":565061,"internal_node_id":"0.0-119.0","task_version":"test-retest-t2"},{"Rune":"rune_03_othalan","Hex":"#3366ff99","Correct":-1,"Choice":-1,"RT":-1,"Accuracy":1,"Outcome":"-10","Keys":[],"TotalKeys":0,"Block":1,"Trial":114,"Robot":4,"Valence":"Lose","Action":"No-Go","Sham":1,"Color":"blue","trial_type":"pit-trial","trial_index":131,"time_elapsed":569071,"internal_node_id":"0.0-120.0","task_version":"test-retest-t2"},{"Rune":"rune_03_uruz","Hex":"#ffcc3399","Correct":-1,"Choice":-1,"RT":-1,"Accuracy":1,"Outcome":"+10","Keys":[],"TotalKeys":0,"Block":1,"Trial":115,"Robot":2,"Valence":"Win","Action":"No-Go","Sham":0,"Color":"yellow","trial_type":"pit-trial","trial_index":132,"time_elapsed":573084,"internal_node_id":"0.0-121.0","task_version":"test-retest-t2"},{"Rune":"rune_03_naudiz","Hex":"#ffcc3399","Correct":32,"Choice":32,"RT":802.8749999998836,"Accuracy":1,"Outcome":"+10","Keys":[2303.390000000014],"TotalKeys":1,"Block":1,"Trial":116,"Robot":1,"Valence":"Win","Action":"Go","Sham":0,"Color":"yellow","trial_type":"pit-trial","trial_index":133,"time_elapsed":576400,"internal_node_id":"0.0-122.0","task_version":"test-retest-t2"},{"Rune":"rune_03_uruz","Hex":"#ffcc3399","Correct":-1,"Choice":-1,"RT":-1,"Accuracy":1,"Outcome":"+10","Keys":[],"TotalKeys":0,"Block":1,"Trial":117,"Robot":2,"Valence":"Win","Action":"No-Go","Sham":0,"Color":"yellow","trial_type":"pit-trial","trial_index":134,"time_elapsed":580407,"internal_node_id":"0.0-123.0","task_version":"test-retest-t2"},{"Rune":"rune_03_algiz","Hex":"#3366ff99","Correct":32,"Choice":32,"RT":910.2599999996601,"Accuracy":1,"Outcome":"-1","Keys":[2410.6999999999534],"TotalKeys":1,"Block":1,"Trial":118,"Robot":3,"Valence":"Lose","Action":"Go","Sham":0,"Color":"blue","trial_type":"pit-trial","trial_index":135,"time_elapsed":583827,"internal_node_id":"0.0-124.0","task_version":"test-retest-t2"},{"Rune":"rune_03_naudiz","Hex":"#ffcc3399","Correct":32,"Choice":32,"RT":702.0549999998184,"Accuracy":1,"Outcome":"+10","Keys":[2202.0849999999627],"TotalKeys":1,"Block":1,"Trial":119,"Robot":1,"Valence":"Win","Action":"Go","Sham":0,"Color":"yellow","trial_type":"pit-trial","trial_index":136,"time_elapsed":587037,"internal_node_id":"0.0-125.0","task_version":"test-retest-t2"},{"Rune":"rune_03_othalan","Hex":"#3366ff99","Correct":-1,"Choice":-1,"RT":-1,"Accuracy":1,"Outcome":"-1","Keys":[],"TotalKeys":0,"Block":1,"Trial":120,"Robot":4,"Valence":"Lose","Action":"No-Go","Sham":0,"Color":"blue","trial_type":"pit-trial","trial_index":137,"time_elapsed":591044,"internal_node_id":"0.0-126.0","task_version":"test-retest-t2"},{"view_history":"[{\"page_index\":0,\"viewing_time\":2726.069999999716},{\"page_index\":1,\"viewing_time\":1203.2650000001304},{\"page_index\":2,\"viewing_time\":1438.7799999999115}]","rt":5369.254999999655,"trial_type":"pit-instructions","trial_index":138,"time_elapsed":596422,"internal_node_id":"0.0-127.0","task_version":"test-retest-t2"},{"Rune":"rune_04_iwaz","Hex":"#ffcc3399","Correct":32,"Choice":32,"RT":435.53999999992084,"Accuracy":1,"Outcome":"+10","Keys":[1936.1449999996694],"TotalKeys":1,"Block":2,"Trial":121,"Robot":1,"Valence":"Win","Action":"Go","Sham":0,"Color":"yellow","trial_type":"pit-trial","trial_index":139,"time_elapsed":599368,"internal_node_id":"0.0-128.0","task_version":"test-retest-t2"},{"Rune":"rune_04_wunjo","Hex":"#3366ff99","Correct":-1,"Choice":32,"RT":670.0800000003073,"Accuracy":0,"Outcome":"-1","Keys":[2170.564999999944],"TotalKeys":1,"Block":2,"Trial":122,"Robot":4,"Valence":"Lose","Action":"No-Go","Sham":1,"Color":"blue","trial_type":"pit-trial","trial_index":140,"time_elapsed":602545,"internal_node_id":"0.0-129.0","task_version":"test-retest-t2"},{"Rune":"rune_04_dagaz","Hex":"#3366ff99","Correct":32,"Choice":-1,"RT":-1,"Accuracy":0,"Outcome":"-1","Keys":[],"TotalKeys":0,"Block":2,"Trial":123,"Robot":3,"Valence":"Lose","Action":"Go","Sham":1,"Color":"blue","trial_type":"pit-trial","trial_index":141,"time_elapsed":606552,"internal_node_id":"0.0-130.0","task_version":"test-retest-t2"},{"Rune":"rune_04_ac","Hex":"#ffcc3399","Correct":-1,"Choice":-1,"RT":-1,"Accuracy":1,"Outcome":"+10","Keys":[],"TotalKeys":0,"Block":2,"Trial":124,"Robot":2,"Valence":"Win","Action":"No-Go","Sham":0,"Color":"yellow","trial_type":"pit-trial","trial_index":142,"time_elapsed":610561,"internal_node_id":"0.0-131.0","task_version":"test-retest-t2"},{"Rune":"rune_04_iwaz","Hex":"#ffcc3399","Correct":32,"Choice":32,"RT":401.36999999999534,"Accuracy":1,"Outcome":"+1","Keys":[1901.890000000014],"TotalKeys":1,"Block":2,"Trial":125,"Robot":1,"Valence":"Win","Action":"Go","Sham":1,"Color":"yellow","trial_type":"pit-trial","trial_index":143,"time_elapsed":613468,"internal_node_id":"0.0-132.0","task_version":"test-retest-t2"},{"Rune":"rune_04_ac","Hex":"#ffcc3399","Correct":-1,"Choice":-1,"RT":-1,"Accuracy":1,"Outcome":"+10","Keys":[],"TotalKeys":0,"Block":2,"Trial":126,"Robot":2,"Valence":"Win","Action":"No-Go","Sham":0,"Color":"yellow","trial_type":"pit-trial","trial_index":144,"time_elapsed":617474,"internal_node_id":"0.0-133.0","task_version":"test-retest-t2"},{"Rune":"rune_04_wunjo","Hex":"#3366ff99","Correct":-1,"Choice":32,"RT":530.6749999999302,"Accuracy":0,"Outcome":"-10","Keys":[2030.8999999997905],"TotalKeys":1,"Block":2,"Trial":127,"Robot":4,"Valence":"Lose","Action":"No-Go","Sham":0,"Color":"blue","trial_type":"pit-trial","trial_index":145,"time_elapsed":620511,"internal_node_id":"0.0-134.0","task_version":"test-retest-t2"},{"Rune":"rune_04_dagaz","Hex":"#3366ff99","Correct":32,"Choice":-1,"RT":-1,"Accuracy":0,"Outcome":"-10","Keys":[],"TotalKeys":0,"Block":2,"Trial":128,"Robot":3,"Valence":"Lose","Action":"Go","Sham":0,"Color":"blue","trial_type":"pit-trial","trial_index":146,"time_elapsed":624516,"internal_node_id":"0.0-135.0","task_version":"test-retest-t2"},{"Rune":"rune_04_iwaz","Hex":"#ffcc3399","Correct":32,"Choice":32,"RT":387.6149999999907,"Accuracy":1,"Outcome":"+10","Keys":[1888.1900000000605],"TotalKeys":1,"Block":2,"Trial":129,"Robot":1,"Valence":"Win","Action":"Go","Sham":0,"Color":"yellow","trial_type":"pit-trial","trial_index":147,"time_elapsed":627410,"internal_node_id":"0.0-136.0","task_version":"test-retest-t2"},{"Rune":"rune_04_ac","Hex":"#ffcc3399","Correct":-1,"Choice":-1,"RT":-1,"Accuracy":1,"Outcome":"+10","Keys":[],"TotalKeys":0,"Block":2,"Trial":130,"Robot":2,"Valence":"Win","Action":"No-Go","Sham":0,"Color":"yellow","trial_type":"pit-trial","trial_index":148,"time_elapsed":631419,"internal_node_id":"0.0-137.0","task_version":"test-retest-t2"},{"Rune":"rune_04_wunjo","Hex":"#3366ff99","Correct":-1,"Choice":-1,"RT":-1,"Accuracy":1,"Outcome":"-1","Keys":[],"TotalKeys":0,"Block":2,"Trial":131,"Robot":4,"Valence":"Lose","Action":"No-Go","Sham":0,"Color":"blue","trial_type":"pit-trial","trial_index":149,"time_elapsed":635426,"internal_node_id":"0.0-138.0","task_version":"test-retest-t2"},{"Rune":"rune_04_dagaz","Hex":"#3366ff99","Correct":32,"Choice":32,"RT":473.64999999990687,"Accuracy":1,"Outcome":"-1","Keys":[1973.7850000000326],"TotalKeys":1,"Block":2,"Trial":132,"Robot":3,"Valence":"Lose","Action":"Go","Sham":0,"Color":"blue","trial_type":"pit-trial","trial_index":150,"time_elapsed":638406,"internal_node_id":"0.0-139.0","task_version":"test-retest-t2"},{"Rune":"rune_04_wunjo","Hex":"#3366ff99","Correct":-1,"Choice":-1,"RT":-1,"Accuracy":1,"Outcome":"-1","Keys":[],"TotalKeys":0,"Block":2,"Trial":133,"Robot":4,"Valence":"Lose","Action":"No-Go","Sham":0,"Color":"blue","trial_type":"pit-trial","trial_index":151,"time_elapsed":642414,"internal_node_id":"0.0-140.0","task_version":"test-retest-t2"},{"Rune":"rune_04_ac","Hex":"#ffcc3399","Correct":-1,"Choice":-1,"RT":-1,"Accuracy":1,"Outcome":"+1","Keys":[],"TotalKeys":0,"Block":2,"Trial":134,"Robot":2,"Valence":"Win","Action":"No-Go","Sham":1,"Color":"yellow","trial_type":"pit-trial","trial_index":152,"time_elapsed":646422,"internal_node_id":"0.0-141.0","task_version":"test-retest-t2"},{"Rune":"rune_04_iwaz","Hex":"#ffcc3399","Correct":32,"Choice":32,"RT":692.675000000163,"Accuracy":1,"Outcome":"+10","Keys":[2194.5300000002608],"TotalKeys":1,"Block":2,"Trial":135,"Robot":1,"Valence":"Win","Action":"Go","Sham":0,"Color":"yellow","trial_type":"pit-trial","trial_index":153,"time_elapsed":649624,"internal_node_id":"0.0-142.0","task_version":"test-retest-t2"},{"Rune":"rune_04_dagaz","Hex":"#3366ff99","Correct":32,"Choice":32,"RT":899.2850000000326,"Accuracy":1,"Outcome":"-1","Keys":[2399.5600000002887],"TotalKeys":1,"Block":2,"Trial":136,"Robot":3,"Valence":"Lose","Action":"Go","Sham":0,"Color":"blue","trial_type":"pit-trial","trial_index":154,"time_elapsed":653030,"internal_node_id":"0.0-143.0","task_version":"test-retest-t2"},{"Rune":"rune_04_dagaz","Hex":"#3366ff99","Correct":32,"Choice":32,"RT":618.6300000003539,"Accuracy":1,"Outcome":"-1","Keys":[2118.8900000001304],"TotalKeys":1,"Block":2,"Trial":137,"Robot":3,"Valence":"Lose","Action":"Go","Sham":0,"Color":"blue","trial_type":"pit-trial","trial_index":155,"time_elapsed":656154,"internal_node_id":"0.0-144.0","task_version":"test-retest-t2"},{"Rune":"rune_04_wunjo","Hex":"#3366ff99","Correct":-1,"Choice":-1,"RT":-1,"Accuracy":1,"Outcome":"-1","Keys":[],"TotalKeys":0,"Block":2,"Trial":138,"Robot":4,"Valence":"Lose","Action":"No-Go","Sham":0,"Color":"blue","trial_type":"pit-trial","trial_index":156,"time_elapsed":660161,"internal_node_id":"0.0-145.0","task_version":"test-retest-t2"},{"Rune":"rune_04_iwaz","Hex":"#ffcc3399","Correct":32,"Choice":32,"RT":633.5949999998556,"Accuracy":1,"Outcome":"+10","Keys":[2133.694999999949],"TotalKeys":1,"Block":2,"Trial":139,"Robot":1,"Valence":"Win","Action":"Go","Sham":0,"Color":"yellow","trial_type":"pit-trial","trial_index":157,"time_elapsed":663300,"internal_node_id":"0.0-146.0","task_version":"test-retest-t2"},{"Rune":"rune_04_ac","Hex":"#ffcc3399","Correct":-1,"Choice":-1,"RT":-1,"Accuracy":1,"Outcome":"+10","Keys":[],"TotalKeys":0,"Block":2,"Trial":140,"Robot":2,"Valence":"Win","Action":"No-Go","Sham":0,"Color":"yellow","trial_type":"pit-trial","trial_index":158,"time_elapsed":667309,"internal_node_id":"0.0-147.0","task_version":"test-retest-t2"},{"Rune":"rune_04_iwaz","Hex":"#ffcc3399","Correct":32,"Choice":32,"RT":586.3150000000605,"Accuracy":1,"Outcome":"+10","Keys":[2086.4000000001397],"TotalKeys":1,"Block":2,"Trial":141,"Robot":1,"Valence":"Win","Action":"Go","Sham":0,"Color":"yellow","trial_type":"pit-trial","trial_index":159,"time_elapsed":670403,"internal_node_id":"0.0-148.0","task_version":"test-retest-t2"},{"Rune":"rune_04_dagaz","Hex":"#3366ff99","Correct":32,"Choice":32,"RT":624.0250000000233,"Accuracy":1,"Outcome":"-10","Keys":[2124.5849999999627],"TotalKeys":1,"Block":2,"Trial":142,"Robot":3,"Valence":"Lose","Action":"Go","Sham":1,"Color":"blue","trial_type":"pit-trial","trial_index":160,"time_elapsed":673533,"internal_node_id":"0.0-149.0","task_version":"test-retest-t2"},{"Rune":"rune_04_wunjo","Hex":"#3366ff99","Correct":-1,"Choice":-1,"RT":-1,"Accuracy":1,"Outcome":"-1","Keys":[],"TotalKeys":0,"Block":2,"Trial":143,"Robot":4,"Valence":"Lose","Action":"No-Go","Sham":0,"Color":"blue","trial_type":"pit-trial","trial_index":161,"time_elapsed":677538,"internal_node_id":"0.0-150.0","task_version":"test-retest-t2"},{"Rune":"rune_04_ac","Hex":"#ffcc3399","Correct":-1,"Choice":-1,"RT":-1,"Accuracy":1,"Outcome":"+10","Keys":[],"TotalKeys":0,"Block":2,"Trial":144,"Robot":2,"Valence":"Win","Action":"No-Go","Sham":0,"Color":"yellow","trial_type":"pit-trial","trial_index":162,"time_elapsed":681544,"internal_node_id":"0.0-151.0","task_version":"test-retest-t2"},{"Rune":"rune_04_wunjo","Hex":"#3366ff99","Correct":-1,"Choice":-1,"RT":-1,"Accuracy":1,"Outcome":"-10","Keys":[],"TotalKeys":0,"Block":2,"Trial":145,"Robot":4,"Valence":"Lose","Action":"No-Go","Sham":1,"Color":"blue","trial_type":"pit-trial","trial_index":163,"time_elapsed":685550,"internal_node_id":"0.0-152.0","task_version":"test-retest-t2"},{"Rune":"rune_04_ac","Hex":"#ffcc3399","Correct":-1,"Choice":-1,"RT":-1,"Accuracy":1,"Outcome":"+10","Keys":[],"TotalKeys":0,"Block":2,"Trial":146,"Robot":2,"Valence":"Win","Action":"No-Go","Sham":0,"Color":"yellow","trial_type":"pit-trial","trial_index":164,"time_elapsed":689556,"internal_node_id":"0.0-153.0","task_version":"test-retest-t2"},{"Rune":"rune_04_iwaz","Hex":"#ffcc3399","Correct":32,"Choice":32,"RT":698.2699999999022,"Accuracy":1,"Outcome":"+10","Keys":[2198.390000000014],"TotalKeys":1,"Block":2,"Trial":147,"Robot":1,"Valence":"Win","Action":"Go","Sham":0,"Color":"yellow","trial_type":"pit-trial","trial_index":165,"time_elapsed":692760,"internal_node_id":"0.0-154.0","task_version":"test-retest-t2"},{"Rune":"rune_04_dagaz","Hex":"#3366ff99","Correct":32,"Choice":32,"RT":684.2650000003632,"Accuracy":1,"Outcome":"-1","Keys":[2184.2849999997998],"TotalKeys":1,"Block":2,"Trial":148,"Robot":3,"Valence":"Lose","Action":"Go","Sham":0,"Color":"blue","trial_type":"pit-trial","trial_index":166,"time_elapsed":695953,"internal_node_id":"0.0-155.0","task_version":"test-retest-t2"},{"Rune":"rune_04_iwaz","Hex":"#ffcc3399","Correct":32,"Choice":32,"RT":770.5849999997299,"Accuracy":1,"Outcome":"+1","Keys":[2271.1500000000233],"TotalKeys":1,"Block":2,"Trial":149,"Robot":1,"Valence":"Win","Action":"Go","Sham":1,"Color":"yellow","trial_type":"pit-trial","trial_index":167,"time_elapsed":699232,"internal_node_id":"0.0-156.0","task_version":"test-retest-t2"},{"Rune":"rune_04_ac","Hex":"#ffcc3399","Correct":-1,"Choice":-1,"RT":-1,"Accuracy":1,"Outcome":"+10","Keys":[],"TotalKeys":0,"Block":2,"Trial":150,"Robot":2,"Valence":"Win","Action":"No-Go","Sham":0,"Color":"yellow","trial_type":"pit-trial","trial_index":168,"time_elapsed":703238,"internal_node_id":"0.0-157.0","task_version":"test-retest-t2"},{"Rune":"rune_04_dagaz","Hex":"#3366ff99","Correct":32,"Choice":32,"RT":714.5399999999208,"Accuracy":1,"Outcome":"-1","Keys":[2214.9899999999907],"TotalKeys":1,"Block":2,"Trial":151,"Robot":3,"Valence":"Lose","Action":"Go","Sham":0,"Color":"blue","trial_type":"pit-trial","trial_index":169,"time_elapsed":706459,"internal_node_id":"0.0-158.0","task_version":"test-retest-t2"},{"Rune":"rune_04_wunjo","Hex":"#3366ff99","Correct":-1,"Choice":-1,"RT":-1,"Accuracy":1,"Outcome":"-1","Keys":[],"TotalKeys":0,"Block":2,"Trial":152,"Robot":4,"Valence":"Lose","Action":"No-Go","Sham":0,"Color":"blue","trial_type":"pit-trial","trial_index":170,"time_elapsed":710465,"internal_node_id":"0.0-159.0","task_version":"test-retest-t2"},{"Rune":"rune_04_ac","Hex":"#ffcc3399","Correct":-1,"Choice":-1,"RT":-1,"Accuracy":1,"Outcome":"+1","Keys":[],"TotalKeys":0,"Block":2,"Trial":153,"Robot":2,"Valence":"Win","Action":"No-Go","Sham":1,"Color":"yellow","trial_type":"pit-trial","trial_index":171,"time_elapsed":714474,"internal_node_id":"0.0-160.0","task_version":"test-retest-t2"},{"Rune":"rune_04_dagaz","Hex":"#3366ff99","Correct":32,"Choice":32,"RT":597.6299999996554,"Accuracy":1,"Outcome":"-1","Keys":[2098.164999999921],"TotalKeys":1,"Block":2,"Trial":154,"Robot":3,"Valence":"Lose","Action":"Go","Sham":0,"Color":"blue","trial_type":"pit-trial","trial_index":172,"time_elapsed":717579,"internal_node_id":"0.0-161.0","task_version":"test-retest-t2"},{"Rune":"rune_04_iwaz","Hex":"#ffcc3399","Correct":32,"Choice":32,"RT":606.8199999999488,"Accuracy":1,"Outcome":"+10","Keys":[2106.875],"TotalKeys":1,"Block":2,"Trial":155,"Robot":1,"Valence":"Win","Action":"Go","Sham":0,"Color":"yellow","trial_type":"pit-trial","trial_index":173,"time_elapsed":720697,"internal_node_id":"0.0-162.0","task_version":"test-retest-t2"},{"Rune":"rune_04_wunjo","Hex":"#3366ff99","Correct":-1,"Choice":-1,"RT":-1,"Accuracy":1,"Outcome":"-1","Keys":[],"TotalKeys":0,"Block":2,"Trial":156,"Robot":4,"Valence":"Lose","Action":"No-Go","Sham":0,"Color":"blue","trial_type":"pit-trial","trial_index":174,"time_elapsed":724704,"internal_node_id":"0.0-163.0","task_version":"test-retest-t2"},{"Rune":"rune_04_iwaz","Hex":"#ffcc3399","Correct":32,"Choice":32,"RT":529.1550000001444,"Accuracy":1,"Outcome":"+10","Keys":[2029.6449999996694],"TotalKeys":1,"Block":2,"Trial":157,"Robot":1,"Valence":"Win","Action":"Go","Sham":0,"Color":"yellow","trial_type":"pit-trial","trial_index":175,"time_elapsed":727746,"internal_node_id":"0.0-164.0","task_version":"test-retest-t2"},{"Rune":"rune_04_wunjo","Hex":"#3366ff99","Correct":-1,"Choice":-1,"RT":-1,"Accuracy":1,"Outcome":"-1","Keys":[],"TotalKeys":0,"Block":2,"Trial":158,"Robot":4,"Valence":"Lose","Action":"No-Go","Sham":0,"Color":"blue","trial_type":"pit-trial","trial_index":176,"time_elapsed":731753,"internal_node_id":"0.0-165.0","task_version":"test-retest-t2"},{"Rune":"rune_04_ac","Hex":"#ffcc3399","Correct":-1,"Choice":-1,"RT":-1,"Accuracy":1,"Outcome":"+10","Keys":[],"TotalKeys":0,"Block":2,"Trial":159,"Robot":2,"Valence":"Win","Action":"No-Go","Sham":0,"Color":"yellow","trial_type":"pit-trial","trial_index":177,"time_elapsed":735762,"internal_node_id":"0.0-166.0","task_version":"test-retest-t2"},{"Rune":"rune_04_dagaz","Hex":"#3366ff99","Correct":32,"Choice":32,"RT":555.3850000001257,"Accuracy":1,"Outcome":"-1","Keys":[2055.6650000003865],"TotalKeys":1,"Block":2,"Trial":160,"Robot":3,"Valence":"Lose","Action":"Go","Sham":0,"Color":"blue","trial_type":"pit-trial","trial_index":178,"time_elapsed":738830,"internal_node_id":"0.0-167.0","task_version":"test-retest-t2"},{"Rune":"rune_04_wunjo","Hex":"#3366ff99","Correct":-1,"Choice":-1,"RT":-1,"Accuracy":1,"Outcome":"-1","Keys":[],"TotalKeys":0,"Block":2,"Trial":161,"Robot":4,"Valence":"Lose","Action":"No-Go","Sham":0,"Color":"blue","trial_type":"pit-trial","trial_index":179,"time_elapsed":742835,"internal_node_id":"0.0-168.0","task_version":"test-retest-t2"},{"Rune":"rune_04_dagaz","Hex":"#3366ff99","Correct":32,"Choice":32,"RT":534.6350000000093,"Accuracy":1,"Outcome":"-1","Keys":[2038.9650000002002],"TotalKeys":1,"Block":2,"Trial":162,"Robot":3,"Valence":"Lose","Action":"Go","Sham":0,"Color":"blue","trial_type":"pit-trial","trial_index":180,"time_elapsed":745880,"internal_node_id":"0.0-169.0","task_version":"test-retest-t2"},{"Rune":"rune_04_ac","Hex":"#ffcc3399","Correct":-1,"Choice":-1,"RT":-1,"Accuracy":1,"Outcome":"+10","Keys":[],"TotalKeys":0,"Block":2,"Trial":163,"Robot":2,"Valence":"Win","Action":"No-Go","Sham":0,"Color":"yellow","trial_type":"pit-trial","trial_index":181,"time_elapsed":749887,"internal_node_id":"0.0-170.0","task_version":"test-retest-t2"},{"Rune":"rune_04_iwaz","Hex":"#ffcc3399","Correct":32,"Choice":32,"RT":492.8100000001723,"Accuracy":1,"Outcome":"+10","Keys":[1995.265000000014],"TotalKeys":1,"Block":2,"Trial":164,"Robot":1,"Valence":"Win","Action":"Go","Sham":0,"Color":"yellow","trial_type":"pit-trial","trial_index":182,"time_elapsed":752888,"internal_node_id":"0.0-171.0","task_version":"test-retest-t2"},{"Rune":"rune_04_iwaz","Hex":"#ffcc3399","Correct":32,"Choice":32,"RT":972.4400000000605,"Accuracy":1,"Outcome":"+10","Keys":[2472.7449999999953],"TotalKeys":1,"Block":2,"Trial":165,"Robot":1,"Valence":"Win","Action":"Go","Sham":0,"Color":"yellow","trial_type":"pit-trial","trial_index":183,"time_elapsed":756366,"internal_node_id":"0.0-172.0","task_version":"test-retest-t2"},{"Rune":"rune_04_ac","Hex":"#ffcc3399","Correct":-1,"Choice":-1,"RT":-1,"Accuracy":1,"Outcome":"+1","Keys":[],"TotalKeys":0,"Block":2,"Trial":166,"Robot":2,"Valence":"Win","Action":"No-Go","Sham":1,"Color":"yellow","trial_type":"pit-trial","trial_index":184,"time_elapsed":760372,"internal_node_id":"0.0-173.0","task_version":"test-retest-t2"},{"Rune":"rune_04_wunjo","Hex":"#3366ff99","Correct":-1,"Choice":-1,"RT":-1,"Accuracy":1,"Outcome":"-1","Keys":[],"TotalKeys":0,"Block":2,"Trial":167,"Robot":4,"Valence":"Lose","Action":"No-Go","Sham":0,"Color":"blue","trial_type":"pit-trial","trial_index":185,"time_elapsed":764378,"internal_node_id":"0.0-174.0","task_version":"test-retest-t2"},{"Rune":"rune_04_dagaz","Hex":"#3366ff99","Correct":32,"Choice":32,"RT":461.64999999967404,"Accuracy":1,"Outcome":"-1","Keys":[1961.7450000001118],"TotalKeys":1,"Block":2,"Trial":168,"Robot":3,"Valence":"Lose","Action":"Go","Sham":0,"Color":"blue","trial_type":"pit-trial","trial_index":186,"time_elapsed":767349,"internal_node_id":"0.0-175.0","task_version":"test-retest-t2"},{"Rune":"rune_04_ac","Hex":"#ffcc3399","Correct":-1,"Choice":-1,"RT":-1,"Accuracy":1,"Outcome":"+10","Keys":[],"TotalKeys":0,"Block":2,"Trial":169,"Robot":2,"Valence":"Win","Action":"No-Go","Sham":0,"Color":"yellow","trial_type":"pit-trial","trial_index":187,"time_elapsed":771359,"internal_node_id":"0.0-176.0","task_version":"test-retest-t2"},{"Rune":"rune_04_iwaz","Hex":"#ffcc3399","Correct":32,"Choice":32,"RT":828.5299999997951,"Accuracy":1,"Outcome":"+10","Keys":[2329.0649999998277],"TotalKeys":1,"Block":2,"Trial":170,"Robot":1,"Valence":"Win","Action":"Go","Sham":0,"Color":"yellow","trial_type":"pit-trial","trial_index":188,"time_elapsed":774695,"internal_node_id":"0.0-177.0","task_version":"test-retest-t2"},{"Rune":"rune_04_dagaz","Hex":"#3366ff99","Correct":32,"Choice":32,"RT":733.0299999997951,"Accuracy":1,"Outcome":"-1","Keys":[2234.0600000001723],"TotalKeys":1,"Block":2,"Trial":171,"Robot":3,"Valence":"Lose","Action":"Go","Sham":0,"Color":"blue","trial_type":"pit-trial","trial_index":189,"time_elapsed":777946,"internal_node_id":"0.0-178.0","task_version":"test-retest-t2"},{"Rune":"rune_04_wunjo","Hex":"#3366ff99","Correct":-1,"Choice":-1,"RT":-1,"Accuracy":1,"Outcome":"-1","Keys":[],"TotalKeys":0,"Block":2,"Trial":172,"Robot":4,"Valence":"Lose","Action":"No-Go","Sham":0,"Color":"blue","trial_type":"pit-trial","trial_index":190,"time_elapsed":781957,"internal_node_id":"0.0-179.0","task_version":"test-retest-t2"},{"Rune":"rune_04_ac","Hex":"#ffcc3399","Correct":-1,"Choice":-1,"RT":-1,"Accuracy":1,"Outcome":"+10","Keys":[],"TotalKeys":0,"Block":2,"Trial":173,"Robot":2,"Valence":"Win","Action":"No-Go","Sham":0,"Color":"yellow","trial_type":"pit-trial","trial_index":191,"time_elapsed":785964,"internal_node_id":"0.0-180.0","task_version":"test-retest-t2"},{"Rune":"rune_04_dagaz","Hex":"#3366ff99","Correct":32,"Choice":32,"RT":579.2799999999115,"Accuracy":1,"Outcome":"-1","Keys":[2079.395000000135],"TotalKeys":1,"Block":2,"Trial":174,"Robot":3,"Valence":"Lose","Action":"Go","Sham":0,"Color":"blue","trial_type":"pit-trial","trial_index":192,"time_elapsed":789050,"internal_node_id":"0.0-181.0","task_version":"test-retest-t2"},{"Rune":"rune_04_iwaz","Hex":"#ffcc3399","Correct":32,"Choice":32,"RT":971.4300000000512,"Accuracy":1,"Outcome":"+10","Keys":[2471.9700000000885],"TotalKeys":1,"Block":2,"Trial":175,"Robot":1,"Valence":"Win","Action":"Go","Sham":0,"Color":"yellow","trial_type":"pit-trial","trial_index":193,"time_elapsed":792529,"internal_node_id":"0.0-182.0","task_version":"test-retest-t2"},{"Rune":"rune_04_wunjo","Hex":"#3366ff99","Correct":-1,"Choice":-1,"RT":-1,"Accuracy":1,"Outcome":"-10","Keys":[],"TotalKeys":0,"Block":2,"Trial":176,"Robot":4,"Valence":"Lose","Action":"No-Go","Sham":1,"Color":"blue","trial_type":"pit-trial","trial_index":194,"time_elapsed":796535,"internal_node_id":"0.0-183.0","task_version":"test-retest-t2"},{"Rune":"rune_04_iwaz","Hex":"#ffcc3399","Correct":32,"Choice":32,"RT":784.7600000000093,"Accuracy":1,"Outcome":"+1","Keys":[2285.2799999995623],"TotalKeys":1,"Block":2,"Trial":177,"Robot":1,"Valence":"Win","Action":"Go","Sham":1,"Color":"yellow","trial_type":"pit-trial","trial_index":195,"time_elapsed":799829,"internal_node_id":"0.0-184.0","task_version":"test-retest-t2"},{"Rune":"rune_04_dagaz","Hex":"#3366ff99","Correct":32,"Choice":32,"RT":758.5399999998044,"Accuracy":1,"Outcome":"-10","Keys":[2258.8599999998696],"TotalKeys":1,"Block":2,"Trial":178,"Robot":3,"Valence":"Lose","Action":"Go","Sham":1,"Color":"blue","trial_type":"pit-trial","trial_index":196,"time_elapsed":803097,"internal_node_id":"0.0-185.0","task_version":"test-retest-t2"},{"Rune":"rune_04_wunjo","Hex":"#3366ff99","Correct":-1,"Choice":-1,"RT":-1,"Accuracy":1,"Outcome":"-1","Keys":[],"TotalKeys":0,"Block":2,"Trial":179,"Robot":4,"Valence":"Lose","Action":"No-Go","Sham":0,"Color":"blue","trial_type":"pit-trial","trial_index":197,"time_elapsed":807105,"internal_node_id":"0.0-186.0","task_version":"test-retest-t2"},{"Rune":"rune_04_ac","Hex":"#ffcc3399","Correct":-1,"Choice":-1,"RT":-1,"Accuracy":1,"Outcome":"+10","Keys":[],"TotalKeys":0,"Block":2,"Trial":180,"Robot":2,"Valence":"Win","Action":"No-Go","Sham":0,"Color":"yellow","trial_type":"pit-trial","trial_index":198,"time_elapsed":811112,"internal_node_id":"0.0-187.0","task_version":"test-retest-t2"},{"view_history":"[{\"page_index\":0,\"viewing_time\":2683.8500000004424},{\"page_index\":1,\"viewing_time\":927.8799999996554}]","rt":3613.3100000002887,"trial_type":"pit-instructions","trial_index":199,"time_elapsed":814734,"internal_node_id":"0.0-188.0","task_version":"test-retest-t2"},{"Rune":"rune_04_wunjo","Hex":"#3366ff99","Correct":-1,"Choice":-1,"RT":-1,"Accuracy":1,"Outcome":"-10","Keys":[],"TotalKeys":0,"Block":2,"Trial":181,"Robot":4,"Valence":"Lose","Action":"No-Go","Sham":1,"Color":"blue","trial_type":"pit-trial","trial_index":200,"time_elapsed":818747,"internal_node_id":"0.0-189.0","task_version":"test-retest-t2"},{"Rune":"rune_04_iwaz","Hex":"#ffcc3399","Correct":32,"Choice":32,"RT":388.77499999990687,"Accuracy":1,"Outcome":"+10","Keys":[1889.0849999998463],"TotalKeys":1,"Block":2,"Trial":182,"Robot":1,"Valence":"Win","Action":"Go","Sham":0,"Color":"yellow","trial_type":"pit-trial","trial_index":201,"time_elapsed":821648,"internal_node_id":"0.0-190.0","task_version":"test-retest-t2"},{"Rune":"rune_04_dagaz","Hex":"#3366ff99","Correct":32,"Choice":32,"RT":984.8399999996182,"Accuracy":1,"Outcome":"-10","Keys":[2486.7550000000047],"TotalKeys":1,"Block":2,"Trial":183,"Robot":3,"Valence":"Lose","Action":"Go","Sham":1,"Color":"blue","trial_type":"pit-trial","trial_index":202,"time_elapsed":825140,"internal_node_id":"0.0-191.0","task_version":"test-retest-t2"},{"Rune":"rune_04_ac","Hex":"#ffcc3399","Correct":-1,"Choice":-1,"RT":-1,"Accuracy":1,"Outcome":"+10","Keys":[],"TotalKeys":0,"Block":2,"Trial":184,"Robot":2,"Valence":"Win","Action":"No-Go","Sham":0,"Color":"yellow","trial_type":"pit-trial","trial_index":203,"time_elapsed":829146,"internal_node_id":"0.0-192.0","task_version":"test-retest-t2"},{"Rune":"rune_04_iwaz","Hex":"#ffcc3399","Correct":32,"Choice":32,"RT":546.0500000003958,"Accuracy":1,"Outcome":"+10","Keys":[2050.354999999865],"TotalKeys":1,"Block":2,"Trial":185,"Robot":1,"Valence":"Win","Action":"Go","Sham":0,"Color":"yellow","trial_type":"pit-trial","trial_index":204,"time_elapsed":832203,"internal_node_id":"0.0-193.0","task_version":"test-retest-t2"},{"Rune":"rune_04_ac","Hex":"#ffcc3399","Correct":-1,"Choice":-1,"RT":-1,"Accuracy":1,"Outcome":"+10","Keys":[],"TotalKeys":0,"Block":2,"Trial":186,"Robot":2,"Valence":"Win","Action":"No-Go","Sham":0,"Color":"yellow","trial_type":"pit-trial","trial_index":205,"time_elapsed":836216,"internal_node_id":"0.0-194.0","task_version":"test-retest-t2"},{"Rune":"rune_04_dagaz","Hex":"#3366ff99","Correct":32,"Choice":32,"RT":442.6149999999907,"Accuracy":1,"Outcome":"-1","Keys":[1942.719999999972],"TotalKeys":1,"Block":2,"Trial":187,"Robot":3,"Valence":"Lose","Action":"Go","Sham":0,"Color":"blue","trial_type":"pit-trial","trial_index":206,"time_elapsed":839168,"internal_node_id":"0.0-195.0","task_version":"test-retest-t2"},{"Rune":"rune_04_wunjo","Hex":"#3366ff99","Correct":-1,"Choice":-1,"RT":-1,"Accuracy":1,"Outcome":"-1","Keys":[],"TotalKeys":0,"Block":2,"Trial":188,"Robot":4,"Valence":"Lose","Action":"No-Go","Sham":0,"Color":"blue","trial_type":"pit-trial","trial_index":207,"time_elapsed":843175,"internal_node_id":"0.0-196.0","task_version":"test-retest-t2"},{"Rune":"rune_04_iwaz","Hex":"#ffcc3399","Correct":32,"Choice":32,"RT":741.2399999998743,"Accuracy":1,"Outcome":"+10","Keys":[2241.770000000135],"TotalKeys":1,"Block":2,"Trial":189,"Robot":1,"Valence":"Win","Action":"Go","Sham":0,"Color":"yellow","trial_type":"pit-trial","trial_index":208,"time_elapsed":846424,"internal_node_id":"0.0-197.0","task_version":"test-retest-t2"},{"Rune":"rune_04_ac","Hex":"#ffcc3399","Correct":-1,"Choice":-1,"RT":-1,"Accuracy":1,"Outcome":"+10","Keys":[],"TotalKeys":0,"Block":2,"Trial":190,"Robot":2,"Valence":"Win","Action":"No-Go","Sham":0,"Color":"yellow","trial_type":"pit-trial","trial_index":209,"time_elapsed":850434,"internal_node_id":"0.0-198.0","task_version":"test-retest-t2"},{"Rune":"rune_04_dagaz","Hex":"#3366ff99","Correct":32,"Choice":32,"RT":938.7650000002468,"Accuracy":1,"Outcome":"-1","Keys":[2440.725000000326],"TotalKeys":1,"Block":2,"Trial":191,"Robot":3,"Valence":"Lose","Action":"Go","Sham":0,"Color":"blue","trial_type":"pit-trial","trial_index":210,"time_elapsed":853881,"internal_node_id":"0.0-199.0","task_version":"test-retest-t2"},{"Rune":"rune_04_wunjo","Hex":"#3366ff99","Correct":-1,"Choice":-1,"RT":-1,"Accuracy":1,"Outcome":"-1","Keys":[],"TotalKeys":0,"Block":2,"Trial":192,"Robot":4,"Valence":"Lose","Action":"No-Go","Sham":0,"Color":"blue","trial_type":"pit-trial","trial_index":211,"time_elapsed":857887,"internal_node_id":"0.0-200.0","task_version":"test-retest-t2"},{"Rune":"rune_04_ac","Hex":"#ffcc3399","Correct":-1,"Choice":-1,"RT":-1,"Accuracy":1,"Outcome":"+1","Keys":[],"TotalKeys":0,"Block":2,"Trial":193,"Robot":2,"Valence":"Win","Action":"No-Go","Sham":1,"Color":"yellow","trial_type":"pit-trial","trial_index":212,"time_elapsed":861894,"internal_node_id":"0.0-201.0","task_version":"test-retest-t2"},{"Rune":"rune_04_wunjo","Hex":"#3366ff99","Correct":-1,"Choice":-1,"RT":-1,"Accuracy":1,"Outcome":"-1","Keys":[],"TotalKeys":0,"Block":2,"Trial":194,"Robot":4,"Valence":"Lose","Action":"No-Go","Sham":0,"Color":"blue","trial_type":"pit-trial","trial_index":213,"time_elapsed":865900,"internal_node_id":"0.0-202.0","task_version":"test-retest-t2"},{"Rune":"rune_04_dagaz","Hex":"#3366ff99","Correct":32,"Choice":32,"RT":544.1150000002235,"Accuracy":1,"Outcome":"-1","Keys":[2044.7300000000978],"TotalKeys":1,"Block":2,"Trial":195,"Robot":3,"Valence":"Lose","Action":"Go","Sham":0,"Color":"blue","trial_type":"pit-trial","trial_index":214,"time_elapsed":868951,"internal_node_id":"0.0-203.0","task_version":"test-retest-t2"},{"Rune":"rune_04_iwaz","Hex":"#ffcc3399","Correct":32,"Choice":32,"RT":722.7449999999953,"Accuracy":1,"Outcome":"+10","Keys":[2224.8599999998696],"TotalKeys":1,"Block":2,"Trial":196,"Robot":1,"Valence":"Win","Action":"Go","Sham":0,"Color":"yellow","trial_type":"pit-trial","trial_index":215,"time_elapsed":872185,"internal_node_id":"0.0-204.0","task_version":"test-retest-t2"},{"Rune":"rune_04_ac","Hex":"#ffcc3399","Correct":-1,"Choice":-1,"RT":-1,"Accuracy":1,"Outcome":"+10","Keys":[],"TotalKeys":0,"Block":2,"Trial":197,"Robot":2,"Valence":"Win","Action":"No-Go","Sham":0,"Color":"yellow","trial_type":"pit-trial","trial_index":216,"time_elapsed":876192,"internal_node_id":"0.0-205.0","task_version":"test-retest-t2"},{"Rune":"rune_04_iwaz","Hex":"#ffcc3399","Correct":32,"Choice":32,"RT":552.5150000002468,"Accuracy":1,"Outcome":"+1","Keys":[2053.155000000028],"TotalKeys":1,"Block":2,"Trial":198,"Robot":1,"Valence":"Win","Action":"Go","Sham":1,"Color":"yellow","trial_type":"pit-trial","trial_index":217,"time_elapsed":879254,"internal_node_id":"0.0-206.0","task_version":"test-retest-t2"},{"Rune":"rune_04_wunjo","Hex":"#3366ff99","Correct":-1,"Choice":-1,"RT":-1,"Accuracy":1,"Outcome":"-1","Keys":[],"TotalKeys":0,"Block":2,"Trial":199,"Robot":4,"Valence":"Lose","Action":"No-Go","Sham":0,"Color":"blue","trial_type":"pit-trial","trial_index":218,"time_elapsed":883265,"internal_node_id":"0.0-207.0","task_version":"test-retest-t2"},{"Rune":"rune_04_dagaz","Hex":"#3366ff99","Correct":32,"Choice":32,"RT":547.9699999996228,"Accuracy":1,"Outcome":"-1","Keys":[2048.475000000093],"TotalKeys":1,"Block":2,"Trial":200,"Robot":3,"Valence":"Lose","Action":"Go","Sham":0,"Color":"blue","trial_type":"pit-trial","trial_index":219,"time_elapsed":886323,"internal_node_id":"0.0-208.0","task_version":"test-retest-t2"},{"Rune":"rune_04_ac","Hex":"#ffcc3399","Correct":-1,"Choice":-1,"RT":-1,"Accuracy":1,"Outcome":"+10","Keys":[],"TotalKeys":0,"Block":2,"Trial":201,"Robot":2,"Valence":"Win","Action":"No-Go","Sham":0,"Color":"yellow","trial_type":"pit-trial","trial_index":220,"time_elapsed":890337,"internal_node_id":"0.0-209.0","task_version":"test-retest-t2"},{"Rune":"rune_04_wunjo","Hex":"#3366ff99","Correct":-1,"Choice":-1,"RT":-1,"Accuracy":1,"Outcome":"-10","Keys":[],"TotalKeys":0,"Block":2,"Trial":202,"Robot":4,"Valence":"Lose","Action":"No-Go","Sham":1,"Color":"blue","trial_type":"pit-trial","trial_index":221,"time_elapsed":894347,"internal_node_id":"0.0-210.0","task_version":"test-retest-t2"},{"Rune":"rune_04_iwaz","Hex":"#ffcc3399","Correct":32,"Choice":32,"RT":688.3650000004563,"Accuracy":1,"Outcome":"+10","Keys":[2188.869999999879],"TotalKeys":1,"Block":2,"Trial":203,"Robot":1,"Valence":"Win","Action":"Go","Sham":0,"Color":"yellow","trial_type":"pit-trial","trial_index":222,"time_elapsed":897545,"internal_node_id":"0.0-211.0","task_version":"test-retest-t2"},{"Rune":"rune_04_dagaz","Hex":"#3366ff99","Correct":32,"Choice":32,"RT":658.4649999999674,"Accuracy":1,"Outcome":"-1","Keys":[2158.730000000214],"TotalKeys":1,"Block":2,"Trial":204,"Robot":3,"Valence":"Lose","Action":"Go","Sham":0,"Color":"blue","trial_type":"pit-trial","trial_index":223,"time_elapsed":900713,"internal_node_id":"0.0-212.0","task_version":"test-retest-t2"},{"Rune":"rune_04_ac","Hex":"#ffcc3399","Correct":-1,"Choice":-1,"RT":-1,"Accuracy":1,"Outcome":"+10","Keys":[],"TotalKeys":0,"Block":2,"Trial":205,"Robot":2,"Valence":"Win","Action":"No-Go","Sham":0,"Color":"yellow","trial_type":"pit-trial","trial_index":224,"time_elapsed":904720,"internal_node_id":"0.0-213.0","task_version":"test-retest-t2"},{"Rune":"rune_04_iwaz","Hex":"#ffcc3399","Correct":32,"Choice":32,"RT":724.1599999996834,"Accuracy":1,"Outcome":"+10","Keys":[2224.375000000233],"TotalKeys":1,"Block":2,"Trial":206,"Robot":1,"Valence":"Win","Action":"Go","Sham":0,"Color":"yellow","trial_type":"pit-trial","trial_index":225,"time_elapsed":907953,"internal_node_id":"0.0-214.0","task_version":"test-retest-t2"},{"Rune":"rune_04_wunjo","Hex":"#3366ff99","Correct":-1,"Choice":-1,"RT":-1,"Accuracy":1,"Outcome":"-1","Keys":[],"TotalKeys":0,"Block":2,"Trial":207,"Robot":4,"Valence":"Lose","Action":"No-Go","Sham":0,"Color":"blue","trial_type":"pit-trial","trial_index":226,"time_elapsed":911963,"internal_node_id":"0.0-215.0","task_version":"test-retest-t2"},{"Rune":"rune_04_dagaz","Hex":"#3366ff99","Correct":32,"Choice":32,"RT":592.8149999999441,"Accuracy":1,"Outcome":"-1","Keys":[2093.0699999998324],"TotalKeys":1,"Block":2,"Trial":208,"Robot":3,"Valence":"Lose","Action":"Go","Sham":0,"Color":"blue","trial_type":"pit-trial","trial_index":227,"time_elapsed":915066,"internal_node_id":"0.0-216.0","task_version":"test-retest-t2"},{"Rune":"rune_04_dagaz","Hex":"#3366ff99","Correct":32,"Choice":32,"RT":666.890000000014,"Accuracy":1,"Outcome":"-1","Keys":[2166.975000000093],"TotalKeys":1,"Block":2,"Trial":209,"Robot":3,"Valence":"Lose","Action":"Go","Sham":0,"Color":"blue","trial_type":"pit-trial","trial_index":228,"time_elapsed":918245,"internal_node_id":"0.0-217.0","task_version":"test-retest-t2"},{"Rune":"rune_04_iwaz","Hex":"#ffcc3399","Correct":32,"Choice":32,"RT":580.7399999998743,"Accuracy":1,"Outcome":"+1","Keys":[2080.8249999999534],"TotalKeys":1,"Block":2,"Trial":210,"Robot":1,"Valence":"Win","Action":"Go","Sham":1,"Color":"yellow","trial_type":"pit-trial","trial_index":229,"time_elapsed":921335,"internal_node_id":"0.0-218.0","task_version":"test-retest-t2"},{"Rune":"rune_04_wunjo","Hex":"#3366ff99","Correct":-1,"Choice":-1,"RT":-1,"Accuracy":1,"Outcome":"-1","Keys":[],"TotalKeys":0,"Block":2,"Trial":211,"Robot":4,"Valence":"Lose","Action":"No-Go","Sham":0,"Color":"blue","trial_type":"pit-trial","trial_index":230,"time_elapsed":925342,"internal_node_id":"0.0-219.0","task_version":"test-retest-t2"},{"Rune":"rune_04_ac","Hex":"#ffcc3399","Correct":-1,"Choice":-1,"RT":-1,"Accuracy":1,"Outcome":"+10","Keys":[],"TotalKeys":0,"Block":2,"Trial":212,"Robot":2,"Valence":"Win","Action":"No-Go","Sham":0,"Color":"yellow","trial_type":"pit-trial","trial_index":231,"time_elapsed":929348,"internal_node_id":"0.0-220.0","task_version":"test-retest-t2"},{"Rune":"rune_04_ac","Hex":"#ffcc3399","Correct":-1,"Choice":-1,"RT":-1,"Accuracy":1,"Outcome":"+10","Keys":[],"TotalKeys":0,"Block":2,"Trial":213,"Robot":2,"Valence":"Win","Action":"No-Go","Sham":0,"Color":"yellow","trial_type":"pit-trial","trial_index":232,"time_elapsed":933354,"internal_node_id":"0.0-221.0","task_version":"test-retest-t2"},{"Rune":"rune_04_dagaz","Hex":"#3366ff99","Correct":32,"Choice":32,"RT":577.1300000001211,"Accuracy":1,"Outcome":"-1","Keys":[2077.805000000284],"TotalKeys":1,"Block":2,"Trial":214,"Robot":3,"Valence":"Lose","Action":"Go","Sham":0,"Color":"blue","trial_type":"pit-trial","trial_index":233,"time_elapsed":936437,"internal_node_id":"0.0-222.0","task_version":"test-retest-t2"},{"Rune":"rune_04_wunjo","Hex":"#3366ff99","Correct":-1,"Choice":-1,"RT":-1,"Accuracy":1,"Outcome":"-1","Keys":[],"TotalKeys":0,"Block":2,"Trial":215,"Robot":4,"Valence":"Lose","Action":"No-Go","Sham":0,"Color":"blue","trial_type":"pit-trial","trial_index":234,"time_elapsed":940442,"internal_node_id":"0.0-223.0","task_version":"test-retest-t2"},{"Rune":"rune_04_iwaz","Hex":"#ffcc3399","Correct":32,"Choice":32,"RT":617.4949999999953,"Accuracy":1,"Outcome":"+10","Keys":[2118.1499999997905],"TotalKeys":1,"Block":2,"Trial":216,"Robot":1,"Valence":"Win","Action":"Go","Sham":0,"Color":"yellow","trial_type":"pit-trial","trial_index":235,"time_elapsed":943566,"internal_node_id":"0.0-224.0","task_version":"test-retest-t2"},{"Rune":"rune_04_iwaz","Hex":"#ffcc3399","Correct":32,"Choice":32,"RT":690.5099999998929,"Accuracy":1,"Outcome":"+10","Keys":[2190.57500000007],"TotalKeys":1,"Block":2,"Trial":217,"Robot":1,"Valence":"Win","Action":"Go","Sham":0,"Color":"yellow","trial_type":"pit-trial","trial_index":236,"time_elapsed":946763,"internal_node_id":"0.0-225.0","task_version":"test-retest-t2"},{"Rune":"rune_04_ac","Hex":"#ffcc3399","Correct":-1,"Choice":-1,"RT":-1,"Accuracy":1,"Outcome":"+1","Keys":[],"TotalKeys":0,"Block":2,"Trial":218,"Robot":2,"Valence":"Win","Action":"No-Go","Sham":1,"Color":"yellow","trial_type":"pit-trial","trial_index":237,"time_elapsed":950770,"internal_node_id":"0.0-226.0","task_version":"test-retest-t2"},{"Rune":"rune_04_wunjo","Hex":"#3366ff99","Correct":-1,"Choice":-1,"RT":-1,"Accuracy":1,"Outcome":"-1","Keys":[],"TotalKeys":0,"Block":2,"Trial":219,"Robot":4,"Valence":"Lose","Action":"No-Go","Sham":0,"Color":"blue","trial_type":"pit-trial","trial_index":238,"time_elapsed":954776,"internal_node_id":"0.0-227.0","task_version":"test-retest-t2"},{"Rune":"rune_04_dagaz","Hex":"#3366ff99","Correct":32,"Choice":32,"RT":535.6049999999814,"Accuracy":1,"Outcome":"-10","Keys":[2036.109999999986],"TotalKeys":1,"Block":2,"Trial":220,"Robot":3,"Valence":"Lose","Action":"Go","Sham":1,"Color":"blue","trial_type":"pit-trial","trial_index":239,"time_elapsed":957818,"internal_node_id":"0.0-228.0","task_version":"test-retest-t2"},{"Rune":"rune_04_iwaz","Hex":"#ffcc3399","Correct":32,"Choice":32,"RT":562.2549999997718,"Accuracy":1,"Outcome":"+10","Keys":[2063.0049999998882],"TotalKeys":1,"Block":2,"Trial":221,"Robot":1,"Valence":"Win","Action":"Go","Sham":0,"Color":"yellow","trial_type":"pit-trial","trial_index":240,"time_elapsed":960887,"internal_node_id":"0.0-229.0","task_version":"test-retest-t2"},{"Rune":"rune_04_dagaz","Hex":"#3366ff99","Correct":32,"Choice":32,"RT":780.0849999999627,"Accuracy":1,"Outcome":"-1","Keys":[2280.2000000001863],"TotalKeys":1,"Block":2,"Trial":222,"Robot":3,"Valence":"Lose","Action":"Go","Sham":0,"Color":"blue","trial_type":"pit-trial","trial_index":241,"time_elapsed":964173,"internal_node_id":"0.0-230.0","task_version":"test-retest-t2"},{"Rune":"rune_04_wunjo","Hex":"#3366ff99","Correct":-1,"Choice":-1,"RT":-1,"Accuracy":1,"Outcome":"-1","Keys":[],"TotalKeys":0,"Block":2,"Trial":223,"Robot":4,"Valence":"Lose","Action":"No-Go","Sham":0,"Color":"blue","trial_type":"pit-trial","trial_index":242,"time_elapsed":968179,"internal_node_id":"0.0-231.0","task_version":"test-retest-t2"},{"Rune":"rune_04_ac","Hex":"#ffcc3399","Correct":-1,"Choice":-1,"RT":-1,"Accuracy":1,"Outcome":"+10","Keys":[],"TotalKeys":0,"Block":2,"Trial":224,"Robot":2,"Valence":"Win","Action":"No-Go","Sham":0,"Color":"yellow","trial_type":"pit-trial","trial_index":243,"time_elapsed":972185,"internal_node_id":"0.0-232.0","task_version":"test-retest-t2"},{"Rune":"rune_04_ac","Hex":"#ffcc3399","Correct":-1,"Choice":-1,"RT":-1,"Accuracy":1,"Outcome":"+1","Keys":[],"TotalKeys":0,"Block":2,"Trial":225,"Robot":2,"Valence":"Win","Action":"No-Go","Sham":1,"Color":"yellow","trial_type":"pit-trial","trial_index":244,"time_elapsed":976192,"internal_node_id":"0.0-233.0","task_version":"test-retest-t2"},{"Rune":"rune_04_iwaz","Hex":"#ffcc3399","Correct":32,"Choice":32,"RT":615.8049999999348,"Accuracy":1,"Outcome":"+1","Keys":[2116.0649999997113],"TotalKeys":1,"Block":2,"Trial":226,"Robot":1,"Valence":"Win","Action":"Go","Sham":1,"Color":"yellow","trial_type":"pit-trial","trial_index":245,"time_elapsed":979315,"internal_node_id":"0.0-234.0","task_version":"test-retest-t2"},{"Rune":"rune_04_dagaz","Hex":"#3366ff99","Correct":32,"Choice":32,"RT":520.2249999997439,"Accuracy":1,"Outcome":"-1","Keys":[2020.3200000000652],"TotalKeys":1,"Block":2,"Trial":227,"Robot":3,"Valence":"Lose","Action":"Go","Sham":0,"Color":"blue","trial_type":"pit-trial","trial_index":246,"time_elapsed":982341,"internal_node_id":"0.0-235.0","task_version":"test-retest-t2"},{"Rune":"rune_04_wunjo","Hex":"#3366ff99","Correct":-1,"Choice":-1,"RT":-1,"Accuracy":1,"Outcome":"-1","Keys":[],"TotalKeys":0,"Block":2,"Trial":228,"Robot":4,"Valence":"Lose","Action":"No-Go","Sham":0,"Color":"blue","trial_type":"pit-trial","trial_index":247,"time_elapsed":986350,"internal_node_id":"0.0-236.0","task_version":"test-retest-t2"},{"Rune":"rune_04_ac","Hex":"#ffcc3399","Correct":-1,"Choice":-1,"RT":-1,"Accuracy":1,"Outcome":"+10","Keys":[],"TotalKeys":0,"Block":2,"Trial":229,"Robot":2,"Valence":"Win","Action":"No-Go","Sham":0,"Color":"yellow","trial_type":"pit-trial","trial_index":248,"time_elapsed":990359,"internal_node_id":"0.0-237.0","task_version":"test-retest-t2"},{"Rune":"rune_04_wunjo","Hex":"#3366ff99","Correct":-1,"Choice":-1,"RT":-1,"Accuracy":1,"Outcome":"-1","Keys":[],"TotalKeys":0,"Block":2,"Trial":230,"Robot":4,"Valence":"Lose","Action":"No-Go","Sham":0,"Color":"blue","trial_type":"pit-trial","trial_index":249,"time_elapsed":994368,"internal_node_id":"0.0-238.0","task_version":"test-retest-t2"},{"Rune":"rune_04_iwaz","Hex":"#ffcc3399","Correct":32,"Choice":32,"RT":713.5650000000605,"Accuracy":1,"Outcome":"+10","Keys":[2214.6650000000373],"TotalKeys":1,"Block":2,"Trial":231,"Robot":1,"Valence":"Win","Action":"Go","Sham":0,"Color":"yellow","trial_type":"pit-trial","trial_index":250,"time_elapsed":997588,"internal_node_id":"0.0-239.0","task_version":"test-retest-t2"},{"Rune":"rune_04_dagaz","Hex":"#3366ff99","Correct":32,"Choice":32,"RT":479.67500000004657,"Accuracy":1,"Outcome":"-1","Keys":[1981.8799999997718],"TotalKeys":1,"Block":2,"Trial":232,"Robot":3,"Valence":"Lose","Action":"Go","Sham":0,"Color":"blue","trial_type":"pit-trial","trial_index":251,"time_elapsed":1000577,"internal_node_id":"0.0-240.0","task_version":"test-retest-t2"},{"Rune":"rune_04_ac","Hex":"#ffcc3399","Correct":-1,"Choice":-1,"RT":-1,"Accuracy":1,"Outcome":"+10","Keys":[],"TotalKeys":0,"Block":2,"Trial":233,"Robot":2,"Valence":"Win","Action":"No-Go","Sham":0,"Color":"yellow","trial_type":"pit-trial","trial_index":252,"time_elapsed":1004586,"internal_node_id":"0.0-241.0","task_version":"test-retest-t2"},{"Rune":"rune_04_wunjo","Hex":"#3366ff99","Correct":-1,"Choice":-1,"RT":-1,"Accuracy":1,"Outcome":"-10","Keys":[],"TotalKeys":0,"Block":2,"Trial":234,"Robot":4,"Valence":"Lose","Action":"No-Go","Sham":1,"Color":"blue","trial_type":"pit-trial","trial_index":253,"time_elapsed":1008599,"internal_node_id":"0.0-242.0","task_version":"test-retest-t2"},{"Rune":"rune_04_dagaz","Hex":"#3366ff99","Correct":32,"Choice":32,"RT":541.1749999999302,"Accuracy":1,"Outcome":"-10","Keys":[2041.8850000000093],"TotalKeys":1,"Block":2,"Trial":235,"Robot":3,"Valence":"Lose","Action":"Go","Sham":1,"Color":"blue","trial_type":"pit-trial","trial_index":254,"time_elapsed":1011646,"internal_node_id":"0.0-243.0","task_version":"test-retest-t2"},{"Rune":"rune_04_iwaz","Hex":"#ffcc3399","Correct":32,"Choice":32,"RT":503.77000000025146,"Accuracy":1,"Outcome":"+10","Keys":[2004.0550000004005],"TotalKeys":1,"Block":2,"Trial":236,"Robot":1,"Valence":"Win","Action":"Go","Sham":0,"Color":"yellow","trial_type":"pit-trial","trial_index":255,"time_elapsed":1014657,"internal_node_id":"0.0-244.0","task_version":"test-retest-t2"},{"Rune":"rune_04_iwaz","Hex":"#ffcc3399","Correct":32,"Choice":32,"RT":709.6099999998696,"Accuracy":1,"Outcome":"+10","Keys":[2209.710000000079],"TotalKeys":1,"Block":2,"Trial":237,"Robot":1,"Valence":"Win","Action":"Go","Sham":0,"Color":"yellow","trial_type":"pit-trial","trial_index":256,"time_elapsed":1017876,"internal_node_id":"0.0-245.0","task_version":"test-retest-t2"},{"Rune":"rune_04_dagaz","Hex":"#3366ff99","Correct":32,"Choice":32,"RT":759.4099999996834,"Accuracy":1,"Outcome":"-1","Keys":[2262.4349999997066],"TotalKeys":1,"Block":2,"Trial":238,"Robot":3,"Valence":"Lose","Action":"Go","Sham":0,"Color":"blue","trial_type":"pit-trial","trial_index":257,"time_elapsed":1021144,"internal_node_id":"0.0-246.0","task_version":"test-retest-t2"},{"Rune":"rune_04_ac","Hex":"#ffcc3399","Correct":-1,"Choice":-1,"RT":-1,"Accuracy":1,"Outcome":"+10","Keys":[],"TotalKeys":0,"Block":2,"Trial":239,"Robot":2,"Valence":"Win","Action":"No-Go","Sham":0,"Color":"yellow","trial_type":"pit-trial","trial_index":258,"time_elapsed":1025149,"internal_node_id":"0.0-247.0","task_version":"test-retest-t2"},{"Rune":"rune_04_wunjo","Hex":"#3366ff99","Correct":-1,"Choice":-1,"RT":-1,"Accuracy":1,"Outcome":"-1","Keys":[],"TotalKeys":0,"Block":2,"Trial":240,"Robot":4,"Valence":"Lose","Action":"No-Go","Sham":0,"Color":"blue","trial_type":"pit-trial","trial_index":259,"time_elapsed":1029156,"internal_node_id":"0.0-248.0","task_version":"test-retest-t2"},{"view_history":"[{\"page_index\":0,\"viewing_time\":2197.560000000056}]","rt":2198.8149999997113,"trial_type":"pit-instructions","trial_index":260,"time_elapsed":1031359,"internal_node_id":"0.0-249.0","task_version":"test-retest-t2"},{"rt":25844.919999999925,"responses":{"difficulty":"4","fun":"5","clarity":"5","strategy":"No writing, just figured it out the same way as last time.","feedback":""},"survey":"debrief","trial_type":"survey-debrief","trial_index":261,"time_elapsed":1057215,"internal_node_id":"0.0-250.0","task_version":"test-retest-t2"},{"rt":3605.219999999972,"stimulus":"You earned a bonus of $1.44 out of $1.5.<br><br>Press any key to complete the experiment.","key_press":32,"trial_type":"html-keyboard-response","trial_index":262,"time_elapsed":1060827,"internal_node_id":"0.0-251.0","task_version":"test-retest-t2","accuracy":0.9541666666666667,"bonus":1.44,"interactions":"[]"}]