[{"slider_type":"valence","raw_loc":583,"loc":0.666,"trial_type":"affective-slider","trial_index":0,"time_elapsed":6467,"internal_node_id":"0.0-0.0","task_version":"test-retest-t3"},{"responses":{"Q02":"2","Q06":"1","Q05":"1","Q01":"3","Q07":"3","Q04":"2","Q03":"2","Q08":"0"},"rt":33906.73499999684,"survey":"gad7","trial_type":"survey-template","trial_index":1,"time_elapsed":40410,"internal_node_id":"0.0-1.0","task_version":"test-retest-t3"},{"view_history":"[{\"page_index\":0,\"viewing_time\":5880.479999992531},{\"page_index\":1,\"viewing_time\":1762.0250000036322},{\"page_index\":2,\"viewing_time\":2869.7399999946356},{\"page_index\":3,\"viewing_time\":4691.695000001346},{\"page_index\":4,\"viewing_time\":7349.920000007842},{\"page_index\":5,\"viewing_time\":4505.51999999152}]","rt":27061.974999989616,"trial_type":"pit-instructions","trial_index":2,"time_elapsed":67566,"internal_node_id":"0.0-2.0-0.0","task_version":"test-retest-t3"},{"Rune":"rune_00_ingz","Hex":"#FFFFF080","Correct":32,"Choice":32,"RT":388.40999999956694,"Accuracy":1,"Outcome":"+10","Keys":[1888.7499999982538],"TotalKeys":1,"Block":0,"Action":"Go","trial_type":"pit-trial","trial_index":3,"time_elapsed":70532,"internal_node_id":"0.0-2.0-1.0-0.0","task_version":"test-retest-t3"},{"Rune":"rune_00_ingz","Hex":"#FFFFF080","Correct":32,"Choice":32,"RT":421.0250000032829,"Accuracy":1,"Outcome":"+10","Keys":[1922.6699999999255],"TotalKeys":1,"Block":0,"Action":"Go","trial_type":"pit-trial","trial_index":4,"time_elapsed":73532,"internal_node_id":"0.0-2.0-1.0-0.1","task_version":"test-retest-t3"},{"Rune":"rune_00_ingz","Hex":"#FFFFF080","Correct":32,"Choice":32,"RT":611.6699999984121,"Accuracy":1,"Outcome":"+10","Keys":[2112.134999988484],"TotalKeys":1,"Block":0,"Action":"Go","trial_type":"pit-trial","trial_index":5,"time_elapsed":76727,"internal_node_id":"0.0-2.0-1.0-0.2","task_version":"test-retest-t3"},{"Rune":"rune_00_ingz","Hex":"#FFFFF080","Correct":32,"Choice":32,"RT":840.0649999966845,"Accuracy":1,"Outcome":"+10","Keys":[1466.5700000041397,2340.7750000042142],"TotalKeys":2,"Block":0,"Action":"Go","trial_type":"pit-trial","trial_index":6,"time_elapsed":80142,"internal_node_id":"0.0-2.0-1.0-0.3","task_version":"test-retest-t3"},{"view_history":"[{\"page_index\":0,\"viewing_time\":2911.6499999945518}]","rt":2913.139999989653,"trial_type":"pit-instructions","trial_index":7,"time_elapsed":83124,"internal_node_id":"0.0-2.0-2.0","task_version":"test-retest-t3"},{"Rune":"rune_00_isaz","Hex":"#FFFFF080","Correct":-1,"Choice":-1,"RT":-1,"Accuracy":1,"Outcome":"+10","Keys":[],"TotalKeys":0,"Block":0,"Action":"No-Go","trial_type":"pit-trial","trial_index":8,"time_elapsed":87198,"internal_node_id":"0.0-2.0-3.0-0.0","task_version":"test-retest-t3"},{"Rune":"rune_00_isaz","Hex":"#FFFFF080","Correct":-1,"Choice":-1,"RT":-1,"Accuracy":1,"Outcome":"+10","Keys":[],"TotalKeys":0,"Block":0,"Action":"No-Go","trial_type":"pit-trial","trial_index":9,"time_elapsed":91273,"internal_node_id":"0.0-2.0-3.0-0.1","task_version":"test-retest-t3"},{"Rune":"rune_00_isaz","Hex":"#FFFFF080","Correct":-1,"Choice":-1,"RT":-1,"Accuracy":1,"Outcome":"+10","Keys":[],"TotalKeys":0,"Block":0,"Action":"No-Go","trial_type":"pit-trial","trial_index":10,"time_elapsed":95348,"internal_node_id":"0.0-2.0-3.0-0.2","task_version":"test-retest-t3"},{"Rune":"rune_00_isaz","Hex":"#FFFFF080","Correct":-1,"Choice":-1,"RT":-1,"Accuracy":1,"Outcome":"+10","Keys":[],"TotalKeys":0,"Block":0,"Action":"No-Go","trial_type":"pit-trial","trial_index":11,"time_elapsed":99440,"internal_node_id":"0.0-2.0-3.0-0.3","task_version":"test-retest-t3"},{"view_history":"[{\"page_index\":0,\"viewing_time\":7583.0300000088755},{\"page_index\":1,\"viewing_time\":23738.174999991315},{\"page_index\":2,\"viewing_time\":8749.180000013439},{\"page_index\":3,\"viewing_time\":6976.27499999362},{\"page_index\":4,\"viewing_time\":5091.325000001234},{\"page_index\":5,\"viewing_time\":8772.609999999986},{\"page_index\":6,\"viewing_time\":4150.549999991199},{\"page_index\":7,\"viewing_time\":2947.0800000126474}]","rt":68009.61500000267,"trial_type":"pit-instructions","trial_index":12,"time_elapsed":167526,"internal_node_id":"0.0-2.0-4.0","task_version":"test-retest-t3"},{"responses":["Do nothing","+10","-1","True","Yes"],"num_errors":0,"rt":69512.2599999886,"trial_type":"pit-comprehension","trial_index":13,"time_elapsed":237115,"internal_node_id":"0.0-2.0-5.0","task_version":"test-retest-t3"},{"trial_type":"call-function","trial_index":14,"time_elapsed":237193,"internal_node_id":"0.0-3.0","task_version":"test-retest-t3"},{"view_history":"[{\"page_index\":0,\"viewing_time\":2987.4350000027334},{\"page_index\":1,\"viewing_time\":25730.98999999638},{\"page_index\":2,\"viewing_time\":7350.195000006352}]","rt":36110.58000000776,"trial_type":"pit-instructions","trial_index":15,"time_elapsed":273307,"internal_node_id":"0.0-4.0","task_version":"test-retest-t3"},{"Rune":"rune_05_jeran","Hex":"#ffcc3399","Correct":32,"Choice":32,"RT":474.8450000042794,"Accuracy":1,"Outcome":"+10","Keys":[1975.6749999942258],"TotalKeys":1,"Block":1,"Trial":1,"Robot":1,"Valence":"Win","Action":"Go","Sham":0,"Color":"yellow","trial_type":"pit-trial","trial_index":16,"time_elapsed":276366,"internal_node_id":"0.0-5.0","task_version":"test-retest-t3"},{"Rune":"rune_05_tiwaz","Hex":"#3366ff99","Correct":-1,"Choice":32,"RT":892.3049999866635,"Accuracy":0,"Outcome":"-10","Keys":[2393.8900000066496],"TotalKeys":1,"Block":1,"Trial":2,"Robot":4,"Valence":"Lose","Action":"No-Go","Sham":0,"Color":"blue","trial_type":"pit-trial","trial_index":17,"time_elapsed":279833,"internal_node_id":"0.0-6.0","task_version":"test-retest-t3"},{"Rune":"rune_05_ior","Hex":"#3366ff99","Correct":32,"Choice":-1,"RT":-1,"Accuracy":0,"Outcome":"-1","Keys":[],"TotalKeys":0,"Block":1,"Trial":3,"Robot":3,"Valence":"Lose","Action":"Go","Sham":1,"Color":"blue","trial_type":"pit-trial","trial_index":18,"time_elapsed":283912,"internal_node_id":"0.0-7.0","task_version":"test-retest-t3"},{"Rune":"rune_05_gebo","Hex":"#ffcc3399","Correct":-1,"Choice":-1,"RT":-1,"Accuracy":1,"Outcome":"+10","Keys":[],"TotalKeys":0,"Block":1,"Trial":4,"Robot":2,"Valence":"Win","Action":"No-Go","Sham":0,"Color":"yellow","trial_type":"pit-trial","trial_index":19,"time_elapsed":287983,"internal_node_id":"0.0-8.0","task_version":"test-retest-t3"},{"Rune":"rune_05_ior","Hex":"#3366ff99","Correct":32,"Choice":32,"RT":1388.0150000040885,"Accuracy":1,"Outcome":"-1","Keys":[2889.7649999998976],"TotalKeys":1,"Block":1,"Trial":5,"Robot":3,"Valence":"Lose","Action":"Go","Sham":0,"Color":"blue","trial_type":"pit-trial","trial_index":20,"time_elapsed":291944,"internal_node_id":"0.0-9.0","task_version":"test-retest-t3"},{"Rune":"rune_05_jeran","Hex":"#ffcc3399","Correct":32,"Choice":32,"RT":668.5850000067148,"Accuracy":1,"Outcome":"+1","Keys":[2169.5849999960046],"TotalKeys":1,"Block":1,"Trial":6,"Robot":1,"Valence":"Win","Action":"Go","Sham":1,"Color":"yellow","trial_type":"pit-trial","trial_index":21,"time_elapsed":295189,"internal_node_id":"0.0-10.0","task_version":"test-retest-t3"},{"Rune":"rune_05_tiwaz","Hex":"#3366ff99","Correct":-1,"Choice":-1,"RT":-1,"Accuracy":1,"Outcome":"-1","Keys":[],"TotalKeys":0,"Block":1,"Trial":7,"Robot":4,"Valence":"Lose","Action":"No-Go","Sham":0,"Color":"blue","trial_type":"pit-trial","trial_index":22,"time_elapsed":299263,"internal_node_id":"0.0-11.0","task_version":"test-retest-t3"},{"Rune":"rune_05_gebo","Hex":"#ffcc3399","Correct":-1,"Choice":32,"RT":751.6000000032363,"Accuracy":0,"Outcome":"+10","Keys":[2251.8350000027567],"TotalKeys":1,"Block":1,"Trial":8,"Robot":2,"Valence":"Win","Action":"No-Go","Sham":1,"Color":"yellow","trial_type":"pit-trial","trial_index":23,"time_elapsed":302592,"internal_node_id":"0.0-12.0","task_version":"test-retest-t3"},{"Rune":"rune_05_gebo","Hex":"#ffcc3399","Correct":-1,"Choice":32,"RT":704.490000003716,"Accuracy":0,"Outcome":"+1","Keys":[2206.835000004503],"TotalKeys":1,"Block":1,"Trial":9,"Robot":2,"Valence":"Win","Action":"No-Go","Sham":0,"Color":"yellow","trial_type":"pit-trial","trial_index":24,"time_elapsed":305870,"internal_node_id":"0.0-13.0","task_version":"test-retest-t3"},{"Rune":"rune_05_jeran","Hex":"#ffcc3399","Correct":32,"Choice":32,"RT":765.2850000013132,"Accuracy":1,"Outcome":"+10","Keys":[2266.4000000077067],"TotalKeys":1,"Block":1,"Trial":10,"Robot":1,"Valence":"Win","Action":"Go","Sham":0,"Color":"yellow","trial_type":"pit-trial","trial_index":25,"time_elapsed":309211,"internal_node_id":"0.0-14.0","task_version":"test-retest-t3"},{"Rune":"rune_05_ior","Hex":"#3366ff99","Correct":32,"Choice":-1,"RT":-1,"Accuracy":0,"Outcome":"-10","Keys":[],"TotalKeys":0,"Block":1,"Trial":11,"Robot":3,"Valence":"Lose","Action":"Go","Sham":0,"Color":"blue","trial_type":"pit-trial","trial_index":26,"time_elapsed":313289,"internal_node_id":"0.0-15.0","task_version":"test-retest-t3"},{"Rune":"rune_05_tiwaz","Hex":"#3366ff99","Correct":-1,"Choice":-1,"RT":-1,"Accuracy":1,"Outcome":"-1","Keys":[],"TotalKeys":0,"Block":1,"Trial":12,"Robot":4,"Valence":"Lose","Action":"No-Go","Sham":0,"Color":"blue","trial_type":"pit-trial","trial_index":27,"time_elapsed":317362,"internal_node_id":"0.0-16.0","task_version":"test-retest-t3"},{"Rune":"rune_05_tiwaz","Hex":"#3366ff99","Correct":-1,"Choice":32,"RT":605.9499999973923,"Accuracy":0,"Outcome":"-1","Keys":[2106.245000002673],"TotalKeys":1,"Block":1,"Trial":13,"Robot":4,"Valence":"Lose","Action":"No-Go","Sham":1,"Color":"blue","trial_type":"pit-trial","trial_index":28,"time_elapsed":320544,"internal_node_id":"0.0-17.0","task_version":"test-retest-t3"},{"Rune":"rune_05_ior","Hex":"#3366ff99","Correct":32,"Choice":-1,"RT":-1,"Accuracy":0,"Outcome":"-10","Keys":[],"TotalKeys":0,"Block":1,"Trial":14,"Robot":3,"Valence":"Lose","Action":"Go","Sham":0,"Color":"blue","trial_type":"pit-trial","trial_index":29,"time_elapsed":324619,"internal_node_id":"0.0-18.0","task_version":"test-retest-t3"},{"Rune":"rune_05_gebo","Hex":"#ffcc3399","Correct":-1,"Choice":32,"RT":848.8450000004377,"Accuracy":0,"Outcome":"+1","Keys":[2350.2650000009453],"TotalKeys":1,"Block":1,"Trial":15,"Robot":2,"Valence":"Win","Action":"No-Go","Sham":0,"Color":"yellow","trial_type":"pit-trial","trial_index":30,"time_elapsed":328055,"internal_node_id":"0.0-19.0","task_version":"test-retest-t3"},{"Rune":"rune_05_jeran","Hex":"#ffcc3399","Correct":32,"Choice":32,"RT":578.6200000002282,"Accuracy":1,"Outcome":"+10","Keys":[2080.310000004829],"TotalKeys":1,"Block":1,"Trial":16,"Robot":1,"Valence":"Win","Action":"Go","Sham":0,"Color":"yellow","trial_type":"pit-trial","trial_index":31,"time_elapsed":331215,"internal_node_id":"0.0-20.0","task_version":"test-retest-t3"},{"Rune":"rune_05_ior","Hex":"#3366ff99","Correct":32,"Choice":-1,"RT":-1,"Accuracy":0,"Outcome":"-10","Keys":[],"TotalKeys":0,"Block":1,"Trial":17,"Robot":3,"Valence":"Lose","Action":"Go","Sham":0,"Color":"blue","trial_type":"pit-trial","trial_index":32,"time_elapsed":335292,"internal_node_id":"0.0-21.0","task_version":"test-retest-t3"},{"Rune":"rune_05_gebo","Hex":"#ffcc3399","Correct":-1,"Choice":32,"RT":673.9349999988917,"Accuracy":0,"Outcome":"+1","Keys":[2174.1349999938393],"TotalKeys":1,"Block":1,"Trial":18,"Robot":2,"Valence":"Win","Action":"No-Go","Sham":0,"Color":"yellow","trial_type":"pit-trial","trial_index":33,"time_elapsed":338546,"internal_node_id":"0.0-22.0","task_version":"test-retest-t3"},{"Rune":"rune_05_jeran","Hex":"#ffcc3399","Correct":32,"Choice":32,"RT":650.7449999917299,"Accuracy":1,"Outcome":"+10","Keys":[2150.889999989886],"TotalKeys":1,"Block":1,"Trial":19,"Robot":1,"Valence":"Win","Action":"Go","Sham":0,"Color":"yellow","trial_type":"pit-trial","trial_index":34,"time_elapsed":341768,"internal_node_id":"0.0-23.0","task_version":"test-retest-t3"},{"Rune":"rune_05_tiwaz","Hex":"#3366ff99","Correct":-1,"Choice":-1,"RT":-1,"Accuracy":1,"Outcome":"-1","Keys":[3261.719999994966],"TotalKeys":1,"Block":1,"Trial":20,"Robot":4,"Valence":"Lose","Action":"No-Go","Sham":0,"Color":"blue","trial_type":"pit-trial","trial_index":35,"time_elapsed":345845,"internal_node_id":"0.0-24.0","task_version":"test-retest-t3"},{"Rune":"rune_05_tiwaz","Hex":"#3366ff99","Correct":-1,"Choice":32,"RT":1031.5850000042701,"Accuracy":0,"Outcome":"-10","Keys":[2533.725000001141],"TotalKeys":1,"Block":1,"Trial":21,"Robot":4,"Valence":"Lose","Action":"No-Go","Sham":0,"Color":"blue","trial_type":"pit-trial","trial_index":36,"time_elapsed":349450,"internal_node_id":"0.0-25.0","task_version":"test-retest-t3"},{"Rune":"rune_05_gebo","Hex":"#ffcc3399","Correct":-1,"Choice":-1,"RT":-1,"Accuracy":1,"Outcome":"+10","Keys":[],"TotalKeys":0,"Block":1,"Trial":22,"Robot":2,"Valence":"Win","Action":"No-Go","Sham":0,"Color":"yellow","trial_type":"pit-trial","trial_index":37,"time_elapsed":353529,"internal_node_id":"0.0-26.0","task_version":"test-retest-t3"},{"Rune":"rune_05_jeran","Hex":"#ffcc3399","Correct":32,"Choice":32,"RT":703.7450000061654,"Accuracy":1,"Outcome":"+10","Keys":[2204.0649999980815],"TotalKeys":1,"Block":1,"Trial":23,"Robot":1,"Valence":"Win","Action":"Go","Sham":0,"Color":"yellow","trial_type":"pit-trial","trial_index":38,"time_elapsed":356805,"internal_node_id":"0.0-27.0","task_version":"test-retest-t3"},{"Rune":"rune_05_ior","Hex":"#3366ff99","Correct":32,"Choice":-1,"RT":-1,"Accuracy":0,"Outcome":"-10","Keys":[3121.7349999933504],"TotalKeys":1,"Block":1,"Trial":24,"Robot":3,"Valence":"Lose","Action":"Go","Sham":0,"Color":"blue","trial_type":"pit-trial","trial_index":39,"time_elapsed":360880,"internal_node_id":"0.0-28.0","task_version":"test-retest-t3"},{"Rune":"rune_05_jeran","Hex":"#ffcc3399","Correct":32,"Choice":32,"RT":699.5649999880698,"Accuracy":1,"Outcome":"+1","Keys":[2201.4500000077533],"TotalKeys":1,"Block":1,"Trial":25,"Robot":1,"Valence":"Win","Action":"Go","Sham":1,"Color":"yellow","trial_type":"pit-trial","trial_index":40,"time_elapsed":364165,"internal_node_id":"0.0-29.0","task_version":"test-retest-t3"},{"Rune":"rune_05_tiwaz","Hex":"#3366ff99","Correct":-1,"Choice":-1,"RT":-1,"Accuracy":1,"Outcome":"-1","Keys":[],"TotalKeys":0,"Block":1,"Trial":26,"Robot":4,"Valence":"Lose","Action":"No-Go","Sham":0,"Color":"blue","trial_type":"pit-trial","trial_index":41,"time_elapsed":368262,"internal_node_id":"0.0-30.0","task_version":"test-retest-t3"},{"Rune":"rune_05_ior","Hex":"#3366ff99","Correct":32,"Choice":-1,"RT":-1,"Accuracy":0,"Outcome":"-1","Keys":[3183.8800000114134],"TotalKeys":1,"Block":1,"Trial":27,"Robot":3,"Valence":"Lose","Action":"Go","Sham":1,"Color":"blue","trial_type":"pit-trial","trial_index":42,"time_elapsed":372341,"internal_node_id":"0.0-31.0","task_version":"test-retest-t3"},{"Rune":"rune_05_gebo","Hex":"#ffcc3399","Correct":-1,"Choice":-1,"RT":-1,"Accuracy":1,"Outcome":"+10","Keys":[],"TotalKeys":0,"Block":1,"Trial":28,"Robot":2,"Valence":"Win","Action":"No-Go","Sham":0,"Color":"yellow","trial_type":"pit-trial","trial_index":43,"time_elapsed":376423,"internal_node_id":"0.0-32.0","task_version":"test-retest-t3"},{"Rune":"rune_05_tiwaz","Hex":"#3366ff99","Correct":-1,"Choice":-1,"RT":-1,"Accuracy":1,"Outcome":"-1","Keys":[],"TotalKeys":0,"Block":1,"Trial":29,"Robot":4,"Valence":"Lose","Action":"No-Go","Sham":0,"Color":"blue","trial_type":"pit-trial","trial_index":44,"time_elapsed":380498,"internal_node_id":"0.0-33.0","task_version":"test-retest-t3"},{"Rune":"rune_05_gebo","Hex":"#ffcc3399","Correct":-1,"Choice":-1,"RT":-1,"Accuracy":1,"Outcome":"+10","Keys":[],"TotalKeys":0,"Block":1,"Trial":30,"Robot":2,"Valence":"Win","Action":"No-Go","Sham":0,"Color":"yellow","trial_type":"pit-trial","trial_index":45,"time_elapsed":384576,"internal_node_id":"0.0-34.0","task_version":"test-retest-t3"},{"Rune":"rune_05_ior","Hex":"#3366ff99","Correct":32,"Choice":-1,"RT":-1,"Accuracy":0,"Outcome":"-10","Keys":[],"TotalKeys":0,"Block":1,"Trial":31,"Robot":3,"Valence":"Lose","Action":"Go","Sham":0,"Color":"blue","trial_type":"pit-trial","trial_index":46,"time_elapsed":388691,"internal_node_id":"0.0-35.0","task_version":"test-retest-t3"},{"Rune":"rune_05_jeran","Hex":"#ffcc3399","Correct":32,"Choice":32,"RT":508.3749999903375,"Accuracy":1,"Outcome":"+10","Keys":[2010.150000001886],"TotalKeys":1,"Block":1,"Trial":32,"Robot":1,"Valence":"Win","Action":"Go","Sham":0,"Color":"yellow","trial_type":"pit-trial","trial_index":47,"time_elapsed":391771,"internal_node_id":"0.0-36.0","task_version":"test-retest-t3"},{"Rune":"rune_05_gebo","Hex":"#ffcc3399","Correct":-1,"Choice":-1,"RT":-1,"Accuracy":1,"Outcome":"+10","Keys":[],"TotalKeys":0,"Block":1,"Trial":33,"Robot":2,"Valence":"Win","Action":"No-Go","Sham":0,"Color":"yellow","trial_type":"pit-trial","trial_index":48,"time_elapsed":395845,"internal_node_id":"0.0-37.0","task_version":"test-retest-t3"},{"Rune":"rune_05_tiwaz","Hex":"#3366ff99","Correct":-1,"Choice":-1,"RT":-1,"Accuracy":1,"Outcome":"-1","Keys":[],"TotalKeys":0,"Block":1,"Trial":34,"Robot":4,"Valence":"Lose","Action":"No-Go","Sham":0,"Color":"blue","trial_type":"pit-trial","trial_index":49,"time_elapsed":399947,"internal_node_id":"0.0-38.0","task_version":"test-retest-t3"},{"Rune":"rune_05_jeran","Hex":"#ffcc3399","Correct":32,"Choice":32,"RT":741.9950000039535,"Accuracy":1,"Outcome":"+10","Keys":[2242.744999995921],"TotalKeys":1,"Block":1,"Trial":35,"Robot":1,"Valence":"Win","Action":"Go","Sham":0,"Color":"yellow","trial_type":"pit-trial","trial_index":50,"time_elapsed":403262,"internal_node_id":"0.0-39.0","task_version":"test-retest-t3"},{"Rune":"rune_05_ior","Hex":"#3366ff99","Correct":32,"Choice":32,"RT":722.6700000028359,"Accuracy":1,"Outcome":"-1","Keys":[2223.41000000597],"TotalKeys":1,"Block":1,"Trial":36,"Robot":3,"Valence":"Lose","Action":"Go","Sham":0,"Color":"blue","trial_type":"pit-trial","trial_index":51,"time_elapsed":406561,"internal_node_id":"0.0-40.0","task_version":"test-retest-t3"},{"Rune":"rune_05_tiwaz","Hex":"#3366ff99","Correct":-1,"Choice":-1,"RT":-1,"Accuracy":1,"Outcome":"-10","Keys":[],"TotalKeys":0,"Block":1,"Trial":37,"Robot":4,"Valence":"Lose","Action":"No-Go","Sham":1,"Color":"blue","trial_type":"pit-trial","trial_index":52,"time_elapsed":410638,"internal_node_id":"0.0-41.0","task_version":"test-retest-t3"},{"Rune":"rune_05_ior","Hex":"#3366ff99","Correct":32,"Choice":32,"RT":1160.504999992554,"Accuracy":1,"Outcome":"-1","Keys":[2661.8000000016764],"TotalKeys":1,"Block":1,"Trial":38,"Robot":3,"Valence":"Lose","Action":"Go","Sham":0,"Color":"blue","trial_type":"pit-trial","trial_index":53,"time_elapsed":414393,"internal_node_id":"0.0-42.0","task_version":"test-retest-t3"},{"Rune":"rune_05_jeran","Hex":"#ffcc3399","Correct":32,"Choice":32,"RT":613.0549999943469,"Accuracy":1,"Outcome":"+10","Keys":[2114.014999999199],"TotalKeys":1,"Block":1,"Trial":39,"Robot":1,"Valence":"Win","Action":"Go","Sham":0,"Color":"yellow","trial_type":"pit-trial","trial_index":54,"time_elapsed":417592,"internal_node_id":"0.0-43.0","task_version":"test-retest-t3"},{"Rune":"rune_05_gebo","Hex":"#ffcc3399","Correct":-1,"Choice":-1,"RT":-1,"Accuracy":1,"Outcome":"+1","Keys":[],"TotalKeys":0,"Block":1,"Trial":40,"Robot":2,"Valence":"Win","Action":"No-Go","Sham":1,"Color":"yellow","trial_type":"pit-trial","trial_index":55,"time_elapsed":421685,"internal_node_id":"0.0-44.0","task_version":"test-retest-t3"},{"Rune":"rune_05_tiwaz","Hex":"#3366ff99","Correct":-1,"Choice":-1,"RT":-1,"Accuracy":1,"Outcome":"-1","Keys":[],"TotalKeys":0,"Block":1,"Trial":41,"Robot":4,"Valence":"Lose","Action":"No-Go","Sham":0,"Color":"blue","trial_type":"pit-trial","trial_index":56,"time_elapsed":425758,"internal_node_id":"0.0-45.0","task_version":"test-retest-t3"},{"Rune":"rune_05_jeran","Hex":"#ffcc3399","Correct":32,"Choice":32,"RT":629.7349999949802,"Accuracy":1,"Outcome":"+10","Keys":[2130.6449999974575],"TotalKeys":1,"Block":1,"Trial":42,"Robot":1,"Valence":"Win","Action":"Go","Sham":0,"Color":"yellow","trial_type":"pit-trial","trial_index":57,"time_elapsed":428968,"internal_node_id":"0.0-46.0","task_version":"test-retest-t3"},{"Rune":"rune_05_ior","Hex":"#3366ff99","Correct":32,"Choice":32,"RT":1266.4399999921443,"Accuracy":1,"Outcome":"-1","Keys":[2767.6249999931315],"TotalKeys":1,"Block":1,"Trial":43,"Robot":3,"Valence":"Lose","Action":"Go","Sham":0,"Color":"blue","trial_type":"pit-trial","trial_index":58,"time_elapsed":432841,"internal_node_id":"0.0-47.0","task_version":"test-retest-t3"},{"Rune":"rune_05_gebo","Hex":"#ffcc3399","Correct":-1,"Choice":-1,"RT":-1,"Accuracy":1,"Outcome":"+1","Keys":[],"TotalKeys":0,"Block":1,"Trial":44,"Robot":2,"Valence":"Win","Action":"No-Go","Sham":1,"Color":"yellow","trial_type":"pit-trial","trial_index":59,"time_elapsed":436931,"internal_node_id":"0.0-48.0","task_version":"test-retest-t3"},{"Rune":"rune_05_jeran","Hex":"#ffcc3399","Correct":32,"Choice":32,"RT":539.5600000047125,"Accuracy":1,"Outcome":"+10","Keys":[2040.2200000098674],"TotalKeys":1,"Block":1,"Trial":45,"Robot":1,"Valence":"Win","Action":"Go","Sham":0,"Color":"yellow","trial_type":"pit-trial","trial_index":60,"time_elapsed":440059,"internal_node_id":"0.0-49.0","task_version":"test-retest-t3"},{"Rune":"rune_05_gebo","Hex":"#ffcc3399","Correct":-1,"Choice":-1,"RT":-1,"Accuracy":1,"Outcome":"+10","Keys":[],"TotalKeys":0,"Block":1,"Trial":46,"Robot":2,"Valence":"Win","Action":"No-Go","Sham":0,"Color":"yellow","trial_type":"pit-trial","trial_index":61,"time_elapsed":444132,"internal_node_id":"0.0-50.0","task_version":"test-retest-t3"},{"Rune":"rune_05_ior","Hex":"#3366ff99","Correct":32,"Choice":32,"RT":1360.3900000016438,"Accuracy":1,"Outcome":"-1","Keys":[2863.180000000284],"TotalKeys":1,"Block":1,"Trial":47,"Robot":3,"Valence":"Lose","Action":"Go","Sham":0,"Color":"blue","trial_type":"pit-trial","trial_index":62,"time_elapsed":448067,"internal_node_id":"0.0-51.0","task_version":"test-retest-t3"},{"Rune":"rune_05_tiwaz","Hex":"#3366ff99","Correct":-1,"Choice":-1,"RT":-1,"Accuracy":1,"Outcome":"-1","Keys":[],"TotalKeys":0,"Block":1,"Trial":48,"Robot":4,"Valence":"Lose","Action":"No-Go","Sham":0,"Color":"blue","trial_type":"pit-trial","trial_index":63,"time_elapsed":452142,"internal_node_id":"0.0-52.0","task_version":"test-retest-t3"},{"Rune":"rune_05_jeran","Hex":"#ffcc3399","Correct":32,"Choice":32,"RT":578.8350000075297,"Accuracy":1,"Outcome":"+10","Keys":[2079.985000003944],"TotalKeys":1,"Block":1,"Trial":49,"Robot":1,"Valence":"Win","Action":"Go","Sham":0,"Color":"yellow","trial_type":"pit-trial","trial_index":64,"time_elapsed":455295,"internal_node_id":"0.0-53.0","task_version":"test-retest-t3"},{"Rune":"rune_05_ior","Hex":"#3366ff99","Correct":32,"Choice":32,"RT":1268.0699999909848,"Accuracy":1,"Outcome":"-1","Keys":[2768.9850000024308],"TotalKeys":1,"Block":1,"Trial":50,"Robot":3,"Valence":"Lose","Action":"Go","Sham":0,"Color":"blue","trial_type":"pit-trial","trial_index":65,"time_elapsed":459138,"internal_node_id":"0.0-54.0","task_version":"test-retest-t3"},{"Rune":"rune_05_gebo","Hex":"#ffcc3399","Correct":-1,"Choice":-1,"RT":-1,"Accuracy":1,"Outcome":"+10","Keys":[],"TotalKeys":0,"Block":1,"Trial":51,"Robot":2,"Valence":"Win","Action":"No-Go","Sham":0,"Color":"yellow","trial_type":"pit-trial","trial_index":66,"time_elapsed":463227,"internal_node_id":"0.0-55.0","task_version":"test-retest-t3"},{"Rune":"rune_05_tiwaz","Hex":"#3366ff99","Correct":-1,"Choice":-1,"RT":-1,"Accuracy":1,"Outcome":"-1","Keys":[],"TotalKeys":0,"Block":1,"Trial":52,"Robot":4,"Valence":"Lose","Action":"No-Go","Sham":0,"Color":"blue","trial_type":"pit-trial","trial_index":67,"time_elapsed":467307,"internal_node_id":"0.0-56.0","task_version":"test-retest-t3"},{"Rune":"rune_05_jeran","Hex":"#ffcc3399","Correct":32,"Choice":32,"RT":698.1050000031246,"Accuracy":1,"Outcome":"+1","Keys":[2202.3100000078557],"TotalKeys":1,"Block":1,"Trial":53,"Robot":1,"Valence":"Win","Action":"Go","Sham":1,"Color":"yellow","trial_type":"pit-trial","trial_index":68,"time_elapsed":470580,"internal_node_id":"0.0-57.0","task_version":"test-retest-t3"},{"Rune":"rune_05_ior","Hex":"#3366ff99","Correct":32,"Choice":-1,"RT":-1,"Accuracy":0,"Outcome":"-10","Keys":[3008.7899999925867],"TotalKeys":1,"Block":1,"Trial":54,"Robot":3,"Valence":"Lose","Action":"Go","Sham":0,"Color":"blue","trial_type":"pit-trial","trial_index":69,"time_elapsed":474678,"internal_node_id":"0.0-58.0","task_version":"test-retest-t3"},{"Rune":"rune_05_gebo","Hex":"#ffcc3399","Correct":-1,"Choice":-1,"RT":-1,"Accuracy":1,"Outcome":"+10","Keys":[],"TotalKeys":0,"Block":1,"Trial":55,"Robot":2,"Valence":"Win","Action":"No-Go","Sham":0,"Color":"yellow","trial_type":"pit-trial","trial_index":70,"time_elapsed":478754,"internal_node_id":"0.0-59.0","task_version":"test-retest-t3"},{"Rune":"rune_05_tiwaz","Hex":"#3366ff99","Correct":-1,"Choice":-1,"RT":-1,"Accuracy":1,"Outcome":"-10","Keys":[],"TotalKeys":0,"Block":1,"Trial":56,"Robot":4,"Valence":"Lose","Action":"No-Go","Sham":1,"Color":"blue","trial_type":"pit-trial","trial_index":71,"time_elapsed":482826,"internal_node_id":"0.0-60.0","task_version":"test-retest-t3"},{"Rune":"rune_05_gebo","Hex":"#ffcc3399","Correct":-1,"Choice":-1,"RT":-1,"Accuracy":1,"Outcome":"+10","Keys":[],"TotalKeys":0,"Block":1,"Trial":57,"Robot":2,"Valence":"Win","Action":"No-Go","Sham":0,"Color":"yellow","trial_type":"pit-trial","trial_index":72,"time_elapsed":486899,"internal_node_id":"0.0-61.0","task_version":"test-retest-t3"},{"Rune":"rune_05_jeran","Hex":"#ffcc3399","Correct":32,"Choice":32,"RT":589.269999996759,"Accuracy":1,"Outcome":"+10","Keys":[2092.029999999795],"TotalKeys":1,"Block":1,"Trial":58,"Robot":1,"Valence":"Win","Action":"Go","Sham":0,"Color":"yellow","trial_type":"pit-trial","trial_index":73,"time_elapsed":490065,"internal_node_id":"0.0-62.0","task_version":"test-retest-t3"},{"Rune":"rune_05_ior","Hex":"#3366ff99","Correct":32,"Choice":-1,"RT":-1,"Accuracy":0,"Outcome":"-1","Keys":[],"TotalKeys":0,"Block":1,"Trial":59,"Robot":3,"Valence":"Lose","Action":"Go","Sham":1,"Color":"blue","trial_type":"pit-trial","trial_index":74,"time_elapsed":494140,"internal_node_id":"0.0-63.0","task_version":"test-retest-t3"},{"Rune":"rune_05_tiwaz","Hex":"#3366ff99","Correct":-1,"Choice":32,"RT":881.7999999882886,"Accuracy":0,"Outcome":"-10","Keys":[2382.770000011078],"TotalKeys":1,"Block":1,"Trial":60,"Robot":4,"Valence":"Lose","Action":"No-Go","Sham":0,"Color":"blue","trial_type":"pit-trial","trial_index":75,"time_elapsed":497599,"internal_node_id":"0.0-64.0","task_version":"test-retest-t3"},{"value":false,"trial_type":"call-function","trial_index":76,"time_elapsed":497670,"internal_node_id":"0.0-65.0","task_version":"test-retest-t3"},{"view_history":"[{\"page_index\":0,\"viewing_time\":8989.784999997937},{\"page_index\":1,\"viewing_time\":6749.729999995907}]","rt":15741.049999996903,"trial_type":"pit-instructions","trial_index":77,"time_elapsed":513414,"internal_node_id":"0.0-66.0","task_version":"test-retest-t3"},{"Rune":"rune_05_gebo","Hex":"#ffcc3399","Correct":-1,"Choice":-1,"RT":-1,"Accuracy":1,"Outcome":"+10","Keys":[],"TotalKeys":0,"Block":1,"Trial":61,"Robot":2,"Valence":"Win","Action":"No-Go","Sham":0,"Color":"yellow","trial_type":"pit-trial","trial_index":78,"time_elapsed":517498,"internal_node_id":"0.0-67.0","task_version":"test-retest-t3"},{"Rune":"rune_05_ior","Hex":"#3366ff99","Correct":32,"Choice":32,"RT":875.2950000052806,"Accuracy":1,"Outcome":"-1","Keys":[2388.650000008056],"TotalKeys":1,"Block":1,"Trial":62,"Robot":3,"Valence":"Lose","Action":"Go","Sham":0,"Color":"blue","trial_type":"pit-trial","trial_index":79,"time_elapsed":520960,"internal_node_id":"0.0-68.0","task_version":"test-retest-t3"},{"Rune":"rune_05_jeran","Hex":"#ffcc3399","Correct":32,"Choice":32,"RT":520.9450000111246,"Accuracy":1,"Outcome":"+1","Keys":[2022.7799999993294],"TotalKeys":1,"Block":1,"Trial":63,"Robot":1,"Valence":"Win","Action":"Go","Sham":1,"Color":"yellow","trial_type":"pit-trial","trial_index":80,"time_elapsed":524055,"internal_node_id":"0.0-69.0","task_version":"test-retest-t3"},{"Rune":"rune_05_tiwaz","Hex":"#3366ff99","Correct":-1,"Choice":-1,"RT":-1,"Accuracy":1,"Outcome":"-1","Keys":[3247.1800000057556],"TotalKeys":1,"Block":1,"Trial":64,"Robot":4,"Valence":"Lose","Action":"No-Go","Sham":0,"Color":"blue","trial_type":"pit-trial","trial_index":81,"time_elapsed":528137,"internal_node_id":"0.0-70.0","task_version":"test-retest-t3"},{"Rune":"rune_05_gebo","Hex":"#ffcc3399","Correct":-1,"Choice":-1,"RT":-1,"Accuracy":1,"Outcome":"+10","Keys":[],"TotalKeys":0,"Block":1,"Trial":65,"Robot":2,"Valence":"Win","Action":"No-Go","Sham":0,"Color":"yellow","trial_type":"pit-trial","trial_index":82,"time_elapsed":532211,"internal_node_id":"0.0-71.0","task_version":"test-retest-t3"},{"Rune":"rune_05_tiwaz","Hex":"#3366ff99","Correct":-1,"Choice":-1,"RT":-1,"Accuracy":1,"Outcome":"-10","Keys":[],"TotalKeys":0,"Block":1,"Trial":66,"Robot":4,"Valence":"Lose","Action":"No-Go","Sham":1,"Color":"blue","trial_type":"pit-trial","trial_index":83,"time_elapsed":536299,"internal_node_id":"0.0-72.0","task_version":"test-retest-t3"},{"Rune":"rune_05_jeran","Hex":"#ffcc3399","Correct":32,"Choice":32,"RT":471.36500000488013,"Accuracy":1,"Outcome":"+10","Keys":[1972.734999988461],"TotalKeys":1,"Block":1,"Trial":67,"Robot":1,"Valence":"Win","Action":"Go","Sham":0,"Color":"yellow","trial_type":"pit-trial","trial_index":84,"time_elapsed":539373,"internal_node_id":"0.0-73.0","task_version":"test-retest-t3"},{"Rune":"rune_05_ior","Hex":"#3366ff99","Correct":32,"Choice":-1,"RT":-1,"Accuracy":0,"Outcome":"-1","Keys":[],"TotalKeys":0,"Block":1,"Trial":68,"Robot":3,"Valence":"Lose","Action":"Go","Sham":1,"Color":"blue","trial_type":"pit-trial","trial_index":85,"time_elapsed":543448,"internal_node_id":"0.0-74.0","task_version":"test-retest-t3"},{"Rune":"rune_05_gebo","Hex":"#ffcc3399","Correct":-1,"Choice":-1,"RT":-1,"Accuracy":1,"Outcome":"+10","Keys":[],"TotalKeys":0,"Block":1,"Trial":69,"Robot":2,"Valence":"Win","Action":"No-Go","Sham":0,"Color":"yellow","trial_type":"pit-trial","trial_index":86,"time_elapsed":547520,"internal_node_id":"0.0-75.0","task_version":"test-retest-t3"},{"Rune":"rune_05_tiwaz","Hex":"#3366ff99","Correct":-1,"Choice":32,"RT":568.6550000100397,"Accuracy":0,"Outcome":"-10","Keys":[2070.2000000019325],"TotalKeys":1,"Block":1,"Trial":70,"Robot":4,"Valence":"Lose","Action":"No-Go","Sham":0,"Color":"blue","trial_type":"pit-trial","trial_index":87,"time_elapsed":550660,"internal_node_id":"0.0-76.0","task_version":"test-retest-t3"},{"Rune":"rune_05_ior","Hex":"#3366ff99","Correct":32,"Choice":32,"RT":813.3950000046752,"Accuracy":1,"Outcome":"-1","Keys":[2314.9850000045262],"TotalKeys":1,"Block":1,"Trial":71,"Robot":3,"Valence":"Lose","Action":"Go","Sham":0,"Color":"blue","trial_type":"pit-trial","trial_index":88,"time_elapsed":554047,"internal_node_id":"0.0-77.0","task_version":"test-retest-t3"},{"Rune":"rune_05_jeran","Hex":"#ffcc3399","Correct":32,"Choice":32,"RT":618.2350000017323,"Accuracy":1,"Outcome":"+10","Keys":[2119.3099999945844],"TotalKeys":1,"Block":1,"Trial":72,"Robot":1,"Valence":"Win","Action":"Go","Sham":0,"Color":"yellow","trial_type":"pit-trial","trial_index":89,"time_elapsed":557239,"internal_node_id":"0.0-78.0","task_version":"test-retest-t3"},{"Rune":"rune_05_jeran","Hex":"#ffcc3399","Correct":32,"Choice":32,"RT":709.0400000015507,"Accuracy":1,"Outcome":"+10","Keys":[2209.7199999989243],"TotalKeys":1,"Block":1,"Trial":73,"Robot":1,"Valence":"Win","Action":"Go","Sham":0,"Color":"yellow","trial_type":"pit-trial","trial_index":90,"time_elapsed":560529,"internal_node_id":"0.0-79.0","task_version":"test-retest-t3"},{"Rune":"rune_05_tiwaz","Hex":"#3366ff99","Correct":-1,"Choice":-1,"RT":-1,"Accuracy":1,"Outcome":"-1","Keys":[],"TotalKeys":0,"Block":1,"Trial":74,"Robot":4,"Valence":"Lose","Action":"No-Go","Sham":0,"Color":"blue","trial_type":"pit-trial","trial_index":91,"time_elapsed":564606,"internal_node_id":"0.0-80.0","task_version":"test-retest-t3"},{"Rune":"rune_05_gebo","Hex":"#ffcc3399","Correct":-1,"Choice":-1,"RT":-1,"Accuracy":1,"Outcome":"+1","Keys":[],"TotalKeys":0,"Block":1,"Trial":75,"Robot":2,"Valence":"Win","Action":"No-Go","Sham":1,"Color":"yellow","trial_type":"pit-trial","trial_index":92,"time_elapsed":568677,"internal_node_id":"0.0-81.0","task_version":"test-retest-t3"},{"Rune":"rune_05_ior","Hex":"#3366ff99","Correct":32,"Choice":32,"RT":649.7699999890756,"Accuracy":1,"Outcome":"-1","Keys":[2150.6500000105007],"TotalKeys":1,"Block":1,"Trial":76,"Robot":3,"Valence":"Lose","Action":"Go","Sham":0,"Color":"blue","trial_type":"pit-trial","trial_index":93,"time_elapsed":571917,"internal_node_id":"0.0-82.0","task_version":"test-retest-t3"},{"Rune":"rune_05_ior","Hex":"#3366ff99","Correct":32,"Choice":-1,"RT":-1,"Accuracy":0,"Outcome":"-10","Keys":[],"TotalKeys":0,"Block":1,"Trial":77,"Robot":3,"Valence":"Lose","Action":"Go","Sham":0,"Color":"blue","trial_type":"pit-trial","trial_index":94,"time_elapsed":576016,"internal_node_id":"0.0-83.0","task_version":"test-retest-t3"},{"Rune":"rune_05_gebo","Hex":"#ffcc3399","Correct":-1,"Choice":-1,"RT":-1,"Accuracy":1,"Outcome":"+10","Keys":[],"TotalKeys":0,"Block":1,"Trial":78,"Robot":2,"Valence":"Win","Action":"No-Go","Sham":0,"Color":"yellow","trial_type":"pit-trial","trial_index":95,"time_elapsed":580091,"internal_node_id":"0.0-84.0","task_version":"test-retest-t3"},{"Rune":"rune_05_jeran","Hex":"#ffcc3399","Correct":32,"Choice":32,"RT":586.9050000037532,"Accuracy":1,"Outcome":"+10","Keys":[2087.4449999973876],"TotalKeys":1,"Block":1,"Trial":79,"Robot":1,"Valence":"Win","Action":"Go","Sham":0,"Color":"yellow","trial_type":"pit-trial","trial_index":96,"time_elapsed":583252,"internal_node_id":"0.0-85.0","task_version":"test-retest-t3"},{"Rune":"rune_05_tiwaz","Hex":"#3366ff99","Correct":-1,"Choice":-1,"RT":-1,"Accuracy":1,"Outcome":"-1","Keys":[],"TotalKeys":0,"Block":1,"Trial":80,"Robot":4,"Valence":"Lose","Action":"No-Go","Sham":0,"Color":"blue","trial_type":"pit-trial","trial_index":97,"time_elapsed":587414,"internal_node_id":"0.0-86.0","task_version":"test-retest-t3"},{"Rune":"rune_05_ior","Hex":"#3366ff99","Correct":32,"Choice":32,"RT":513.6649999913061,"Accuracy":1,"Outcome":"-1","Keys":[2017.2600000078091],"TotalKeys":1,"Block":1,"Trial":81,"Robot":3,"Valence":"Lose","Action":"Go","Sham":0,"Color":"blue","trial_type":"pit-trial","trial_index":98,"time_elapsed":590502,"internal_node_id":"0.0-87.0","task_version":"test-retest-t3"},{"Rune":"rune_05_tiwaz","Hex":"#3366ff99","Correct":-1,"Choice":-1,"RT":-1,"Accuracy":1,"Outcome":"-1","Keys":[],"TotalKeys":0,"Block":1,"Trial":82,"Robot":4,"Valence":"Lose","Action":"No-Go","Sham":0,"Color":"blue","trial_type":"pit-trial","trial_index":99,"time_elapsed":594580,"internal_node_id":"0.0-88.0","task_version":"test-retest-t3"},{"Rune":"rune_05_jeran","Hex":"#ffcc3399","Correct":32,"Choice":32,"RT":557.0049999951152,"Accuracy":1,"Outcome":"+10","Keys":[2058.1700000038836],"TotalKeys":1,"Block":1,"Trial":83,"Robot":1,"Valence":"Win","Action":"Go","Sham":0,"Color":"yellow","trial_type":"pit-trial","trial_index":100,"time_elapsed":597710,"internal_node_id":"0.0-89.0","task_version":"test-retest-t3"},{"Rune":"rune_05_gebo","Hex":"#ffcc3399","Correct":-1,"Choice":-1,"RT":-1,"Accuracy":1,"Outcome":"+1","Keys":[],"TotalKeys":0,"Block":1,"Trial":84,"Robot":2,"Valence":"Win","Action":"No-Go","Sham":1,"Color":"yellow","trial_type":"pit-trial","trial_index":101,"time_elapsed":601788,"internal_node_id":"0.0-90.0","task_version":"test-retest-t3"},{"Rune":"rune_05_gebo","Hex":"#ffcc3399","Correct":-1,"Choice":-1,"RT":-1,"Accuracy":1,"Outcome":"+10","Keys":[],"TotalKeys":0,"Block":1,"Trial":85,"Robot":2,"Valence":"Win","Action":"No-Go","Sham":0,"Color":"yellow","trial_type":"pit-trial","trial_index":102,"time_elapsed":605860,"internal_node_id":"0.0-91.0","task_version":"test-retest-t3"},{"Rune":"rune_05_jeran","Hex":"#ffcc3399","Correct":32,"Choice":32,"RT":600.269999995362,"Accuracy":1,"Outcome":"+10","Keys":[2101.250000006985],"TotalKeys":1,"Block":1,"Trial":86,"Robot":1,"Valence":"Win","Action":"Go","Sham":0,"Color":"yellow","trial_type":"pit-trial","trial_index":103,"time_elapsed":609031,"internal_node_id":"0.0-92.0","task_version":"test-retest-t3"},{"Rune":"rune_05_ior","Hex":"#3366ff99","Correct":32,"Choice":32,"RT":1307.9299999953946,"Accuracy":1,"Outcome":"-1","Keys":[2809.114999996382],"TotalKeys":1,"Block":1,"Trial":87,"Robot":3,"Valence":"Lose","Action":"Go","Sham":0,"Color":"blue","trial_type":"pit-trial","trial_index":104,"time_elapsed":612916,"internal_node_id":"0.0-93.0","task_version":"test-retest-t3"},{"Rune":"rune_05_tiwaz","Hex":"#3366ff99","Correct":-1,"Choice":-1,"RT":-1,"Accuracy":1,"Outcome":"-1","Keys":[],"TotalKeys":0,"Block":1,"Trial":88,"Robot":4,"Valence":"Lose","Action":"No-Go","Sham":0,"Color":"blue","trial_type":"pit-trial","trial_index":105,"time_elapsed":616988,"internal_node_id":"0.0-94.0","task_version":"test-retest-t3"},{"Rune":"rune_05_ior","Hex":"#3366ff99","Correct":32,"Choice":32,"RT":892.8200000082143,"Accuracy":1,"Outcome":"-1","Keys":[2394.060000005993],"TotalKeys":1,"Block":1,"Trial":89,"Robot":3,"Valence":"Lose","Action":"Go","Sham":0,"Color":"blue","trial_type":"pit-trial","trial_index":106,"time_elapsed":620453,"internal_node_id":"0.0-95.0","task_version":"test-retest-t3"},{"Rune":"rune_05_tiwaz","Hex":"#3366ff99","Correct":-1,"Choice":-1,"RT":-1,"Accuracy":1,"Outcome":"-10","Keys":[],"TotalKeys":0,"Block":1,"Trial":90,"Robot":4,"Valence":"Lose","Action":"No-Go","Sham":1,"Color":"blue","trial_type":"pit-trial","trial_index":107,"time_elapsed":624537,"internal_node_id":"0.0-96.0","task_version":"test-retest-t3"},{"Rune":"rune_05_gebo","Hex":"#ffcc3399","Correct":-1,"Choice":-1,"RT":-1,"Accuracy":1,"Outcome":"+10","Keys":[],"TotalKeys":0,"Block":1,"Trial":91,"Robot":2,"Valence":"Win","Action":"No-Go","Sham":0,"Color":"yellow","trial_type":"pit-trial","trial_index":108,"time_elapsed":628618,"internal_node_id":"0.0-97.0","task_version":"test-retest-t3"},{"Rune":"rune_05_jeran","Hex":"#ffcc3399","Correct":32,"Choice":32,"RT":544.1350000037346,"Accuracy":1,"Outcome":"+10","Keys":[2044.4699999934528],"TotalKeys":1,"Block":1,"Trial":92,"Robot":1,"Valence":"Win","Action":"Go","Sham":0,"Color":"yellow","trial_type":"pit-trial","trial_index":109,"time_elapsed":631735,"internal_node_id":"0.0-98.0","task_version":"test-retest-t3"},{"Rune":"rune_05_tiwaz","Hex":"#3366ff99","Correct":-1,"Choice":32,"RT":1257.4499999900581,"Accuracy":0,"Outcome":"-10","Keys":[2758.5499999986496],"TotalKeys":1,"Block":1,"Trial":93,"Robot":4,"Valence":"Lose","Action":"No-Go","Sham":0,"Color":"blue","trial_type":"pit-trial","trial_index":110,"time_elapsed":635567,"internal_node_id":"0.0-99.0","task_version":"test-retest-t3"},{"Rune":"rune_05_gebo","Hex":"#ffcc3399","Correct":-1,"Choice":-1,"RT":-1,"Accuracy":1,"Outcome":"+10","Keys":[],"TotalKeys":0,"Block":1,"Trial":94,"Robot":2,"Valence":"Win","Action":"No-Go","Sham":0,"Color":"yellow","trial_type":"pit-trial","trial_index":111,"time_elapsed":639639,"internal_node_id":"0.0-100.0","task_version":"test-retest-t3"},{"Rune":"rune_05_ior","Hex":"#3366ff99","Correct":32,"Choice":32,"RT":837.6399999979185,"Accuracy":1,"Outcome":"-10","Keys":[2338.560000003781],"TotalKeys":1,"Block":1,"Trial":95,"Robot":3,"Valence":"Lose","Action":"Go","Sham":1,"Color":"blue","trial_type":"pit-trial","trial_index":112,"time_elapsed":643049,"internal_node_id":"0.0-101.0","task_version":"test-retest-t3"},{"Rune":"rune_05_jeran","Hex":"#ffcc3399","Correct":32,"Choice":32,"RT":760.4449999926146,"Accuracy":1,"Outcome":"+1","Keys":[2261.660000003758],"TotalKeys":1,"Block":1,"Trial":96,"Robot":1,"Valence":"Win","Action":"Go","Sham":1,"Color":"yellow","trial_type":"pit-trial","trial_index":113,"time_elapsed":646384,"internal_node_id":"0.0-102.0","task_version":"test-retest-t3"},{"Rune":"rune_05_ior","Hex":"#3366ff99","Correct":32,"Choice":-1,"RT":-1,"Accuracy":0,"Outcome":"-10","Keys":[],"TotalKeys":0,"Block":1,"Trial":97,"Robot":3,"Valence":"Lose","Action":"Go","Sham":0,"Color":"blue","trial_type":"pit-trial","trial_index":114,"time_elapsed":650457,"internal_node_id":"0.0-103.0","task_version":"test-retest-t3"},{"Rune":"rune_05_jeran","Hex":"#ffcc3399","Correct":32,"Choice":32,"RT":534.6100000024308,"Accuracy":1,"Outcome":"+10","Keys":[2048.1549999967683],"TotalKeys":1,"Block":1,"Trial":98,"Robot":1,"Valence":"Win","Action":"Go","Sham":0,"Color":"yellow","trial_type":"pit-trial","trial_index":115,"time_elapsed":653576,"internal_node_id":"0.0-104.0","task_version":"test-retest-t3"},{"Rune":"rune_05_gebo","Hex":"#ffcc3399","Correct":-1,"Choice":-1,"RT":-1,"Accuracy":1,"Outcome":"+10","Keys":[],"TotalKeys":0,"Block":1,"Trial":99,"Robot":2,"Valence":"Win","Action":"No-Go","Sham":0,"Color":"yellow","trial_type":"pit-trial","trial_index":116,"time_elapsed":657662,"internal_node_id":"0.0-105.0","task_version":"test-retest-t3"},{"Rune":"rune_05_tiwaz","Hex":"#3366ff99","Correct":-1,"Choice":-1,"RT":-1,"Accuracy":1,"Outcome":"-1","Keys":[],"TotalKeys":0,"Block":1,"Trial":100,"Robot":4,"Valence":"Lose","Action":"No-Go","Sham":0,"Color":"blue","trial_type":"pit-trial","trial_index":117,"time_elapsed":661735,"internal_node_id":"0.0-106.0","task_version":"test-retest-t3"},{"Rune":"rune_05_jeran","Hex":"#ffcc3399","Correct":32,"Choice":32,"RT":556.1450000095647,"Accuracy":1,"Outcome":"+10","Keys":[2056.815000003553],"TotalKeys":1,"Block":1,"Trial":101,"Robot":1,"Valence":"Win","Action":"Go","Sham":0,"Color":"yellow","trial_type":"pit-trial","trial_index":118,"time_elapsed":664867,"internal_node_id":"0.0-107.0","task_version":"test-retest-t3"},{"Rune":"rune_05_tiwaz","Hex":"#3366ff99","Correct":-1,"Choice":-1,"RT":-1,"Accuracy":1,"Outcome":"-1","Keys":[],"TotalKeys":0,"Block":1,"Trial":102,"Robot":4,"Valence":"Lose","Action":"No-Go","Sham":0,"Color":"blue","trial_type":"pit-trial","trial_index":119,"time_elapsed":668940,"internal_node_id":"0.0-108.0","task_version":"test-retest-t3"},{"Rune":"rune_05_ior","Hex":"#3366ff99","Correct":32,"Choice":32,"RT":659.1199999966193,"Accuracy":1,"Outcome":"-10","Keys":[2160.2550000097835],"TotalKeys":1,"Block":1,"Trial":103,"Robot":3,"Valence":"Lose","Action":"Go","Sham":1,"Color":"blue","trial_type":"pit-trial","trial_index":120,"time_elapsed":672171,"internal_node_id":"0.0-109.0","task_version":"test-retest-t3"},{"Rune":"rune_05_gebo","Hex":"#ffcc3399","Correct":-1,"Choice":-1,"RT":-1,"Accuracy":1,"Outcome":"+10","Keys":[],"TotalKeys":0,"Block":1,"Trial":104,"Robot":2,"Valence":"Win","Action":"No-Go","Sham":0,"Color":"yellow","trial_type":"pit-trial","trial_index":121,"time_elapsed":676243,"internal_node_id":"0.0-110.0","task_version":"test-retest-t3"},{"Rune":"rune_05_gebo","Hex":"#ffcc3399","Correct":-1,"Choice":-1,"RT":-1,"Accuracy":1,"Outcome":"+1","Keys":[],"TotalKeys":0,"Block":1,"Trial":105,"Robot":2,"Valence":"Win","Action":"No-Go","Sham":1,"Color":"yellow","trial_type":"pit-trial","trial_index":122,"time_elapsed":680319,"internal_node_id":"0.0-111.0","task_version":"test-retest-t3"},{"Rune":"rune_05_ior","Hex":"#3366ff99","Correct":32,"Choice":-1,"RT":-1,"Accuracy":0,"Outcome":"-10","Keys":[],"TotalKeys":0,"Block":1,"Trial":106,"Robot":3,"Valence":"Lose","Action":"Go","Sham":0,"Color":"blue","trial_type":"pit-trial","trial_index":123,"time_elapsed":684393,"internal_node_id":"0.0-112.0","task_version":"test-retest-t3"},{"Rune":"rune_05_tiwaz","Hex":"#3366ff99","Correct":-1,"Choice":-1,"RT":-1,"Accuracy":1,"Outcome":"-10","Keys":[],"TotalKeys":0,"Block":1,"Trial":107,"Robot":4,"Valence":"Lose","Action":"No-Go","Sham":1,"Color":"blue","trial_type":"pit-trial","trial_index":124,"time_elapsed":688464,"internal_node_id":"0.0-113.0","task_version":"test-retest-t3"},{"Rune":"rune_05_jeran","Hex":"#ffcc3399","Correct":32,"Choice":32,"RT":496.91500001063105,"Accuracy":1,"Outcome":"+1","Keys":[1997.4750000110362],"TotalKeys":1,"Block":1,"Trial":108,"Robot":1,"Valence":"Win","Action":"Go","Sham":1,"Color":"yellow","trial_type":"pit-trial","trial_index":125,"time_elapsed":691533,"internal_node_id":"0.0-114.0","task_version":"test-retest-t3"},{"Rune":"rune_05_tiwaz","Hex":"#3366ff99","Correct":-1,"Choice":32,"RT":737.330000003567,"Accuracy":0,"Outcome":"-10","Keys":[2238.004999991972],"TotalKeys":1,"Block":1,"Trial":109,"Robot":4,"Valence":"Lose","Action":"No-Go","Sham":0,"Color":"blue","trial_type":"pit-trial","trial_index":126,"time_elapsed":694842,"internal_node_id":"0.0-115.0","task_version":"test-retest-t3"},{"Rune":"rune_05_gebo","Hex":"#ffcc3399","Correct":-1,"Choice":-1,"RT":-1,"Accuracy":1,"Outcome":"+10","Keys":[],"TotalKeys":0,"Block":1,"Trial":110,"Robot":2,"Valence":"Win","Action":"No-Go","Sham":0,"Color":"yellow","trial_type":"pit-trial","trial_index":127,"time_elapsed":698944,"internal_node_id":"0.0-116.0","task_version":"test-retest-t3"},{"Rune":"rune_05_jeran","Hex":"#ffcc3399","Correct":32,"Choice":32,"RT":583.0500000010943,"Accuracy":1,"Outcome":"+10","Keys":[2083.825000008801],"TotalKeys":1,"Block":1,"Trial":111,"Robot":1,"Valence":"Win","Action":"Go","Sham":0,"Color":"yellow","trial_type":"pit-trial","trial_index":128,"time_elapsed":702144,"internal_node_id":"0.0-117.0","task_version":"test-retest-t3"},{"Rune":"rune_05_ior","Hex":"#3366ff99","Correct":32,"Choice":32,"RT":1056.9649999961257,"Accuracy":1,"Outcome":"-1","Keys":[2557.845000002999],"TotalKeys":1,"Block":1,"Trial":112,"Robot":3,"Valence":"Lose","Action":"Go","Sham":0,"Color":"blue","trial_type":"pit-trial","trial_index":129,"time_elapsed":705788,"internal_node_id":"0.0-118.0","task_version":"test-retest-t3"},{"Rune":"rune_05_jeran","Hex":"#ffcc3399","Correct":32,"Choice":32,"RT":640.6699999934062,"Accuracy":1,"Outcome":"+10","Keys":[2141.8699999921955],"TotalKeys":1,"Block":1,"Trial":113,"Robot":1,"Valence":"Win","Action":"Go","Sham":0,"Color":"yellow","trial_type":"pit-trial","trial_index":130,"time_elapsed":709035,"internal_node_id":"0.0-119.0","task_version":"test-retest-t3"},{"Rune":"rune_05_ior","Hex":"#3366ff99","Correct":32,"Choice":32,"RT":839.7700000059558,"Accuracy":1,"Outcome":"-1","Keys":[2340.9949999913806],"TotalKeys":1,"Block":1,"Trial":114,"Robot":3,"Valence":"Lose","Action":"Go","Sham":0,"Color":"blue","trial_type":"pit-trial","trial_index":131,"time_elapsed":712451,"internal_node_id":"0.0-120.0","task_version":"test-retest-t3"},{"Rune":"rune_05_tiwaz","Hex":"#3366ff99","Correct":-1,"Choice":-1,"RT":-1,"Accuracy":1,"Outcome":"-1","Keys":[],"TotalKeys":0,"Block":1,"Trial":115,"Robot":4,"Valence":"Lose","Action":"No-Go","Sham":0,"Color":"blue","trial_type":"pit-trial","trial_index":132,"time_elapsed":716525,"internal_node_id":"0.0-121.0","task_version":"test-retest-t3"},{"Rune":"rune_05_gebo","Hex":"#ffcc3399","Correct":-1,"Choice":-1,"RT":-1,"Accuracy":1,"Outcome":"+10","Keys":[],"TotalKeys":0,"Block":1,"Trial":116,"Robot":2,"Valence":"Win","Action":"No-Go","Sham":0,"Color":"yellow","trial_type":"pit-trial","trial_index":133,"time_elapsed":720602,"internal_node_id":"0.0-122.0","task_version":"test-retest-t3"},{"Rune":"rune_05_tiwaz","Hex":"#3366ff99","Correct":-1,"Choice":-1,"RT":-1,"Accuracy":1,"Outcome":"-1","Keys":[],"TotalKeys":0,"Block":1,"Trial":117,"Robot":4,"Valence":"Lose","Action":"No-Go","Sham":0,"Color":"blue","trial_type":"pit-trial","trial_index":134,"time_elapsed":724736,"internal_node_id":"0.0-123.0","task_version":"test-retest-t3"},{"Rune":"rune_05_ior","Hex":"#3366ff99","Correct":32,"Choice":32,"RT":680.1100000011502,"Accuracy":1,"Outcome":"-1","Keys":[2181.1149999994086],"TotalKeys":1,"Block":1,"Trial":118,"Robot":3,"Valence":"Lose","Action":"Go","Sham":0,"Color":"blue","trial_type":"pit-trial","trial_index":135,"time_elapsed":727988,"internal_node_id":"0.0-124.0","task_version":"test-retest-t3"},{"Rune":"rune_05_gebo","Hex":"#ffcc3399","Correct":-1,"Choice":-1,"RT":-1,"Accuracy":1,"Outcome":"+10","Keys":[],"TotalKeys":0,"Block":1,"Trial":119,"Robot":2,"Valence":"Win","Action":"No-Go","Sham":0,"Color":"yellow","trial_type":"pit-trial","trial_index":136,"time_elapsed":732075,"internal_node_id":"0.0-125.0","task_version":"test-retest-t3"},{"Rune":"rune_05_jeran","Hex":"#ffcc3399","Correct":32,"Choice":32,"RT":623.4400000103051,"Accuracy":1,"Outcome":"+10","Keys":[2124.179999998887],"TotalKeys":1,"Block":1,"Trial":120,"Robot":1,"Valence":"Win","Action":"Go","Sham":0,"Color":"yellow","trial_type":"pit-trial","trial_index":137,"time_elapsed":735327,"internal_node_id":"0.0-126.0","task_version":"test-retest-t3"},{"view_history":"[{\"page_index\":0,\"viewing_time\":8818.404999998165},{\"page_index\":1,\"viewing_time\":8091.2850000022445},{\"page_index\":2,\"viewing_time\":2969.8649999918416}]","rt":19881.519999995362,"trial_type":"pit-instructions","trial_index":138,"time_elapsed":755281,"internal_node_id":"0.0-127.0","task_version":"test-retest-t3"},{"Rune":"rune_06_ehwaz","Hex":"#ffcc3399","Correct":-1,"Choice":32,"RT":388.2350000058068,"Accuracy":0,"Outcome":"+1","Keys":[1889.469999994617],"TotalKeys":1,"Block":2,"Trial":121,"Robot":2,"Valence":"Win","Action":"No-Go","Sham":0,"Color":"yellow","trial_type":"pit-trial","trial_index":139,"time_elapsed":758252,"internal_node_id":"0.0-128.0","task_version":"test-retest-t3"},{"Rune":"rune_06_berkanan","Hex":"#3366ff99","Correct":32,"Choice":32,"RT":645.5900000000838,"Accuracy":1,"Outcome":"-10","Keys":[2146.114999995916],"TotalKeys":1,"Block":2,"Trial":122,"Robot":3,"Valence":"Lose","Action":"Go","Sham":1,"Color":"blue","trial_type":"pit-trial","trial_index":140,"time_elapsed":761471,"internal_node_id":"0.0-129.0","task_version":"test-retest-t3"},{"Rune":"rune_06_cweord","Hex":"#3366ff99","Correct":-1,"Choice":32,"RT":631.2599999946542,"Accuracy":0,"Outcome":"-10","Keys":[2132.7149999997346],"TotalKeys":1,"Block":2,"Trial":123,"Robot":4,"Valence":"Lose","Action":"No-Go","Sham":0,"Color":"blue","trial_type":"pit-trial","trial_index":141,"time_elapsed":764709,"internal_node_id":"0.0-130.0","task_version":"test-retest-t3"},{"Rune":"rune_06_ansuz","Hex":"#ffcc3399","Correct":32,"Choice":32,"RT":843.1750000017928,"Accuracy":1,"Outcome":"+10","Keys":[2343.765000012354],"TotalKeys":1,"Block":2,"Trial":124,"Robot":1,"Valence":"Win","Action":"Go","Sham":0,"Color":"yellow","trial_type":"pit-trial","trial_index":142,"time_elapsed":768124,"internal_node_id":"0.0-131.0","task_version":"test-retest-t3"},{"Rune":"rune_06_ehwaz","Hex":"#ffcc3399","Correct":-1,"Choice":-1,"RT":-1,"Accuracy":1,"Outcome":"+1","Keys":[],"TotalKeys":0,"Block":2,"Trial":125,"Robot":2,"Valence":"Win","Action":"No-Go","Sham":1,"Color":"yellow","trial_type":"pit-trial","trial_index":143,"time_elapsed":772196,"internal_node_id":"0.0-132.0","task_version":"test-retest-t3"},{"Rune":"rune_06_cweord","Hex":"#3366ff99","Correct":-1,"Choice":32,"RT":1163.249999997788,"Accuracy":0,"Outcome":"-10","Keys":[2664.470000003348],"TotalKeys":1,"Block":2,"Trial":126,"Robot":4,"Valence":"Lose","Action":"No-Go","Sham":0,"Color":"blue","trial_type":"pit-trial","trial_index":144,"time_elapsed":775932,"internal_node_id":"0.0-133.0","task_version":"test-retest-t3"},{"Rune":"rune_06_ansuz","Hex":"#ffcc3399","Correct":32,"Choice":32,"RT":1488.5900000081165,"Accuracy":1,"Outcome":"+1","Keys":[2989.3749999901047],"TotalKeys":1,"Block":2,"Trial":127,"Robot":1,"Valence":"Win","Action":"Go","Sham":1,"Color":"yellow","trial_type":"pit-trial","trial_index":145,"time_elapsed":779993,"internal_node_id":"0.0-134.0","task_version":"test-retest-t3"},{"Rune":"rune_06_berkanan","Hex":"#3366ff99","Correct":32,"Choice":32,"RT":1015.1699999987613,"Accuracy":1,"Outcome":"-1","Keys":[2515.6949999945937],"TotalKeys":1,"Block":2,"Trial":128,"Robot":3,"Valence":"Lose","Action":"Go","Sham":0,"Color":"blue","trial_type":"pit-trial","trial_index":146,"time_elapsed":783584,"internal_node_id":"0.0-135.0","task_version":"test-retest-t3"},{"Rune":"rune_06_ansuz","Hex":"#ffcc3399","Correct":32,"Choice":-1,"RT":-1,"Accuracy":0,"Outcome":"+1","Keys":[],"TotalKeys":0,"Block":2,"Trial":129,"Robot":1,"Valence":"Win","Action":"Go","Sham":0,"Color":"yellow","trial_type":"pit-trial","trial_index":147,"time_elapsed":787659,"internal_node_id":"0.0-136.0","task_version":"test-retest-t3"},{"Rune":"rune_06_berkanan","Hex":"#3366ff99","Correct":32,"Choice":-1,"RT":-1,"Accuracy":0,"Outcome":"-10","Keys":[],"TotalKeys":0,"Block":2,"Trial":130,"Robot":3,"Valence":"Lose","Action":"Go","Sham":0,"Color":"blue","trial_type":"pit-trial","trial_index":148,"time_elapsed":791730,"internal_node_id":"0.0-137.0","task_version":"test-retest-t3"},{"Rune":"rune_06_ehwaz","Hex":"#ffcc3399","Correct":-1,"Choice":-1,"RT":-1,"Accuracy":1,"Outcome":"+10","Keys":[],"TotalKeys":0,"Block":2,"Trial":131,"Robot":2,"Valence":"Win","Action":"No-Go","Sham":0,"Color":"yellow","trial_type":"pit-trial","trial_index":149,"time_elapsed":795805,"internal_node_id":"0.0-138.0","task_version":"test-retest-t3"},{"Rune":"rune_06_cweord","Hex":"#3366ff99","Correct":-1,"Choice":-1,"RT":-1,"Accuracy":1,"Outcome":"-1","Keys":[],"TotalKeys":0,"Block":2,"Trial":132,"Robot":4,"Valence":"Lose","Action":"No-Go","Sham":0,"Color":"blue","trial_type":"pit-trial","trial_index":150,"time_elapsed":799892,"internal_node_id":"0.0-139.0","task_version":"test-retest-t3"},{"Rune":"rune_06_ehwaz","Hex":"#ffcc3399","Correct":-1,"Choice":-1,"RT":-1,"Accuracy":1,"Outcome":"+10","Keys":[],"TotalKeys":0,"Block":2,"Trial":133,"Robot":2,"Valence":"Win","Action":"No-Go","Sham":0,"Color":"yellow","trial_type":"pit-trial","trial_index":151,"time_elapsed":803962,"internal_node_id":"0.0-140.0","task_version":"test-retest-t3"},{"Rune":"rune_06_ansuz","Hex":"#ffcc3399","Correct":32,"Choice":32,"RT":1130.5750000028638,"Accuracy":1,"Outcome":"+10","Keys":[2631.599999993341],"TotalKeys":1,"Block":2,"Trial":134,"Robot":1,"Valence":"Win","Action":"Go","Sham":0,"Color":"yellow","trial_type":"pit-trial","trial_index":152,"time_elapsed":807665,"internal_node_id":"0.0-141.0","task_version":"test-retest-t3"},{"Rune":"rune_06_cweord","Hex":"#3366ff99","Correct":-1,"Choice":-1,"RT":-1,"Accuracy":1,"Outcome":"-10","Keys":[],"TotalKeys":0,"Block":2,"Trial":135,"Robot":4,"Valence":"Lose","Action":"No-Go","Sham":1,"Color":"blue","trial_type":"pit-trial","trial_index":153,"time_elapsed":811736,"internal_node_id":"0.0-142.0","task_version":"test-retest-t3"},{"Rune":"rune_06_berkanan","Hex":"#3366ff99","Correct":32,"Choice":32,"RT":914.665000003879,"Accuracy":1,"Outcome":"-1","Keys":[2415.0550000049407],"TotalKeys":1,"Block":2,"Trial":136,"Robot":3,"Valence":"Lose","Action":"Go","Sham":0,"Color":"blue","trial_type":"pit-trial","trial_index":154,"time_elapsed":815223,"internal_node_id":"0.0-143.0","task_version":"test-retest-t3"},{"Rune":"rune_06_berkanan","Hex":"#3366ff99","Correct":32,"Choice":-1,"RT":-1,"Accuracy":0,"Outcome":"-10","Keys":[],"TotalKeys":0,"Block":2,"Trial":137,"Robot":3,"Valence":"Lose","Action":"Go","Sham":0,"Color":"blue","trial_type":"pit-trial","trial_index":155,"time_elapsed":819297,"internal_node_id":"0.0-144.0","task_version":"test-retest-t3"},{"Rune":"rune_06_cweord","Hex":"#3366ff99","Correct":-1,"Choice":-1,"RT":-1,"Accuracy":1,"Outcome":"-1","Keys":[],"TotalKeys":0,"Block":2,"Trial":138,"Robot":4,"Valence":"Lose","Action":"No-Go","Sham":0,"Color":"blue","trial_type":"pit-trial","trial_index":156,"time_elapsed":823370,"internal_node_id":"0.0-145.0","task_version":"test-retest-t3"},{"Rune":"rune_06_ehwaz","Hex":"#ffcc3399","Correct":-1,"Choice":-1,"RT":-1,"Accuracy":1,"Outcome":"+10","Keys":[3158.6700000043493],"TotalKeys":1,"Block":2,"Trial":139,"Robot":2,"Valence":"Win","Action":"No-Go","Sham":0,"Color":"yellow","trial_type":"pit-trial","trial_index":157,"time_elapsed":827442,"internal_node_id":"0.0-146.0","task_version":"test-retest-t3"},{"Rune":"rune_06_ansuz","Hex":"#ffcc3399","Correct":32,"Choice":32,"RT":542.8749999991851,"Accuracy":1,"Outcome":"+10","Keys":[2044.4699999934528],"TotalKeys":1,"Block":2,"Trial":140,"Robot":1,"Valence":"Win","Action":"Go","Sham":0,"Color":"yellow","trial_type":"pit-trial","trial_index":158,"time_elapsed":830558,"internal_node_id":"0.0-147.0","task_version":"test-retest-t3"},{"Rune":"rune_06_cweord","Hex":"#3366ff99","Correct":-1,"Choice":32,"RT":1341.5300000051502,"Accuracy":0,"Outcome":"-10","Keys":[2841.6500000021188],"TotalKeys":1,"Block":2,"Trial":141,"Robot":4,"Valence":"Lose","Action":"No-Go","Sham":0,"Color":"blue","trial_type":"pit-trial","trial_index":159,"time_elapsed":834474,"internal_node_id":"0.0-148.0","task_version":"test-retest-t3"},{"Rune":"rune_06_ehwaz","Hex":"#ffcc3399","Correct":-1,"Choice":-1,"RT":-1,"Accuracy":1,"Outcome":"+10","Keys":[],"TotalKeys":0,"Block":2,"Trial":142,"Robot":2,"Valence":"Win","Action":"No-Go","Sham":0,"Color":"yellow","trial_type":"pit-trial","trial_index":160,"time_elapsed":838551,"internal_node_id":"0.0-149.0","task_version":"test-retest-t3"},{"Rune":"rune_06_berkanan","Hex":"#3366ff99","Correct":32,"Choice":-1,"RT":-1,"Accuracy":0,"Outcome":"-10","Keys":[],"TotalKeys":0,"Block":2,"Trial":143,"Robot":3,"Valence":"Lose","Action":"Go","Sham":0,"Color":"blue","trial_type":"pit-trial","trial_index":161,"time_elapsed":842644,"internal_node_id":"0.0-150.0","task_version":"test-retest-t3"},{"Rune":"rune_06_ansuz","Hex":"#ffcc3399","Correct":32,"Choice":32,"RT":938.7749999877997,"Accuracy":1,"Outcome":"+10","Keys":[2440.1099999959115],"TotalKeys":1,"Block":2,"Trial":144,"Robot":1,"Valence":"Win","Action":"Go","Sham":0,"Color":"yellow","trial_type":"pit-trial","trial_index":162,"time_elapsed":846155,"internal_node_id":"0.0-151.0","task_version":"test-retest-t3"},{"Rune":"rune_06_cweord","Hex":"#3366ff99","Correct":-1,"Choice":-1,"RT":-1,"Accuracy":1,"Outcome":"-1","Keys":[],"TotalKeys":0,"Block":2,"Trial":145,"Robot":4,"Valence":"Lose","Action":"No-Go","Sham":0,"Color":"blue","trial_type":"pit-trial","trial_index":163,"time_elapsed":850226,"internal_node_id":"0.0-152.0","task_version":"test-retest-t3"},{"Rune":"rune_06_ansuz","Hex":"#ffcc3399","Correct":32,"Choice":32,"RT":1080.629999996745,"Accuracy":1,"Outcome":"+1","Keys":[2582.559999995283],"TotalKeys":1,"Block":2,"Trial":146,"Robot":1,"Valence":"Win","Action":"Go","Sham":1,"Color":"yellow","trial_type":"pit-trial","trial_index":164,"time_elapsed":853891,"internal_node_id":"0.0-153.0","task_version":"test-retest-t3"},{"Rune":"rune_06_ehwaz","Hex":"#ffcc3399","Correct":-1,"Choice":-1,"RT":-1,"Accuracy":1,"Outcome":"+10","Keys":[],"TotalKeys":0,"Block":2,"Trial":147,"Robot":2,"Valence":"Win","Action":"No-Go","Sham":0,"Color":"yellow","trial_type":"pit-trial","trial_index":165,"time_elapsed":857961,"internal_node_id":"0.0-154.0","task_version":"test-retest-t3"},{"Rune":"rune_06_berkanan","Hex":"#3366ff99","Correct":32,"Choice":32,"RT":604.1649999970105,"Accuracy":1,"Outcome":"-10","Keys":[2104.9350000103004],"TotalKeys":1,"Block":2,"Trial":148,"Robot":3,"Valence":"Lose","Action":"Go","Sham":1,"Color":"blue","trial_type":"pit-trial","trial_index":166,"time_elapsed":861139,"internal_node_id":"0.0-155.0","task_version":"test-retest-t3"},{"Rune":"rune_06_berkanan","Hex":"#3366ff99","Correct":32,"Choice":-1,"RT":-1,"Accuracy":0,"Outcome":"-10","Keys":[],"TotalKeys":0,"Block":2,"Trial":149,"Robot":3,"Valence":"Lose","Action":"Go","Sham":0,"Color":"blue","trial_type":"pit-trial","trial_index":167,"time_elapsed":865212,"internal_node_id":"0.0-156.0","task_version":"test-retest-t3"},{"Rune":"rune_06_ehwaz","Hex":"#ffcc3399","Correct":-1,"Choice":-1,"RT":-1,"Accuracy":1,"Outcome":"+10","Keys":[],"TotalKeys":0,"Block":2,"Trial":150,"Robot":2,"Valence":"Win","Action":"No-Go","Sham":0,"Color":"yellow","trial_type":"pit-trial","trial_index":168,"time_elapsed":869299,"internal_node_id":"0.0-157.0","task_version":"test-retest-t3"},{"Rune":"rune_06_cweord","Hex":"#3366ff99","Correct":-1,"Choice":-1,"RT":-1,"Accuracy":1,"Outcome":"-1","Keys":[],"TotalKeys":0,"Block":2,"Trial":151,"Robot":4,"Valence":"Lose","Action":"No-Go","Sham":0,"Color":"blue","trial_type":"pit-trial","trial_index":169,"time_elapsed":873381,"internal_node_id":"0.0-158.0","task_version":"test-retest-t3"},{"Rune":"rune_06_ansuz","Hex":"#ffcc3399","Correct":32,"Choice":32,"RT":1030.1800000015646,"Accuracy":1,"Outcome":"+10","Keys":[2531.2249999988126],"TotalKeys":1,"Block":2,"Trial":152,"Robot":1,"Valence":"Win","Action":"Go","Sham":0,"Color":"yellow","trial_type":"pit-trial","trial_index":170,"time_elapsed":877005,"internal_node_id":"0.0-159.0","task_version":"test-retest-t3"},{"Rune":"rune_06_ehwaz","Hex":"#ffcc3399","Correct":-1,"Choice":-1,"RT":-1,"Accuracy":1,"Outcome":"+10","Keys":[],"TotalKeys":0,"Block":2,"Trial":153,"Robot":2,"Valence":"Win","Action":"No-Go","Sham":0,"Color":"yellow","trial_type":"pit-trial","trial_index":171,"time_elapsed":881081,"internal_node_id":"0.0-160.0","task_version":"test-retest-t3"},{"Rune":"rune_06_ansuz","Hex":"#ffcc3399","Correct":32,"Choice":32,"RT":584.2049999919254,"Accuracy":1,"Outcome":"+10","Keys":[2085.7450000039535],"TotalKeys":1,"Block":2,"Trial":154,"Robot":1,"Valence":"Win","Action":"Go","Sham":0,"Color":"yellow","trial_type":"pit-trial","trial_index":172,"time_elapsed":884243,"internal_node_id":"0.0-161.0","task_version":"test-retest-t3"},{"Rune":"rune_06_cweord","Hex":"#3366ff99","Correct":-1,"Choice":-1,"RT":-1,"Accuracy":1,"Outcome":"-1","Keys":[],"TotalKeys":0,"Block":2,"Trial":155,"Robot":4,"Valence":"Lose","Action":"No-Go","Sham":0,"Color":"blue","trial_type":"pit-trial","trial_index":173,"time_elapsed":888317,"internal_node_id":"0.0-162.0","task_version":"test-retest-t3"},{"Rune":"rune_06_berkanan","Hex":"#3366ff99","Correct":32,"Choice":32,"RT":496.1449999973411,"Accuracy":1,"Outcome":"-1","Keys":[1996.49999999383],"TotalKeys":1,"Block":2,"Trial":156,"Robot":3,"Valence":"Lose","Action":"Go","Sham":0,"Color":"blue","trial_type":"pit-trial","trial_index":174,"time_elapsed":891385,"internal_node_id":"0.0-163.0","task_version":"test-retest-t3"},{"Rune":"rune_06_cweord","Hex":"#3366ff99","Correct":-1,"Choice":-1,"RT":-1,"Accuracy":1,"Outcome":"-10","Keys":[],"TotalKeys":0,"Block":2,"Trial":157,"Robot":4,"Valence":"Lose","Action":"No-Go","Sham":1,"Color":"blue","trial_type":"pit-trial","trial_index":175,"time_elapsed":895462,"internal_node_id":"0.0-164.0","task_version":"test-retest-t3"},{"Rune":"rune_06_ansuz","Hex":"#ffcc3399","Correct":32,"Choice":32,"RT":732.0549999858486,"Accuracy":1,"Outcome":"+10","Keys":[2232.719999999972],"TotalKeys":1,"Block":2,"Trial":158,"Robot":1,"Valence":"Win","Action":"Go","Sham":0,"Color":"yellow","trial_type":"pit-trial","trial_index":176,"time_elapsed":898772,"internal_node_id":"0.0-165.0","task_version":"test-retest-t3"},{"Rune":"rune_06_berkanan","Hex":"#3366ff99","Correct":32,"Choice":-1,"RT":-1,"Accuracy":0,"Outcome":"-10","Keys":[],"TotalKeys":0,"Block":2,"Trial":159,"Robot":3,"Valence":"Lose","Action":"Go","Sham":0,"Color":"blue","trial_type":"pit-trial","trial_index":177,"time_elapsed":902844,"internal_node_id":"0.0-166.0","task_version":"test-retest-t3"},{"Rune":"rune_06_ehwaz","Hex":"#ffcc3399","Correct":-1,"Choice":-1,"RT":-1,"Accuracy":1,"Outcome":"+1","Keys":[],"TotalKeys":0,"Block":2,"Trial":160,"Robot":2,"Valence":"Win","Action":"No-Go","Sham":1,"Color":"yellow","trial_type":"pit-trial","trial_index":178,"time_elapsed":906918,"internal_node_id":"0.0-167.0","task_version":"test-retest-t3"},{"Rune":"rune_06_cweord","Hex":"#3366ff99","Correct":-1,"Choice":-1,"RT":-1,"Accuracy":1,"Outcome":"-1","Keys":[],"TotalKeys":0,"Block":2,"Trial":161,"Robot":4,"Valence":"Lose","Action":"No-Go","Sham":0,"Color":"blue","trial_type":"pit-trial","trial_index":179,"time_elapsed":910991,"internal_node_id":"0.0-168.0","task_version":"test-retest-t3"},{"Rune":"rune_06_ehwaz","Hex":"#ffcc3399","Correct":-1,"Choice":-1,"RT":-1,"Accuracy":1,"Outcome":"+1","Keys":[],"TotalKeys":0,"Block":2,"Trial":162,"Robot":2,"Valence":"Win","Action":"No-Go","Sham":1,"Color":"yellow","trial_type":"pit-trial","trial_index":180,"time_elapsed":915062,"internal_node_id":"0.0-169.0","task_version":"test-retest-t3"},{"Rune":"rune_06_ansuz","Hex":"#ffcc3399","Correct":32,"Choice":32,"RT":846.864999999525,"Accuracy":1,"Outcome":"+10","Keys":[2347.6799999916693],"TotalKeys":1,"Block":2,"Trial":163,"Robot":1,"Valence":"Win","Action":"Go","Sham":0,"Color":"yellow","trial_type":"pit-trial","trial_index":181,"time_elapsed":918483,"internal_node_id":"0.0-170.0","task_version":"test-retest-t3"},{"Rune":"rune_06_berkanan","Hex":"#3366ff99","Correct":32,"Choice":32,"RT":463.3599999942817,"Accuracy":1,"Outcome":"-1","Keys":[1964.510000005248],"TotalKeys":1,"Block":2,"Trial":164,"Robot":3,"Valence":"Lose","Action":"Go","Sham":0,"Color":"blue","trial_type":"pit-trial","trial_index":182,"time_elapsed":921519,"internal_node_id":"0.0-171.0","task_version":"test-retest-t3"},{"Rune":"rune_06_berkanan","Hex":"#3366ff99","Correct":32,"Choice":32,"RT":740.574999988894,"Accuracy":1,"Outcome":"-1","Keys":[2241.519999995944],"TotalKeys":1,"Block":2,"Trial":165,"Robot":3,"Valence":"Lose","Action":"Go","Sham":0,"Color":"blue","trial_type":"pit-trial","trial_index":183,"time_elapsed":924839,"internal_node_id":"0.0-172.0","task_version":"test-retest-t3"},{"Rune":"rune_06_ehwaz","Hex":"#ffcc3399","Correct":-1,"Choice":-1,"RT":-1,"Accuracy":1,"Outcome":"+10","Keys":[],"TotalKeys":0,"Block":2,"Trial":166,"Robot":2,"Valence":"Win","Action":"No-Go","Sham":0,"Color":"yellow","trial_type":"pit-trial","trial_index":184,"time_elapsed":928913,"internal_node_id":"0.0-173.0","task_version":"test-retest-t3"},{"Rune":"rune_06_cweord","Hex":"#3366ff99","Correct":-1,"Choice":-1,"RT":-1,"Accuracy":1,"Outcome":"-1","Keys":[],"TotalKeys":0,"Block":2,"Trial":167,"Robot":4,"Valence":"Lose","Action":"No-Go","Sham":0,"Color":"blue","trial_type":"pit-trial","trial_index":185,"time_elapsed":932986,"internal_node_id":"0.0-174.0","task_version":"test-retest-t3"},{"Rune":"rune_06_ansuz","Hex":"#ffcc3399","Correct":32,"Choice":32,"RT":700.0700000062352,"Accuracy":1,"Outcome":"+10","Keys":[2200.3699999913806],"TotalKeys":1,"Block":2,"Trial":168,"Robot":1,"Valence":"Win","Action":"Go","Sham":0,"Color":"yellow","trial_type":"pit-trial","trial_index":186,"time_elapsed":936259,"internal_node_id":"0.0-175.0","task_version":"test-retest-t3"},{"Rune":"rune_06_ehwaz","Hex":"#ffcc3399","Correct":-1,"Choice":-1,"RT":-1,"Accuracy":1,"Outcome":"+10","Keys":[],"TotalKeys":0,"Block":2,"Trial":169,"Robot":2,"Valence":"Win","Action":"No-Go","Sham":0,"Color":"yellow","trial_type":"pit-trial","trial_index":187,"time_elapsed":940333,"internal_node_id":"0.0-176.0","task_version":"test-retest-t3"},{"Rune":"rune_06_berkanan","Hex":"#3366ff99","Correct":32,"Choice":32,"RT":606.3299999950686,"Accuracy":1,"Outcome":"-1","Keys":[2106.7150000017136],"TotalKeys":1,"Block":2,"Trial":170,"Robot":3,"Valence":"Lose","Action":"Go","Sham":0,"Color":"blue","trial_type":"pit-trial","trial_index":188,"time_elapsed":943512,"internal_node_id":"0.0-177.0","task_version":"test-retest-t3"},{"Rune":"rune_06_cweord","Hex":"#3366ff99","Correct":-1,"Choice":32,"RT":916.6750000003958,"Accuracy":0,"Outcome":"-10","Keys":[2422.3300000012387],"TotalKeys":1,"Block":2,"Trial":171,"Robot":4,"Valence":"Lose","Action":"No-Go","Sham":0,"Color":"blue","trial_type":"pit-trial","trial_index":189,"time_elapsed":947025,"internal_node_id":"0.0-178.0","task_version":"test-retest-t3"},{"Rune":"rune_06_ansuz","Hex":"#ffcc3399","Correct":32,"Choice":32,"RT":1256.615000005695,"Accuracy":1,"Outcome":"+10","Keys":[2757.1050000115065],"TotalKeys":1,"Block":2,"Trial":172,"Robot":1,"Valence":"Win","Action":"Go","Sham":0,"Color":"yellow","trial_type":"pit-trial","trial_index":190,"time_elapsed":950895,"internal_node_id":"0.0-179.0","task_version":"test-retest-t3"},{"Rune":"rune_06_ehwaz","Hex":"#ffcc3399","Correct":-1,"Choice":-1,"RT":-1,"Accuracy":1,"Outcome":"+10","Keys":[],"TotalKeys":0,"Block":2,"Trial":173,"Robot":2,"Valence":"Win","Action":"No-Go","Sham":0,"Color":"yellow","trial_type":"pit-trial","trial_index":191,"time_elapsed":954968,"internal_node_id":"0.0-180.0","task_version":"test-retest-t3"},{"Rune":"rune_06_berkanan","Hex":"#3366ff99","Correct":32,"Choice":32,"RT":451.8700000044191,"Accuracy":1,"Outcome":"-1","Keys":[1952.6150000019697],"TotalKeys":1,"Block":2,"Trial":174,"Robot":3,"Valence":"Lose","Action":"Go","Sham":0,"Color":"blue","trial_type":"pit-trial","trial_index":192,"time_elapsed":958027,"internal_node_id":"0.0-181.0","task_version":"test-retest-t3"},{"Rune":"rune_06_cweord","Hex":"#3366ff99","Correct":-1,"Choice":-1,"RT":-1,"Accuracy":1,"Outcome":"-10","Keys":[],"TotalKeys":0,"Block":2,"Trial":175,"Robot":4,"Valence":"Lose","Action":"No-Go","Sham":1,"Color":"blue","trial_type":"pit-trial","trial_index":193,"time_elapsed":962105,"internal_node_id":"0.0-182.0","task_version":"test-retest-t3"},{"Rune":"rune_06_ansuz","Hex":"#ffcc3399","Correct":32,"Choice":32,"RT":872.9899999889312,"Accuracy":1,"Outcome":"+1","Keys":[2373.1750000006286],"TotalKeys":1,"Block":2,"Trial":176,"Robot":1,"Valence":"Win","Action":"Go","Sham":1,"Color":"yellow","trial_type":"pit-trial","trial_index":194,"time_elapsed":965550,"internal_node_id":"0.0-183.0","task_version":"test-retest-t3"},{"Rune":"rune_06_ansuz","Hex":"#ffcc3399","Correct":32,"Choice":32,"RT":630.395000000135,"Accuracy":1,"Outcome":"+10","Keys":[2131.724999999278],"TotalKeys":1,"Block":2,"Trial":177,"Robot":1,"Valence":"Win","Action":"Go","Sham":0,"Color":"yellow","trial_type":"pit-trial","trial_index":195,"time_elapsed":968755,"internal_node_id":"0.0-184.0","task_version":"test-retest-t3"},{"Rune":"rune_06_cweord","Hex":"#3366ff99","Correct":-1,"Choice":32,"RT":1103.6300000123447,"Accuracy":0,"Outcome":"-10","Keys":[2604.3599999975413],"TotalKeys":1,"Block":2,"Trial":178,"Robot":4,"Valence":"Lose","Action":"No-Go","Sham":0,"Color":"blue","trial_type":"pit-trial","trial_index":196,"time_elapsed":972431,"internal_node_id":"0.0-185.0","task_version":"test-retest-t3"},{"Rune":"rune_06_ehwaz","Hex":"#ffcc3399","Correct":-1,"Choice":-1,"RT":-1,"Accuracy":1,"Outcome":"+10","Keys":[],"TotalKeys":0,"Block":2,"Trial":179,"Robot":2,"Valence":"Win","Action":"No-Go","Sham":0,"Color":"yellow","trial_type":"pit-trial","trial_index":197,"time_elapsed":976508,"internal_node_id":"0.0-186.0","task_version":"test-retest-t3"},{"Rune":"rune_06_berkanan","Hex":"#3366ff99","Correct":32,"Choice":32,"RT":692.6449999882607,"Accuracy":1,"Outcome":"-10","Keys":[2193.4150000015507],"TotalKeys":1,"Block":2,"Trial":180,"Robot":3,"Valence":"Lose","Action":"Go","Sham":1,"Color":"blue","trial_type":"pit-trial","trial_index":198,"time_elapsed":979776,"internal_node_id":"0.0-187.0","task_version":"test-retest-t3"},{"view_history":"[{\"page_index\":0,\"viewing_time\":2586.4050000091083},{\"page_index\":1,\"viewing_time\":4123.410000000149}]","rt":6711.1949999962235,"trial_type":"pit-instructions","trial_index":199,"time_elapsed":986564,"internal_node_id":"0.0-188.0","task_version":"test-retest-t3"},{"Rune":"rune_06_cweord","Hex":"#3366ff99","Correct":-1,"Choice":-1,"RT":-1,"Accuracy":1,"Outcome":"-1","Keys":[],"TotalKeys":0,"Block":2,"Trial":181,"Robot":4,"Valence":"Lose","Action":"No-Go","Sham":0,"Color":"blue","trial_type":"pit-trial","trial_index":200,"time_elapsed":990645,"internal_node_id":"0.0-189.0","task_version":"test-retest-t3"},{"Rune":"rune_06_berkanan","Hex":"#3366ff99","Correct":32,"Choice":32,"RT":604.445000004489,"Accuracy":1,"Outcome":"-1","Keys":[2104.9399999901652],"TotalKeys":1,"Block":2,"Trial":182,"Robot":3,"Valence":"Lose","Action":"Go","Sham":0,"Color":"blue","trial_type":"pit-trial","trial_index":201,"time_elapsed":993821,"internal_node_id":"0.0-190.0","task_version":"test-retest-t3"},{"Rune":"rune_06_ehwaz","Hex":"#ffcc3399","Correct":-1,"Choice":-1,"RT":-1,"Accuracy":1,"Outcome":"+10","Keys":[],"TotalKeys":0,"Block":2,"Trial":183,"Robot":2,"Valence":"Win","Action":"No-Go","Sham":0,"Color":"yellow","trial_type":"pit-trial","trial_index":202,"time_elapsed":997893,"internal_node_id":"0.0-191.0","task_version":"test-retest-t3"},{"Rune":"rune_06_ansuz","Hex":"#ffcc3399","Correct":32,"Choice":32,"RT":934.3700000026729,"Accuracy":1,"Outcome":"+1","Keys":[2434.5399999874644],"TotalKeys":1,"Block":2,"Trial":184,"Robot":1,"Valence":"Win","Action":"Go","Sham":1,"Color":"yellow","trial_type":"pit-trial","trial_index":203,"time_elapsed":1001399,"internal_node_id":"0.0-192.0","task_version":"test-retest-t3"},{"Rune":"rune_06_ehwaz","Hex":"#ffcc3399","Correct":-1,"Choice":-1,"RT":-1,"Accuracy":1,"Outcome":"+10","Keys":[],"TotalKeys":0,"Block":2,"Trial":185,"Robot":2,"Valence":"Win","Action":"No-Go","Sham":0,"Color":"yellow","trial_type":"pit-trial","trial_index":204,"time_elapsed":1005473,"internal_node_id":"0.0-193.0","task_version":"test-retest-t3"},{"Rune":"rune_06_berkanan","Hex":"#3366ff99","Correct":32,"Choice":32,"RT":685.5549999891082,"Accuracy":1,"Outcome":"-10","Keys":[2186.4650000061374],"TotalKeys":1,"Block":2,"Trial":186,"Robot":3,"Valence":"Lose","Action":"Go","Sham":1,"Color":"blue","trial_type":"pit-trial","trial_index":205,"time_elapsed":1008730,"internal_node_id":"0.0-194.0","task_version":"test-retest-t3"},{"Rune":"rune_06_cweord","Hex":"#3366ff99","Correct":-1,"Choice":32,"RT":1164.904999997816,"Accuracy":0,"Outcome":"-1","Keys":[2677.864999990561],"TotalKeys":1,"Block":2,"Trial":187,"Robot":4,"Valence":"Lose","Action":"No-Go","Sham":1,"Color":"blue","trial_type":"pit-trial","trial_index":206,"time_elapsed":1012479,"internal_node_id":"0.0-195.0","task_version":"test-retest-t3"},{"Rune":"rune_06_ansuz","Hex":"#ffcc3399","Correct":32,"Choice":32,"RT":1493.8899999979185,"Accuracy":1,"Outcome":"+10","Keys":[2994.9800000031246],"TotalKeys":1,"Block":2,"Trial":188,"Robot":1,"Valence":"Win","Action":"Go","Sham":0,"Color":"yellow","trial_type":"pit-trial","trial_index":207,"time_elapsed":1016609,"internal_node_id":"0.0-196.0","task_version":"test-retest-t3"},{"Rune":"rune_06_ansuz","Hex":"#ffcc3399","Correct":32,"Choice":32,"RT":854.9250000069151,"Accuracy":1,"Outcome":"+10","Keys":[2364.094999997178],"TotalKeys":1,"Block":2,"Trial":189,"Robot":1,"Valence":"Win","Action":"Go","Sham":0,"Color":"yellow","trial_type":"pit-trial","trial_index":208,"time_elapsed":1020044,"internal_node_id":"0.0-197.0","task_version":"test-retest-t3"},{"Rune":"rune_06_ehwaz","Hex":"#ffcc3399","Correct":-1,"Choice":-1,"RT":-1,"Accuracy":1,"Outcome":"+10","Keys":[],"TotalKeys":0,"Block":2,"Trial":190,"Robot":2,"Valence":"Win","Action":"No-Go","Sham":0,"Color":"yellow","trial_type":"pit-trial","trial_index":209,"time_elapsed":1024116,"internal_node_id":"0.0-198.0","task_version":"test-retest-t3"},{"Rune":"rune_06_berkanan","Hex":"#3366ff99","Correct":32,"Choice":-1,"RT":-1,"Accuracy":0,"Outcome":"-10","Keys":[],"TotalKeys":0,"Block":2,"Trial":191,"Robot":3,"Valence":"Lose","Action":"Go","Sham":0,"Color":"blue","trial_type":"pit-trial","trial_index":210,"time_elapsed":1028189,"internal_node_id":"0.0-199.0","task_version":"test-retest-t3"},{"Rune":"rune_06_cweord","Hex":"#3366ff99","Correct":-1,"Choice":-1,"RT":-1,"Accuracy":1,"Outcome":"-1","Keys":[],"TotalKeys":0,"Block":2,"Trial":192,"Robot":4,"Valence":"Lose","Action":"No-Go","Sham":0,"Color":"blue","trial_type":"pit-trial","trial_index":211,"time_elapsed":1032263,"internal_node_id":"0.0-200.0","task_version":"test-retest-t3"},{"Rune":"rune_06_ehwaz","Hex":"#ffcc3399","Correct":-1,"Choice":-1,"RT":-1,"Accuracy":1,"Outcome":"+1","Keys":[],"TotalKeys":0,"Block":2,"Trial":193,"Robot":2,"Valence":"Win","Action":"No-Go","Sham":1,"Color":"yellow","trial_type":"pit-trial","trial_index":212,"time_elapsed":1036348,"internal_node_id":"0.0-201.0","task_version":"test-retest-t3"},{"Rune":"rune_06_berkanan","Hex":"#3366ff99","Correct":32,"Choice":32,"RT":589.1550000087591,"Accuracy":1,"Outcome":"-1","Keys":[2090.3699999907985],"TotalKeys":1,"Block":2,"Trial":194,"Robot":3,"Valence":"Lose","Action":"Go","Sham":0,"Color":"blue","trial_type":"pit-trial","trial_index":213,"time_elapsed":1039517,"internal_node_id":"0.0-202.0","task_version":"test-retest-t3"},{"Rune":"rune_06_ansuz","Hex":"#ffcc3399","Correct":32,"Choice":32,"RT":570.9849999984726,"Accuracy":1,"Outcome":"+10","Keys":[2075.1900000032037],"TotalKeys":1,"Block":2,"Trial":195,"Robot":1,"Valence":"Win","Action":"Go","Sham":0,"Color":"yellow","trial_type":"pit-trial","trial_index":214,"time_elapsed":1042665,"internal_node_id":"0.0-203.0","task_version":"test-retest-t3"},{"Rune":"rune_06_cweord","Hex":"#3366ff99","Correct":-1,"Choice":-1,"RT":-1,"Accuracy":1,"Outcome":"-1","Keys":[],"TotalKeys":0,"Block":2,"Trial":196,"Robot":4,"Valence":"Lose","Action":"No-Go","Sham":0,"Color":"blue","trial_type":"pit-trial","trial_index":215,"time_elapsed":1046779,"internal_node_id":"0.0-204.0","task_version":"test-retest-t3"},{"Rune":"rune_06_ehwaz","Hex":"#ffcc3399","Correct":-1,"Choice":-1,"RT":-1,"Accuracy":1,"Outcome":"+10","Keys":[],"TotalKeys":0,"Block":2,"Trial":197,"Robot":2,"Valence":"Win","Action":"No-Go","Sham":0,"Color":"yellow","trial_type":"pit-trial","trial_index":216,"time_elapsed":1050887,"internal_node_id":"0.0-205.0","task_version":"test-retest-t3"},{"Rune":"rune_06_berkanan","Hex":"#3366ff99","Correct":32,"Choice":32,"RT":711.1949999961071,"Accuracy":1,"Outcome":"-1","Keys":[2211.825000005774],"TotalKeys":1,"Block":2,"Trial":198,"Robot":3,"Valence":"Lose","Action":"Go","Sham":0,"Color":"blue","trial_type":"pit-trial","trial_index":217,"time_elapsed":1054173,"internal_node_id":"0.0-206.0","task_version":"test-retest-t3"},{"Rune":"rune_06_ansuz","Hex":"#ffcc3399","Correct":32,"Choice":32,"RT":705.3900000029244,"Accuracy":1,"Outcome":"+10","Keys":[2205.9449999942444],"TotalKeys":1,"Block":2,"Trial":199,"Robot":1,"Valence":"Win","Action":"Go","Sham":0,"Color":"yellow","trial_type":"pit-trial","trial_index":218,"time_elapsed":1057460,"internal_node_id":"0.0-207.0","task_version":"test-retest-t3"},{"Rune":"rune_06_cweord","Hex":"#3366ff99","Correct":-1,"Choice":-1,"RT":-1,"Accuracy":1,"Outcome":"-1","Keys":[],"TotalKeys":0,"Block":2,"Trial":200,"Robot":4,"Valence":"Lose","Action":"No-Go","Sham":0,"Color":"blue","trial_type":"pit-trial","trial_index":219,"time_elapsed":1061533,"internal_node_id":"0.0-208.0","task_version":"test-retest-t3"},{"Rune":"rune_06_berkanan","Hex":"#3366ff99","Correct":32,"Choice":32,"RT":568.9950000087265,"Accuracy":1,"Outcome":"-1","Keys":[2070.9800000039395],"TotalKeys":1,"Block":2,"Trial":201,"Robot":3,"Valence":"Lose","Action":"Go","Sham":0,"Color":"blue","trial_type":"pit-trial","trial_index":220,"time_elapsed":1064677,"internal_node_id":"0.0-209.0","task_version":"test-retest-t3"},{"Rune":"rune_06_cweord","Hex":"#3366ff99","Correct":-1,"Choice":-1,"RT":-1,"Accuracy":1,"Outcome":"-1","Keys":[],"TotalKeys":0,"Block":2,"Trial":202,"Robot":4,"Valence":"Lose","Action":"No-Go","Sham":0,"Color":"blue","trial_type":"pit-trial","trial_index":221,"time_elapsed":1068753,"internal_node_id":"0.0-210.0","task_version":"test-retest-t3"},{"Rune":"rune_06_ansuz","Hex":"#ffcc3399","Correct":32,"Choice":32,"RT":659.5250000101514,"Accuracy":1,"Outcome":"+10","Keys":[2160.0949999992736],"TotalKeys":1,"Block":2,"Trial":203,"Robot":1,"Valence":"Win","Action":"Go","Sham":0,"Color":"yellow","trial_type":"pit-trial","trial_index":222,"time_elapsed":1071988,"internal_node_id":"0.0-211.0","task_version":"test-retest-t3"},{"Rune":"rune_06_ehwaz","Hex":"#ffcc3399","Correct":-1,"Choice":-1,"RT":-1,"Accuracy":1,"Outcome":"+1","Keys":[],"TotalKeys":0,"Block":2,"Trial":204,"Robot":2,"Valence":"Win","Action":"No-Go","Sham":1,"Color":"yellow","trial_type":"pit-trial","trial_index":223,"time_elapsed":1076068,"internal_node_id":"0.0-212.0","task_version":"test-retest-t3"},{"Rune":"rune_06_cweord","Hex":"#3366ff99","Correct":-1,"Choice":-1,"RT":-1,"Accuracy":1,"Outcome":"-1","Keys":[],"TotalKeys":0,"Block":2,"Trial":205,"Robot":4,"Valence":"Lose","Action":"No-Go","Sham":0,"Color":"blue","trial_type":"pit-trial","trial_index":224,"time_elapsed":1080164,"internal_node_id":"0.0-213.0","task_version":"test-retest-t3"},{"Rune":"rune_06_berkanan","Hex":"#3366ff99","Correct":32,"Choice":32,"RT":499.27000000025146,"Accuracy":1,"Outcome":"-1","Keys":[2000.7649999898858],"TotalKeys":1,"Block":2,"Trial":206,"Robot":3,"Valence":"Lose","Action":"Go","Sham":0,"Color":"blue","trial_type":"pit-trial","trial_index":225,"time_elapsed":1083250,"internal_node_id":"0.0-214.0","task_version":"test-retest-t3"},{"Rune":"rune_06_ehwaz","Hex":"#ffcc3399","Correct":-1,"Choice":-1,"RT":-1,"Accuracy":1,"Outcome":"+10","Keys":[],"TotalKeys":0,"Block":2,"Trial":207,"Robot":2,"Valence":"Win","Action":"No-Go","Sham":0,"Color":"yellow","trial_type":"pit-trial","trial_index":226,"time_elapsed":1087326,"internal_node_id":"0.0-215.0","task_version":"test-retest-t3"},{"Rune":"rune_06_ansuz","Hex":"#ffcc3399","Correct":32,"Choice":32,"RT":665.8699999973178,"Accuracy":1,"Outcome":"+10","Keys":[2167.3500000033528],"TotalKeys":1,"Block":2,"Trial":208,"Robot":1,"Valence":"Win","Action":"Go","Sham":0,"Color":"yellow","trial_type":"pit-trial","trial_index":227,"time_elapsed":1090572,"internal_node_id":"0.0-216.0","task_version":"test-retest-t3"},{"Rune":"rune_06_ehwaz","Hex":"#ffcc3399","Correct":-1,"Choice":-1,"RT":-1,"Accuracy":1,"Outcome":"+10","Keys":[],"TotalKeys":0,"Block":2,"Trial":209,"Robot":2,"Valence":"Win","Action":"No-Go","Sham":0,"Color":"yellow","trial_type":"pit-trial","trial_index":228,"time_elapsed":1094648,"internal_node_id":"0.0-217.0","task_version":"test-retest-t3"},{"Rune":"rune_06_cweord","Hex":"#3366ff99","Correct":-1,"Choice":-1,"RT":-1,"Accuracy":1,"Outcome":"-10","Keys":[],"TotalKeys":0,"Block":2,"Trial":210,"Robot":4,"Valence":"Lose","Action":"No-Go","Sham":1,"Color":"blue","trial_type":"pit-trial","trial_index":229,"time_elapsed":1098722,"internal_node_id":"0.0-218.0","task_version":"test-retest-t3"},{"Rune":"rune_06_berkanan","Hex":"#3366ff99","Correct":32,"Choice":32,"RT":542.5899999972899,"Accuracy":1,"Outcome":"-1","Keys":[2043.5850000067148],"TotalKeys":1,"Block":2,"Trial":211,"Robot":3,"Valence":"Lose","Action":"Go","Sham":0,"Color":"blue","trial_type":"pit-trial","trial_index":230,"time_elapsed":1101842,"internal_node_id":"0.0-219.0","task_version":"test-retest-t3"},{"Rune":"rune_06_ansuz","Hex":"#ffcc3399","Correct":32,"Choice":32,"RT":510.2599999953527,"Accuracy":1,"Outcome":"+10","Keys":[2011.4400000020396],"TotalKeys":1,"Block":2,"Trial":212,"Robot":1,"Valence":"Win","Action":"Go","Sham":0,"Color":"yellow","trial_type":"pit-trial","trial_index":231,"time_elapsed":1104933,"internal_node_id":"0.0-220.0","task_version":"test-retest-t3"},{"Rune":"rune_06_ansuz","Hex":"#ffcc3399","Correct":32,"Choice":32,"RT":722.7949999943376,"Accuracy":1,"Outcome":"+1","Keys":[2223.914999994915],"TotalKeys":1,"Block":2,"Trial":213,"Robot":1,"Valence":"Win","Action":"Go","Sham":1,"Color":"yellow","trial_type":"pit-trial","trial_index":232,"time_elapsed":1108230,"internal_node_id":"0.0-221.0","task_version":"test-retest-t3"},{"Rune":"rune_06_berkanan","Hex":"#3366ff99","Correct":32,"Choice":32,"RT":756.5649999887682,"Accuracy":1,"Outcome":"-10","Keys":[2257.160000008298],"TotalKeys":1,"Block":2,"Trial":214,"Robot":3,"Valence":"Lose","Action":"Go","Sham":1,"Color":"blue","trial_type":"pit-trial","trial_index":233,"time_elapsed":1111568,"internal_node_id":"0.0-222.0","task_version":"test-retest-t3"},{"Rune":"rune_06_ehwaz","Hex":"#ffcc3399","Correct":-1,"Choice":-1,"RT":-1,"Accuracy":1,"Outcome":"+10","Keys":[],"TotalKeys":0,"Block":2,"Trial":215,"Robot":2,"Valence":"Win","Action":"No-Go","Sham":0,"Color":"yellow","trial_type":"pit-trial","trial_index":234,"time_elapsed":1115646,"internal_node_id":"0.0-223.0","task_version":"test-retest-t3"},{"Rune":"rune_06_cweord","Hex":"#3366ff99","Correct":-1,"Choice":-1,"RT":-1,"Accuracy":1,"Outcome":"-1","Keys":[],"TotalKeys":0,"Block":2,"Trial":216,"Robot":4,"Valence":"Lose","Action":"No-Go","Sham":0,"Color":"blue","trial_type":"pit-trial","trial_index":235,"time_elapsed":1119729,"internal_node_id":"0.0-224.0","task_version":"test-retest-t3"},{"Rune":"rune_06_cweord","Hex":"#3366ff99","Correct":-1,"Choice":-1,"RT":-1,"Accuracy":1,"Outcome":"-1","Keys":[],"TotalKeys":0,"Block":2,"Trial":217,"Robot":4,"Valence":"Lose","Action":"No-Go","Sham":0,"Color":"blue","trial_type":"pit-trial","trial_index":236,"time_elapsed":1123808,"internal_node_id":"0.0-225.0","task_version":"test-retest-t3"},{"Rune":"rune_06_berkanan","Hex":"#3366ff99","Correct":32,"Choice":32,"RT":603.7849999992177,"Accuracy":1,"Outcome":"-1","Keys":[2104.460000002291],"TotalKeys":1,"Block":2,"Trial":218,"Robot":3,"Valence":"Lose","Action":"Go","Sham":0,"Color":"blue","trial_type":"pit-trial","trial_index":237,"time_elapsed":1126988,"internal_node_id":"0.0-226.0","task_version":"test-retest-t3"},{"Rune":"rune_06_ansuz","Hex":"#ffcc3399","Correct":32,"Choice":32,"RT":730.865000005113,"Accuracy":1,"Outcome":"+10","Keys":[2231.1350000090897],"TotalKeys":1,"Block":2,"Trial":219,"Robot":1,"Valence":"Win","Action":"Go","Sham":0,"Color":"yellow","trial_type":"pit-trial","trial_index":238,"time_elapsed":1130289,"internal_node_id":"0.0-227.0","task_version":"test-retest-t3"},{"Rune":"rune_06_ehwaz","Hex":"#ffcc3399","Correct":-1,"Choice":-1,"RT":-1,"Accuracy":1,"Outcome":"+10","Keys":[],"TotalKeys":0,"Block":2,"Trial":220,"Robot":2,"Valence":"Win","Action":"No-Go","Sham":0,"Color":"yellow","trial_type":"pit-trial","trial_index":239,"time_elapsed":1134362,"internal_node_id":"0.0-228.0","task_version":"test-retest-t3"},{"Rune":"rune_06_berkanan","Hex":"#3366ff99","Correct":32,"Choice":32,"RT":659.6600000048056,"Accuracy":1,"Outcome":"-10","Keys":[2160.0049999980256],"TotalKeys":1,"Block":2,"Trial":221,"Robot":3,"Valence":"Lose","Action":"Go","Sham":1,"Color":"blue","trial_type":"pit-trial","trial_index":240,"time_elapsed":1137594,"internal_node_id":"0.0-229.0","task_version":"test-retest-t3"},{"Rune":"rune_06_ehwaz","Hex":"#ffcc3399","Correct":-1,"Choice":-1,"RT":-1,"Accuracy":1,"Outcome":"+10","Keys":[],"TotalKeys":0,"Block":2,"Trial":222,"Robot":2,"Valence":"Win","Action":"No-Go","Sham":0,"Color":"yellow","trial_type":"pit-trial","trial_index":241,"time_elapsed":1141668,"internal_node_id":"0.0-230.0","task_version":"test-retest-t3"},{"Rune":"rune_06_cweord","Hex":"#3366ff99","Correct":-1,"Choice":-1,"RT":-1,"Accuracy":1,"Outcome":"-1","Keys":[],"TotalKeys":0,"Block":2,"Trial":223,"Robot":4,"Valence":"Lose","Action":"No-Go","Sham":0,"Color":"blue","trial_type":"pit-trial","trial_index":242,"time_elapsed":1145752,"internal_node_id":"0.0-231.0","task_version":"test-retest-t3"},{"Rune":"rune_06_ansuz","Hex":"#ffcc3399","Correct":32,"Choice":32,"RT":727.3899999998976,"Accuracy":1,"Outcome":"+10","Keys":[2227.7850000101607],"TotalKeys":1,"Block":2,"Trial":224,"Robot":1,"Valence":"Win","Action":"Go","Sham":0,"Color":"yellow","trial_type":"pit-trial","trial_index":243,"time_elapsed":1149058,"internal_node_id":"0.0-232.0","task_version":"test-retest-t3"},{"Rune":"rune_06_ehwaz","Hex":"#ffcc3399","Correct":-1,"Choice":-1,"RT":-1,"Accuracy":1,"Outcome":"+1","Keys":[],"TotalKeys":0,"Block":2,"Trial":225,"Robot":2,"Valence":"Win","Action":"No-Go","Sham":1,"Color":"yellow","trial_type":"pit-trial","trial_index":244,"time_elapsed":1153232,"internal_node_id":"0.0-233.0","task_version":"test-retest-t3"},{"Rune":"rune_06_ansuz","Hex":"#ffcc3399","Correct":32,"Choice":32,"RT":683.2900000009686,"Accuracy":1,"Outcome":"+1","Keys":[2185.040000011213],"TotalKeys":1,"Block":2,"Trial":226,"Robot":1,"Valence":"Win","Action":"Go","Sham":1,"Color":"yellow","trial_type":"pit-trial","trial_index":245,"time_elapsed":1156490,"internal_node_id":"0.0-234.0","task_version":"test-retest-t3"},{"Rune":"rune_06_cweord","Hex":"#3366ff99","Correct":-1,"Choice":-1,"RT":-1,"Accuracy":1,"Outcome":"-10","Keys":[],"TotalKeys":0,"Block":2,"Trial":227,"Robot":4,"Valence":"Lose","Action":"No-Go","Sham":1,"Color":"blue","trial_type":"pit-trial","trial_index":246,"time_elapsed":1160574,"internal_node_id":"0.0-235.0","task_version":"test-retest-t3"},{"Rune":"rune_06_berkanan","Hex":"#3366ff99","Correct":32,"Choice":32,"RT":495.08500000229105,"Accuracy":1,"Outcome":"-1","Keys":[1996.1400000029244],"TotalKeys":1,"Block":2,"Trial":228,"Robot":3,"Valence":"Lose","Action":"Go","Sham":0,"Color":"blue","trial_type":"pit-trial","trial_index":247,"time_elapsed":1163727,"internal_node_id":"0.0-236.0","task_version":"test-retest-t3"},{"Rune":"rune_06_berkanan","Hex":"#3366ff99","Correct":32,"Choice":32,"RT":694.6800000006333,"Accuracy":1,"Outcome":"-1","Keys":[2194.8499999996275],"TotalKeys":1,"Block":2,"Trial":229,"Robot":3,"Valence":"Lose","Action":"Go","Sham":0,"Color":"blue","trial_type":"pit-trial","trial_index":248,"time_elapsed":1166994,"internal_node_id":"0.0-237.0","task_version":"test-retest-t3"},{"Rune":"rune_06_cweord","Hex":"#3366ff99","Correct":-1,"Choice":-1,"RT":-1,"Accuracy":1,"Outcome":"-1","Keys":[],"TotalKeys":0,"Block":2,"Trial":230,"Robot":4,"Valence":"Lose","Action":"No-Go","Sham":0,"Color":"blue","trial_type":"pit-trial","trial_index":249,"time_elapsed":1171065,"internal_node_id":"0.0-238.0","task_version":"test-retest-t3"},{"Rune":"rune_06_ehwaz","Hex":"#ffcc3399","Correct":-1,"Choice":-1,"RT":-1,"Accuracy":1,"Outcome":"+10","Keys":[],"TotalKeys":0,"Block":2,"Trial":231,"Robot":2,"Valence":"Win","Action":"No-Go","Sham":0,"Color":"yellow","trial_type":"pit-trial","trial_index":250,"time_elapsed":1175141,"internal_node_id":"0.0-239.0","task_version":"test-retest-t3"},{"Rune":"rune_06_ansuz","Hex":"#ffcc3399","Correct":32,"Choice":32,"RT":579.4400000013411,"Accuracy":1,"Outcome":"+10","Keys":[2081.2100000041537],"TotalKeys":1,"Block":2,"Trial":232,"Robot":1,"Valence":"Win","Action":"Go","Sham":0,"Color":"yellow","trial_type":"pit-trial","trial_index":251,"time_elapsed":1178293,"internal_node_id":"0.0-240.0","task_version":"test-retest-t3"},{"Rune":"rune_06_ehwaz","Hex":"#ffcc3399","Correct":-1,"Choice":-1,"RT":-1,"Accuracy":1,"Outcome":"+10","Keys":[],"TotalKeys":0,"Block":2,"Trial":233,"Robot":2,"Valence":"Win","Action":"No-Go","Sham":0,"Color":"yellow","trial_type":"pit-trial","trial_index":252,"time_elapsed":1182386,"internal_node_id":"0.0-241.0","task_version":"test-retest-t3"},{"Rune":"rune_06_ansuz","Hex":"#ffcc3399","Correct":32,"Choice":32,"RT":790.2049999975134,"Accuracy":1,"Outcome":"+10","Keys":[2290.550000005169],"TotalKeys":1,"Block":2,"Trial":234,"Robot":1,"Valence":"Win","Action":"Go","Sham":0,"Color":"yellow","trial_type":"pit-trial","trial_index":253,"time_elapsed":1185794,"internal_node_id":"0.0-242.0","task_version":"test-retest-t3"},{"Rune":"rune_06_berkanan","Hex":"#3366ff99","Correct":32,"Choice":32,"RT":672.7350000001024,"Accuracy":1,"Outcome":"-1","Keys":[2173.6749999984168],"TotalKeys":1,"Block":2,"Trial":235,"Robot":3,"Valence":"Lose","Action":"Go","Sham":0,"Color":"blue","trial_type":"pit-trial","trial_index":254,"time_elapsed":1189112,"internal_node_id":"0.0-243.0","task_version":"test-retest-t3"},{"Rune":"rune_06_cweord","Hex":"#3366ff99","Correct":-1,"Choice":-1,"RT":-1,"Accuracy":1,"Outcome":"-1","Keys":[],"TotalKeys":0,"Block":2,"Trial":236,"Robot":4,"Valence":"Lose","Action":"No-Go","Sham":0,"Color":"blue","trial_type":"pit-trial","trial_index":255,"time_elapsed":1193184,"internal_node_id":"0.0-244.0","task_version":"test-retest-t3"},{"Rune":"rune_06_berkanan","Hex":"#3366ff99","Correct":32,"Choice":32,"RT":717.499999998603,"Accuracy":1,"Outcome":"-1","Keys":[2217.9500000055414],"TotalKeys":1,"Block":2,"Trial":237,"Robot":3,"Valence":"Lose","Action":"Go","Sham":0,"Color":"blue","trial_type":"pit-trial","trial_index":256,"time_elapsed":1196477,"internal_node_id":"0.0-245.0","task_version":"test-retest-t3"},{"Rune":"rune_06_ansuz","Hex":"#ffcc3399","Correct":32,"Choice":32,"RT":532.2599999927916,"Accuracy":1,"Outcome":"+10","Keys":[2033.6250000107102],"TotalKeys":1,"Block":2,"Trial":238,"Robot":1,"Valence":"Win","Action":"Go","Sham":0,"Color":"yellow","trial_type":"pit-trial","trial_index":257,"time_elapsed":1199586,"internal_node_id":"0.0-246.0","task_version":"test-retest-t3"},{"Rune":"rune_06_cweord","Hex":"#3366ff99","Correct":-1,"Choice":-1,"RT":-1,"Accuracy":1,"Outcome":"-1","Keys":[],"TotalKeys":0,"Block":2,"Trial":239,"Robot":4,"Valence":"Lose","Action":"No-Go","Sham":0,"Color":"blue","trial_type":"pit-trial","trial_index":258,"time_elapsed":1203732,"internal_node_id":"0.0-247.0","task_version":"test-retest-t3"},{"Rune":"rune_06_ehwaz","Hex":"#ffcc3399","Correct":-1,"Choice":-1,"RT":-1,"Accuracy":1,"Outcome":"+10","Keys":[],"TotalKeys":0,"Block":2,"Trial":240,"Robot":2,"Valence":"Win","Action":"No-Go","Sham":0,"Color":"yellow","trial_type":"pit-trial","trial_index":259,"time_elapsed":1207805,"internal_node_id":"0.0-248.0","task_version":"test-retest-t3"},{"view_history":"[{\"page_index\":0,\"viewing_time\":2237.3549999902025}]","rt":2238.7999999918975,"trial_type":"pit-instructions","trial_index":260,"time_elapsed":1210113,"internal_node_id":"0.0-249.0","task_version":"test-retest-t3"},{"rt":45448.78500000038,"responses":{"difficulty":"2","fun":"5","clarity":"5","strategy":"Said shape outloud then yes or no","feedback":"Thank you"},"survey":"debrief","trial_type":"survey-debrief","trial_index":261,"time_elapsed":1255637,"internal_node_id":"0.0-250.0","task_version":"test-retest-t3"},{"rt":3500.8499999966007,"stimulus":"You earned a bonus of $1.27 out of $1.5.<br><br>Press any key to complete the experiment.","key_press":32,"trial_type":"html-keyboard-response","trial_index":262,"time_elapsed":1259219,"internal_node_id":"0.0-251.0","task_version":"test-retest-t3","accuracy":0.8416666666666667,"bonus":1.27,"interactions":"[]"}]