[{"slider_type":"valence","raw_loc":678,"loc":0.856,"trial_type":"affective-slider","trial_index":0,"time_elapsed":5426,"internal_node_id":"0.0-0.0","task_version":"test-retest-t4"},{"responses":{"Q08":"0","Q03":"0","Q13":"0","Q09":"0","Q04":"0","Q10":"0","Q05":"0","Q02":"0","Q07":"0","Q15":"0","Q11":"0","Q01":"0","Q06":"0","Q14":"0","Q12":"0"},"rt":160616.99000000226,"survey":"7up7down","trial_type":"survey-template","trial_index":1,"time_elapsed":166069,"internal_node_id":"0.0-1.0","task_version":"test-retest-t4"},{"responses":{"Q06":"0","Q05":"0","Q02":"0","Q08":"0","Q03":"0","Q04":"0","Q07":"0","Q01":"0"},"rt":21233.2649999953,"survey":"gad7","trial_type":"survey-template","trial_index":2,"time_elapsed":187366,"internal_node_id":"0.0-2.0","task_version":"test-retest-t4"},{"responses":{"Q11":"1","Q08":"2","Q03":"2","Q09":"1","Q02":"1","Q12":"1","Q06":"2","Q07":"3","Q01":"0","Q05":"2","Q13":"0","Q10":"2","Q04":"2"},"rt":54136.70000000275,"survey":"bisbas","trial_type":"survey-template","trial_index":3,"time_elapsed":241570,"internal_node_id":"0.0-3.0","task_version":"test-retest-t4"},{"view_history":"[{\"page_index\":0,\"viewing_time\":12826.450000000477},{\"page_index\":1,\"viewing_time\":975.3849999979138},{\"page_index\":2,\"viewing_time\":1208.1850000031409},{\"page_index\":3,\"viewing_time\":1935.749999996915},{\"page_index\":4,\"viewing_time\":2336.105000002135},{\"page_index\":5,\"viewing_time\":1703.8699999975506}]","rt":20988.4349999993,"trial_type":"pit-instructions","trial_index":4,"time_elapsed":262618,"internal_node_id":"0.0-4.0-0.0","task_version":"test-retest-t4"},{"Rune":"rune_00_ingz","Hex":"#FFFFF080","Correct":32,"Choice":32,"RT":1005.7450000022072,"Accuracy":1,"Outcome":"+10","Keys":[2505.989999997837],"TotalKeys":1,"Block":0,"Action":"Go","trial_type":"pit-trial","trial_index":5,"time_elapsed":266207,"internal_node_id":"0.0-4.0-1.0-0.0","task_version":"test-retest-t4"},{"Rune":"rune_00_ingz","Hex":"#FFFFF080","Correct":32,"Choice":32,"RT":520.7200000004377,"Accuracy":1,"Outcome":"+10","Keys":[2022.2649999996065],"TotalKeys":1,"Block":0,"Action":"Go","trial_type":"pit-trial","trial_index":6,"time_elapsed":269315,"internal_node_id":"0.0-4.0-1.0-0.1","task_version":"test-retest-t4"},{"Rune":"rune_00_ingz","Hex":"#FFFFF080","Correct":32,"Choice":32,"RT":477.1799999944051,"Accuracy":1,"Outcome":"+10","Keys":[1977.2800000064308],"TotalKeys":1,"Block":0,"Action":"Go","trial_type":"pit-trial","trial_index":7,"time_elapsed":272371,"internal_node_id":"0.0-4.0-1.0-0.2","task_version":"test-retest-t4"},{"Rune":"rune_00_ingz","Hex":"#FFFFF080","Correct":32,"Choice":32,"RT":514.8049999988871,"Accuracy":1,"Outcome":"+10","Keys":[2018.4300000037183],"TotalKeys":1,"Block":0,"Action":"Go","trial_type":"pit-trial","trial_index":8,"time_elapsed":275451,"internal_node_id":"0.0-4.0-1.0-0.3","task_version":"test-retest-t4"},{"view_history":"[{\"page_index\":0,\"viewing_time\":3091.200000002573}]","rt":3092.4900000027264,"trial_type":"pit-instructions","trial_index":9,"time_elapsed":278608,"internal_node_id":"0.0-4.0-2.0","task_version":"test-retest-t4"},{"Rune":"rune_00_isaz","Hex":"#FFFFF080","Correct":-1,"Choice":-1,"RT":-1,"Accuracy":1,"Outcome":"+10","Keys":[],"TotalKeys":0,"Block":0,"Action":"No-Go","trial_type":"pit-trial","trial_index":10,"time_elapsed":282678,"internal_node_id":"0.0-4.0-3.0-0.0","task_version":"test-retest-t4"},{"Rune":"rune_00_isaz","Hex":"#FFFFF080","Correct":-1,"Choice":-1,"RT":-1,"Accuracy":1,"Outcome":"+10","Keys":[],"TotalKeys":0,"Block":0,"Action":"No-Go","trial_type":"pit-trial","trial_index":11,"time_elapsed":286749,"internal_node_id":"0.0-4.0-3.0-0.1","task_version":"test-retest-t4"},{"Rune":"rune_00_isaz","Hex":"#FFFFF080","Correct":-1,"Choice":-1,"RT":-1,"Accuracy":1,"Outcome":"+10","Keys":[],"TotalKeys":0,"Block":0,"Action":"No-Go","trial_type":"pit-trial","trial_index":12,"time_elapsed":290841,"internal_node_id":"0.0-4.0-3.0-0.2","task_version":"test-retest-t4"},{"Rune":"rune_00_isaz","Hex":"#FFFFF080","Correct":-1,"Choice":-1,"RT":-1,"Accuracy":1,"Outcome":"+10","Keys":[],"TotalKeys":0,"Block":0,"Action":"No-Go","trial_type":"pit-trial","trial_index":13,"time_elapsed":294922,"internal_node_id":"0.0-4.0-3.0-0.3","task_version":"test-retest-t4"},{"view_history":"[{\"page_index\":0,\"viewing_time\":64797.224999994796},{\"page_index\":1,\"viewing_time\":744.250000003376},{\"page_index\":2,\"viewing_time\":2800.069999997504},{\"page_index\":3,\"viewing_time\":2735.5850000021746},{\"page_index\":4,\"viewing_time\":1272.2750000029919},{\"page_index\":5,\"viewing_time\":1231.694999994943},{\"page_index\":6,\"viewing_time\":1031.9950000048266},{\"page_index\":7,\"viewing_time\":792.2649999964051}]","rt":75406.77499999583,"trial_type":"pit-instructions","trial_index":14,"time_elapsed":370392,"internal_node_id":"0.0-4.0-4.0","task_version":"test-retest-t4"},{"responses":["Do nothing","+10","-1","True","Yes"],"num_errors":0,"rt":16649.71499999956,"trial_type":"pit-comprehension","trial_index":15,"time_elapsed":387108,"internal_node_id":"0.0-4.0-5.0","task_version":"test-retest-t4"},{"trial_type":"call-function","trial_index":16,"time_elapsed":387174,"internal_node_id":"0.0-5.0","task_version":"test-retest-t4"},{"view_history":"[{\"page_index\":0,\"viewing_time\":1637.9250000027241},{\"page_index\":1,\"viewing_time\":1151.289999994333},{\"page_index\":2,\"viewing_time\":1632.6950000002398}]","rt":4423.260000003211,"trial_type":"pit-instructions","trial_index":17,"time_elapsed":391600,"internal_node_id":"0.0-6.0","task_version":"test-retest-t4"},{"Rune":"rune_08_fehu","Hex":"#3366ff99","Correct":-1,"Choice":-1,"RT":-1,"Accuracy":1,"Outcome":"+10","Keys":[],"TotalKeys":0,"Block":1,"Trial":1,"Robot":2,"Valence":"Win","Action":"No-Go","Sham":0,"Color":"blue","trial_type":"pit-trial","trial_index":18,"time_elapsed":395682,"internal_node_id":"0.0-7.0","task_version":"test-retest-t4"},{"Rune":"rune_08_sigel","Hex":"#ffcc3399","Correct":32,"Choice":32,"RT":457.67000000341795,"Accuracy":1,"Outcome":"-10","Keys":[1957.9500000036205],"TotalKeys":1,"Block":1,"Trial":2,"Robot":3,"Valence":"Lose","Action":"Go","Sham":1,"Color":"yellow","trial_type":"pit-trial","trial_index":19,"time_elapsed":398714,"internal_node_id":"0.0-8.0","task_version":"test-retest-t4"},{"Rune":"rune_08_mannaz","Hex":"#3366ff99","Correct":32,"Choice":32,"RT":579.2300000030082,"Accuracy":1,"Outcome":"+1","Keys":[2080.0450000024284],"TotalKeys":1,"Block":1,"Trial":3,"Robot":1,"Valence":"Win","Action":"Go","Sham":1,"Color":"blue","trial_type":"pit-trial","trial_index":20,"time_elapsed":401866,"internal_node_id":"0.0-9.0","task_version":"test-retest-t4"},{"Rune":"rune_08_pertho","Hex":"#ffcc3399","Correct":-1,"Choice":-1,"RT":-1,"Accuracy":1,"Outcome":"-1","Keys":[],"TotalKeys":0,"Block":1,"Trial":4,"Robot":4,"Valence":"Lose","Action":"No-Go","Sham":0,"Color":"yellow","trial_type":"pit-trial","trial_index":21,"time_elapsed":405938,"internal_node_id":"0.0-10.0","task_version":"test-retest-t4"},{"Rune":"rune_08_fehu","Hex":"#3366ff99","Correct":-1,"Choice":-1,"RT":-1,"Accuracy":1,"Outcome":"+10","Keys":[],"TotalKeys":0,"Block":1,"Trial":5,"Robot":2,"Valence":"Win","Action":"No-Go","Sham":0,"Color":"blue","trial_type":"pit-trial","trial_index":22,"time_elapsed":410035,"internal_node_id":"0.0-11.0","task_version":"test-retest-t4"},{"Rune":"rune_08_mannaz","Hex":"#3366ff99","Correct":32,"Choice":32,"RT":886.6500000003725,"Accuracy":1,"Outcome":"+10","Keys":[2387.7549999961047],"TotalKeys":1,"Block":1,"Trial":6,"Robot":1,"Valence":"Win","Action":"Go","Sham":0,"Color":"blue","trial_type":"pit-trial","trial_index":23,"time_elapsed":413523,"internal_node_id":"0.0-12.0","task_version":"test-retest-t4"},{"Rune":"rune_08_pertho","Hex":"#ffcc3399","Correct":-1,"Choice":-1,"RT":-1,"Accuracy":1,"Outcome":"-1","Keys":[],"TotalKeys":0,"Block":1,"Trial":7,"Robot":4,"Valence":"Lose","Action":"No-Go","Sham":0,"Color":"yellow","trial_type":"pit-trial","trial_index":24,"time_elapsed":417606,"internal_node_id":"0.0-13.0","task_version":"test-retest-t4"},{"Rune":"rune_08_sigel","Hex":"#ffcc3399","Correct":32,"Choice":32,"RT":1008.7700000003679,"Accuracy":1,"Outcome":"-1","Keys":[2509.8499999949127],"TotalKeys":1,"Block":1,"Trial":8,"Robot":3,"Valence":"Lose","Action":"Go","Sham":0,"Color":"yellow","trial_type":"pit-trial","trial_index":25,"time_elapsed":421194,"internal_node_id":"0.0-14.0","task_version":"test-retest-t4"},{"Rune":"rune_08_sigel","Hex":"#ffcc3399","Correct":32,"Choice":32,"RT":457.86000000225613,"Accuracy":1,"Outcome":"-1","Keys":[1958.7400000018533],"TotalKeys":1,"Block":1,"Trial":9,"Robot":3,"Valence":"Lose","Action":"Go","Sham":0,"Color":"yellow","trial_type":"pit-trial","trial_index":26,"time_elapsed":424219,"internal_node_id":"0.0-15.0","task_version":"test-retest-t4"},{"Rune":"rune_08_pertho","Hex":"#ffcc3399","Correct":-1,"Choice":-1,"RT":-1,"Accuracy":1,"Outcome":"-1","Keys":[],"TotalKeys":0,"Block":1,"Trial":10,"Robot":4,"Valence":"Lose","Action":"No-Go","Sham":0,"Color":"yellow","trial_type":"pit-trial","trial_index":27,"time_elapsed":428301,"internal_node_id":"0.0-16.0","task_version":"test-retest-t4"},{"Rune":"rune_08_mannaz","Hex":"#3366ff99","Correct":32,"Choice":-1,"RT":-1,"Accuracy":0,"Outcome":"+1","Keys":[],"TotalKeys":0,"Block":1,"Trial":11,"Robot":1,"Valence":"Win","Action":"Go","Sham":0,"Color":"blue","trial_type":"pit-trial","trial_index":28,"time_elapsed":432370,"internal_node_id":"0.0-17.0","task_version":"test-retest-t4"},{"Rune":"rune_08_fehu","Hex":"#3366ff99","Correct":-1,"Choice":-1,"RT":-1,"Accuracy":1,"Outcome":"+10","Keys":[],"TotalKeys":0,"Block":1,"Trial":12,"Robot":2,"Valence":"Win","Action":"No-Go","Sham":0,"Color":"blue","trial_type":"pit-trial","trial_index":29,"time_elapsed":436446,"internal_node_id":"0.0-18.0","task_version":"test-retest-t4"},{"Rune":"rune_08_sigel","Hex":"#ffcc3399","Correct":32,"Choice":32,"RT":904.5700000060606,"Accuracy":1,"Outcome":"-1","Keys":[2404.840000002878],"TotalKeys":1,"Block":1,"Trial":13,"Robot":3,"Valence":"Lose","Action":"Go","Sham":0,"Color":"yellow","trial_type":"pit-trial","trial_index":30,"time_elapsed":439923,"internal_node_id":"0.0-19.0","task_version":"test-retest-t4"},{"Rune":"rune_08_pertho","Hex":"#ffcc3399","Correct":-1,"Choice":-1,"RT":-1,"Accuracy":1,"Outcome":"-1","Keys":[],"TotalKeys":0,"Block":1,"Trial":14,"Robot":4,"Valence":"Lose","Action":"No-Go","Sham":0,"Color":"yellow","trial_type":"pit-trial","trial_index":31,"time_elapsed":444005,"internal_node_id":"0.0-20.0","task_version":"test-retest-t4"},{"Rune":"rune_08_fehu","Hex":"#3366ff99","Correct":-1,"Choice":32,"RT":999.8049999994691,"Accuracy":0,"Outcome":"+10","Keys":[2500.7299999997485],"TotalKeys":1,"Block":1,"Trial":15,"Robot":2,"Valence":"Win","Action":"No-Go","Sham":1,"Color":"blue","trial_type":"pit-trial","trial_index":32,"time_elapsed":447585,"internal_node_id":"0.0-21.0","task_version":"test-retest-t4"},{"Rune":"rune_08_mannaz","Hex":"#3366ff99","Correct":32,"Choice":-1,"RT":-1,"Accuracy":0,"Outcome":"+1","Keys":[],"TotalKeys":0,"Block":1,"Trial":16,"Robot":1,"Valence":"Win","Action":"Go","Sham":0,"Color":"blue","trial_type":"pit-trial","trial_index":33,"time_elapsed":451658,"internal_node_id":"0.0-22.0","task_version":"test-retest-t4"},{"Rune":"rune_08_mannaz","Hex":"#3366ff99","Correct":32,"Choice":32,"RT":519.4550000014715,"Accuracy":1,"Outcome":"+10","Keys":[2019.8500000042259],"TotalKeys":1,"Block":1,"Trial":17,"Robot":1,"Valence":"Win","Action":"Go","Sham":0,"Color":"blue","trial_type":"pit-trial","trial_index":34,"time_elapsed":454755,"internal_node_id":"0.0-23.0","task_version":"test-retest-t4"},{"Rune":"rune_08_pertho","Hex":"#ffcc3399","Correct":-1,"Choice":-1,"RT":-1,"Accuracy":1,"Outcome":"-10","Keys":[],"TotalKeys":0,"Block":1,"Trial":18,"Robot":4,"Valence":"Lose","Action":"No-Go","Sham":1,"Color":"yellow","trial_type":"pit-trial","trial_index":35,"time_elapsed":458827,"internal_node_id":"0.0-24.0","task_version":"test-retest-t4"},{"Rune":"rune_08_fehu","Hex":"#3366ff99","Correct":-1,"Choice":-1,"RT":-1,"Accuracy":1,"Outcome":"+10","Keys":[],"TotalKeys":0,"Block":1,"Trial":19,"Robot":2,"Valence":"Win","Action":"No-Go","Sham":0,"Color":"blue","trial_type":"pit-trial","trial_index":36,"time_elapsed":462906,"internal_node_id":"0.0-25.0","task_version":"test-retest-t4"},{"Rune":"rune_08_sigel","Hex":"#ffcc3399","Correct":32,"Choice":32,"RT":622.0049999974435,"Accuracy":1,"Outcome":"-1","Keys":[2122.4199999996927],"TotalKeys":1,"Block":1,"Trial":20,"Robot":3,"Valence":"Lose","Action":"Go","Sham":0,"Color":"yellow","trial_type":"pit-trial","trial_index":37,"time_elapsed":466107,"internal_node_id":"0.0-26.0","task_version":"test-retest-t4"},{"Rune":"rune_08_sigel","Hex":"#ffcc3399","Correct":32,"Choice":32,"RT":425.9500000043772,"Accuracy":1,"Outcome":"-10","Keys":[1927.0349999933387],"TotalKeys":1,"Block":1,"Trial":21,"Robot":3,"Valence":"Lose","Action":"Go","Sham":1,"Color":"yellow","trial_type":"pit-trial","trial_index":38,"time_elapsed":469099,"internal_node_id":"0.0-27.0","task_version":"test-retest-t4"},{"Rune":"rune_08_fehu","Hex":"#3366ff99","Correct":-1,"Choice":32,"RT":717.4350000059349,"Accuracy":0,"Outcome":"+1","Keys":[2218.559999993886],"TotalKeys":1,"Block":1,"Trial":22,"Robot":2,"Valence":"Win","Action":"No-Go","Sham":0,"Color":"blue","trial_type":"pit-trial","trial_index":39,"time_elapsed":472402,"internal_node_id":"0.0-28.0","task_version":"test-retest-t4"},{"Rune":"rune_08_mannaz","Hex":"#3366ff99","Correct":32,"Choice":32,"RT":473.0400000044028,"Accuracy":1,"Outcome":"+10","Keys":[1973.2800000056159],"TotalKeys":1,"Block":1,"Trial":23,"Robot":1,"Valence":"Win","Action":"Go","Sham":0,"Color":"blue","trial_type":"pit-trial","trial_index":40,"time_elapsed":475442,"internal_node_id":"0.0-29.0","task_version":"test-retest-t4"},{"Rune":"rune_08_pertho","Hex":"#ffcc3399","Correct":-1,"Choice":32,"RT":1195.080000004964,"Accuracy":0,"Outcome":"-10","Keys":[2695.159999995667],"TotalKeys":1,"Block":1,"Trial":24,"Robot":4,"Valence":"Lose","Action":"No-Go","Sham":0,"Color":"yellow","trial_type":"pit-trial","trial_index":41,"time_elapsed":479219,"internal_node_id":"0.0-30.0","task_version":"test-retest-t4"},{"Rune":"rune_08_pertho","Hex":"#ffcc3399","Correct":-1,"Choice":-1,"RT":-1,"Accuracy":1,"Outcome":"-10","Keys":[],"TotalKeys":0,"Block":1,"Trial":25,"Robot":4,"Valence":"Lose","Action":"No-Go","Sham":1,"Color":"yellow","trial_type":"pit-trial","trial_index":42,"time_elapsed":483315,"internal_node_id":"0.0-31.0","task_version":"test-retest-t4"},{"Rune":"rune_08_sigel","Hex":"#ffcc3399","Correct":32,"Choice":32,"RT":466.27499999885913,"Accuracy":1,"Outcome":"-1","Keys":[1967.014999994717],"TotalKeys":1,"Block":1,"Trial":26,"Robot":3,"Valence":"Lose","Action":"Go","Sham":0,"Color":"yellow","trial_type":"pit-trial","trial_index":43,"time_elapsed":486354,"internal_node_id":"0.0-32.0","task_version":"test-retest-t4"},{"Rune":"rune_08_mannaz","Hex":"#3366ff99","Correct":32,"Choice":32,"RT":707.2400000033667,"Accuracy":1,"Outcome":"+1","Keys":[2207.334999999148],"TotalKeys":1,"Block":1,"Trial":27,"Robot":1,"Valence":"Win","Action":"Go","Sham":1,"Color":"blue","trial_type":"pit-trial","trial_index":44,"time_elapsed":489627,"internal_node_id":"0.0-33.0","task_version":"test-retest-t4"},{"Rune":"rune_08_fehu","Hex":"#3366ff99","Correct":-1,"Choice":-1,"RT":-1,"Accuracy":1,"Outcome":"+10","Keys":[],"TotalKeys":0,"Block":1,"Trial":28,"Robot":2,"Valence":"Win","Action":"No-Go","Sham":0,"Color":"blue","trial_type":"pit-trial","trial_index":45,"time_elapsed":493692,"internal_node_id":"0.0-34.0","task_version":"test-retest-t4"},{"Rune":"rune_08_pertho","Hex":"#ffcc3399","Correct":-1,"Choice":32,"RT":767.8400000004331,"Accuracy":0,"Outcome":"-10","Keys":[2268.339999995078],"TotalKeys":1,"Block":1,"Trial":29,"Robot":4,"Valence":"Lose","Action":"No-Go","Sham":0,"Color":"yellow","trial_type":"pit-trial","trial_index":46,"time_elapsed":497034,"internal_node_id":"0.0-35.0","task_version":"test-retest-t4"},{"Rune":"rune_08_fehu","Hex":"#3366ff99","Correct":-1,"Choice":-1,"RT":-1,"Accuracy":1,"Outcome":"+10","Keys":[],"TotalKeys":0,"Block":1,"Trial":30,"Robot":2,"Valence":"Win","Action":"No-Go","Sham":0,"Color":"blue","trial_type":"pit-trial","trial_index":47,"time_elapsed":501135,"internal_node_id":"0.0-36.0","task_version":"test-retest-t4"},{"Rune":"rune_08_mannaz","Hex":"#3366ff99","Correct":32,"Choice":32,"RT":695.1300000000629,"Accuracy":1,"Outcome":"+10","Keys":[2195.42999999976],"TotalKeys":1,"Block":1,"Trial":31,"Robot":1,"Valence":"Win","Action":"Go","Sham":0,"Color":"blue","trial_type":"pit-trial","trial_index":48,"time_elapsed":504403,"internal_node_id":"0.0-37.0","task_version":"test-retest-t4"},{"Rune":"rune_08_sigel","Hex":"#ffcc3399","Correct":32,"Choice":32,"RT":679.6199999953387,"Accuracy":1,"Outcome":"-1","Keys":[2181.620000003022],"TotalKeys":1,"Block":1,"Trial":32,"Robot":3,"Valence":"Lose","Action":"Go","Sham":0,"Color":"yellow","trial_type":"pit-trial","trial_index":49,"time_elapsed":507658,"internal_node_id":"0.0-38.0","task_version":"test-retest-t4"},{"Rune":"rune_08_pertho","Hex":"#ffcc3399","Correct":-1,"Choice":-1,"RT":-1,"Accuracy":1,"Outcome":"-1","Keys":[],"TotalKeys":0,"Block":1,"Trial":33,"Robot":4,"Valence":"Lose","Action":"No-Go","Sham":0,"Color":"yellow","trial_type":"pit-trial","trial_index":50,"time_elapsed":511735,"internal_node_id":"0.0-39.0","task_version":"test-retest-t4"},{"Rune":"rune_08_sigel","Hex":"#ffcc3399","Correct":32,"Choice":32,"RT":838.0849999957718,"Accuracy":1,"Outcome":"-1","Keys":[2338.674999999057],"TotalKeys":1,"Block":1,"Trial":34,"Robot":3,"Valence":"Lose","Action":"Go","Sham":0,"Color":"yellow","trial_type":"pit-trial","trial_index":51,"time_elapsed":515140,"internal_node_id":"0.0-40.0","task_version":"test-retest-t4"},{"Rune":"rune_08_mannaz","Hex":"#3366ff99","Correct":32,"Choice":32,"RT":669.8099999994156,"Accuracy":1,"Outcome":"+10","Keys":[2170.995000000403],"TotalKeys":1,"Block":1,"Trial":35,"Robot":1,"Valence":"Win","Action":"Go","Sham":0,"Color":"blue","trial_type":"pit-trial","trial_index":52,"time_elapsed":518386,"internal_node_id":"0.0-41.0","task_version":"test-retest-t4"},{"Rune":"rune_08_fehu","Hex":"#3366ff99","Correct":-1,"Choice":-1,"RT":-1,"Accuracy":1,"Outcome":"+1","Keys":[],"TotalKeys":0,"Block":1,"Trial":36,"Robot":2,"Valence":"Win","Action":"No-Go","Sham":1,"Color":"blue","trial_type":"pit-trial","trial_index":53,"time_elapsed":522479,"internal_node_id":"0.0-42.0","task_version":"test-retest-t4"},{"Rune":"rune_08_mannaz","Hex":"#3366ff99","Correct":32,"Choice":32,"RT":524.7050000034506,"Accuracy":1,"Outcome":"+10","Keys":[2025.6000000008498],"TotalKeys":1,"Block":1,"Trial":37,"Robot":1,"Valence":"Win","Action":"Go","Sham":0,"Color":"blue","trial_type":"pit-trial","trial_index":54,"time_elapsed":525578,"internal_node_id":"0.0-43.0","task_version":"test-retest-t4"},{"Rune":"rune_08_pertho","Hex":"#ffcc3399","Correct":-1,"Choice":-1,"RT":-1,"Accuracy":1,"Outcome":"-1","Keys":[],"TotalKeys":0,"Block":1,"Trial":38,"Robot":4,"Valence":"Lose","Action":"No-Go","Sham":0,"Color":"yellow","trial_type":"pit-trial","trial_index":55,"time_elapsed":529678,"internal_node_id":"0.0-44.0","task_version":"test-retest-t4"},{"Rune":"rune_08_sigel","Hex":"#ffcc3399","Correct":32,"Choice":32,"RT":656.6799999999348,"Accuracy":1,"Outcome":"-1","Keys":[2157.2150000064867],"TotalKeys":1,"Block":1,"Trial":39,"Robot":3,"Valence":"Lose","Action":"Go","Sham":0,"Color":"yellow","trial_type":"pit-trial","trial_index":56,"time_elapsed":532898,"internal_node_id":"0.0-45.0","task_version":"test-retest-t4"},{"Rune":"rune_08_fehu","Hex":"#3366ff99","Correct":-1,"Choice":-1,"RT":-1,"Accuracy":1,"Outcome":"+10","Keys":[],"TotalKeys":0,"Block":1,"Trial":40,"Robot":2,"Valence":"Win","Action":"No-Go","Sham":0,"Color":"blue","trial_type":"pit-trial","trial_index":57,"time_elapsed":536993,"internal_node_id":"0.0-46.0","task_version":"test-retest-t4"},{"Rune":"rune_08_sigel","Hex":"#ffcc3399","Correct":32,"Choice":32,"RT":633.3299999969313,"Accuracy":1,"Outcome":"-10","Keys":[2133.755000002566],"TotalKeys":1,"Block":1,"Trial":41,"Robot":3,"Valence":"Lose","Action":"Go","Sham":1,"Color":"yellow","trial_type":"pit-trial","trial_index":58,"time_elapsed":540194,"internal_node_id":"0.0-47.0","task_version":"test-retest-t4"},{"Rune":"rune_08_pertho","Hex":"#ffcc3399","Correct":-1,"Choice":-1,"RT":-1,"Accuracy":1,"Outcome":"-1","Keys":[],"TotalKeys":0,"Block":1,"Trial":42,"Robot":4,"Valence":"Lose","Action":"No-Go","Sham":0,"Color":"yellow","trial_type":"pit-trial","trial_index":59,"time_elapsed":544257,"internal_node_id":"0.0-48.0","task_version":"test-retest-t4"},{"Rune":"rune_08_mannaz","Hex":"#3366ff99","Correct":32,"Choice":32,"RT":693.794999999227,"Accuracy":1,"Outcome":"+10","Keys":[2194.645000003162],"TotalKeys":1,"Block":1,"Trial":43,"Robot":1,"Valence":"Win","Action":"Go","Sham":0,"Color":"blue","trial_type":"pit-trial","trial_index":60,"time_elapsed":547504,"internal_node_id":"0.0-49.0","task_version":"test-retest-t4"},{"Rune":"rune_08_fehu","Hex":"#3366ff99","Correct":-1,"Choice":-1,"RT":-1,"Accuracy":1,"Outcome":"+1","Keys":[],"TotalKeys":0,"Block":1,"Trial":44,"Robot":2,"Valence":"Win","Action":"No-Go","Sham":1,"Color":"blue","trial_type":"pit-trial","trial_index":61,"time_elapsed":551583,"internal_node_id":"0.0-50.0","task_version":"test-retest-t4"},{"Rune":"rune_08_mannaz","Hex":"#3366ff99","Correct":32,"Choice":32,"RT":606.9350000033155,"Accuracy":1,"Outcome":"+10","Keys":[2107.7399999994086],"TotalKeys":1,"Block":1,"Trial":45,"Robot":1,"Valence":"Win","Action":"Go","Sham":0,"Color":"blue","trial_type":"pit-trial","trial_index":62,"time_elapsed":554762,"internal_node_id":"0.0-51.0","task_version":"test-retest-t4"},{"Rune":"rune_08_fehu","Hex":"#3366ff99","Correct":-1,"Choice":-1,"RT":-1,"Accuracy":1,"Outcome":"+10","Keys":[],"TotalKeys":0,"Block":1,"Trial":46,"Robot":2,"Valence":"Win","Action":"No-Go","Sham":0,"Color":"blue","trial_type":"pit-trial","trial_index":63,"time_elapsed":558856,"internal_node_id":"0.0-52.0","task_version":"test-retest-t4"},{"Rune":"rune_08_sigel","Hex":"#ffcc3399","Correct":32,"Choice":32,"RT":938.2699999988545,"Accuracy":1,"Outcome":"-1","Keys":[2438.4049999935087],"TotalKeys":1,"Block":1,"Trial":47,"Robot":3,"Valence":"Lose","Action":"Go","Sham":0,"Color":"yellow","trial_type":"pit-trial","trial_index":64,"time_elapsed":562386,"internal_node_id":"0.0-53.0","task_version":"test-retest-t4"},{"Rune":"rune_08_pertho","Hex":"#ffcc3399","Correct":-1,"Choice":-1,"RT":-1,"Accuracy":1,"Outcome":"-1","Keys":[],"TotalKeys":0,"Block":1,"Trial":48,"Robot":4,"Valence":"Lose","Action":"No-Go","Sham":0,"Color":"yellow","trial_type":"pit-trial","trial_index":65,"time_elapsed":566465,"internal_node_id":"0.0-54.0","task_version":"test-retest-t4"},{"Rune":"rune_08_mannaz","Hex":"#3366ff99","Correct":32,"Choice":32,"RT":549.0449999998091,"Accuracy":1,"Outcome":"+1","Keys":[2051.0450000001583],"TotalKeys":1,"Block":1,"Trial":49,"Robot":1,"Valence":"Win","Action":"Go","Sham":1,"Color":"blue","trial_type":"pit-trial","trial_index":66,"time_elapsed":569594,"internal_node_id":"0.0-55.0","task_version":"test-retest-t4"},{"Rune":"rune_08_fehu","Hex":"#3366ff99","Correct":-1,"Choice":-1,"RT":-1,"Accuracy":1,"Outcome":"+10","Keys":[],"TotalKeys":0,"Block":1,"Trial":50,"Robot":2,"Valence":"Win","Action":"No-Go","Sham":0,"Color":"blue","trial_type":"pit-trial","trial_index":67,"time_elapsed":573668,"internal_node_id":"0.0-56.0","task_version":"test-retest-t4"},{"Rune":"rune_08_sigel","Hex":"#ffcc3399","Correct":32,"Choice":32,"RT":589.2050000037998,"Accuracy":1,"Outcome":"-1","Keys":[2089.8200000009965],"TotalKeys":1,"Block":1,"Trial":51,"Robot":3,"Valence":"Lose","Action":"Go","Sham":0,"Color":"yellow","trial_type":"pit-trial","trial_index":68,"time_elapsed":576834,"internal_node_id":"0.0-57.0","task_version":"test-retest-t4"},{"Rune":"rune_08_pertho","Hex":"#ffcc3399","Correct":-1,"Choice":-1,"RT":-1,"Accuracy":1,"Outcome":"-10","Keys":[],"TotalKeys":0,"Block":1,"Trial":52,"Robot":4,"Valence":"Lose","Action":"No-Go","Sham":1,"Color":"yellow","trial_type":"pit-trial","trial_index":69,"time_elapsed":580901,"internal_node_id":"0.0-58.0","task_version":"test-retest-t4"},{"Rune":"rune_08_fehu","Hex":"#3366ff99","Correct":-1,"Choice":-1,"RT":-1,"Accuracy":1,"Outcome":"+10","Keys":[],"TotalKeys":0,"Block":1,"Trial":53,"Robot":2,"Valence":"Win","Action":"No-Go","Sham":0,"Color":"blue","trial_type":"pit-trial","trial_index":70,"time_elapsed":584991,"internal_node_id":"0.0-59.0","task_version":"test-retest-t4"},{"Rune":"rune_08_mannaz","Hex":"#3366ff99","Correct":32,"Choice":32,"RT":785.5499999932945,"Accuracy":1,"Outcome":"+10","Keys":[2287.5899999999674],"TotalKeys":1,"Block":1,"Trial":54,"Robot":1,"Valence":"Win","Action":"Go","Sham":0,"Color":"blue","trial_type":"pit-trial","trial_index":71,"time_elapsed":588347,"internal_node_id":"0.0-60.0","task_version":"test-retest-t4"},{"Rune":"rune_08_sigel","Hex":"#ffcc3399","Correct":32,"Choice":32,"RT":779.6749999979511,"Accuracy":1,"Outcome":"-1","Keys":[2280.2200000006706],"TotalKeys":1,"Block":1,"Trial":55,"Robot":3,"Valence":"Lose","Action":"Go","Sham":0,"Color":"yellow","trial_type":"pit-trial","trial_index":72,"time_elapsed":591698,"internal_node_id":"0.0-61.0","task_version":"test-retest-t4"},{"Rune":"rune_08_pertho","Hex":"#ffcc3399","Correct":-1,"Choice":-1,"RT":-1,"Accuracy":1,"Outcome":"-1","Keys":[],"TotalKeys":0,"Block":1,"Trial":56,"Robot":4,"Valence":"Lose","Action":"No-Go","Sham":0,"Color":"yellow","trial_type":"pit-trial","trial_index":73,"time_elapsed":595777,"internal_node_id":"0.0-62.0","task_version":"test-retest-t4"},{"Rune":"rune_08_sigel","Hex":"#ffcc3399","Correct":32,"Choice":32,"RT":863.0649999978486,"Accuracy":1,"Outcome":"-1","Keys":[2363.785000001313],"TotalKeys":1,"Block":1,"Trial":57,"Robot":3,"Valence":"Lose","Action":"Go","Sham":0,"Color":"yellow","trial_type":"pit-trial","trial_index":74,"time_elapsed":599218,"internal_node_id":"0.0-63.0","task_version":"test-retest-t4"},{"Rune":"rune_08_mannaz","Hex":"#3366ff99","Correct":32,"Choice":32,"RT":616.6349999986123,"Accuracy":1,"Outcome":"+10","Keys":[2120.534999994561],"TotalKeys":1,"Block":1,"Trial":58,"Robot":1,"Valence":"Win","Action":"Go","Sham":0,"Color":"blue","trial_type":"pit-trial","trial_index":75,"time_elapsed":602435,"internal_node_id":"0.0-64.0","task_version":"test-retest-t4"},{"Rune":"rune_08_fehu","Hex":"#3366ff99","Correct":-1,"Choice":-1,"RT":-1,"Accuracy":1,"Outcome":"+10","Keys":[],"TotalKeys":0,"Block":1,"Trial":59,"Robot":2,"Valence":"Win","Action":"No-Go","Sham":0,"Color":"blue","trial_type":"pit-trial","trial_index":76,"time_elapsed":606515,"internal_node_id":"0.0-65.0","task_version":"test-retest-t4"},{"Rune":"rune_08_pertho","Hex":"#ffcc3399","Correct":-1,"Choice":-1,"RT":-1,"Accuracy":1,"Outcome":"-1","Keys":[],"TotalKeys":0,"Block":1,"Trial":60,"Robot":4,"Valence":"Lose","Action":"No-Go","Sham":0,"Color":"yellow","trial_type":"pit-trial","trial_index":77,"time_elapsed":610629,"internal_node_id":"0.0-66.0","task_version":"test-retest-t4"},{"value":false,"trial_type":"call-function","trial_index":78,"time_elapsed":610697,"internal_node_id":"0.0-67.0","task_version":"test-retest-t4"},{"view_history":"[{\"page_index\":0,\"viewing_time\":84043.38499999722},{\"page_index\":1,\"viewing_time\":8191.4299999990035}]","rt":92236.2999999969,"trial_type":"pit-instructions","trial_index":79,"time_elapsed":702936,"internal_node_id":"0.0-68.0","task_version":"test-retest-t4"},{"Rune":"rune_08_mannaz","Hex":"#3366ff99","Correct":32,"Choice":32,"RT":583.6950000011129,"Accuracy":1,"Outcome":"+10","Keys":[2084.5249999983935],"TotalKeys":1,"Block":1,"Trial":61,"Robot":1,"Valence":"Win","Action":"Go","Sham":0,"Color":"blue","trial_type":"pit-trial","trial_index":80,"time_elapsed":706090,"internal_node_id":"0.0-69.0","task_version":"test-retest-t4"},{"Rune":"rune_08_fehu","Hex":"#3366ff99","Correct":-1,"Choice":-1,"RT":-1,"Accuracy":1,"Outcome":"+10","Keys":[],"TotalKeys":0,"Block":1,"Trial":62,"Robot":2,"Valence":"Win","Action":"No-Go","Sham":0,"Color":"blue","trial_type":"pit-trial","trial_index":81,"time_elapsed":710165,"internal_node_id":"0.0-70.0","task_version":"test-retest-t4"},{"Rune":"rune_08_pertho","Hex":"#ffcc3399","Correct":-1,"Choice":32,"RT":1081.350000000326,"Accuracy":0,"Outcome":"-10","Keys":[2583.034999995958],"TotalKeys":1,"Block":1,"Trial":63,"Robot":4,"Valence":"Lose","Action":"No-Go","Sham":0,"Color":"yellow","trial_type":"pit-trial","trial_index":82,"time_elapsed":713826,"internal_node_id":"0.0-71.0","task_version":"test-retest-t4"},{"Rune":"rune_08_sigel","Hex":"#ffcc3399","Correct":32,"Choice":32,"RT":1217.9099999994505,"Accuracy":1,"Outcome":"-10","Keys":[2718.820000001928],"TotalKeys":1,"Block":1,"Trial":64,"Robot":3,"Valence":"Lose","Action":"Go","Sham":1,"Color":"yellow","trial_type":"pit-trial","trial_index":83,"time_elapsed":717634,"internal_node_id":"0.0-72.0","task_version":"test-retest-t4"},{"Rune":"rune_08_mannaz","Hex":"#3366ff99","Correct":32,"Choice":32,"RT":482.45999999926426,"Accuracy":1,"Outcome":"+10","Keys":[1983.7699999988545],"TotalKeys":1,"Block":1,"Trial":65,"Robot":1,"Valence":"Win","Action":"Go","Sham":0,"Color":"blue","trial_type":"pit-trial","trial_index":84,"time_elapsed":720690,"internal_node_id":"0.0-73.0","task_version":"test-retest-t4"},{"Rune":"rune_08_sigel","Hex":"#ffcc3399","Correct":32,"Choice":32,"RT":487.4150000032969,"Accuracy":1,"Outcome":"-1","Keys":[1987.5450000035344],"TotalKeys":1,"Block":1,"Trial":66,"Robot":3,"Valence":"Lose","Action":"Go","Sham":0,"Color":"yellow","trial_type":"pit-trial","trial_index":85,"time_elapsed":723754,"internal_node_id":"0.0-74.0","task_version":"test-retest-t4"},{"Rune":"rune_08_pertho","Hex":"#ffcc3399","Correct":-1,"Choice":-1,"RT":-1,"Accuracy":1,"Outcome":"-1","Keys":[],"TotalKeys":0,"Block":1,"Trial":67,"Robot":4,"Valence":"Lose","Action":"No-Go","Sham":0,"Color":"yellow","trial_type":"pit-trial","trial_index":86,"time_elapsed":727826,"internal_node_id":"0.0-75.0","task_version":"test-retest-t4"},{"Rune":"rune_08_fehu","Hex":"#3366ff99","Correct":-1,"Choice":-1,"RT":-1,"Accuracy":1,"Outcome":"+10","Keys":[],"TotalKeys":0,"Block":1,"Trial":68,"Robot":2,"Valence":"Win","Action":"No-Go","Sham":0,"Color":"blue","trial_type":"pit-trial","trial_index":87,"time_elapsed":731891,"internal_node_id":"0.0-76.0","task_version":"test-retest-t4"},{"Rune":"rune_08_fehu","Hex":"#3366ff99","Correct":-1,"Choice":32,"RT":878.745000001858,"Accuracy":0,"Outcome":"+1","Keys":[2382.7449999952223],"TotalKeys":1,"Block":1,"Trial":69,"Robot":2,"Valence":"Win","Action":"No-Go","Sham":0,"Color":"blue","trial_type":"pit-trial","trial_index":88,"time_elapsed":735362,"internal_node_id":"0.0-77.0","task_version":"test-retest-t4"},{"Rune":"rune_08_pertho","Hex":"#ffcc3399","Correct":-1,"Choice":-1,"RT":-1,"Accuracy":1,"Outcome":"-1","Keys":[],"TotalKeys":0,"Block":1,"Trial":70,"Robot":4,"Valence":"Lose","Action":"No-Go","Sham":0,"Color":"yellow","trial_type":"pit-trial","trial_index":89,"time_elapsed":739437,"internal_node_id":"0.0-78.0","task_version":"test-retest-t4"},{"Rune":"rune_08_mannaz","Hex":"#3366ff99","Correct":32,"Choice":32,"RT":643.8249999992549,"Accuracy":1,"Outcome":"+10","Keys":[2144.3450000006706],"TotalKeys":1,"Block":1,"Trial":71,"Robot":1,"Valence":"Win","Action":"Go","Sham":0,"Color":"blue","trial_type":"pit-trial","trial_index":90,"time_elapsed":742666,"internal_node_id":"0.0-79.0","task_version":"test-retest-t4"},{"Rune":"rune_08_sigel","Hex":"#ffcc3399","Correct":32,"Choice":-1,"RT":-1,"Accuracy":0,"Outcome":"-10","Keys":[],"TotalKeys":0,"Block":1,"Trial":72,"Robot":3,"Valence":"Lose","Action":"Go","Sham":0,"Color":"yellow","trial_type":"pit-trial","trial_index":91,"time_elapsed":746737,"internal_node_id":"0.0-80.0","task_version":"test-retest-t4"},{"Rune":"rune_08_sigel","Hex":"#ffcc3399","Correct":32,"Choice":32,"RT":399.40999999828637,"Accuracy":1,"Outcome":"-1","Keys":[1900.2350000010338],"TotalKeys":1,"Block":1,"Trial":73,"Robot":3,"Valence":"Lose","Action":"Go","Sham":0,"Color":"yellow","trial_type":"pit-trial","trial_index":92,"time_elapsed":749714,"internal_node_id":"0.0-81.0","task_version":"test-retest-t4"},{"Rune":"rune_08_mannaz","Hex":"#3366ff99","Correct":32,"Choice":32,"RT":507.02499999897555,"Accuracy":1,"Outcome":"+10","Keys":[2007.0950000009034],"TotalKeys":1,"Block":1,"Trial":74,"Robot":1,"Valence":"Win","Action":"Go","Sham":0,"Color":"blue","trial_type":"pit-trial","trial_index":93,"time_elapsed":752794,"internal_node_id":"0.0-82.0","task_version":"test-retest-t4"},{"Rune":"rune_08_pertho","Hex":"#ffcc3399","Correct":-1,"Choice":-1,"RT":-1,"Accuracy":1,"Outcome":"-1","Keys":[],"TotalKeys":0,"Block":1,"Trial":75,"Robot":4,"Valence":"Lose","Action":"No-Go","Sham":0,"Color":"yellow","trial_type":"pit-trial","trial_index":94,"time_elapsed":756888,"internal_node_id":"0.0-83.0","task_version":"test-retest-t4"},{"Rune":"rune_08_fehu","Hex":"#3366ff99","Correct":-1,"Choice":32,"RT":955.7199999981094,"Accuracy":0,"Outcome":"+10","Keys":[2456.9550000014715],"TotalKeys":1,"Block":1,"Trial":76,"Robot":2,"Valence":"Win","Action":"No-Go","Sham":1,"Color":"blue","trial_type":"pit-trial","trial_index":95,"time_elapsed":760426,"internal_node_id":"0.0-84.0","task_version":"test-retest-t4"},{"Rune":"rune_08_pertho","Hex":"#ffcc3399","Correct":-1,"Choice":-1,"RT":-1,"Accuracy":1,"Outcome":"-10","Keys":[],"TotalKeys":0,"Block":1,"Trial":77,"Robot":4,"Valence":"Lose","Action":"No-Go","Sham":1,"Color":"yellow","trial_type":"pit-trial","trial_index":96,"time_elapsed":764499,"internal_node_id":"0.0-85.0","task_version":"test-retest-t4"},{"Rune":"rune_08_fehu","Hex":"#3366ff99","Correct":-1,"Choice":-1,"RT":-1,"Accuracy":1,"Outcome":"+10","Keys":[],"TotalKeys":0,"Block":1,"Trial":78,"Robot":2,"Valence":"Win","Action":"No-Go","Sham":0,"Color":"blue","trial_type":"pit-trial","trial_index":97,"time_elapsed":768579,"internal_node_id":"0.0-86.0","task_version":"test-retest-t4"},{"Rune":"rune_08_sigel","Hex":"#ffcc3399","Correct":32,"Choice":32,"RT":634.9550000014715,"Accuracy":1,"Outcome":"-1","Keys":[2135.95999999973],"TotalKeys":1,"Block":1,"Trial":79,"Robot":3,"Valence":"Lose","Action":"Go","Sham":0,"Color":"yellow","trial_type":"pit-trial","trial_index":98,"time_elapsed":771803,"internal_node_id":"0.0-87.0","task_version":"test-retest-t4"},{"Rune":"rune_08_mannaz","Hex":"#3366ff99","Correct":32,"Choice":32,"RT":722.4100000021281,"Accuracy":1,"Outcome":"+1","Keys":[2223.009999994305],"TotalKeys":1,"Block":1,"Trial":80,"Robot":1,"Valence":"Win","Action":"Go","Sham":1,"Color":"blue","trial_type":"pit-trial","trial_index":99,"time_elapsed":775105,"internal_node_id":"0.0-88.0","task_version":"test-retest-t4"},{"Rune":"rune_08_pertho","Hex":"#ffcc3399","Correct":-1,"Choice":-1,"RT":-1,"Accuracy":1,"Outcome":"-10","Keys":[],"TotalKeys":0,"Block":1,"Trial":81,"Robot":4,"Valence":"Lose","Action":"No-Go","Sham":1,"Color":"yellow","trial_type":"pit-trial","trial_index":100,"time_elapsed":779172,"internal_node_id":"0.0-89.0","task_version":"test-retest-t4"},{"Rune":"rune_08_fehu","Hex":"#3366ff99","Correct":-1,"Choice":-1,"RT":-1,"Accuracy":1,"Outcome":"+1","Keys":[],"TotalKeys":0,"Block":1,"Trial":82,"Robot":2,"Valence":"Win","Action":"No-Go","Sham":1,"Color":"blue","trial_type":"pit-trial","trial_index":101,"time_elapsed":783261,"internal_node_id":"0.0-90.0","task_version":"test-retest-t4"},{"Rune":"rune_08_sigel","Hex":"#ffcc3399","Correct":32,"Choice":32,"RT":588.9150000002701,"Accuracy":1,"Outcome":"-1","Keys":[2089.249999997206],"TotalKeys":1,"Block":1,"Trial":83,"Robot":3,"Valence":"Lose","Action":"Go","Sham":0,"Color":"yellow","trial_type":"pit-trial","trial_index":102,"time_elapsed":786418,"internal_node_id":"0.0-91.0","task_version":"test-retest-t4"},{"Rune":"rune_08_mannaz","Hex":"#3366ff99","Correct":32,"Choice":32,"RT":706.7600000009406,"Accuracy":1,"Outcome":"+10","Keys":[2208.0149999965215],"TotalKeys":1,"Block":1,"Trial":84,"Robot":1,"Valence":"Win","Action":"Go","Sham":0,"Color":"blue","trial_type":"pit-trial","trial_index":103,"time_elapsed":789690,"internal_node_id":"0.0-92.0","task_version":"test-retest-t4"},{"Rune":"rune_08_mannaz","Hex":"#3366ff99","Correct":32,"Choice":32,"RT":358.0599999986589,"Accuracy":1,"Outcome":"+1","Keys":[1860.8499999972992],"TotalKeys":1,"Block":1,"Trial":85,"Robot":1,"Valence":"Win","Action":"Go","Sham":1,"Color":"blue","trial_type":"pit-trial","trial_index":104,"time_elapsed":792625,"internal_node_id":"0.0-93.0","task_version":"test-retest-t4"},{"Rune":"rune_08_sigel","Hex":"#ffcc3399","Correct":32,"Choice":32,"RT":580.2299999995157,"Accuracy":1,"Outcome":"-1","Keys":[2080.634999998496],"TotalKeys":1,"Block":1,"Trial":86,"Robot":3,"Valence":"Lose","Action":"Go","Sham":0,"Color":"yellow","trial_type":"pit-trial","trial_index":105,"time_elapsed":795770,"internal_node_id":"0.0-94.0","task_version":"test-retest-t4"},{"Rune":"rune_08_fehu","Hex":"#3366ff99","Correct":-1,"Choice":32,"RT":559.320000000298,"Accuracy":0,"Outcome":"+1","Keys":[2059.8749999990687],"TotalKeys":1,"Block":1,"Trial":87,"Robot":2,"Valence":"Win","Action":"No-Go","Sham":0,"Color":"blue","trial_type":"pit-trial","trial_index":106,"time_elapsed":798898,"internal_node_id":"0.0-95.0","task_version":"test-retest-t4"},{"Rune":"rune_08_pertho","Hex":"#ffcc3399","Correct":-1,"Choice":32,"RT":703.3549999977695,"Accuracy":0,"Outcome":"-10","Keys":[2204.420000001788],"TotalKeys":1,"Block":1,"Trial":88,"Robot":4,"Valence":"Lose","Action":"No-Go","Sham":0,"Color":"yellow","trial_type":"pit-trial","trial_index":107,"time_elapsed":802177,"internal_node_id":"0.0-96.0","task_version":"test-retest-t4"},{"Rune":"rune_08_pertho","Hex":"#ffcc3399","Correct":-1,"Choice":-1,"RT":-1,"Accuracy":1,"Outcome":"-1","Keys":[],"TotalKeys":0,"Block":1,"Trial":89,"Robot":4,"Valence":"Lose","Action":"No-Go","Sham":0,"Color":"yellow","trial_type":"pit-trial","trial_index":108,"time_elapsed":806255,"internal_node_id":"0.0-97.0","task_version":"test-retest-t4"},{"Rune":"rune_08_mannaz","Hex":"#3366ff99","Correct":32,"Choice":32,"RT":597.9250000017928,"Accuracy":1,"Outcome":"+10","Keys":[2098.4850000023143],"TotalKeys":1,"Block":1,"Trial":90,"Robot":1,"Valence":"Win","Action":"Go","Sham":0,"Color":"blue","trial_type":"pit-trial","trial_index":109,"time_elapsed":809427,"internal_node_id":"0.0-98.0","task_version":"test-retest-t4"},{"Rune":"rune_08_sigel","Hex":"#ffcc3399","Correct":32,"Choice":32,"RT":695.404999998631,"Accuracy":1,"Outcome":"-1","Keys":[2195.569999996107],"TotalKeys":1,"Block":1,"Trial":91,"Robot":3,"Valence":"Lose","Action":"Go","Sham":0,"Color":"yellow","trial_type":"pit-trial","trial_index":110,"time_elapsed":812697,"internal_node_id":"0.0-99.0","task_version":"test-retest-t4"},{"Rune":"rune_08_fehu","Hex":"#3366ff99","Correct":-1,"Choice":32,"RT":496.76500000339,"Accuracy":0,"Outcome":"+1","Keys":[1997.3549999995157],"TotalKeys":1,"Block":1,"Trial":92,"Robot":2,"Valence":"Win","Action":"No-Go","Sham":0,"Color":"blue","trial_type":"pit-trial","trial_index":111,"time_elapsed":815770,"internal_node_id":"0.0-100.0","task_version":"test-retest-t4"},{"Rune":"rune_08_mannaz","Hex":"#3366ff99","Correct":32,"Choice":32,"RT":463.2050000000745,"Accuracy":1,"Outcome":"+10","Keys":[1963.6549999995623],"TotalKeys":1,"Block":1,"Trial":93,"Robot":1,"Valence":"Win","Action":"Go","Sham":0,"Color":"blue","trial_type":"pit-trial","trial_index":112,"time_elapsed":818809,"internal_node_id":"0.0-101.0","task_version":"test-retest-t4"},{"Rune":"rune_08_fehu","Hex":"#3366ff99","Correct":-1,"Choice":32,"RT":543.3499999998603,"Accuracy":0,"Outcome":"+1","Keys":[2044.0999999991618],"TotalKeys":1,"Block":1,"Trial":94,"Robot":2,"Valence":"Win","Action":"No-Go","Sham":0,"Color":"blue","trial_type":"pit-trial","trial_index":113,"time_elapsed":821922,"internal_node_id":"0.0-102.0","task_version":"test-retest-t4"},{"Rune":"rune_08_sigel","Hex":"#ffcc3399","Correct":32,"Choice":32,"RT":717.7049999955343,"Accuracy":1,"Outcome":"-1","Keys":[2220.769999999786],"TotalKeys":1,"Block":1,"Trial":95,"Robot":3,"Valence":"Lose","Action":"Go","Sham":0,"Color":"yellow","trial_type":"pit-trial","trial_index":114,"time_elapsed":825218,"internal_node_id":"0.0-103.0","task_version":"test-retest-t4"},{"Rune":"rune_08_pertho","Hex":"#ffcc3399","Correct":-1,"Choice":32,"RT":701.9050000016578,"Accuracy":0,"Outcome":"-10","Keys":[2202.9200000033015],"TotalKeys":1,"Block":1,"Trial":96,"Robot":4,"Valence":"Lose","Action":"No-Go","Sham":0,"Color":"yellow","trial_type":"pit-trial","trial_index":115,"time_elapsed":828497,"internal_node_id":"0.0-104.0","task_version":"test-retest-t4"},{"Rune":"rune_08_fehu","Hex":"#3366ff99","Correct":-1,"Choice":32,"RT":550.1450000010664,"Accuracy":0,"Outcome":"+1","Keys":[2050.340000001481],"TotalKeys":1,"Block":1,"Trial":97,"Robot":2,"Valence":"Win","Action":"No-Go","Sham":0,"Color":"blue","trial_type":"pit-trial","trial_index":116,"time_elapsed":831617,"internal_node_id":"0.0-105.0","task_version":"test-retest-t4"},{"Rune":"rune_08_pertho","Hex":"#ffcc3399","Correct":-1,"Choice":-1,"RT":-1,"Accuracy":1,"Outcome":"-1","Keys":[],"TotalKeys":0,"Block":1,"Trial":98,"Robot":4,"Valence":"Lose","Action":"No-Go","Sham":0,"Color":"yellow","trial_type":"pit-trial","trial_index":117,"time_elapsed":835689,"internal_node_id":"0.0-106.0","task_version":"test-retest-t4"},{"Rune":"rune_08_sigel","Hex":"#ffcc3399","Correct":32,"Choice":32,"RT":687.5050000016345,"Accuracy":1,"Outcome":"-10","Keys":[2189.5700000021607],"TotalKeys":1,"Block":1,"Trial":99,"Robot":3,"Valence":"Lose","Action":"Go","Sham":1,"Color":"yellow","trial_type":"pit-trial","trial_index":118,"time_elapsed":838954,"internal_node_id":"0.0-107.0","task_version":"test-retest-t4"},{"Rune":"rune_08_mannaz","Hex":"#3366ff99","Correct":32,"Choice":32,"RT":609.7599999994272,"Accuracy":1,"Outcome":"+10","Keys":[2111.0399999961955],"TotalKeys":1,"Block":1,"Trial":100,"Robot":1,"Valence":"Win","Action":"Go","Sham":0,"Color":"blue","trial_type":"pit-trial","trial_index":119,"time_elapsed":842145,"internal_node_id":"0.0-108.0","task_version":"test-retest-t4"},{"Rune":"rune_08_sigel","Hex":"#ffcc3399","Correct":32,"Choice":32,"RT":993.2899999986403,"Accuracy":1,"Outcome":"-1","Keys":[2494.604999999865],"TotalKeys":1,"Block":1,"Trial":101,"Robot":3,"Valence":"Lose","Action":"Go","Sham":0,"Color":"yellow","trial_type":"pit-trial","trial_index":120,"time_elapsed":845705,"internal_node_id":"0.0-109.0","task_version":"test-retest-t4"},{"Rune":"rune_08_fehu","Hex":"#3366ff99","Correct":-1,"Choice":32,"RT":836.6099999984726,"Accuracy":0,"Outcome":"+1","Keys":[2338.425000001793],"TotalKeys":1,"Block":1,"Trial":102,"Robot":2,"Valence":"Win","Action":"No-Go","Sham":0,"Color":"blue","trial_type":"pit-trial","trial_index":121,"time_elapsed":849122,"internal_node_id":"0.0-110.0","task_version":"test-retest-t4"},{"Rune":"rune_08_mannaz","Hex":"#3366ff99","Correct":32,"Choice":32,"RT":605.9800000003306,"Accuracy":1,"Outcome":"+10","Keys":[2106.705000005546],"TotalKeys":1,"Block":1,"Trial":103,"Robot":1,"Valence":"Win","Action":"Go","Sham":0,"Color":"blue","trial_type":"pit-trial","trial_index":122,"time_elapsed":852289,"internal_node_id":"0.0-111.0","task_version":"test-retest-t4"},{"Rune":"rune_08_pertho","Hex":"#ffcc3399","Correct":-1,"Choice":32,"RT":941.4250000045868,"Accuracy":0,"Outcome":"-10","Keys":[2443.38500000583],"TotalKeys":1,"Block":1,"Trial":104,"Robot":4,"Valence":"Lose","Action":"No-Go","Sham":0,"Color":"yellow","trial_type":"pit-trial","trial_index":123,"time_elapsed":855801,"internal_node_id":"0.0-112.0","task_version":"test-retest-t4"},{"Rune":"rune_08_mannaz","Hex":"#3366ff99","Correct":32,"Choice":32,"RT":503.3449999974109,"Accuracy":1,"Outcome":"+10","Keys":[2004.4100000014296],"TotalKeys":1,"Block":1,"Trial":105,"Robot":1,"Valence":"Win","Action":"Go","Sham":0,"Color":"blue","trial_type":"pit-trial","trial_index":124,"time_elapsed":858873,"internal_node_id":"0.0-113.0","task_version":"test-retest-t4"},{"Rune":"rune_08_sigel","Hex":"#ffcc3399","Correct":32,"Choice":32,"RT":1461.8550000013784,"Accuracy":1,"Outcome":"-1","Keys":[2963.645000003511],"TotalKeys":1,"Block":1,"Trial":106,"Robot":3,"Valence":"Lose","Action":"Go","Sham":0,"Color":"yellow","trial_type":"pit-trial","trial_index":125,"time_elapsed":862930,"internal_node_id":"0.0-114.0","task_version":"test-retest-t4"},{"Rune":"rune_08_fehu","Hex":"#3366ff99","Correct":-1,"Choice":-1,"RT":-1,"Accuracy":1,"Outcome":"+10","Keys":[],"TotalKeys":0,"Block":1,"Trial":107,"Robot":2,"Valence":"Win","Action":"No-Go","Sham":0,"Color":"blue","trial_type":"pit-trial","trial_index":126,"time_elapsed":867006,"internal_node_id":"0.0-115.0","task_version":"test-retest-t4"},{"Rune":"rune_08_pertho","Hex":"#ffcc3399","Correct":-1,"Choice":-1,"RT":-1,"Accuracy":1,"Outcome":"-1","Keys":[],"TotalKeys":0,"Block":1,"Trial":108,"Robot":4,"Valence":"Lose","Action":"No-Go","Sham":0,"Color":"yellow","trial_type":"pit-trial","trial_index":127,"time_elapsed":871098,"internal_node_id":"0.0-116.0","task_version":"test-retest-t4"},{"Rune":"rune_08_pertho","Hex":"#ffcc3399","Correct":-1,"Choice":-1,"RT":-1,"Accuracy":1,"Outcome":"-1","Keys":[],"TotalKeys":0,"Block":1,"Trial":109,"Robot":4,"Valence":"Lose","Action":"No-Go","Sham":0,"Color":"yellow","trial_type":"pit-trial","trial_index":128,"time_elapsed":875183,"internal_node_id":"0.0-117.0","task_version":"test-retest-t4"},{"Rune":"rune_08_sigel","Hex":"#ffcc3399","Correct":32,"Choice":-1,"RT":-1,"Accuracy":0,"Outcome":"-10","Keys":[],"TotalKeys":0,"Block":1,"Trial":110,"Robot":3,"Valence":"Lose","Action":"Go","Sham":0,"Color":"yellow","trial_type":"pit-trial","trial_index":129,"time_elapsed":879251,"internal_node_id":"0.0-118.0","task_version":"test-retest-t4"},{"Rune":"rune_08_mannaz","Hex":"#3366ff99","Correct":32,"Choice":32,"RT":654.7649999994319,"Accuracy":1,"Outcome":"+10","Keys":[2155.830000003334],"TotalKeys":1,"Block":1,"Trial":111,"Robot":1,"Valence":"Win","Action":"Go","Sham":0,"Color":"blue","trial_type":"pit-trial","trial_index":130,"time_elapsed":882482,"internal_node_id":"0.0-119.0","task_version":"test-retest-t4"},{"Rune":"rune_08_fehu","Hex":"#3366ff99","Correct":-1,"Choice":-1,"RT":-1,"Accuracy":1,"Outcome":"+1","Keys":[],"TotalKeys":0,"Block":1,"Trial":112,"Robot":2,"Valence":"Win","Action":"No-Go","Sham":1,"Color":"blue","trial_type":"pit-trial","trial_index":131,"time_elapsed":886564,"internal_node_id":"0.0-120.0","task_version":"test-retest-t4"},{"Rune":"rune_08_fehu","Hex":"#3366ff99","Correct":-1,"Choice":32,"RT":659.4699999988079,"Accuracy":0,"Outcome":"+1","Keys":[2161.964999999269],"TotalKeys":1,"Block":1,"Trial":113,"Robot":2,"Valence":"Win","Action":"No-Go","Sham":0,"Color":"blue","trial_type":"pit-trial","trial_index":132,"time_elapsed":889825,"internal_node_id":"0.0-121.0","task_version":"test-retest-t4"},{"Rune":"rune_08_mannaz","Hex":"#3366ff99","Correct":32,"Choice":32,"RT":562.8250000008848,"Accuracy":1,"Outcome":"+10","Keys":[2063.0050000036135],"TotalKeys":1,"Block":1,"Trial":114,"Robot":1,"Valence":"Win","Action":"Go","Sham":0,"Color":"blue","trial_type":"pit-trial","trial_index":133,"time_elapsed":892954,"internal_node_id":"0.0-122.0","task_version":"test-retest-t4"},{"Rune":"rune_08_sigel","Hex":"#ffcc3399","Correct":32,"Choice":32,"RT":1009.140000001993,"Accuracy":1,"Outcome":"-10","Keys":[2509.3600000037113],"TotalKeys":1,"Block":1,"Trial":115,"Robot":3,"Valence":"Lose","Action":"Go","Sham":1,"Color":"yellow","trial_type":"pit-trial","trial_index":134,"time_elapsed":896522,"internal_node_id":"0.0-123.0","task_version":"test-retest-t4"},{"Rune":"rune_08_pertho","Hex":"#ffcc3399","Correct":-1,"Choice":-1,"RT":-1,"Accuracy":1,"Outcome":"-10","Keys":[],"TotalKeys":0,"Block":1,"Trial":116,"Robot":4,"Valence":"Lose","Action":"No-Go","Sham":1,"Color":"yellow","trial_type":"pit-trial","trial_index":135,"time_elapsed":900602,"internal_node_id":"0.0-124.0","task_version":"test-retest-t4"},{"Rune":"rune_08_mannaz","Hex":"#3366ff99","Correct":32,"Choice":32,"RT":597.3650000015041,"Accuracy":1,"Outcome":"+1","Keys":[2098.1700000046985],"TotalKeys":1,"Block":1,"Trial":117,"Robot":1,"Valence":"Win","Action":"Go","Sham":1,"Color":"blue","trial_type":"pit-trial","trial_index":136,"time_elapsed":903770,"internal_node_id":"0.0-125.0","task_version":"test-retest-t4"},{"Rune":"rune_08_pertho","Hex":"#ffcc3399","Correct":-1,"Choice":-1,"RT":-1,"Accuracy":1,"Outcome":"-1","Keys":[],"TotalKeys":0,"Block":1,"Trial":118,"Robot":4,"Valence":"Lose","Action":"No-Go","Sham":0,"Color":"yellow","trial_type":"pit-trial","trial_index":137,"time_elapsed":907833,"internal_node_id":"0.0-126.0","task_version":"test-retest-t4"},{"Rune":"rune_08_fehu","Hex":"#3366ff99","Correct":-1,"Choice":-1,"RT":-1,"Accuracy":1,"Outcome":"+10","Keys":[],"TotalKeys":0,"Block":1,"Trial":119,"Robot":2,"Valence":"Win","Action":"No-Go","Sham":0,"Color":"blue","trial_type":"pit-trial","trial_index":138,"time_elapsed":911928,"internal_node_id":"0.0-127.0","task_version":"test-retest-t4"},{"Rune":"rune_08_sigel","Hex":"#ffcc3399","Correct":32,"Choice":-1,"RT":-1,"Accuracy":0,"Outcome":"-10","Keys":[],"TotalKeys":0,"Block":1,"Trial":120,"Robot":3,"Valence":"Lose","Action":"Go","Sham":0,"Color":"yellow","trial_type":"pit-trial","trial_index":139,"time_elapsed":916000,"internal_node_id":"0.0-128.0","task_version":"test-retest-t4"},{"view_history":"[{\"page_index\":0,\"viewing_time\":59283.79500000307},{\"page_index\":1,\"viewing_time\":767.7649999968708},{\"page_index\":2,\"viewing_time\":1536.3199999991339}]","rt":61589.22000000172,"trial_type":"pit-instructions","trial_index":140,"time_elapsed":977686,"internal_node_id":"0.0-129.0","task_version":"test-retest-t4"},{"Rune":"rune_07_thurisaz","Hex":"#ffcc3399","Correct":32,"Choice":32,"RT":812.8799999976764,"Accuracy":1,"Outcome":"-10","Keys":[2312.9750000007916],"TotalKeys":1,"Block":2,"Trial":121,"Robot":3,"Valence":"Lose","Action":"Go","Sham":1,"Color":"yellow","trial_type":"pit-trial","trial_index":141,"time_elapsed":981065,"internal_node_id":"0.0-130.0","task_version":"test-retest-t4"},{"Rune":"rune_07_gar","Hex":"#ffcc3399","Correct":-1,"Choice":32,"RT":460.9049999997951,"Accuracy":0,"Outcome":"-10","Keys":[1961.6399999940768],"TotalKeys":1,"Block":2,"Trial":122,"Robot":4,"Valence":"Lose","Action":"No-Go","Sham":0,"Color":"yellow","trial_type":"pit-trial","trial_index":142,"time_elapsed":984106,"internal_node_id":"0.0-131.0","task_version":"test-retest-t4"},{"Rune":"rune_07_kauna","Hex":"#3366ff99","Correct":-1,"Choice":32,"RT":842.6699999982957,"Accuracy":0,"Outcome":"+1","Keys":[2343.699999997625],"TotalKeys":1,"Block":2,"Trial":123,"Robot":2,"Valence":"Win","Action":"No-Go","Sham":0,"Color":"blue","trial_type":"pit-trial","trial_index":143,"time_elapsed":987521,"internal_node_id":"0.0-132.0","task_version":"test-retest-t4"},{"Rune":"rune_07_laukaz","Hex":"#3366ff99","Correct":32,"Choice":-1,"RT":-1,"Accuracy":0,"Outcome":"+10","Keys":[],"TotalKeys":0,"Block":2,"Trial":124,"Robot":1,"Valence":"Win","Action":"Go","Sham":1,"Color":"blue","trial_type":"pit-trial","trial_index":144,"time_elapsed":991596,"internal_node_id":"0.0-133.0","task_version":"test-retest-t4"},{"Rune":"rune_07_gar","Hex":"#ffcc3399","Correct":-1,"Choice":32,"RT":546.6100000047591,"Accuracy":0,"Outcome":"-10","Keys":[2046.860000002198],"TotalKeys":1,"Block":2,"Trial":125,"Robot":4,"Valence":"Lose","Action":"No-Go","Sham":0,"Color":"yellow","trial_type":"pit-trial","trial_index":145,"time_elapsed":994722,"internal_node_id":"0.0-134.0","task_version":"test-retest-t4"},{"Rune":"rune_07_thurisaz","Hex":"#ffcc3399","Correct":32,"Choice":32,"RT":757.6899999985471,"Accuracy":1,"Outcome":"-1","Keys":[2260.565000004135],"TotalKeys":1,"Block":2,"Trial":126,"Robot":3,"Valence":"Lose","Action":"Go","Sham":0,"Color":"yellow","trial_type":"pit-trial","trial_index":146,"time_elapsed":998057,"internal_node_id":"0.0-135.0","task_version":"test-retest-t4"},{"Rune":"rune_07_kauna","Hex":"#3366ff99","Correct":-1,"Choice":-1,"RT":-1,"Accuracy":1,"Outcome":"+10","Keys":[],"TotalKeys":0,"Block":2,"Trial":127,"Robot":2,"Valence":"Win","Action":"No-Go","Sham":0,"Color":"blue","trial_type":"pit-trial","trial_index":147,"time_elapsed":1002129,"internal_node_id":"0.0-136.0","task_version":"test-retest-t4"},{"Rune":"rune_07_laukaz","Hex":"#3366ff99","Correct":32,"Choice":32,"RT":1282.1499999989755,"Accuracy":1,"Outcome":"+10","Keys":[2783.1050000023097],"TotalKeys":1,"Block":2,"Trial":128,"Robot":1,"Valence":"Win","Action":"Go","Sham":0,"Color":"blue","trial_type":"pit-trial","trial_index":148,"time_elapsed":1006001,"internal_node_id":"0.0-137.0","task_version":"test-retest-t4"},{"Rune":"rune_07_thurisaz","Hex":"#ffcc3399","Correct":32,"Choice":32,"RT":952.7999999991152,"Accuracy":1,"Outcome":"-1","Keys":[2453.585000002873],"TotalKeys":1,"Block":2,"Trial":129,"Robot":3,"Valence":"Lose","Action":"Go","Sham":0,"Color":"yellow","trial_type":"pit-trial","trial_index":149,"time_elapsed":1009530,"internal_node_id":"0.0-138.0","task_version":"test-retest-t4"},{"Rune":"rune_07_kauna","Hex":"#3366ff99","Correct":-1,"Choice":-1,"RT":-1,"Accuracy":1,"Outcome":"+10","Keys":[],"TotalKeys":0,"Block":2,"Trial":130,"Robot":2,"Valence":"Win","Action":"No-Go","Sham":0,"Color":"blue","trial_type":"pit-trial","trial_index":150,"time_elapsed":1013606,"internal_node_id":"0.0-139.0","task_version":"test-retest-t4"},{"Rune":"rune_07_laukaz","Hex":"#3366ff99","Correct":32,"Choice":32,"RT":790.8549999992829,"Accuracy":1,"Outcome":"+10","Keys":[2291.7850000011967],"TotalKeys":1,"Block":2,"Trial":131,"Robot":1,"Valence":"Win","Action":"Go","Sham":0,"Color":"blue","trial_type":"pit-trial","trial_index":151,"time_elapsed":1016985,"internal_node_id":"0.0-140.0","task_version":"test-retest-t4"},{"Rune":"rune_07_gar","Hex":"#ffcc3399","Correct":-1,"Choice":-1,"RT":-1,"Accuracy":1,"Outcome":"-1","Keys":[],"TotalKeys":0,"Block":2,"Trial":132,"Robot":4,"Valence":"Lose","Action":"No-Go","Sham":0,"Color":"yellow","trial_type":"pit-trial","trial_index":152,"time_elapsed":1021059,"internal_node_id":"0.0-141.0","task_version":"test-retest-t4"},{"Rune":"rune_07_thurisaz","Hex":"#ffcc3399","Correct":32,"Choice":32,"RT":1025.1350000035018,"Accuracy":1,"Outcome":"-1","Keys":[2526.2500000026776],"TotalKeys":1,"Block":2,"Trial":133,"Robot":3,"Valence":"Lose","Action":"Go","Sham":0,"Color":"yellow","trial_type":"pit-trial","trial_index":153,"time_elapsed":1024681,"internal_node_id":"0.0-142.0","task_version":"test-retest-t4"},{"Rune":"rune_07_laukaz","Hex":"#3366ff99","Correct":32,"Choice":32,"RT":551.5449999948032,"Accuracy":1,"Outcome":"+10","Keys":[2052.8249999989057],"TotalKeys":1,"Block":2,"Trial":134,"Robot":1,"Valence":"Win","Action":"Go","Sham":0,"Color":"blue","trial_type":"pit-trial","trial_index":154,"time_elapsed":1027809,"internal_node_id":"0.0-143.0","task_version":"test-retest-t4"},{"Rune":"rune_07_gar","Hex":"#ffcc3399","Correct":-1,"Choice":-1,"RT":-1,"Accuracy":1,"Outcome":"-1","Keys":[],"TotalKeys":0,"Block":2,"Trial":135,"Robot":4,"Valence":"Lose","Action":"No-Go","Sham":0,"Color":"yellow","trial_type":"pit-trial","trial_index":155,"time_elapsed":1031899,"internal_node_id":"0.0-144.0","task_version":"test-retest-t4"},{"Rune":"rune_07_kauna","Hex":"#3366ff99","Correct":-1,"Choice":-1,"RT":-1,"Accuracy":1,"Outcome":"+1","Keys":[],"TotalKeys":0,"Block":2,"Trial":136,"Robot":2,"Valence":"Win","Action":"No-Go","Sham":1,"Color":"blue","trial_type":"pit-trial","trial_index":156,"time_elapsed":1035970,"internal_node_id":"0.0-145.0","task_version":"test-retest-t4"},{"Rune":"rune_07_thurisaz","Hex":"#ffcc3399","Correct":32,"Choice":32,"RT":603.035000000149,"Accuracy":1,"Outcome":"-1","Keys":[2103.8649999974295],"TotalKeys":1,"Block":2,"Trial":137,"Robot":3,"Valence":"Lose","Action":"Go","Sham":0,"Color":"yellow","trial_type":"pit-trial","trial_index":157,"time_elapsed":1039170,"internal_node_id":"0.0-146.0","task_version":"test-retest-t4"},{"Rune":"rune_07_kauna","Hex":"#3366ff99","Correct":-1,"Choice":-1,"RT":-1,"Accuracy":1,"Outcome":"+10","Keys":[],"TotalKeys":0,"Block":2,"Trial":138,"Robot":2,"Valence":"Win","Action":"No-Go","Sham":0,"Color":"blue","trial_type":"pit-trial","trial_index":158,"time_elapsed":1043253,"internal_node_id":"0.0-147.0","task_version":"test-retest-t4"},{"Rune":"rune_07_gar","Hex":"#ffcc3399","Correct":-1,"Choice":-1,"RT":-1,"Accuracy":1,"Outcome":"-10","Keys":[],"TotalKeys":0,"Block":2,"Trial":139,"Robot":4,"Valence":"Lose","Action":"No-Go","Sham":1,"Color":"yellow","trial_type":"pit-trial","trial_index":159,"time_elapsed":1047315,"internal_node_id":"0.0-148.0","task_version":"test-retest-t4"},{"Rune":"rune_07_laukaz","Hex":"#3366ff99","Correct":32,"Choice":-1,"RT":-1,"Accuracy":0,"Outcome":"+1","Keys":[3197.8600000001024],"TotalKeys":1,"Block":2,"Trial":140,"Robot":1,"Valence":"Win","Action":"Go","Sham":0,"Color":"blue","trial_type":"pit-trial","trial_index":160,"time_elapsed":1051388,"internal_node_id":"0.0-149.0","task_version":"test-retest-t4"},{"Rune":"rune_07_laukaz","Hex":"#3366ff99","Correct":32,"Choice":32,"RT":623.1249999983702,"Accuracy":1,"Outcome":"+10","Keys":[2124.3400000021793],"TotalKeys":1,"Block":2,"Trial":141,"Robot":1,"Valence":"Win","Action":"Go","Sham":0,"Color":"blue","trial_type":"pit-trial","trial_index":161,"time_elapsed":1054609,"internal_node_id":"0.0-150.0","task_version":"test-retest-t4"},{"Rune":"rune_07_kauna","Hex":"#3366ff99","Correct":-1,"Choice":-1,"RT":-1,"Accuracy":1,"Outcome":"+10","Keys":[],"TotalKeys":0,"Block":2,"Trial":142,"Robot":2,"Valence":"Win","Action":"No-Go","Sham":0,"Color":"blue","trial_type":"pit-trial","trial_index":162,"time_elapsed":1058681,"internal_node_id":"0.0-151.0","task_version":"test-retest-t4"},{"Rune":"rune_07_gar","Hex":"#ffcc3399","Correct":-1,"Choice":-1,"RT":-1,"Accuracy":1,"Outcome":"-1","Keys":[],"TotalKeys":0,"Block":2,"Trial":143,"Robot":4,"Valence":"Lose","Action":"No-Go","Sham":0,"Color":"yellow","trial_type":"pit-trial","trial_index":163,"time_elapsed":1062769,"internal_node_id":"0.0-152.0","task_version":"test-retest-t4"},{"Rune":"rune_07_thurisaz","Hex":"#ffcc3399","Correct":32,"Choice":32,"RT":567.7149999972899,"Accuracy":1,"Outcome":"-10","Keys":[2068.605000000447],"TotalKeys":1,"Block":2,"Trial":144,"Robot":3,"Valence":"Lose","Action":"Go","Sham":1,"Color":"yellow","trial_type":"pit-trial","trial_index":164,"time_elapsed":1065906,"internal_node_id":"0.0-153.0","task_version":"test-retest-t4"},{"Rune":"rune_07_gar","Hex":"#ffcc3399","Correct":-1,"Choice":-1,"RT":-1,"Accuracy":1,"Outcome":"-10","Keys":[],"TotalKeys":0,"Block":2,"Trial":145,"Robot":4,"Valence":"Lose","Action":"No-Go","Sham":1,"Color":"yellow","trial_type":"pit-trial","trial_index":165,"time_elapsed":1069986,"internal_node_id":"0.0-154.0","task_version":"test-retest-t4"},{"Rune":"rune_07_thurisaz","Hex":"#ffcc3399","Correct":32,"Choice":32,"RT":571.2400000046473,"Accuracy":1,"Outcome":"-1","Keys":[2073.6000000033528],"TotalKeys":1,"Block":2,"Trial":146,"Robot":3,"Valence":"Lose","Action":"Go","Sham":0,"Color":"yellow","trial_type":"pit-trial","trial_index":166,"time_elapsed":1073153,"internal_node_id":"0.0-155.0","task_version":"test-retest-t4"},{"Rune":"rune_07_kauna","Hex":"#3366ff99","Correct":-1,"Choice":-1,"RT":-1,"Accuracy":1,"Outcome":"+10","Keys":[],"TotalKeys":0,"Block":2,"Trial":147,"Robot":2,"Valence":"Win","Action":"No-Go","Sham":0,"Color":"blue","trial_type":"pit-trial","trial_index":167,"time_elapsed":1077220,"internal_node_id":"0.0-156.0","task_version":"test-retest-t4"},{"Rune":"rune_07_laukaz","Hex":"#3366ff99","Correct":32,"Choice":32,"RT":1101.6050000034738,"Accuracy":1,"Outcome":"+1","Keys":[2602.0200000056066],"TotalKeys":1,"Block":2,"Trial":148,"Robot":1,"Valence":"Win","Action":"Go","Sham":1,"Color":"blue","trial_type":"pit-trial","trial_index":168,"time_elapsed":1080897,"internal_node_id":"0.0-157.0","task_version":"test-retest-t4"},{"Rune":"rune_07_gar","Hex":"#ffcc3399","Correct":-1,"Choice":-1,"RT":-1,"Accuracy":1,"Outcome":"-1","Keys":[],"TotalKeys":0,"Block":2,"Trial":149,"Robot":4,"Valence":"Lose","Action":"No-Go","Sham":0,"Color":"yellow","trial_type":"pit-trial","trial_index":169,"time_elapsed":1084973,"internal_node_id":"0.0-158.0","task_version":"test-retest-t4"},{"Rune":"rune_07_thurisaz","Hex":"#ffcc3399","Correct":32,"Choice":32,"RT":538.1199999975506,"Accuracy":1,"Outcome":"-1","Keys":[2040.0349999982864],"TotalKeys":1,"Block":2,"Trial":150,"Robot":3,"Valence":"Lose","Action":"Go","Sham":0,"Color":"yellow","trial_type":"pit-trial","trial_index":170,"time_elapsed":1088065,"internal_node_id":"0.0-159.0","task_version":"test-retest-t4"},{"Rune":"rune_07_kauna","Hex":"#3366ff99","Correct":-1,"Choice":-1,"RT":-1,"Accuracy":1,"Outcome":"+10","Keys":[],"TotalKeys":0,"Block":2,"Trial":151,"Robot":2,"Valence":"Win","Action":"No-Go","Sham":0,"Color":"blue","trial_type":"pit-trial","trial_index":171,"time_elapsed":1092131,"internal_node_id":"0.0-160.0","task_version":"test-retest-t4"},{"Rune":"rune_07_laukaz","Hex":"#3366ff99","Correct":32,"Choice":32,"RT":950.8999999961816,"Accuracy":1,"Outcome":"+10","Keys":[2451.435000002617],"TotalKeys":1,"Block":2,"Trial":152,"Robot":1,"Valence":"Win","Action":"Go","Sham":0,"Color":"blue","trial_type":"pit-trial","trial_index":172,"time_elapsed":1095658,"internal_node_id":"0.0-161.0","task_version":"test-retest-t4"},{"Rune":"rune_07_thurisaz","Hex":"#ffcc3399","Correct":32,"Choice":32,"RT":432.9050000014249,"Accuracy":1,"Outcome":"-1","Keys":[1934.5600000016857],"TotalKeys":1,"Block":2,"Trial":153,"Robot":3,"Valence":"Lose","Action":"Go","Sham":0,"Color":"yellow","trial_type":"pit-trial","trial_index":173,"time_elapsed":1098657,"internal_node_id":"0.0-162.0","task_version":"test-retest-t4"},{"Rune":"rune_07_laukaz","Hex":"#3366ff99","Correct":32,"Choice":32,"RT":556.5900000000838,"Accuracy":1,"Outcome":"+10","Keys":[2057.0949999964796],"TotalKeys":1,"Block":2,"Trial":154,"Robot":1,"Valence":"Win","Action":"Go","Sham":0,"Color":"blue","trial_type":"pit-trial","trial_index":174,"time_elapsed":1101801,"internal_node_id":"0.0-163.0","task_version":"test-retest-t4"},{"Rune":"rune_07_gar","Hex":"#ffcc3399","Correct":-1,"Choice":-1,"RT":-1,"Accuracy":1,"Outcome":"-1","Keys":[],"TotalKeys":0,"Block":2,"Trial":155,"Robot":4,"Valence":"Lose","Action":"No-Go","Sham":0,"Color":"yellow","trial_type":"pit-trial","trial_index":175,"time_elapsed":1105871,"internal_node_id":"0.0-164.0","task_version":"test-retest-t4"},{"Rune":"rune_07_kauna","Hex":"#3366ff99","Correct":-1,"Choice":-1,"RT":-1,"Accuracy":1,"Outcome":"+1","Keys":[],"TotalKeys":0,"Block":2,"Trial":156,"Robot":2,"Valence":"Win","Action":"No-Go","Sham":1,"Color":"blue","trial_type":"pit-trial","trial_index":176,"time_elapsed":1109947,"internal_node_id":"0.0-165.0","task_version":"test-retest-t4"},{"Rune":"rune_07_kauna","Hex":"#3366ff99","Correct":-1,"Choice":32,"RT":380.51000000257045,"Accuracy":0,"Outcome":"+1","Keys":[1881.5549999999348],"TotalKeys":1,"Block":2,"Trial":157,"Robot":2,"Valence":"Win","Action":"No-Go","Sham":0,"Color":"blue","trial_type":"pit-trial","trial_index":177,"time_elapsed":1112905,"internal_node_id":"0.0-166.0","task_version":"test-retest-t4"},{"Rune":"rune_07_laukaz","Hex":"#3366ff99","Correct":32,"Choice":32,"RT":601.3499999972992,"Accuracy":1,"Outcome":"+10","Keys":[2102.1299999991897],"TotalKeys":1,"Block":2,"Trial":158,"Robot":1,"Valence":"Win","Action":"Go","Sham":0,"Color":"blue","trial_type":"pit-trial","trial_index":178,"time_elapsed":1116073,"internal_node_id":"0.0-167.0","task_version":"test-retest-t4"},{"Rune":"rune_07_thurisaz","Hex":"#ffcc3399","Correct":32,"Choice":32,"RT":676.929999994114,"Accuracy":1,"Outcome":"-1","Keys":[2183.134999999311],"TotalKeys":1,"Block":2,"Trial":159,"Robot":3,"Valence":"Lose","Action":"Go","Sham":0,"Color":"yellow","trial_type":"pit-trial","trial_index":179,"time_elapsed":1119329,"internal_node_id":"0.0-168.0","task_version":"test-retest-t4"},{"Rune":"rune_07_gar","Hex":"#ffcc3399","Correct":-1,"Choice":-1,"RT":-1,"Accuracy":1,"Outcome":"-1","Keys":[],"TotalKeys":0,"Block":2,"Trial":160,"Robot":4,"Valence":"Lose","Action":"No-Go","Sham":0,"Color":"yellow","trial_type":"pit-trial","trial_index":180,"time_elapsed":1123405,"internal_node_id":"0.0-169.0","task_version":"test-retest-t4"},{"Rune":"rune_07_gar","Hex":"#ffcc3399","Correct":-1,"Choice":-1,"RT":-1,"Accuracy":1,"Outcome":"-1","Keys":[],"TotalKeys":0,"Block":2,"Trial":161,"Robot":4,"Valence":"Lose","Action":"No-Go","Sham":0,"Color":"yellow","trial_type":"pit-trial","trial_index":181,"time_elapsed":1127472,"internal_node_id":"0.0-170.0","task_version":"test-retest-t4"},{"Rune":"rune_07_laukaz","Hex":"#3366ff99","Correct":32,"Choice":32,"RT":555.9950000024401,"Accuracy":1,"Outcome":"+10","Keys":[2056.100000001723],"TotalKeys":1,"Block":2,"Trial":162,"Robot":1,"Valence":"Win","Action":"Go","Sham":0,"Color":"blue","trial_type":"pit-trial","trial_index":182,"time_elapsed":1130602,"internal_node_id":"0.0-171.0","task_version":"test-retest-t4"},{"Rune":"rune_07_thurisaz","Hex":"#ffcc3399","Correct":32,"Choice":32,"RT":705.0750000053085,"Accuracy":1,"Outcome":"-10","Keys":[2205.710000002058],"TotalKeys":1,"Block":2,"Trial":163,"Robot":3,"Valence":"Lose","Action":"Go","Sham":1,"Color":"yellow","trial_type":"pit-trial","trial_index":183,"time_elapsed":1133889,"internal_node_id":"0.0-172.0","task_version":"test-retest-t4"},{"Rune":"rune_07_kauna","Hex":"#3366ff99","Correct":-1,"Choice":32,"RT":614.7649999985006,"Accuracy":0,"Outcome":"+10","Keys":[2115.2900000014342],"TotalKeys":1,"Block":2,"Trial":164,"Robot":2,"Valence":"Win","Action":"No-Go","Sham":1,"Color":"blue","trial_type":"pit-trial","trial_index":184,"time_elapsed":1137081,"internal_node_id":"0.0-173.0","task_version":"test-retest-t4"},{"Rune":"rune_07_kauna","Hex":"#3366ff99","Correct":-1,"Choice":32,"RT":806.7000000011176,"Accuracy":0,"Outcome":"+1","Keys":[2308.4600000004284],"TotalKeys":1,"Block":2,"Trial":165,"Robot":2,"Valence":"Win","Action":"No-Go","Sham":0,"Color":"blue","trial_type":"pit-trial","trial_index":185,"time_elapsed":1140457,"internal_node_id":"0.0-174.0","task_version":"test-retest-t4"},{"Rune":"rune_07_gar","Hex":"#ffcc3399","Correct":-1,"Choice":-1,"RT":-1,"Accuracy":1,"Outcome":"-1","Keys":[],"TotalKeys":0,"Block":2,"Trial":166,"Robot":4,"Valence":"Lose","Action":"No-Go","Sham":0,"Color":"yellow","trial_type":"pit-trial","trial_index":186,"time_elapsed":1144534,"internal_node_id":"0.0-175.0","task_version":"test-retest-t4"},{"Rune":"rune_07_laukaz","Hex":"#3366ff99","Correct":32,"Choice":32,"RT":607.1599999996834,"Accuracy":1,"Outcome":"+10","Keys":[2107.85999999661],"TotalKeys":1,"Block":2,"Trial":167,"Robot":1,"Valence":"Win","Action":"Go","Sham":0,"Color":"blue","trial_type":"pit-trial","trial_index":187,"time_elapsed":1147723,"internal_node_id":"0.0-176.0","task_version":"test-retest-t4"},{"Rune":"rune_07_thurisaz","Hex":"#ffcc3399","Correct":32,"Choice":32,"RT":562.8400000059046,"Accuracy":1,"Outcome":"-1","Keys":[2067.9549999986775],"TotalKeys":1,"Block":2,"Trial":168,"Robot":3,"Valence":"Lose","Action":"Go","Sham":0,"Color":"yellow","trial_type":"pit-trial","trial_index":188,"time_elapsed":1150866,"internal_node_id":"0.0-177.0","task_version":"test-retest-t4"},{"Rune":"rune_07_laukaz","Hex":"#3366ff99","Correct":32,"Choice":32,"RT":612.3049999950454,"Accuracy":1,"Outcome":"+1","Keys":[2112.9599999985658],"TotalKeys":1,"Block":2,"Trial":169,"Robot":1,"Valence":"Win","Action":"Go","Sham":1,"Color":"blue","trial_type":"pit-trial","trial_index":189,"time_elapsed":1154056,"internal_node_id":"0.0-178.0","task_version":"test-retest-t4"},{"Rune":"rune_07_gar","Hex":"#ffcc3399","Correct":-1,"Choice":-1,"RT":-1,"Accuracy":1,"Outcome":"-10","Keys":[],"TotalKeys":0,"Block":2,"Trial":170,"Robot":4,"Valence":"Lose","Action":"No-Go","Sham":1,"Color":"yellow","trial_type":"pit-trial","trial_index":190,"time_elapsed":1158148,"internal_node_id":"0.0-179.0","task_version":"test-retest-t4"},{"Rune":"rune_07_thurisaz","Hex":"#ffcc3399","Correct":32,"Choice":32,"RT":457.68999999552034,"Accuracy":1,"Outcome":"-1","Keys":[1958.7649999957066],"TotalKeys":1,"Block":2,"Trial":171,"Robot":3,"Valence":"Lose","Action":"Go","Sham":0,"Color":"yellow","trial_type":"pit-trial","trial_index":191,"time_elapsed":1161185,"internal_node_id":"0.0-180.0","task_version":"test-retest-t4"},{"Rune":"rune_07_kauna","Hex":"#3366ff99","Correct":-1,"Choice":32,"RT":818.3749999953434,"Accuracy":0,"Outcome":"+1","Keys":[2321.660000001313],"TotalKeys":1,"Block":2,"Trial":172,"Robot":2,"Valence":"Win","Action":"No-Go","Sham":0,"Color":"blue","trial_type":"pit-trial","trial_index":192,"time_elapsed":1164584,"internal_node_id":"0.0-181.0","task_version":"test-retest-t4"},{"Rune":"rune_07_gar","Hex":"#ffcc3399","Correct":-1,"Choice":-1,"RT":-1,"Accuracy":1,"Outcome":"-1","Keys":[],"TotalKeys":0,"Block":2,"Trial":173,"Robot":4,"Valence":"Lose","Action":"No-Go","Sham":0,"Color":"yellow","trial_type":"pit-trial","trial_index":193,"time_elapsed":1168659,"internal_node_id":"0.0-182.0","task_version":"test-retest-t4"},{"Rune":"rune_07_kauna","Hex":"#3366ff99","Correct":-1,"Choice":32,"RT":629.6799999980722,"Accuracy":0,"Outcome":"+1","Keys":[2130.5949999950826],"TotalKeys":1,"Block":2,"Trial":174,"Robot":2,"Valence":"Win","Action":"No-Go","Sham":0,"Color":"blue","trial_type":"pit-trial","trial_index":194,"time_elapsed":1171865,"internal_node_id":"0.0-183.0","task_version":"test-retest-t4"},{"Rune":"rune_07_thurisaz","Hex":"#ffcc3399","Correct":32,"Choice":32,"RT":628.1349999988452,"Accuracy":1,"Outcome":"-1","Keys":[2132.635000001639],"TotalKeys":1,"Block":2,"Trial":175,"Robot":3,"Valence":"Lose","Action":"Go","Sham":0,"Color":"yellow","trial_type":"pit-trial","trial_index":195,"time_elapsed":1175096,"internal_node_id":"0.0-184.0","task_version":"test-retest-t4"},{"Rune":"rune_07_laukaz","Hex":"#3366ff99","Correct":32,"Choice":32,"RT":742.115000000922,"Accuracy":1,"Outcome":"+10","Keys":[2244.274999997113],"TotalKeys":1,"Block":2,"Trial":176,"Robot":1,"Valence":"Win","Action":"Go","Sham":0,"Color":"blue","trial_type":"pit-trial","trial_index":196,"time_elapsed":1178425,"internal_node_id":"0.0-185.0","task_version":"test-retest-t4"},{"Rune":"rune_07_thurisaz","Hex":"#ffcc3399","Correct":32,"Choice":32,"RT":946.5500000005122,"Accuracy":1,"Outcome":"-1","Keys":[2447.6649999995716],"TotalKeys":1,"Block":2,"Trial":177,"Robot":3,"Valence":"Lose","Action":"Go","Sham":0,"Color":"yellow","trial_type":"pit-trial","trial_index":197,"time_elapsed":1181937,"internal_node_id":"0.0-186.0","task_version":"test-retest-t4"},{"Rune":"rune_07_kauna","Hex":"#3366ff99","Correct":-1,"Choice":32,"RT":962.1849999965634,"Accuracy":0,"Outcome":"+1","Keys":[2468.09500000393],"TotalKeys":1,"Block":2,"Trial":178,"Robot":2,"Valence":"Win","Action":"No-Go","Sham":0,"Color":"blue","trial_type":"pit-trial","trial_index":198,"time_elapsed":1185480,"internal_node_id":"0.0-187.0","task_version":"test-retest-t4"},{"Rune":"rune_07_laukaz","Hex":"#3366ff99","Correct":32,"Choice":-1,"RT":-1,"Accuracy":0,"Outcome":"+1","Keys":[],"TotalKeys":0,"Block":2,"Trial":179,"Robot":1,"Valence":"Win","Action":"Go","Sham":0,"Color":"blue","trial_type":"pit-trial","trial_index":199,"time_elapsed":1189542,"internal_node_id":"0.0-188.0","task_version":"test-retest-t4"},{"Rune":"rune_07_gar","Hex":"#ffcc3399","Correct":-1,"Choice":-1,"RT":-1,"Accuracy":1,"Outcome":"-1","Keys":[],"TotalKeys":0,"Block":2,"Trial":180,"Robot":4,"Valence":"Lose","Action":"No-Go","Sham":0,"Color":"yellow","trial_type":"pit-trial","trial_index":200,"time_elapsed":1193616,"internal_node_id":"0.0-189.0","task_version":"test-retest-t4"},{"view_history":"[{\"page_index\":0,\"viewing_time\":37974.52500000503},{\"page_index\":1,\"viewing_time\":19248.1149999951}]","rt":57224.020000001416,"trial_type":"pit-instructions","trial_index":201,"time_elapsed":1250934,"internal_node_id":"0.0-190.0","task_version":"test-retest-t4"},{"Rune":"rune_07_gar","Hex":"#ffcc3399","Correct":-1,"Choice":-1,"RT":-1,"Accuracy":1,"Outcome":"-1","Keys":[],"TotalKeys":0,"Block":2,"Trial":181,"Robot":4,"Valence":"Lose","Action":"No-Go","Sham":0,"Color":"yellow","trial_type":"pit-trial","trial_index":202,"time_elapsed":1254999,"internal_node_id":"0.0-191.0","task_version":"test-retest-t4"},{"Rune":"rune_07_kauna","Hex":"#3366ff99","Correct":-1,"Choice":-1,"RT":-1,"Accuracy":1,"Outcome":"+10","Keys":[],"TotalKeys":0,"Block":2,"Trial":182,"Robot":2,"Valence":"Win","Action":"No-Go","Sham":0,"Color":"blue","trial_type":"pit-trial","trial_index":203,"time_elapsed":1259076,"internal_node_id":"0.0-192.0","task_version":"test-retest-t4"},{"Rune":"rune_07_thurisaz","Hex":"#ffcc3399","Correct":32,"Choice":32,"RT":718.5499999979511,"Accuracy":1,"Outcome":"-10","Keys":[2219.4200000010896],"TotalKeys":1,"Block":2,"Trial":183,"Robot":3,"Valence":"Lose","Action":"Go","Sham":1,"Color":"yellow","trial_type":"pit-trial","trial_index":204,"time_elapsed":1262386,"internal_node_id":"0.0-193.0","task_version":"test-retest-t4"},{"Rune":"rune_07_laukaz","Hex":"#3366ff99","Correct":32,"Choice":32,"RT":562.9199999966659,"Accuracy":1,"Outcome":"+10","Keys":[2063.3899999957066],"TotalKeys":1,"Block":2,"Trial":184,"Robot":1,"Valence":"Win","Action":"Go","Sham":0,"Color":"blue","trial_type":"pit-trial","trial_index":205,"time_elapsed":1265521,"internal_node_id":"0.0-194.0","task_version":"test-retest-t4"},{"Rune":"rune_07_thurisaz","Hex":"#ffcc3399","Correct":32,"Choice":-1,"RT":-1,"Accuracy":0,"Outcome":"-10","Keys":[],"TotalKeys":0,"Block":2,"Trial":185,"Robot":3,"Valence":"Lose","Action":"Go","Sham":0,"Color":"yellow","trial_type":"pit-trial","trial_index":206,"time_elapsed":1269597,"internal_node_id":"0.0-195.0","task_version":"test-retest-t4"},{"Rune":"rune_07_gar","Hex":"#ffcc3399","Correct":-1,"Choice":-1,"RT":-1,"Accuracy":1,"Outcome":"-1","Keys":[],"TotalKeys":0,"Block":2,"Trial":186,"Robot":4,"Valence":"Lose","Action":"No-Go","Sham":0,"Color":"yellow","trial_type":"pit-trial","trial_index":207,"time_elapsed":1273661,"internal_node_id":"0.0-196.0","task_version":"test-retest-t4"},{"Rune":"rune_07_kauna","Hex":"#3366ff99","Correct":-1,"Choice":32,"RT":641.6150000004563,"Accuracy":0,"Outcome":"+1","Keys":[2142.165000004694],"TotalKeys":1,"Block":2,"Trial":187,"Robot":2,"Valence":"Win","Action":"No-Go","Sham":0,"Color":"blue","trial_type":"pit-trial","trial_index":208,"time_elapsed":1276890,"internal_node_id":"0.0-197.0","task_version":"test-retest-t4"},{"Rune":"rune_07_laukaz","Hex":"#3366ff99","Correct":32,"Choice":32,"RT":634.2549999973271,"Accuracy":1,"Outcome":"+10","Keys":[2134.8799999980256],"TotalKeys":1,"Block":2,"Trial":188,"Robot":1,"Valence":"Win","Action":"Go","Sham":0,"Color":"blue","trial_type":"pit-trial","trial_index":209,"time_elapsed":1280113,"internal_node_id":"0.0-198.0","task_version":"test-retest-t4"},{"Rune":"rune_07_laukaz","Hex":"#3366ff99","Correct":32,"Choice":32,"RT":553.4750000005588,"Accuracy":1,"Outcome":"+10","Keys":[2054.320000002859],"TotalKeys":1,"Block":2,"Trial":189,"Robot":1,"Valence":"Win","Action":"Go","Sham":0,"Color":"blue","trial_type":"pit-trial","trial_index":210,"time_elapsed":1283240,"internal_node_id":"0.0-199.0","task_version":"test-retest-t4"},{"Rune":"rune_07_kauna","Hex":"#3366ff99","Correct":-1,"Choice":-1,"RT":-1,"Accuracy":1,"Outcome":"+10","Keys":[],"TotalKeys":0,"Block":2,"Trial":190,"Robot":2,"Valence":"Win","Action":"No-Go","Sham":0,"Color":"blue","trial_type":"pit-trial","trial_index":211,"time_elapsed":1287310,"internal_node_id":"0.0-200.0","task_version":"test-retest-t4"},{"Rune":"rune_07_thurisaz","Hex":"#ffcc3399","Correct":32,"Choice":32,"RT":1067.8200000037905,"Accuracy":1,"Outcome":"-1","Keys":[2567.9749999979977],"TotalKeys":1,"Block":2,"Trial":191,"Robot":3,"Valence":"Lose","Action":"Go","Sham":0,"Color":"yellow","trial_type":"pit-trial","trial_index":212,"time_elapsed":1290954,"internal_node_id":"0.0-201.0","task_version":"test-retest-t4"},{"Rune":"rune_07_gar","Hex":"#ffcc3399","Correct":-1,"Choice":-1,"RT":-1,"Accuracy":1,"Outcome":"-1","Keys":[],"TotalKeys":0,"Block":2,"Trial":192,"Robot":4,"Valence":"Lose","Action":"No-Go","Sham":0,"Color":"yellow","trial_type":"pit-trial","trial_index":213,"time_elapsed":1295035,"internal_node_id":"0.0-202.0","task_version":"test-retest-t4"},{"Rune":"rune_07_laukaz","Hex":"#3366ff99","Correct":32,"Choice":32,"RT":1059.1050000002142,"Accuracy":1,"Outcome":"+10","Keys":[2559.3249999945983],"TotalKeys":1,"Block":2,"Trial":193,"Robot":1,"Valence":"Win","Action":"Go","Sham":0,"Color":"blue","trial_type":"pit-trial","trial_index":214,"time_elapsed":1298681,"internal_node_id":"0.0-203.0","task_version":"test-retest-t4"},{"Rune":"rune_07_thurisaz","Hex":"#ffcc3399","Correct":32,"Choice":32,"RT":1274.0400000037625,"Accuracy":1,"Outcome":"-1","Keys":[2774.4050000037532],"TotalKeys":1,"Block":2,"Trial":194,"Robot":3,"Valence":"Lose","Action":"Go","Sham":0,"Color":"yellow","trial_type":"pit-trial","trial_index":215,"time_elapsed":1302529,"internal_node_id":"0.0-204.0","task_version":"test-retest-t4"},{"Rune":"rune_07_gar","Hex":"#ffcc3399","Correct":-1,"Choice":-1,"RT":-1,"Accuracy":1,"Outcome":"-1","Keys":[],"TotalKeys":0,"Block":2,"Trial":195,"Robot":4,"Valence":"Lose","Action":"No-Go","Sham":0,"Color":"yellow","trial_type":"pit-trial","trial_index":216,"time_elapsed":1306619,"internal_node_id":"0.0-205.0","task_version":"test-retest-t4"},{"Rune":"rune_07_kauna","Hex":"#3366ff99","Correct":-1,"Choice":-1,"RT":-1,"Accuracy":1,"Outcome":"+1","Keys":[],"TotalKeys":0,"Block":2,"Trial":196,"Robot":2,"Valence":"Win","Action":"No-Go","Sham":1,"Color":"blue","trial_type":"pit-trial","trial_index":217,"time_elapsed":1310696,"internal_node_id":"0.0-206.0","task_version":"test-retest-t4"},{"Rune":"rune_07_gar","Hex":"#ffcc3399","Correct":-1,"Choice":-1,"RT":-1,"Accuracy":1,"Outcome":"-10","Keys":[],"TotalKeys":0,"Block":2,"Trial":197,"Robot":4,"Valence":"Lose","Action":"No-Go","Sham":1,"Color":"yellow","trial_type":"pit-trial","trial_index":218,"time_elapsed":1314783,"internal_node_id":"0.0-207.0","task_version":"test-retest-t4"},{"Rune":"rune_07_thurisaz","Hex":"#ffcc3399","Correct":32,"Choice":32,"RT":482.62999999849126,"Accuracy":1,"Outcome":"-1","Keys":[1985.984999999404],"TotalKeys":1,"Block":2,"Trial":198,"Robot":3,"Valence":"Lose","Action":"Go","Sham":0,"Color":"yellow","trial_type":"pit-trial","trial_index":219,"time_elapsed":1317849,"internal_node_id":"0.0-208.0","task_version":"test-retest-t4"},{"Rune":"rune_07_laukaz","Hex":"#3366ff99","Correct":32,"Choice":32,"RT":551.4750000000931,"Accuracy":1,"Outcome":"+1","Keys":[2051.630000001751],"TotalKeys":1,"Block":2,"Trial":199,"Robot":1,"Valence":"Win","Action":"Go","Sham":1,"Color":"blue","trial_type":"pit-trial","trial_index":220,"time_elapsed":1320975,"internal_node_id":"0.0-209.0","task_version":"test-retest-t4"},{"Rune":"rune_07_kauna","Hex":"#3366ff99","Correct":-1,"Choice":-1,"RT":-1,"Accuracy":1,"Outcome":"+10","Keys":[],"TotalKeys":0,"Block":2,"Trial":200,"Robot":2,"Valence":"Win","Action":"No-Go","Sham":0,"Color":"blue","trial_type":"pit-trial","trial_index":221,"time_elapsed":1325048,"internal_node_id":"0.0-210.0","task_version":"test-retest-t4"},{"Rune":"rune_07_laukaz","Hex":"#3366ff99","Correct":32,"Choice":32,"RT":897.2700000014156,"Accuracy":1,"Outcome":"+10","Keys":[2398.055000005057],"TotalKeys":1,"Block":2,"Trial":201,"Robot":1,"Valence":"Win","Action":"Go","Sham":0,"Color":"blue","trial_type":"pit-trial","trial_index":222,"time_elapsed":1328497,"internal_node_id":"0.0-211.0","task_version":"test-retest-t4"},{"Rune":"rune_07_thurisaz","Hex":"#ffcc3399","Correct":32,"Choice":32,"RT":902.2350000012666,"Accuracy":1,"Outcome":"-1","Keys":[2402.939999999944],"TotalKeys":1,"Block":2,"Trial":202,"Robot":3,"Valence":"Lose","Action":"Go","Sham":0,"Color":"yellow","trial_type":"pit-trial","trial_index":223,"time_elapsed":1331977,"internal_node_id":"0.0-212.0","task_version":"test-retest-t4"},{"Rune":"rune_07_kauna","Hex":"#3366ff99","Correct":-1,"Choice":-1,"RT":-1,"Accuracy":1,"Outcome":"+1","Keys":[],"TotalKeys":0,"Block":2,"Trial":203,"Robot":2,"Valence":"Win","Action":"No-Go","Sham":1,"Color":"blue","trial_type":"pit-trial","trial_index":224,"time_elapsed":1336048,"internal_node_id":"0.0-213.0","task_version":"test-retest-t4"},{"Rune":"rune_07_gar","Hex":"#ffcc3399","Correct":-1,"Choice":-1,"RT":-1,"Accuracy":1,"Outcome":"-10","Keys":[],"TotalKeys":0,"Block":2,"Trial":204,"Robot":4,"Valence":"Lose","Action":"No-Go","Sham":1,"Color":"yellow","trial_type":"pit-trial","trial_index":225,"time_elapsed":1340129,"internal_node_id":"0.0-214.0","task_version":"test-retest-t4"},{"Rune":"rune_07_kauna","Hex":"#3366ff99","Correct":-1,"Choice":32,"RT":671.3949999976903,"Accuracy":0,"Outcome":"+1","Keys":[2172.5799999986775],"TotalKeys":1,"Block":2,"Trial":205,"Robot":2,"Valence":"Win","Action":"No-Go","Sham":0,"Color":"blue","trial_type":"pit-trial","trial_index":226,"time_elapsed":1343377,"internal_node_id":"0.0-215.0","task_version":"test-retest-t4"},{"Rune":"rune_07_gar","Hex":"#ffcc3399","Correct":-1,"Choice":-1,"RT":-1,"Accuracy":1,"Outcome":"-1","Keys":[],"TotalKeys":0,"Block":2,"Trial":206,"Robot":4,"Valence":"Lose","Action":"No-Go","Sham":0,"Color":"yellow","trial_type":"pit-trial","trial_index":227,"time_elapsed":1347455,"internal_node_id":"0.0-216.0","task_version":"test-retest-t4"},{"Rune":"rune_07_thurisaz","Hex":"#ffcc3399","Correct":32,"Choice":32,"RT":975.3849999979138,"Accuracy":1,"Outcome":"-1","Keys":[2475.8999999975786],"TotalKeys":1,"Block":2,"Trial":207,"Robot":3,"Valence":"Lose","Action":"Go","Sham":0,"Color":"yellow","trial_type":"pit-trial","trial_index":228,"time_elapsed":1351001,"internal_node_id":"0.0-217.0","task_version":"test-retest-t4"},{"Rune":"rune_07_laukaz","Hex":"#3366ff99","Correct":32,"Choice":32,"RT":959.399999999674,"Accuracy":1,"Outcome":"+1","Keys":[2464.6300000022165],"TotalKeys":1,"Block":2,"Trial":208,"Robot":1,"Valence":"Win","Action":"Go","Sham":1,"Color":"blue","trial_type":"pit-trial","trial_index":229,"time_elapsed":1354562,"internal_node_id":"0.0-218.0","task_version":"test-retest-t4"},{"Rune":"rune_07_thurisaz","Hex":"#ffcc3399","Correct":32,"Choice":32,"RT":577.955000000773,"Accuracy":1,"Outcome":"-1","Keys":[2078.144999999553],"TotalKeys":1,"Block":2,"Trial":209,"Robot":3,"Valence":"Lose","Action":"Go","Sham":0,"Color":"yellow","trial_type":"pit-trial","trial_index":230,"time_elapsed":1357721,"internal_node_id":"0.0-219.0","task_version":"test-retest-t4"},{"Rune":"rune_07_kauna","Hex":"#3366ff99","Correct":-1,"Choice":32,"RT":978.7949999955017,"Accuracy":0,"Outcome":"+1","Keys":[2484.7000000008848],"TotalKeys":1,"Block":2,"Trial":210,"Robot":2,"Valence":"Win","Action":"No-Go","Sham":0,"Color":"blue","trial_type":"pit-trial","trial_index":231,"time_elapsed":1361280,"internal_node_id":"0.0-220.0","task_version":"test-retest-t4"},{"Rune":"rune_07_gar","Hex":"#ffcc3399","Correct":-1,"Choice":-1,"RT":-1,"Accuracy":1,"Outcome":"-1","Keys":[],"TotalKeys":0,"Block":2,"Trial":211,"Robot":4,"Valence":"Lose","Action":"No-Go","Sham":0,"Color":"yellow","trial_type":"pit-trial","trial_index":232,"time_elapsed":1365357,"internal_node_id":"0.0-221.0","task_version":"test-retest-t4"},{"Rune":"rune_07_laukaz","Hex":"#3366ff99","Correct":32,"Choice":32,"RT":639.5849999971688,"Accuracy":1,"Outcome":"+10","Keys":[2140.344999999972],"TotalKeys":1,"Block":2,"Trial":212,"Robot":1,"Valence":"Win","Action":"Go","Sham":0,"Color":"blue","trial_type":"pit-trial","trial_index":233,"time_elapsed":1368561,"internal_node_id":"0.0-222.0","task_version":"test-retest-t4"},{"Rune":"rune_07_gar","Hex":"#ffcc3399","Correct":-1,"Choice":-1,"RT":-1,"Accuracy":1,"Outcome":"-1","Keys":[],"TotalKeys":0,"Block":2,"Trial":213,"Robot":4,"Valence":"Lose","Action":"No-Go","Sham":0,"Color":"yellow","trial_type":"pit-trial","trial_index":234,"time_elapsed":1372630,"internal_node_id":"0.0-223.0","task_version":"test-retest-t4"},{"Rune":"rune_07_laukaz","Hex":"#3366ff99","Correct":32,"Choice":32,"RT":772.3449999974109,"Accuracy":1,"Outcome":"+10","Keys":[2272.5500000014435],"TotalKeys":1,"Block":2,"Trial":214,"Robot":1,"Valence":"Win","Action":"Go","Sham":0,"Color":"blue","trial_type":"pit-trial","trial_index":235,"time_elapsed":1375992,"internal_node_id":"0.0-224.0","task_version":"test-retest-t4"},{"Rune":"rune_07_kauna","Hex":"#3366ff99","Correct":-1,"Choice":32,"RT":1098.4549999996088,"Accuracy":0,"Outcome":"+1","Keys":[2599.2649999971036],"TotalKeys":1,"Block":2,"Trial":215,"Robot":2,"Valence":"Win","Action":"No-Go","Sham":0,"Color":"blue","trial_type":"pit-trial","trial_index":236,"time_elapsed":1379665,"internal_node_id":"0.0-225.0","task_version":"test-retest-t4"},{"Rune":"rune_07_thurisaz","Hex":"#ffcc3399","Correct":32,"Choice":32,"RT":752.2849999950267,"Accuracy":1,"Outcome":"-1","Keys":[2253.179999999702],"TotalKeys":1,"Block":2,"Trial":216,"Robot":3,"Valence":"Lose","Action":"Go","Sham":0,"Color":"yellow","trial_type":"pit-trial","trial_index":237,"time_elapsed":1382982,"internal_node_id":"0.0-226.0","task_version":"test-retest-t4"},{"Rune":"rune_07_laukaz","Hex":"#3366ff99","Correct":32,"Choice":-1,"RT":-1,"Accuracy":0,"Outcome":"+1","Keys":[],"TotalKeys":0,"Block":2,"Trial":217,"Robot":1,"Valence":"Win","Action":"Go","Sham":0,"Color":"blue","trial_type":"pit-trial","trial_index":238,"time_elapsed":1387035,"internal_node_id":"0.0-227.0","task_version":"test-retest-t4"},{"Rune":"rune_07_kauna","Hex":"#3366ff99","Correct":-1,"Choice":-1,"RT":-1,"Accuracy":1,"Outcome":"+10","Keys":[],"TotalKeys":0,"Block":2,"Trial":218,"Robot":2,"Valence":"Win","Action":"No-Go","Sham":0,"Color":"blue","trial_type":"pit-trial","trial_index":239,"time_elapsed":1391107,"internal_node_id":"0.0-228.0","task_version":"test-retest-t4"},{"Rune":"rune_07_gar","Hex":"#ffcc3399","Correct":-1,"Choice":-1,"RT":-1,"Accuracy":1,"Outcome":"-1","Keys":[],"TotalKeys":0,"Block":2,"Trial":219,"Robot":4,"Valence":"Lose","Action":"No-Go","Sham":0,"Color":"yellow","trial_type":"pit-trial","trial_index":240,"time_elapsed":1395183,"internal_node_id":"0.0-229.0","task_version":"test-retest-t4"},{"Rune":"rune_07_thurisaz","Hex":"#ffcc3399","Correct":32,"Choice":32,"RT":955.7199999981094,"Accuracy":1,"Outcome":"-10","Keys":[2458.23499999824],"TotalKeys":1,"Block":2,"Trial":220,"Robot":3,"Valence":"Lose","Action":"Go","Sham":1,"Color":"yellow","trial_type":"pit-trial","trial_index":241,"time_elapsed":1398721,"internal_node_id":"0.0-230.0","task_version":"test-retest-t4"},{"Rune":"rune_07_kauna","Hex":"#3366ff99","Correct":-1,"Choice":-1,"RT":-1,"Accuracy":1,"Outcome":"+10","Keys":[],"TotalKeys":0,"Block":2,"Trial":221,"Robot":2,"Valence":"Win","Action":"No-Go","Sham":0,"Color":"blue","trial_type":"pit-trial","trial_index":242,"time_elapsed":1402803,"internal_node_id":"0.0-231.0","task_version":"test-retest-t4"},{"Rune":"rune_07_gar","Hex":"#ffcc3399","Correct":-1,"Choice":-1,"RT":-1,"Accuracy":1,"Outcome":"-1","Keys":[],"TotalKeys":0,"Block":2,"Trial":222,"Robot":4,"Valence":"Lose","Action":"No-Go","Sham":0,"Color":"yellow","trial_type":"pit-trial","trial_index":243,"time_elapsed":1406884,"internal_node_id":"0.0-232.0","task_version":"test-retest-t4"},{"Rune":"rune_07_thurisaz","Hex":"#ffcc3399","Correct":32,"Choice":32,"RT":980.2449999989476,"Accuracy":1,"Outcome":"-1","Keys":[2485.3650000004563],"TotalKeys":1,"Block":2,"Trial":223,"Robot":3,"Valence":"Lose","Action":"Go","Sham":0,"Color":"yellow","trial_type":"pit-trial","trial_index":244,"time_elapsed":1410449,"internal_node_id":"0.0-233.0","task_version":"test-retest-t4"},{"Rune":"rune_07_laukaz","Hex":"#3366ff99","Correct":32,"Choice":32,"RT":622.6800000004005,"Accuracy":1,"Outcome":"+10","Keys":[2124.685000002617],"TotalKeys":1,"Block":2,"Trial":224,"Robot":1,"Valence":"Win","Action":"Go","Sham":0,"Color":"blue","trial_type":"pit-trial","trial_index":245,"time_elapsed":1413649,"internal_node_id":"0.0-234.0","task_version":"test-retest-t4"},{"Rune":"rune_07_thurisaz","Hex":"#ffcc3399","Correct":32,"Choice":32,"RT":837.390000000596,"Accuracy":1,"Outcome":"-1","Keys":[2337.69499999471],"TotalKeys":1,"Block":2,"Trial":225,"Robot":3,"Valence":"Lose","Action":"Go","Sham":0,"Color":"yellow","trial_type":"pit-trial","trial_index":246,"time_elapsed":1417056,"internal_node_id":"0.0-235.0","task_version":"test-retest-t4"},{"Rune":"rune_07_kauna","Hex":"#3366ff99","Correct":-1,"Choice":32,"RT":797.8650000004563,"Accuracy":0,"Outcome":"+1","Keys":[2298.694999997737],"TotalKeys":1,"Block":2,"Trial":226,"Robot":2,"Valence":"Win","Action":"No-Go","Sham":0,"Color":"blue","trial_type":"pit-trial","trial_index":247,"time_elapsed":1420433,"internal_node_id":"0.0-236.0","task_version":"test-retest-t4"},{"Rune":"rune_07_gar","Hex":"#ffcc3399","Correct":-1,"Choice":-1,"RT":-1,"Accuracy":1,"Outcome":"-1","Keys":[],"TotalKeys":0,"Block":2,"Trial":227,"Robot":4,"Valence":"Lose","Action":"No-Go","Sham":0,"Color":"yellow","trial_type":"pit-trial","trial_index":248,"time_elapsed":1424499,"internal_node_id":"0.0-237.0","task_version":"test-retest-t4"},{"Rune":"rune_07_laukaz","Hex":"#3366ff99","Correct":32,"Choice":-1,"RT":-1,"Accuracy":0,"Outcome":"+1","Keys":[3170.7800000004936],"TotalKeys":1,"Block":2,"Trial":228,"Robot":1,"Valence":"Win","Action":"Go","Sham":0,"Color":"blue","trial_type":"pit-trial","trial_index":249,"time_elapsed":1428607,"internal_node_id":"0.0-238.0","task_version":"test-retest-t4"},{"Rune":"rune_07_thurisaz","Hex":"#ffcc3399","Correct":32,"Choice":32,"RT":560.4649999951944,"Accuracy":1,"Outcome":"-1","Keys":[2061.359999999637],"TotalKeys":1,"Block":2,"Trial":229,"Robot":3,"Valence":"Lose","Action":"Go","Sham":0,"Color":"yellow","trial_type":"pit-trial","trial_index":250,"time_elapsed":1431746,"internal_node_id":"0.0-239.0","task_version":"test-retest-t4"},{"Rune":"rune_07_laukaz","Hex":"#3366ff99","Correct":32,"Choice":32,"RT":520.6400000024587,"Accuracy":1,"Outcome":"+10","Keys":[2021.2099999990314],"TotalKeys":1,"Block":2,"Trial":230,"Robot":1,"Valence":"Win","Action":"Go","Sham":0,"Color":"blue","trial_type":"pit-trial","trial_index":251,"time_elapsed":1434832,"internal_node_id":"0.0-240.0","task_version":"test-retest-t4"},{"Rune":"rune_07_kauna","Hex":"#3366ff99","Correct":-1,"Choice":-1,"RT":-1,"Accuracy":1,"Outcome":"+1","Keys":[],"TotalKeys":0,"Block":2,"Trial":231,"Robot":2,"Valence":"Win","Action":"No-Go","Sham":1,"Color":"blue","trial_type":"pit-trial","trial_index":252,"time_elapsed":1438901,"internal_node_id":"0.0-241.0","task_version":"test-retest-t4"},{"Rune":"rune_07_gar","Hex":"#ffcc3399","Correct":-1,"Choice":-1,"RT":-1,"Accuracy":1,"Outcome":"-1","Keys":[],"TotalKeys":0,"Block":2,"Trial":232,"Robot":4,"Valence":"Lose","Action":"No-Go","Sham":0,"Color":"yellow","trial_type":"pit-trial","trial_index":253,"time_elapsed":1443008,"internal_node_id":"0.0-242.0","task_version":"test-retest-t4"},{"Rune":"rune_07_thurisaz","Hex":"#ffcc3399","Correct":32,"Choice":32,"RT":560.7400000006892,"Accuracy":1,"Outcome":"-10","Keys":[2061.5200000030454],"TotalKeys":1,"Block":2,"Trial":233,"Robot":3,"Valence":"Lose","Action":"Go","Sham":1,"Color":"yellow","trial_type":"pit-trial","trial_index":254,"time_elapsed":1446122,"internal_node_id":"0.0-243.0","task_version":"test-retest-t4"},{"Rune":"rune_07_laukaz","Hex":"#3366ff99","Correct":32,"Choice":32,"RT":1309.7300000009127,"Accuracy":1,"Outcome":"+10","Keys":[2809.8349999999627],"TotalKeys":1,"Block":2,"Trial":234,"Robot":1,"Valence":"Win","Action":"Go","Sham":0,"Color":"blue","trial_type":"pit-trial","trial_index":255,"time_elapsed":1449992,"internal_node_id":"0.0-244.0","task_version":"test-retest-t4"},{"Rune":"rune_07_kauna","Hex":"#3366ff99","Correct":-1,"Choice":-1,"RT":-1,"Accuracy":1,"Outcome":"+10","Keys":[],"TotalKeys":0,"Block":2,"Trial":235,"Robot":2,"Valence":"Win","Action":"No-Go","Sham":0,"Color":"blue","trial_type":"pit-trial","trial_index":256,"time_elapsed":1454076,"internal_node_id":"0.0-245.0","task_version":"test-retest-t4"},{"Rune":"rune_07_gar","Hex":"#ffcc3399","Correct":-1,"Choice":-1,"RT":-1,"Accuracy":1,"Outcome":"-10","Keys":[],"TotalKeys":0,"Block":2,"Trial":236,"Robot":4,"Valence":"Lose","Action":"No-Go","Sham":1,"Color":"yellow","trial_type":"pit-trial","trial_index":257,"time_elapsed":1458167,"internal_node_id":"0.0-246.0","task_version":"test-retest-t4"},{"Rune":"rune_07_kauna","Hex":"#3366ff99","Correct":-1,"Choice":-1,"RT":-1,"Accuracy":1,"Outcome":"+10","Keys":[],"TotalKeys":0,"Block":2,"Trial":237,"Robot":2,"Valence":"Win","Action":"No-Go","Sham":0,"Color":"blue","trial_type":"pit-trial","trial_index":258,"time_elapsed":1462238,"internal_node_id":"0.0-247.0","task_version":"test-retest-t4"},{"Rune":"rune_07_thurisaz","Hex":"#ffcc3399","Correct":32,"Choice":32,"RT":817.4500000022817,"Accuracy":1,"Outcome":"-1","Keys":[2318.2149999993853],"TotalKeys":1,"Block":2,"Trial":238,"Robot":3,"Valence":"Lose","Action":"Go","Sham":0,"Color":"yellow","trial_type":"pit-trial","trial_index":259,"time_elapsed":1465633,"internal_node_id":"0.0-248.0","task_version":"test-retest-t4"},{"Rune":"rune_07_gar","Hex":"#ffcc3399","Correct":-1,"Choice":-1,"RT":-1,"Accuracy":1,"Outcome":"-1","Keys":[],"TotalKeys":0,"Block":2,"Trial":239,"Robot":4,"Valence":"Lose","Action":"No-Go","Sham":0,"Color":"yellow","trial_type":"pit-trial","trial_index":260,"time_elapsed":1469721,"internal_node_id":"0.0-249.0","task_version":"test-retest-t4"},{"Rune":"rune_07_laukaz","Hex":"#3366ff99","Correct":32,"Choice":-1,"RT":-1,"Accuracy":0,"Outcome":"+10","Keys":[],"TotalKeys":0,"Block":2,"Trial":240,"Robot":1,"Valence":"Win","Action":"Go","Sham":1,"Color":"blue","trial_type":"pit-trial","trial_index":261,"time_elapsed":1473789,"internal_node_id":"0.0-250.0","task_version":"test-retest-t4"},{"view_history":"[{\"page_index\":0,\"viewing_time\":2771.515000000363}]","rt":2772.8749999951106,"trial_type":"pit-instructions","trial_index":262,"time_elapsed":1476654,"internal_node_id":"0.0-251.0","task_version":"test-retest-t4"},{"rt":12031.05499999947,"responses":{"age":"36","gender-categorical":"Female","gender-free-response":"","ethnicity":"Not Hispanic or Latino","race":"White","language":"Yes","fluency":"Very well"},"survey":"demographics","trial_type":"survey-demo","trial_index":263,"time_elapsed":1488751,"internal_node_id":"0.0-252.0","task_version":"test-retest-t4"},{"rt":15135.145000000251,"responses":{"difficulty":"3","fun":"5","clarity":"5","strategy":"Just tried to remember what typically paid out what.","feedback":""},"survey":"debrief","trial_type":"survey-debrief","trial_index":264,"time_elapsed":1503945,"internal_node_id":"0.0-253.0","task_version":"test-retest-t4"},{"rt":4964.309999995865,"stimulus":"You earned a bonus of $1.24 out of $1.5.<br><br>Press any key to complete the experiment.","key_press":32,"trial_type":"html-keyboard-response","trial_index":265,"time_elapsed":1508975,"internal_node_id":"0.0-254.0","task_version":"test-retest-t4","accuracy":0.825,"bonus":1.24,"interactions":"[]"}]