[{"slider_type":"valence","raw_loc":541,"loc":0.582,"trial_type":"affective-slider","trial_index":0,"time_elapsed":5337,"internal_node_id":"0.0-0.0","task_version":"test-retest"},{"responses":{"Q08":"1","Q07":"2","Q01":"3","Q03":"3","Q10":"1","Q05":"2","Q12":"1","Q04":"3","Q13":"0","Q06":"2","Q09":"1","Q11":"1","Q02":"2"},"rt":62911.574999801815,"survey":"bisbas","trial_type":"survey-template","trial_index":1,"time_elapsed":68258,"internal_node_id":"0.0-1.0","task_version":"test-retest"},{"responses":{"Q08":"0","Q13":"0","Q12":"1","Q07":"0","Q03":"0","Q15":"0","Q04":"0","Q01":"0","Q02":"1","Q14":"0","Q10":"1","Q11":"1","Q05":"1","Q06":"0","Q09":"1"},"rt":142940.20000007004,"survey":"7up7down","trial_type":"survey-template","trial_index":2,"time_elapsed":211213,"internal_node_id":"0.0-2.0","task_version":"test-retest"},{"responses":{"Q08":"0","Q06":"1","Q01":"1","Q02":"0","Q04":"1","Q03":"1","Q07":"0","Q05":"0"},"rt":37206.120000220835,"survey":"gad7","trial_type":"survey-template","trial_index":3,"time_elapsed":248426,"internal_node_id":"0.0-3.0","task_version":"test-retest"},{"value":false,"trial_type":"call-function","trial_index":4,"time_elapsed":248427,"internal_node_id":"0.0-4.0","task_version":"test-retest"},{"view_history":"[{\"page_index\":0,\"viewing_time\":1874.8250002972782},{\"page_index\":1,\"viewing_time\":2007.949999999255},{\"page_index\":2,\"viewing_time\":6765.029999893159},{\"page_index\":3,\"viewing_time\":2549.970000050962},{\"page_index\":4,\"viewing_time\":12964.149999897927}]","rt":26163.350000046194,"trial_type":"pit-instructions","trial_index":5,"time_elapsed":274597,"internal_node_id":"0.0-5.0-0.0","task_version":"test-retest"},{"Rune":"rune_00_ingz","Hex":"#FFFFF080","Correct":32,"Choice":32,"RT":462.66499999910593,"Accuracy":1,"Outcome":"+10","Keys":[1963.1599998101592],"TotalKeys":1,"Block":0,"Action":"Go","trial_type":"pit-trial","trial_index":6,"time_elapsed":277565,"internal_node_id":"0.0-5.0-1.0-0.0","task_version":"test-retest"},{"Rune":"rune_00_ingz","Hex":"#FFFFF080","Correct":32,"Choice":32,"RT":336.5449998527765,"Accuracy":1,"Outcome":"+10","Keys":[1836.8850001133978],"TotalKeys":1,"Block":0,"Action":"Go","trial_type":"pit-trial","trial_index":7,"time_elapsed":280411,"internal_node_id":"0.0-5.0-1.0-0.1","task_version":"test-retest"},{"Rune":"rune_00_ingz","Hex":"#FFFFF080","Correct":32,"Choice":32,"RT":227.09000017493963,"Accuracy":1,"Outcome":"+10","Keys":[1728.720000013709],"TotalKeys":1,"Block":0,"Action":"Go","trial_type":"pit-trial","trial_index":8,"time_elapsed":283144,"internal_node_id":"0.0-5.0-1.0-0.2","task_version":"test-retest"},{"Rune":"rune_00_ingz","Hex":"#FFFFF080","Correct":32,"Choice":32,"RT":330.1599998958409,"Accuracy":1,"Outcome":"+10","Keys":[175.62999995425344,1830.6299997493625],"TotalKeys":2,"Block":0,"Action":"Go","trial_type":"pit-trial","trial_index":9,"time_elapsed":285983,"internal_node_id":"0.0-5.0-1.0-0.3","task_version":"test-retest"},{"view_history":"[{\"page_index\":0,\"viewing_time\":3493.5100004076958}]","rt":3494.1150001250207,"trial_type":"pit-instructions","trial_index":10,"time_elapsed":289479,"internal_node_id":"0.0-5.0-2.0","task_version":"test-retest"},{"Rune":"rune_00_isaz","Hex":"#FFFFF080","Correct":-1,"Choice":-1,"RT":-1,"Accuracy":1,"Outcome":"+10","Keys":[],"TotalKeys":0,"Block":0,"Action":"No-Go","trial_type":"pit-trial","trial_index":11,"time_elapsed":293490,"internal_node_id":"0.0-5.0-3.0-0.0","task_version":"test-retest"},{"Rune":"rune_00_isaz","Hex":"#FFFFF080","Correct":-1,"Choice":-1,"RT":-1,"Accuracy":1,"Outcome":"+10","Keys":[],"TotalKeys":0,"Block":0,"Action":"No-Go","trial_type":"pit-trial","trial_index":12,"time_elapsed":297501,"internal_node_id":"0.0-5.0-3.0-0.1","task_version":"test-retest"},{"Rune":"rune_00_isaz","Hex":"#FFFFF080","Correct":-1,"Choice":-1,"RT":-1,"Accuracy":1,"Outcome":"+10","Keys":[],"TotalKeys":0,"Block":0,"Action":"No-Go","trial_type":"pit-trial","trial_index":13,"time_elapsed":301509,"internal_node_id":"0.0-5.0-3.0-0.2","task_version":"test-retest"},{"Rune":"rune_00_isaz","Hex":"#FFFFF080","Correct":-1,"Choice":-1,"RT":-1,"Accuracy":1,"Outcome":"+10","Keys":[],"TotalKeys":0,"Block":0,"Action":"No-Go","trial_type":"pit-trial","trial_index":14,"time_elapsed":305519,"internal_node_id":"0.0-5.0-3.0-0.3","task_version":"test-retest"},{"view_history":"[{\"page_index\":0,\"viewing_time\":7537.85500023514},{\"page_index\":1,\"viewing_time\":8718.47500000149},{\"page_index\":2,\"viewing_time\":10309.5350000076},{\"page_index\":3,\"viewing_time\":3423.0649997480214},{\"page_index\":4,\"viewing_time\":3375.4250002093613},{\"page_index\":5,\"viewing_time\":5951.714999973774},{\"page_index\":6,\"viewing_time\":2637.2349997982383},{\"page_index\":7,\"viewing_time\":1673.380000051111}]","rt":43627.230000216514,"trial_type":"pit-instructions","trial_index":15,"time_elapsed":349151,"internal_node_id":"0.0-5.0-4.0","task_version":"test-retest"},{"responses":["Do nothing","+10","-1","True","Yes"],"num_errors":0,"rt":48491.74000043422,"trial_type":"pit-comprehension","trial_index":16,"time_elapsed":397651,"internal_node_id":"0.0-5.0-5.0","task_version":"test-retest"},{"trial_type":"call-function","trial_index":17,"time_elapsed":397654,"internal_node_id":"0.0-6.0","task_version":"test-retest"},{"view_history":"[{\"page_index\":0,\"viewing_time\":1541.6950001381338},{\"page_index\":1,\"viewing_time\":2931.2599999830127}]","rt":4473.489999771118,"trial_type":"pit-instructions","trial_index":18,"time_elapsed":402129,"internal_node_id":"0.0-7.0","task_version":"test-retest"},{"Rune":"rune_02_cen","Hex":"#3366ff99","Correct":-1,"Choice":32,"RT":518.1200001388788,"Accuracy":0,"Outcome":"-1","Keys":[2018.6650003306568],"TotalKeys":1,"Block":1,"Trial":1,"Robot":4,"Valence":"Lose","Action":"No-Go","Sham":1,"Color":"blue","trial_type":"pit-trial","trial_index":19,"time_elapsed":405156,"internal_node_id":"0.0-8.0","task_version":"test-retest"},{"Rune":"rune_02_raido","Hex":"#3366ff99","Correct":32,"Choice":32,"RT":556.1949997209013,"Accuracy":1,"Outcome":"-10","Keys":[2056.410000193864],"TotalKeys":1,"Block":1,"Trial":2,"Robot":3,"Valence":"Lose","Action":"Go","Sham":1,"Color":"blue","trial_type":"pit-trial","trial_index":20,"time_elapsed":408220,"internal_node_id":"0.0-9.0","task_version":"test-retest"},{"Rune":"rune_02_os","Hex":"#ffcc3399","Correct":32,"Choice":32,"RT":826.6900000162423,"Accuracy":1,"Outcome":"+1","Keys":[2328.3249996602535],"TotalKeys":1,"Block":1,"Trial":3,"Robot":1,"Valence":"Win","Action":"Go","Sham":1,"Color":"yellow","trial_type":"pit-trial","trial_index":21,"time_elapsed":411554,"internal_node_id":"0.0-10.0","task_version":"test-retest"},{"Rune":"rune_02_haglaz","Hex":"#ffcc3399","Correct":-1,"Choice":32,"RT":584.2800000682473,"Accuracy":0,"Outcome":"+1","Keys":[2085.6599998660386],"TotalKeys":1,"Block":1,"Trial":4,"Robot":2,"Valence":"Win","Action":"No-Go","Sham":0,"Color":"yellow","trial_type":"pit-trial","trial_index":22,"time_elapsed":414647,"internal_node_id":"0.0-11.0","task_version":"test-retest"},{"Rune":"rune_02_os","Hex":"#ffcc3399","Correct":32,"Choice":-1,"RT":-1,"Accuracy":0,"Outcome":"+1","Keys":[],"TotalKeys":0,"Block":1,"Trial":5,"Robot":1,"Valence":"Win","Action":"Go","Sham":0,"Color":"yellow","trial_type":"pit-trial","trial_index":23,"time_elapsed":418660,"internal_node_id":"0.0-12.0","task_version":"test-retest"},{"Rune":"rune_02_raido","Hex":"#3366ff99","Correct":32,"Choice":-1,"RT":-1,"Accuracy":0,"Outcome":"-10","Keys":[],"TotalKeys":0,"Block":1,"Trial":6,"Robot":3,"Valence":"Lose","Action":"Go","Sham":0,"Color":"blue","trial_type":"pit-trial","trial_index":24,"time_elapsed":422672,"internal_node_id":"0.0-13.0","task_version":"test-retest"},{"Rune":"rune_02_haglaz","Hex":"#ffcc3399","Correct":-1,"Choice":32,"RT":694.4550001062453,"Accuracy":0,"Outcome":"+10","Keys":[2195.3699998557568],"TotalKeys":1,"Block":1,"Trial":7,"Robot":2,"Valence":"Win","Action":"No-Go","Sham":1,"Color":"yellow","trial_type":"pit-trial","trial_index":25,"time_elapsed":425874,"internal_node_id":"0.0-14.0","task_version":"test-retest"},{"Rune":"rune_02_cen","Hex":"#3366ff99","Correct":-1,"Choice":32,"RT":599.564999807626,"Accuracy":0,"Outcome":"-10","Keys":[2099.855000153184],"TotalKeys":1,"Block":1,"Trial":8,"Robot":4,"Valence":"Lose","Action":"No-Go","Sham":0,"Color":"blue","trial_type":"pit-trial","trial_index":26,"time_elapsed":428981,"internal_node_id":"0.0-15.0","task_version":"test-retest"},{"Rune":"rune_02_haglaz","Hex":"#ffcc3399","Correct":-1,"Choice":32,"RT":531.2800002284348,"Accuracy":0,"Outcome":"+1","Keys":[2032.0899998769164],"TotalKeys":1,"Block":1,"Trial":9,"Robot":2,"Valence":"Win","Action":"No-Go","Sham":0,"Color":"yellow","trial_type":"pit-trial","trial_index":27,"time_elapsed":432019,"internal_node_id":"0.0-16.0","task_version":"test-retest"},{"Rune":"rune_02_raido","Hex":"#3366ff99","Correct":32,"Choice":-1,"RT":-1,"Accuracy":0,"Outcome":"-10","Keys":[],"TotalKeys":0,"Block":1,"Trial":10,"Robot":3,"Valence":"Lose","Action":"Go","Sham":0,"Color":"blue","trial_type":"pit-trial","trial_index":28,"time_elapsed":436030,"internal_node_id":"0.0-17.0","task_version":"test-retest"},{"Rune":"rune_02_cen","Hex":"#3366ff99","Correct":-1,"Choice":-1,"RT":-1,"Accuracy":1,"Outcome":"-1","Keys":[],"TotalKeys":0,"Block":1,"Trial":11,"Robot":4,"Valence":"Lose","Action":"No-Go","Sham":0,"Color":"blue","trial_type":"pit-trial","trial_index":29,"time_elapsed":440041,"internal_node_id":"0.0-18.0","task_version":"test-retest"},{"Rune":"rune_02_os","Hex":"#ffcc3399","Correct":32,"Choice":32,"RT":928.4350001253188,"Accuracy":1,"Outcome":"+10","Keys":[2429.9449999816716],"TotalKeys":1,"Block":1,"Trial":12,"Robot":1,"Valence":"Win","Action":"Go","Sham":0,"Color":"yellow","trial_type":"pit-trial","trial_index":30,"time_elapsed":443478,"internal_node_id":"0.0-19.0","task_version":"test-retest"},{"Rune":"rune_02_haglaz","Hex":"#ffcc3399","Correct":-1,"Choice":32,"RT":478.45999989658594,"Accuracy":0,"Outcome":"+1","Keys":[1978.6650002934039],"TotalKeys":1,"Block":1,"Trial":13,"Robot":2,"Valence":"Win","Action":"No-Go","Sham":0,"Color":"yellow","trial_type":"pit-trial","trial_index":31,"time_elapsed":446461,"internal_node_id":"0.0-20.0","task_version":"test-retest"},{"Rune":"rune_02_os","Hex":"#ffcc3399","Correct":32,"Choice":32,"RT":582.6449999585748,"Accuracy":1,"Outcome":"+10","Keys":[2083.6299997754395],"TotalKeys":1,"Block":1,"Trial":14,"Robot":1,"Valence":"Win","Action":"Go","Sham":0,"Color":"yellow","trial_type":"pit-trial","trial_index":32,"time_elapsed":449551,"internal_node_id":"0.0-21.0","task_version":"test-retest"},{"Rune":"rune_02_cen","Hex":"#3366ff99","Correct":-1,"Choice":32,"RT":937.4249996617436,"Accuracy":0,"Outcome":"-10","Keys":[2438.0950001068413],"TotalKeys":1,"Block":1,"Trial":15,"Robot":4,"Valence":"Lose","Action":"No-Go","Sham":0,"Color":"blue","trial_type":"pit-trial","trial_index":33,"time_elapsed":452996,"internal_node_id":"0.0-22.0","task_version":"test-retest"},{"Rune":"rune_02_raido","Hex":"#3366ff99","Correct":32,"Choice":32,"RT":818.2399999350309,"Accuracy":1,"Outcome":"-1","Keys":[2319.5250001735985],"TotalKeys":1,"Block":1,"Trial":16,"Robot":3,"Valence":"Lose","Action":"Go","Sham":0,"Color":"blue","trial_type":"pit-trial","trial_index":34,"time_elapsed":456322,"internal_node_id":"0.0-23.0","task_version":"test-retest"},{"Rune":"rune_02_os","Hex":"#ffcc3399","Correct":32,"Choice":32,"RT":685.7549999840558,"Accuracy":1,"Outcome":"+10","Keys":[2185.905000194907],"TotalKeys":1,"Block":1,"Trial":17,"Robot":1,"Valence":"Win","Action":"Go","Sham":0,"Color":"yellow","trial_type":"pit-trial","trial_index":35,"time_elapsed":459515,"internal_node_id":"0.0-24.0","task_version":"test-retest"},{"Rune":"rune_02_raido","Hex":"#3366ff99","Correct":32,"Choice":-1,"RT":-1,"Accuracy":0,"Outcome":"-10","Keys":[],"TotalKeys":0,"Block":1,"Trial":18,"Robot":3,"Valence":"Lose","Action":"Go","Sham":0,"Color":"blue","trial_type":"pit-trial","trial_index":36,"time_elapsed":463524,"internal_node_id":"0.0-25.0","task_version":"test-retest"},{"Rune":"rune_02_haglaz","Hex":"#ffcc3399","Correct":-1,"Choice":32,"RT":579.5849999412894,"Accuracy":0,"Outcome":"+1","Keys":[2080.3549997508526],"TotalKeys":1,"Block":1,"Trial":19,"Robot":2,"Valence":"Win","Action":"No-Go","Sham":0,"Color":"yellow","trial_type":"pit-trial","trial_index":37,"time_elapsed":466610,"internal_node_id":"0.0-26.0","task_version":"test-retest"},{"Rune":"rune_02_cen","Hex":"#3366ff99","Correct":-1,"Choice":-1,"RT":-1,"Accuracy":1,"Outcome":"-1","Keys":[],"TotalKeys":0,"Block":1,"Trial":20,"Robot":4,"Valence":"Lose","Action":"No-Go","Sham":0,"Color":"blue","trial_type":"pit-trial","trial_index":38,"time_elapsed":470619,"internal_node_id":"0.0-27.0","task_version":"test-retest"},{"Rune":"rune_02_haglaz","Hex":"#ffcc3399","Correct":-1,"Choice":-1,"RT":-1,"Accuracy":1,"Outcome":"+10","Keys":[],"TotalKeys":0,"Block":1,"Trial":21,"Robot":2,"Valence":"Win","Action":"No-Go","Sham":0,"Color":"yellow","trial_type":"pit-trial","trial_index":39,"time_elapsed":474629,"internal_node_id":"0.0-28.0","task_version":"test-retest"},{"Rune":"rune_02_cen","Hex":"#3366ff99","Correct":-1,"Choice":32,"RT":846.9099998474121,"Accuracy":0,"Outcome":"-10","Keys":[2346.994999796152],"TotalKeys":1,"Block":1,"Trial":22,"Robot":4,"Valence":"Lose","Action":"No-Go","Sham":0,"Color":"blue","trial_type":"pit-trial","trial_index":40,"time_elapsed":477983,"internal_node_id":"0.0-29.0","task_version":"test-retest"},{"Rune":"rune_02_raido","Hex":"#3366ff99","Correct":32,"Choice":32,"RT":646.4149998500943,"Accuracy":1,"Outcome":"-1","Keys":[2147.259999997914],"TotalKeys":1,"Block":1,"Trial":23,"Robot":3,"Valence":"Lose","Action":"Go","Sham":0,"Color":"blue","trial_type":"pit-trial","trial_index":41,"time_elapsed":481136,"internal_node_id":"0.0-30.0","task_version":"test-retest"},{"Rune":"rune_02_os","Hex":"#ffcc3399","Correct":32,"Choice":32,"RT":664.7850000299513,"Accuracy":1,"Outcome":"+10","Keys":[2164.82499986887],"TotalKeys":1,"Block":1,"Trial":24,"Robot":1,"Valence":"Win","Action":"Go","Sham":0,"Color":"yellow","trial_type":"pit-trial","trial_index":42,"time_elapsed":484308,"internal_node_id":"0.0-31.0","task_version":"test-retest"},{"Rune":"rune_02_haglaz","Hex":"#ffcc3399","Correct":-1,"Choice":-1,"RT":-1,"Accuracy":1,"Outcome":"+10","Keys":[],"TotalKeys":0,"Block":1,"Trial":25,"Robot":2,"Valence":"Win","Action":"No-Go","Sham":0,"Color":"yellow","trial_type":"pit-trial","trial_index":43,"time_elapsed":488320,"internal_node_id":"0.0-32.0","task_version":"test-retest"},{"Rune":"rune_02_cen","Hex":"#3366ff99","Correct":-1,"Choice":32,"RT":731.4150002785027,"Accuracy":0,"Outcome":"-10","Keys":[2232.270000036806],"TotalKeys":1,"Block":1,"Trial":26,"Robot":4,"Valence":"Lose","Action":"No-Go","Sham":0,"Color":"blue","trial_type":"pit-trial","trial_index":44,"time_elapsed":491559,"internal_node_id":"0.0-33.0","task_version":"test-retest"},{"Rune":"rune_02_raido","Hex":"#3366ff99","Correct":32,"Choice":32,"RT":1386.30500016734,"Accuracy":1,"Outcome":"-1","Keys":[2886.565000284463],"TotalKeys":1,"Block":1,"Trial":27,"Robot":3,"Valence":"Lose","Action":"Go","Sham":0,"Color":"blue","trial_type":"pit-trial","trial_index":45,"time_elapsed":495453,"internal_node_id":"0.0-34.0","task_version":"test-retest"},{"Rune":"rune_02_os","Hex":"#ffcc3399","Correct":32,"Choice":32,"RT":703.1849999912083,"Accuracy":1,"Outcome":"+1","Keys":[2205.5600001476705],"TotalKeys":1,"Block":1,"Trial":28,"Robot":1,"Valence":"Win","Action":"Go","Sham":1,"Color":"yellow","trial_type":"pit-trial","trial_index":46,"time_elapsed":498665,"internal_node_id":"0.0-35.0","task_version":"test-retest"},{"Rune":"rune_02_raido","Hex":"#3366ff99","Correct":32,"Choice":32,"RT":1377.8800000436604,"Accuracy":1,"Outcome":"-1","Keys":[2878.525000065565],"TotalKeys":1,"Block":1,"Trial":29,"Robot":3,"Valence":"Lose","Action":"Go","Sham":0,"Color":"blue","trial_type":"pit-trial","trial_index":47,"time_elapsed":502549,"internal_node_id":"0.0-36.0","task_version":"test-retest"},{"Rune":"rune_02_os","Hex":"#ffcc3399","Correct":32,"Choice":32,"RT":672.7099996060133,"Accuracy":1,"Outcome":"+10","Keys":[2173.374999780208],"TotalKeys":1,"Block":1,"Trial":30,"Robot":1,"Valence":"Win","Action":"Go","Sham":0,"Color":"yellow","trial_type":"pit-trial","trial_index":48,"time_elapsed":505730,"internal_node_id":"0.0-37.0","task_version":"test-retest"},{"Rune":"rune_02_cen","Hex":"#3366ff99","Correct":-1,"Choice":-1,"RT":-1,"Accuracy":1,"Outcome":"-1","Keys":[],"TotalKeys":0,"Block":1,"Trial":31,"Robot":4,"Valence":"Lose","Action":"No-Go","Sham":0,"Color":"blue","trial_type":"pit-trial","trial_index":49,"time_elapsed":509742,"internal_node_id":"0.0-38.0","task_version":"test-retest"},{"Rune":"rune_02_haglaz","Hex":"#ffcc3399","Correct":-1,"Choice":-1,"RT":-1,"Accuracy":1,"Outcome":"+1","Keys":[],"TotalKeys":0,"Block":1,"Trial":32,"Robot":2,"Valence":"Win","Action":"No-Go","Sham":1,"Color":"yellow","trial_type":"pit-trial","trial_index":50,"time_elapsed":513755,"internal_node_id":"0.0-39.0","task_version":"test-retest"},{"Rune":"rune_02_cen","Hex":"#3366ff99","Correct":-1,"Choice":-1,"RT":-1,"Accuracy":1,"Outcome":"-1","Keys":[],"TotalKeys":0,"Block":1,"Trial":33,"Robot":4,"Valence":"Lose","Action":"No-Go","Sham":0,"Color":"blue","trial_type":"pit-trial","trial_index":51,"time_elapsed":517765,"internal_node_id":"0.0-40.0","task_version":"test-retest"},{"Rune":"rune_02_raido","Hex":"#3366ff99","Correct":32,"Choice":32,"RT":763.0850002169609,"Accuracy":1,"Outcome":"-10","Keys":[2263.695000205189],"TotalKeys":1,"Block":1,"Trial":34,"Robot":3,"Valence":"Lose","Action":"Go","Sham":1,"Color":"blue","trial_type":"pit-trial","trial_index":52,"time_elapsed":521035,"internal_node_id":"0.0-41.0","task_version":"test-retest"},{"Rune":"rune_02_haglaz","Hex":"#ffcc3399","Correct":-1,"Choice":32,"RT":576.4800002798438,"Accuracy":0,"Outcome":"+1","Keys":[2076.779999770224],"TotalKeys":1,"Block":1,"Trial":35,"Robot":2,"Valence":"Win","Action":"No-Go","Sham":0,"Color":"yellow","trial_type":"pit-trial","trial_index":53,"time_elapsed":524119,"internal_node_id":"0.0-42.0","task_version":"test-retest"},{"Rune":"rune_02_os","Hex":"#ffcc3399","Correct":32,"Choice":32,"RT":493.03000001236796,"Accuracy":1,"Outcome":"+10","Keys":[1993.1499999947846],"TotalKeys":1,"Block":1,"Trial":36,"Robot":1,"Valence":"Win","Action":"Go","Sham":0,"Color":"yellow","trial_type":"pit-trial","trial_index":54,"time_elapsed":527117,"internal_node_id":"0.0-43.0","task_version":"test-retest"},{"Rune":"rune_02_os","Hex":"#ffcc3399","Correct":32,"Choice":32,"RT":991.97500012815,"Accuracy":1,"Outcome":"+10","Keys":[2493.050000164658],"TotalKeys":1,"Block":1,"Trial":37,"Robot":1,"Valence":"Win","Action":"Go","Sham":0,"Color":"yellow","trial_type":"pit-trial","trial_index":55,"time_elapsed":530617,"internal_node_id":"0.0-44.0","task_version":"test-retest"},{"Rune":"rune_02_raido","Hex":"#3366ff99","Correct":32,"Choice":32,"RT":892.8800001740456,"Accuracy":1,"Outcome":"-1","Keys":[2393.5650000348687],"TotalKeys":1,"Block":1,"Trial":38,"Robot":3,"Valence":"Lose","Action":"Go","Sham":0,"Color":"blue","trial_type":"pit-trial","trial_index":56,"time_elapsed":534018,"internal_node_id":"0.0-45.0","task_version":"test-retest"},{"Rune":"rune_02_haglaz","Hex":"#ffcc3399","Correct":-1,"Choice":32,"RT":787.3150003142655,"Accuracy":0,"Outcome":"+1","Keys":[2288.034999743104],"TotalKeys":1,"Block":1,"Trial":39,"Robot":2,"Valence":"Win","Action":"No-Go","Sham":0,"Color":"yellow","trial_type":"pit-trial","trial_index":57,"time_elapsed":537312,"internal_node_id":"0.0-46.0","task_version":"test-retest"},{"Rune":"rune_02_cen","Hex":"#3366ff99","Correct":-1,"Choice":-1,"RT":-1,"Accuracy":1,"Outcome":"-10","Keys":[],"TotalKeys":0,"Block":1,"Trial":40,"Robot":4,"Valence":"Lose","Action":"No-Go","Sham":1,"Color":"blue","trial_type":"pit-trial","trial_index":58,"time_elapsed":541324,"internal_node_id":"0.0-47.0","task_version":"test-retest"},{"Rune":"rune_02_raido","Hex":"#3366ff99","Correct":32,"Choice":-1,"RT":-1,"Accuracy":0,"Outcome":"-10","Keys":[3089.1600004397333],"TotalKeys":1,"Block":1,"Trial":41,"Robot":3,"Valence":"Lose","Action":"Go","Sham":0,"Color":"blue","trial_type":"pit-trial","trial_index":59,"time_elapsed":545337,"internal_node_id":"0.0-48.0","task_version":"test-retest"},{"Rune":"rune_02_os","Hex":"#ffcc3399","Correct":32,"Choice":32,"RT":498.9700000733137,"Accuracy":1,"Outcome":"+10","Keys":[1999.5099999941885],"TotalKeys":1,"Block":1,"Trial":42,"Robot":1,"Valence":"Win","Action":"Go","Sham":0,"Color":"yellow","trial_type":"pit-trial","trial_index":60,"time_elapsed":548342,"internal_node_id":"0.0-49.0","task_version":"test-retest"},{"Rune":"rune_02_haglaz","Hex":"#ffcc3399","Correct":-1,"Choice":32,"RT":725.6050002761185,"Accuracy":0,"Outcome":"+1","Keys":[2225.910000037402],"TotalKeys":1,"Block":1,"Trial":43,"Robot":2,"Valence":"Win","Action":"No-Go","Sham":0,"Color":"yellow","trial_type":"pit-trial","trial_index":61,"time_elapsed":551575,"internal_node_id":"0.0-50.0","task_version":"test-retest"},{"Rune":"rune_02_cen","Hex":"#3366ff99","Correct":-1,"Choice":32,"RT":842.9999998770654,"Accuracy":0,"Outcome":"-1","Keys":[2344.3249999545515],"TotalKeys":1,"Block":1,"Trial":44,"Robot":4,"Valence":"Lose","Action":"No-Go","Sham":1,"Color":"blue","trial_type":"pit-trial","trial_index":62,"time_elapsed":554925,"internal_node_id":"0.0-51.0","task_version":"test-retest"},{"Rune":"rune_02_haglaz","Hex":"#ffcc3399","Correct":-1,"Choice":32,"RT":731.9749998860061,"Accuracy":0,"Outcome":"+1","Keys":[2232.164999935776],"TotalKeys":1,"Block":1,"Trial":45,"Robot":2,"Valence":"Win","Action":"No-Go","Sham":0,"Color":"yellow","trial_type":"pit-trial","trial_index":63,"time_elapsed":558164,"internal_node_id":"0.0-52.0","task_version":"test-retest"},{"Rune":"rune_02_os","Hex":"#ffcc3399","Correct":32,"Choice":32,"RT":455.1699999719858,"Accuracy":1,"Outcome":"+10","Keys":[1956.050000153482],"TotalKeys":1,"Block":1,"Trial":46,"Robot":1,"Valence":"Win","Action":"Go","Sham":0,"Color":"yellow","trial_type":"pit-trial","trial_index":64,"time_elapsed":561125,"internal_node_id":"0.0-53.0","task_version":"test-retest"},{"Rune":"rune_02_cen","Hex":"#3366ff99","Correct":-1,"Choice":-1,"RT":-1,"Accuracy":1,"Outcome":"-1","Keys":[],"TotalKeys":0,"Block":1,"Trial":47,"Robot":4,"Valence":"Lose","Action":"No-Go","Sham":0,"Color":"blue","trial_type":"pit-trial","trial_index":65,"time_elapsed":565137,"internal_node_id":"0.0-54.0","task_version":"test-retest"},{"Rune":"rune_02_raido","Hex":"#3366ff99","Correct":32,"Choice":32,"RT":751.3449997641146,"Accuracy":1,"Outcome":"-1","Keys":[2253.074999898672],"TotalKeys":1,"Block":1,"Trial":48,"Robot":3,"Valence":"Lose","Action":"Go","Sham":0,"Color":"blue","trial_type":"pit-trial","trial_index":66,"time_elapsed":568393,"internal_node_id":"0.0-55.0","task_version":"test-retest"},{"Rune":"rune_02_os","Hex":"#ffcc3399","Correct":32,"Choice":32,"RT":752.9850001446903,"Accuracy":1,"Outcome":"+10","Keys":[2253.794999793172],"TotalKeys":1,"Block":1,"Trial":49,"Robot":1,"Valence":"Win","Action":"Go","Sham":0,"Color":"yellow","trial_type":"pit-trial","trial_index":67,"time_elapsed":571654,"internal_node_id":"0.0-56.0","task_version":"test-retest"},{"Rune":"rune_02_raido","Hex":"#3366ff99","Correct":32,"Choice":32,"RT":768.9400003291667,"Accuracy":1,"Outcome":"-1","Keys":[2270.3249999321997],"TotalKeys":1,"Block":1,"Trial":50,"Robot":3,"Valence":"Lose","Action":"Go","Sham":0,"Color":"blue","trial_type":"pit-trial","trial_index":68,"time_elapsed":574933,"internal_node_id":"0.0-57.0","task_version":"test-retest"},{"Rune":"rune_02_cen","Hex":"#3366ff99","Correct":-1,"Choice":-1,"RT":-1,"Accuracy":1,"Outcome":"-1","Keys":[],"TotalKeys":0,"Block":1,"Trial":51,"Robot":4,"Valence":"Lose","Action":"No-Go","Sham":0,"Color":"blue","trial_type":"pit-trial","trial_index":69,"time_elapsed":578943,"internal_node_id":"0.0-58.0","task_version":"test-retest"},{"Rune":"rune_02_haglaz","Hex":"#ffcc3399","Correct":-1,"Choice":-1,"RT":-1,"Accuracy":1,"Outcome":"+10","Keys":[],"TotalKeys":0,"Block":1,"Trial":52,"Robot":2,"Valence":"Win","Action":"No-Go","Sham":0,"Color":"yellow","trial_type":"pit-trial","trial_index":70,"time_elapsed":582954,"internal_node_id":"0.0-59.0","task_version":"test-retest"},{"Rune":"rune_02_raido","Hex":"#3366ff99","Correct":32,"Choice":32,"RT":710.3650001809001,"Accuracy":1,"Outcome":"-10","Keys":[2210.4199999012053],"TotalKeys":1,"Block":1,"Trial":53,"Robot":3,"Valence":"Lose","Action":"Go","Sham":1,"Color":"blue","trial_type":"pit-trial","trial_index":71,"time_elapsed":586172,"internal_node_id":"0.0-60.0","task_version":"test-retest"},{"Rune":"rune_02_haglaz","Hex":"#ffcc3399","Correct":-1,"Choice":-1,"RT":-1,"Accuracy":1,"Outcome":"+1","Keys":[],"TotalKeys":0,"Block":1,"Trial":54,"Robot":2,"Valence":"Win","Action":"No-Go","Sham":1,"Color":"yellow","trial_type":"pit-trial","trial_index":72,"time_elapsed":590182,"internal_node_id":"0.0-61.0","task_version":"test-retest"},{"Rune":"rune_02_cen","Hex":"#3366ff99","Correct":-1,"Choice":-1,"RT":-1,"Accuracy":1,"Outcome":"-1","Keys":[3086.6700001060963],"TotalKeys":1,"Block":1,"Trial":55,"Robot":4,"Valence":"Lose","Action":"No-Go","Sham":0,"Color":"blue","trial_type":"pit-trial","trial_index":73,"time_elapsed":594192,"internal_node_id":"0.0-62.0","task_version":"test-retest"},{"Rune":"rune_02_os","Hex":"#ffcc3399","Correct":32,"Choice":32,"RT":496.7000000178814,"Accuracy":1,"Outcome":"+10","Keys":[1997.8499999269843],"TotalKeys":1,"Block":1,"Trial":56,"Robot":1,"Valence":"Win","Action":"Go","Sham":0,"Color":"yellow","trial_type":"pit-trial","trial_index":74,"time_elapsed":597197,"internal_node_id":"0.0-63.0","task_version":"test-retest"},{"Rune":"rune_02_os","Hex":"#ffcc3399","Correct":32,"Choice":32,"RT":466.38999972492456,"Accuracy":1,"Outcome":"+1","Keys":[1966.6100000031292],"TotalKeys":1,"Block":1,"Trial":57,"Robot":1,"Valence":"Win","Action":"Go","Sham":1,"Color":"yellow","trial_type":"pit-trial","trial_index":75,"time_elapsed":600168,"internal_node_id":"0.0-64.0","task_version":"test-retest"},{"Rune":"rune_02_haglaz","Hex":"#ffcc3399","Correct":-1,"Choice":32,"RT":1031.3049997203052,"Accuracy":0,"Outcome":"+1","Keys":[2533.9449997991323],"TotalKeys":1,"Block":1,"Trial":58,"Robot":2,"Valence":"Win","Action":"No-Go","Sham":0,"Color":"yellow","trial_type":"pit-trial","trial_index":76,"time_elapsed":603708,"internal_node_id":"0.0-65.0","task_version":"test-retest"},{"Rune":"rune_02_raido","Hex":"#3366ff99","Correct":32,"Choice":-1,"RT":-1,"Accuracy":0,"Outcome":"-10","Keys":[],"TotalKeys":0,"Block":1,"Trial":59,"Robot":3,"Valence":"Lose","Action":"Go","Sham":0,"Color":"blue","trial_type":"pit-trial","trial_index":77,"time_elapsed":607720,"internal_node_id":"0.0-66.0","task_version":"test-retest"},{"Rune":"rune_02_cen","Hex":"#3366ff99","Correct":-1,"Choice":32,"RT":1181.4649999141693,"Accuracy":0,"Outcome":"-10","Keys":[2681.7899998277426],"TotalKeys":1,"Block":1,"Trial":60,"Robot":4,"Valence":"Lose","Action":"No-Go","Sham":0,"Color":"blue","trial_type":"pit-trial","trial_index":78,"time_elapsed":611407,"internal_node_id":"0.0-67.0","task_version":"test-retest"},{"value":false,"trial_type":"call-function","trial_index":79,"time_elapsed":611410,"internal_node_id":"0.0-68.0","task_version":"test-retest"},{"view_history":"[{\"page_index\":0,\"viewing_time\":1964.8049999959767},{\"page_index\":1,\"viewing_time\":1176.8050002865493}]","rt":3142.1700003556907,"trial_type":"pit-instructions","trial_index":80,"time_elapsed":614553,"internal_node_id":"0.0-69.0","task_version":"test-retest"},{"Rune":"rune_02_os","Hex":"#ffcc3399","Correct":32,"Choice":32,"RT":432.0000000298023,"Accuracy":1,"Outcome":"+10","Keys":[1932.104999665171],"TotalKeys":1,"Block":1,"Trial":61,"Robot":1,"Valence":"Win","Action":"Go","Sham":0,"Color":"yellow","trial_type":"pit-trial","trial_index":81,"time_elapsed":617491,"internal_node_id":"0.0-70.0","task_version":"test-retest"},{"Rune":"rune_02_haglaz","Hex":"#ffcc3399","Correct":-1,"Choice":32,"RT":910.4700000025332,"Accuracy":0,"Outcome":"+10","Keys":[2411.720000207424],"TotalKeys":1,"Block":1,"Trial":62,"Robot":2,"Valence":"Win","Action":"No-Go","Sham":1,"Color":"yellow","trial_type":"pit-trial","trial_index":82,"time_elapsed":620910,"internal_node_id":"0.0-71.0","task_version":"test-retest"},{"Rune":"rune_02_cen","Hex":"#3366ff99","Correct":-1,"Choice":32,"RT":804.1399996727705,"Accuracy":0,"Outcome":"-10","Keys":[2304.394999984652],"TotalKeys":1,"Block":1,"Trial":63,"Robot":4,"Valence":"Lose","Action":"No-Go","Sham":0,"Color":"blue","trial_type":"pit-trial","trial_index":83,"time_elapsed":624221,"internal_node_id":"0.0-72.0","task_version":"test-retest"},{"Rune":"rune_02_raido","Hex":"#3366ff99","Correct":32,"Choice":32,"RT":334.7249999642372,"Accuracy":1,"Outcome":"-1","Keys":[1835.254999808967],"TotalKeys":1,"Block":1,"Trial":64,"Robot":3,"Valence":"Lose","Action":"Go","Sham":0,"Color":"blue","trial_type":"pit-trial","trial_index":84,"time_elapsed":627064,"internal_node_id":"0.0-73.0","task_version":"test-retest"},{"Rune":"rune_02_haglaz","Hex":"#ffcc3399","Correct":-1,"Choice":32,"RT":591.5649998933077,"Accuracy":0,"Outcome":"+1","Keys":[2094.2999999970198],"TotalKeys":1,"Block":1,"Trial":65,"Robot":2,"Valence":"Win","Action":"No-Go","Sham":0,"Color":"yellow","trial_type":"pit-trial","trial_index":85,"time_elapsed":630164,"internal_node_id":"0.0-74.0","task_version":"test-retest"},{"Rune":"rune_02_raido","Hex":"#3366ff99","Correct":32,"Choice":32,"RT":956.83000003919,"Accuracy":1,"Outcome":"-10","Keys":[2458.0200002528727],"TotalKeys":1,"Block":1,"Trial":66,"Robot":3,"Valence":"Lose","Action":"Go","Sham":1,"Color":"blue","trial_type":"pit-trial","trial_index":86,"time_elapsed":633629,"internal_node_id":"0.0-75.0","task_version":"test-retest"},{"Rune":"rune_02_os","Hex":"#ffcc3399","Correct":32,"Choice":32,"RT":441.9400002807379,"Accuracy":1,"Outcome":"+10","Keys":[1942.195000126958],"TotalKeys":1,"Block":1,"Trial":67,"Robot":1,"Valence":"Win","Action":"Go","Sham":0,"Color":"yellow","trial_type":"pit-trial","trial_index":87,"time_elapsed":636578,"internal_node_id":"0.0-76.0","task_version":"test-retest"},{"Rune":"rune_02_cen","Hex":"#3366ff99","Correct":-1,"Choice":32,"RT":758.0800000578165,"Accuracy":0,"Outcome":"-10","Keys":[2258.1599997356534],"TotalKeys":1,"Block":1,"Trial":68,"Robot":4,"Valence":"Lose","Action":"No-Go","Sham":0,"Color":"blue","trial_type":"pit-trial","trial_index":88,"time_elapsed":639843,"internal_node_id":"0.0-77.0","task_version":"test-retest"},{"Rune":"rune_02_haglaz","Hex":"#ffcc3399","Correct":-1,"Choice":-1,"RT":-1,"Accuracy":1,"Outcome":"+10","Keys":[],"TotalKeys":0,"Block":1,"Trial":69,"Robot":2,"Valence":"Win","Action":"No-Go","Sham":0,"Color":"yellow","trial_type":"pit-trial","trial_index":89,"time_elapsed":643853,"internal_node_id":"0.0-78.0","task_version":"test-retest"},{"Rune":"rune_02_os","Hex":"#ffcc3399","Correct":32,"Choice":32,"RT":576.9199999049306,"Accuracy":1,"Outcome":"+1","Keys":[2077.3050002753735],"TotalKeys":1,"Block":1,"Trial":70,"Robot":1,"Valence":"Win","Action":"Go","Sham":1,"Color":"yellow","trial_type":"pit-trial","trial_index":90,"time_elapsed":646937,"internal_node_id":"0.0-79.0","task_version":"test-retest"},{"Rune":"rune_02_raido","Hex":"#3366ff99","Correct":32,"Choice":32,"RT":971.1649999953806,"Accuracy":1,"Outcome":"-1","Keys":[2471.3449999690056],"TotalKeys":1,"Block":1,"Trial":71,"Robot":3,"Valence":"Lose","Action":"Go","Sham":0,"Color":"blue","trial_type":"pit-trial","trial_index":91,"time_elapsed":650415,"internal_node_id":"0.0-80.0","task_version":"test-retest"},{"Rune":"rune_02_cen","Hex":"#3366ff99","Correct":-1,"Choice":-1,"RT":-1,"Accuracy":1,"Outcome":"-1","Keys":[],"TotalKeys":0,"Block":1,"Trial":72,"Robot":4,"Valence":"Lose","Action":"No-Go","Sham":0,"Color":"blue","trial_type":"pit-trial","trial_index":92,"time_elapsed":654425,"internal_node_id":"0.0-81.0","task_version":"test-retest"},{"Rune":"rune_02_cen","Hex":"#3366ff99","Correct":-1,"Choice":-1,"RT":-1,"Accuracy":1,"Outcome":"-10","Keys":[],"TotalKeys":0,"Block":1,"Trial":73,"Robot":4,"Valence":"Lose","Action":"No-Go","Sham":1,"Color":"blue","trial_type":"pit-trial","trial_index":93,"time_elapsed":658436,"internal_node_id":"0.0-82.0","task_version":"test-retest"},{"Rune":"rune_02_haglaz","Hex":"#ffcc3399","Correct":-1,"Choice":32,"RT":786.2550001591444,"Accuracy":0,"Outcome":"+1","Keys":[2286.725000012666],"TotalKeys":1,"Block":1,"Trial":74,"Robot":2,"Valence":"Win","Action":"No-Go","Sham":0,"Color":"yellow","trial_type":"pit-trial","trial_index":94,"time_elapsed":661730,"internal_node_id":"0.0-83.0","task_version":"test-retest"},{"Rune":"rune_02_os","Hex":"#ffcc3399","Correct":32,"Choice":32,"RT":498.8750000484288,"Accuracy":1,"Outcome":"+10","Keys":[1999.030000064522],"TotalKeys":1,"Block":1,"Trial":75,"Robot":1,"Valence":"Win","Action":"Go","Sham":0,"Color":"yellow","trial_type":"pit-trial","trial_index":95,"time_elapsed":664733,"internal_node_id":"0.0-84.0","task_version":"test-retest"},{"Rune":"rune_02_raido","Hex":"#3366ff99","Correct":32,"Choice":32,"RT":784.7799998708069,"Accuracy":1,"Outcome":"-1","Keys":[2285.850000102073],"TotalKeys":1,"Block":1,"Trial":76,"Robot":3,"Valence":"Lose","Action":"Go","Sham":0,"Color":"blue","trial_type":"pit-trial","trial_index":96,"time_elapsed":668026,"internal_node_id":"0.0-85.0","task_version":"test-retest"},{"Rune":"rune_02_raido","Hex":"#3366ff99","Correct":32,"Choice":32,"RT":558.3700002171099,"Accuracy":1,"Outcome":"-1","Keys":[2058.524999767542],"TotalKeys":1,"Block":1,"Trial":77,"Robot":3,"Valence":"Lose","Action":"Go","Sham":0,"Color":"blue","trial_type":"pit-trial","trial_index":97,"time_elapsed":671091,"internal_node_id":"0.0-86.0","task_version":"test-retest"},{"Rune":"rune_02_haglaz","Hex":"#ffcc3399","Correct":-1,"Choice":-1,"RT":-1,"Accuracy":1,"Outcome":"+10","Keys":[],"TotalKeys":0,"Block":1,"Trial":78,"Robot":2,"Valence":"Win","Action":"No-Go","Sham":0,"Color":"yellow","trial_type":"pit-trial","trial_index":98,"time_elapsed":675099,"internal_node_id":"0.0-87.0","task_version":"test-retest"},{"Rune":"rune_02_cen","Hex":"#3366ff99","Correct":-1,"Choice":-1,"RT":-1,"Accuracy":1,"Outcome":"-1","Keys":[3119.159999769181],"TotalKeys":1,"Block":1,"Trial":79,"Robot":4,"Valence":"Lose","Action":"No-Go","Sham":0,"Color":"blue","trial_type":"pit-trial","trial_index":99,"time_elapsed":679110,"internal_node_id":"0.0-88.0","task_version":"test-retest"},{"Rune":"rune_02_os","Hex":"#ffcc3399","Correct":32,"Choice":32,"RT":593.945000320673,"Accuracy":1,"Outcome":"+10","Keys":[2093.9750000834465],"TotalKeys":1,"Block":1,"Trial":80,"Robot":1,"Valence":"Win","Action":"Go","Sham":0,"Color":"yellow","trial_type":"pit-trial","trial_index":100,"time_elapsed":682210,"internal_node_id":"0.0-89.0","task_version":"test-retest"},{"Rune":"rune_02_cen","Hex":"#3366ff99","Correct":-1,"Choice":32,"RT":687.7249996177852,"Accuracy":0,"Outcome":"-10","Keys":[2188.8549998402596],"TotalKeys":1,"Block":1,"Trial":81,"Robot":4,"Valence":"Lose","Action":"No-Go","Sham":0,"Color":"blue","trial_type":"pit-trial","trial_index":101,"time_elapsed":685406,"internal_node_id":"0.0-90.0","task_version":"test-retest"},{"Rune":"rune_02_os","Hex":"#ffcc3399","Correct":32,"Choice":32,"RT":491.3900000974536,"Accuracy":1,"Outcome":"+10","Keys":[1991.4899999275804],"TotalKeys":1,"Block":1,"Trial":82,"Robot":1,"Valence":"Win","Action":"Go","Sham":0,"Color":"yellow","trial_type":"pit-trial","trial_index":102,"time_elapsed":688406,"internal_node_id":"0.0-91.0","task_version":"test-retest"},{"Rune":"rune_02_raido","Hex":"#3366ff99","Correct":32,"Choice":32,"RT":869.5550002157688,"Accuracy":1,"Outcome":"-1","Keys":[2369.8200001381338],"TotalKeys":1,"Block":1,"Trial":83,"Robot":3,"Valence":"Lose","Action":"Go","Sham":0,"Color":"blue","trial_type":"pit-trial","trial_index":103,"time_elapsed":691782,"internal_node_id":"0.0-92.0","task_version":"test-retest"},{"Rune":"rune_02_haglaz","Hex":"#ffcc3399","Correct":-1,"Choice":-1,"RT":-1,"Accuracy":1,"Outcome":"+10","Keys":[],"TotalKeys":0,"Block":1,"Trial":84,"Robot":2,"Valence":"Win","Action":"No-Go","Sham":0,"Color":"yellow","trial_type":"pit-trial","trial_index":104,"time_elapsed":695795,"internal_node_id":"0.0-93.0","task_version":"test-retest"},{"Rune":"rune_02_os","Hex":"#ffcc3399","Correct":32,"Choice":32,"RT":549.4750002399087,"Accuracy":1,"Outcome":"+1","Keys":[2049.5799998752773],"TotalKeys":1,"Block":1,"Trial":85,"Robot":1,"Valence":"Win","Action":"Go","Sham":1,"Color":"yellow","trial_type":"pit-trial","trial_index":105,"time_elapsed":698850,"internal_node_id":"0.0-94.0","task_version":"test-retest"},{"Rune":"rune_02_raido","Hex":"#3366ff99","Correct":32,"Choice":32,"RT":711.1749998293817,"Accuracy":1,"Outcome":"-1","Keys":[2211.244999896735],"TotalKeys":1,"Block":1,"Trial":86,"Robot":3,"Valence":"Lose","Action":"Go","Sham":0,"Color":"blue","trial_type":"pit-trial","trial_index":106,"time_elapsed":702068,"internal_node_id":"0.0-95.0","task_version":"test-retest"},{"Rune":"rune_02_haglaz","Hex":"#ffcc3399","Correct":-1,"Choice":-1,"RT":-1,"Accuracy":1,"Outcome":"+10","Keys":[],"TotalKeys":0,"Block":1,"Trial":87,"Robot":2,"Valence":"Win","Action":"No-Go","Sham":0,"Color":"yellow","trial_type":"pit-trial","trial_index":107,"time_elapsed":706073,"internal_node_id":"0.0-96.0","task_version":"test-retest"},{"Rune":"rune_02_cen","Hex":"#3366ff99","Correct":-1,"Choice":32,"RT":603.2899999991059,"Accuracy":0,"Outcome":"-10","Keys":[2103.540000040084],"TotalKeys":1,"Block":1,"Trial":88,"Robot":4,"Valence":"Lose","Action":"No-Go","Sham":0,"Color":"blue","trial_type":"pit-trial","trial_index":108,"time_elapsed":709183,"internal_node_id":"0.0-97.0","task_version":"test-retest"},{"Rune":"rune_02_raido","Hex":"#3366ff99","Correct":32,"Choice":32,"RT":516.9549998827279,"Accuracy":1,"Outcome":"-10","Keys":[2018.4899996966124],"TotalKeys":1,"Block":1,"Trial":89,"Robot":3,"Valence":"Lose","Action":"Go","Sham":1,"Color":"blue","trial_type":"pit-trial","trial_index":109,"time_elapsed":712207,"internal_node_id":"0.0-98.0","task_version":"test-retest"},{"Rune":"rune_02_haglaz","Hex":"#ffcc3399","Correct":-1,"Choice":-1,"RT":-1,"Accuracy":1,"Outcome":"+10","Keys":[],"TotalKeys":0,"Block":1,"Trial":90,"Robot":2,"Valence":"Win","Action":"No-Go","Sham":0,"Color":"yellow","trial_type":"pit-trial","trial_index":110,"time_elapsed":716219,"internal_node_id":"0.0-99.0","task_version":"test-retest"},{"Rune":"rune_02_cen","Hex":"#3366ff99","Correct":-1,"Choice":-1,"RT":-1,"Accuracy":1,"Outcome":"-1","Keys":[],"TotalKeys":0,"Block":1,"Trial":91,"Robot":4,"Valence":"Lose","Action":"No-Go","Sham":0,"Color":"blue","trial_type":"pit-trial","trial_index":111,"time_elapsed":720231,"internal_node_id":"0.0-100.0","task_version":"test-retest"},{"Rune":"rune_02_os","Hex":"#ffcc3399","Correct":32,"Choice":32,"RT":488.36500011384487,"Accuracy":1,"Outcome":"+10","Keys":[1988.5700000450015],"TotalKeys":1,"Block":1,"Trial":92,"Robot":1,"Valence":"Win","Action":"Go","Sham":0,"Color":"yellow","trial_type":"pit-trial","trial_index":112,"time_elapsed":723225,"internal_node_id":"0.0-101.0","task_version":"test-retest"},{"Rune":"rune_02_raido","Hex":"#3366ff99","Correct":32,"Choice":32,"RT":628.715000115335,"Accuracy":1,"Outcome":"-1","Keys":[2129.0400000289083],"TotalKeys":1,"Block":1,"Trial":93,"Robot":3,"Valence":"Lose","Action":"Go","Sham":0,"Color":"blue","trial_type":"pit-trial","trial_index":113,"time_elapsed":726361,"internal_node_id":"0.0-102.0","task_version":"test-retest"},{"Rune":"rune_02_haglaz","Hex":"#ffcc3399","Correct":-1,"Choice":-1,"RT":-1,"Accuracy":1,"Outcome":"+10","Keys":[],"TotalKeys":0,"Block":1,"Trial":94,"Robot":2,"Valence":"Win","Action":"No-Go","Sham":0,"Color":"yellow","trial_type":"pit-trial","trial_index":114,"time_elapsed":730373,"internal_node_id":"0.0-103.0","task_version":"test-retest"},{"Rune":"rune_02_cen","Hex":"#3366ff99","Correct":-1,"Choice":-1,"RT":-1,"Accuracy":1,"Outcome":"-10","Keys":[],"TotalKeys":0,"Block":1,"Trial":95,"Robot":4,"Valence":"Lose","Action":"No-Go","Sham":1,"Color":"blue","trial_type":"pit-trial","trial_index":115,"time_elapsed":734387,"internal_node_id":"0.0-104.0","task_version":"test-retest"},{"Rune":"rune_02_os","Hex":"#ffcc3399","Correct":32,"Choice":32,"RT":509.50999977067113,"Accuracy":1,"Outcome":"+10","Keys":[2010.3649999946356],"TotalKeys":1,"Block":1,"Trial":96,"Robot":1,"Valence":"Win","Action":"Go","Sham":0,"Color":"yellow","trial_type":"pit-trial","trial_index":116,"time_elapsed":737401,"internal_node_id":"0.0-105.0","task_version":"test-retest"},{"Rune":"rune_02_raido","Hex":"#3366ff99","Correct":32,"Choice":32,"RT":458.2200003787875,"Accuracy":1,"Outcome":"-1","Keys":[1958.5450002923608],"TotalKeys":1,"Block":1,"Trial":97,"Robot":3,"Valence":"Lose","Action":"Go","Sham":0,"Color":"blue","trial_type":"pit-trial","trial_index":117,"time_elapsed":740364,"internal_node_id":"0.0-106.0","task_version":"test-retest"},{"Rune":"rune_02_cen","Hex":"#3366ff99","Correct":-1,"Choice":-1,"RT":-1,"Accuracy":1,"Outcome":"-1","Keys":[],"TotalKeys":0,"Block":1,"Trial":98,"Robot":4,"Valence":"Lose","Action":"No-Go","Sham":0,"Color":"blue","trial_type":"pit-trial","trial_index":118,"time_elapsed":744375,"internal_node_id":"0.0-107.0","task_version":"test-retest"},{"Rune":"rune_02_haglaz","Hex":"#ffcc3399","Correct":-1,"Choice":-1,"RT":-1,"Accuracy":1,"Outcome":"+1","Keys":[],"TotalKeys":0,"Block":1,"Trial":99,"Robot":2,"Valence":"Win","Action":"No-Go","Sham":1,"Color":"yellow","trial_type":"pit-trial","trial_index":119,"time_elapsed":748386,"internal_node_id":"0.0-108.0","task_version":"test-retest"},{"Rune":"rune_02_os","Hex":"#ffcc3399","Correct":32,"Choice":32,"RT":457.5350000523031,"Accuracy":1,"Outcome":"+10","Keys":[1957.6500002294779],"TotalKeys":1,"Block":1,"Trial":100,"Robot":1,"Valence":"Win","Action":"Go","Sham":0,"Color":"yellow","trial_type":"pit-trial","trial_index":120,"time_elapsed":751352,"internal_node_id":"0.0-109.0","task_version":"test-retest"},{"Rune":"rune_02_os","Hex":"#ffcc3399","Correct":32,"Choice":32,"RT":610.4799997992814,"Accuracy":1,"Outcome":"+1","Keys":[2111.2799998372793],"TotalKeys":1,"Block":1,"Trial":101,"Robot":1,"Valence":"Win","Action":"Go","Sham":1,"Color":"yellow","trial_type":"pit-trial","trial_index":121,"time_elapsed":754470,"internal_node_id":"0.0-110.0","task_version":"test-retest"},{"Rune":"rune_02_raido","Hex":"#3366ff99","Correct":32,"Choice":32,"RT":597.9900001548231,"Accuracy":1,"Outcome":"-1","Keys":[2098.1350000947714],"TotalKeys":1,"Block":1,"Trial":102,"Robot":3,"Valence":"Lose","Action":"Go","Sham":0,"Color":"blue","trial_type":"pit-trial","trial_index":122,"time_elapsed":757575,"internal_node_id":"0.0-111.0","task_version":"test-retest"},{"Rune":"rune_02_haglaz","Hex":"#ffcc3399","Correct":-1,"Choice":-1,"RT":-1,"Accuracy":1,"Outcome":"+1","Keys":[],"TotalKeys":0,"Block":1,"Trial":103,"Robot":2,"Valence":"Win","Action":"No-Go","Sham":1,"Color":"yellow","trial_type":"pit-trial","trial_index":123,"time_elapsed":761587,"internal_node_id":"0.0-112.0","task_version":"test-retest"},{"Rune":"rune_02_cen","Hex":"#3366ff99","Correct":-1,"Choice":-1,"RT":-1,"Accuracy":1,"Outcome":"-10","Keys":[],"TotalKeys":0,"Block":1,"Trial":104,"Robot":4,"Valence":"Lose","Action":"No-Go","Sham":1,"Color":"blue","trial_type":"pit-trial","trial_index":124,"time_elapsed":765594,"internal_node_id":"0.0-113.0","task_version":"test-retest"},{"Rune":"rune_02_raido","Hex":"#3366ff99","Correct":32,"Choice":32,"RT":490.920000243932,"Accuracy":1,"Outcome":"-10","Keys":[1991.365000139922],"TotalKeys":1,"Block":1,"Trial":105,"Robot":3,"Valence":"Lose","Action":"Go","Sham":1,"Color":"blue","trial_type":"pit-trial","trial_index":125,"time_elapsed":768590,"internal_node_id":"0.0-114.0","task_version":"test-retest"},{"Rune":"rune_02_haglaz","Hex":"#ffcc3399","Correct":-1,"Choice":-1,"RT":-1,"Accuracy":1,"Outcome":"+10","Keys":[],"TotalKeys":0,"Block":1,"Trial":106,"Robot":2,"Valence":"Win","Action":"No-Go","Sham":0,"Color":"yellow","trial_type":"pit-trial","trial_index":126,"time_elapsed":772599,"internal_node_id":"0.0-115.0","task_version":"test-retest"},{"Rune":"rune_02_cen","Hex":"#3366ff99","Correct":-1,"Choice":-1,"RT":-1,"Accuracy":1,"Outcome":"-1","Keys":[],"TotalKeys":0,"Block":1,"Trial":107,"Robot":4,"Valence":"Lose","Action":"No-Go","Sham":0,"Color":"blue","trial_type":"pit-trial","trial_index":127,"time_elapsed":776611,"internal_node_id":"0.0-116.0","task_version":"test-retest"},{"Rune":"rune_02_os","Hex":"#ffcc3399","Correct":32,"Choice":32,"RT":428.82499983534217,"Accuracy":1,"Outcome":"+10","Keys":[1929.1550000198185],"TotalKeys":1,"Block":1,"Trial":108,"Robot":1,"Valence":"Win","Action":"Go","Sham":0,"Color":"yellow","trial_type":"pit-trial","trial_index":128,"time_elapsed":779545,"internal_node_id":"0.0-117.0","task_version":"test-retest"},{"Rune":"rune_02_cen","Hex":"#3366ff99","Correct":-1,"Choice":-1,"RT":-1,"Accuracy":1,"Outcome":"-1","Keys":[],"TotalKeys":0,"Block":1,"Trial":109,"Robot":4,"Valence":"Lose","Action":"No-Go","Sham":0,"Color":"blue","trial_type":"pit-trial","trial_index":129,"time_elapsed":783556,"internal_node_id":"0.0-118.0","task_version":"test-retest"},{"Rune":"rune_02_os","Hex":"#ffcc3399","Correct":32,"Choice":32,"RT":424.8399999924004,"Accuracy":1,"Outcome":"+10","Keys":[1925.1250000670552],"TotalKeys":1,"Block":1,"Trial":110,"Robot":1,"Valence":"Win","Action":"Go","Sham":0,"Color":"yellow","trial_type":"pit-trial","trial_index":130,"time_elapsed":786488,"internal_node_id":"0.0-119.0","task_version":"test-retest"},{"Rune":"rune_02_raido","Hex":"#3366ff99","Correct":32,"Choice":32,"RT":521.2449999526143,"Accuracy":1,"Outcome":"-1","Keys":[2021.9049998559058],"TotalKeys":1,"Block":1,"Trial":111,"Robot":3,"Valence":"Lose","Action":"Go","Sham":0,"Color":"blue","trial_type":"pit-trial","trial_index":131,"time_elapsed":789517,"internal_node_id":"0.0-120.0","task_version":"test-retest"},{"Rune":"rune_02_haglaz","Hex":"#ffcc3399","Correct":-1,"Choice":-1,"RT":-1,"Accuracy":1,"Outcome":"+10","Keys":[],"TotalKeys":0,"Block":1,"Trial":112,"Robot":2,"Valence":"Win","Action":"No-Go","Sham":0,"Color":"yellow","trial_type":"pit-trial","trial_index":132,"time_elapsed":793529,"internal_node_id":"0.0-121.0","task_version":"test-retest"},{"Rune":"rune_02_os","Hex":"#ffcc3399","Correct":32,"Choice":32,"RT":467.7149998024106,"Accuracy":1,"Outcome":"+10","Keys":[1969.5899998769164],"TotalKeys":1,"Block":1,"Trial":113,"Robot":1,"Valence":"Win","Action":"Go","Sham":0,"Color":"yellow","trial_type":"pit-trial","trial_index":133,"time_elapsed":796507,"internal_node_id":"0.0-122.0","task_version":"test-retest"},{"Rune":"rune_02_haglaz","Hex":"#ffcc3399","Correct":-1,"Choice":-1,"RT":-1,"Accuracy":1,"Outcome":"+10","Keys":[],"TotalKeys":0,"Block":1,"Trial":114,"Robot":2,"Valence":"Win","Action":"No-Go","Sham":0,"Color":"yellow","trial_type":"pit-trial","trial_index":134,"time_elapsed":800514,"internal_node_id":"0.0-123.0","task_version":"test-retest"},{"Rune":"rune_02_raido","Hex":"#3366ff99","Correct":32,"Choice":32,"RT":627.099999692291,"Accuracy":1,"Outcome":"-1","Keys":[2127.7649998664856],"TotalKeys":1,"Block":1,"Trial":115,"Robot":3,"Valence":"Lose","Action":"Go","Sham":0,"Color":"blue","trial_type":"pit-trial","trial_index":135,"time_elapsed":803649,"internal_node_id":"0.0-124.0","task_version":"test-retest"},{"Rune":"rune_02_cen","Hex":"#3366ff99","Correct":-1,"Choice":-1,"RT":-1,"Accuracy":1,"Outcome":"-1","Keys":[],"TotalKeys":0,"Block":1,"Trial":116,"Robot":4,"Valence":"Lose","Action":"No-Go","Sham":0,"Color":"blue","trial_type":"pit-trial","trial_index":136,"time_elapsed":807667,"internal_node_id":"0.0-125.0","task_version":"test-retest"},{"Rune":"rune_02_os","Hex":"#ffcc3399","Correct":32,"Choice":32,"RT":389.1800004057586,"Accuracy":1,"Outcome":"+10","Keys":[1891.499999910593],"TotalKeys":1,"Block":1,"Trial":117,"Robot":1,"Valence":"Win","Action":"Go","Sham":0,"Color":"yellow","trial_type":"pit-trial","trial_index":137,"time_elapsed":810567,"internal_node_id":"0.0-126.0","task_version":"test-retest"},{"Rune":"rune_02_haglaz","Hex":"#ffcc3399","Correct":-1,"Choice":-1,"RT":-1,"Accuracy":1,"Outcome":"+10","Keys":[],"TotalKeys":0,"Block":1,"Trial":118,"Robot":2,"Valence":"Win","Action":"No-Go","Sham":0,"Color":"yellow","trial_type":"pit-trial","trial_index":138,"time_elapsed":814575,"internal_node_id":"0.0-127.0","task_version":"test-retest"},{"Rune":"rune_02_raido","Hex":"#3366ff99","Correct":32,"Choice":32,"RT":498.33999993279576,"Accuracy":1,"Outcome":"-1","Keys":[2000.5649998784065],"TotalKeys":1,"Block":1,"Trial":119,"Robot":3,"Valence":"Lose","Action":"Go","Sham":0,"Color":"blue","trial_type":"pit-trial","trial_index":139,"time_elapsed":817581,"internal_node_id":"0.0-128.0","task_version":"test-retest"},{"Rune":"rune_02_cen","Hex":"#3366ff99","Correct":-1,"Choice":-1,"RT":-1,"Accuracy":1,"Outcome":"-1","Keys":[],"TotalKeys":0,"Block":1,"Trial":120,"Robot":4,"Valence":"Lose","Action":"No-Go","Sham":0,"Color":"blue","trial_type":"pit-trial","trial_index":140,"time_elapsed":821588,"internal_node_id":"0.0-129.0","task_version":"test-retest"},{"view_history":"[{\"page_index\":0,\"viewing_time\":2940.9900000318885},{\"page_index\":1,\"viewing_time\":4977.394999936223},{\"page_index\":2,\"viewing_time\":2697.7099999785423}]","rt":10616.72000028193,"trial_type":"pit-instructions","trial_index":141,"time_elapsed":832207,"internal_node_id":"0.0-130.0","task_version":"test-retest"},{"Rune":"rune_01_ingwaz","Hex":"#ffcc3399","Correct":-1,"Choice":32,"RT":805.23999966681,"Accuracy":0,"Outcome":"+1","Keys":[2305.535000283271],"TotalKeys":1,"Block":2,"Trial":121,"Robot":2,"Valence":"Win","Action":"No-Go","Sham":0,"Color":"yellow","trial_type":"pit-trial","trial_index":142,"time_elapsed":835520,"internal_node_id":"0.0-131.0","task_version":"test-retest"},{"Rune":"rune_01_ger","Hex":"#3366ff99","Correct":32,"Choice":-1,"RT":-1,"Accuracy":0,"Outcome":"-1","Keys":[],"TotalKeys":0,"Block":2,"Trial":122,"Robot":3,"Valence":"Lose","Action":"Go","Sham":1,"Color":"blue","trial_type":"pit-trial","trial_index":143,"time_elapsed":839529,"internal_node_id":"0.0-132.0","task_version":"test-retest"},{"Rune":"rune_01_ear","Hex":"#ffcc3399","Correct":32,"Choice":32,"RT":607.9899999313056,"Accuracy":1,"Outcome":"+1","Keys":[2108.129999600351],"TotalKeys":1,"Block":2,"Trial":123,"Robot":1,"Valence":"Win","Action":"Go","Sham":1,"Color":"yellow","trial_type":"pit-trial","trial_index":144,"time_elapsed":842643,"internal_node_id":"0.0-133.0","task_version":"test-retest"},{"Rune":"rune_01_yr","Hex":"#3366ff99","Correct":-1,"Choice":32,"RT":898.2400000095367,"Accuracy":0,"Outcome":"-1","Keys":[2399.4900002144277],"TotalKeys":1,"Block":2,"Trial":124,"Robot":4,"Valence":"Lose","Action":"No-Go","Sham":1,"Color":"blue","trial_type":"pit-trial","trial_index":145,"time_elapsed":846049,"internal_node_id":"0.0-134.0","task_version":"test-retest"},{"Rune":"rune_01_yr","Hex":"#3366ff99","Correct":-1,"Choice":32,"RT":456.0000002384186,"Accuracy":0,"Outcome":"-10","Keys":[1956.199999898672],"TotalKeys":1,"Block":2,"Trial":125,"Robot":4,"Valence":"Lose","Action":"No-Go","Sham":0,"Color":"blue","trial_type":"pit-trial","trial_index":146,"time_elapsed":849013,"internal_node_id":"0.0-135.0","task_version":"test-retest"},{"Rune":"rune_01_ingwaz","Hex":"#ffcc3399","Correct":-1,"Choice":-1,"RT":-1,"Accuracy":1,"Outcome":"+1","Keys":[],"TotalKeys":0,"Block":2,"Trial":126,"Robot":2,"Valence":"Win","Action":"No-Go","Sham":1,"Color":"yellow","trial_type":"pit-trial","trial_index":147,"time_elapsed":853025,"internal_node_id":"0.0-136.0","task_version":"test-retest"},{"Rune":"rune_01_ger","Hex":"#3366ff99","Correct":32,"Choice":-1,"RT":-1,"Accuracy":0,"Outcome":"-10","Keys":[],"TotalKeys":0,"Block":2,"Trial":127,"Robot":3,"Valence":"Lose","Action":"Go","Sham":0,"Color":"blue","trial_type":"pit-trial","trial_index":148,"time_elapsed":857036,"internal_node_id":"0.0-137.0","task_version":"test-retest"},{"Rune":"rune_01_ear","Hex":"#ffcc3399","Correct":32,"Choice":32,"RT":971.834999974817,"Accuracy":1,"Outcome":"+10","Keys":[2472.534999717027],"TotalKeys":1,"Block":2,"Trial":128,"Robot":1,"Valence":"Win","Action":"Go","Sham":0,"Color":"yellow","trial_type":"pit-trial","trial_index":149,"time_elapsed":860516,"internal_node_id":"0.0-138.0","task_version":"test-retest"},{"Rune":"rune_01_ger","Hex":"#3366ff99","Correct":32,"Choice":32,"RT":649.0050000138581,"Accuracy":1,"Outcome":"-1","Keys":[2149.630000349134],"TotalKeys":1,"Block":2,"Trial":129,"Robot":3,"Valence":"Lose","Action":"Go","Sham":0,"Color":"blue","trial_type":"pit-trial","trial_index":150,"time_elapsed":863672,"internal_node_id":"0.0-139.0","task_version":"test-retest"},{"Rune":"rune_01_ingwaz","Hex":"#ffcc3399","Correct":-1,"Choice":-1,"RT":-1,"Accuracy":1,"Outcome":"+10","Keys":[],"TotalKeys":0,"Block":2,"Trial":130,"Robot":2,"Valence":"Win","Action":"No-Go","Sham":0,"Color":"yellow","trial_type":"pit-trial","trial_index":151,"time_elapsed":867683,"internal_node_id":"0.0-140.0","task_version":"test-retest"},{"Rune":"rune_01_yr","Hex":"#3366ff99","Correct":-1,"Choice":-1,"RT":-1,"Accuracy":1,"Outcome":"-1","Keys":[],"TotalKeys":0,"Block":2,"Trial":131,"Robot":4,"Valence":"Lose","Action":"No-Go","Sham":0,"Color":"blue","trial_type":"pit-trial","trial_index":152,"time_elapsed":871695,"internal_node_id":"0.0-141.0","task_version":"test-retest"},{"Rune":"rune_01_ear","Hex":"#ffcc3399","Correct":32,"Choice":32,"RT":495.68499997258186,"Accuracy":1,"Outcome":"+10","Keys":[1996.4250000193715],"TotalKeys":1,"Block":2,"Trial":132,"Robot":1,"Valence":"Win","Action":"Go","Sham":0,"Color":"yellow","trial_type":"pit-trial","trial_index":153,"time_elapsed":874696,"internal_node_id":"0.0-142.0","task_version":"test-retest"},{"Rune":"rune_01_yr","Hex":"#3366ff99","Correct":-1,"Choice":-1,"RT":-1,"Accuracy":1,"Outcome":"-1","Keys":[],"TotalKeys":0,"Block":2,"Trial":133,"Robot":4,"Valence":"Lose","Action":"No-Go","Sham":0,"Color":"blue","trial_type":"pit-trial","trial_index":154,"time_elapsed":878707,"internal_node_id":"0.0-143.0","task_version":"test-retest"},{"Rune":"rune_01_ingwaz","Hex":"#ffcc3399","Correct":-1,"Choice":-1,"RT":-1,"Accuracy":1,"Outcome":"+10","Keys":[],"TotalKeys":0,"Block":2,"Trial":134,"Robot":2,"Valence":"Win","Action":"No-Go","Sham":0,"Color":"yellow","trial_type":"pit-trial","trial_index":155,"time_elapsed":882718,"internal_node_id":"0.0-144.0","task_version":"test-retest"},{"Rune":"rune_01_ear","Hex":"#ffcc3399","Correct":32,"Choice":32,"RT":482.6949997805059,"Accuracy":1,"Outcome":"+10","Keys":[1984.5599997788668],"TotalKeys":1,"Block":2,"Trial":135,"Robot":1,"Valence":"Win","Action":"Go","Sham":0,"Color":"yellow","trial_type":"pit-trial","trial_index":156,"time_elapsed":885708,"internal_node_id":"0.0-145.0","task_version":"test-retest"},{"Rune":"rune_01_ger","Hex":"#3366ff99","Correct":32,"Choice":32,"RT":800.9150000289083,"Accuracy":1,"Outcome":"-1","Keys":[2301.2199997901917],"TotalKeys":1,"Block":2,"Trial":136,"Robot":3,"Valence":"Lose","Action":"Go","Sham":0,"Color":"blue","trial_type":"pit-trial","trial_index":157,"time_elapsed":889016,"internal_node_id":"0.0-146.0","task_version":"test-retest"},{"Rune":"rune_01_ger","Hex":"#3366ff99","Correct":32,"Choice":32,"RT":428.7250000052154,"Accuracy":1,"Outcome":"-1","Keys":[1929.040000308305],"TotalKeys":1,"Block":2,"Trial":137,"Robot":3,"Valence":"Lose","Action":"Go","Sham":0,"Color":"blue","trial_type":"pit-trial","trial_index":158,"time_elapsed":891948,"internal_node_id":"0.0-147.0","task_version":"test-retest"},{"Rune":"rune_01_ingwaz","Hex":"#ffcc3399","Correct":-1,"Choice":-1,"RT":-1,"Accuracy":1,"Outcome":"+10","Keys":[],"TotalKeys":0,"Block":2,"Trial":138,"Robot":2,"Valence":"Win","Action":"No-Go","Sham":0,"Color":"yellow","trial_type":"pit-trial","trial_index":159,"time_elapsed":895958,"internal_node_id":"0.0-148.0","task_version":"test-retest"},{"Rune":"rune_01_ear","Hex":"#ffcc3399","Correct":32,"Choice":32,"RT":413.0949997343123,"Accuracy":1,"Outcome":"+10","Keys":[1913.4249999187887],"TotalKeys":1,"Block":2,"Trial":139,"Robot":1,"Valence":"Win","Action":"Go","Sham":0,"Color":"yellow","trial_type":"pit-trial","trial_index":160,"time_elapsed":898876,"internal_node_id":"0.0-149.0","task_version":"test-retest"},{"Rune":"rune_01_yr","Hex":"#3366ff99","Correct":-1,"Choice":-1,"RT":-1,"Accuracy":1,"Outcome":"-1","Keys":[],"TotalKeys":0,"Block":2,"Trial":140,"Robot":4,"Valence":"Lose","Action":"No-Go","Sham":0,"Color":"blue","trial_type":"pit-trial","trial_index":161,"time_elapsed":902888,"internal_node_id":"0.0-150.0","task_version":"test-retest"},{"Rune":"rune_01_ear","Hex":"#ffcc3399","Correct":32,"Choice":32,"RT":497.4499996751547,"Accuracy":1,"Outcome":"+10","Keys":[1998.8750000484288],"TotalKeys":1,"Block":2,"Trial":141,"Robot":1,"Valence":"Win","Action":"Go","Sham":0,"Color":"yellow","trial_type":"pit-trial","trial_index":162,"time_elapsed":905895,"internal_node_id":"0.0-151.0","task_version":"test-retest"},{"Rune":"rune_01_ingwaz","Hex":"#ffcc3399","Correct":-1,"Choice":-1,"RT":-1,"Accuracy":1,"Outcome":"+10","Keys":[],"TotalKeys":0,"Block":2,"Trial":142,"Robot":2,"Valence":"Win","Action":"No-Go","Sham":0,"Color":"yellow","trial_type":"pit-trial","trial_index":163,"time_elapsed":909907,"internal_node_id":"0.0-152.0","task_version":"test-retest"},{"Rune":"rune_01_yr","Hex":"#3366ff99","Correct":-1,"Choice":-1,"RT":-1,"Accuracy":1,"Outcome":"-1","Keys":[],"TotalKeys":0,"Block":2,"Trial":143,"Robot":4,"Valence":"Lose","Action":"No-Go","Sham":0,"Color":"blue","trial_type":"pit-trial","trial_index":164,"time_elapsed":913918,"internal_node_id":"0.0-153.0","task_version":"test-retest"},{"Rune":"rune_01_ger","Hex":"#3366ff99","Correct":32,"Choice":32,"RT":386.5100000984967,"Accuracy":1,"Outcome":"-1","Keys":[1887.275000102818],"TotalKeys":1,"Block":2,"Trial":144,"Robot":3,"Valence":"Lose","Action":"Go","Sham":0,"Color":"blue","trial_type":"pit-trial","trial_index":165,"time_elapsed":916810,"internal_node_id":"0.0-154.0","task_version":"test-retest"},{"Rune":"rune_01_ear","Hex":"#ffcc3399","Correct":32,"Choice":32,"RT":336.13000018522143,"Accuracy":1,"Outcome":"+1","Keys":[1836.2399996258318],"TotalKeys":1,"Block":2,"Trial":145,"Robot":1,"Valence":"Win","Action":"Go","Sham":1,"Color":"yellow","trial_type":"pit-trial","trial_index":166,"time_elapsed":919654,"internal_node_id":"0.0-155.0","task_version":"test-retest"},{"Rune":"rune_01_ger","Hex":"#3366ff99","Correct":32,"Choice":32,"RT":589.5199999213219,"Accuracy":1,"Outcome":"-1","Keys":[2090.125000104308],"TotalKeys":1,"Block":2,"Trial":146,"Robot":3,"Valence":"Lose","Action":"Go","Sham":0,"Color":"blue","trial_type":"pit-trial","trial_index":167,"time_elapsed":922751,"internal_node_id":"0.0-156.0","task_version":"test-retest"},{"Rune":"rune_01_yr","Hex":"#3366ff99","Correct":-1,"Choice":-1,"RT":-1,"Accuracy":1,"Outcome":"-1","Keys":[],"TotalKeys":0,"Block":2,"Trial":147,"Robot":4,"Valence":"Lose","Action":"No-Go","Sham":0,"Color":"blue","trial_type":"pit-trial","trial_index":168,"time_elapsed":926760,"internal_node_id":"0.0-157.0","task_version":"test-retest"},{"Rune":"rune_01_ingwaz","Hex":"#ffcc3399","Correct":-1,"Choice":-1,"RT":-1,"Accuracy":1,"Outcome":"+10","Keys":[],"TotalKeys":0,"Block":2,"Trial":148,"Robot":2,"Valence":"Win","Action":"No-Go","Sham":0,"Color":"yellow","trial_type":"pit-trial","trial_index":169,"time_elapsed":930771,"internal_node_id":"0.0-158.0","task_version":"test-retest"},{"Rune":"rune_01_ear","Hex":"#ffcc3399","Correct":32,"Choice":32,"RT":294.1149999387562,"Accuracy":1,"Outcome":"+10","Keys":[1794.2650001496077],"TotalKeys":1,"Block":2,"Trial":149,"Robot":1,"Valence":"Win","Action":"Go","Sham":0,"Color":"yellow","trial_type":"pit-trial","trial_index":170,"time_elapsed":933569,"internal_node_id":"0.0-159.0","task_version":"test-retest"},{"Rune":"rune_01_ger","Hex":"#3366ff99","Correct":32,"Choice":32,"RT":373.67499992251396,"Accuracy":1,"Outcome":"-1","Keys":[1874.7300002723932],"TotalKeys":1,"Block":2,"Trial":150,"Robot":3,"Valence":"Lose","Action":"Go","Sham":0,"Color":"blue","trial_type":"pit-trial","trial_index":171,"time_elapsed":936452,"internal_node_id":"0.0-160.0","task_version":"test-retest"},{"Rune":"rune_01_yr","Hex":"#3366ff99","Correct":-1,"Choice":-1,"RT":-1,"Accuracy":1,"Outcome":"-1","Keys":[],"TotalKeys":0,"Block":2,"Trial":151,"Robot":4,"Valence":"Lose","Action":"No-Go","Sham":0,"Color":"blue","trial_type":"pit-trial","trial_index":172,"time_elapsed":940461,"internal_node_id":"0.0-161.0","task_version":"test-retest"},{"Rune":"rune_01_ingwaz","Hex":"#ffcc3399","Correct":-1,"Choice":-1,"RT":-1,"Accuracy":1,"Outcome":"+1","Keys":[],"TotalKeys":0,"Block":2,"Trial":152,"Robot":2,"Valence":"Win","Action":"No-Go","Sham":1,"Color":"yellow","trial_type":"pit-trial","trial_index":173,"time_elapsed":944474,"internal_node_id":"0.0-162.0","task_version":"test-retest"},{"Rune":"rune_01_yr","Hex":"#3366ff99","Correct":-1,"Choice":-1,"RT":-1,"Accuracy":1,"Outcome":"-1","Keys":[],"TotalKeys":0,"Block":2,"Trial":153,"Robot":4,"Valence":"Lose","Action":"No-Go","Sham":0,"Color":"blue","trial_type":"pit-trial","trial_index":174,"time_elapsed":948484,"internal_node_id":"0.0-163.0","task_version":"test-retest"},{"Rune":"rune_01_ger","Hex":"#3366ff99","Correct":32,"Choice":32,"RT":374.62500017136335,"Accuracy":1,"Outcome":"-10","Keys":[1875.2299998886883],"TotalKeys":1,"Block":2,"Trial":154,"Robot":3,"Valence":"Lose","Action":"Go","Sham":1,"Color":"blue","trial_type":"pit-trial","trial_index":175,"time_elapsed":951367,"internal_node_id":"0.0-164.0","task_version":"test-retest"},{"Rune":"rune_01_ear","Hex":"#ffcc3399","Correct":32,"Choice":32,"RT":321.18500024080276,"Accuracy":1,"Outcome":"+10","Keys":[1823.064999654889],"TotalKeys":1,"Block":2,"Trial":155,"Robot":1,"Valence":"Win","Action":"Go","Sham":0,"Color":"yellow","trial_type":"pit-trial","trial_index":176,"time_elapsed":954199,"internal_node_id":"0.0-165.0","task_version":"test-retest"},{"Rune":"rune_01_ingwaz","Hex":"#ffcc3399","Correct":-1,"Choice":-1,"RT":-1,"Accuracy":1,"Outcome":"+10","Keys":[],"TotalKeys":0,"Block":2,"Trial":156,"Robot":2,"Valence":"Win","Action":"No-Go","Sham":0,"Color":"yellow","trial_type":"pit-trial","trial_index":177,"time_elapsed":958209,"internal_node_id":"0.0-166.0","task_version":"test-retest"},{"Rune":"rune_01_ger","Hex":"#3366ff99","Correct":32,"Choice":32,"RT":530.1250000484288,"Accuracy":1,"Outcome":"-1","Keys":[2031.8650002591312],"TotalKeys":1,"Block":2,"Trial":157,"Robot":3,"Valence":"Lose","Action":"Go","Sham":0,"Color":"blue","trial_type":"pit-trial","trial_index":178,"time_elapsed":961248,"internal_node_id":"0.0-167.0","task_version":"test-retest"},{"Rune":"rune_01_ear","Hex":"#ffcc3399","Correct":32,"Choice":32,"RT":749.4799997657537,"Accuracy":1,"Outcome":"+10","Keys":[2251.399999950081],"TotalKeys":1,"Block":2,"Trial":158,"Robot":1,"Valence":"Win","Action":"Go","Sham":0,"Color":"yellow","trial_type":"pit-trial","trial_index":179,"time_elapsed":964506,"internal_node_id":"0.0-168.0","task_version":"test-retest"},{"Rune":"rune_01_ingwaz","Hex":"#ffcc3399","Correct":-1,"Choice":-1,"RT":-1,"Accuracy":1,"Outcome":"+10","Keys":[],"TotalKeys":0,"Block":2,"Trial":159,"Robot":2,"Valence":"Win","Action":"No-Go","Sham":0,"Color":"yellow","trial_type":"pit-trial","trial_index":180,"time_elapsed":968513,"internal_node_id":"0.0-169.0","task_version":"test-retest"},{"Rune":"rune_01_yr","Hex":"#3366ff99","Correct":-1,"Choice":-1,"RT":-1,"Accuracy":1,"Outcome":"-10","Keys":[],"TotalKeys":0,"Block":2,"Trial":160,"Robot":4,"Valence":"Lose","Action":"No-Go","Sham":1,"Color":"blue","trial_type":"pit-trial","trial_index":181,"time_elapsed":972524,"internal_node_id":"0.0-170.0","task_version":"test-retest"},{"Rune":"rune_01_ear","Hex":"#ffcc3399","Correct":32,"Choice":32,"RT":348.2250003144145,"Accuracy":1,"Outcome":"+10","Keys":[1849.7150000184774],"TotalKeys":1,"Block":2,"Trial":161,"Robot":1,"Valence":"Win","Action":"Go","Sham":0,"Color":"yellow","trial_type":"pit-trial","trial_index":182,"time_elapsed":975382,"internal_node_id":"0.0-171.0","task_version":"test-retest"},{"Rune":"rune_01_ger","Hex":"#3366ff99","Correct":32,"Choice":32,"RT":338.48500018939376,"Accuracy":1,"Outcome":"-1","Keys":[1840.570000000298],"TotalKeys":1,"Block":2,"Trial":162,"Robot":3,"Valence":"Lose","Action":"Go","Sham":0,"Color":"blue","trial_type":"pit-trial","trial_index":183,"time_elapsed":978231,"internal_node_id":"0.0-172.0","task_version":"test-retest"},{"Rune":"rune_01_ingwaz","Hex":"#ffcc3399","Correct":-1,"Choice":-1,"RT":-1,"Accuracy":1,"Outcome":"+10","Keys":[],"TotalKeys":0,"Block":2,"Trial":163,"Robot":2,"Valence":"Win","Action":"No-Go","Sham":0,"Color":"yellow","trial_type":"pit-trial","trial_index":184,"time_elapsed":982243,"internal_node_id":"0.0-173.0","task_version":"test-retest"},{"Rune":"rune_01_yr","Hex":"#3366ff99","Correct":-1,"Choice":-1,"RT":-1,"Accuracy":1,"Outcome":"-10","Keys":[],"TotalKeys":0,"Block":2,"Trial":164,"Robot":4,"Valence":"Lose","Action":"No-Go","Sham":1,"Color":"blue","trial_type":"pit-trial","trial_index":185,"time_elapsed":986255,"internal_node_id":"0.0-174.0","task_version":"test-retest"},{"Rune":"rune_01_yr","Hex":"#3366ff99","Correct":-1,"Choice":-1,"RT":-1,"Accuracy":1,"Outcome":"-1","Keys":[],"TotalKeys":0,"Block":2,"Trial":165,"Robot":4,"Valence":"Lose","Action":"No-Go","Sham":0,"Color":"blue","trial_type":"pit-trial","trial_index":186,"time_elapsed":990265,"internal_node_id":"0.0-175.0","task_version":"test-retest"},{"Rune":"rune_01_ear","Hex":"#ffcc3399","Correct":32,"Choice":32,"RT":313.97000001743436,"Accuracy":1,"Outcome":"+10","Keys":[1815.070000011474],"TotalKeys":1,"Block":2,"Trial":166,"Robot":1,"Valence":"Win","Action":"Go","Sham":0,"Color":"yellow","trial_type":"pit-trial","trial_index":187,"time_elapsed":993089,"internal_node_id":"0.0-176.0","task_version":"test-retest"},{"Rune":"rune_01_ingwaz","Hex":"#ffcc3399","Correct":-1,"Choice":-1,"RT":-1,"Accuracy":1,"Outcome":"+10","Keys":[],"TotalKeys":0,"Block":2,"Trial":167,"Robot":2,"Valence":"Win","Action":"No-Go","Sham":0,"Color":"yellow","trial_type":"pit-trial","trial_index":188,"time_elapsed":997099,"internal_node_id":"0.0-177.0","task_version":"test-retest"},{"Rune":"rune_01_ger","Hex":"#3366ff99","Correct":32,"Choice":32,"RT":403.91499968245625,"Accuracy":1,"Outcome":"-1","Keys":[1904.4349999167025],"TotalKeys":1,"Block":2,"Trial":168,"Robot":3,"Valence":"Lose","Action":"Go","Sham":0,"Color":"blue","trial_type":"pit-trial","trial_index":189,"time_elapsed":1000010,"internal_node_id":"0.0-178.0","task_version":"test-retest"},{"Rune":"rune_01_ingwaz","Hex":"#ffcc3399","Correct":-1,"Choice":-1,"RT":-1,"Accuracy":1,"Outcome":"+10","Keys":[],"TotalKeys":0,"Block":2,"Trial":169,"Robot":2,"Valence":"Win","Action":"No-Go","Sham":0,"Color":"yellow","trial_type":"pit-trial","trial_index":190,"time_elapsed":1004020,"internal_node_id":"0.0-179.0","task_version":"test-retest"},{"Rune":"rune_01_ger","Hex":"#3366ff99","Correct":32,"Choice":32,"RT":291.29999969154596,"Accuracy":1,"Outcome":"-1","Keys":[1792.3449999652803],"TotalKeys":1,"Block":2,"Trial":170,"Robot":3,"Valence":"Lose","Action":"Go","Sham":0,"Color":"blue","trial_type":"pit-trial","trial_index":191,"time_elapsed":1006820,"internal_node_id":"0.0-180.0","task_version":"test-retest"},{"Rune":"rune_01_yr","Hex":"#3366ff99","Correct":-1,"Choice":-1,"RT":-1,"Accuracy":1,"Outcome":"-1","Keys":[],"TotalKeys":0,"Block":2,"Trial":171,"Robot":4,"Valence":"Lose","Action":"No-Go","Sham":0,"Color":"blue","trial_type":"pit-trial","trial_index":192,"time_elapsed":1010828,"internal_node_id":"0.0-181.0","task_version":"test-retest"},{"Rune":"rune_01_ear","Hex":"#ffcc3399","Correct":32,"Choice":32,"RT":320.9700002335012,"Accuracy":1,"Outcome":"+10","Keys":[1821.7349997721612],"TotalKeys":1,"Block":2,"Trial":172,"Robot":1,"Valence":"Win","Action":"Go","Sham":0,"Color":"yellow","trial_type":"pit-trial","trial_index":193,"time_elapsed":1013656,"internal_node_id":"0.0-182.0","task_version":"test-retest"},{"Rune":"rune_01_yr","Hex":"#3366ff99","Correct":-1,"Choice":-1,"RT":-1,"Accuracy":1,"Outcome":"-1","Keys":[],"TotalKeys":0,"Block":2,"Trial":173,"Robot":4,"Valence":"Lose","Action":"No-Go","Sham":0,"Color":"blue","trial_type":"pit-trial","trial_index":194,"time_elapsed":1017668,"internal_node_id":"0.0-183.0","task_version":"test-retest"},{"Rune":"rune_01_ear","Hex":"#ffcc3399","Correct":32,"Choice":32,"RT":378.8550002500415,"Accuracy":1,"Outcome":"+10","Keys":[1879.325000103563],"TotalKeys":1,"Block":2,"Trial":174,"Robot":1,"Valence":"Win","Action":"Go","Sham":0,"Color":"yellow","trial_type":"pit-trial","trial_index":195,"time_elapsed":1020551,"internal_node_id":"0.0-184.0","task_version":"test-retest"},{"Rune":"rune_01_ingwaz","Hex":"#ffcc3399","Correct":-1,"Choice":-1,"RT":-1,"Accuracy":1,"Outcome":"+1","Keys":[],"TotalKeys":0,"Block":2,"Trial":175,"Robot":2,"Valence":"Win","Action":"No-Go","Sham":1,"Color":"yellow","trial_type":"pit-trial","trial_index":196,"time_elapsed":1024564,"internal_node_id":"0.0-185.0","task_version":"test-retest"},{"Rune":"rune_01_ger","Hex":"#3366ff99","Correct":32,"Choice":32,"RT":335.6449999846518,"Accuracy":1,"Outcome":"-10","Keys":[1836.3700001500547],"TotalKeys":1,"Block":2,"Trial":176,"Robot":3,"Valence":"Lose","Action":"Go","Sham":1,"Color":"blue","trial_type":"pit-trial","trial_index":197,"time_elapsed":1027409,"internal_node_id":"0.0-186.0","task_version":"test-retest"},{"Rune":"rune_01_ear","Hex":"#ffcc3399","Correct":32,"Choice":32,"RT":360.3550000116229,"Accuracy":1,"Outcome":"+1","Keys":[1860.7649998739362],"TotalKeys":1,"Block":2,"Trial":177,"Robot":1,"Valence":"Win","Action":"Go","Sham":1,"Color":"yellow","trial_type":"pit-trial","trial_index":198,"time_elapsed":1030278,"internal_node_id":"0.0-187.0","task_version":"test-retest"},{"Rune":"rune_01_yr","Hex":"#3366ff99","Correct":-1,"Choice":-1,"RT":-1,"Accuracy":1,"Outcome":"-1","Keys":[],"TotalKeys":0,"Block":2,"Trial":178,"Robot":4,"Valence":"Lose","Action":"No-Go","Sham":0,"Color":"blue","trial_type":"pit-trial","trial_index":199,"time_elapsed":1034288,"internal_node_id":"0.0-188.0","task_version":"test-retest"},{"Rune":"rune_01_ger","Hex":"#3366ff99","Correct":32,"Choice":32,"RT":413.95500022917986,"Accuracy":1,"Outcome":"-1","Keys":[1914.2549997195601],"TotalKeys":1,"Block":2,"Trial":179,"Robot":3,"Valence":"Lose","Action":"Go","Sham":0,"Color":"blue","trial_type":"pit-trial","trial_index":200,"time_elapsed":1037209,"internal_node_id":"0.0-189.0","task_version":"test-retest"},{"Rune":"rune_01_ingwaz","Hex":"#ffcc3399","Correct":-1,"Choice":-1,"RT":-1,"Accuracy":1,"Outcome":"+10","Keys":[],"TotalKeys":0,"Block":2,"Trial":180,"Robot":2,"Valence":"Win","Action":"No-Go","Sham":0,"Color":"yellow","trial_type":"pit-trial","trial_index":201,"time_elapsed":1041220,"internal_node_id":"0.0-190.0","task_version":"test-retest"},{"view_history":"[{\"page_index\":0,\"viewing_time\":2821.24499976635},{\"page_index\":1,\"viewing_time\":10864.8800002411}]","rt":13686.67500000447,"trial_type":"pit-instructions","trial_index":202,"time_elapsed":1054909,"internal_node_id":"0.0-191.0","task_version":"test-retest"},{"Rune":"rune_01_ingwaz","Hex":"#ffcc3399","Correct":-1,"Choice":-1,"RT":-1,"Accuracy":1,"Outcome":"+1","Keys":[],"TotalKeys":0,"Block":2,"Trial":181,"Robot":2,"Valence":"Win","Action":"No-Go","Sham":1,"Color":"yellow","trial_type":"pit-trial","trial_index":203,"time_elapsed":1058918,"internal_node_id":"0.0-192.0","task_version":"test-retest"},{"Rune":"rune_01_yr","Hex":"#3366ff99","Correct":-1,"Choice":-1,"RT":-1,"Accuracy":1,"Outcome":"-1","Keys":[],"TotalKeys":0,"Block":2,"Trial":182,"Robot":4,"Valence":"Lose","Action":"No-Go","Sham":0,"Color":"blue","trial_type":"pit-trial","trial_index":204,"time_elapsed":1062931,"internal_node_id":"0.0-193.0","task_version":"test-retest"},{"Rune":"rune_01_ear","Hex":"#ffcc3399","Correct":32,"Choice":32,"RT":313.38499998673797,"Accuracy":1,"Outcome":"+10","Keys":[1813.649999909103],"TotalKeys":1,"Block":2,"Trial":183,"Robot":1,"Valence":"Win","Action":"Go","Sham":0,"Color":"yellow","trial_type":"pit-trial","trial_index":205,"time_elapsed":1065748,"internal_node_id":"0.0-194.0","task_version":"test-retest"},{"Rune":"rune_01_ger","Hex":"#3366ff99","Correct":32,"Choice":32,"RT":410.9149998985231,"Accuracy":1,"Outcome":"-1","Keys":[1911.3050000742078],"TotalKeys":1,"Block":2,"Trial":184,"Robot":3,"Valence":"Lose","Action":"Go","Sham":0,"Color":"blue","trial_type":"pit-trial","trial_index":206,"time_elapsed":1068663,"internal_node_id":"0.0-195.0","task_version":"test-retest"},{"Rune":"rune_01_yr","Hex":"#3366ff99","Correct":-1,"Choice":-1,"RT":-1,"Accuracy":1,"Outcome":"-1","Keys":[],"TotalKeys":0,"Block":2,"Trial":185,"Robot":4,"Valence":"Lose","Action":"No-Go","Sham":0,"Color":"blue","trial_type":"pit-trial","trial_index":207,"time_elapsed":1072675,"internal_node_id":"0.0-196.0","task_version":"test-retest"},{"Rune":"rune_01_ingwaz","Hex":"#ffcc3399","Correct":-1,"Choice":-1,"RT":-1,"Accuracy":1,"Outcome":"+10","Keys":[],"TotalKeys":0,"Block":2,"Trial":186,"Robot":2,"Valence":"Win","Action":"No-Go","Sham":0,"Color":"yellow","trial_type":"pit-trial","trial_index":208,"time_elapsed":1076687,"internal_node_id":"0.0-197.0","task_version":"test-retest"},{"Rune":"rune_01_ear","Hex":"#ffcc3399","Correct":32,"Choice":32,"RT":338.87499989941716,"Accuracy":1,"Outcome":"+10","Keys":[1839.4050002098083],"TotalKeys":1,"Block":2,"Trial":187,"Robot":1,"Valence":"Win","Action":"Go","Sham":0,"Color":"yellow","trial_type":"pit-trial","trial_index":209,"time_elapsed":1079531,"internal_node_id":"0.0-198.0","task_version":"test-retest"},{"Rune":"rune_01_ger","Hex":"#3366ff99","Correct":32,"Choice":32,"RT":315.66999992355704,"Accuracy":1,"Outcome":"-10","Keys":[1816.2850001826882],"TotalKeys":1,"Block":2,"Trial":188,"Robot":3,"Valence":"Lose","Action":"Go","Sham":1,"Color":"blue","trial_type":"pit-trial","trial_index":210,"time_elapsed":1082355,"internal_node_id":"0.0-199.0","task_version":"test-retest"},{"Rune":"rune_01_ear","Hex":"#ffcc3399","Correct":32,"Choice":32,"RT":446.4449998922646,"Accuracy":1,"Outcome":"+1","Keys":[1946.7950002290308],"TotalKeys":1,"Block":2,"Trial":189,"Robot":1,"Valence":"Win","Action":"Go","Sham":1,"Color":"yellow","trial_type":"pit-trial","trial_index":211,"time_elapsed":1085307,"internal_node_id":"0.0-200.0","task_version":"test-retest"},{"Rune":"rune_01_yr","Hex":"#3366ff99","Correct":-1,"Choice":-1,"RT":-1,"Accuracy":1,"Outcome":"-1","Keys":[],"TotalKeys":0,"Block":2,"Trial":190,"Robot":4,"Valence":"Lose","Action":"No-Go","Sham":0,"Color":"blue","trial_type":"pit-trial","trial_index":212,"time_elapsed":1089321,"internal_node_id":"0.0-201.0","task_version":"test-retest"},{"Rune":"rune_01_ger","Hex":"#3366ff99","Correct":32,"Choice":32,"RT":323.1500000692904,"Accuracy":1,"Outcome":"-1","Keys":[1823.2299997471273],"TotalKeys":1,"Block":2,"Trial":191,"Robot":3,"Valence":"Lose","Action":"Go","Sham":0,"Color":"blue","trial_type":"pit-trial","trial_index":213,"time_elapsed":1092151,"internal_node_id":"0.0-202.0","task_version":"test-retest"},{"Rune":"rune_01_ingwaz","Hex":"#ffcc3399","Correct":-1,"Choice":-1,"RT":-1,"Accuracy":1,"Outcome":"+10","Keys":[],"TotalKeys":0,"Block":2,"Trial":192,"Robot":2,"Valence":"Win","Action":"No-Go","Sham":0,"Color":"yellow","trial_type":"pit-trial","trial_index":214,"time_elapsed":1096164,"internal_node_id":"0.0-203.0","task_version":"test-retest"},{"Rune":"rune_01_yr","Hex":"#3366ff99","Correct":-1,"Choice":-1,"RT":-1,"Accuracy":1,"Outcome":"-10","Keys":[],"TotalKeys":0,"Block":2,"Trial":193,"Robot":4,"Valence":"Lose","Action":"No-Go","Sham":1,"Color":"blue","trial_type":"pit-trial","trial_index":215,"time_elapsed":1100174,"internal_node_id":"0.0-204.0","task_version":"test-retest"},{"Rune":"rune_01_ger","Hex":"#3366ff99","Correct":32,"Choice":32,"RT":357.0199999958277,"Accuracy":1,"Outcome":"-1","Keys":[1857.350000180304],"TotalKeys":1,"Block":2,"Trial":194,"Robot":3,"Valence":"Lose","Action":"Go","Sham":0,"Color":"blue","trial_type":"pit-trial","trial_index":216,"time_elapsed":1103037,"internal_node_id":"0.0-205.0","task_version":"test-retest"},{"Rune":"rune_01_ear","Hex":"#ffcc3399","Correct":32,"Choice":32,"RT":343.39999966323376,"Accuracy":1,"Outcome":"+10","Keys":[1846.2749999016523],"TotalKeys":1,"Block":2,"Trial":195,"Robot":1,"Valence":"Win","Action":"Go","Sham":0,"Color":"yellow","trial_type":"pit-trial","trial_index":217,"time_elapsed":1105890,"internal_node_id":"0.0-206.0","task_version":"test-retest"},{"Rune":"rune_01_ingwaz","Hex":"#ffcc3399","Correct":-1,"Choice":-1,"RT":-1,"Accuracy":1,"Outcome":"+10","Keys":[],"TotalKeys":0,"Block":2,"Trial":196,"Robot":2,"Valence":"Win","Action":"No-Go","Sham":0,"Color":"yellow","trial_type":"pit-trial","trial_index":218,"time_elapsed":1109899,"internal_node_id":"0.0-207.0","task_version":"test-retest"},{"Rune":"rune_01_ingwaz","Hex":"#ffcc3399","Correct":-1,"Choice":-1,"RT":-1,"Accuracy":1,"Outcome":"+10","Keys":[],"TotalKeys":0,"Block":2,"Trial":197,"Robot":2,"Valence":"Win","Action":"No-Go","Sham":0,"Color":"yellow","trial_type":"pit-trial","trial_index":219,"time_elapsed":1113911,"internal_node_id":"0.0-208.0","task_version":"test-retest"},{"Rune":"rune_01_yr","Hex":"#3366ff99","Correct":-1,"Choice":-1,"RT":-1,"Accuracy":1,"Outcome":"-1","Keys":[],"TotalKeys":0,"Block":2,"Trial":198,"Robot":4,"Valence":"Lose","Action":"No-Go","Sham":0,"Color":"blue","trial_type":"pit-trial","trial_index":220,"time_elapsed":1117923,"internal_node_id":"0.0-209.0","task_version":"test-retest"},{"Rune":"rune_01_ger","Hex":"#3366ff99","Correct":32,"Choice":32,"RT":541.9800002127886,"Accuracy":1,"Outcome":"-1","Keys":[2043.16999996081],"TotalKeys":1,"Block":2,"Trial":199,"Robot":3,"Valence":"Lose","Action":"Go","Sham":0,"Color":"blue","trial_type":"pit-trial","trial_index":221,"time_elapsed":1120973,"internal_node_id":"0.0-210.0","task_version":"test-retest"},{"Rune":"rune_01_ear","Hex":"#ffcc3399","Correct":32,"Choice":32,"RT":542.0599998906255,"Accuracy":1,"Outcome":"+10","Keys":[2043.0949996225536],"TotalKeys":1,"Block":2,"Trial":200,"Robot":1,"Valence":"Win","Action":"Go","Sham":0,"Color":"yellow","trial_type":"pit-trial","trial_index":222,"time_elapsed":1124024,"internal_node_id":"0.0-211.0","task_version":"test-retest"},{"Rune":"rune_01_ear","Hex":"#ffcc3399","Correct":32,"Choice":32,"RT":357.1699997410178,"Accuracy":1,"Outcome":"+10","Keys":[1859.0899999253452],"TotalKeys":1,"Block":2,"Trial":201,"Robot":1,"Valence":"Win","Action":"Go","Sham":0,"Color":"yellow","trial_type":"pit-trial","trial_index":223,"time_elapsed":1126891,"internal_node_id":"0.0-212.0","task_version":"test-retest"},{"Rune":"rune_01_ger","Hex":"#3366ff99","Correct":32,"Choice":32,"RT":342.5499997101724,"Accuracy":1,"Outcome":"-1","Keys":[1843.4299998916686],"TotalKeys":1,"Block":2,"Trial":202,"Robot":3,"Valence":"Lose","Action":"Go","Sham":0,"Color":"blue","trial_type":"pit-trial","trial_index":224,"time_elapsed":1129742,"internal_node_id":"0.0-213.0","task_version":"test-retest"},{"Rune":"rune_01_ingwaz","Hex":"#ffcc3399","Correct":-1,"Choice":-1,"RT":-1,"Accuracy":1,"Outcome":"+10","Keys":[],"TotalKeys":0,"Block":2,"Trial":203,"Robot":2,"Valence":"Win","Action":"No-Go","Sham":0,"Color":"yellow","trial_type":"pit-trial","trial_index":225,"time_elapsed":1133753,"internal_node_id":"0.0-214.0","task_version":"test-retest"},{"Rune":"rune_01_yr","Hex":"#3366ff99","Correct":-1,"Choice":-1,"RT":-1,"Accuracy":1,"Outcome":"-1","Keys":[],"TotalKeys":0,"Block":2,"Trial":204,"Robot":4,"Valence":"Lose","Action":"No-Go","Sham":0,"Color":"blue","trial_type":"pit-trial","trial_index":226,"time_elapsed":1137765,"internal_node_id":"0.0-215.0","task_version":"test-retest"},{"Rune":"rune_01_ear","Hex":"#ffcc3399","Correct":32,"Choice":32,"RT":351.61500005051494,"Accuracy":1,"Outcome":"+1","Keys":[1851.784999947995],"TotalKeys":1,"Block":2,"Trial":205,"Robot":1,"Valence":"Win","Action":"Go","Sham":1,"Color":"yellow","trial_type":"pit-trial","trial_index":227,"time_elapsed":1140625,"internal_node_id":"0.0-216.0","task_version":"test-retest"},{"Rune":"rune_01_ingwaz","Hex":"#ffcc3399","Correct":-1,"Choice":-1,"RT":-1,"Accuracy":1,"Outcome":"+10","Keys":[],"TotalKeys":0,"Block":2,"Trial":206,"Robot":2,"Valence":"Win","Action":"No-Go","Sham":0,"Color":"yellow","trial_type":"pit-trial","trial_index":228,"time_elapsed":1144632,"internal_node_id":"0.0-217.0","task_version":"test-retest"},{"Rune":"rune_01_yr","Hex":"#3366ff99","Correct":-1,"Choice":-1,"RT":-1,"Accuracy":1,"Outcome":"-1","Keys":[],"TotalKeys":0,"Block":2,"Trial":207,"Robot":4,"Valence":"Lose","Action":"No-Go","Sham":0,"Color":"blue","trial_type":"pit-trial","trial_index":229,"time_elapsed":1148639,"internal_node_id":"0.0-218.0","task_version":"test-retest"},{"Rune":"rune_01_ger","Hex":"#3366ff99","Correct":32,"Choice":32,"RT":293.2349997572601,"Accuracy":1,"Outcome":"-1","Keys":[1793.8250000588596],"TotalKeys":1,"Block":2,"Trial":208,"Robot":3,"Valence":"Lose","Action":"Go","Sham":0,"Color":"blue","trial_type":"pit-trial","trial_index":230,"time_elapsed":1151441,"internal_node_id":"0.0-219.0","task_version":"test-retest"},{"Rune":"rune_01_ingwaz","Hex":"#ffcc3399","Correct":-1,"Choice":-1,"RT":-1,"Accuracy":1,"Outcome":"+10","Keys":[],"TotalKeys":0,"Block":2,"Trial":209,"Robot":2,"Valence":"Win","Action":"No-Go","Sham":0,"Color":"yellow","trial_type":"pit-trial","trial_index":231,"time_elapsed":1155454,"internal_node_id":"0.0-220.0","task_version":"test-retest"},{"Rune":"rune_01_ear","Hex":"#ffcc3399","Correct":32,"Choice":32,"RT":330.22999996319413,"Accuracy":1,"Outcome":"+10","Keys":[1831.0899999924004],"TotalKeys":1,"Block":2,"Trial":210,"Robot":1,"Valence":"Win","Action":"Go","Sham":0,"Color":"yellow","trial_type":"pit-trial","trial_index":232,"time_elapsed":1158293,"internal_node_id":"0.0-221.0","task_version":"test-retest"},{"Rune":"rune_01_ger","Hex":"#3366ff99","Correct":32,"Choice":32,"RT":764.4299999810755,"Accuracy":1,"Outcome":"-10","Keys":[2266.2300001829863],"TotalKeys":1,"Block":2,"Trial":211,"Robot":3,"Valence":"Lose","Action":"Go","Sham":1,"Color":"blue","trial_type":"pit-trial","trial_index":233,"time_elapsed":1161566,"internal_node_id":"0.0-222.0","task_version":"test-retest"},{"Rune":"rune_01_yr","Hex":"#3366ff99","Correct":-1,"Choice":-1,"RT":-1,"Accuracy":1,"Outcome":"-1","Keys":[],"TotalKeys":0,"Block":2,"Trial":212,"Robot":4,"Valence":"Lose","Action":"No-Go","Sham":0,"Color":"blue","trial_type":"pit-trial","trial_index":234,"time_elapsed":1165573,"internal_node_id":"0.0-223.0","task_version":"test-retest"},{"Rune":"rune_01_ear","Hex":"#ffcc3399","Correct":32,"Choice":32,"RT":276.4149997383356,"Accuracy":1,"Outcome":"+10","Keys":[1776.5500000678003],"TotalKeys":1,"Block":2,"Trial":213,"Robot":1,"Valence":"Win","Action":"Go","Sham":0,"Color":"yellow","trial_type":"pit-trial","trial_index":235,"time_elapsed":1168358,"internal_node_id":"0.0-224.0","task_version":"test-retest"},{"Rune":"rune_01_ingwaz","Hex":"#ffcc3399","Correct":-1,"Choice":-1,"RT":-1,"Accuracy":1,"Outcome":"+10","Keys":[],"TotalKeys":0,"Block":2,"Trial":214,"Robot":2,"Valence":"Win","Action":"No-Go","Sham":0,"Color":"yellow","trial_type":"pit-trial","trial_index":236,"time_elapsed":1172366,"internal_node_id":"0.0-225.0","task_version":"test-retest"},{"Rune":"rune_01_ger","Hex":"#3366ff99","Correct":32,"Choice":32,"RT":318.46500001847744,"Accuracy":1,"Outcome":"-1","Keys":[1818.8799996860325],"TotalKeys":1,"Block":2,"Trial":215,"Robot":3,"Valence":"Lose","Action":"Go","Sham":0,"Color":"blue","trial_type":"pit-trial","trial_index":237,"time_elapsed":1175190,"internal_node_id":"0.0-226.0","task_version":"test-retest"},{"Rune":"rune_01_yr","Hex":"#3366ff99","Correct":-1,"Choice":-1,"RT":-1,"Accuracy":1,"Outcome":"-10","Keys":[],"TotalKeys":0,"Block":2,"Trial":216,"Robot":4,"Valence":"Lose","Action":"No-Go","Sham":1,"Color":"blue","trial_type":"pit-trial","trial_index":238,"time_elapsed":1179203,"internal_node_id":"0.0-227.0","task_version":"test-retest"},{"Rune":"rune_01_ger","Hex":"#3366ff99","Correct":32,"Choice":32,"RT":341.6250003501773,"Accuracy":1,"Outcome":"-1","Keys":[1841.8149999342859],"TotalKeys":1,"Block":2,"Trial":217,"Robot":3,"Valence":"Lose","Action":"Go","Sham":0,"Color":"blue","trial_type":"pit-trial","trial_index":239,"time_elapsed":1182052,"internal_node_id":"0.0-228.0","task_version":"test-retest"},{"Rune":"rune_01_ear","Hex":"#ffcc3399","Correct":32,"Choice":32,"RT":330.7500001974404,"Accuracy":1,"Outcome":"+10","Keys":[1830.8999999426305],"TotalKeys":1,"Block":2,"Trial":218,"Robot":1,"Valence":"Win","Action":"Go","Sham":0,"Color":"yellow","trial_type":"pit-trial","trial_index":240,"time_elapsed":1184889,"internal_node_id":"0.0-229.0","task_version":"test-retest"},{"Rune":"rune_01_ingwaz","Hex":"#ffcc3399","Correct":-1,"Choice":-1,"RT":-1,"Accuracy":1,"Outcome":"+1","Keys":[],"TotalKeys":0,"Block":2,"Trial":219,"Robot":2,"Valence":"Win","Action":"No-Go","Sham":1,"Color":"yellow","trial_type":"pit-trial","trial_index":241,"time_elapsed":1188899,"internal_node_id":"0.0-230.0","task_version":"test-retest"},{"Rune":"rune_01_yr","Hex":"#3366ff99","Correct":-1,"Choice":-1,"RT":-1,"Accuracy":1,"Outcome":"-1","Keys":[],"TotalKeys":0,"Block":2,"Trial":220,"Robot":4,"Valence":"Lose","Action":"No-Go","Sham":0,"Color":"blue","trial_type":"pit-trial","trial_index":242,"time_elapsed":1192911,"internal_node_id":"0.0-231.0","task_version":"test-retest"},{"Rune":"rune_01_ear","Hex":"#ffcc3399","Correct":32,"Choice":32,"RT":307.34000029042363,"Accuracy":1,"Outcome":"+1","Keys":[1807.4100003577769],"TotalKeys":1,"Block":2,"Trial":221,"Robot":1,"Valence":"Win","Action":"Go","Sham":1,"Color":"yellow","trial_type":"pit-trial","trial_index":243,"time_elapsed":1195724,"internal_node_id":"0.0-232.0","task_version":"test-retest"},{"Rune":"rune_01_ger","Hex":"#3366ff99","Correct":32,"Choice":32,"RT":302.94999992474914,"Accuracy":1,"Outcome":"-1","Keys":[1803.214999847114],"TotalKeys":1,"Block":2,"Trial":222,"Robot":3,"Valence":"Lose","Action":"Go","Sham":0,"Color":"blue","trial_type":"pit-trial","trial_index":244,"time_elapsed":1198531,"internal_node_id":"0.0-233.0","task_version":"test-retest"},{"Rune":"rune_01_ingwaz","Hex":"#ffcc3399","Correct":-1,"Choice":-1,"RT":-1,"Accuracy":1,"Outcome":"+1","Keys":[],"TotalKeys":0,"Block":2,"Trial":223,"Robot":2,"Valence":"Win","Action":"No-Go","Sham":1,"Color":"yellow","trial_type":"pit-trial","trial_index":245,"time_elapsed":1202542,"internal_node_id":"0.0-234.0","task_version":"test-retest"},{"Rune":"rune_01_yr","Hex":"#3366ff99","Correct":-1,"Choice":-1,"RT":-1,"Accuracy":1,"Outcome":"-10","Keys":[],"TotalKeys":0,"Block":2,"Trial":224,"Robot":4,"Valence":"Lose","Action":"No-Go","Sham":1,"Color":"blue","trial_type":"pit-trial","trial_index":246,"time_elapsed":1206554,"internal_node_id":"0.0-235.0","task_version":"test-retest"},{"Rune":"rune_01_yr","Hex":"#3366ff99","Correct":-1,"Choice":-1,"RT":-1,"Accuracy":1,"Outcome":"-1","Keys":[],"TotalKeys":0,"Block":2,"Trial":225,"Robot":4,"Valence":"Lose","Action":"No-Go","Sham":0,"Color":"blue","trial_type":"pit-trial","trial_index":247,"time_elapsed":1210565,"internal_node_id":"0.0-236.0","task_version":"test-retest"},{"Rune":"rune_01_ear","Hex":"#ffcc3399","Correct":32,"Choice":32,"RT":348.5599998384714,"Accuracy":1,"Outcome":"+10","Keys":[1849.8999997973442],"TotalKeys":1,"Block":2,"Trial":226,"Robot":1,"Valence":"Win","Action":"Go","Sham":0,"Color":"yellow","trial_type":"pit-trial","trial_index":248,"time_elapsed":1213424,"internal_node_id":"0.0-237.0","task_version":"test-retest"},{"Rune":"rune_01_ger","Hex":"#3366ff99","Correct":32,"Choice":32,"RT":304.04500011354685,"Accuracy":1,"Outcome":"-10","Keys":[1804.550000000745],"TotalKeys":1,"Block":2,"Trial":227,"Robot":3,"Valence":"Lose","Action":"Go","Sham":1,"Color":"blue","trial_type":"pit-trial","trial_index":249,"time_elapsed":1216232,"internal_node_id":"0.0-238.0","task_version":"test-retest"},{"Rune":"rune_01_ingwaz","Hex":"#ffcc3399","Correct":-1,"Choice":-1,"RT":-1,"Accuracy":1,"Outcome":"+10","Keys":[],"TotalKeys":0,"Block":2,"Trial":228,"Robot":2,"Valence":"Win","Action":"No-Go","Sham":0,"Color":"yellow","trial_type":"pit-trial","trial_index":250,"time_elapsed":1220243,"internal_node_id":"0.0-239.0","task_version":"test-retest"},{"Rune":"rune_01_ger","Hex":"#3366ff99","Correct":32,"Choice":32,"RT":349.4250001385808,"Accuracy":1,"Outcome":"-1","Keys":[1849.5899997651577],"TotalKeys":1,"Block":2,"Trial":229,"Robot":3,"Valence":"Lose","Action":"Go","Sham":0,"Color":"blue","trial_type":"pit-trial","trial_index":251,"time_elapsed":1223100,"internal_node_id":"0.0-240.0","task_version":"test-retest"},{"Rune":"rune_01_ingwaz","Hex":"#ffcc3399","Correct":-1,"Choice":-1,"RT":-1,"Accuracy":1,"Outcome":"+10","Keys":[],"TotalKeys":0,"Block":2,"Trial":230,"Robot":2,"Valence":"Win","Action":"No-Go","Sham":0,"Color":"yellow","trial_type":"pit-trial","trial_index":252,"time_elapsed":1227111,"internal_node_id":"0.0-241.0","task_version":"test-retest"},{"Rune":"rune_01_yr","Hex":"#3366ff99","Correct":-1,"Choice":-1,"RT":-1,"Accuracy":1,"Outcome":"-1","Keys":[],"TotalKeys":0,"Block":2,"Trial":231,"Robot":4,"Valence":"Lose","Action":"No-Go","Sham":0,"Color":"blue","trial_type":"pit-trial","trial_index":253,"time_elapsed":1231123,"internal_node_id":"0.0-242.0","task_version":"test-retest"},{"Rune":"rune_01_ear","Hex":"#ffcc3399","Correct":32,"Choice":32,"RT":310.30000001192093,"Accuracy":1,"Outcome":"+10","Keys":[1810.910000000149],"TotalKeys":1,"Block":2,"Trial":232,"Robot":1,"Valence":"Win","Action":"Go","Sham":0,"Color":"yellow","trial_type":"pit-trial","trial_index":254,"time_elapsed":1233938,"internal_node_id":"0.0-243.0","task_version":"test-retest"},{"Rune":"rune_01_yr","Hex":"#3366ff99","Correct":-1,"Choice":-1,"RT":-1,"Accuracy":1,"Outcome":"-1","Keys":[],"TotalKeys":0,"Block":2,"Trial":233,"Robot":4,"Valence":"Lose","Action":"No-Go","Sham":0,"Color":"blue","trial_type":"pit-trial","trial_index":255,"time_elapsed":1237950,"internal_node_id":"0.0-244.0","task_version":"test-retest"},{"Rune":"rune_01_ingwaz","Hex":"#ffcc3399","Correct":-1,"Choice":-1,"RT":-1,"Accuracy":1,"Outcome":"+10","Keys":[],"TotalKeys":0,"Block":2,"Trial":234,"Robot":2,"Valence":"Win","Action":"No-Go","Sham":0,"Color":"yellow","trial_type":"pit-trial","trial_index":256,"time_elapsed":1241961,"internal_node_id":"0.0-245.0","task_version":"test-retest"},{"Rune":"rune_01_ger","Hex":"#3366ff99","Correct":32,"Choice":32,"RT":396.8299999833107,"Accuracy":1,"Outcome":"-1","Keys":[1896.984999999404],"TotalKeys":1,"Block":2,"Trial":235,"Robot":3,"Valence":"Lose","Action":"Go","Sham":0,"Color":"blue","trial_type":"pit-trial","trial_index":257,"time_elapsed":1244867,"internal_node_id":"0.0-246.0","task_version":"test-retest"},{"Rune":"rune_01_ear","Hex":"#ffcc3399","Correct":32,"Choice":32,"RT":329.50499979779124,"Accuracy":1,"Outcome":"+10","Keys":[1830.5000001564622],"TotalKeys":1,"Block":2,"Trial":236,"Robot":1,"Valence":"Win","Action":"Go","Sham":0,"Color":"yellow","trial_type":"pit-trial","trial_index":258,"time_elapsed":1247705,"internal_node_id":"0.0-247.0","task_version":"test-retest"},{"Rune":"rune_01_ger","Hex":"#3366ff99","Correct":32,"Choice":32,"RT":326.68500021100044,"Accuracy":1,"Outcome":"-1","Keys":[1827.0000000484288],"TotalKeys":1,"Block":2,"Trial":237,"Robot":3,"Valence":"Lose","Action":"Go","Sham":0,"Color":"blue","trial_type":"pit-trial","trial_index":259,"time_elapsed":1250540,"internal_node_id":"0.0-248.0","task_version":"test-retest"},{"Rune":"rune_01_ingwaz","Hex":"#ffcc3399","Correct":-1,"Choice":-1,"RT":-1,"Accuracy":1,"Outcome":"+10","Keys":[],"TotalKeys":0,"Block":2,"Trial":238,"Robot":2,"Valence":"Win","Action":"No-Go","Sham":0,"Color":"yellow","trial_type":"pit-trial","trial_index":260,"time_elapsed":1254553,"internal_node_id":"0.0-249.0","task_version":"test-retest"},{"Rune":"rune_01_yr","Hex":"#3366ff99","Correct":-1,"Choice":-1,"RT":-1,"Accuracy":1,"Outcome":"-1","Keys":[],"TotalKeys":0,"Block":2,"Trial":239,"Robot":4,"Valence":"Lose","Action":"No-Go","Sham":0,"Color":"blue","trial_type":"pit-trial","trial_index":261,"time_elapsed":1258564,"internal_node_id":"0.0-250.0","task_version":"test-retest"},{"Rune":"rune_01_ear","Hex":"#ffcc3399","Correct":32,"Choice":32,"RT":357.1950001642108,"Accuracy":1,"Outcome":"+10","Keys":[1858.055000193417],"TotalKeys":1,"Block":2,"Trial":240,"Robot":1,"Valence":"Win","Action":"Go","Sham":0,"Color":"yellow","trial_type":"pit-trial","trial_index":262,"time_elapsed":1261430,"internal_node_id":"0.0-251.0","task_version":"test-retest"},{"view_history":"[{\"page_index\":0,\"viewing_time\":2183.1200001761317}]","rt":2183.6649999022484,"trial_type":"pit-instructions","trial_index":263,"time_elapsed":1263616,"internal_node_id":"0.0-252.0","task_version":"test-retest"},{"rt":15010.689999908209,"responses":{"age":"30","gender-categorical":"Female","gender-free-response":"","ethnicity":"Not Hispanic or Latino","race":"White","language":"Yes","fluency":"Very well"},"survey":"demographics","trial_type":"survey-demo","trial_index":264,"time_elapsed":1278632,"internal_node_id":"0.0-253.0","task_version":"test-retest"},{"rt":19680.36999972537,"responses":{"difficulty":"3","fun":"2","clarity":"4","strategy":"no strategies ","feedback":"no issues or concerns"},"survey":"debrief","trial_type":"survey-debrief","trial_index":265,"time_elapsed":1298316,"internal_node_id":"0.0-254.0","task_version":"test-retest"},{"rt":4259.410000406206,"stimulus":"You earned a bonus of $1.29 out of $1.5.<br><br>Press any key to complete the experiment.","key_press":32,"trial_type":"html-keyboard-response","trial_index":266,"time_elapsed":1302579,"internal_node_id":"0.0-255.0","task_version":"test-retest","accuracy":0.8541666666666666,"bonus":1.29,"interactions":"[{\"event\":\"blur\",\"trial\":2,\"time\":88512},{\"event\":\"focus\",\"trial\":2,\"time\":100318},{\"event\":\"blur\",\"trial\":2,\"time\":101629},{\"event\":\"focus\",\"trial\":2,\"time\":103998},{\"event\":\"blur\",\"trial\":2,\"time\":157423},{\"event\":\"focus\",\"trial\":2,\"time\":161519},{\"event\":\"blur\",\"trial\":2,\"time\":190301},{\"event\":\"focus\",\"trial\":2,\"time\":192511},{\"event\":\"blur\",\"trial\":2,\"time\":193862},{\"event\":\"focus\",\"trial\":2,\"time\":195941},{\"event\":\"blur\",\"trial\":3,\"time\":213067},{\"event\":\"focus\",\"trial\":3,\"time\":219668}]"}]