[{"slider_type":"valence","raw_loc":474,"loc":0.448,"trial_type":"affective-slider","trial_index":0,"time_elapsed":3536,"internal_node_id":"0.0-0.0","task_version":"test-retest-t4"},{"responses":{"Q13":"0","Q07":"1","Q05":"1","Q12":"1","Q09":"1","Q03":"1","Q06":"1","Q11":"1","Q10":"1","Q08":"0","Q14":"0","Q04":"1","Q01":"1","Q02":"1","Q15":"0"},"rt":153061.18499999866,"survey":"7up7down","trial_type":"survey-template","trial_index":1,"time_elapsed":156620,"internal_node_id":"0.0-1.0","task_version":"test-retest-t4"},{"responses":{"Q02":"0","Q01":"0","Q03":"0","Q08":"0","Q07":"0","Q06":"2","Q05":"0","Q04":"1"},"rt":26210.244999732822,"survey":"gad7","trial_type":"survey-template","trial_index":2,"time_elapsed":182840,"internal_node_id":"0.0-2.0","task_version":"test-retest-t4"},{"responses":{"Q13":"0","Q05":"2","Q08":"2","Q01":"3","Q06":"3","Q04":"3","Q02":"2","Q03":"2","Q07":"2","Q09":"1","Q11":"2","Q10":"1","Q12":"0"},"rt":68101.75500018522,"survey":"bisbas","trial_type":"survey-template","trial_index":3,"time_elapsed":250958,"internal_node_id":"0.0-3.0","task_version":"test-retest-t4"},{"view_history":"[{\"page_index\":0,\"viewing_time\":9100.22999998182},{\"page_index\":1,\"viewing_time\":1703.6749999970198},{\"page_index\":2,\"viewing_time\":2975.879999808967},{\"page_index\":3,\"viewing_time\":6327.880000229925},{\"page_index\":4,\"viewing_time\":3320.0499997474253},{\"page_index\":5,\"viewing_time\":2047.9250000789762}]","rt":25479.605000000447,"trial_type":"pit-instructions","trial_index":4,"time_elapsed":276450,"internal_node_id":"0.0-4.0-0.0","task_version":"test-retest-t4"},{"Rune":"rune_00_ingz","Hex":"#FFFFF080","Correct":32,"Choice":-1,"RT":-1,"Accuracy":0,"Outcome":"+0","Keys":[],"TotalKeys":0,"Block":0,"Action":"Go","trial_type":"pit-trial","trial_index":5,"time_elapsed":280474,"internal_node_id":"0.0-4.0-1.0-0.0","task_version":"test-retest-t4"},{"Rune":"rune_00_ingz","Hex":"#FFFFF080","Correct":32,"Choice":32,"RT":1079.799999948591,"Accuracy":1,"Outcome":"+10","Keys":[2581.1600000597537],"TotalKeys":1,"Block":0,"Action":"Go","trial_type":"pit-trial","trial_index":6,"time_elapsed":284075,"internal_node_id":"0.0-4.0-1.0-0.1","task_version":"test-retest-t4"},{"Rune":"rune_00_ingz","Hex":"#FFFFF080","Correct":32,"Choice":-1,"RT":-1,"Accuracy":0,"Outcome":"+0","Keys":[],"TotalKeys":0,"Block":0,"Action":"Go","trial_type":"pit-trial","trial_index":7,"time_elapsed":288093,"internal_node_id":"0.0-4.0-1.0-0.2","task_version":"test-retest-t4"},{"Rune":"rune_00_ingz","Hex":"#FFFFF080","Correct":32,"Choice":32,"RT":568.6300001107156,"Accuracy":1,"Outcome":"+10","Keys":[2069.025000091642],"TotalKeys":1,"Block":0,"Action":"Go","trial_type":"pit-trial","trial_index":8,"time_elapsed":291173,"internal_node_id":"0.0-4.0-1.0-0.3","task_version":"test-retest-t4"},{"view_history":"[{\"page_index\":0,\"viewing_time\":9140.589999966323}]","rt":9141.805000137538,"trial_type":"pit-instructions","trial_index":9,"time_elapsed":300319,"internal_node_id":"0.0-4.0-2.0","task_version":"test-retest-t4"},{"Rune":"rune_00_isaz","Hex":"#FFFFF080","Correct":-1,"Choice":-1,"RT":-1,"Accuracy":1,"Outcome":"+10","Keys":[],"TotalKeys":0,"Block":0,"Action":"No-Go","trial_type":"pit-trial","trial_index":10,"time_elapsed":304332,"internal_node_id":"0.0-4.0-3.0-0.0","task_version":"test-retest-t4"},{"Rune":"rune_00_isaz","Hex":"#FFFFF080","Correct":-1,"Choice":-1,"RT":-1,"Accuracy":1,"Outcome":"+10","Keys":[],"TotalKeys":0,"Block":0,"Action":"No-Go","trial_type":"pit-trial","trial_index":11,"time_elapsed":308350,"internal_node_id":"0.0-4.0-3.0-0.1","task_version":"test-retest-t4"},{"Rune":"rune_00_isaz","Hex":"#FFFFF080","Correct":-1,"Choice":-1,"RT":-1,"Accuracy":1,"Outcome":"+10","Keys":[],"TotalKeys":0,"Block":0,"Action":"No-Go","trial_type":"pit-trial","trial_index":12,"time_elapsed":312370,"internal_node_id":"0.0-4.0-3.0-0.2","task_version":"test-retest-t4"},{"Rune":"rune_00_isaz","Hex":"#FFFFF080","Correct":-1,"Choice":-1,"RT":-1,"Accuracy":1,"Outcome":"+10","Keys":[],"TotalKeys":0,"Block":0,"Action":"No-Go","trial_type":"pit-trial","trial_index":13,"time_elapsed":316393,"internal_node_id":"0.0-4.0-3.0-0.3","task_version":"test-retest-t4"},{"view_history":"[{\"page_index\":0,\"viewing_time\":3025.219999719411},{\"page_index\":1,\"viewing_time\":11927.595000248402},{\"page_index\":2,\"viewing_time\":5840.450000017881},{\"page_index\":3,\"viewing_time\":11239.515000022948},{\"page_index\":4,\"viewing_time\":7208.894999697804},{\"page_index\":5,\"viewing_time\":10847.070000134408},{\"page_index\":6,\"viewing_time\":4063.9800000935793},{\"page_index\":7,\"viewing_time\":1456.1600000597537}]","rt":55610.09999969974,"trial_type":"pit-instructions","trial_index":14,"time_elapsed":372011,"internal_node_id":"0.0-4.0-4.0","task_version":"test-retest-t4"},{"responses":["Do nothing","+10","-1","True","Yes"],"num_errors":0,"rt":25977.70999977365,"trial_type":"pit-comprehension","trial_index":15,"time_elapsed":397996,"internal_node_id":"0.0-4.0-5.0","task_version":"test-retest-t4"},{"trial_type":"call-function","trial_index":16,"time_elapsed":398013,"internal_node_id":"0.0-5.0","task_version":"test-retest-t4"},{"view_history":"[{\"page_index\":0,\"viewing_time\":1662.8200002014637},{\"page_index\":1,\"viewing_time\":5920.479999855161},{\"page_index\":2,\"viewing_time\":10675.635000225157}]","rt":18260.5000003241,"trial_type":"pit-instructions","trial_index":17,"time_elapsed":416276,"internal_node_id":"0.0-6.0","task_version":"test-retest-t4"},{"Rune":"rune_08_sigel","Hex":"#ffcc3399","Correct":32,"Choice":32,"RT":971.8949999660254,"Accuracy":1,"Outcome":"-1","Keys":[2477.6300000958145],"TotalKeys":1,"Block":1,"Trial":1,"Robot":3,"Valence":"Lose","Action":"Go","Sham":0,"Color":"yellow","trial_type":"pit-trial","trial_index":18,"time_elapsed":419779,"internal_node_id":"0.0-7.0","task_version":"test-retest-t4"},{"Rune":"rune_08_mannaz","Hex":"#ffcc3399","Correct":-1,"Choice":-1,"RT":-1,"Accuracy":1,"Outcome":"-1","Keys":[],"TotalKeys":0,"Block":1,"Trial":2,"Robot":4,"Valence":"Lose","Action":"No-Go","Sham":0,"Color":"yellow","trial_type":"pit-trial","trial_index":19,"time_elapsed":423800,"internal_node_id":"0.0-8.0","task_version":"test-retest-t4"},{"Rune":"rune_08_fehu","Hex":"#3366ff99","Correct":32,"Choice":-1,"RT":-1,"Accuracy":0,"Outcome":"+1","Keys":[],"TotalKeys":0,"Block":1,"Trial":3,"Robot":1,"Valence":"Win","Action":"Go","Sham":0,"Color":"blue","trial_type":"pit-trial","trial_index":20,"time_elapsed":427818,"internal_node_id":"0.0-9.0","task_version":"test-retest-t4"},{"Rune":"rune_08_pertho","Hex":"#3366ff99","Correct":-1,"Choice":32,"RT":472.76500007137656,"Accuracy":0,"Outcome":"+1","Keys":[1977.639999706298],"TotalKeys":1,"Block":1,"Trial":4,"Robot":2,"Valence":"Win","Action":"No-Go","Sham":0,"Color":"blue","trial_type":"pit-trial","trial_index":21,"time_elapsed":430809,"internal_node_id":"0.0-10.0","task_version":"test-retest-t4"},{"Rune":"rune_08_mannaz","Hex":"#ffcc3399","Correct":-1,"Choice":32,"RT":796.1550001055002,"Accuracy":0,"Outcome":"-10","Keys":[2298.5350000672042],"TotalKeys":1,"Block":1,"Trial":5,"Robot":4,"Valence":"Lose","Action":"No-Go","Sham":0,"Color":"yellow","trial_type":"pit-trial","trial_index":22,"time_elapsed":434118,"internal_node_id":"0.0-11.0","task_version":"test-retest-t4"},{"Rune":"rune_08_fehu","Hex":"#3366ff99","Correct":32,"Choice":32,"RT":820.4449997283518,"Accuracy":1,"Outcome":"+10","Keys":[2326.599999796599],"TotalKeys":1,"Block":1,"Trial":6,"Robot":1,"Valence":"Win","Action":"Go","Sham":0,"Color":"blue","trial_type":"pit-trial","trial_index":23,"time_elapsed":437458,"internal_node_id":"0.0-12.0","task_version":"test-retest-t4"},{"Rune":"rune_08_pertho","Hex":"#3366ff99","Correct":-1,"Choice":-1,"RT":-1,"Accuracy":1,"Outcome":"+10","Keys":[],"TotalKeys":0,"Block":1,"Trial":7,"Robot":2,"Valence":"Win","Action":"No-Go","Sham":0,"Color":"blue","trial_type":"pit-trial","trial_index":24,"time_elapsed":441479,"internal_node_id":"0.0-13.0","task_version":"test-retest-t4"},{"Rune":"rune_08_sigel","Hex":"#ffcc3399","Correct":32,"Choice":32,"RT":854.0849997662008,"Accuracy":1,"Outcome":"-10","Keys":[2358.2699997350574],"TotalKeys":1,"Block":1,"Trial":8,"Robot":3,"Valence":"Lose","Action":"Go","Sham":1,"Color":"yellow","trial_type":"pit-trial","trial_index":25,"time_elapsed":444853,"internal_node_id":"0.0-14.0","task_version":"test-retest-t4"},{"Rune":"rune_08_pertho","Hex":"#3366ff99","Correct":-1,"Choice":32,"RT":1108.510000165552,"Accuracy":0,"Outcome":"+1","Keys":[2613.5499998927116],"TotalKeys":1,"Block":1,"Trial":9,"Robot":2,"Valence":"Win","Action":"No-Go","Sham":0,"Color":"blue","trial_type":"pit-trial","trial_index":26,"time_elapsed":448479,"internal_node_id":"0.0-15.0","task_version":"test-retest-t4"},{"Rune":"rune_08_mannaz","Hex":"#ffcc3399","Correct":-1,"Choice":-1,"RT":-1,"Accuracy":1,"Outcome":"-1","Keys":[],"TotalKeys":0,"Block":1,"Trial":10,"Robot":4,"Valence":"Lose","Action":"No-Go","Sham":0,"Color":"yellow","trial_type":"pit-trial","trial_index":27,"time_elapsed":452500,"internal_node_id":"0.0-16.0","task_version":"test-retest-t4"},{"Rune":"rune_08_sigel","Hex":"#ffcc3399","Correct":32,"Choice":-1,"RT":-1,"Accuracy":0,"Outcome":"-10","Keys":[],"TotalKeys":0,"Block":1,"Trial":11,"Robot":3,"Valence":"Lose","Action":"Go","Sham":0,"Color":"yellow","trial_type":"pit-trial","trial_index":28,"time_elapsed":456519,"internal_node_id":"0.0-17.0","task_version":"test-retest-t4"},{"Rune":"rune_08_fehu","Hex":"#3366ff99","Correct":32,"Choice":32,"RT":873.5000002197921,"Accuracy":1,"Outcome":"+10","Keys":[2374.294999986887],"TotalKeys":1,"Block":1,"Trial":12,"Robot":1,"Valence":"Win","Action":"Go","Sham":0,"Color":"blue","trial_type":"pit-trial","trial_index":29,"time_elapsed":459905,"internal_node_id":"0.0-18.0","task_version":"test-retest-t4"},{"Rune":"rune_08_pertho","Hex":"#3366ff99","Correct":-1,"Choice":32,"RT":781.6750002093613,"Accuracy":0,"Outcome":"+10","Keys":[2286.4999999292195],"TotalKeys":1,"Block":1,"Trial":13,"Robot":2,"Valence":"Win","Action":"No-Go","Sham":1,"Color":"blue","trial_type":"pit-trial","trial_index":30,"time_elapsed":463207,"internal_node_id":"0.0-19.0","task_version":"test-retest-t4"},{"Rune":"rune_08_sigel","Hex":"#ffcc3399","Correct":32,"Choice":-1,"RT":-1,"Accuracy":0,"Outcome":"-10","Keys":[],"TotalKeys":0,"Block":1,"Trial":14,"Robot":3,"Valence":"Lose","Action":"Go","Sham":0,"Color":"yellow","trial_type":"pit-trial","trial_index":31,"time_elapsed":467226,"internal_node_id":"0.0-20.0","task_version":"test-retest-t4"},{"Rune":"rune_08_mannaz","Hex":"#ffcc3399","Correct":-1,"Choice":-1,"RT":-1,"Accuracy":1,"Outcome":"-1","Keys":[],"TotalKeys":0,"Block":1,"Trial":15,"Robot":4,"Valence":"Lose","Action":"No-Go","Sham":0,"Color":"yellow","trial_type":"pit-trial","trial_index":32,"time_elapsed":471239,"internal_node_id":"0.0-21.0","task_version":"test-retest-t4"},{"Rune":"rune_08_fehu","Hex":"#3366ff99","Correct":32,"Choice":32,"RT":559.9199999123812,"Accuracy":1,"Outcome":"+10","Keys":[2061.8400000967085],"TotalKeys":1,"Block":1,"Trial":16,"Robot":1,"Valence":"Win","Action":"Go","Sham":0,"Color":"blue","trial_type":"pit-trial","trial_index":33,"time_elapsed":474315,"internal_node_id":"0.0-22.0","task_version":"test-retest-t4"},{"Rune":"rune_08_fehu","Hex":"#3366ff99","Correct":32,"Choice":32,"RT":584.9449997767806,"Accuracy":1,"Outcome":"+1","Keys":[2087.919999845326],"TotalKeys":1,"Block":1,"Trial":17,"Robot":1,"Valence":"Win","Action":"Go","Sham":1,"Color":"blue","trial_type":"pit-trial","trial_index":34,"time_elapsed":477415,"internal_node_id":"0.0-23.0","task_version":"test-retest-t4"},{"Rune":"rune_08_pertho","Hex":"#3366ff99","Correct":-1,"Choice":32,"RT":771.0499996319413,"Accuracy":0,"Outcome":"+1","Keys":[2271.6800002381206],"TotalKeys":1,"Block":1,"Trial":18,"Robot":2,"Valence":"Win","Action":"No-Go","Sham":0,"Color":"blue","trial_type":"pit-trial","trial_index":35,"time_elapsed":480703,"internal_node_id":"0.0-24.0","task_version":"test-retest-t4"},{"Rune":"rune_08_mannaz","Hex":"#ffcc3399","Correct":-1,"Choice":32,"RT":959.2149998061359,"Accuracy":0,"Outcome":"-1","Keys":[2463.7599997222424],"TotalKeys":1,"Block":1,"Trial":19,"Robot":4,"Valence":"Lose","Action":"No-Go","Sham":1,"Color":"yellow","trial_type":"pit-trial","trial_index":36,"time_elapsed":484182,"internal_node_id":"0.0-25.0","task_version":"test-retest-t4"},{"Rune":"rune_08_sigel","Hex":"#ffcc3399","Correct":32,"Choice":32,"RT":574.4549999944866,"Accuracy":1,"Outcome":"-1","Keys":[2078.9499999955297],"TotalKeys":1,"Block":1,"Trial":20,"Robot":3,"Valence":"Lose","Action":"Go","Sham":0,"Color":"yellow","trial_type":"pit-trial","trial_index":37,"time_elapsed":487269,"internal_node_id":"0.0-26.0","task_version":"test-retest-t4"},{"Rune":"rune_08_pertho","Hex":"#3366ff99","Correct":-1,"Choice":32,"RT":932.6150002889335,"Accuracy":0,"Outcome":"+10","Keys":[2437.7799998037517],"TotalKeys":1,"Block":1,"Trial":21,"Robot":2,"Valence":"Win","Action":"No-Go","Sham":1,"Color":"blue","trial_type":"pit-trial","trial_index":38,"time_elapsed":490716,"internal_node_id":"0.0-27.0","task_version":"test-retest-t4"},{"Rune":"rune_08_fehu","Hex":"#3366ff99","Correct":32,"Choice":32,"RT":529.5649999752641,"Accuracy":1,"Outcome":"+1","Keys":[2033.6499996483326],"TotalKeys":1,"Block":1,"Trial":22,"Robot":1,"Valence":"Win","Action":"Go","Sham":1,"Color":"blue","trial_type":"pit-trial","trial_index":39,"time_elapsed":493759,"internal_node_id":"0.0-28.0","task_version":"test-retest-t4"},{"Rune":"rune_08_sigel","Hex":"#ffcc3399","Correct":32,"Choice":32,"RT":784.8749998956919,"Accuracy":1,"Outcome":"-1","Keys":[2292.6099998876452],"TotalKeys":1,"Block":1,"Trial":23,"Robot":3,"Valence":"Lose","Action":"Go","Sham":0,"Color":"yellow","trial_type":"pit-trial","trial_index":40,"time_elapsed":497065,"internal_node_id":"0.0-29.0","task_version":"test-retest-t4"},{"Rune":"rune_08_mannaz","Hex":"#ffcc3399","Correct":-1,"Choice":-1,"RT":-1,"Accuracy":1,"Outcome":"-1","Keys":[],"TotalKeys":0,"Block":1,"Trial":24,"Robot":4,"Valence":"Lose","Action":"No-Go","Sham":0,"Color":"yellow","trial_type":"pit-trial","trial_index":41,"time_elapsed":501089,"internal_node_id":"0.0-30.0","task_version":"test-retest-t4"},{"Rune":"rune_08_fehu","Hex":"#3366ff99","Correct":32,"Choice":32,"RT":588.9349998906255,"Accuracy":1,"Outcome":"+10","Keys":[2090.4450002126396],"TotalKeys":1,"Block":1,"Trial":25,"Robot":1,"Valence":"Win","Action":"Go","Sham":0,"Color":"blue","trial_type":"pit-trial","trial_index":42,"time_elapsed":504188,"internal_node_id":"0.0-31.0","task_version":"test-retest-t4"},{"Rune":"rune_08_sigel","Hex":"#ffcc3399","Correct":32,"Choice":32,"RT":762.2650000266731,"Accuracy":1,"Outcome":"-1","Keys":[2269.430000334978],"TotalKeys":1,"Block":1,"Trial":26,"Robot":3,"Valence":"Lose","Action":"Go","Sham":0,"Color":"yellow","trial_type":"pit-trial","trial_index":43,"time_elapsed":507467,"internal_node_id":"0.0-32.0","task_version":"test-retest-t4"},{"Rune":"rune_08_pertho","Hex":"#3366ff99","Correct":-1,"Choice":-1,"RT":-1,"Accuracy":1,"Outcome":"+10","Keys":[],"TotalKeys":0,"Block":1,"Trial":27,"Robot":2,"Valence":"Win","Action":"No-Go","Sham":0,"Color":"blue","trial_type":"pit-trial","trial_index":44,"time_elapsed":511486,"internal_node_id":"0.0-33.0","task_version":"test-retest-t4"},{"Rune":"rune_08_mannaz","Hex":"#ffcc3399","Correct":-1,"Choice":-1,"RT":-1,"Accuracy":1,"Outcome":"-1","Keys":[],"TotalKeys":0,"Block":1,"Trial":28,"Robot":4,"Valence":"Lose","Action":"No-Go","Sham":0,"Color":"yellow","trial_type":"pit-trial","trial_index":45,"time_elapsed":515497,"internal_node_id":"0.0-34.0","task_version":"test-retest-t4"},{"Rune":"rune_08_fehu","Hex":"#3366ff99","Correct":32,"Choice":32,"RT":439.98000025749207,"Accuracy":1,"Outcome":"+10","Keys":[1942.625000141561],"TotalKeys":1,"Block":1,"Trial":29,"Robot":1,"Valence":"Win","Action":"Go","Sham":0,"Color":"blue","trial_type":"pit-trial","trial_index":46,"time_elapsed":518450,"internal_node_id":"0.0-35.0","task_version":"test-retest-t4"},{"Rune":"rune_08_pertho","Hex":"#3366ff99","Correct":-1,"Choice":32,"RT":894.9899999424815,"Accuracy":0,"Outcome":"+1","Keys":[2400.795000139624],"TotalKeys":1,"Block":1,"Trial":30,"Robot":2,"Valence":"Win","Action":"No-Go","Sham":0,"Color":"blue","trial_type":"pit-trial","trial_index":47,"time_elapsed":521861,"internal_node_id":"0.0-36.0","task_version":"test-retest-t4"},{"Rune":"rune_08_mannaz","Hex":"#ffcc3399","Correct":-1,"Choice":-1,"RT":-1,"Accuracy":1,"Outcome":"-1","Keys":[],"TotalKeys":0,"Block":1,"Trial":31,"Robot":4,"Valence":"Lose","Action":"No-Go","Sham":0,"Color":"yellow","trial_type":"pit-trial","trial_index":48,"time_elapsed":525881,"internal_node_id":"0.0-37.0","task_version":"test-retest-t4"},{"Rune":"rune_08_sigel","Hex":"#ffcc3399","Correct":32,"Choice":32,"RT":611.6949999704957,"Accuracy":1,"Outcome":"-1","Keys":[2120.664999820292],"TotalKeys":1,"Block":1,"Trial":32,"Robot":3,"Valence":"Lose","Action":"Go","Sham":0,"Color":"yellow","trial_type":"pit-trial","trial_index":49,"time_elapsed":529017,"internal_node_id":"0.0-38.0","task_version":"test-retest-t4"},{"Rune":"rune_08_fehu","Hex":"#3366ff99","Correct":32,"Choice":32,"RT":483.29500015825033,"Accuracy":1,"Outcome":"+10","Keys":[1988.33499988541],"TotalKeys":1,"Block":1,"Trial":33,"Robot":1,"Valence":"Win","Action":"Go","Sham":0,"Color":"blue","trial_type":"pit-trial","trial_index":50,"time_elapsed":532020,"internal_node_id":"0.0-39.0","task_version":"test-retest-t4"},{"Rune":"rune_08_sigel","Hex":"#ffcc3399","Correct":32,"Choice":32,"RT":801.8399998545647,"Accuracy":1,"Outcome":"-1","Keys":[2308.18000016734],"TotalKeys":1,"Block":1,"Trial":34,"Robot":3,"Valence":"Lose","Action":"Go","Sham":0,"Color":"yellow","trial_type":"pit-trial","trial_index":51,"time_elapsed":535343,"internal_node_id":"0.0-40.0","task_version":"test-retest-t4"},{"Rune":"rune_08_pertho","Hex":"#3366ff99","Correct":-1,"Choice":32,"RT":862.0899999514222,"Accuracy":0,"Outcome":"+1","Keys":[2365.5150001868606],"TotalKeys":1,"Block":1,"Trial":35,"Robot":2,"Valence":"Win","Action":"No-Go","Sham":0,"Color":"blue","trial_type":"pit-trial","trial_index":52,"time_elapsed":538724,"internal_node_id":"0.0-41.0","task_version":"test-retest-t4"},{"Rune":"rune_08_mannaz","Hex":"#ffcc3399","Correct":-1,"Choice":-1,"RT":-1,"Accuracy":1,"Outcome":"-1","Keys":[],"TotalKeys":0,"Block":1,"Trial":36,"Robot":4,"Valence":"Lose","Action":"No-Go","Sham":0,"Color":"yellow","trial_type":"pit-trial","trial_index":53,"time_elapsed":542742,"internal_node_id":"0.0-42.0","task_version":"test-retest-t4"},{"Rune":"rune_08_sigel","Hex":"#ffcc3399","Correct":32,"Choice":32,"RT":443.0849999189377,"Accuracy":1,"Outcome":"-10","Keys":[1943.1699998676777],"TotalKeys":1,"Block":1,"Trial":37,"Robot":3,"Valence":"Lose","Action":"Go","Sham":1,"Color":"yellow","trial_type":"pit-trial","trial_index":54,"time_elapsed":545700,"internal_node_id":"0.0-43.0","task_version":"test-retest-t4"},{"Rune":"rune_08_pertho","Hex":"#3366ff99","Correct":-1,"Choice":32,"RT":863.8949999585748,"Accuracy":0,"Outcome":"+1","Keys":[2367.0999999158084],"TotalKeys":1,"Block":1,"Trial":38,"Robot":2,"Valence":"Win","Action":"No-Go","Sham":0,"Color":"blue","trial_type":"pit-trial","trial_index":55,"time_elapsed":549080,"internal_node_id":"0.0-44.0","task_version":"test-retest-t4"},{"Rune":"rune_08_fehu","Hex":"#3366ff99","Correct":32,"Choice":32,"RT":512.4699999578297,"Accuracy":1,"Outcome":"+10","Keys":[2015.5549999326468],"TotalKeys":1,"Block":1,"Trial":39,"Robot":1,"Valence":"Win","Action":"Go","Sham":0,"Color":"blue","trial_type":"pit-trial","trial_index":56,"time_elapsed":552111,"internal_node_id":"0.0-45.0","task_version":"test-retest-t4"},{"Rune":"rune_08_mannaz","Hex":"#ffcc3399","Correct":-1,"Choice":-1,"RT":-1,"Accuracy":1,"Outcome":"-10","Keys":[],"TotalKeys":0,"Block":1,"Trial":40,"Robot":4,"Valence":"Lose","Action":"No-Go","Sham":1,"Color":"yellow","trial_type":"pit-trial","trial_index":57,"time_elapsed":556120,"internal_node_id":"0.0-46.0","task_version":"test-retest-t4"},{"Rune":"rune_08_fehu","Hex":"#3366ff99","Correct":32,"Choice":32,"RT":480.36499973386526,"Accuracy":1,"Outcome":"+10","Keys":[1987.5649996101856],"TotalKeys":1,"Block":1,"Trial":41,"Robot":1,"Valence":"Win","Action":"Go","Sham":0,"Color":"blue","trial_type":"pit-trial","trial_index":58,"time_elapsed":559116,"internal_node_id":"0.0-47.0","task_version":"test-retest-t4"},{"Rune":"rune_08_pertho","Hex":"#3366ff99","Correct":-1,"Choice":-1,"RT":-1,"Accuracy":1,"Outcome":"+10","Keys":[],"TotalKeys":0,"Block":1,"Trial":42,"Robot":2,"Valence":"Win","Action":"No-Go","Sham":0,"Color":"blue","trial_type":"pit-trial","trial_index":59,"time_elapsed":563132,"internal_node_id":"0.0-48.0","task_version":"test-retest-t4"},{"Rune":"rune_08_mannaz","Hex":"#ffcc3399","Correct":-1,"Choice":-1,"RT":-1,"Accuracy":1,"Outcome":"-1","Keys":[],"TotalKeys":0,"Block":1,"Trial":43,"Robot":4,"Valence":"Lose","Action":"No-Go","Sham":0,"Color":"yellow","trial_type":"pit-trial","trial_index":60,"time_elapsed":567145,"internal_node_id":"0.0-49.0","task_version":"test-retest-t4"},{"Rune":"rune_08_sigel","Hex":"#ffcc3399","Correct":32,"Choice":32,"RT":486.2699997611344,"Accuracy":1,"Outcome":"-1","Keys":[1988.4899999015033],"TotalKeys":1,"Block":1,"Trial":44,"Robot":3,"Valence":"Lose","Action":"Go","Sham":0,"Color":"yellow","trial_type":"pit-trial","trial_index":61,"time_elapsed":570144,"internal_node_id":"0.0-50.0","task_version":"test-retest-t4"},{"Rune":"rune_08_pertho","Hex":"#3366ff99","Correct":-1,"Choice":-1,"RT":-1,"Accuracy":1,"Outcome":"+10","Keys":[],"TotalKeys":0,"Block":1,"Trial":45,"Robot":2,"Valence":"Win","Action":"No-Go","Sham":0,"Color":"blue","trial_type":"pit-trial","trial_index":62,"time_elapsed":574165,"internal_node_id":"0.0-51.0","task_version":"test-retest-t4"},{"Rune":"rune_08_sigel","Hex":"#ffcc3399","Correct":32,"Choice":32,"RT":517.469999846071,"Accuracy":1,"Outcome":"-1","Keys":[2023.9550000987947],"TotalKeys":1,"Block":1,"Trial":46,"Robot":3,"Valence":"Lose","Action":"Go","Sham":0,"Color":"yellow","trial_type":"pit-trial","trial_index":63,"time_elapsed":577199,"internal_node_id":"0.0-52.0","task_version":"test-retest-t4"},{"Rune":"rune_08_mannaz","Hex":"#ffcc3399","Correct":-1,"Choice":-1,"RT":-1,"Accuracy":1,"Outcome":"-1","Keys":[],"TotalKeys":0,"Block":1,"Trial":47,"Robot":4,"Valence":"Lose","Action":"No-Go","Sham":0,"Color":"yellow","trial_type":"pit-trial","trial_index":64,"time_elapsed":581211,"internal_node_id":"0.0-53.0","task_version":"test-retest-t4"},{"Rune":"rune_08_fehu","Hex":"#3366ff99","Correct":32,"Choice":32,"RT":452.24000001326203,"Accuracy":1,"Outcome":"+10","Keys":[1959.569999948144],"TotalKeys":1,"Block":1,"Trial":48,"Robot":1,"Valence":"Win","Action":"Go","Sham":0,"Color":"blue","trial_type":"pit-trial","trial_index":65,"time_elapsed":584185,"internal_node_id":"0.0-54.0","task_version":"test-retest-t4"},{"Rune":"rune_08_sigel","Hex":"#ffcc3399","Correct":32,"Choice":32,"RT":976.4950000680983,"Accuracy":1,"Outcome":"-1","Keys":[2484.9499999545515],"TotalKeys":1,"Block":1,"Trial":49,"Robot":3,"Valence":"Lose","Action":"Go","Sham":0,"Color":"yellow","trial_type":"pit-trial","trial_index":66,"time_elapsed":587687,"internal_node_id":"0.0-55.0","task_version":"test-retest-t4"},{"Rune":"rune_08_mannaz","Hex":"#ffcc3399","Correct":-1,"Choice":-1,"RT":-1,"Accuracy":1,"Outcome":"-1","Keys":[],"TotalKeys":0,"Block":1,"Trial":50,"Robot":4,"Valence":"Lose","Action":"No-Go","Sham":0,"Color":"yellow","trial_type":"pit-trial","trial_index":67,"time_elapsed":591707,"internal_node_id":"0.0-56.0","task_version":"test-retest-t4"},{"Rune":"rune_08_fehu","Hex":"#3366ff99","Correct":32,"Choice":32,"RT":540.355000179261,"Accuracy":1,"Outcome":"+10","Keys":[2041.2550000473857],"TotalKeys":1,"Block":1,"Trial":51,"Robot":1,"Valence":"Win","Action":"Go","Sham":0,"Color":"blue","trial_type":"pit-trial","trial_index":68,"time_elapsed":594758,"internal_node_id":"0.0-57.0","task_version":"test-retest-t4"},{"Rune":"rune_08_pertho","Hex":"#3366ff99","Correct":-1,"Choice":-1,"RT":-1,"Accuracy":1,"Outcome":"+10","Keys":[],"TotalKeys":0,"Block":1,"Trial":52,"Robot":2,"Valence":"Win","Action":"No-Go","Sham":0,"Color":"blue","trial_type":"pit-trial","trial_index":69,"time_elapsed":598781,"internal_node_id":"0.0-58.0","task_version":"test-retest-t4"},{"Rune":"rune_08_pertho","Hex":"#3366ff99","Correct":-1,"Choice":-1,"RT":-1,"Accuracy":1,"Outcome":"+1","Keys":[],"TotalKeys":0,"Block":1,"Trial":53,"Robot":2,"Valence":"Win","Action":"No-Go","Sham":1,"Color":"blue","trial_type":"pit-trial","trial_index":70,"time_elapsed":602791,"internal_node_id":"0.0-59.0","task_version":"test-retest-t4"},{"Rune":"rune_08_sigel","Hex":"#ffcc3399","Correct":32,"Choice":32,"RT":762.7100003883243,"Accuracy":1,"Outcome":"-1","Keys":[2264.564999844879],"TotalKeys":1,"Block":1,"Trial":54,"Robot":3,"Valence":"Lose","Action":"Go","Sham":0,"Color":"yellow","trial_type":"pit-trial","trial_index":71,"time_elapsed":606067,"internal_node_id":"0.0-60.0","task_version":"test-retest-t4"},{"Rune":"rune_08_fehu","Hex":"#3366ff99","Correct":32,"Choice":32,"RT":476.19999991729856,"Accuracy":1,"Outcome":"+10","Keys":[1982.625000178814],"TotalKeys":1,"Block":1,"Trial":55,"Robot":1,"Valence":"Win","Action":"Go","Sham":0,"Color":"blue","trial_type":"pit-trial","trial_index":72,"time_elapsed":609058,"internal_node_id":"0.0-61.0","task_version":"test-retest-t4"},{"Rune":"rune_08_mannaz","Hex":"#ffcc3399","Correct":-1,"Choice":-1,"RT":-1,"Accuracy":1,"Outcome":"-1","Keys":[],"TotalKeys":0,"Block":1,"Trial":56,"Robot":4,"Valence":"Lose","Action":"No-Go","Sham":0,"Color":"yellow","trial_type":"pit-trial","trial_index":73,"time_elapsed":613076,"internal_node_id":"0.0-62.0","task_version":"test-retest-t4"},{"Rune":"rune_08_mannaz","Hex":"#ffcc3399","Correct":-1,"Choice":-1,"RT":-1,"Accuracy":1,"Outcome":"-10","Keys":[],"TotalKeys":0,"Block":1,"Trial":57,"Robot":4,"Valence":"Lose","Action":"No-Go","Sham":1,"Color":"yellow","trial_type":"pit-trial","trial_index":74,"time_elapsed":617097,"internal_node_id":"0.0-63.0","task_version":"test-retest-t4"},{"Rune":"rune_08_pertho","Hex":"#3366ff99","Correct":-1,"Choice":-1,"RT":-1,"Accuracy":1,"Outcome":"+10","Keys":[],"TotalKeys":0,"Block":1,"Trial":58,"Robot":2,"Valence":"Win","Action":"No-Go","Sham":0,"Color":"blue","trial_type":"pit-trial","trial_index":75,"time_elapsed":621113,"internal_node_id":"0.0-64.0","task_version":"test-retest-t4"},{"Rune":"rune_08_sigel","Hex":"#ffcc3399","Correct":32,"Choice":32,"RT":469.90999998524785,"Accuracy":1,"Outcome":"-10","Keys":[1974.8249999247491],"TotalKeys":1,"Block":1,"Trial":59,"Robot":3,"Valence":"Lose","Action":"Go","Sham":1,"Color":"yellow","trial_type":"pit-trial","trial_index":76,"time_elapsed":624099,"internal_node_id":"0.0-65.0","task_version":"test-retest-t4"},{"Rune":"rune_08_fehu","Hex":"#3366ff99","Correct":32,"Choice":32,"RT":425.955000333488,"Accuracy":1,"Outcome":"+1","Keys":[1930.3749999962747],"TotalKeys":1,"Block":1,"Trial":60,"Robot":1,"Valence":"Win","Action":"Go","Sham":1,"Color":"blue","trial_type":"pit-trial","trial_index":77,"time_elapsed":627039,"internal_node_id":"0.0-66.0","task_version":"test-retest-t4"},{"value":false,"trial_type":"call-function","trial_index":78,"time_elapsed":627051,"internal_node_id":"0.0-67.0","task_version":"test-retest-t4"},{"view_history":"[{\"page_index\":0,\"viewing_time\":12111.389999743551},{\"page_index\":1,\"viewing_time\":1668.355000205338}]","rt":13781.285000033677,"trial_type":"pit-instructions","trial_index":79,"time_elapsed":640834,"internal_node_id":"0.0-68.0","task_version":"test-retest-t4"},{"Rune":"rune_08_fehu","Hex":"#3366ff99","Correct":32,"Choice":-1,"RT":-1,"Accuracy":0,"Outcome":"+1","Keys":[3451.149999629706],"TotalKeys":1,"Block":1,"Trial":61,"Robot":1,"Valence":"Win","Action":"Go","Sham":0,"Color":"blue","trial_type":"pit-trial","trial_index":80,"time_elapsed":644864,"internal_node_id":"0.0-69.0","task_version":"test-retest-t4"},{"Rune":"rune_08_pertho","Hex":"#3366ff99","Correct":-1,"Choice":-1,"RT":-1,"Accuracy":1,"Outcome":"+1","Keys":[],"TotalKeys":0,"Block":1,"Trial":62,"Robot":2,"Valence":"Win","Action":"No-Go","Sham":1,"Color":"blue","trial_type":"pit-trial","trial_index":81,"time_elapsed":648876,"internal_node_id":"0.0-70.0","task_version":"test-retest-t4"},{"Rune":"rune_08_sigel","Hex":"#ffcc3399","Correct":32,"Choice":32,"RT":748.4199996106327,"Accuracy":1,"Outcome":"-1","Keys":[2248.739999718964],"TotalKeys":1,"Block":1,"Trial":63,"Robot":3,"Valence":"Lose","Action":"Go","Sham":0,"Color":"yellow","trial_type":"pit-trial","trial_index":82,"time_elapsed":652137,"internal_node_id":"0.0-71.0","task_version":"test-retest-t4"},{"Rune":"rune_08_mannaz","Hex":"#ffcc3399","Correct":-1,"Choice":-1,"RT":-1,"Accuracy":1,"Outcome":"-1","Keys":[],"TotalKeys":0,"Block":1,"Trial":64,"Robot":4,"Valence":"Lose","Action":"No-Go","Sham":0,"Color":"yellow","trial_type":"pit-trial","trial_index":83,"time_elapsed":656150,"internal_node_id":"0.0-72.0","task_version":"test-retest-t4"},{"Rune":"rune_08_sigel","Hex":"#ffcc3399","Correct":32,"Choice":32,"RT":625.0499999150634,"Accuracy":1,"Outcome":"-10","Keys":[2129.7299996949732],"TotalKeys":1,"Block":1,"Trial":65,"Robot":3,"Valence":"Lose","Action":"Go","Sham":1,"Color":"yellow","trial_type":"pit-trial","trial_index":84,"time_elapsed":659289,"internal_node_id":"0.0-73.0","task_version":"test-retest-t4"},{"Rune":"rune_08_pertho","Hex":"#3366ff99","Correct":-1,"Choice":32,"RT":1026.5300003811717,"Accuracy":0,"Outcome":"+1","Keys":[2526.860000099987],"TotalKeys":1,"Block":1,"Trial":66,"Robot":2,"Valence":"Win","Action":"No-Go","Sham":0,"Color":"blue","trial_type":"pit-trial","trial_index":85,"time_elapsed":662826,"internal_node_id":"0.0-74.0","task_version":"test-retest-t4"},{"Rune":"rune_08_fehu","Hex":"#3366ff99","Correct":32,"Choice":32,"RT":489.0200002118945,"Accuracy":1,"Outcome":"+10","Keys":[1994.6399996988475],"TotalKeys":1,"Block":1,"Trial":67,"Robot":1,"Valence":"Win","Action":"Go","Sham":0,"Color":"blue","trial_type":"pit-trial","trial_index":86,"time_elapsed":665836,"internal_node_id":"0.0-75.0","task_version":"test-retest-t4"},{"Rune":"rune_08_mannaz","Hex":"#ffcc3399","Correct":-1,"Choice":-1,"RT":-1,"Accuracy":1,"Outcome":"-10","Keys":[],"TotalKeys":0,"Block":1,"Trial":68,"Robot":4,"Valence":"Lose","Action":"No-Go","Sham":1,"Color":"yellow","trial_type":"pit-trial","trial_index":87,"time_elapsed":669852,"internal_node_id":"0.0-76.0","task_version":"test-retest-t4"},{"Rune":"rune_08_fehu","Hex":"#3366ff99","Correct":32,"Choice":32,"RT":779.0350001305342,"Accuracy":1,"Outcome":"+10","Keys":[2283.809999935329],"TotalKeys":1,"Block":1,"Trial":69,"Robot":1,"Valence":"Win","Action":"Go","Sham":0,"Color":"blue","trial_type":"pit-trial","trial_index":88,"time_elapsed":673148,"internal_node_id":"0.0-77.0","task_version":"test-retest-t4"},{"Rune":"rune_08_mannaz","Hex":"#ffcc3399","Correct":-1,"Choice":-1,"RT":-1,"Accuracy":1,"Outcome":"-1","Keys":[],"TotalKeys":0,"Block":1,"Trial":70,"Robot":4,"Valence":"Lose","Action":"No-Go","Sham":0,"Color":"yellow","trial_type":"pit-trial","trial_index":89,"time_elapsed":677166,"internal_node_id":"0.0-78.0","task_version":"test-retest-t4"},{"Rune":"rune_08_sigel","Hex":"#ffcc3399","Correct":32,"Choice":32,"RT":799.8999999836087,"Accuracy":1,"Outcome":"-1","Keys":[2306.845000013709],"TotalKeys":1,"Block":1,"Trial":71,"Robot":3,"Valence":"Lose","Action":"Go","Sham":0,"Color":"yellow","trial_type":"pit-trial","trial_index":90,"time_elapsed":680483,"internal_node_id":"0.0-79.0","task_version":"test-retest-t4"},{"Rune":"rune_08_pertho","Hex":"#3366ff99","Correct":-1,"Choice":-1,"RT":-1,"Accuracy":1,"Outcome":"+10","Keys":[],"TotalKeys":0,"Block":1,"Trial":72,"Robot":2,"Valence":"Win","Action":"No-Go","Sham":0,"Color":"blue","trial_type":"pit-trial","trial_index":91,"time_elapsed":684498,"internal_node_id":"0.0-80.0","task_version":"test-retest-t4"},{"Rune":"rune_08_fehu","Hex":"#3366ff99","Correct":32,"Choice":32,"RT":438.82999988272786,"Accuracy":1,"Outcome":"+1","Keys":[1940.0749998167157],"TotalKeys":1,"Block":1,"Trial":73,"Robot":1,"Valence":"Win","Action":"Go","Sham":1,"Color":"blue","trial_type":"pit-trial","trial_index":92,"time_elapsed":687453,"internal_node_id":"0.0-81.0","task_version":"test-retest-t4"},{"Rune":"rune_08_mannaz","Hex":"#ffcc3399","Correct":-1,"Choice":-1,"RT":-1,"Accuracy":1,"Outcome":"-1","Keys":[],"TotalKeys":0,"Block":1,"Trial":74,"Robot":4,"Valence":"Lose","Action":"No-Go","Sham":0,"Color":"yellow","trial_type":"pit-trial","trial_index":93,"time_elapsed":691468,"internal_node_id":"0.0-82.0","task_version":"test-retest-t4"},{"Rune":"rune_08_pertho","Hex":"#3366ff99","Correct":-1,"Choice":32,"RT":582.8350000083447,"Accuracy":0,"Outcome":"+1","Keys":[2087.590000126511],"TotalKeys":1,"Block":1,"Trial":75,"Robot":2,"Valence":"Win","Action":"No-Go","Sham":0,"Color":"blue","trial_type":"pit-trial","trial_index":94,"time_elapsed":694569,"internal_node_id":"0.0-83.0","task_version":"test-retest-t4"},{"Rune":"rune_08_sigel","Hex":"#ffcc3399","Correct":32,"Choice":32,"RT":636.5450001321733,"Accuracy":1,"Outcome":"-1","Keys":[2140.190000180155],"TotalKeys":1,"Block":1,"Trial":76,"Robot":3,"Valence":"Lose","Action":"Go","Sham":0,"Color":"yellow","trial_type":"pit-trial","trial_index":95,"time_elapsed":697720,"internal_node_id":"0.0-84.0","task_version":"test-retest-t4"},{"Rune":"rune_08_mannaz","Hex":"#ffcc3399","Correct":-1,"Choice":-1,"RT":-1,"Accuracy":1,"Outcome":"-1","Keys":[],"TotalKeys":0,"Block":1,"Trial":77,"Robot":4,"Valence":"Lose","Action":"No-Go","Sham":0,"Color":"yellow","trial_type":"pit-trial","trial_index":96,"time_elapsed":701737,"internal_node_id":"0.0-85.0","task_version":"test-retest-t4"},{"Rune":"rune_08_sigel","Hex":"#ffcc3399","Correct":32,"Choice":32,"RT":668.2099997997284,"Accuracy":1,"Outcome":"-1","Keys":[2169.145000167191],"TotalKeys":1,"Block":1,"Trial":78,"Robot":3,"Valence":"Lose","Action":"Go","Sham":0,"Color":"yellow","trial_type":"pit-trial","trial_index":97,"time_elapsed":704919,"internal_node_id":"0.0-86.0","task_version":"test-retest-t4"},{"Rune":"rune_08_fehu","Hex":"#3366ff99","Correct":32,"Choice":32,"RT":572.9399998672307,"Accuracy":1,"Outcome":"+10","Keys":[2080.8799997903407],"TotalKeys":1,"Block":1,"Trial":79,"Robot":1,"Valence":"Win","Action":"Go","Sham":0,"Color":"blue","trial_type":"pit-trial","trial_index":98,"time_elapsed":708009,"internal_node_id":"0.0-87.0","task_version":"test-retest-t4"},{"Rune":"rune_08_pertho","Hex":"#3366ff99","Correct":-1,"Choice":32,"RT":722.5200003013015,"Accuracy":0,"Outcome":"+1","Keys":[2222.804999910295],"TotalKeys":1,"Block":1,"Trial":80,"Robot":2,"Valence":"Win","Action":"No-Go","Sham":0,"Color":"blue","trial_type":"pit-trial","trial_index":99,"time_elapsed":711242,"internal_node_id":"0.0-88.0","task_version":"test-retest-t4"},{"Rune":"rune_08_fehu","Hex":"#3366ff99","Correct":32,"Choice":32,"RT":425.3899999894202,"Accuracy":1,"Outcome":"+10","Keys":[1929.125000257045],"TotalKeys":1,"Block":1,"Trial":81,"Robot":1,"Valence":"Win","Action":"Go","Sham":0,"Color":"blue","trial_type":"pit-trial","trial_index":100,"time_elapsed":714185,"internal_node_id":"0.0-89.0","task_version":"test-retest-t4"},{"Rune":"rune_08_mannaz","Hex":"#ffcc3399","Correct":-1,"Choice":-1,"RT":-1,"Accuracy":1,"Outcome":"-1","Keys":[],"TotalKeys":0,"Block":1,"Trial":82,"Robot":4,"Valence":"Lose","Action":"No-Go","Sham":0,"Color":"yellow","trial_type":"pit-trial","trial_index":101,"time_elapsed":718201,"internal_node_id":"0.0-90.0","task_version":"test-retest-t4"},{"Rune":"rune_08_pertho","Hex":"#3366ff99","Correct":-1,"Choice":-1,"RT":-1,"Accuracy":1,"Outcome":"+10","Keys":[],"TotalKeys":0,"Block":1,"Trial":83,"Robot":2,"Valence":"Win","Action":"No-Go","Sham":0,"Color":"blue","trial_type":"pit-trial","trial_index":102,"time_elapsed":722221,"internal_node_id":"0.0-91.0","task_version":"test-retest-t4"},{"Rune":"rune_08_sigel","Hex":"#ffcc3399","Correct":32,"Choice":32,"RT":762.3100001364946,"Accuracy":1,"Outcome":"-1","Keys":[2271.8450003303587],"TotalKeys":1,"Block":1,"Trial":84,"Robot":3,"Valence":"Lose","Action":"Go","Sham":0,"Color":"yellow","trial_type":"pit-trial","trial_index":103,"time_elapsed":725509,"internal_node_id":"0.0-92.0","task_version":"test-retest-t4"},{"Rune":"rune_08_mannaz","Hex":"#ffcc3399","Correct":-1,"Choice":-1,"RT":-1,"Accuracy":1,"Outcome":"-1","Keys":[],"TotalKeys":0,"Block":1,"Trial":85,"Robot":4,"Valence":"Lose","Action":"No-Go","Sham":0,"Color":"yellow","trial_type":"pit-trial","trial_index":104,"time_elapsed":729531,"internal_node_id":"0.0-93.0","task_version":"test-retest-t4"},{"Rune":"rune_08_fehu","Hex":"#3366ff99","Correct":32,"Choice":32,"RT":632.7949999831617,"Accuracy":1,"Outcome":"+10","Keys":[2138.070000335574],"TotalKeys":1,"Block":1,"Trial":86,"Robot":1,"Valence":"Win","Action":"Go","Sham":0,"Color":"blue","trial_type":"pit-trial","trial_index":105,"time_elapsed":732683,"internal_node_id":"0.0-94.0","task_version":"test-retest-t4"},{"Rune":"rune_08_pertho","Hex":"#3366ff99","Correct":-1,"Choice":-1,"RT":-1,"Accuracy":1,"Outcome":"+10","Keys":[],"TotalKeys":0,"Block":1,"Trial":87,"Robot":2,"Valence":"Win","Action":"No-Go","Sham":0,"Color":"blue","trial_type":"pit-trial","trial_index":106,"time_elapsed":736703,"internal_node_id":"0.0-95.0","task_version":"test-retest-t4"},{"Rune":"rune_08_sigel","Hex":"#ffcc3399","Correct":32,"Choice":32,"RT":576.8149998039007,"Accuracy":1,"Outcome":"-1","Keys":[2083.610000088811],"TotalKeys":1,"Block":1,"Trial":88,"Robot":3,"Valence":"Lose","Action":"Go","Sham":0,"Color":"yellow","trial_type":"pit-trial","trial_index":107,"time_elapsed":739801,"internal_node_id":"0.0-96.0","task_version":"test-retest-t4"},{"Rune":"rune_08_pertho","Hex":"#3366ff99","Correct":-1,"Choice":-1,"RT":-1,"Accuracy":1,"Outcome":"+10","Keys":[],"TotalKeys":0,"Block":1,"Trial":89,"Robot":2,"Valence":"Win","Action":"No-Go","Sham":0,"Color":"blue","trial_type":"pit-trial","trial_index":108,"time_elapsed":743826,"internal_node_id":"0.0-97.0","task_version":"test-retest-t4"},{"Rune":"rune_08_sigel","Hex":"#ffcc3399","Correct":32,"Choice":32,"RT":642.0749998651445,"Accuracy":1,"Outcome":"-10","Keys":[2142.109999898821],"TotalKeys":1,"Block":1,"Trial":90,"Robot":3,"Valence":"Lose","Action":"Go","Sham":1,"Color":"yellow","trial_type":"pit-trial","trial_index":109,"time_elapsed":746976,"internal_node_id":"0.0-98.0","task_version":"test-retest-t4"},{"Rune":"rune_08_mannaz","Hex":"#ffcc3399","Correct":-1,"Choice":-1,"RT":-1,"Accuracy":1,"Outcome":"-1","Keys":[],"TotalKeys":0,"Block":1,"Trial":91,"Robot":4,"Valence":"Lose","Action":"No-Go","Sham":0,"Color":"yellow","trial_type":"pit-trial","trial_index":110,"time_elapsed":750998,"internal_node_id":"0.0-99.0","task_version":"test-retest-t4"},{"Rune":"rune_08_fehu","Hex":"#3366ff99","Correct":32,"Choice":-1,"RT":-1,"Accuracy":0,"Outcome":"+10","Keys":[],"TotalKeys":0,"Block":1,"Trial":92,"Robot":1,"Valence":"Win","Action":"Go","Sham":1,"Color":"blue","trial_type":"pit-trial","trial_index":111,"time_elapsed":755012,"internal_node_id":"0.0-100.0","task_version":"test-retest-t4"},{"Rune":"rune_08_sigel","Hex":"#ffcc3399","Correct":32,"Choice":32,"RT":418.9649997279048,"Accuracy":1,"Outcome":"-1","Keys":[1922.4549997597933],"TotalKeys":1,"Block":1,"Trial":93,"Robot":3,"Valence":"Lose","Action":"Go","Sham":0,"Color":"yellow","trial_type":"pit-trial","trial_index":112,"time_elapsed":757942,"internal_node_id":"0.0-101.0","task_version":"test-retest-t4"},{"Rune":"rune_08_mannaz","Hex":"#ffcc3399","Correct":-1,"Choice":-1,"RT":-1,"Accuracy":1,"Outcome":"-10","Keys":[],"TotalKeys":0,"Block":1,"Trial":94,"Robot":4,"Valence":"Lose","Action":"No-Go","Sham":1,"Color":"yellow","trial_type":"pit-trial","trial_index":113,"time_elapsed":761956,"internal_node_id":"0.0-102.0","task_version":"test-retest-t4"},{"Rune":"rune_08_fehu","Hex":"#3366ff99","Correct":32,"Choice":32,"RT":481.195000000298,"Accuracy":1,"Outcome":"+10","Keys":[1983.7349997833371],"TotalKeys":1,"Block":1,"Trial":95,"Robot":1,"Valence":"Win","Action":"Go","Sham":0,"Color":"blue","trial_type":"pit-trial","trial_index":114,"time_elapsed":764951,"internal_node_id":"0.0-103.0","task_version":"test-retest-t4"},{"Rune":"rune_08_pertho","Hex":"#3366ff99","Correct":-1,"Choice":-1,"RT":-1,"Accuracy":1,"Outcome":"+1","Keys":[],"TotalKeys":0,"Block":1,"Trial":96,"Robot":2,"Valence":"Win","Action":"No-Go","Sham":1,"Color":"blue","trial_type":"pit-trial","trial_index":115,"time_elapsed":768966,"internal_node_id":"0.0-104.0","task_version":"test-retest-t4"},{"Rune":"rune_08_mannaz","Hex":"#ffcc3399","Correct":-1,"Choice":-1,"RT":-1,"Accuracy":1,"Outcome":"-1","Keys":[],"TotalKeys":0,"Block":1,"Trial":97,"Robot":4,"Valence":"Lose","Action":"No-Go","Sham":0,"Color":"yellow","trial_type":"pit-trial","trial_index":116,"time_elapsed":772982,"internal_node_id":"0.0-105.0","task_version":"test-retest-t4"},{"Rune":"rune_08_sigel","Hex":"#ffcc3399","Correct":32,"Choice":32,"RT":615.2049996890128,"Accuracy":1,"Outcome":"-1","Keys":[2116.55000038445],"TotalKeys":1,"Block":1,"Trial":98,"Robot":3,"Valence":"Lose","Action":"Go","Sham":0,"Color":"yellow","trial_type":"pit-trial","trial_index":117,"time_elapsed":776115,"internal_node_id":"0.0-106.0","task_version":"test-retest-t4"},{"Rune":"rune_08_pertho","Hex":"#3366ff99","Correct":-1,"Choice":-1,"RT":-1,"Accuracy":1,"Outcome":"+10","Keys":[],"TotalKeys":0,"Block":1,"Trial":99,"Robot":2,"Valence":"Win","Action":"No-Go","Sham":0,"Color":"blue","trial_type":"pit-trial","trial_index":118,"time_elapsed":780133,"internal_node_id":"0.0-107.0","task_version":"test-retest-t4"},{"Rune":"rune_08_fehu","Hex":"#3366ff99","Correct":32,"Choice":32,"RT":455.85000002756715,"Accuracy":1,"Outcome":"+10","Keys":[1961.9249999523163],"TotalKeys":1,"Block":1,"Trial":100,"Robot":1,"Valence":"Win","Action":"Go","Sham":0,"Color":"blue","trial_type":"pit-trial","trial_index":119,"time_elapsed":783107,"internal_node_id":"0.0-108.0","task_version":"test-retest-t4"},{"Rune":"rune_08_pertho","Hex":"#3366ff99","Correct":-1,"Choice":-1,"RT":-1,"Accuracy":1,"Outcome":"+1","Keys":[],"TotalKeys":0,"Block":1,"Trial":101,"Robot":2,"Valence":"Win","Action":"No-Go","Sham":1,"Color":"blue","trial_type":"pit-trial","trial_index":120,"time_elapsed":787126,"internal_node_id":"0.0-109.0","task_version":"test-retest-t4"},{"Rune":"rune_08_mannaz","Hex":"#ffcc3399","Correct":-1,"Choice":-1,"RT":-1,"Accuracy":1,"Outcome":"-1","Keys":[],"TotalKeys":0,"Block":1,"Trial":102,"Robot":4,"Valence":"Lose","Action":"No-Go","Sham":0,"Color":"yellow","trial_type":"pit-trial","trial_index":121,"time_elapsed":791147,"internal_node_id":"0.0-110.0","task_version":"test-retest-t4"},{"Rune":"rune_08_sigel","Hex":"#ffcc3399","Correct":32,"Choice":32,"RT":452.1800000220537,"Accuracy":1,"Outcome":"-1","Keys":[1954.8249999061227],"TotalKeys":1,"Block":1,"Trial":103,"Robot":3,"Valence":"Lose","Action":"Go","Sham":0,"Color":"yellow","trial_type":"pit-trial","trial_index":122,"time_elapsed":794113,"internal_node_id":"0.0-111.0","task_version":"test-retest-t4"},{"Rune":"rune_08_fehu","Hex":"#3366ff99","Correct":32,"Choice":32,"RT":635.7399998232722,"Accuracy":1,"Outcome":"+10","Keys":[2136.2499999813735],"TotalKeys":1,"Block":1,"Trial":104,"Robot":1,"Valence":"Win","Action":"Go","Sham":0,"Color":"blue","trial_type":"pit-trial","trial_index":123,"time_elapsed":797264,"internal_node_id":"0.0-112.0","task_version":"test-retest-t4"},{"Rune":"rune_08_fehu","Hex":"#3366ff99","Correct":32,"Choice":32,"RT":695.7299998030066,"Accuracy":1,"Outcome":"+10","Keys":[2203.04000005126],"TotalKeys":1,"Block":1,"Trial":105,"Robot":1,"Valence":"Win","Action":"Go","Sham":0,"Color":"blue","trial_type":"pit-trial","trial_index":124,"time_elapsed":800477,"internal_node_id":"0.0-113.0","task_version":"test-retest-t4"},{"Rune":"rune_08_pertho","Hex":"#3366ff99","Correct":-1,"Choice":-1,"RT":-1,"Accuracy":1,"Outcome":"+10","Keys":[],"TotalKeys":0,"Block":1,"Trial":106,"Robot":2,"Valence":"Win","Action":"No-Go","Sham":0,"Color":"blue","trial_type":"pit-trial","trial_index":125,"time_elapsed":804498,"internal_node_id":"0.0-114.0","task_version":"test-retest-t4"},{"Rune":"rune_08_sigel","Hex":"#ffcc3399","Correct":32,"Choice":32,"RT":593.8050001859665,"Accuracy":1,"Outcome":"-1","Keys":[2095.6649999134243],"TotalKeys":1,"Block":1,"Trial":107,"Robot":3,"Valence":"Lose","Action":"Go","Sham":0,"Color":"yellow","trial_type":"pit-trial","trial_index":126,"time_elapsed":807608,"internal_node_id":"0.0-115.0","task_version":"test-retest-t4"},{"Rune":"rune_08_mannaz","Hex":"#ffcc3399","Correct":-1,"Choice":-1,"RT":-1,"Accuracy":1,"Outcome":"-1","Keys":[],"TotalKeys":0,"Block":1,"Trial":108,"Robot":4,"Valence":"Lose","Action":"No-Go","Sham":0,"Color":"yellow","trial_type":"pit-trial","trial_index":127,"time_elapsed":811628,"internal_node_id":"0.0-116.0","task_version":"test-retest-t4"},{"Rune":"rune_08_fehu","Hex":"#3366ff99","Correct":32,"Choice":32,"RT":593.2750003412366,"Accuracy":1,"Outcome":"+10","Keys":[2097.529999911785],"TotalKeys":1,"Block":1,"Trial":109,"Robot":1,"Valence":"Win","Action":"Go","Sham":0,"Color":"blue","trial_type":"pit-trial","trial_index":128,"time_elapsed":814741,"internal_node_id":"0.0-117.0","task_version":"test-retest-t4"},{"Rune":"rune_08_pertho","Hex":"#3366ff99","Correct":-1,"Choice":-1,"RT":-1,"Accuracy":1,"Outcome":"+10","Keys":[],"TotalKeys":0,"Block":1,"Trial":110,"Robot":2,"Valence":"Win","Action":"No-Go","Sham":0,"Color":"blue","trial_type":"pit-trial","trial_index":129,"time_elapsed":818763,"internal_node_id":"0.0-118.0","task_version":"test-retest-t4"},{"Rune":"rune_08_mannaz","Hex":"#ffcc3399","Correct":-1,"Choice":-1,"RT":-1,"Accuracy":1,"Outcome":"-10","Keys":[],"TotalKeys":0,"Block":1,"Trial":111,"Robot":4,"Valence":"Lose","Action":"No-Go","Sham":1,"Color":"yellow","trial_type":"pit-trial","trial_index":130,"time_elapsed":822780,"internal_node_id":"0.0-119.0","task_version":"test-retest-t4"},{"Rune":"rune_08_sigel","Hex":"#ffcc3399","Correct":32,"Choice":32,"RT":544.2249998450279,"Accuracy":1,"Outcome":"-10","Keys":[2046.7400001361966],"TotalKeys":1,"Block":1,"Trial":112,"Robot":3,"Valence":"Lose","Action":"Go","Sham":1,"Color":"yellow","trial_type":"pit-trial","trial_index":131,"time_elapsed":825842,"internal_node_id":"0.0-120.0","task_version":"test-retest-t4"},{"Rune":"rune_08_pertho","Hex":"#3366ff99","Correct":-1,"Choice":-1,"RT":-1,"Accuracy":1,"Outcome":"+10","Keys":[],"TotalKeys":0,"Block":1,"Trial":113,"Robot":2,"Valence":"Win","Action":"No-Go","Sham":0,"Color":"blue","trial_type":"pit-trial","trial_index":132,"time_elapsed":829856,"internal_node_id":"0.0-121.0","task_version":"test-retest-t4"},{"Rune":"rune_08_sigel","Hex":"#ffcc3399","Correct":32,"Choice":32,"RT":531.0349999926984,"Accuracy":1,"Outcome":"-1","Keys":[2031.1249997466803],"TotalKeys":1,"Block":1,"Trial":114,"Robot":3,"Valence":"Lose","Action":"Go","Sham":0,"Color":"yellow","trial_type":"pit-trial","trial_index":133,"time_elapsed":832902,"internal_node_id":"0.0-122.0","task_version":"test-retest-t4"},{"Rune":"rune_08_mannaz","Hex":"#ffcc3399","Correct":-1,"Choice":-1,"RT":-1,"Accuracy":1,"Outcome":"-1","Keys":[],"TotalKeys":0,"Block":1,"Trial":115,"Robot":4,"Valence":"Lose","Action":"No-Go","Sham":0,"Color":"yellow","trial_type":"pit-trial","trial_index":134,"time_elapsed":836932,"internal_node_id":"0.0-123.0","task_version":"test-retest-t4"},{"Rune":"rune_08_fehu","Hex":"#3366ff99","Correct":32,"Choice":32,"RT":478.02000027149916,"Accuracy":1,"Outcome":"+10","Keys":[1980.3599999286234],"TotalKeys":1,"Block":1,"Trial":116,"Robot":1,"Valence":"Win","Action":"Go","Sham":0,"Color":"blue","trial_type":"pit-trial","trial_index":135,"time_elapsed":839926,"internal_node_id":"0.0-124.0","task_version":"test-retest-t4"},{"Rune":"rune_08_mannaz","Hex":"#ffcc3399","Correct":-1,"Choice":-1,"RT":-1,"Accuracy":1,"Outcome":"-1","Keys":[],"TotalKeys":0,"Block":1,"Trial":117,"Robot":4,"Valence":"Lose","Action":"No-Go","Sham":0,"Color":"yellow","trial_type":"pit-trial","trial_index":136,"time_elapsed":843950,"internal_node_id":"0.0-125.0","task_version":"test-retest-t4"},{"Rune":"rune_08_pertho","Hex":"#3366ff99","Correct":-1,"Choice":32,"RT":670.395000372082,"Accuracy":0,"Outcome":"+1","Keys":[2175.0149996951222],"TotalKeys":1,"Block":1,"Trial":118,"Robot":2,"Valence":"Win","Action":"No-Go","Sham":0,"Color":"blue","trial_type":"pit-trial","trial_index":137,"time_elapsed":847138,"internal_node_id":"0.0-126.0","task_version":"test-retest-t4"},{"Rune":"rune_08_fehu","Hex":"#3366ff99","Correct":32,"Choice":32,"RT":619.9099998921156,"Accuracy":1,"Outcome":"+1","Keys":[2121.0650000721216],"TotalKeys":1,"Block":1,"Trial":119,"Robot":1,"Valence":"Win","Action":"Go","Sham":1,"Color":"blue","trial_type":"pit-trial","trial_index":138,"time_elapsed":850268,"internal_node_id":"0.0-127.0","task_version":"test-retest-t4"},{"Rune":"rune_08_sigel","Hex":"#ffcc3399","Correct":32,"Choice":32,"RT":688.2399995811284,"Accuracy":1,"Outcome":"-1","Keys":[2192.8300000727177],"TotalKeys":1,"Block":1,"Trial":120,"Robot":3,"Valence":"Lose","Action":"Go","Sham":0,"Color":"yellow","trial_type":"pit-trial","trial_index":139,"time_elapsed":853472,"internal_node_id":"0.0-128.0","task_version":"test-retest-t4"},{"view_history":"[{\"page_index\":0,\"viewing_time\":3717.614999972284},{\"page_index\":1,\"viewing_time\":4235.744999721646},{\"page_index\":2,\"viewing_time\":2344.4199999794364}]","rt":10300.629999954253,"trial_type":"pit-instructions","trial_index":140,"time_elapsed":863778,"internal_node_id":"0.0-129.0","task_version":"test-retest-t4"},{"Rune":"rune_07_gar","Hex":"#ffcc3399","Correct":32,"Choice":-1,"RT":-1,"Accuracy":0,"Outcome":"-10","Keys":[],"TotalKeys":0,"Block":2,"Trial":121,"Robot":3,"Valence":"Lose","Action":"Go","Sham":0,"Color":"yellow","trial_type":"pit-trial","trial_index":141,"time_elapsed":867801,"internal_node_id":"0.0-130.0","task_version":"test-retest-t4"},{"Rune":"rune_07_laukaz","Hex":"#ffcc3399","Correct":-1,"Choice":32,"RT":836.3599996082485,"Accuracy":0,"Outcome":"-10","Keys":[2336.460000369698],"TotalKeys":1,"Block":2,"Trial":122,"Robot":4,"Valence":"Lose","Action":"No-Go","Sham":0,"Color":"yellow","trial_type":"pit-trial","trial_index":142,"time_elapsed":871145,"internal_node_id":"0.0-131.0","task_version":"test-retest-t4"},{"Rune":"rune_07_thurisaz","Hex":"#3366ff99","Correct":32,"Choice":32,"RT":1012.1650001965463,"Accuracy":1,"Outcome":"+10","Keys":[2514.8950000293553],"TotalKeys":1,"Block":2,"Trial":123,"Robot":1,"Valence":"Win","Action":"Go","Sham":0,"Color":"blue","trial_type":"pit-trial","trial_index":143,"time_elapsed":874673,"internal_node_id":"0.0-132.0","task_version":"test-retest-t4"},{"Rune":"rune_07_kauna","Hex":"#3366ff99","Correct":-1,"Choice":32,"RT":943.1799999438226,"Accuracy":0,"Outcome":"+1","Keys":[2448.3199999667704],"TotalKeys":1,"Block":2,"Trial":124,"Robot":2,"Valence":"Win","Action":"No-Go","Sham":0,"Color":"blue","trial_type":"pit-trial","trial_index":144,"time_elapsed":878137,"internal_node_id":"0.0-133.0","task_version":"test-retest-t4"},{"Rune":"rune_07_thurisaz","Hex":"#3366ff99","Correct":32,"Choice":32,"RT":768.1100000627339,"Accuracy":1,"Outcome":"+10","Keys":[2272.0099999569356],"TotalKeys":1,"Block":2,"Trial":125,"Robot":1,"Valence":"Win","Action":"Go","Sham":0,"Color":"blue","trial_type":"pit-trial","trial_index":145,"time_elapsed":881417,"internal_node_id":"0.0-134.0","task_version":"test-retest-t4"},{"Rune":"rune_07_gar","Hex":"#ffcc3399","Correct":32,"Choice":-1,"RT":-1,"Accuracy":0,"Outcome":"-1","Keys":[],"TotalKeys":0,"Block":2,"Trial":126,"Robot":3,"Valence":"Lose","Action":"Go","Sham":1,"Color":"yellow","trial_type":"pit-trial","trial_index":146,"time_elapsed":885433,"internal_node_id":"0.0-135.0","task_version":"test-retest-t4"},{"Rune":"rune_07_kauna","Hex":"#3366ff99","Correct":-1,"Choice":32,"RT":836.4599999040365,"Accuracy":0,"Outcome":"+1","Keys":[2336.5650000050664],"TotalKeys":1,"Block":2,"Trial":127,"Robot":2,"Valence":"Win","Action":"No-Go","Sham":0,"Color":"blue","trial_type":"pit-trial","trial_index":147,"time_elapsed":888785,"internal_node_id":"0.0-136.0","task_version":"test-retest-t4"},{"Rune":"rune_07_laukaz","Hex":"#ffcc3399","Correct":-1,"Choice":-1,"RT":-1,"Accuracy":1,"Outcome":"-1","Keys":[],"TotalKeys":0,"Block":2,"Trial":128,"Robot":4,"Valence":"Lose","Action":"No-Go","Sham":0,"Color":"yellow","trial_type":"pit-trial","trial_index":148,"time_elapsed":892799,"internal_node_id":"0.0-137.0","task_version":"test-retest-t4"},{"Rune":"rune_07_gar","Hex":"#ffcc3399","Correct":32,"Choice":-1,"RT":-1,"Accuracy":0,"Outcome":"-10","Keys":[],"TotalKeys":0,"Block":2,"Trial":129,"Robot":3,"Valence":"Lose","Action":"Go","Sham":0,"Color":"yellow","trial_type":"pit-trial","trial_index":149,"time_elapsed":896818,"internal_node_id":"0.0-138.0","task_version":"test-retest-t4"},{"Rune":"rune_07_laukaz","Hex":"#ffcc3399","Correct":-1,"Choice":32,"RT":766.8550000526011,"Accuracy":0,"Outcome":"-10","Keys":[2271.2500002235174],"TotalKeys":1,"Block":2,"Trial":130,"Robot":4,"Valence":"Lose","Action":"No-Go","Sham":0,"Color":"yellow","trial_type":"pit-trial","trial_index":150,"time_elapsed":900104,"internal_node_id":"0.0-139.0","task_version":"test-retest-t4"},{"Rune":"rune_07_thurisaz","Hex":"#3366ff99","Correct":32,"Choice":32,"RT":776.8599996343255,"Accuracy":1,"Outcome":"+10","Keys":[2277.65000006184],"TotalKeys":1,"Block":2,"Trial":131,"Robot":1,"Valence":"Win","Action":"Go","Sham":0,"Color":"blue","trial_type":"pit-trial","trial_index":151,"time_elapsed":903395,"internal_node_id":"0.0-140.0","task_version":"test-retest-t4"},{"Rune":"rune_07_kauna","Hex":"#3366ff99","Correct":-1,"Choice":-1,"RT":-1,"Accuracy":1,"Outcome":"+10","Keys":[],"TotalKeys":0,"Block":2,"Trial":132,"Robot":2,"Valence":"Win","Action":"No-Go","Sham":0,"Color":"blue","trial_type":"pit-trial","trial_index":152,"time_elapsed":907410,"internal_node_id":"0.0-141.0","task_version":"test-retest-t4"},{"Rune":"rune_07_kauna","Hex":"#3366ff99","Correct":-1,"Choice":32,"RT":820.1199998147786,"Accuracy":0,"Outcome":"+10","Keys":[2322.819999884814],"TotalKeys":1,"Block":2,"Trial":133,"Robot":2,"Valence":"Win","Action":"No-Go","Sham":1,"Color":"blue","trial_type":"pit-trial","trial_index":153,"time_elapsed":910748,"internal_node_id":"0.0-142.0","task_version":"test-retest-t4"},{"Rune":"rune_07_thurisaz","Hex":"#3366ff99","Correct":32,"Choice":32,"RT":905.0750001333654,"Accuracy":1,"Outcome":"+10","Keys":[2409.159999806434],"TotalKeys":1,"Block":2,"Trial":134,"Robot":1,"Valence":"Win","Action":"Go","Sham":0,"Color":"blue","trial_type":"pit-trial","trial_index":154,"time_elapsed":914169,"internal_node_id":"0.0-143.0","task_version":"test-retest-t4"},{"Rune":"rune_07_laukaz","Hex":"#ffcc3399","Correct":-1,"Choice":-1,"RT":-1,"Accuracy":1,"Outcome":"-1","Keys":[],"TotalKeys":0,"Block":2,"Trial":135,"Robot":4,"Valence":"Lose","Action":"No-Go","Sham":0,"Color":"yellow","trial_type":"pit-trial","trial_index":155,"time_elapsed":918183,"internal_node_id":"0.0-144.0","task_version":"test-retest-t4"},{"Rune":"rune_07_gar","Hex":"#ffcc3399","Correct":32,"Choice":-1,"RT":-1,"Accuracy":0,"Outcome":"-10","Keys":[3813.109999988228],"TotalKeys":1,"Block":2,"Trial":136,"Robot":3,"Valence":"Lose","Action":"Go","Sham":0,"Color":"yellow","trial_type":"pit-trial","trial_index":156,"time_elapsed":922197,"internal_node_id":"0.0-145.0","task_version":"test-retest-t4"},{"Rune":"rune_07_laukaz","Hex":"#ffcc3399","Correct":-1,"Choice":-1,"RT":-1,"Accuracy":1,"Outcome":"-10","Keys":[],"TotalKeys":0,"Block":2,"Trial":137,"Robot":4,"Valence":"Lose","Action":"No-Go","Sham":1,"Color":"yellow","trial_type":"pit-trial","trial_index":157,"time_elapsed":926215,"internal_node_id":"0.0-146.0","task_version":"test-retest-t4"},{"Rune":"rune_07_thurisaz","Hex":"#3366ff99","Correct":32,"Choice":32,"RT":616.1050000227988,"Accuracy":1,"Outcome":"+1","Keys":[2121.215000282973],"TotalKeys":1,"Block":2,"Trial":138,"Robot":1,"Valence":"Win","Action":"Go","Sham":1,"Color":"blue","trial_type":"pit-trial","trial_index":158,"time_elapsed":929351,"internal_node_id":"0.0-147.0","task_version":"test-retest-t4"},{"Rune":"rune_07_kauna","Hex":"#3366ff99","Correct":-1,"Choice":32,"RT":924.5899999514222,"Accuracy":0,"Outcome":"+1","Keys":[2428.489999845624],"TotalKeys":1,"Block":2,"Trial":139,"Robot":2,"Valence":"Win","Action":"No-Go","Sham":0,"Color":"blue","trial_type":"pit-trial","trial_index":159,"time_elapsed":932793,"internal_node_id":"0.0-148.0","task_version":"test-retest-t4"},{"Rune":"rune_07_gar","Hex":"#ffcc3399","Correct":32,"Choice":32,"RT":556.2599999830127,"Accuracy":1,"Outcome":"-1","Keys":[2060.570000205189],"TotalKeys":1,"Block":2,"Trial":140,"Robot":3,"Valence":"Lose","Action":"Go","Sham":0,"Color":"yellow","trial_type":"pit-trial","trial_index":160,"time_elapsed":935866,"internal_node_id":"0.0-149.0","task_version":"test-retest-t4"},{"Rune":"rune_07_gar","Hex":"#ffcc3399","Correct":32,"Choice":-1,"RT":-1,"Accuracy":0,"Outcome":"-10","Keys":[],"TotalKeys":0,"Block":2,"Trial":141,"Robot":3,"Valence":"Lose","Action":"Go","Sham":0,"Color":"yellow","trial_type":"pit-trial","trial_index":161,"time_elapsed":939879,"internal_node_id":"0.0-150.0","task_version":"test-retest-t4"},{"Rune":"rune_07_kauna","Hex":"#3366ff99","Correct":-1,"Choice":-1,"RT":-1,"Accuracy":1,"Outcome":"+1","Keys":[80.51500003784895],"TotalKeys":1,"Block":2,"Trial":142,"Robot":2,"Valence":"Win","Action":"No-Go","Sham":1,"Color":"blue","trial_type":"pit-trial","trial_index":162,"time_elapsed":943897,"internal_node_id":"0.0-151.0","task_version":"test-retest-t4"},{"Rune":"rune_07_thurisaz","Hex":"#3366ff99","Correct":32,"Choice":32,"RT":545.4099997878075,"Accuracy":1,"Outcome":"+1","Keys":[2048.4149996191263],"TotalKeys":1,"Block":2,"Trial":143,"Robot":1,"Valence":"Win","Action":"Go","Sham":1,"Color":"blue","trial_type":"pit-trial","trial_index":163,"time_elapsed":946953,"internal_node_id":"0.0-152.0","task_version":"test-retest-t4"},{"Rune":"rune_07_laukaz","Hex":"#ffcc3399","Correct":-1,"Choice":32,"RT":582.4350002221763,"Accuracy":0,"Outcome":"-10","Keys":[2084.495000075549],"TotalKeys":1,"Block":2,"Trial":144,"Robot":4,"Valence":"Lose","Action":"No-Go","Sham":0,"Color":"yellow","trial_type":"pit-trial","trial_index":164,"time_elapsed":950047,"internal_node_id":"0.0-153.0","task_version":"test-retest-t4"},{"Rune":"rune_07_thurisaz","Hex":"#3366ff99","Correct":32,"Choice":32,"RT":414.8899996653199,"Accuracy":1,"Outcome":"+10","Keys":[1921.1099999956787],"TotalKeys":1,"Block":2,"Trial":145,"Robot":1,"Valence":"Win","Action":"Go","Sham":0,"Color":"blue","trial_type":"pit-trial","trial_index":165,"time_elapsed":952977,"internal_node_id":"0.0-154.0","task_version":"test-retest-t4"},{"Rune":"rune_07_kauna","Hex":"#3366ff99","Correct":-1,"Choice":32,"RT":940.1400000788271,"Accuracy":0,"Outcome":"+1","Keys":[2447.230000048876],"TotalKeys":1,"Block":2,"Trial":146,"Robot":2,"Valence":"Win","Action":"No-Go","Sham":0,"Color":"blue","trial_type":"pit-trial","trial_index":166,"time_elapsed":956435,"internal_node_id":"0.0-155.0","task_version":"test-retest-t4"},{"Rune":"rune_07_laukaz","Hex":"#ffcc3399","Correct":-1,"Choice":32,"RT":947.5600002333522,"Accuracy":0,"Outcome":"-10","Keys":[2451.979999896139],"TotalKeys":1,"Block":2,"Trial":147,"Robot":4,"Valence":"Lose","Action":"No-Go","Sham":0,"Color":"yellow","trial_type":"pit-trial","trial_index":167,"time_elapsed":959895,"internal_node_id":"0.0-156.0","task_version":"test-retest-t4"},{"Rune":"rune_07_gar","Hex":"#ffcc3399","Correct":32,"Choice":32,"RT":1031.6550000570714,"Accuracy":1,"Outcome":"-1","Keys":[2531.764999963343],"TotalKeys":1,"Block":2,"Trial":148,"Robot":3,"Valence":"Lose","Action":"Go","Sham":0,"Color":"yellow","trial_type":"pit-trial","trial_index":168,"time_elapsed":963439,"internal_node_id":"0.0-157.0","task_version":"test-retest-t4"},{"Rune":"rune_07_thurisaz","Hex":"#3366ff99","Correct":32,"Choice":32,"RT":669.6399999782443,"Accuracy":1,"Outcome":"+10","Keys":[2170.4949997365475],"TotalKeys":1,"Block":2,"Trial":149,"Robot":1,"Valence":"Win","Action":"Go","Sham":0,"Color":"blue","trial_type":"pit-trial","trial_index":169,"time_elapsed":966621,"internal_node_id":"0.0-158.0","task_version":"test-retest-t4"},{"Rune":"rune_07_laukaz","Hex":"#ffcc3399","Correct":-1,"Choice":32,"RT":557.4900000356138,"Accuracy":0,"Outcome":"-10","Keys":[2058.715000282973],"TotalKeys":1,"Block":2,"Trial":150,"Robot":4,"Valence":"Lose","Action":"No-Go","Sham":0,"Color":"yellow","trial_type":"pit-trial","trial_index":170,"time_elapsed":969696,"internal_node_id":"0.0-159.0","task_version":"test-retest-t4"},{"Rune":"rune_07_gar","Hex":"#ffcc3399","Correct":32,"Choice":-1,"RT":-1,"Accuracy":0,"Outcome":"-10","Keys":[3619.2850000225008],"TotalKeys":1,"Block":2,"Trial":151,"Robot":3,"Valence":"Lose","Action":"Go","Sham":0,"Color":"yellow","trial_type":"pit-trial","trial_index":171,"time_elapsed":973715,"internal_node_id":"0.0-160.0","task_version":"test-retest-t4"},{"Rune":"rune_07_kauna","Hex":"#3366ff99","Correct":-1,"Choice":32,"RT":368.7049997970462,"Accuracy":0,"Outcome":"+1","Keys":[1873.145000077784],"TotalKeys":1,"Block":2,"Trial":152,"Robot":2,"Valence":"Win","Action":"No-Go","Sham":0,"Color":"blue","trial_type":"pit-trial","trial_index":172,"time_elapsed":976603,"internal_node_id":"0.0-161.0","task_version":"test-retest-t4"},{"Rune":"rune_07_thurisaz","Hex":"#3366ff99","Correct":32,"Choice":32,"RT":691.5400000289083,"Accuracy":1,"Outcome":"+10","Keys":[2198.429999873042],"TotalKeys":1,"Block":2,"Trial":153,"Robot":1,"Valence":"Win","Action":"Go","Sham":0,"Color":"blue","trial_type":"pit-trial","trial_index":173,"time_elapsed":979817,"internal_node_id":"0.0-162.0","task_version":"test-retest-t4"},{"Rune":"rune_07_laukaz","Hex":"#ffcc3399","Correct":-1,"Choice":32,"RT":801.8350000493228,"Accuracy":0,"Outcome":"-10","Keys":[2307.0849999785423],"TotalKeys":1,"Block":2,"Trial":154,"Robot":4,"Valence":"Lose","Action":"No-Go","Sham":0,"Color":"yellow","trial_type":"pit-trial","trial_index":174,"time_elapsed":983135,"internal_node_id":"0.0-163.0","task_version":"test-retest-t4"},{"Rune":"rune_07_gar","Hex":"#ffcc3399","Correct":32,"Choice":-1,"RT":-1,"Accuracy":0,"Outcome":"-10","Keys":[],"TotalKeys":0,"Block":2,"Trial":155,"Robot":3,"Valence":"Lose","Action":"Go","Sham":0,"Color":"yellow","trial_type":"pit-trial","trial_index":175,"time_elapsed":987154,"internal_node_id":"0.0-164.0","task_version":"test-retest-t4"},{"Rune":"rune_07_kauna","Hex":"#3366ff99","Correct":-1,"Choice":32,"RT":420.1450003311038,"Accuracy":0,"Outcome":"+1","Keys":[1924.450000282377],"TotalKeys":1,"Block":2,"Trial":156,"Robot":2,"Valence":"Win","Action":"No-Go","Sham":0,"Color":"blue","trial_type":"pit-trial","trial_index":176,"time_elapsed":990092,"internal_node_id":"0.0-165.0","task_version":"test-retest-t4"},{"Rune":"rune_07_gar","Hex":"#ffcc3399","Correct":32,"Choice":-1,"RT":-1,"Accuracy":0,"Outcome":"-1","Keys":[],"TotalKeys":0,"Block":2,"Trial":157,"Robot":3,"Valence":"Lose","Action":"Go","Sham":1,"Color":"yellow","trial_type":"pit-trial","trial_index":177,"time_elapsed":994111,"internal_node_id":"0.0-166.0","task_version":"test-retest-t4"},{"Rune":"rune_07_laukaz","Hex":"#ffcc3399","Correct":-1,"Choice":-1,"RT":-1,"Accuracy":1,"Outcome":"-10","Keys":[],"TotalKeys":0,"Block":2,"Trial":158,"Robot":4,"Valence":"Lose","Action":"No-Go","Sham":1,"Color":"yellow","trial_type":"pit-trial","trial_index":178,"time_elapsed":998126,"internal_node_id":"0.0-167.0","task_version":"test-retest-t4"},{"Rune":"rune_07_thurisaz","Hex":"#3366ff99","Correct":32,"Choice":32,"RT":600.6849999539554,"Accuracy":1,"Outcome":"+10","Keys":[2107.605000026524],"TotalKeys":1,"Block":2,"Trial":159,"Robot":1,"Valence":"Win","Action":"Go","Sham":0,"Color":"blue","trial_type":"pit-trial","trial_index":179,"time_elapsed":1001249,"internal_node_id":"0.0-168.0","task_version":"test-retest-t4"},{"Rune":"rune_07_kauna","Hex":"#3366ff99","Correct":-1,"Choice":-1,"RT":-1,"Accuracy":1,"Outcome":"+10","Keys":[],"TotalKeys":0,"Block":2,"Trial":160,"Robot":2,"Valence":"Win","Action":"No-Go","Sham":0,"Color":"blue","trial_type":"pit-trial","trial_index":180,"time_elapsed":1005265,"internal_node_id":"0.0-169.0","task_version":"test-retest-t4"},{"Rune":"rune_07_laukaz","Hex":"#ffcc3399","Correct":-1,"Choice":32,"RT":784.8949995823205,"Accuracy":0,"Outcome":"-10","Keys":[2285.1599999703467],"TotalKeys":1,"Block":2,"Trial":161,"Robot":4,"Valence":"Lose","Action":"No-Go","Sham":0,"Color":"yellow","trial_type":"pit-trial","trial_index":181,"time_elapsed":1008561,"internal_node_id":"0.0-170.0","task_version":"test-retest-t4"},{"Rune":"rune_07_kauna","Hex":"#3366ff99","Correct":-1,"Choice":-1,"RT":-1,"Accuracy":1,"Outcome":"+10","Keys":[],"TotalKeys":0,"Block":2,"Trial":162,"Robot":2,"Valence":"Win","Action":"No-Go","Sham":0,"Color":"blue","trial_type":"pit-trial","trial_index":182,"time_elapsed":1012580,"internal_node_id":"0.0-171.0","task_version":"test-retest-t4"},{"Rune":"rune_07_thurisaz","Hex":"#3366ff99","Correct":32,"Choice":32,"RT":790.9200000576675,"Accuracy":1,"Outcome":"+10","Keys":[2297.2900001332164],"TotalKeys":1,"Block":2,"Trial":163,"Robot":1,"Valence":"Win","Action":"Go","Sham":0,"Color":"blue","trial_type":"pit-trial","trial_index":183,"time_elapsed":1015895,"internal_node_id":"0.0-172.0","task_version":"test-retest-t4"},{"Rune":"rune_07_gar","Hex":"#ffcc3399","Correct":32,"Choice":32,"RT":869.6800000034273,"Accuracy":1,"Outcome":"-1","Keys":[2373.834999743849],"TotalKeys":1,"Block":2,"Trial":164,"Robot":3,"Valence":"Lose","Action":"Go","Sham":0,"Color":"yellow","trial_type":"pit-trial","trial_index":184,"time_elapsed":1019285,"internal_node_id":"0.0-173.0","task_version":"test-retest-t4"},{"Rune":"rune_07_gar","Hex":"#ffcc3399","Correct":32,"Choice":32,"RT":831.8050000816584,"Accuracy":1,"Outcome":"-1","Keys":[2336.3800002261996],"TotalKeys":1,"Block":2,"Trial":165,"Robot":3,"Valence":"Lose","Action":"Go","Sham":0,"Color":"yellow","trial_type":"pit-trial","trial_index":185,"time_elapsed":1022636,"internal_node_id":"0.0-174.0","task_version":"test-retest-t4"},{"Rune":"rune_07_thurisaz","Hex":"#3366ff99","Correct":32,"Choice":32,"RT":1093.0800000205636,"Accuracy":1,"Outcome":"+10","Keys":[2597.5999999791384],"TotalKeys":1,"Block":2,"Trial":166,"Robot":1,"Valence":"Win","Action":"Go","Sham":0,"Color":"blue","trial_type":"pit-trial","trial_index":186,"time_elapsed":1026244,"internal_node_id":"0.0-175.0","task_version":"test-retest-t4"},{"Rune":"rune_07_kauna","Hex":"#3366ff99","Correct":-1,"Choice":-1,"RT":-1,"Accuracy":1,"Outcome":"+10","Keys":[],"TotalKeys":0,"Block":2,"Trial":167,"Robot":2,"Valence":"Win","Action":"No-Go","Sham":0,"Color":"blue","trial_type":"pit-trial","trial_index":187,"time_elapsed":1030262,"internal_node_id":"0.0-176.0","task_version":"test-retest-t4"},{"Rune":"rune_07_laukaz","Hex":"#ffcc3399","Correct":-1,"Choice":32,"RT":1180.8199998922646,"Accuracy":0,"Outcome":"-10","Keys":[2685.3299997746944],"TotalKeys":1,"Block":2,"Trial":168,"Robot":4,"Valence":"Lose","Action":"No-Go","Sham":0,"Color":"yellow","trial_type":"pit-trial","trial_index":188,"time_elapsed":1033960,"internal_node_id":"0.0-177.0","task_version":"test-retest-t4"},{"Rune":"rune_07_gar","Hex":"#ffcc3399","Correct":32,"Choice":32,"RT":571.7850001528859,"Accuracy":1,"Outcome":"-1","Keys":[2076.5700000338256],"TotalKeys":1,"Block":2,"Trial":169,"Robot":3,"Valence":"Lose","Action":"Go","Sham":0,"Color":"yellow","trial_type":"pit-trial","trial_index":189,"time_elapsed":1037045,"internal_node_id":"0.0-178.0","task_version":"test-retest-t4"},{"Rune":"rune_07_kauna","Hex":"#3366ff99","Correct":-1,"Choice":-1,"RT":-1,"Accuracy":1,"Outcome":"+10","Keys":[],"TotalKeys":0,"Block":2,"Trial":170,"Robot":2,"Valence":"Win","Action":"No-Go","Sham":0,"Color":"blue","trial_type":"pit-trial","trial_index":190,"time_elapsed":1041063,"internal_node_id":"0.0-179.0","task_version":"test-retest-t4"},{"Rune":"rune_07_thurisaz","Hex":"#3366ff99","Correct":32,"Choice":32,"RT":708.0749999731779,"Accuracy":1,"Outcome":"+10","Keys":[2210.0449996069074],"TotalKeys":1,"Block":2,"Trial":171,"Robot":1,"Valence":"Win","Action":"Go","Sham":0,"Color":"blue","trial_type":"pit-trial","trial_index":191,"time_elapsed":1044288,"internal_node_id":"0.0-180.0","task_version":"test-retest-t4"},{"Rune":"rune_07_laukaz","Hex":"#ffcc3399","Correct":-1,"Choice":-1,"RT":-1,"Accuracy":1,"Outcome":"-1","Keys":[],"TotalKeys":0,"Block":2,"Trial":172,"Robot":4,"Valence":"Lose","Action":"No-Go","Sham":0,"Color":"yellow","trial_type":"pit-trial","trial_index":192,"time_elapsed":1048303,"internal_node_id":"0.0-181.0","task_version":"test-retest-t4"},{"Rune":"rune_07_laukaz","Hex":"#ffcc3399","Correct":-1,"Choice":-1,"RT":-1,"Accuracy":1,"Outcome":"-1","Keys":[],"TotalKeys":0,"Block":2,"Trial":173,"Robot":4,"Valence":"Lose","Action":"No-Go","Sham":0,"Color":"yellow","trial_type":"pit-trial","trial_index":193,"time_elapsed":1052319,"internal_node_id":"0.0-182.0","task_version":"test-retest-t4"},{"Rune":"rune_07_gar","Hex":"#ffcc3399","Correct":32,"Choice":32,"RT":604.1049999184906,"Accuracy":1,"Outcome":"-1","Keys":[2104.795000050217],"TotalKeys":1,"Block":2,"Trial":174,"Robot":3,"Valence":"Lose","Action":"Go","Sham":0,"Color":"yellow","trial_type":"pit-trial","trial_index":194,"time_elapsed":1055435,"internal_node_id":"0.0-183.0","task_version":"test-retest-t4"},{"Rune":"rune_07_thurisaz","Hex":"#3366ff99","Correct":32,"Choice":32,"RT":790.5899998731911,"Accuracy":1,"Outcome":"+10","Keys":[2294.029999990016],"TotalKeys":1,"Block":2,"Trial":175,"Robot":1,"Valence":"Win","Action":"Go","Sham":0,"Color":"blue","trial_type":"pit-trial","trial_index":195,"time_elapsed":1058743,"internal_node_id":"0.0-184.0","task_version":"test-retest-t4"},{"Rune":"rune_07_kauna","Hex":"#3366ff99","Correct":-1,"Choice":-1,"RT":-1,"Accuracy":1,"Outcome":"+1","Keys":[],"TotalKeys":0,"Block":2,"Trial":176,"Robot":2,"Valence":"Win","Action":"No-Go","Sham":1,"Color":"blue","trial_type":"pit-trial","trial_index":196,"time_elapsed":1062761,"internal_node_id":"0.0-185.0","task_version":"test-retest-t4"},{"Rune":"rune_07_kauna","Hex":"#3366ff99","Correct":-1,"Choice":-1,"RT":-1,"Accuracy":1,"Outcome":"+10","Keys":[],"TotalKeys":0,"Block":2,"Trial":177,"Robot":2,"Valence":"Win","Action":"No-Go","Sham":0,"Color":"blue","trial_type":"pit-trial","trial_index":197,"time_elapsed":1066775,"internal_node_id":"0.0-186.0","task_version":"test-retest-t4"},{"Rune":"rune_07_thurisaz","Hex":"#3366ff99","Correct":32,"Choice":-1,"RT":-1,"Accuracy":0,"Outcome":"+10","Keys":[],"TotalKeys":0,"Block":2,"Trial":178,"Robot":1,"Valence":"Win","Action":"Go","Sham":1,"Color":"blue","trial_type":"pit-trial","trial_index":198,"time_elapsed":1070794,"internal_node_id":"0.0-187.0","task_version":"test-retest-t4"},{"Rune":"rune_07_laukaz","Hex":"#ffcc3399","Correct":-1,"Choice":32,"RT":658.2299997098744,"Accuracy":0,"Outcome":"-1","Keys":[2166.495000012219],"TotalKeys":1,"Block":2,"Trial":179,"Robot":4,"Valence":"Lose","Action":"No-Go","Sham":1,"Color":"yellow","trial_type":"pit-trial","trial_index":199,"time_elapsed":1073973,"internal_node_id":"0.0-188.0","task_version":"test-retest-t4"},{"Rune":"rune_07_gar","Hex":"#ffcc3399","Correct":32,"Choice":32,"RT":704.3249998241663,"Accuracy":1,"Outcome":"-10","Keys":[2204.9500001594424],"TotalKeys":1,"Block":2,"Trial":180,"Robot":3,"Valence":"Lose","Action":"Go","Sham":1,"Color":"yellow","trial_type":"pit-trial","trial_index":200,"time_elapsed":1077193,"internal_node_id":"0.0-189.0","task_version":"test-retest-t4"},{"view_history":"[{\"page_index\":0,\"viewing_time\":3785.199999809265},{\"page_index\":1,\"viewing_time\":4702.9250003397465}]","rt":8489.664999768138,"trial_type":"pit-instructions","trial_index":201,"time_elapsed":1085688,"internal_node_id":"0.0-190.0","task_version":"test-retest-t4"},{"Rune":"rune_07_kauna","Hex":"#3366ff99","Correct":-1,"Choice":-1,"RT":-1,"Accuracy":1,"Outcome":"+1","Keys":[],"TotalKeys":0,"Block":2,"Trial":181,"Robot":2,"Valence":"Win","Action":"No-Go","Sham":1,"Color":"blue","trial_type":"pit-trial","trial_index":202,"time_elapsed":1089709,"internal_node_id":"0.0-191.0","task_version":"test-retest-t4"},{"Rune":"rune_07_gar","Hex":"#ffcc3399","Correct":32,"Choice":32,"RT":802.3100001737475,"Accuracy":1,"Outcome":"-1","Keys":[2309.334999881685],"TotalKeys":1,"Block":2,"Trial":182,"Robot":3,"Valence":"Lose","Action":"Go","Sham":0,"Color":"yellow","trial_type":"pit-trial","trial_index":203,"time_elapsed":1093034,"internal_node_id":"0.0-192.0","task_version":"test-retest-t4"},{"Rune":"rune_07_laukaz","Hex":"#ffcc3399","Correct":-1,"Choice":-1,"RT":-1,"Accuracy":1,"Outcome":"-1","Keys":[],"TotalKeys":0,"Block":2,"Trial":183,"Robot":4,"Valence":"Lose","Action":"No-Go","Sham":0,"Color":"yellow","trial_type":"pit-trial","trial_index":204,"time_elapsed":1097053,"internal_node_id":"0.0-193.0","task_version":"test-retest-t4"},{"Rune":"rune_07_thurisaz","Hex":"#3366ff99","Correct":32,"Choice":32,"RT":492.9499998688698,"Accuracy":1,"Outcome":"+10","Keys":[1998.6499999649823],"TotalKeys":1,"Block":2,"Trial":184,"Robot":1,"Valence":"Win","Action":"Go","Sham":0,"Color":"blue","trial_type":"pit-trial","trial_index":205,"time_elapsed":1100062,"internal_node_id":"0.0-194.0","task_version":"test-retest-t4"},{"Rune":"rune_07_kauna","Hex":"#3366ff99","Correct":-1,"Choice":-1,"RT":-1,"Accuracy":1,"Outcome":"+10","Keys":[],"TotalKeys":0,"Block":2,"Trial":185,"Robot":2,"Valence":"Win","Action":"No-Go","Sham":0,"Color":"blue","trial_type":"pit-trial","trial_index":206,"time_elapsed":1104078,"internal_node_id":"0.0-195.0","task_version":"test-retest-t4"},{"Rune":"rune_07_thurisaz","Hex":"#3366ff99","Correct":32,"Choice":32,"RT":747.6500002667308,"Accuracy":1,"Outcome":"+10","Keys":[2255.4450002498925],"TotalKeys":1,"Block":2,"Trial":186,"Robot":1,"Valence":"Win","Action":"Go","Sham":0,"Color":"blue","trial_type":"pit-trial","trial_index":207,"time_elapsed":1107349,"internal_node_id":"0.0-196.0","task_version":"test-retest-t4"},{"Rune":"rune_07_gar","Hex":"#ffcc3399","Correct":32,"Choice":32,"RT":667.4949997104704,"Accuracy":1,"Outcome":"-10","Keys":[2168.9200000837445],"TotalKeys":1,"Block":2,"Trial":187,"Robot":3,"Valence":"Lose","Action":"Go","Sham":1,"Color":"yellow","trial_type":"pit-trial","trial_index":208,"time_elapsed":1110533,"internal_node_id":"0.0-197.0","task_version":"test-retest-t4"},{"Rune":"rune_07_laukaz","Hex":"#ffcc3399","Correct":-1,"Choice":-1,"RT":-1,"Accuracy":1,"Outcome":"-10","Keys":[],"TotalKeys":0,"Block":2,"Trial":188,"Robot":4,"Valence":"Lose","Action":"No-Go","Sham":1,"Color":"yellow","trial_type":"pit-trial","trial_index":209,"time_elapsed":1114555,"internal_node_id":"0.0-198.0","task_version":"test-retest-t4"},{"Rune":"rune_07_kauna","Hex":"#3366ff99","Correct":-1,"Choice":-1,"RT":-1,"Accuracy":1,"Outcome":"+10","Keys":[],"TotalKeys":0,"Block":2,"Trial":189,"Robot":2,"Valence":"Win","Action":"No-Go","Sham":0,"Color":"blue","trial_type":"pit-trial","trial_index":210,"time_elapsed":1118576,"internal_node_id":"0.0-199.0","task_version":"test-retest-t4"},{"Rune":"rune_07_thurisaz","Hex":"#3366ff99","Correct":32,"Choice":-1,"RT":-1,"Accuracy":0,"Outcome":"+1","Keys":[3206.375000067055],"TotalKeys":1,"Block":2,"Trial":190,"Robot":1,"Valence":"Win","Action":"Go","Sham":0,"Color":"blue","trial_type":"pit-trial","trial_index":211,"time_elapsed":1122592,"internal_node_id":"0.0-200.0","task_version":"test-retest-t4"},{"Rune":"rune_07_gar","Hex":"#ffcc3399","Correct":32,"Choice":32,"RT":576.1049999855459,"Accuracy":1,"Outcome":"-1","Keys":[2081.0750001110137],"TotalKeys":1,"Block":2,"Trial":191,"Robot":3,"Valence":"Lose","Action":"Go","Sham":0,"Color":"yellow","trial_type":"pit-trial","trial_index":212,"time_elapsed":1125688,"internal_node_id":"0.0-201.0","task_version":"test-retest-t4"},{"Rune":"rune_07_laukaz","Hex":"#ffcc3399","Correct":-1,"Choice":-1,"RT":-1,"Accuracy":1,"Outcome":"-1","Keys":[],"TotalKeys":0,"Block":2,"Trial":192,"Robot":4,"Valence":"Lose","Action":"No-Go","Sham":0,"Color":"yellow","trial_type":"pit-trial","trial_index":213,"time_elapsed":1129708,"internal_node_id":"0.0-202.0","task_version":"test-retest-t4"},{"Rune":"rune_07_gar","Hex":"#ffcc3399","Correct":32,"Choice":32,"RT":607.7899998053908,"Accuracy":1,"Outcome":"-1","Keys":[2112.745000049472],"TotalKeys":1,"Block":2,"Trial":193,"Robot":3,"Valence":"Lose","Action":"Go","Sham":0,"Color":"yellow","trial_type":"pit-trial","trial_index":214,"time_elapsed":1132831,"internal_node_id":"0.0-203.0","task_version":"test-retest-t4"},{"Rune":"rune_07_kauna","Hex":"#3366ff99","Correct":-1,"Choice":-1,"RT":-1,"Accuracy":1,"Outcome":"+10","Keys":[],"TotalKeys":0,"Block":2,"Trial":194,"Robot":2,"Valence":"Win","Action":"No-Go","Sham":0,"Color":"blue","trial_type":"pit-trial","trial_index":215,"time_elapsed":1136856,"internal_node_id":"0.0-204.0","task_version":"test-retest-t4"},{"Rune":"rune_07_thurisaz","Hex":"#3366ff99","Correct":32,"Choice":32,"RT":454.799999948591,"Accuracy":1,"Outcome":"+1","Keys":[1957.2049998678267],"TotalKeys":1,"Block":2,"Trial":195,"Robot":1,"Valence":"Win","Action":"Go","Sham":1,"Color":"blue","trial_type":"pit-trial","trial_index":216,"time_elapsed":1139822,"internal_node_id":"0.0-205.0","task_version":"test-retest-t4"},{"Rune":"rune_07_laukaz","Hex":"#ffcc3399","Correct":-1,"Choice":-1,"RT":-1,"Accuracy":1,"Outcome":"-1","Keys":[],"TotalKeys":0,"Block":2,"Trial":196,"Robot":4,"Valence":"Lose","Action":"No-Go","Sham":0,"Color":"yellow","trial_type":"pit-trial","trial_index":217,"time_elapsed":1143838,"internal_node_id":"0.0-206.0","task_version":"test-retest-t4"},{"Rune":"rune_07_gar","Hex":"#ffcc3399","Correct":32,"Choice":32,"RT":647.9799998924136,"Accuracy":1,"Outcome":"-1","Keys":[2152.110000140965],"TotalKeys":1,"Block":2,"Trial":197,"Robot":3,"Valence":"Lose","Action":"Go","Sham":0,"Color":"yellow","trial_type":"pit-trial","trial_index":218,"time_elapsed":1147005,"internal_node_id":"0.0-207.0","task_version":"test-retest-t4"},{"Rune":"rune_07_thurisaz","Hex":"#3366ff99","Correct":32,"Choice":32,"RT":591.7549999430776,"Accuracy":1,"Outcome":"+10","Keys":[2098.675000015646],"TotalKeys":1,"Block":2,"Trial":198,"Robot":1,"Valence":"Win","Action":"Go","Sham":0,"Color":"blue","trial_type":"pit-trial","trial_index":219,"time_elapsed":1150135,"internal_node_id":"0.0-208.0","task_version":"test-retest-t4"},{"Rune":"rune_07_kauna","Hex":"#3366ff99","Correct":-1,"Choice":-1,"RT":-1,"Accuracy":1,"Outcome":"+10","Keys":[],"TotalKeys":0,"Block":2,"Trial":199,"Robot":2,"Valence":"Win","Action":"No-Go","Sham":0,"Color":"blue","trial_type":"pit-trial","trial_index":220,"time_elapsed":1154156,"internal_node_id":"0.0-209.0","task_version":"test-retest-t4"},{"Rune":"rune_07_laukaz","Hex":"#ffcc3399","Correct":-1,"Choice":-1,"RT":-1,"Accuracy":1,"Outcome":"-1","Keys":[],"TotalKeys":0,"Block":2,"Trial":200,"Robot":4,"Valence":"Lose","Action":"No-Go","Sham":0,"Color":"yellow","trial_type":"pit-trial","trial_index":221,"time_elapsed":1158168,"internal_node_id":"0.0-210.0","task_version":"test-retest-t4"},{"Rune":"rune_07_laukaz","Hex":"#ffcc3399","Correct":-1,"Choice":-1,"RT":-1,"Accuracy":1,"Outcome":"-1","Keys":[],"TotalKeys":0,"Block":2,"Trial":201,"Robot":4,"Valence":"Lose","Action":"No-Go","Sham":0,"Color":"yellow","trial_type":"pit-trial","trial_index":222,"time_elapsed":1162186,"internal_node_id":"0.0-211.0","task_version":"test-retest-t4"},{"Rune":"rune_07_kauna","Hex":"#3366ff99","Correct":-1,"Choice":-1,"RT":-1,"Accuracy":1,"Outcome":"+10","Keys":[],"TotalKeys":0,"Block":2,"Trial":202,"Robot":2,"Valence":"Win","Action":"No-Go","Sham":0,"Color":"blue","trial_type":"pit-trial","trial_index":223,"time_elapsed":1166206,"internal_node_id":"0.0-212.0","task_version":"test-retest-t4"},{"Rune":"rune_07_thurisaz","Hex":"#3366ff99","Correct":32,"Choice":32,"RT":358.24500024318695,"Accuracy":1,"Outcome":"+10","Keys":[1862.3899999074638],"TotalKeys":1,"Block":2,"Trial":203,"Robot":1,"Valence":"Win","Action":"Go","Sham":0,"Color":"blue","trial_type":"pit-trial","trial_index":224,"time_elapsed":1169078,"internal_node_id":"0.0-213.0","task_version":"test-retest-t4"},{"Rune":"rune_07_gar","Hex":"#ffcc3399","Correct":32,"Choice":32,"RT":628.4499997273088,"Accuracy":1,"Outcome":"-1","Keys":[2130.6300000287592],"TotalKeys":1,"Block":2,"Trial":204,"Robot":3,"Valence":"Lose","Action":"Go","Sham":0,"Color":"yellow","trial_type":"pit-trial","trial_index":225,"time_elapsed":1172226,"internal_node_id":"0.0-214.0","task_version":"test-retest-t4"},{"Rune":"rune_07_laukaz","Hex":"#ffcc3399","Correct":-1,"Choice":-1,"RT":-1,"Accuracy":1,"Outcome":"-1","Keys":[],"TotalKeys":0,"Block":2,"Trial":205,"Robot":4,"Valence":"Lose","Action":"No-Go","Sham":0,"Color":"yellow","trial_type":"pit-trial","trial_index":226,"time_elapsed":1176245,"internal_node_id":"0.0-215.0","task_version":"test-retest-t4"},{"Rune":"rune_07_kauna","Hex":"#3366ff99","Correct":-1,"Choice":-1,"RT":-1,"Accuracy":1,"Outcome":"+10","Keys":[],"TotalKeys":0,"Block":2,"Trial":206,"Robot":2,"Valence":"Win","Action":"No-Go","Sham":0,"Color":"blue","trial_type":"pit-trial","trial_index":227,"time_elapsed":1180260,"internal_node_id":"0.0-216.0","task_version":"test-retest-t4"},{"Rune":"rune_07_thurisaz","Hex":"#3366ff99","Correct":32,"Choice":32,"RT":391.3750001229346,"Accuracy":1,"Outcome":"+10","Keys":[1892.8100001066923],"TotalKeys":1,"Block":2,"Trial":207,"Robot":1,"Valence":"Win","Action":"Go","Sham":0,"Color":"blue","trial_type":"pit-trial","trial_index":228,"time_elapsed":1183165,"internal_node_id":"0.0-217.0","task_version":"test-retest-t4"},{"Rune":"rune_07_gar","Hex":"#ffcc3399","Correct":32,"Choice":32,"RT":614.569999743253,"Accuracy":1,"Outcome":"-1","Keys":[2120.85000006482],"TotalKeys":1,"Block":2,"Trial":208,"Robot":3,"Valence":"Lose","Action":"Go","Sham":0,"Color":"yellow","trial_type":"pit-trial","trial_index":229,"time_elapsed":1186300,"internal_node_id":"0.0-218.0","task_version":"test-retest-t4"},{"Rune":"rune_07_thurisaz","Hex":"#3366ff99","Correct":32,"Choice":32,"RT":876.5400000847876,"Accuracy":1,"Outcome":"+1","Keys":[2377.454999834299],"TotalKeys":1,"Block":2,"Trial":209,"Robot":1,"Valence":"Win","Action":"Go","Sham":1,"Color":"blue","trial_type":"pit-trial","trial_index":230,"time_elapsed":1189693,"internal_node_id":"0.0-219.0","task_version":"test-retest-t4"},{"Rune":"rune_07_laukaz","Hex":"#ffcc3399","Correct":-1,"Choice":-1,"RT":-1,"Accuracy":1,"Outcome":"-1","Keys":[],"TotalKeys":0,"Block":2,"Trial":210,"Robot":4,"Valence":"Lose","Action":"No-Go","Sham":0,"Color":"yellow","trial_type":"pit-trial","trial_index":231,"time_elapsed":1193711,"internal_node_id":"0.0-220.0","task_version":"test-retest-t4"},{"Rune":"rune_07_gar","Hex":"#ffcc3399","Correct":32,"Choice":32,"RT":606.3799997791648,"Accuracy":1,"Outcome":"-10","Keys":[2110.229999758303],"TotalKeys":1,"Block":2,"Trial":211,"Robot":3,"Valence":"Lose","Action":"Go","Sham":1,"Color":"yellow","trial_type":"pit-trial","trial_index":232,"time_elapsed":1196835,"internal_node_id":"0.0-221.0","task_version":"test-retest-t4"},{"Rune":"rune_07_kauna","Hex":"#3366ff99","Correct":-1,"Choice":-1,"RT":-1,"Accuracy":1,"Outcome":"+10","Keys":[],"TotalKeys":0,"Block":2,"Trial":212,"Robot":2,"Valence":"Win","Action":"No-Go","Sham":0,"Color":"blue","trial_type":"pit-trial","trial_index":233,"time_elapsed":1200855,"internal_node_id":"0.0-222.0","task_version":"test-retest-t4"},{"Rune":"rune_07_gar","Hex":"#ffcc3399","Correct":32,"Choice":32,"RT":680.0599996931851,"Accuracy":1,"Outcome":"-1","Keys":[2181.850000284612],"TotalKeys":1,"Block":2,"Trial":213,"Robot":3,"Valence":"Lose","Action":"Go","Sham":0,"Color":"yellow","trial_type":"pit-trial","trial_index":234,"time_elapsed":1204046,"internal_node_id":"0.0-223.0","task_version":"test-retest-t4"},{"Rune":"rune_07_kauna","Hex":"#3366ff99","Correct":-1,"Choice":-1,"RT":-1,"Accuracy":1,"Outcome":"+1","Keys":[],"TotalKeys":0,"Block":2,"Trial":214,"Robot":2,"Valence":"Win","Action":"No-Go","Sham":1,"Color":"blue","trial_type":"pit-trial","trial_index":235,"time_elapsed":1208063,"internal_node_id":"0.0-224.0","task_version":"test-retest-t4"},{"Rune":"rune_07_laukaz","Hex":"#ffcc3399","Correct":-1,"Choice":-1,"RT":-1,"Accuracy":1,"Outcome":"-10","Keys":[],"TotalKeys":0,"Block":2,"Trial":215,"Robot":4,"Valence":"Lose","Action":"No-Go","Sham":1,"Color":"yellow","trial_type":"pit-trial","trial_index":236,"time_elapsed":1212079,"internal_node_id":"0.0-225.0","task_version":"test-retest-t4"},{"Rune":"rune_07_thurisaz","Hex":"#3366ff99","Correct":32,"Choice":32,"RT":445.6549999304116,"Accuracy":1,"Outcome":"+10","Keys":[1950.0849996693432],"TotalKeys":1,"Block":2,"Trial":216,"Robot":1,"Valence":"Win","Action":"Go","Sham":0,"Color":"blue","trial_type":"pit-trial","trial_index":237,"time_elapsed":1215043,"internal_node_id":"0.0-226.0","task_version":"test-retest-t4"},{"Rune":"rune_07_gar","Hex":"#ffcc3399","Correct":32,"Choice":32,"RT":539.0800000168383,"Accuracy":1,"Outcome":"-1","Keys":[2039.725000038743],"TotalKeys":1,"Block":2,"Trial":217,"Robot":3,"Valence":"Lose","Action":"Go","Sham":0,"Color":"yellow","trial_type":"pit-trial","trial_index":238,"time_elapsed":1218093,"internal_node_id":"0.0-227.0","task_version":"test-retest-t4"},{"Rune":"rune_07_thurisaz","Hex":"#3366ff99","Correct":32,"Choice":32,"RT":425.0849997624755,"Accuracy":1,"Outcome":"+10","Keys":[1928.940000012517],"TotalKeys":1,"Block":2,"Trial":218,"Robot":1,"Valence":"Win","Action":"Go","Sham":0,"Color":"blue","trial_type":"pit-trial","trial_index":239,"time_elapsed":1221036,"internal_node_id":"0.0-228.0","task_version":"test-retest-t4"},{"Rune":"rune_07_kauna","Hex":"#3366ff99","Correct":-1,"Choice":32,"RT":693.5800001956522,"Accuracy":0,"Outcome":"+1","Keys":[2194.1450000740588],"TotalKeys":1,"Block":2,"Trial":219,"Robot":2,"Valence":"Win","Action":"No-Go","Sham":0,"Color":"blue","trial_type":"pit-trial","trial_index":240,"time_elapsed":1224244,"internal_node_id":"0.0-229.0","task_version":"test-retest-t4"},{"Rune":"rune_07_laukaz","Hex":"#ffcc3399","Correct":-1,"Choice":-1,"RT":-1,"Accuracy":1,"Outcome":"-1","Keys":[],"TotalKeys":0,"Block":2,"Trial":220,"Robot":4,"Valence":"Lose","Action":"No-Go","Sham":0,"Color":"yellow","trial_type":"pit-trial","trial_index":241,"time_elapsed":1228264,"internal_node_id":"0.0-230.0","task_version":"test-retest-t4"},{"Rune":"rune_07_thurisaz","Hex":"#3366ff99","Correct":32,"Choice":32,"RT":651.4400001615286,"Accuracy":1,"Outcome":"+10","Keys":[2151.5300003811717],"TotalKeys":1,"Block":2,"Trial":221,"Robot":1,"Valence":"Win","Action":"Go","Sham":0,"Color":"blue","trial_type":"pit-trial","trial_index":242,"time_elapsed":1231425,"internal_node_id":"0.0-231.0","task_version":"test-retest-t4"},{"Rune":"rune_07_kauna","Hex":"#3366ff99","Correct":-1,"Choice":-1,"RT":-1,"Accuracy":1,"Outcome":"+1","Keys":[],"TotalKeys":0,"Block":2,"Trial":222,"Robot":2,"Valence":"Win","Action":"No-Go","Sham":1,"Color":"blue","trial_type":"pit-trial","trial_index":243,"time_elapsed":1235446,"internal_node_id":"0.0-232.0","task_version":"test-retest-t4"},{"Rune":"rune_07_gar","Hex":"#ffcc3399","Correct":32,"Choice":32,"RT":1165.8550002612174,"Accuracy":1,"Outcome":"-1","Keys":[2670.195000246167],"TotalKeys":1,"Block":2,"Trial":223,"Robot":3,"Valence":"Lose","Action":"Go","Sham":0,"Color":"yellow","trial_type":"pit-trial","trial_index":244,"time_elapsed":1239127,"internal_node_id":"0.0-233.0","task_version":"test-retest-t4"},{"Rune":"rune_07_laukaz","Hex":"#ffcc3399","Correct":-1,"Choice":-1,"RT":-1,"Accuracy":1,"Outcome":"-1","Keys":[],"TotalKeys":0,"Block":2,"Trial":224,"Robot":4,"Valence":"Lose","Action":"No-Go","Sham":0,"Color":"yellow","trial_type":"pit-trial","trial_index":245,"time_elapsed":1243139,"internal_node_id":"0.0-234.0","task_version":"test-retest-t4"},{"Rune":"rune_07_thurisaz","Hex":"#3366ff99","Correct":32,"Choice":32,"RT":446.2250000797212,"Accuracy":1,"Outcome":"+10","Keys":[1950.2400001510978],"TotalKeys":1,"Block":2,"Trial":225,"Robot":1,"Valence":"Win","Action":"Go","Sham":0,"Color":"blue","trial_type":"pit-trial","trial_index":246,"time_elapsed":1246099,"internal_node_id":"0.0-235.0","task_version":"test-retest-t4"},{"Rune":"rune_07_gar","Hex":"#ffcc3399","Correct":32,"Choice":32,"RT":673.3350004069507,"Accuracy":1,"Outcome":"-1","Keys":[2174.3200002238154],"TotalKeys":1,"Block":2,"Trial":226,"Robot":3,"Valence":"Lose","Action":"Go","Sham":0,"Color":"yellow","trial_type":"pit-trial","trial_index":247,"time_elapsed":1249290,"internal_node_id":"0.0-236.0","task_version":"test-retest-t4"},{"Rune":"rune_07_laukaz","Hex":"#ffcc3399","Correct":-1,"Choice":-1,"RT":-1,"Accuracy":1,"Outcome":"-1","Keys":[],"TotalKeys":0,"Block":2,"Trial":227,"Robot":4,"Valence":"Lose","Action":"No-Go","Sham":0,"Color":"yellow","trial_type":"pit-trial","trial_index":248,"time_elapsed":1253307,"internal_node_id":"0.0-237.0","task_version":"test-retest-t4"},{"Rune":"rune_07_kauna","Hex":"#3366ff99","Correct":-1,"Choice":-1,"RT":-1,"Accuracy":1,"Outcome":"+10","Keys":[],"TotalKeys":0,"Block":2,"Trial":228,"Robot":2,"Valence":"Win","Action":"No-Go","Sham":0,"Color":"blue","trial_type":"pit-trial","trial_index":249,"time_elapsed":1257327,"internal_node_id":"0.0-238.0","task_version":"test-retest-t4"},{"Rune":"rune_07_thurisaz","Hex":"#3366ff99","Correct":32,"Choice":32,"RT":535.4949999600649,"Accuracy":1,"Outcome":"+10","Keys":[2038.2050001062453],"TotalKeys":1,"Block":2,"Trial":229,"Robot":1,"Valence":"Win","Action":"Go","Sham":0,"Color":"blue","trial_type":"pit-trial","trial_index":250,"time_elapsed":1260381,"internal_node_id":"0.0-239.0","task_version":"test-retest-t4"},{"Rune":"rune_07_kauna","Hex":"#3366ff99","Correct":-1,"Choice":-1,"RT":-1,"Accuracy":1,"Outcome":"+10","Keys":[],"TotalKeys":0,"Block":2,"Trial":230,"Robot":2,"Valence":"Win","Action":"No-Go","Sham":0,"Color":"blue","trial_type":"pit-trial","trial_index":251,"time_elapsed":1264399,"internal_node_id":"0.0-240.0","task_version":"test-retest-t4"},{"Rune":"rune_07_gar","Hex":"#ffcc3399","Correct":32,"Choice":32,"RT":608.0050002783537,"Accuracy":1,"Outcome":"-10","Keys":[2112.730000168085],"TotalKeys":1,"Block":2,"Trial":231,"Robot":3,"Valence":"Lose","Action":"Go","Sham":1,"Color":"yellow","trial_type":"pit-trial","trial_index":252,"time_elapsed":1267524,"internal_node_id":"0.0-241.0","task_version":"test-retest-t4"},{"Rune":"rune_07_laukaz","Hex":"#ffcc3399","Correct":-1,"Choice":-1,"RT":-1,"Accuracy":1,"Outcome":"-10","Keys":[],"TotalKeys":0,"Block":2,"Trial":232,"Robot":4,"Valence":"Lose","Action":"No-Go","Sham":1,"Color":"yellow","trial_type":"pit-trial","trial_index":253,"time_elapsed":1271541,"internal_node_id":"0.0-242.0","task_version":"test-retest-t4"},{"Rune":"rune_07_laukaz","Hex":"#ffcc3399","Correct":-1,"Choice":-1,"RT":-1,"Accuracy":1,"Outcome":"-1","Keys":[],"TotalKeys":0,"Block":2,"Trial":233,"Robot":4,"Valence":"Lose","Action":"No-Go","Sham":0,"Color":"yellow","trial_type":"pit-trial","trial_index":254,"time_elapsed":1275563,"internal_node_id":"0.0-243.0","task_version":"test-retest-t4"},{"Rune":"rune_07_kauna","Hex":"#3366ff99","Correct":-1,"Choice":32,"RT":405.5999997071922,"Accuracy":0,"Outcome":"+1","Keys":[1911.2949999980628],"TotalKeys":1,"Block":2,"Trial":234,"Robot":2,"Valence":"Win","Action":"No-Go","Sham":0,"Color":"blue","trial_type":"pit-trial","trial_index":255,"time_elapsed":1278488,"internal_node_id":"0.0-244.0","task_version":"test-retest-t4"},{"Rune":"rune_07_gar","Hex":"#ffcc3399","Correct":32,"Choice":32,"RT":679.5950001105666,"Accuracy":1,"Outcome":"-1","Keys":[2184.584999922663],"TotalKeys":1,"Block":2,"Trial":235,"Robot":3,"Valence":"Lose","Action":"Go","Sham":0,"Color":"yellow","trial_type":"pit-trial","trial_index":256,"time_elapsed":1281688,"internal_node_id":"0.0-245.0","task_version":"test-retest-t4"},{"Rune":"rune_07_thurisaz","Hex":"#3366ff99","Correct":32,"Choice":32,"RT":515.3799997642636,"Accuracy":1,"Outcome":"+10","Keys":[2024.0400000475347],"TotalKeys":1,"Block":2,"Trial":236,"Robot":1,"Valence":"Win","Action":"Go","Sham":0,"Color":"blue","trial_type":"pit-trial","trial_index":257,"time_elapsed":1284720,"internal_node_id":"0.0-246.0","task_version":"test-retest-t4"},{"Rune":"rune_07_gar","Hex":"#ffcc3399","Correct":32,"Choice":32,"RT":652.9749999754131,"Accuracy":1,"Outcome":"-1","Keys":[2160.044999793172],"TotalKeys":1,"Block":2,"Trial":237,"Robot":3,"Valence":"Lose","Action":"Go","Sham":0,"Color":"yellow","trial_type":"pit-trial","trial_index":258,"time_elapsed":1287889,"internal_node_id":"0.0-247.0","task_version":"test-retest-t4"},{"Rune":"rune_07_laukaz","Hex":"#ffcc3399","Correct":-1,"Choice":-1,"RT":-1,"Accuracy":1,"Outcome":"-1","Keys":[],"TotalKeys":0,"Block":2,"Trial":238,"Robot":4,"Valence":"Lose","Action":"No-Go","Sham":0,"Color":"yellow","trial_type":"pit-trial","trial_index":259,"time_elapsed":1291901,"internal_node_id":"0.0-248.0","task_version":"test-retest-t4"},{"Rune":"rune_07_thurisaz","Hex":"#3366ff99","Correct":32,"Choice":32,"RT":509.5049999654293,"Accuracy":1,"Outcome":"+1","Keys":[2013.3150001056492],"TotalKeys":1,"Block":2,"Trial":239,"Robot":1,"Valence":"Win","Action":"Go","Sham":1,"Color":"blue","trial_type":"pit-trial","trial_index":260,"time_elapsed":1294929,"internal_node_id":"0.0-249.0","task_version":"test-retest-t4"},{"Rune":"rune_07_kauna","Hex":"#3366ff99","Correct":-1,"Choice":-1,"RT":-1,"Accuracy":1,"Outcome":"+10","Keys":[],"TotalKeys":0,"Block":2,"Trial":240,"Robot":2,"Valence":"Win","Action":"No-Go","Sham":0,"Color":"blue","trial_type":"pit-trial","trial_index":261,"time_elapsed":1298938,"internal_node_id":"0.0-250.0","task_version":"test-retest-t4"},{"view_history":"[{\"page_index\":0,\"viewing_time\":2665.005000308156}]","rt":2666.5350003167987,"trial_type":"pit-instructions","trial_index":262,"time_elapsed":1301609,"internal_node_id":"0.0-251.0","task_version":"test-retest-t4"},{"rt":27543.08999981731,"responses":{"age":"42","gender-categorical":"Female","gender-free-response":"","ethnicity":"Not Hispanic or Latino","race":"White","language":"No","fluency":"Very well"},"survey":"demographics","trial_type":"survey-demo","trial_index":263,"time_elapsed":1329176,"internal_node_id":"0.0-252.0","task_version":"test-retest-t4"},{"rt":32097.529999911785,"responses":{"difficulty":"3","fun":"5","clarity":"5","strategy":"Most of the time I memorize the symbols, sometimes I just use intuition","feedback":""},"survey":"debrief","trial_type":"survey-debrief","trial_index":264,"time_elapsed":1361284,"internal_node_id":"0.0-253.0","task_version":"test-retest-t4"},{"rt":6096.7149999924,"stimulus":"You earned a bonus of $1.21 out of $1.5.<br><br>Press any key to complete the experiment.","key_press":86,"trial_type":"html-keyboard-response","trial_index":265,"time_elapsed":1367395,"internal_node_id":"0.0-254.0","task_version":"test-retest-t4","accuracy":0.8041666666666667,"bonus":1.21,"interactions":"[]"}]