[{"slider_type":"valence","raw_loc":738.25,"loc":0.9765,"trial_type":"affective-slider","trial_index":0,"time_elapsed":12048,"internal_node_id":"0.0-0.0","task_version":"test-retest-t2"},{"responses":{"Q08":"0","Q05":"0","Q06":"0","Q02":"0","Q01":"0","Q03":"0","Q04":"0","Q07":"0"},"rt":23611.47499999788,"survey":"gad7","trial_type":"survey-template","trial_index":1,"time_elapsed":35679,"internal_node_id":"0.0-1.0","task_version":"test-retest-t2"},{"view_history":"[{\"page_index\":0,\"viewing_time\":2266.799999997602},{\"page_index\":1,\"viewing_time\":2718.4350000025006},{\"page_index\":2,\"viewing_time\":6487.804999997024},{\"page_index\":3,\"viewing_time\":5427.995000005467},{\"page_index\":4,\"viewing_time\":5786.330000002636}]","rt":22688.829999999143,"trial_type":"pit-instructions","trial_index":2,"time_elapsed":58394,"internal_node_id":"0.0-2.0-0.0","task_version":"test-retest-t2"},{"Rune":"rune_00_ingz","Hex":"#FFFFF080","Correct":32,"Choice":32,"RT":457.9400000075111,"Accuracy":1,"Outcome":"+10","Keys":[1958.6249999993015],"TotalKeys":1,"Block":0,"Action":"Go","trial_type":"pit-trial","trial_index":3,"time_elapsed":61361,"internal_node_id":"0.0-2.0-1.0-0.0","task_version":"test-retest-t2"},{"Rune":"rune_00_ingz","Hex":"#FFFFF080","Correct":32,"Choice":32,"RT":396.9599999982165,"Accuracy":1,"Outcome":"+10","Keys":[1898.3250000019325],"TotalKeys":1,"Block":0,"Action":"Go","trial_type":"pit-trial","trial_index":4,"time_elapsed":64273,"internal_node_id":"0.0-2.0-1.0-0.1","task_version":"test-retest-t2"},{"Rune":"rune_00_ingz","Hex":"#FFFFF080","Correct":32,"Choice":32,"RT":310.1899999892339,"Accuracy":1,"Outcome":"+10","Keys":[1811.4200000127312],"TotalKeys":1,"Block":0,"Action":"Go","trial_type":"pit-trial","trial_index":5,"time_elapsed":67094,"internal_node_id":"0.0-2.0-1.0-0.2","task_version":"test-retest-t2"},{"Rune":"rune_00_ingz","Hex":"#FFFFF080","Correct":32,"Choice":32,"RT":432.2049999900628,"Accuracy":1,"Outcome":"+10","Keys":[1936.3549999980023],"TotalKeys":1,"Block":0,"Action":"Go","trial_type":"pit-trial","trial_index":6,"time_elapsed":70058,"internal_node_id":"0.0-2.0-1.0-0.3","task_version":"test-retest-t2"},{"view_history":"[{\"page_index\":0,\"viewing_time\":20543.430000005173}]","rt":20544.69500000414,"trial_type":"pit-instructions","trial_index":7,"time_elapsed":90607,"internal_node_id":"0.0-2.0-2.0","task_version":"test-retest-t2"},{"Rune":"rune_00_isaz","Hex":"#FFFFF080","Correct":-1,"Choice":32,"RT":475.68499999761116,"Accuracy":0,"Outcome":"+0","Keys":[1976.4649999997346],"TotalKeys":1,"Block":0,"Action":"No-Go","trial_type":"pit-trial","trial_index":8,"time_elapsed":93593,"internal_node_id":"0.0-2.0-3.0-0.0","task_version":"test-retest-t2"},{"Rune":"rune_00_isaz","Hex":"#FFFFF080","Correct":-1,"Choice":32,"RT":486.6199999960372,"Accuracy":0,"Outcome":"+0","Keys":[1277.63500000583,1988.9750000002095],"TotalKeys":2,"Block":0,"Action":"No-Go","trial_type":"pit-trial","trial_index":9,"time_elapsed":96592,"internal_node_id":"0.0-2.0-3.0-0.1","task_version":"test-retest-t2"},{"Rune":"rune_00_isaz","Hex":"#FFFFF080","Correct":-1,"Choice":32,"RT":617.5700000021607,"Accuracy":0,"Outcome":"+0","Keys":[2121.4449999970384],"TotalKeys":1,"Block":0,"Action":"No-Go","trial_type":"pit-trial","trial_index":10,"time_elapsed":99722,"internal_node_id":"0.0-2.0-3.0-0.2","task_version":"test-retest-t2"},{"Rune":"rune_00_isaz","Hex":"#FFFFF080","Correct":-1,"Choice":-1,"RT":-1,"Accuracy":1,"Outcome":"+10","Keys":[],"TotalKeys":0,"Block":0,"Action":"No-Go","trial_type":"pit-trial","trial_index":11,"time_elapsed":103729,"internal_node_id":"0.0-2.0-3.0-0.3","task_version":"test-retest-t2"},{"view_history":"[{\"page_index\":0,\"viewing_time\":11375.390000001062},{\"page_index\":1,\"viewing_time\":1442.2249999915948},{\"page_index\":2,\"viewing_time\":1596.9850000110455},{\"page_index\":1,\"viewing_time\":105133.10999999521},{\"page_index\":2,\"viewing_time\":12751.575000002049},{\"page_index\":3,\"viewing_time\":10074.504999996861},{\"page_index\":2,\"viewing_time\":422.0400000049267},{\"page_index\":1,\"viewing_time\":3220.4599999968195},{\"page_index\":2,\"viewing_time\":3846.575000003213},{\"page_index\":3,\"viewing_time\":4896.489999999176},{\"page_index\":4,\"viewing_time\":2421.119999999064},{\"page_index\":3,\"viewing_time\":325.8999999961816},{\"page_index\":2,\"viewing_time\":597.8400000021793},{\"page_index\":1,\"viewing_time\":46878.94999999844},{\"page_index\":2,\"viewing_time\":2000.1049999991665},{\"page_index\":3,\"viewing_time\":2310.4850000090664},{\"page_index\":4,\"viewing_time\":1145.7299999892712},{\"page_index\":5,\"viewing_time\":3600.8700000093086},{\"page_index\":6,\"viewing_time\":12049.62499999965},{\"page_index\":7,\"viewing_time\":2030.4899999900954}]","rt":228122.66999999702,"trial_type":"pit-instructions","trial_index":12,"time_elapsed":331860,"internal_node_id":"0.0-2.0-4.0","task_version":"test-retest-t2"},{"responses":["Do nothing","+10","-1","True","Yes"],"num_errors":0,"rt":29614.184999998542,"trial_type":"pit-comprehension","trial_index":13,"time_elapsed":361488,"internal_node_id":"0.0-2.0-5.0","task_version":"test-retest-t2"},{"trial_type":"call-function","trial_index":14,"time_elapsed":361505,"internal_node_id":"0.0-3.0","task_version":"test-retest-t2"},{"view_history":"[{\"page_index\":0,\"viewing_time\":1819.4800000055693},{\"page_index\":1,\"viewing_time\":1809.175000002142},{\"page_index\":2,\"viewing_time\":4668.695000000298}]","rt":8298.05500000657,"trial_type":"pit-instructions","trial_index":15,"time_elapsed":369809,"internal_node_id":"0.0-4.0","task_version":"test-retest-t2"},{"Rune":"rune_04_iwaz","Hex":"#ffcc3399","Correct":-1,"Choice":32,"RT":507.6249999983702,"Accuracy":0,"Outcome":"-1","Keys":[2017.3999999969965],"TotalKeys":1,"Block":1,"Trial":1,"Robot":4,"Valence":"Lose","Action":"No-Go","Sham":1,"Color":"yellow","trial_type":"pit-trial","trial_index":16,"time_elapsed":372841,"internal_node_id":"0.0-5.0","task_version":"test-retest-t2"},{"Rune":"rune_04_dagaz","Hex":"#3366ff99","Correct":32,"Choice":32,"RT":1127.9150000045775,"Accuracy":1,"Outcome":"+10","Keys":[2628.550000008545],"TotalKeys":1,"Block":1,"Trial":2,"Robot":1,"Valence":"Win","Action":"Go","Sham":0,"Color":"blue","trial_type":"pit-trial","trial_index":17,"time_elapsed":376479,"internal_node_id":"0.0-6.0","task_version":"test-retest-t2"},{"Rune":"rune_04_ac","Hex":"#ffcc3399","Correct":32,"Choice":-1,"RT":-1,"Accuracy":0,"Outcome":"-1","Keys":[],"TotalKeys":0,"Block":1,"Trial":3,"Robot":3,"Valence":"Lose","Action":"Go","Sham":1,"Color":"yellow","trial_type":"pit-trial","trial_index":18,"time_elapsed":380499,"internal_node_id":"0.0-7.0","task_version":"test-retest-t2"},{"Rune":"rune_04_wunjo","Hex":"#3366ff99","Correct":-1,"Choice":32,"RT":757.2999999974854,"Accuracy":0,"Outcome":"+10","Keys":[2260.2099999930942],"TotalKeys":1,"Block":1,"Trial":4,"Robot":2,"Valence":"Win","Action":"No-Go","Sham":1,"Color":"blue","trial_type":"pit-trial","trial_index":19,"time_elapsed":383766,"internal_node_id":"0.0-8.0","task_version":"test-retest-t2"},{"Rune":"rune_04_dagaz","Hex":"#3366ff99","Correct":32,"Choice":32,"RT":601.0949999908917,"Accuracy":1,"Outcome":"+10","Keys":[2103.3099999913247],"TotalKeys":1,"Block":1,"Trial":5,"Robot":1,"Valence":"Win","Action":"Go","Sham":0,"Color":"blue","trial_type":"pit-trial","trial_index":20,"time_elapsed":386881,"internal_node_id":"0.0-9.0","task_version":"test-retest-t2"},{"Rune":"rune_04_wunjo","Hex":"#3366ff99","Correct":-1,"Choice":32,"RT":560.1449999958277,"Accuracy":0,"Outcome":"+1","Keys":[2061.3000000012107],"TotalKeys":1,"Block":1,"Trial":6,"Robot":2,"Valence":"Win","Action":"No-Go","Sham":0,"Color":"blue","trial_type":"pit-trial","trial_index":21,"time_elapsed":389956,"internal_node_id":"0.0-10.0","task_version":"test-retest-t2"},{"Rune":"rune_04_ac","Hex":"#ffcc3399","Correct":32,"Choice":-1,"RT":-1,"Accuracy":0,"Outcome":"-10","Keys":[],"TotalKeys":0,"Block":1,"Trial":7,"Robot":3,"Valence":"Lose","Action":"Go","Sham":0,"Color":"yellow","trial_type":"pit-trial","trial_index":22,"time_elapsed":393965,"internal_node_id":"0.0-11.0","task_version":"test-retest-t2"},{"Rune":"rune_04_iwaz","Hex":"#ffcc3399","Correct":-1,"Choice":32,"RT":640.1400000031572,"Accuracy":0,"Outcome":"-10","Keys":[2141.3200000097277],"TotalKeys":1,"Block":1,"Trial":8,"Robot":4,"Valence":"Lose","Action":"No-Go","Sham":0,"Color":"yellow","trial_type":"pit-trial","trial_index":23,"time_elapsed":397124,"internal_node_id":"0.0-12.0","task_version":"test-retest-t2"},{"Rune":"rune_04_wunjo","Hex":"#3366ff99","Correct":-1,"Choice":32,"RT":465.90500000456814,"Accuracy":0,"Outcome":"+1","Keys":[1966.0949999961304],"TotalKeys":1,"Block":1,"Trial":9,"Robot":2,"Valence":"Win","Action":"No-Go","Sham":0,"Color":"blue","trial_type":"pit-trial","trial_index":24,"time_elapsed":400099,"internal_node_id":"0.0-13.0","task_version":"test-retest-t2"},{"Rune":"rune_04_iwaz","Hex":"#ffcc3399","Correct":-1,"Choice":32,"RT":796.7650000064168,"Accuracy":0,"Outcome":"-10","Keys":[2297.774999999092],"TotalKeys":1,"Block":1,"Trial":10,"Robot":4,"Valence":"Lose","Action":"No-Go","Sham":0,"Color":"yellow","trial_type":"pit-trial","trial_index":25,"time_elapsed":403410,"internal_node_id":"0.0-14.0","task_version":"test-retest-t2"},{"Rune":"rune_04_dagaz","Hex":"#3366ff99","Correct":32,"Choice":32,"RT":669.6599999995669,"Accuracy":1,"Outcome":"+10","Keys":[2170.1499999908265],"TotalKeys":1,"Block":1,"Trial":11,"Robot":1,"Valence":"Win","Action":"Go","Sham":0,"Color":"blue","trial_type":"pit-trial","trial_index":26,"time_elapsed":406591,"internal_node_id":"0.0-15.0","task_version":"test-retest-t2"},{"Rune":"rune_04_ac","Hex":"#ffcc3399","Correct":32,"Choice":32,"RT":1268.2349999959115,"Accuracy":1,"Outcome":"-1","Keys":[2769.075000003795],"TotalKeys":1,"Block":1,"Trial":12,"Robot":3,"Valence":"Lose","Action":"Go","Sham":0,"Color":"yellow","trial_type":"pit-trial","trial_index":27,"time_elapsed":410369,"internal_node_id":"0.0-16.0","task_version":"test-retest-t2"},{"Rune":"rune_04_dagaz","Hex":"#3366ff99","Correct":32,"Choice":32,"RT":528.3600000111619,"Accuracy":1,"Outcome":"+1","Keys":[2028.8949999958277],"TotalKeys":1,"Block":1,"Trial":13,"Robot":1,"Valence":"Win","Action":"Go","Sham":1,"Color":"blue","trial_type":"pit-trial","trial_index":28,"time_elapsed":413408,"internal_node_id":"0.0-17.0","task_version":"test-retest-t2"},{"Rune":"rune_04_wunjo","Hex":"#3366ff99","Correct":-1,"Choice":-1,"RT":-1,"Accuracy":1,"Outcome":"+10","Keys":[],"TotalKeys":0,"Block":1,"Trial":14,"Robot":2,"Valence":"Win","Action":"No-Go","Sham":0,"Color":"blue","trial_type":"pit-trial","trial_index":29,"time_elapsed":417419,"internal_node_id":"0.0-18.0","task_version":"test-retest-t2"},{"Rune":"rune_04_iwaz","Hex":"#ffcc3399","Correct":-1,"Choice":32,"RT":770.1499999966472,"Accuracy":0,"Outcome":"-10","Keys":[2270.6900000048336],"TotalKeys":1,"Block":1,"Trial":15,"Robot":4,"Valence":"Lose","Action":"No-Go","Sham":0,"Color":"yellow","trial_type":"pit-trial","trial_index":30,"time_elapsed":420699,"internal_node_id":"0.0-19.0","task_version":"test-retest-t2"},{"Rune":"rune_04_ac","Hex":"#ffcc3399","Correct":32,"Choice":32,"RT":946.8550000019604,"Accuracy":1,"Outcome":"-1","Keys":[2447.455000001355],"TotalKeys":1,"Block":1,"Trial":16,"Robot":3,"Valence":"Lose","Action":"Go","Sham":0,"Color":"yellow","trial_type":"pit-trial","trial_index":31,"time_elapsed":424161,"internal_node_id":"0.0-20.0","task_version":"test-retest-t2"},{"Rune":"rune_04_ac","Hex":"#ffcc3399","Correct":32,"Choice":32,"RT":506.7700000072364,"Accuracy":1,"Outcome":"-1","Keys":[2008.1499999942025],"TotalKeys":1,"Block":1,"Trial":17,"Robot":3,"Valence":"Lose","Action":"Go","Sham":0,"Color":"yellow","trial_type":"pit-trial","trial_index":32,"time_elapsed":427181,"internal_node_id":"0.0-21.0","task_version":"test-retest-t2"},{"Rune":"rune_04_dagaz","Hex":"#3366ff99","Correct":32,"Choice":32,"RT":589.6650000067893,"Accuracy":1,"Outcome":"+10","Keys":[2091.065000000526],"TotalKeys":1,"Block":1,"Trial":18,"Robot":1,"Valence":"Win","Action":"Go","Sham":0,"Color":"blue","trial_type":"pit-trial","trial_index":33,"time_elapsed":430287,"internal_node_id":"0.0-22.0","task_version":"test-retest-t2"},{"Rune":"rune_04_iwaz","Hex":"#ffcc3399","Correct":-1,"Choice":32,"RT":1418.725000010454,"Accuracy":0,"Outcome":"-10","Keys":[2921.3499999896158,3804.5750000019325],"TotalKeys":2,"Block":1,"Trial":19,"Robot":4,"Valence":"Lose","Action":"No-Go","Sham":0,"Color":"yellow","trial_type":"pit-trial","trial_index":34,"time_elapsed":434221,"internal_node_id":"0.0-23.0","task_version":"test-retest-t2"},{"Rune":"rune_04_wunjo","Hex":"#3366ff99","Correct":-1,"Choice":32,"RT":1087.7500000060536,"Accuracy":0,"Outcome":"+1","Keys":[2589.475000000675],"TotalKeys":1,"Block":1,"Trial":20,"Robot":2,"Valence":"Win","Action":"No-Go","Sham":0,"Color":"blue","trial_type":"pit-trial","trial_index":35,"time_elapsed":437822,"internal_node_id":"0.0-24.0","task_version":"test-retest-t2"},{"Rune":"rune_04_dagaz","Hex":"#3366ff99","Correct":32,"Choice":32,"RT":489.3599999923026,"Accuracy":1,"Outcome":"+1","Keys":[1991.2550000008196],"TotalKeys":1,"Block":1,"Trial":21,"Robot":1,"Valence":"Win","Action":"Go","Sham":1,"Color":"blue","trial_type":"pit-trial","trial_index":36,"time_elapsed":440823,"internal_node_id":"0.0-25.0","task_version":"test-retest-t2"},{"Rune":"rune_04_ac","Hex":"#ffcc3399","Correct":32,"Choice":32,"RT":693.8099999970291,"Accuracy":1,"Outcome":"-1","Keys":[2194.980000000214],"TotalKeys":1,"Block":1,"Trial":22,"Robot":3,"Valence":"Lose","Action":"Go","Sham":0,"Color":"yellow","trial_type":"pit-trial","trial_index":37,"time_elapsed":444027,"internal_node_id":"0.0-26.0","task_version":"test-retest-t2"},{"Rune":"rune_04_iwaz","Hex":"#ffcc3399","Correct":-1,"Choice":-1,"RT":-1,"Accuracy":1,"Outcome":"-1","Keys":[],"TotalKeys":0,"Block":1,"Trial":23,"Robot":4,"Valence":"Lose","Action":"No-Go","Sham":0,"Color":"yellow","trial_type":"pit-trial","trial_index":38,"time_elapsed":448043,"internal_node_id":"0.0-27.0","task_version":"test-retest-t2"},{"Rune":"rune_04_wunjo","Hex":"#3366ff99","Correct":-1,"Choice":-1,"RT":-1,"Accuracy":1,"Outcome":"+10","Keys":[],"TotalKeys":0,"Block":1,"Trial":24,"Robot":2,"Valence":"Win","Action":"No-Go","Sham":0,"Color":"blue","trial_type":"pit-trial","trial_index":39,"time_elapsed":452056,"internal_node_id":"0.0-28.0","task_version":"test-retest-t2"},{"Rune":"rune_04_ac","Hex":"#ffcc3399","Correct":32,"Choice":32,"RT":664.7850000008475,"Accuracy":1,"Outcome":"-1","Keys":[2165.9599999984493],"TotalKeys":1,"Block":1,"Trial":25,"Robot":3,"Valence":"Lose","Action":"Go","Sham":0,"Color":"yellow","trial_type":"pit-trial","trial_index":40,"time_elapsed":455235,"internal_node_id":"0.0-29.0","task_version":"test-retest-t2"},{"Rune":"rune_04_iwaz","Hex":"#ffcc3399","Correct":-1,"Choice":-1,"RT":-1,"Accuracy":1,"Outcome":"-1","Keys":[],"TotalKeys":0,"Block":1,"Trial":26,"Robot":4,"Valence":"Lose","Action":"No-Go","Sham":0,"Color":"yellow","trial_type":"pit-trial","trial_index":41,"time_elapsed":459245,"internal_node_id":"0.0-30.0","task_version":"test-retest-t2"},{"Rune":"rune_04_dagaz","Hex":"#3366ff99","Correct":32,"Choice":32,"RT":564.6399999968708,"Accuracy":1,"Outcome":"+10","Keys":[2065.5500000139],"TotalKeys":1,"Block":1,"Trial":27,"Robot":1,"Valence":"Win","Action":"Go","Sham":0,"Color":"blue","trial_type":"pit-trial","trial_index":42,"time_elapsed":462325,"internal_node_id":"0.0-31.0","task_version":"test-retest-t2"},{"Rune":"rune_04_wunjo","Hex":"#3366ff99","Correct":-1,"Choice":-1,"RT":-1,"Accuracy":1,"Outcome":"+10","Keys":[],"TotalKeys":0,"Block":1,"Trial":28,"Robot":2,"Valence":"Win","Action":"No-Go","Sham":0,"Color":"blue","trial_type":"pit-trial","trial_index":43,"time_elapsed":466338,"internal_node_id":"0.0-32.0","task_version":"test-retest-t2"},{"Rune":"rune_04_iwaz","Hex":"#ffcc3399","Correct":-1,"Choice":-1,"RT":-1,"Accuracy":1,"Outcome":"-1","Keys":[],"TotalKeys":0,"Block":1,"Trial":29,"Robot":4,"Valence":"Lose","Action":"No-Go","Sham":0,"Color":"yellow","trial_type":"pit-trial","trial_index":44,"time_elapsed":470352,"internal_node_id":"0.0-33.0","task_version":"test-retest-t2"},{"Rune":"rune_04_wunjo","Hex":"#3366ff99","Correct":-1,"Choice":-1,"RT":-1,"Accuracy":1,"Outcome":"+1","Keys":[],"TotalKeys":0,"Block":1,"Trial":30,"Robot":2,"Valence":"Win","Action":"No-Go","Sham":1,"Color":"blue","trial_type":"pit-trial","trial_index":45,"time_elapsed":474361,"internal_node_id":"0.0-34.0","task_version":"test-retest-t2"},{"Rune":"rune_04_dagaz","Hex":"#3366ff99","Correct":32,"Choice":32,"RT":599.9400000000605,"Accuracy":1,"Outcome":"+10","Keys":[2101.0849999875063],"TotalKeys":1,"Block":1,"Trial":31,"Robot":1,"Valence":"Win","Action":"Go","Sham":0,"Color":"blue","trial_type":"pit-trial","trial_index":46,"time_elapsed":477472,"internal_node_id":"0.0-35.0","task_version":"test-retest-t2"},{"Rune":"rune_04_ac","Hex":"#ffcc3399","Correct":32,"Choice":32,"RT":476.90500000317115,"Accuracy":1,"Outcome":"-10","Keys":[1978.979999999865],"TotalKeys":1,"Block":1,"Trial":32,"Robot":3,"Valence":"Lose","Action":"Go","Sham":1,"Color":"yellow","trial_type":"pit-trial","trial_index":47,"time_elapsed":480458,"internal_node_id":"0.0-36.0","task_version":"test-retest-t2"},{"Rune":"rune_04_wunjo","Hex":"#3366ff99","Correct":-1,"Choice":-1,"RT":-1,"Accuracy":1,"Outcome":"+10","Keys":[],"TotalKeys":0,"Block":1,"Trial":33,"Robot":2,"Valence":"Win","Action":"No-Go","Sham":0,"Color":"blue","trial_type":"pit-trial","trial_index":48,"time_elapsed":484471,"internal_node_id":"0.0-37.0","task_version":"test-retest-t2"},{"Rune":"rune_04_dagaz","Hex":"#3366ff99","Correct":32,"Choice":32,"RT":491.17999999725726,"Accuracy":1,"Outcome":"+10","Keys":[1992.4249999894528],"TotalKeys":1,"Block":1,"Trial":34,"Robot":1,"Valence":"Win","Action":"Go","Sham":0,"Color":"blue","trial_type":"pit-trial","trial_index":49,"time_elapsed":487473,"internal_node_id":"0.0-38.0","task_version":"test-retest-t2"},{"Rune":"rune_04_iwaz","Hex":"#ffcc3399","Correct":-1,"Choice":-1,"RT":-1,"Accuracy":1,"Outcome":"-1","Keys":[],"TotalKeys":0,"Block":1,"Trial":35,"Robot":4,"Valence":"Lose","Action":"No-Go","Sham":0,"Color":"yellow","trial_type":"pit-trial","trial_index":50,"time_elapsed":491486,"internal_node_id":"0.0-39.0","task_version":"test-retest-t2"},{"Rune":"rune_04_ac","Hex":"#ffcc3399","Correct":32,"Choice":32,"RT":1001.5399999974761,"Accuracy":1,"Outcome":"-1","Keys":[2504.175000009127],"TotalKeys":1,"Block":1,"Trial":36,"Robot":3,"Valence":"Lose","Action":"Go","Sham":0,"Color":"yellow","trial_type":"pit-trial","trial_index":51,"time_elapsed":495002,"internal_node_id":"0.0-40.0","task_version":"test-retest-t2"},{"Rune":"rune_04_iwaz","Hex":"#ffcc3399","Correct":-1,"Choice":-1,"RT":-1,"Accuracy":1,"Outcome":"-10","Keys":[],"TotalKeys":0,"Block":1,"Trial":37,"Robot":4,"Valence":"Lose","Action":"No-Go","Sham":1,"Color":"yellow","trial_type":"pit-trial","trial_index":52,"time_elapsed":499012,"internal_node_id":"0.0-41.0","task_version":"test-retest-t2"},{"Rune":"rune_04_ac","Hex":"#ffcc3399","Correct":32,"Choice":32,"RT":832.2499999922002,"Accuracy":1,"Outcome":"-1","Keys":[2333.63000000827],"TotalKeys":1,"Block":1,"Trial":38,"Robot":3,"Valence":"Lose","Action":"Go","Sham":0,"Color":"yellow","trial_type":"pit-trial","trial_index":53,"time_elapsed":502358,"internal_node_id":"0.0-42.0","task_version":"test-retest-t2"},{"Rune":"rune_04_dagaz","Hex":"#3366ff99","Correct":32,"Choice":32,"RT":663.5900000110269,"Accuracy":1,"Outcome":"+10","Keys":[2166.8700000009267],"TotalKeys":1,"Block":1,"Trial":39,"Robot":1,"Valence":"Win","Action":"Go","Sham":0,"Color":"blue","trial_type":"pit-trial","trial_index":54,"time_elapsed":505537,"internal_node_id":"0.0-43.0","task_version":"test-retest-t2"},{"Rune":"rune_04_wunjo","Hex":"#3366ff99","Correct":-1,"Choice":-1,"RT":-1,"Accuracy":1,"Outcome":"+10","Keys":[],"TotalKeys":0,"Block":1,"Trial":40,"Robot":2,"Valence":"Win","Action":"No-Go","Sham":0,"Color":"blue","trial_type":"pit-trial","trial_index":55,"time_elapsed":509549,"internal_node_id":"0.0-44.0","task_version":"test-retest-t2"},{"Rune":"rune_04_wunjo","Hex":"#3366ff99","Correct":-1,"Choice":-1,"RT":-1,"Accuracy":1,"Outcome":"+10","Keys":[],"TotalKeys":0,"Block":1,"Trial":41,"Robot":2,"Valence":"Win","Action":"No-Go","Sham":0,"Color":"blue","trial_type":"pit-trial","trial_index":56,"time_elapsed":513558,"internal_node_id":"0.0-45.0","task_version":"test-retest-t2"},{"Rune":"rune_04_dagaz","Hex":"#3366ff99","Correct":32,"Choice":32,"RT":564.8700000019744,"Accuracy":1,"Outcome":"+10","Keys":[2066.7350000003353],"TotalKeys":1,"Block":1,"Trial":42,"Robot":1,"Valence":"Win","Action":"Go","Sham":0,"Color":"blue","trial_type":"pit-trial","trial_index":57,"time_elapsed":516633,"internal_node_id":"0.0-46.0","task_version":"test-retest-t2"},{"Rune":"rune_04_ac","Hex":"#ffcc3399","Correct":32,"Choice":32,"RT":1076.1099999945145,"Accuracy":1,"Outcome":"-10","Keys":[2576.939999999013],"TotalKeys":1,"Block":1,"Trial":43,"Robot":3,"Valence":"Lose","Action":"Go","Sham":1,"Color":"yellow","trial_type":"pit-trial","trial_index":58,"time_elapsed":520220,"internal_node_id":"0.0-47.0","task_version":"test-retest-t2"},{"Rune":"rune_04_iwaz","Hex":"#ffcc3399","Correct":-1,"Choice":-1,"RT":-1,"Accuracy":1,"Outcome":"-10","Keys":[],"TotalKeys":0,"Block":1,"Trial":44,"Robot":4,"Valence":"Lose","Action":"No-Go","Sham":1,"Color":"yellow","trial_type":"pit-trial","trial_index":59,"time_elapsed":524235,"internal_node_id":"0.0-48.0","task_version":"test-retest-t2"},{"Rune":"rune_04_wunjo","Hex":"#3366ff99","Correct":-1,"Choice":-1,"RT":-1,"Accuracy":1,"Outcome":"+10","Keys":[],"TotalKeys":0,"Block":1,"Trial":45,"Robot":2,"Valence":"Win","Action":"No-Go","Sham":0,"Color":"blue","trial_type":"pit-trial","trial_index":60,"time_elapsed":528247,"internal_node_id":"0.0-49.0","task_version":"test-retest-t2"},{"Rune":"rune_04_iwaz","Hex":"#ffcc3399","Correct":-1,"Choice":-1,"RT":-1,"Accuracy":1,"Outcome":"-1","Keys":[],"TotalKeys":0,"Block":1,"Trial":46,"Robot":4,"Valence":"Lose","Action":"No-Go","Sham":0,"Color":"yellow","trial_type":"pit-trial","trial_index":61,"time_elapsed":532258,"internal_node_id":"0.0-50.0","task_version":"test-retest-t2"},{"Rune":"rune_04_ac","Hex":"#ffcc3399","Correct":32,"Choice":32,"RT":688.2449999975506,"Accuracy":1,"Outcome":"-1","Keys":[2188.589999990654],"TotalKeys":1,"Block":1,"Trial":47,"Robot":3,"Valence":"Lose","Action":"Go","Sham":0,"Color":"yellow","trial_type":"pit-trial","trial_index":62,"time_elapsed":535465,"internal_node_id":"0.0-51.0","task_version":"test-retest-t2"},{"Rune":"rune_04_dagaz","Hex":"#3366ff99","Correct":32,"Choice":32,"RT":493.9799999992829,"Accuracy":1,"Outcome":"+10","Keys":[1996.3900000002468],"TotalKeys":1,"Block":1,"Trial":48,"Robot":1,"Valence":"Win","Action":"Go","Sham":0,"Color":"blue","trial_type":"pit-trial","trial_index":63,"time_elapsed":538472,"internal_node_id":"0.0-52.0","task_version":"test-retest-t2"},{"Rune":"rune_04_dagaz","Hex":"#3366ff99","Correct":32,"Choice":32,"RT":503.82500000705477,"Accuracy":1,"Outcome":"+10","Keys":[2004.6299999958137],"TotalKeys":1,"Block":1,"Trial":49,"Robot":1,"Valence":"Win","Action":"Go","Sham":0,"Color":"blue","trial_type":"pit-trial","trial_index":64,"time_elapsed":541487,"internal_node_id":"0.0-53.0","task_version":"test-retest-t2"},{"Rune":"rune_04_wunjo","Hex":"#3366ff99","Correct":-1,"Choice":-1,"RT":-1,"Accuracy":1,"Outcome":"+1","Keys":[],"TotalKeys":0,"Block":1,"Trial":50,"Robot":2,"Valence":"Win","Action":"No-Go","Sham":1,"Color":"blue","trial_type":"pit-trial","trial_index":65,"time_elapsed":545499,"internal_node_id":"0.0-54.0","task_version":"test-retest-t2"},{"Rune":"rune_04_iwaz","Hex":"#ffcc3399","Correct":-1,"Choice":-1,"RT":-1,"Accuracy":1,"Outcome":"-1","Keys":[],"TotalKeys":0,"Block":1,"Trial":51,"Robot":4,"Valence":"Lose","Action":"No-Go","Sham":0,"Color":"yellow","trial_type":"pit-trial","trial_index":66,"time_elapsed":549506,"internal_node_id":"0.0-55.0","task_version":"test-retest-t2"},{"Rune":"rune_04_ac","Hex":"#ffcc3399","Correct":32,"Choice":32,"RT":662.3400000098627,"Accuracy":1,"Outcome":"-1","Keys":[2162.6350000005914],"TotalKeys":1,"Block":1,"Trial":52,"Robot":3,"Valence":"Lose","Action":"Go","Sham":0,"Color":"yellow","trial_type":"pit-trial","trial_index":67,"time_elapsed":552676,"internal_node_id":"0.0-56.0","task_version":"test-retest-t2"},{"Rune":"rune_04_wunjo","Hex":"#3366ff99","Correct":-1,"Choice":-1,"RT":-1,"Accuracy":1,"Outcome":"+10","Keys":[],"TotalKeys":0,"Block":1,"Trial":53,"Robot":2,"Valence":"Win","Action":"No-Go","Sham":0,"Color":"blue","trial_type":"pit-trial","trial_index":68,"time_elapsed":556689,"internal_node_id":"0.0-57.0","task_version":"test-retest-t2"},{"Rune":"rune_04_ac","Hex":"#ffcc3399","Correct":32,"Choice":32,"RT":983.8849999941885,"Accuracy":1,"Outcome":"-1","Keys":[2485.610000003362],"TotalKeys":1,"Block":1,"Trial":54,"Robot":3,"Valence":"Lose","Action":"Go","Sham":0,"Color":"yellow","trial_type":"pit-trial","trial_index":69,"time_elapsed":560188,"internal_node_id":"0.0-58.0","task_version":"test-retest-t2"},{"Rune":"rune_04_dagaz","Hex":"#3366ff99","Correct":32,"Choice":32,"RT":543.6650000046939,"Accuracy":1,"Outcome":"+10","Keys":[2044.064999994589],"TotalKeys":1,"Block":1,"Trial":55,"Robot":1,"Valence":"Win","Action":"Go","Sham":0,"Color":"blue","trial_type":"pit-trial","trial_index":70,"time_elapsed":563241,"internal_node_id":"0.0-59.0","task_version":"test-retest-t2"},{"Rune":"rune_04_iwaz","Hex":"#ffcc3399","Correct":-1,"Choice":-1,"RT":-1,"Accuracy":1,"Outcome":"-1","Keys":[],"TotalKeys":0,"Block":1,"Trial":56,"Robot":4,"Valence":"Lose","Action":"No-Go","Sham":0,"Color":"yellow","trial_type":"pit-trial","trial_index":71,"time_elapsed":567252,"internal_node_id":"0.0-60.0","task_version":"test-retest-t2"},{"Rune":"rune_04_dagaz","Hex":"#3366ff99","Correct":32,"Choice":32,"RT":458.3950000087498,"Accuracy":1,"Outcome":"+1","Keys":[1959.4100000103936],"TotalKeys":1,"Block":1,"Trial":57,"Robot":1,"Valence":"Win","Action":"Go","Sham":1,"Color":"blue","trial_type":"pit-trial","trial_index":72,"time_elapsed":570219,"internal_node_id":"0.0-61.0","task_version":"test-retest-t2"},{"Rune":"rune_04_ac","Hex":"#ffcc3399","Correct":32,"Choice":32,"RT":683.4499999968102,"Accuracy":1,"Outcome":"-1","Keys":[2183.984999996028],"TotalKeys":1,"Block":1,"Trial":58,"Robot":3,"Valence":"Lose","Action":"Go","Sham":0,"Color":"yellow","trial_type":"pit-trial","trial_index":73,"time_elapsed":573416,"internal_node_id":"0.0-62.0","task_version":"test-retest-t2"},{"Rune":"rune_04_wunjo","Hex":"#3366ff99","Correct":-1,"Choice":-1,"RT":-1,"Accuracy":1,"Outcome":"+10","Keys":[],"TotalKeys":0,"Block":1,"Trial":59,"Robot":2,"Valence":"Win","Action":"No-Go","Sham":0,"Color":"blue","trial_type":"pit-trial","trial_index":74,"time_elapsed":577428,"internal_node_id":"0.0-63.0","task_version":"test-retest-t2"},{"Rune":"rune_04_iwaz","Hex":"#ffcc3399","Correct":-1,"Choice":-1,"RT":-1,"Accuracy":1,"Outcome":"-1","Keys":[],"TotalKeys":0,"Block":1,"Trial":60,"Robot":4,"Valence":"Lose","Action":"No-Go","Sham":0,"Color":"yellow","trial_type":"pit-trial","trial_index":75,"time_elapsed":581439,"internal_node_id":"0.0-64.0","task_version":"test-retest-t2"},{"value":false,"trial_type":"call-function","trial_index":76,"time_elapsed":581450,"internal_node_id":"0.0-65.0","task_version":"test-retest-t2"},{"view_history":"[{\"page_index\":0,\"viewing_time\":36742.559999998775},{\"page_index\":1,\"viewing_time\":1948.8950000086334}]","rt":38693.98999999976,"trial_type":"pit-instructions","trial_index":77,"time_elapsed":620148,"internal_node_id":"0.0-66.0","task_version":"test-retest-t2"},{"Rune":"rune_04_dagaz","Hex":"#3366ff99","Correct":32,"Choice":32,"RT":549.5200000004843,"Accuracy":1,"Outcome":"+10","Keys":[2050.0449999963166],"TotalKeys":1,"Block":1,"Trial":61,"Robot":1,"Valence":"Win","Action":"Go","Sham":0,"Color":"blue","trial_type":"pit-trial","trial_index":78,"time_elapsed":623219,"internal_node_id":"0.0-67.0","task_version":"test-retest-t2"},{"Rune":"rune_04_ac","Hex":"#ffcc3399","Correct":32,"Choice":32,"RT":814.8799999908078,"Accuracy":1,"Outcome":"-1","Keys":[2315.7150000042748],"TotalKeys":1,"Block":1,"Trial":62,"Robot":3,"Valence":"Lose","Action":"Go","Sham":0,"Color":"yellow","trial_type":"pit-trial","trial_index":79,"time_elapsed":626548,"internal_node_id":"0.0-68.0","task_version":"test-retest-t2"},{"Rune":"rune_04_wunjo","Hex":"#3366ff99","Correct":-1,"Choice":-1,"RT":-1,"Accuracy":1,"Outcome":"+10","Keys":[],"TotalKeys":0,"Block":1,"Trial":63,"Robot":2,"Valence":"Win","Action":"No-Go","Sham":0,"Color":"blue","trial_type":"pit-trial","trial_index":80,"time_elapsed":630556,"internal_node_id":"0.0-69.0","task_version":"test-retest-t2"},{"Rune":"rune_04_iwaz","Hex":"#ffcc3399","Correct":-1,"Choice":-1,"RT":-1,"Accuracy":1,"Outcome":"-1","Keys":[],"TotalKeys":0,"Block":1,"Trial":64,"Robot":4,"Valence":"Lose","Action":"No-Go","Sham":0,"Color":"yellow","trial_type":"pit-trial","trial_index":81,"time_elapsed":634569,"internal_node_id":"0.0-70.0","task_version":"test-retest-t2"},{"Rune":"rune_04_ac","Hex":"#ffcc3399","Correct":32,"Choice":32,"RT":528.5300000105053,"Accuracy":1,"Outcome":"-1","Keys":[2028.9799999882234],"TotalKeys":1,"Block":1,"Trial":65,"Robot":3,"Valence":"Lose","Action":"Go","Sham":0,"Color":"yellow","trial_type":"pit-trial","trial_index":82,"time_elapsed":637604,"internal_node_id":"0.0-71.0","task_version":"test-retest-t2"},{"Rune":"rune_04_iwaz","Hex":"#ffcc3399","Correct":-1,"Choice":-1,"RT":-1,"Accuracy":1,"Outcome":"-1","Keys":[],"TotalKeys":0,"Block":1,"Trial":66,"Robot":4,"Valence":"Lose","Action":"No-Go","Sham":0,"Color":"yellow","trial_type":"pit-trial","trial_index":83,"time_elapsed":641617,"internal_node_id":"0.0-72.0","task_version":"test-retest-t2"},{"Rune":"rune_04_wunjo","Hex":"#3366ff99","Correct":-1,"Choice":-1,"RT":-1,"Accuracy":1,"Outcome":"+10","Keys":[],"TotalKeys":0,"Block":1,"Trial":67,"Robot":2,"Valence":"Win","Action":"No-Go","Sham":0,"Color":"blue","trial_type":"pit-trial","trial_index":84,"time_elapsed":645627,"internal_node_id":"0.0-73.0","task_version":"test-retest-t2"},{"Rune":"rune_04_dagaz","Hex":"#3366ff99","Correct":32,"Choice":32,"RT":414.9199999956181,"Accuracy":1,"Outcome":"+1","Keys":[1915.1549999951385],"TotalKeys":1,"Block":1,"Trial":68,"Robot":1,"Valence":"Win","Action":"Go","Sham":1,"Color":"blue","trial_type":"pit-trial","trial_index":85,"time_elapsed":648548,"internal_node_id":"0.0-74.0","task_version":"test-retest-t2"},{"Rune":"rune_04_wunjo","Hex":"#3366ff99","Correct":-1,"Choice":-1,"RT":-1,"Accuracy":1,"Outcome":"+10","Keys":[],"TotalKeys":0,"Block":1,"Trial":69,"Robot":2,"Valence":"Win","Action":"No-Go","Sham":0,"Color":"blue","trial_type":"pit-trial","trial_index":86,"time_elapsed":652556,"internal_node_id":"0.0-75.0","task_version":"test-retest-t2"},{"Rune":"rune_04_dagaz","Hex":"#3366ff99","Correct":32,"Choice":32,"RT":539.9799999868264,"Accuracy":1,"Outcome":"+10","Keys":[2041.3249999983236],"TotalKeys":1,"Block":1,"Trial":70,"Robot":1,"Valence":"Win","Action":"Go","Sham":0,"Color":"blue","trial_type":"pit-trial","trial_index":87,"time_elapsed":655618,"internal_node_id":"0.0-76.0","task_version":"test-retest-t2"},{"Rune":"rune_04_ac","Hex":"#ffcc3399","Correct":32,"Choice":32,"RT":598.230000003241,"Accuracy":1,"Outcome":"-1","Keys":[2102.899999998044],"TotalKeys":1,"Block":1,"Trial":71,"Robot":3,"Valence":"Lose","Action":"Go","Sham":0,"Color":"yellow","trial_type":"pit-trial","trial_index":88,"time_elapsed":658732,"internal_node_id":"0.0-77.0","task_version":"test-retest-t2"},{"Rune":"rune_04_iwaz","Hex":"#ffcc3399","Correct":-1,"Choice":-1,"RT":-1,"Accuracy":1,"Outcome":"-1","Keys":[],"TotalKeys":0,"Block":1,"Trial":72,"Robot":4,"Valence":"Lose","Action":"No-Go","Sham":0,"Color":"yellow","trial_type":"pit-trial","trial_index":89,"time_elapsed":662745,"internal_node_id":"0.0-78.0","task_version":"test-retest-t2"},{"Rune":"rune_04_dagaz","Hex":"#3366ff99","Correct":32,"Choice":32,"RT":400.9599999990314,"Accuracy":1,"Outcome":"+10","Keys":[1901.6649999975925],"TotalKeys":1,"Block":1,"Trial":73,"Robot":1,"Valence":"Win","Action":"Go","Sham":0,"Color":"blue","trial_type":"pit-trial","trial_index":90,"time_elapsed":665658,"internal_node_id":"0.0-79.0","task_version":"test-retest-t2"},{"Rune":"rune_04_ac","Hex":"#ffcc3399","Correct":32,"Choice":32,"RT":709.8799999948824,"Accuracy":1,"Outcome":"-10","Keys":[2210.8449999941513],"TotalKeys":1,"Block":1,"Trial":74,"Robot":3,"Valence":"Lose","Action":"Go","Sham":1,"Color":"yellow","trial_type":"pit-trial","trial_index":91,"time_elapsed":668879,"internal_node_id":"0.0-80.0","task_version":"test-retest-t2"},{"Rune":"rune_04_wunjo","Hex":"#3366ff99","Correct":-1,"Choice":-1,"RT":-1,"Accuracy":1,"Outcome":"+1","Keys":[],"TotalKeys":0,"Block":1,"Trial":75,"Robot":2,"Valence":"Win","Action":"No-Go","Sham":1,"Color":"blue","trial_type":"pit-trial","trial_index":92,"time_elapsed":672886,"internal_node_id":"0.0-81.0","task_version":"test-retest-t2"},{"Rune":"rune_04_iwaz","Hex":"#ffcc3399","Correct":-1,"Choice":-1,"RT":-1,"Accuracy":1,"Outcome":"-10","Keys":[],"TotalKeys":0,"Block":1,"Trial":76,"Robot":4,"Valence":"Lose","Action":"No-Go","Sham":1,"Color":"yellow","trial_type":"pit-trial","trial_index":93,"time_elapsed":676901,"internal_node_id":"0.0-82.0","task_version":"test-retest-t2"},{"Rune":"rune_04_iwaz","Hex":"#ffcc3399","Correct":-1,"Choice":-1,"RT":-1,"Accuracy":1,"Outcome":"-1","Keys":[],"TotalKeys":0,"Block":1,"Trial":77,"Robot":4,"Valence":"Lose","Action":"No-Go","Sham":0,"Color":"yellow","trial_type":"pit-trial","trial_index":94,"time_elapsed":680917,"internal_node_id":"0.0-83.0","task_version":"test-retest-t2"},{"Rune":"rune_04_ac","Hex":"#ffcc3399","Correct":32,"Choice":32,"RT":543.1049999897368,"Accuracy":1,"Outcome":"-1","Keys":[2043.6249999911524],"TotalKeys":1,"Block":1,"Trial":78,"Robot":3,"Valence":"Lose","Action":"Go","Sham":0,"Color":"yellow","trial_type":"pit-trial","trial_index":95,"time_elapsed":683978,"internal_node_id":"0.0-84.0","task_version":"test-retest-t2"},{"Rune":"rune_04_dagaz","Hex":"#3366ff99","Correct":32,"Choice":32,"RT":411.9499999942491,"Accuracy":1,"Outcome":"+10","Keys":[1914.1050000034738],"TotalKeys":1,"Block":1,"Trial":79,"Robot":1,"Valence":"Win","Action":"Go","Sham":0,"Color":"blue","trial_type":"pit-trial","trial_index":96,"time_elapsed":686915,"internal_node_id":"0.0-85.0","task_version":"test-retest-t2"},{"Rune":"rune_04_wunjo","Hex":"#3366ff99","Correct":-1,"Choice":-1,"RT":-1,"Accuracy":1,"Outcome":"+10","Keys":[],"TotalKeys":0,"Block":1,"Trial":80,"Robot":2,"Valence":"Win","Action":"No-Go","Sham":0,"Color":"blue","trial_type":"pit-trial","trial_index":97,"time_elapsed":690925,"internal_node_id":"0.0-86.0","task_version":"test-retest-t2"},{"Rune":"rune_04_iwaz","Hex":"#ffcc3399","Correct":-1,"Choice":-1,"RT":-1,"Accuracy":1,"Outcome":"-1","Keys":[],"TotalKeys":0,"Block":1,"Trial":81,"Robot":4,"Valence":"Lose","Action":"No-Go","Sham":0,"Color":"yellow","trial_type":"pit-trial","trial_index":98,"time_elapsed":694931,"internal_node_id":"0.0-87.0","task_version":"test-retest-t2"},{"Rune":"rune_04_dagaz","Hex":"#3366ff99","Correct":32,"Choice":32,"RT":469.24000000581145,"Accuracy":1,"Outcome":"+10","Keys":[1970.2149999939138],"TotalKeys":1,"Block":1,"Trial":82,"Robot":1,"Valence":"Win","Action":"Go","Sham":0,"Color":"blue","trial_type":"pit-trial","trial_index":99,"time_elapsed":697911,"internal_node_id":"0.0-88.0","task_version":"test-retest-t2"},{"Rune":"rune_04_ac","Hex":"#ffcc3399","Correct":32,"Choice":32,"RT":578.9850000001024,"Accuracy":1,"Outcome":"-1","Keys":[2080.0599999929545],"TotalKeys":1,"Block":1,"Trial":83,"Robot":3,"Valence":"Lose","Action":"Go","Sham":0,"Color":"yellow","trial_type":"pit-trial","trial_index":100,"time_elapsed":700999,"internal_node_id":"0.0-89.0","task_version":"test-retest-t2"},{"Rune":"rune_04_wunjo","Hex":"#3366ff99","Correct":-1,"Choice":-1,"RT":-1,"Accuracy":1,"Outcome":"+10","Keys":[],"TotalKeys":0,"Block":1,"Trial":84,"Robot":2,"Valence":"Win","Action":"No-Go","Sham":0,"Color":"blue","trial_type":"pit-trial","trial_index":101,"time_elapsed":705009,"internal_node_id":"0.0-90.0","task_version":"test-retest-t2"},{"Rune":"rune_04_wunjo","Hex":"#3366ff99","Correct":-1,"Choice":-1,"RT":-1,"Accuracy":1,"Outcome":"+1","Keys":[],"TotalKeys":0,"Block":1,"Trial":85,"Robot":2,"Valence":"Win","Action":"No-Go","Sham":1,"Color":"blue","trial_type":"pit-trial","trial_index":102,"time_elapsed":709018,"internal_node_id":"0.0-91.0","task_version":"test-retest-t2"},{"Rune":"rune_04_dagaz","Hex":"#3366ff99","Correct":32,"Choice":32,"RT":436.5000000107102,"Accuracy":1,"Outcome":"+10","Keys":[1939.6750000014435],"TotalKeys":1,"Block":1,"Trial":86,"Robot":1,"Valence":"Win","Action":"Go","Sham":0,"Color":"blue","trial_type":"pit-trial","trial_index":103,"time_elapsed":711965,"internal_node_id":"0.0-92.0","task_version":"test-retest-t2"},{"Rune":"rune_04_ac","Hex":"#ffcc3399","Correct":32,"Choice":32,"RT":544.0400000079535,"Accuracy":1,"Outcome":"-10","Keys":[2051.145000004908],"TotalKeys":1,"Block":1,"Trial":87,"Robot":3,"Valence":"Lose","Action":"Go","Sham":1,"Color":"yellow","trial_type":"pit-trial","trial_index":104,"time_elapsed":715024,"internal_node_id":"0.0-93.0","task_version":"test-retest-t2"},{"Rune":"rune_04_iwaz","Hex":"#ffcc3399","Correct":-1,"Choice":-1,"RT":-1,"Accuracy":1,"Outcome":"-1","Keys":[],"TotalKeys":0,"Block":1,"Trial":88,"Robot":4,"Valence":"Lose","Action":"No-Go","Sham":0,"Color":"yellow","trial_type":"pit-trial","trial_index":105,"time_elapsed":719031,"internal_node_id":"0.0-94.0","task_version":"test-retest-t2"},{"Rune":"rune_04_iwaz","Hex":"#ffcc3399","Correct":-1,"Choice":-1,"RT":-1,"Accuracy":1,"Outcome":"-1","Keys":[],"TotalKeys":0,"Block":1,"Trial":89,"Robot":4,"Valence":"Lose","Action":"No-Go","Sham":0,"Color":"yellow","trial_type":"pit-trial","trial_index":106,"time_elapsed":723046,"internal_node_id":"0.0-95.0","task_version":"test-retest-t2"},{"Rune":"rune_04_dagaz","Hex":"#3366ff99","Correct":32,"Choice":32,"RT":365.6099999934668,"Accuracy":1,"Outcome":"+10","Keys":[1867.1500000054948],"TotalKeys":1,"Block":1,"Trial":90,"Robot":1,"Valence":"Win","Action":"Go","Sham":0,"Color":"blue","trial_type":"pit-trial","trial_index":107,"time_elapsed":725922,"internal_node_id":"0.0-96.0","task_version":"test-retest-t2"},{"Rune":"rune_04_ac","Hex":"#ffcc3399","Correct":32,"Choice":32,"RT":458.11500000127126,"Accuracy":1,"Outcome":"-1","Keys":[1959.999999991851],"TotalKeys":1,"Block":1,"Trial":91,"Robot":3,"Valence":"Lose","Action":"Go","Sham":0,"Color":"yellow","trial_type":"pit-trial","trial_index":108,"time_elapsed":728891,"internal_node_id":"0.0-97.0","task_version":"test-retest-t2"},{"Rune":"rune_04_wunjo","Hex":"#3366ff99","Correct":-1,"Choice":-1,"RT":-1,"Accuracy":1,"Outcome":"+10","Keys":[],"TotalKeys":0,"Block":1,"Trial":92,"Robot":2,"Valence":"Win","Action":"No-Go","Sham":0,"Color":"blue","trial_type":"pit-trial","trial_index":109,"time_elapsed":732901,"internal_node_id":"0.0-98.0","task_version":"test-retest-t2"},{"Rune":"rune_04_iwaz","Hex":"#ffcc3399","Correct":-1,"Choice":-1,"RT":-1,"Accuracy":1,"Outcome":"-10","Keys":[],"TotalKeys":0,"Block":1,"Trial":93,"Robot":4,"Valence":"Lose","Action":"No-Go","Sham":1,"Color":"yellow","trial_type":"pit-trial","trial_index":110,"time_elapsed":736916,"internal_node_id":"0.0-99.0","task_version":"test-retest-t2"},{"Rune":"rune_04_wunjo","Hex":"#3366ff99","Correct":-1,"Choice":-1,"RT":-1,"Accuracy":1,"Outcome":"+10","Keys":[],"TotalKeys":0,"Block":1,"Trial":94,"Robot":2,"Valence":"Win","Action":"No-Go","Sham":0,"Color":"blue","trial_type":"pit-trial","trial_index":111,"time_elapsed":740928,"internal_node_id":"0.0-100.0","task_version":"test-retest-t2"},{"Rune":"rune_04_dagaz","Hex":"#3366ff99","Correct":32,"Choice":32,"RT":423.8150000019232,"Accuracy":1,"Outcome":"+10","Keys":[1924.4350000080885],"TotalKeys":1,"Block":1,"Trial":95,"Robot":1,"Valence":"Win","Action":"Go","Sham":0,"Color":"blue","trial_type":"pit-trial","trial_index":112,"time_elapsed":743862,"internal_node_id":"0.0-101.0","task_version":"test-retest-t2"},{"Rune":"rune_04_ac","Hex":"#ffcc3399","Correct":32,"Choice":32,"RT":489.73499999556225,"Accuracy":1,"Outcome":"-1","Keys":[1992.6500000001397],"TotalKeys":1,"Block":1,"Trial":96,"Robot":3,"Valence":"Lose","Action":"Go","Sham":0,"Color":"yellow","trial_type":"pit-trial","trial_index":113,"time_elapsed":746864,"internal_node_id":"0.0-102.0","task_version":"test-retest-t2"},{"Rune":"rune_04_dagaz","Hex":"#3366ff99","Correct":32,"Choice":32,"RT":423.68000000715256,"Accuracy":1,"Outcome":"+1","Keys":[1923.7799999973504],"TotalKeys":1,"Block":1,"Trial":97,"Robot":1,"Valence":"Win","Action":"Go","Sham":1,"Color":"blue","trial_type":"pit-trial","trial_index":114,"time_elapsed":749794,"internal_node_id":"0.0-103.0","task_version":"test-retest-t2"},{"Rune":"rune_04_ac","Hex":"#ffcc3399","Correct":32,"Choice":32,"RT":588.6449999961769,"Accuracy":1,"Outcome":"-1","Keys":[2089.1150000097696],"TotalKeys":1,"Block":1,"Trial":98,"Robot":3,"Valence":"Lose","Action":"Go","Sham":0,"Color":"yellow","trial_type":"pit-trial","trial_index":115,"time_elapsed":752892,"internal_node_id":"0.0-104.0","task_version":"test-retest-t2"},{"Rune":"rune_04_wunjo","Hex":"#3366ff99","Correct":-1,"Choice":-1,"RT":-1,"Accuracy":1,"Outcome":"+10","Keys":[],"TotalKeys":0,"Block":1,"Trial":99,"Robot":2,"Valence":"Win","Action":"No-Go","Sham":0,"Color":"blue","trial_type":"pit-trial","trial_index":116,"time_elapsed":756906,"internal_node_id":"0.0-105.0","task_version":"test-retest-t2"},{"Rune":"rune_04_iwaz","Hex":"#ffcc3399","Correct":-1,"Choice":-1,"RT":-1,"Accuracy":1,"Outcome":"-1","Keys":[],"TotalKeys":0,"Block":1,"Trial":100,"Robot":4,"Valence":"Lose","Action":"No-Go","Sham":0,"Color":"yellow","trial_type":"pit-trial","trial_index":117,"time_elapsed":760917,"internal_node_id":"0.0-106.0","task_version":"test-retest-t2"},{"Rune":"rune_04_wunjo","Hex":"#3366ff99","Correct":-1,"Choice":-1,"RT":-1,"Accuracy":1,"Outcome":"+10","Keys":[],"TotalKeys":0,"Block":1,"Trial":101,"Robot":2,"Valence":"Win","Action":"No-Go","Sham":0,"Color":"blue","trial_type":"pit-trial","trial_index":118,"time_elapsed":764926,"internal_node_id":"0.0-107.0","task_version":"test-retest-t2"},{"Rune":"rune_04_iwaz","Hex":"#ffcc3399","Correct":-1,"Choice":-1,"RT":-1,"Accuracy":1,"Outcome":"-1","Keys":[],"TotalKeys":0,"Block":1,"Trial":102,"Robot":4,"Valence":"Lose","Action":"No-Go","Sham":0,"Color":"yellow","trial_type":"pit-trial","trial_index":119,"time_elapsed":768940,"internal_node_id":"0.0-108.0","task_version":"test-retest-t2"},{"Rune":"rune_04_dagaz","Hex":"#3366ff99","Correct":32,"Choice":32,"RT":370.0799999933224,"Accuracy":1,"Outcome":"+10","Keys":[1870.7700000086334],"TotalKeys":1,"Block":1,"Trial":103,"Robot":1,"Valence":"Win","Action":"Go","Sham":0,"Color":"blue","trial_type":"pit-trial","trial_index":120,"time_elapsed":771822,"internal_node_id":"0.0-109.0","task_version":"test-retest-t2"},{"Rune":"rune_04_ac","Hex":"#ffcc3399","Correct":32,"Choice":32,"RT":496.4050000126008,"Accuracy":1,"Outcome":"-10","Keys":[1996.7449999967357],"TotalKeys":1,"Block":1,"Trial":104,"Robot":3,"Valence":"Lose","Action":"Go","Sham":1,"Color":"yellow","trial_type":"pit-trial","trial_index":121,"time_elapsed":774828,"internal_node_id":"0.0-110.0","task_version":"test-retest-t2"},{"Rune":"rune_04_wunjo","Hex":"#3366ff99","Correct":-1,"Choice":-1,"RT":-1,"Accuracy":1,"Outcome":"+10","Keys":[],"TotalKeys":0,"Block":1,"Trial":105,"Robot":2,"Valence":"Win","Action":"No-Go","Sham":0,"Color":"blue","trial_type":"pit-trial","trial_index":122,"time_elapsed":778841,"internal_node_id":"0.0-111.0","task_version":"test-retest-t2"},{"Rune":"rune_04_ac","Hex":"#ffcc3399","Correct":32,"Choice":32,"RT":503.7600000068778,"Accuracy":1,"Outcome":"-1","Keys":[2005.6149999873014],"TotalKeys":1,"Block":1,"Trial":106,"Robot":3,"Valence":"Lose","Action":"Go","Sham":0,"Color":"yellow","trial_type":"pit-trial","trial_index":123,"time_elapsed":781855,"internal_node_id":"0.0-112.0","task_version":"test-retest-t2"},{"Rune":"rune_04_dagaz","Hex":"#3366ff99","Correct":32,"Choice":32,"RT":390.29999999911524,"Accuracy":1,"Outcome":"+10","Keys":[1890.8949999895412],"TotalKeys":1,"Block":1,"Trial":107,"Robot":1,"Valence":"Win","Action":"Go","Sham":0,"Color":"blue","trial_type":"pit-trial","trial_index":124,"time_elapsed":784757,"internal_node_id":"0.0-113.0","task_version":"test-retest-t2"},{"Rune":"rune_04_iwaz","Hex":"#ffcc3399","Correct":-1,"Choice":-1,"RT":-1,"Accuracy":1,"Outcome":"-1","Keys":[],"TotalKeys":0,"Block":1,"Trial":108,"Robot":4,"Valence":"Lose","Action":"No-Go","Sham":0,"Color":"yellow","trial_type":"pit-trial","trial_index":125,"time_elapsed":788766,"internal_node_id":"0.0-114.0","task_version":"test-retest-t2"},{"Rune":"rune_04_wunjo","Hex":"#3366ff99","Correct":-1,"Choice":-1,"RT":-1,"Accuracy":1,"Outcome":"+1","Keys":[],"TotalKeys":0,"Block":1,"Trial":109,"Robot":2,"Valence":"Win","Action":"No-Go","Sham":1,"Color":"blue","trial_type":"pit-trial","trial_index":126,"time_elapsed":792776,"internal_node_id":"0.0-115.0","task_version":"test-retest-t2"},{"Rune":"rune_04_dagaz","Hex":"#3366ff99","Correct":32,"Choice":32,"RT":374.3300000060117,"Accuracy":1,"Outcome":"+10","Keys":[1875.1500000071246],"TotalKeys":1,"Block":1,"Trial":110,"Robot":1,"Valence":"Win","Action":"Go","Sham":0,"Color":"blue","trial_type":"pit-trial","trial_index":127,"time_elapsed":795660,"internal_node_id":"0.0-116.0","task_version":"test-retest-t2"},{"Rune":"rune_04_iwaz","Hex":"#ffcc3399","Correct":-1,"Choice":-1,"RT":-1,"Accuracy":1,"Outcome":"-1","Keys":[],"TotalKeys":0,"Block":1,"Trial":111,"Robot":4,"Valence":"Lose","Action":"No-Go","Sham":0,"Color":"yellow","trial_type":"pit-trial","trial_index":128,"time_elapsed":799672,"internal_node_id":"0.0-117.0","task_version":"test-retest-t2"},{"Rune":"rune_04_ac","Hex":"#ffcc3399","Correct":32,"Choice":32,"RT":454.4649999879766,"Accuracy":1,"Outcome":"-1","Keys":[1955.6400000001304],"TotalKeys":1,"Block":1,"Trial":112,"Robot":3,"Valence":"Lose","Action":"Go","Sham":0,"Color":"yellow","trial_type":"pit-trial","trial_index":129,"time_elapsed":802637,"internal_node_id":"0.0-118.0","task_version":"test-retest-t2"},{"Rune":"rune_04_iwaz","Hex":"#ffcc3399","Correct":-1,"Choice":-1,"RT":-1,"Accuracy":1,"Outcome":"-1","Keys":[],"TotalKeys":0,"Block":1,"Trial":113,"Robot":4,"Valence":"Lose","Action":"No-Go","Sham":0,"Color":"yellow","trial_type":"pit-trial","trial_index":130,"time_elapsed":806647,"internal_node_id":"0.0-119.0","task_version":"test-retest-t2"},{"Rune":"rune_04_dagaz","Hex":"#3366ff99","Correct":32,"Choice":32,"RT":324.6450000006007,"Accuracy":1,"Outcome":"+10","Keys":[1827.9100000072503],"TotalKeys":1,"Block":1,"Trial":114,"Robot":1,"Valence":"Win","Action":"Go","Sham":0,"Color":"blue","trial_type":"pit-trial","trial_index":131,"time_elapsed":809480,"internal_node_id":"0.0-120.0","task_version":"test-retest-t2"},{"Rune":"rune_04_ac","Hex":"#ffcc3399","Correct":32,"Choice":32,"RT":441.2949999968987,"Accuracy":1,"Outcome":"-1","Keys":[1943.0200000060722],"TotalKeys":1,"Block":1,"Trial":115,"Robot":3,"Valence":"Lose","Action":"Go","Sham":0,"Color":"yellow","trial_type":"pit-trial","trial_index":132,"time_elapsed":812439,"internal_node_id":"0.0-121.0","task_version":"test-retest-t2"},{"Rune":"rune_04_wunjo","Hex":"#3366ff99","Correct":-1,"Choice":-1,"RT":-1,"Accuracy":1,"Outcome":"+10","Keys":[],"TotalKeys":0,"Block":1,"Trial":116,"Robot":2,"Valence":"Win","Action":"No-Go","Sham":0,"Color":"blue","trial_type":"pit-trial","trial_index":133,"time_elapsed":816448,"internal_node_id":"0.0-122.0","task_version":"test-retest-t2"},{"Rune":"rune_04_ac","Hex":"#ffcc3399","Correct":32,"Choice":32,"RT":447.39499999559484,"Accuracy":1,"Outcome":"-1","Keys":[1948.8350000028731],"TotalKeys":1,"Block":1,"Trial":117,"Robot":3,"Valence":"Lose","Action":"Go","Sham":0,"Color":"yellow","trial_type":"pit-trial","trial_index":134,"time_elapsed":819411,"internal_node_id":"0.0-123.0","task_version":"test-retest-t2"},{"Rune":"rune_04_dagaz","Hex":"#3366ff99","Correct":32,"Choice":32,"RT":414.4300000043586,"Accuracy":1,"Outcome":"+1","Keys":[1916.5550000034273],"TotalKeys":1,"Block":1,"Trial":118,"Robot":1,"Valence":"Win","Action":"Go","Sham":1,"Color":"blue","trial_type":"pit-trial","trial_index":135,"time_elapsed":822339,"internal_node_id":"0.0-124.0","task_version":"test-retest-t2"},{"Rune":"rune_04_wunjo","Hex":"#3366ff99","Correct":-1,"Choice":-1,"RT":-1,"Accuracy":1,"Outcome":"+10","Keys":[],"TotalKeys":0,"Block":1,"Trial":119,"Robot":2,"Valence":"Win","Action":"No-Go","Sham":0,"Color":"blue","trial_type":"pit-trial","trial_index":136,"time_elapsed":826351,"internal_node_id":"0.0-125.0","task_version":"test-retest-t2"},{"Rune":"rune_04_iwaz","Hex":"#ffcc3399","Correct":-1,"Choice":-1,"RT":-1,"Accuracy":1,"Outcome":"-10","Keys":[],"TotalKeys":0,"Block":1,"Trial":120,"Robot":4,"Valence":"Lose","Action":"No-Go","Sham":1,"Color":"yellow","trial_type":"pit-trial","trial_index":137,"time_elapsed":830362,"internal_node_id":"0.0-126.0","task_version":"test-retest-t2"},{"view_history":"[{\"page_index\":0,\"viewing_time\":2434.255000000121},{\"page_index\":1,\"viewing_time\":966.7150000022957},{\"page_index\":2,\"viewing_time\":7490.234999990207}]","rt":10892.485000003944,"trial_type":"pit-instructions","trial_index":138,"time_elapsed":841263,"internal_node_id":"0.0-127.0","task_version":"test-retest-t2"},{"Rune":"rune_03_othalan","Hex":"#ffcc3399","Correct":-1,"Choice":32,"RT":641.9150000001537,"Accuracy":0,"Outcome":"-1","Keys":[2142.2200000088196],"TotalKeys":1,"Block":2,"Trial":121,"Robot":4,"Valence":"Lose","Action":"No-Go","Sham":1,"Color":"yellow","trial_type":"pit-trial","trial_index":139,"time_elapsed":844441,"internal_node_id":"0.0-128.0","task_version":"test-retest-t2"},{"Rune":"rune_03_uruz","Hex":"#3366ff99","Correct":32,"Choice":32,"RT":765.1199999963865,"Accuracy":1,"Outcome":"+10","Keys":[2269.220000001951],"TotalKeys":1,"Block":2,"Trial":122,"Robot":1,"Valence":"Win","Action":"Go","Sham":0,"Color":"blue","trial_type":"pit-trial","trial_index":140,"time_elapsed":847722,"internal_node_id":"0.0-129.0","task_version":"test-retest-t2"},{"Rune":"rune_03_naudiz","Hex":"#3366ff99","Correct":-1,"Choice":-1,"RT":-1,"Accuracy":1,"Outcome":"+1","Keys":[],"TotalKeys":0,"Block":2,"Trial":123,"Robot":2,"Valence":"Win","Action":"No-Go","Sham":1,"Color":"blue","trial_type":"pit-trial","trial_index":141,"time_elapsed":851728,"internal_node_id":"0.0-130.0","task_version":"test-retest-t2"},{"Rune":"rune_03_algiz","Hex":"#ffcc3399","Correct":32,"Choice":32,"RT":554.7850000002654,"Accuracy":1,"Outcome":"-10","Keys":[2055.9550000034506],"TotalKeys":1,"Block":2,"Trial":124,"Robot":3,"Valence":"Lose","Action":"Go","Sham":1,"Color":"yellow","trial_type":"pit-trial","trial_index":142,"time_elapsed":854801,"internal_node_id":"0.0-131.0","task_version":"test-retest-t2"},{"Rune":"rune_03_naudiz","Hex":"#3366ff99","Correct":-1,"Choice":32,"RT":954.8550000035902,"Accuracy":0,"Outcome":"+1","Keys":[2455.144999999902],"TotalKeys":1,"Block":2,"Trial":125,"Robot":2,"Valence":"Win","Action":"No-Go","Sham":0,"Color":"blue","trial_type":"pit-trial","trial_index":143,"time_elapsed":858269,"internal_node_id":"0.0-132.0","task_version":"test-retest-t2"},{"Rune":"rune_03_algiz","Hex":"#ffcc3399","Correct":32,"Choice":-1,"RT":-1,"Accuracy":0,"Outcome":"-10","Keys":[],"TotalKeys":0,"Block":2,"Trial":126,"Robot":3,"Valence":"Lose","Action":"Go","Sham":0,"Color":"yellow","trial_type":"pit-trial","trial_index":144,"time_elapsed":862278,"internal_node_id":"0.0-133.0","task_version":"test-retest-t2"},{"Rune":"rune_03_othalan","Hex":"#ffcc3399","Correct":-1,"Choice":32,"RT":556.6450000042096,"Accuracy":0,"Outcome":"-10","Keys":[2062.0550000021467],"TotalKeys":1,"Block":2,"Trial":127,"Robot":4,"Valence":"Lose","Action":"No-Go","Sham":0,"Color":"yellow","trial_type":"pit-trial","trial_index":145,"time_elapsed":865351,"internal_node_id":"0.0-134.0","task_version":"test-retest-t2"},{"Rune":"rune_03_uruz","Hex":"#3366ff99","Correct":32,"Choice":32,"RT":528.039999990142,"Accuracy":1,"Outcome":"+10","Keys":[2028.7950000056298],"TotalKeys":1,"Block":2,"Trial":128,"Robot":1,"Valence":"Win","Action":"Go","Sham":0,"Color":"blue","trial_type":"pit-trial","trial_index":146,"time_elapsed":868390,"internal_node_id":"0.0-135.0","task_version":"test-retest-t2"},{"Rune":"rune_03_othalan","Hex":"#ffcc3399","Correct":-1,"Choice":32,"RT":645.3150000015739,"Accuracy":0,"Outcome":"-10","Keys":[2145.455000005313],"TotalKeys":1,"Block":2,"Trial":129,"Robot":4,"Valence":"Lose","Action":"No-Go","Sham":0,"Color":"yellow","trial_type":"pit-trial","trial_index":147,"time_elapsed":871543,"internal_node_id":"0.0-136.0","task_version":"test-retest-t2"},{"Rune":"rune_03_naudiz","Hex":"#3366ff99","Correct":-1,"Choice":32,"RT":742.8149999905145,"Accuracy":0,"Outcome":"+1","Keys":[2243.1050000013784],"TotalKeys":1,"Block":2,"Trial":130,"Robot":2,"Valence":"Win","Action":"No-Go","Sham":0,"Color":"blue","trial_type":"pit-trial","trial_index":148,"time_elapsed":874802,"internal_node_id":"0.0-137.0","task_version":"test-retest-t2"},{"Rune":"rune_03_algiz","Hex":"#ffcc3399","Correct":32,"Choice":32,"RT":1132.530000002589,"Accuracy":1,"Outcome":"-1","Keys":[2633.7800000037532],"TotalKeys":1,"Block":2,"Trial":131,"Robot":3,"Valence":"Lose","Action":"Go","Sham":0,"Color":"yellow","trial_type":"pit-trial","trial_index":149,"time_elapsed":878446,"internal_node_id":"0.0-138.0","task_version":"test-retest-t2"},{"Rune":"rune_03_uruz","Hex":"#3366ff99","Correct":32,"Choice":32,"RT":586.1149999982445,"Accuracy":1,"Outcome":"+10","Keys":[2088.9200000092387],"TotalKeys":1,"Block":2,"Trial":132,"Robot":1,"Valence":"Win","Action":"Go","Sham":0,"Color":"blue","trial_type":"pit-trial","trial_index":150,"time_elapsed":881552,"internal_node_id":"0.0-139.0","task_version":"test-retest-t2"},{"Rune":"rune_03_naudiz","Hex":"#3366ff99","Correct":-1,"Choice":-1,"RT":-1,"Accuracy":1,"Outcome":"+10","Keys":[],"TotalKeys":0,"Block":2,"Trial":133,"Robot":2,"Valence":"Win","Action":"No-Go","Sham":0,"Color":"blue","trial_type":"pit-trial","trial_index":151,"time_elapsed":885568,"internal_node_id":"0.0-140.0","task_version":"test-retest-t2"},{"Rune":"rune_03_othalan","Hex":"#ffcc3399","Correct":-1,"Choice":-1,"RT":-1,"Accuracy":1,"Outcome":"-1","Keys":[],"TotalKeys":0,"Block":2,"Trial":134,"Robot":4,"Valence":"Lose","Action":"No-Go","Sham":0,"Color":"yellow","trial_type":"pit-trial","trial_index":152,"time_elapsed":889578,"internal_node_id":"0.0-141.0","task_version":"test-retest-t2"},{"Rune":"rune_03_algiz","Hex":"#ffcc3399","Correct":32,"Choice":32,"RT":862.7299999934621,"Accuracy":1,"Outcome":"-1","Keys":[2364.255000007688],"TotalKeys":1,"Block":2,"Trial":135,"Robot":3,"Valence":"Lose","Action":"Go","Sham":0,"Color":"yellow","trial_type":"pit-trial","trial_index":153,"time_elapsed":892954,"internal_node_id":"0.0-142.0","task_version":"test-retest-t2"},{"Rune":"rune_03_uruz","Hex":"#3366ff99","Correct":32,"Choice":32,"RT":389.40499999444,"Accuracy":1,"Outcome":"+1","Keys":[1889.9899999960326],"TotalKeys":1,"Block":2,"Trial":136,"Robot":1,"Valence":"Win","Action":"Go","Sham":1,"Color":"blue","trial_type":"pit-trial","trial_index":154,"time_elapsed":895851,"internal_node_id":"0.0-143.0","task_version":"test-retest-t2"},{"Rune":"rune_03_othalan","Hex":"#ffcc3399","Correct":-1,"Choice":-1,"RT":-1,"Accuracy":1,"Outcome":"-1","Keys":[],"TotalKeys":0,"Block":2,"Trial":137,"Robot":4,"Valence":"Lose","Action":"No-Go","Sham":0,"Color":"yellow","trial_type":"pit-trial","trial_index":155,"time_elapsed":899858,"internal_node_id":"0.0-144.0","task_version":"test-retest-t2"},{"Rune":"rune_03_uruz","Hex":"#3366ff99","Correct":32,"Choice":32,"RT":550.1550000044517,"Accuracy":1,"Outcome":"+10","Keys":[2051.4899999980116],"TotalKeys":1,"Block":2,"Trial":138,"Robot":1,"Valence":"Win","Action":"Go","Sham":0,"Color":"blue","trial_type":"pit-trial","trial_index":156,"time_elapsed":902921,"internal_node_id":"0.0-145.0","task_version":"test-retest-t2"},{"Rune":"rune_03_naudiz","Hex":"#3366ff99","Correct":-1,"Choice":-1,"RT":-1,"Accuracy":1,"Outcome":"+10","Keys":[],"TotalKeys":0,"Block":2,"Trial":139,"Robot":2,"Valence":"Win","Action":"No-Go","Sham":0,"Color":"blue","trial_type":"pit-trial","trial_index":157,"time_elapsed":906932,"internal_node_id":"0.0-146.0","task_version":"test-retest-t2"},{"Rune":"rune_03_algiz","Hex":"#ffcc3399","Correct":32,"Choice":32,"RT":463.37499999208376,"Accuracy":1,"Outcome":"-1","Keys":[1964.2249999888008],"TotalKeys":1,"Block":2,"Trial":140,"Robot":3,"Valence":"Lose","Action":"Go","Sham":0,"Color":"yellow","trial_type":"pit-trial","trial_index":158,"time_elapsed":909905,"internal_node_id":"0.0-147.0","task_version":"test-retest-t2"},{"Rune":"rune_03_naudiz","Hex":"#3366ff99","Correct":-1,"Choice":-1,"RT":-1,"Accuracy":1,"Outcome":"+10","Keys":[],"TotalKeys":0,"Block":2,"Trial":141,"Robot":2,"Valence":"Win","Action":"No-Go","Sham":0,"Color":"blue","trial_type":"pit-trial","trial_index":159,"time_elapsed":913920,"internal_node_id":"0.0-148.0","task_version":"test-retest-t2"},{"Rune":"rune_03_algiz","Hex":"#ffcc3399","Correct":32,"Choice":32,"RT":421.0199999943143,"Accuracy":1,"Outcome":"-1","Keys":[1922.7499999979045],"TotalKeys":1,"Block":2,"Trial":142,"Robot":3,"Valence":"Lose","Action":"Go","Sham":0,"Color":"yellow","trial_type":"pit-trial","trial_index":160,"time_elapsed":916852,"internal_node_id":"0.0-149.0","task_version":"test-retest-t2"},{"Rune":"rune_03_uruz","Hex":"#3366ff99","Correct":32,"Choice":32,"RT":400.96499999344815,"Accuracy":1,"Outcome":"+1","Keys":[1902.5750000000698],"TotalKeys":1,"Block":2,"Trial":143,"Robot":1,"Valence":"Win","Action":"Go","Sham":1,"Color":"blue","trial_type":"pit-trial","trial_index":161,"time_elapsed":919767,"internal_node_id":"0.0-150.0","task_version":"test-retest-t2"},{"Rune":"rune_03_othalan","Hex":"#ffcc3399","Correct":-1,"Choice":-1,"RT":-1,"Accuracy":1,"Outcome":"-1","Keys":[],"TotalKeys":0,"Block":2,"Trial":144,"Robot":4,"Valence":"Lose","Action":"No-Go","Sham":0,"Color":"yellow","trial_type":"pit-trial","trial_index":162,"time_elapsed":923776,"internal_node_id":"0.0-151.0","task_version":"test-retest-t2"},{"Rune":"rune_03_uruz","Hex":"#3366ff99","Correct":32,"Choice":32,"RT":486.1300000047777,"Accuracy":1,"Outcome":"+10","Keys":[1986.7099999974016],"TotalKeys":1,"Block":2,"Trial":145,"Robot":1,"Valence":"Win","Action":"Go","Sham":0,"Color":"blue","trial_type":"pit-trial","trial_index":163,"time_elapsed":926772,"internal_node_id":"0.0-152.0","task_version":"test-retest-t2"},{"Rune":"rune_03_naudiz","Hex":"#3366ff99","Correct":-1,"Choice":-1,"RT":-1,"Accuracy":1,"Outcome":"+10","Keys":[],"TotalKeys":0,"Block":2,"Trial":146,"Robot":2,"Valence":"Win","Action":"No-Go","Sham":0,"Color":"blue","trial_type":"pit-trial","trial_index":164,"time_elapsed":930792,"internal_node_id":"0.0-153.0","task_version":"test-retest-t2"},{"Rune":"rune_03_othalan","Hex":"#ffcc3399","Correct":-1,"Choice":-1,"RT":-1,"Accuracy":1,"Outcome":"-1","Keys":[],"TotalKeys":0,"Block":2,"Trial":147,"Robot":4,"Valence":"Lose","Action":"No-Go","Sham":0,"Color":"yellow","trial_type":"pit-trial","trial_index":165,"time_elapsed":934807,"internal_node_id":"0.0-154.0","task_version":"test-retest-t2"},{"Rune":"rune_03_algiz","Hex":"#ffcc3399","Correct":32,"Choice":32,"RT":396.7300000076648,"Accuracy":1,"Outcome":"-1","Keys":[1899.554999996326],"TotalKeys":1,"Block":2,"Trial":148,"Robot":3,"Valence":"Lose","Action":"Go","Sham":0,"Color":"yellow","trial_type":"pit-trial","trial_index":166,"time_elapsed":937720,"internal_node_id":"0.0-155.0","task_version":"test-retest-t2"},{"Rune":"rune_03_algiz","Hex":"#ffcc3399","Correct":32,"Choice":32,"RT":483.299999992596,"Accuracy":1,"Outcome":"-10","Keys":[1983.795000007376],"TotalKeys":1,"Block":2,"Trial":149,"Robot":3,"Valence":"Lose","Action":"Go","Sham":1,"Color":"yellow","trial_type":"pit-trial","trial_index":167,"time_elapsed":940712,"internal_node_id":"0.0-156.0","task_version":"test-retest-t2"},{"Rune":"rune_03_othalan","Hex":"#ffcc3399","Correct":-1,"Choice":-1,"RT":-1,"Accuracy":1,"Outcome":"-1","Keys":[],"TotalKeys":0,"Block":2,"Trial":150,"Robot":4,"Valence":"Lose","Action":"No-Go","Sham":0,"Color":"yellow","trial_type":"pit-trial","trial_index":168,"time_elapsed":944720,"internal_node_id":"0.0-157.0","task_version":"test-retest-t2"},{"Rune":"rune_03_naudiz","Hex":"#3366ff99","Correct":-1,"Choice":-1,"RT":-1,"Accuracy":1,"Outcome":"+1","Keys":[],"TotalKeys":0,"Block":2,"Trial":151,"Robot":2,"Valence":"Win","Action":"No-Go","Sham":1,"Color":"blue","trial_type":"pit-trial","trial_index":169,"time_elapsed":948732,"internal_node_id":"0.0-158.0","task_version":"test-retest-t2"},{"Rune":"rune_03_uruz","Hex":"#3366ff99","Correct":32,"Choice":32,"RT":310.6100000004517,"Accuracy":1,"Outcome":"+10","Keys":[1812.1549999923445],"TotalKeys":1,"Block":2,"Trial":152,"Robot":1,"Valence":"Win","Action":"Go","Sham":0,"Color":"blue","trial_type":"pit-trial","trial_index":170,"time_elapsed":951553,"internal_node_id":"0.0-159.0","task_version":"test-retest-t2"},{"Rune":"rune_03_othalan","Hex":"#ffcc3399","Correct":-1,"Choice":-1,"RT":-1,"Accuracy":1,"Outcome":"-1","Keys":[],"TotalKeys":0,"Block":2,"Trial":153,"Robot":4,"Valence":"Lose","Action":"No-Go","Sham":0,"Color":"yellow","trial_type":"pit-trial","trial_index":171,"time_elapsed":955566,"internal_node_id":"0.0-160.0","task_version":"test-retest-t2"},{"Rune":"rune_03_uruz","Hex":"#3366ff99","Correct":32,"Choice":32,"RT":318.2200000010198,"Accuracy":1,"Outcome":"+10","Keys":[1819.294999993872],"TotalKeys":1,"Block":2,"Trial":154,"Robot":1,"Valence":"Win","Action":"Go","Sham":0,"Color":"blue","trial_type":"pit-trial","trial_index":172,"time_elapsed":958398,"internal_node_id":"0.0-161.0","task_version":"test-retest-t2"},{"Rune":"rune_03_naudiz","Hex":"#3366ff99","Correct":-1,"Choice":-1,"RT":-1,"Accuracy":1,"Outcome":"+10","Keys":[],"TotalKeys":0,"Block":2,"Trial":155,"Robot":2,"Valence":"Win","Action":"No-Go","Sham":0,"Color":"blue","trial_type":"pit-trial","trial_index":173,"time_elapsed":962407,"internal_node_id":"0.0-162.0","task_version":"test-retest-t2"},{"Rune":"rune_03_algiz","Hex":"#ffcc3399","Correct":32,"Choice":32,"RT":358.41999998956453,"Accuracy":1,"Outcome":"-1","Keys":[1860.465000005206],"TotalKeys":1,"Block":2,"Trial":156,"Robot":3,"Valence":"Lose","Action":"Go","Sham":0,"Color":"yellow","trial_type":"pit-trial","trial_index":174,"time_elapsed":965280,"internal_node_id":"0.0-163.0","task_version":"test-retest-t2"},{"Rune":"rune_03_uruz","Hex":"#3366ff99","Correct":32,"Choice":32,"RT":330.30000000144355,"Accuracy":1,"Outcome":"+10","Keys":[1832.089999996242],"TotalKeys":1,"Block":2,"Trial":157,"Robot":1,"Valence":"Win","Action":"Go","Sham":0,"Color":"blue","trial_type":"pit-trial","trial_index":175,"time_elapsed":968121,"internal_node_id":"0.0-164.0","task_version":"test-retest-t2"},{"Rune":"rune_03_othalan","Hex":"#ffcc3399","Correct":-1,"Choice":-1,"RT":-1,"Accuracy":1,"Outcome":"-10","Keys":[],"TotalKeys":0,"Block":2,"Trial":158,"Robot":4,"Valence":"Lose","Action":"No-Go","Sham":1,"Color":"yellow","trial_type":"pit-trial","trial_index":176,"time_elapsed":972139,"internal_node_id":"0.0-165.0","task_version":"test-retest-t2"},{"Rune":"rune_03_naudiz","Hex":"#3366ff99","Correct":-1,"Choice":-1,"RT":-1,"Accuracy":1,"Outcome":"+10","Keys":[],"TotalKeys":0,"Block":2,"Trial":159,"Robot":2,"Valence":"Win","Action":"No-Go","Sham":0,"Color":"blue","trial_type":"pit-trial","trial_index":177,"time_elapsed":976156,"internal_node_id":"0.0-166.0","task_version":"test-retest-t2"},{"Rune":"rune_03_algiz","Hex":"#ffcc3399","Correct":32,"Choice":32,"RT":414.4949999899836,"Accuracy":1,"Outcome":"-1","Keys":[1915.6800000055227],"TotalKeys":1,"Block":2,"Trial":160,"Robot":3,"Valence":"Lose","Action":"Go","Sham":0,"Color":"yellow","trial_type":"pit-trial","trial_index":178,"time_elapsed":979085,"internal_node_id":"0.0-167.0","task_version":"test-retest-t2"},{"Rune":"rune_03_othalan","Hex":"#ffcc3399","Correct":-1,"Choice":-1,"RT":-1,"Accuracy":1,"Outcome":"-10","Keys":[],"TotalKeys":0,"Block":2,"Trial":161,"Robot":4,"Valence":"Lose","Action":"No-Go","Sham":1,"Color":"yellow","trial_type":"pit-trial","trial_index":179,"time_elapsed":983102,"internal_node_id":"0.0-168.0","task_version":"test-retest-t2"},{"Rune":"rune_03_uruz","Hex":"#3366ff99","Correct":32,"Choice":32,"RT":364.9499999883119,"Accuracy":1,"Outcome":"+10","Keys":[1868.5249999980442],"TotalKeys":1,"Block":2,"Trial":162,"Robot":1,"Valence":"Win","Action":"Go","Sham":0,"Color":"blue","trial_type":"pit-trial","trial_index":180,"time_elapsed":985981,"internal_node_id":"0.0-169.0","task_version":"test-retest-t2"},{"Rune":"rune_03_algiz","Hex":"#ffcc3399","Correct":32,"Choice":32,"RT":477.69999998854473,"Accuracy":1,"Outcome":"-10","Keys":[1978.6549999989802],"TotalKeys":1,"Block":2,"Trial":163,"Robot":3,"Valence":"Lose","Action":"Go","Sham":1,"Color":"yellow","trial_type":"pit-trial","trial_index":181,"time_elapsed":988967,"internal_node_id":"0.0-170.0","task_version":"test-retest-t2"},{"Rune":"rune_03_naudiz","Hex":"#3366ff99","Correct":-1,"Choice":-1,"RT":-1,"Accuracy":1,"Outcome":"+10","Keys":[],"TotalKeys":0,"Block":2,"Trial":164,"Robot":2,"Valence":"Win","Action":"No-Go","Sham":0,"Color":"blue","trial_type":"pit-trial","trial_index":182,"time_elapsed":992972,"internal_node_id":"0.0-171.0","task_version":"test-retest-t2"},{"Rune":"rune_03_algiz","Hex":"#ffcc3399","Correct":32,"Choice":32,"RT":488.614999994752,"Accuracy":1,"Outcome":"-1","Keys":[1989.2450000043027],"TotalKeys":1,"Block":2,"Trial":165,"Robot":3,"Valence":"Lose","Action":"Go","Sham":0,"Color":"yellow","trial_type":"pit-trial","trial_index":183,"time_elapsed":995979,"internal_node_id":"0.0-172.0","task_version":"test-retest-t2"},{"Rune":"rune_03_uruz","Hex":"#3366ff99","Correct":32,"Choice":32,"RT":541.5899999934481,"Accuracy":1,"Outcome":"+10","Keys":[2043.3300000004238],"TotalKeys":1,"Block":2,"Trial":166,"Robot":1,"Valence":"Win","Action":"Go","Sham":0,"Color":"blue","trial_type":"pit-trial","trial_index":184,"time_elapsed":999035,"internal_node_id":"0.0-173.0","task_version":"test-retest-t2"},{"Rune":"rune_03_naudiz","Hex":"#3366ff99","Correct":-1,"Choice":-1,"RT":-1,"Accuracy":1,"Outcome":"+10","Keys":[],"TotalKeys":0,"Block":2,"Trial":167,"Robot":2,"Valence":"Win","Action":"No-Go","Sham":0,"Color":"blue","trial_type":"pit-trial","trial_index":185,"time_elapsed":1003047,"internal_node_id":"0.0-174.0","task_version":"test-retest-t2"},{"Rune":"rune_03_othalan","Hex":"#ffcc3399","Correct":-1,"Choice":-1,"RT":-1,"Accuracy":1,"Outcome":"-1","Keys":[],"TotalKeys":0,"Block":2,"Trial":168,"Robot":4,"Valence":"Lose","Action":"No-Go","Sham":0,"Color":"yellow","trial_type":"pit-trial","trial_index":186,"time_elapsed":1007054,"internal_node_id":"0.0-175.0","task_version":"test-retest-t2"},{"Rune":"rune_03_naudiz","Hex":"#3366ff99","Correct":-1,"Choice":-1,"RT":-1,"Accuracy":1,"Outcome":"+1","Keys":[],"TotalKeys":0,"Block":2,"Trial":169,"Robot":2,"Valence":"Win","Action":"No-Go","Sham":1,"Color":"blue","trial_type":"pit-trial","trial_index":187,"time_elapsed":1011067,"internal_node_id":"0.0-176.0","task_version":"test-retest-t2"},{"Rune":"rune_03_algiz","Hex":"#ffcc3399","Correct":32,"Choice":32,"RT":360.675000003539,"Accuracy":1,"Outcome":"-1","Keys":[1863.2550000038464],"TotalKeys":1,"Block":2,"Trial":170,"Robot":3,"Valence":"Lose","Action":"Go","Sham":0,"Color":"yellow","trial_type":"pit-trial","trial_index":188,"time_elapsed":1013939,"internal_node_id":"0.0-177.0","task_version":"test-retest-t2"},{"Rune":"rune_03_othalan","Hex":"#ffcc3399","Correct":-1,"Choice":-1,"RT":-1,"Accuracy":1,"Outcome":"-1","Keys":[],"TotalKeys":0,"Block":2,"Trial":171,"Robot":4,"Valence":"Lose","Action":"No-Go","Sham":0,"Color":"yellow","trial_type":"pit-trial","trial_index":189,"time_elapsed":1017956,"internal_node_id":"0.0-178.0","task_version":"test-retest-t2"},{"Rune":"rune_03_uruz","Hex":"#3366ff99","Correct":32,"Choice":32,"RT":344.3249999982072,"Accuracy":1,"Outcome":"+10","Keys":[1845.5749999993714],"TotalKeys":1,"Block":2,"Trial":172,"Robot":1,"Valence":"Win","Action":"Go","Sham":0,"Color":"blue","trial_type":"pit-trial","trial_index":190,"time_elapsed":1020812,"internal_node_id":"0.0-179.0","task_version":"test-retest-t2"},{"Rune":"rune_03_uruz","Hex":"#3366ff99","Correct":32,"Choice":32,"RT":278.214999998454,"Accuracy":1,"Outcome":"+10","Keys":[1779.065000009723],"TotalKeys":1,"Block":2,"Trial":173,"Robot":1,"Valence":"Win","Action":"Go","Sham":0,"Color":"blue","trial_type":"pit-trial","trial_index":191,"time_elapsed":1023599,"internal_node_id":"0.0-180.0","task_version":"test-retest-t2"},{"Rune":"rune_03_naudiz","Hex":"#3366ff99","Correct":-1,"Choice":-1,"RT":-1,"Accuracy":1,"Outcome":"+10","Keys":[],"TotalKeys":0,"Block":2,"Trial":174,"Robot":2,"Valence":"Win","Action":"No-Go","Sham":0,"Color":"blue","trial_type":"pit-trial","trial_index":192,"time_elapsed":1027608,"internal_node_id":"0.0-181.0","task_version":"test-retest-t2"},{"Rune":"rune_03_othalan","Hex":"#ffcc3399","Correct":-1,"Choice":-1,"RT":-1,"Accuracy":1,"Outcome":"-1","Keys":[],"TotalKeys":0,"Block":2,"Trial":175,"Robot":4,"Valence":"Lose","Action":"No-Go","Sham":0,"Color":"yellow","trial_type":"pit-trial","trial_index":193,"time_elapsed":1031619,"internal_node_id":"0.0-182.0","task_version":"test-retest-t2"},{"Rune":"rune_03_algiz","Hex":"#ffcc3399","Correct":32,"Choice":32,"RT":356.30999998829793,"Accuracy":1,"Outcome":"-1","Keys":[1857.8799999959301],"TotalKeys":1,"Block":2,"Trial":176,"Robot":3,"Valence":"Lose","Action":"Go","Sham":0,"Color":"yellow","trial_type":"pit-trial","trial_index":194,"time_elapsed":1034493,"internal_node_id":"0.0-183.0","task_version":"test-retest-t2"},{"Rune":"rune_03_othalan","Hex":"#ffcc3399","Correct":-1,"Choice":-1,"RT":-1,"Accuracy":1,"Outcome":"-1","Keys":[],"TotalKeys":0,"Block":2,"Trial":177,"Robot":4,"Valence":"Lose","Action":"No-Go","Sham":0,"Color":"yellow","trial_type":"pit-trial","trial_index":195,"time_elapsed":1038502,"internal_node_id":"0.0-184.0","task_version":"test-retest-t2"},{"Rune":"rune_03_uruz","Hex":"#3366ff99","Correct":32,"Choice":32,"RT":295.38000001048204,"Accuracy":1,"Outcome":"+1","Keys":[1796.5649999969173],"TotalKeys":1,"Block":2,"Trial":178,"Robot":1,"Valence":"Win","Action":"Go","Sham":1,"Color":"blue","trial_type":"pit-trial","trial_index":196,"time_elapsed":1041313,"internal_node_id":"0.0-185.0","task_version":"test-retest-t2"},{"Rune":"rune_03_algiz","Hex":"#ffcc3399","Correct":32,"Choice":32,"RT":484.95999998704065,"Accuracy":1,"Outcome":"-1","Keys":[1985.1000000053318],"TotalKeys":1,"Block":2,"Trial":179,"Robot":3,"Valence":"Lose","Action":"Go","Sham":0,"Color":"yellow","trial_type":"pit-trial","trial_index":197,"time_elapsed":1044310,"internal_node_id":"0.0-186.0","task_version":"test-retest-t2"},{"Rune":"rune_03_naudiz","Hex":"#3366ff99","Correct":-1,"Choice":-1,"RT":-1,"Accuracy":1,"Outcome":"+10","Keys":[],"TotalKeys":0,"Block":2,"Trial":180,"Robot":2,"Valence":"Win","Action":"No-Go","Sham":0,"Color":"blue","trial_type":"pit-trial","trial_index":198,"time_elapsed":1048320,"internal_node_id":"0.0-187.0","task_version":"test-retest-t2"},{"view_history":"[{\"page_index\":0,\"viewing_time\":3375.224999996135},{\"page_index\":1,\"viewing_time\":1522.6200000033714}]","rt":4899.219999992056,"trial_type":"pit-instructions","trial_index":199,"time_elapsed":1053227,"internal_node_id":"0.0-188.0","task_version":"test-retest-t2"},{"Rune":"rune_03_othalan","Hex":"#ffcc3399","Correct":-1,"Choice":-1,"RT":-1,"Accuracy":1,"Outcome":"-1","Keys":[],"TotalKeys":0,"Block":2,"Trial":181,"Robot":4,"Valence":"Lose","Action":"No-Go","Sham":0,"Color":"yellow","trial_type":"pit-trial","trial_index":200,"time_elapsed":1057248,"internal_node_id":"0.0-189.0","task_version":"test-retest-t2"},{"Rune":"rune_03_algiz","Hex":"#ffcc3399","Correct":32,"Choice":32,"RT":389.2200000118464,"Accuracy":1,"Outcome":"-1","Keys":[1892.175000000745],"TotalKeys":1,"Block":2,"Trial":182,"Robot":3,"Valence":"Lose","Action":"Go","Sham":0,"Color":"yellow","trial_type":"pit-trial","trial_index":201,"time_elapsed":1060151,"internal_node_id":"0.0-190.0","task_version":"test-retest-t2"},{"Rune":"rune_03_uruz","Hex":"#3366ff99","Correct":32,"Choice":32,"RT":358.2300000125542,"Accuracy":1,"Outcome":"+10","Keys":[1858.940000005532],"TotalKeys":1,"Block":2,"Trial":183,"Robot":1,"Valence":"Win","Action":"Go","Sham":0,"Color":"blue","trial_type":"pit-trial","trial_index":202,"time_elapsed":1063025,"internal_node_id":"0.0-191.0","task_version":"test-retest-t2"},{"Rune":"rune_03_naudiz","Hex":"#3366ff99","Correct":-1,"Choice":-1,"RT":-1,"Accuracy":1,"Outcome":"+10","Keys":[],"TotalKeys":0,"Block":2,"Trial":184,"Robot":2,"Valence":"Win","Action":"No-Go","Sham":0,"Color":"blue","trial_type":"pit-trial","trial_index":203,"time_elapsed":1067033,"internal_node_id":"0.0-192.0","task_version":"test-retest-t2"},{"Rune":"rune_03_naudiz","Hex":"#3366ff99","Correct":-1,"Choice":-1,"RT":-1,"Accuracy":1,"Outcome":"+10","Keys":[],"TotalKeys":0,"Block":2,"Trial":185,"Robot":2,"Valence":"Win","Action":"No-Go","Sham":0,"Color":"blue","trial_type":"pit-trial","trial_index":204,"time_elapsed":1071048,"internal_node_id":"0.0-193.0","task_version":"test-retest-t2"},{"Rune":"rune_03_algiz","Hex":"#ffcc3399","Correct":32,"Choice":32,"RT":470.8450000034645,"Accuracy":1,"Outcome":"-1","Keys":[1974.4950000019744],"TotalKeys":1,"Block":2,"Trial":186,"Robot":3,"Valence":"Lose","Action":"Go","Sham":0,"Color":"yellow","trial_type":"pit-trial","trial_index":205,"time_elapsed":1074032,"internal_node_id":"0.0-194.0","task_version":"test-retest-t2"},{"Rune":"rune_03_othalan","Hex":"#ffcc3399","Correct":-1,"Choice":-1,"RT":-1,"Accuracy":1,"Outcome":"-1","Keys":[],"TotalKeys":0,"Block":2,"Trial":187,"Robot":4,"Valence":"Lose","Action":"No-Go","Sham":0,"Color":"yellow","trial_type":"pit-trial","trial_index":206,"time_elapsed":1078043,"internal_node_id":"0.0-195.0","task_version":"test-retest-t2"},{"Rune":"rune_03_uruz","Hex":"#3366ff99","Correct":32,"Choice":32,"RT":395.39499999955297,"Accuracy":1,"Outcome":"+1","Keys":[1895.699999993667],"TotalKeys":1,"Block":2,"Trial":188,"Robot":1,"Valence":"Win","Action":"Go","Sham":1,"Color":"blue","trial_type":"pit-trial","trial_index":207,"time_elapsed":1080947,"internal_node_id":"0.0-196.0","task_version":"test-retest-t2"},{"Rune":"rune_03_uruz","Hex":"#3366ff99","Correct":32,"Choice":32,"RT":353.40500000165775,"Accuracy":1,"Outcome":"+10","Keys":[1855.8000000047032],"TotalKeys":1,"Block":2,"Trial":189,"Robot":1,"Valence":"Win","Action":"Go","Sham":0,"Color":"blue","trial_type":"pit-trial","trial_index":208,"time_elapsed":1083811,"internal_node_id":"0.0-197.0","task_version":"test-retest-t2"},{"Rune":"rune_03_algiz","Hex":"#ffcc3399","Correct":32,"Choice":32,"RT":493.2249999982305,"Accuracy":1,"Outcome":"-1","Keys":[1995.0449999887496],"TotalKeys":1,"Block":2,"Trial":190,"Robot":3,"Valence":"Lose","Action":"Go","Sham":0,"Color":"yellow","trial_type":"pit-trial","trial_index":209,"time_elapsed":1086816,"internal_node_id":"0.0-198.0","task_version":"test-retest-t2"},{"Rune":"rune_03_othalan","Hex":"#ffcc3399","Correct":-1,"Choice":-1,"RT":-1,"Accuracy":1,"Outcome":"-1","Keys":[],"TotalKeys":0,"Block":2,"Trial":191,"Robot":4,"Valence":"Lose","Action":"No-Go","Sham":0,"Color":"yellow","trial_type":"pit-trial","trial_index":210,"time_elapsed":1090829,"internal_node_id":"0.0-199.0","task_version":"test-retest-t2"},{"Rune":"rune_03_naudiz","Hex":"#3366ff99","Correct":-1,"Choice":-1,"RT":-1,"Accuracy":1,"Outcome":"+10","Keys":[],"TotalKeys":0,"Block":2,"Trial":192,"Robot":2,"Valence":"Win","Action":"No-Go","Sham":0,"Color":"blue","trial_type":"pit-trial","trial_index":211,"time_elapsed":1094841,"internal_node_id":"0.0-200.0","task_version":"test-retest-t2"},{"Rune":"rune_03_uruz","Hex":"#3366ff99","Correct":32,"Choice":32,"RT":501.6849999956321,"Accuracy":1,"Outcome":"+10","Keys":[2002.6349999972153],"TotalKeys":1,"Block":2,"Trial":193,"Robot":1,"Valence":"Win","Action":"Go","Sham":0,"Color":"blue","trial_type":"pit-trial","trial_index":212,"time_elapsed":1097856,"internal_node_id":"0.0-201.0","task_version":"test-retest-t2"},{"Rune":"rune_03_othalan","Hex":"#ffcc3399","Correct":-1,"Choice":-1,"RT":-1,"Accuracy":1,"Outcome":"-10","Keys":[],"TotalKeys":0,"Block":2,"Trial":194,"Robot":4,"Valence":"Lose","Action":"No-Go","Sham":1,"Color":"yellow","trial_type":"pit-trial","trial_index":213,"time_elapsed":1101866,"internal_node_id":"0.0-202.0","task_version":"test-retest-t2"},{"Rune":"rune_03_algiz","Hex":"#ffcc3399","Correct":32,"Choice":32,"RT":316.7200000025332,"Accuracy":1,"Outcome":"-10","Keys":[1819.5649999980815],"TotalKeys":1,"Block":2,"Trial":195,"Robot":3,"Valence":"Lose","Action":"Go","Sham":1,"Color":"yellow","trial_type":"pit-trial","trial_index":214,"time_elapsed":1104697,"internal_node_id":"0.0-203.0","task_version":"test-retest-t2"},{"Rune":"rune_03_naudiz","Hex":"#3366ff99","Correct":-1,"Choice":-1,"RT":-1,"Accuracy":1,"Outcome":"+1","Keys":[],"TotalKeys":0,"Block":2,"Trial":196,"Robot":2,"Valence":"Win","Action":"No-Go","Sham":1,"Color":"blue","trial_type":"pit-trial","trial_index":215,"time_elapsed":1108708,"internal_node_id":"0.0-204.0","task_version":"test-retest-t2"},{"Rune":"rune_03_naudiz","Hex":"#3366ff99","Correct":-1,"Choice":-1,"RT":-1,"Accuracy":1,"Outcome":"+10","Keys":[],"TotalKeys":0,"Block":2,"Trial":197,"Robot":2,"Valence":"Win","Action":"No-Go","Sham":0,"Color":"blue","trial_type":"pit-trial","trial_index":216,"time_elapsed":1112720,"internal_node_id":"0.0-205.0","task_version":"test-retest-t2"},{"Rune":"rune_03_uruz","Hex":"#3366ff99","Correct":32,"Choice":32,"RT":478.08999998960644,"Accuracy":1,"Outcome":"+10","Keys":[1979.2949999973644],"TotalKeys":1,"Block":2,"Trial":198,"Robot":1,"Valence":"Win","Action":"Go","Sham":0,"Color":"blue","trial_type":"pit-trial","trial_index":217,"time_elapsed":1115709,"internal_node_id":"0.0-206.0","task_version":"test-retest-t2"},{"Rune":"rune_03_algiz","Hex":"#ffcc3399","Correct":32,"Choice":32,"RT":507.06499999784864,"Accuracy":1,"Outcome":"-1","Keys":[2008.454999988433],"TotalKeys":1,"Block":2,"Trial":199,"Robot":3,"Valence":"Lose","Action":"Go","Sham":0,"Color":"yellow","trial_type":"pit-trial","trial_index":218,"time_elapsed":1118728,"internal_node_id":"0.0-207.0","task_version":"test-retest-t2"},{"Rune":"rune_03_othalan","Hex":"#ffcc3399","Correct":-1,"Choice":-1,"RT":-1,"Accuracy":1,"Outcome":"-1","Keys":[],"TotalKeys":0,"Block":2,"Trial":200,"Robot":4,"Valence":"Lose","Action":"No-Go","Sham":0,"Color":"yellow","trial_type":"pit-trial","trial_index":219,"time_elapsed":1122740,"internal_node_id":"0.0-208.0","task_version":"test-retest-t2"},{"Rune":"rune_03_othalan","Hex":"#ffcc3399","Correct":-1,"Choice":-1,"RT":-1,"Accuracy":1,"Outcome":"-1","Keys":[],"TotalKeys":0,"Block":2,"Trial":201,"Robot":4,"Valence":"Lose","Action":"No-Go","Sham":0,"Color":"yellow","trial_type":"pit-trial","trial_index":220,"time_elapsed":1126750,"internal_node_id":"0.0-209.0","task_version":"test-retest-t2"},{"Rune":"rune_03_naudiz","Hex":"#3366ff99","Correct":-1,"Choice":-1,"RT":-1,"Accuracy":1,"Outcome":"+10","Keys":[],"TotalKeys":0,"Block":2,"Trial":202,"Robot":2,"Valence":"Win","Action":"No-Go","Sham":0,"Color":"blue","trial_type":"pit-trial","trial_index":221,"time_elapsed":1130764,"internal_node_id":"0.0-210.0","task_version":"test-retest-t2"},{"Rune":"rune_03_uruz","Hex":"#3366ff99","Correct":32,"Choice":32,"RT":348.68999999877997,"Accuracy":1,"Outcome":"+10","Keys":[1850.3950000011828],"TotalKeys":1,"Block":2,"Trial":203,"Robot":1,"Valence":"Win","Action":"Go","Sham":0,"Color":"blue","trial_type":"pit-trial","trial_index":222,"time_elapsed":1133633,"internal_node_id":"0.0-211.0","task_version":"test-retest-t2"},{"Rune":"rune_03_algiz","Hex":"#ffcc3399","Correct":32,"Choice":32,"RT":458.1949999993667,"Accuracy":1,"Outcome":"-1","Keys":[1959.59499999322],"TotalKeys":1,"Block":2,"Trial":204,"Robot":3,"Valence":"Lose","Action":"Go","Sham":0,"Color":"yellow","trial_type":"pit-trial","trial_index":223,"time_elapsed":1136607,"internal_node_id":"0.0-212.0","task_version":"test-retest-t2"},{"Rune":"rune_03_naudiz","Hex":"#3366ff99","Correct":-1,"Choice":-1,"RT":-1,"Accuracy":1,"Outcome":"+1","Keys":[],"TotalKeys":0,"Block":2,"Trial":205,"Robot":2,"Valence":"Win","Action":"No-Go","Sham":1,"Color":"blue","trial_type":"pit-trial","trial_index":224,"time_elapsed":1140620,"internal_node_id":"0.0-213.0","task_version":"test-retest-t2"},{"Rune":"rune_03_uruz","Hex":"#3366ff99","Correct":32,"Choice":32,"RT":269.2499999976717,"Accuracy":1,"Outcome":"+10","Keys":[1770.1649999944493],"TotalKeys":1,"Block":2,"Trial":206,"Robot":1,"Valence":"Win","Action":"Go","Sham":0,"Color":"blue","trial_type":"pit-trial","trial_index":225,"time_elapsed":1143399,"internal_node_id":"0.0-214.0","task_version":"test-retest-t2"},{"Rune":"rune_03_othalan","Hex":"#ffcc3399","Correct":-1,"Choice":-1,"RT":-1,"Accuracy":1,"Outcome":"-1","Keys":[],"TotalKeys":0,"Block":2,"Trial":207,"Robot":4,"Valence":"Lose","Action":"No-Go","Sham":0,"Color":"yellow","trial_type":"pit-trial","trial_index":226,"time_elapsed":1147416,"internal_node_id":"0.0-215.0","task_version":"test-retest-t2"},{"Rune":"rune_03_algiz","Hex":"#ffcc3399","Correct":32,"Choice":32,"RT":362.3399999924004,"Accuracy":1,"Outcome":"-10","Keys":[1863.3549999941606],"TotalKeys":1,"Block":2,"Trial":208,"Robot":3,"Valence":"Lose","Action":"Go","Sham":1,"Color":"yellow","trial_type":"pit-trial","trial_index":227,"time_elapsed":1150292,"internal_node_id":"0.0-216.0","task_version":"test-retest-t2"},{"Rune":"rune_03_algiz","Hex":"#ffcc3399","Correct":32,"Choice":32,"RT":578.08999999566,"Accuracy":1,"Outcome":"-1","Keys":[2078.874999991851],"TotalKeys":1,"Block":2,"Trial":209,"Robot":3,"Valence":"Lose","Action":"Go","Sham":0,"Color":"yellow","trial_type":"pit-trial","trial_index":228,"time_elapsed":1153381,"internal_node_id":"0.0-217.0","task_version":"test-retest-t2"},{"Rune":"rune_03_naudiz","Hex":"#3366ff99","Correct":-1,"Choice":-1,"RT":-1,"Accuracy":1,"Outcome":"+10","Keys":[],"TotalKeys":0,"Block":2,"Trial":210,"Robot":2,"Valence":"Win","Action":"No-Go","Sham":0,"Color":"blue","trial_type":"pit-trial","trial_index":229,"time_elapsed":1157396,"internal_node_id":"0.0-218.0","task_version":"test-retest-t2"},{"Rune":"rune_03_othalan","Hex":"#ffcc3399","Correct":-1,"Choice":-1,"RT":-1,"Accuracy":1,"Outcome":"-1","Keys":[],"TotalKeys":0,"Block":2,"Trial":211,"Robot":4,"Valence":"Lose","Action":"No-Go","Sham":0,"Color":"yellow","trial_type":"pit-trial","trial_index":230,"time_elapsed":1161411,"internal_node_id":"0.0-219.0","task_version":"test-retest-t2"},{"Rune":"rune_03_uruz","Hex":"#3366ff99","Correct":32,"Choice":32,"RT":315.5199999893084,"Accuracy":1,"Outcome":"+10","Keys":[1817.8900000057183],"TotalKeys":1,"Block":2,"Trial":212,"Robot":1,"Valence":"Win","Action":"Go","Sham":0,"Color":"blue","trial_type":"pit-trial","trial_index":231,"time_elapsed":1164241,"internal_node_id":"0.0-220.0","task_version":"test-retest-t2"},{"Rune":"rune_03_algiz","Hex":"#ffcc3399","Correct":32,"Choice":32,"RT":492.1549999997951,"Accuracy":1,"Outcome":"-1","Keys":[1993.3949999976903],"TotalKeys":1,"Block":2,"Trial":213,"Robot":3,"Valence":"Lose","Action":"Go","Sham":0,"Color":"yellow","trial_type":"pit-trial","trial_index":232,"time_elapsed":1167242,"internal_node_id":"0.0-221.0","task_version":"test-retest-t2"},{"Rune":"rune_03_naudiz","Hex":"#3366ff99","Correct":-1,"Choice":-1,"RT":-1,"Accuracy":1,"Outcome":"+10","Keys":[],"TotalKeys":0,"Block":2,"Trial":214,"Robot":2,"Valence":"Win","Action":"No-Go","Sham":0,"Color":"blue","trial_type":"pit-trial","trial_index":233,"time_elapsed":1171254,"internal_node_id":"0.0-222.0","task_version":"test-retest-t2"},{"Rune":"rune_03_uruz","Hex":"#3366ff99","Correct":32,"Choice":32,"RT":297.3900000068825,"Accuracy":1,"Outcome":"+10","Keys":[1798.9050000030547],"TotalKeys":1,"Block":2,"Trial":215,"Robot":1,"Valence":"Win","Action":"Go","Sham":0,"Color":"blue","trial_type":"pit-trial","trial_index":234,"time_elapsed":1174059,"internal_node_id":"0.0-223.0","task_version":"test-retest-t2"},{"Rune":"rune_03_othalan","Hex":"#ffcc3399","Correct":-1,"Choice":-1,"RT":-1,"Accuracy":1,"Outcome":"-10","Keys":[],"TotalKeys":0,"Block":2,"Trial":216,"Robot":4,"Valence":"Lose","Action":"No-Go","Sham":1,"Color":"yellow","trial_type":"pit-trial","trial_index":235,"time_elapsed":1178072,"internal_node_id":"0.0-224.0","task_version":"test-retest-t2"},{"Rune":"rune_03_algiz","Hex":"#ffcc3399","Correct":32,"Choice":32,"RT":449.5699999970384,"Accuracy":1,"Outcome":"-1","Keys":[1950.6450000044424],"TotalKeys":1,"Block":2,"Trial":217,"Robot":3,"Valence":"Lose","Action":"Go","Sham":0,"Color":"yellow","trial_type":"pit-trial","trial_index":236,"time_elapsed":1181036,"internal_node_id":"0.0-225.0","task_version":"test-retest-t2"},{"Rune":"rune_03_othalan","Hex":"#ffcc3399","Correct":-1,"Choice":-1,"RT":-1,"Accuracy":1,"Outcome":"-1","Keys":[],"TotalKeys":0,"Block":2,"Trial":218,"Robot":4,"Valence":"Lose","Action":"No-Go","Sham":0,"Color":"yellow","trial_type":"pit-trial","trial_index":237,"time_elapsed":1185050,"internal_node_id":"0.0-226.0","task_version":"test-retest-t2"},{"Rune":"rune_03_naudiz","Hex":"#3366ff99","Correct":-1,"Choice":-1,"RT":-1,"Accuracy":1,"Outcome":"+10","Keys":[],"TotalKeys":0,"Block":2,"Trial":219,"Robot":2,"Valence":"Win","Action":"No-Go","Sham":0,"Color":"blue","trial_type":"pit-trial","trial_index":238,"time_elapsed":1189061,"internal_node_id":"0.0-227.0","task_version":"test-retest-t2"},{"Rune":"rune_03_uruz","Hex":"#3366ff99","Correct":32,"Choice":32,"RT":270.4599999997299,"Accuracy":1,"Outcome":"+1","Keys":[1771.1300000082701],"TotalKeys":1,"Block":2,"Trial":220,"Robot":1,"Valence":"Win","Action":"Go","Sham":1,"Color":"blue","trial_type":"pit-trial","trial_index":239,"time_elapsed":1191844,"internal_node_id":"0.0-228.0","task_version":"test-retest-t2"},{"Rune":"rune_03_uruz","Hex":"#3366ff99","Correct":32,"Choice":32,"RT":334.24499999079853,"Accuracy":1,"Outcome":"+10","Keys":[1838.6899999896996],"TotalKeys":1,"Block":2,"Trial":221,"Robot":1,"Valence":"Win","Action":"Go","Sham":0,"Color":"blue","trial_type":"pit-trial","trial_index":240,"time_elapsed":1194693,"internal_node_id":"0.0-229.0","task_version":"test-retest-t2"},{"Rune":"rune_03_naudiz","Hex":"#3366ff99","Correct":-1,"Choice":-1,"RT":-1,"Accuracy":1,"Outcome":"+10","Keys":[],"TotalKeys":0,"Block":2,"Trial":222,"Robot":2,"Valence":"Win","Action":"No-Go","Sham":0,"Color":"blue","trial_type":"pit-trial","trial_index":241,"time_elapsed":1198707,"internal_node_id":"0.0-230.0","task_version":"test-retest-t2"},{"Rune":"rune_03_algiz","Hex":"#ffcc3399","Correct":32,"Choice":32,"RT":426.7849999887403,"Accuracy":1,"Outcome":"-10","Keys":[1928.8499999966007],"TotalKeys":1,"Block":2,"Trial":223,"Robot":3,"Valence":"Lose","Action":"Go","Sham":1,"Color":"yellow","trial_type":"pit-trial","trial_index":242,"time_elapsed":1201644,"internal_node_id":"0.0-231.0","task_version":"test-retest-t2"},{"Rune":"rune_03_othalan","Hex":"#ffcc3399","Correct":-1,"Choice":-1,"RT":-1,"Accuracy":1,"Outcome":"-1","Keys":[],"TotalKeys":0,"Block":2,"Trial":224,"Robot":4,"Valence":"Lose","Action":"No-Go","Sham":0,"Color":"yellow","trial_type":"pit-trial","trial_index":243,"time_elapsed":1205659,"internal_node_id":"0.0-232.0","task_version":"test-retest-t2"},{"Rune":"rune_03_algiz","Hex":"#ffcc3399","Correct":32,"Choice":32,"RT":433.6849999963306,"Accuracy":1,"Outcome":"-1","Keys":[1936.2950000066776],"TotalKeys":1,"Block":2,"Trial":225,"Robot":3,"Valence":"Lose","Action":"Go","Sham":0,"Color":"yellow","trial_type":"pit-trial","trial_index":244,"time_elapsed":1208606,"internal_node_id":"0.0-233.0","task_version":"test-retest-t2"},{"Rune":"rune_03_othalan","Hex":"#ffcc3399","Correct":-1,"Choice":-1,"RT":-1,"Accuracy":1,"Outcome":"-1","Keys":[],"TotalKeys":0,"Block":2,"Trial":226,"Robot":4,"Valence":"Lose","Action":"No-Go","Sham":0,"Color":"yellow","trial_type":"pit-trial","trial_index":245,"time_elapsed":1212619,"internal_node_id":"0.0-234.0","task_version":"test-retest-t2"},{"Rune":"rune_03_naudiz","Hex":"#3366ff99","Correct":-1,"Choice":-1,"RT":-1,"Accuracy":1,"Outcome":"+10","Keys":[],"TotalKeys":0,"Block":2,"Trial":227,"Robot":2,"Valence":"Win","Action":"No-Go","Sham":0,"Color":"blue","trial_type":"pit-trial","trial_index":246,"time_elapsed":1216634,"internal_node_id":"0.0-235.0","task_version":"test-retest-t2"},{"Rune":"rune_03_uruz","Hex":"#3366ff99","Correct":32,"Choice":32,"RT":309.0800000061281,"Accuracy":1,"Outcome":"+10","Keys":[1810.1599999936298],"TotalKeys":1,"Block":2,"Trial":228,"Robot":1,"Valence":"Win","Action":"Go","Sham":0,"Color":"blue","trial_type":"pit-trial","trial_index":247,"time_elapsed":1219452,"internal_node_id":"0.0-236.0","task_version":"test-retest-t2"},{"Rune":"rune_03_othalan","Hex":"#ffcc3399","Correct":-1,"Choice":-1,"RT":-1,"Accuracy":1,"Outcome":"-1","Keys":[],"TotalKeys":0,"Block":2,"Trial":229,"Robot":4,"Valence":"Lose","Action":"No-Go","Sham":0,"Color":"yellow","trial_type":"pit-trial","trial_index":248,"time_elapsed":1223462,"internal_node_id":"0.0-237.0","task_version":"test-retest-t2"},{"Rune":"rune_03_uruz","Hex":"#3366ff99","Correct":32,"Choice":32,"RT":384.63000000058673,"Accuracy":1,"Outcome":"+10","Keys":[1885.2800000023562],"TotalKeys":1,"Block":2,"Trial":230,"Robot":1,"Valence":"Win","Action":"Go","Sham":0,"Color":"blue","trial_type":"pit-trial","trial_index":249,"time_elapsed":1226361,"internal_node_id":"0.0-238.0","task_version":"test-retest-t2"},{"Rune":"rune_03_algiz","Hex":"#ffcc3399","Correct":32,"Choice":32,"RT":431.0649999969173,"Accuracy":1,"Outcome":"-1","Keys":[1932.1899999924935],"TotalKeys":1,"Block":2,"Trial":231,"Robot":3,"Valence":"Lose","Action":"Go","Sham":0,"Color":"yellow","trial_type":"pit-trial","trial_index":250,"time_elapsed":1229317,"internal_node_id":"0.0-239.0","task_version":"test-retest-t2"},{"Rune":"rune_03_naudiz","Hex":"#3366ff99","Correct":-1,"Choice":-1,"RT":-1,"Accuracy":1,"Outcome":"+1","Keys":[],"TotalKeys":0,"Block":2,"Trial":232,"Robot":2,"Valence":"Win","Action":"No-Go","Sham":1,"Color":"blue","trial_type":"pit-trial","trial_index":251,"time_elapsed":1233326,"internal_node_id":"0.0-240.0","task_version":"test-retest-t2"},{"Rune":"rune_03_naudiz","Hex":"#3366ff99","Correct":-1,"Choice":-1,"RT":-1,"Accuracy":1,"Outcome":"+10","Keys":[],"TotalKeys":0,"Block":2,"Trial":233,"Robot":2,"Valence":"Win","Action":"No-Go","Sham":0,"Color":"blue","trial_type":"pit-trial","trial_index":252,"time_elapsed":1237342,"internal_node_id":"0.0-241.0","task_version":"test-retest-t2"},{"Rune":"rune_03_algiz","Hex":"#ffcc3399","Correct":32,"Choice":32,"RT":371.21500000637025,"Accuracy":1,"Outcome":"-1","Keys":[1879.635000004666],"TotalKeys":1,"Block":2,"Trial":234,"Robot":3,"Valence":"Lose","Action":"Go","Sham":0,"Color":"yellow","trial_type":"pit-trial","trial_index":253,"time_elapsed":1240229,"internal_node_id":"0.0-242.0","task_version":"test-retest-t2"},{"Rune":"rune_03_othalan","Hex":"#ffcc3399","Correct":-1,"Choice":-1,"RT":-1,"Accuracy":1,"Outcome":"-1","Keys":[],"TotalKeys":0,"Block":2,"Trial":235,"Robot":4,"Valence":"Lose","Action":"No-Go","Sham":0,"Color":"yellow","trial_type":"pit-trial","trial_index":254,"time_elapsed":1244245,"internal_node_id":"0.0-243.0","task_version":"test-retest-t2"},{"Rune":"rune_03_uruz","Hex":"#3366ff99","Correct":32,"Choice":32,"RT":366.15500001073815,"Accuracy":1,"Outcome":"+10","Keys":[1867.220000000205],"TotalKeys":1,"Block":2,"Trial":236,"Robot":1,"Valence":"Win","Action":"Go","Sham":0,"Color":"blue","trial_type":"pit-trial","trial_index":255,"time_elapsed":1247127,"internal_node_id":"0.0-244.0","task_version":"test-retest-t2"},{"Rune":"rune_03_algiz","Hex":"#ffcc3399","Correct":32,"Choice":32,"RT":555.1149999955669,"Accuracy":1,"Outcome":"-1","Keys":[2059.3949999893084],"TotalKeys":1,"Block":2,"Trial":237,"Robot":3,"Valence":"Lose","Action":"Go","Sham":0,"Color":"yellow","trial_type":"pit-trial","trial_index":256,"time_elapsed":1250201,"internal_node_id":"0.0-245.0","task_version":"test-retest-t2"},{"Rune":"rune_03_naudiz","Hex":"#3366ff99","Correct":-1,"Choice":-1,"RT":-1,"Accuracy":1,"Outcome":"+10","Keys":[],"TotalKeys":0,"Block":2,"Trial":238,"Robot":2,"Valence":"Win","Action":"No-Go","Sham":0,"Color":"blue","trial_type":"pit-trial","trial_index":257,"time_elapsed":1254211,"internal_node_id":"0.0-246.0","task_version":"test-retest-t2"},{"Rune":"rune_03_uruz","Hex":"#3366ff99","Correct":32,"Choice":32,"RT":406.61000000545755,"Accuracy":1,"Outcome":"+1","Keys":[1909.444999997504],"TotalKeys":1,"Block":2,"Trial":239,"Robot":1,"Valence":"Win","Action":"Go","Sham":1,"Color":"blue","trial_type":"pit-trial","trial_index":258,"time_elapsed":1257136,"internal_node_id":"0.0-247.0","task_version":"test-retest-t2"},{"Rune":"rune_03_othalan","Hex":"#ffcc3399","Correct":-1,"Choice":-1,"RT":-1,"Accuracy":1,"Outcome":"-10","Keys":[],"TotalKeys":0,"Block":2,"Trial":240,"Robot":4,"Valence":"Lose","Action":"No-Go","Sham":1,"Color":"yellow","trial_type":"pit-trial","trial_index":259,"time_elapsed":1261149,"internal_node_id":"0.0-248.0","task_version":"test-retest-t2"},{"view_history":"[{\"page_index\":0,\"viewing_time\":1604.7249999972992}]","rt":1605.4500000025146,"trial_type":"pit-instructions","trial_index":260,"time_elapsed":1262759,"internal_node_id":"0.0-249.0","task_version":"test-retest-t2"},{"rt":24621.329999994487,"responses":{"difficulty":"5","fun":"5","clarity":"5","strategy":"No","feedback":"Very fun HIT. Thank you"},"survey":"debrief","trial_type":"survey-debrief","trial_index":261,"time_elapsed":1287391,"internal_node_id":"0.0-250.0","task_version":"test-retest-t2"},{"rt":5046.310000005178,"stimulus":"You earned a bonus of $1.4 out of $1.5.<br><br>Press any key to complete the experiment.","key_press":32,"trial_type":"html-keyboard-response","trial_index":262,"time_elapsed":1292451,"internal_node_id":"0.0-251.0","task_version":"test-retest-t2","accuracy":0.9291666666666667,"bonus":1.4,"interactions":"[{\"event\":\"blur\",\"trial\":12,\"time\":320763},{\"event\":\"focus\",\"trial\":12,\"time\":326737},{\"event\":\"blur\",\"trial\":77,\"time\":594384},{\"event\":\"focus\",\"trial\":77,\"time\":608705}]"}]