[{"slider_type":"valence","raw_loc":569,"loc":0.638,"trial_type":"affective-slider","trial_index":0,"time_elapsed":3268,"internal_node_id":"0.0-0.0","task_version":"test-retest-t4"},{"responses":{"Q01":"2","Q07":"2","Q05":"2","Q12":"0","Q10":"0","Q09":"0","Q08":"1","Q02":"3","Q11":"1","Q13":"0","Q03":"2","Q04":"3","Q06":"2"},"rt":36065.585000033025,"survey":"bisbas","trial_type":"survey-template","trial_index":1,"time_elapsed":39336,"internal_node_id":"0.0-1.0","task_version":"test-retest-t4"},{"responses":{"Q02":"1","Q12":"1","Q01":"1","Q04":"1","Q09":"1","Q15":"0","Q13":"1","Q10":"1","Q06":"0","Q03":"1","Q05":"1","Q11":"1","Q08":"1","Q07":"1","Q14":"0"},"rt":57553.060000005644,"survey":"7up7down","trial_type":"survey-template","trial_index":2,"time_elapsed":96891,"internal_node_id":"0.0-2.0","task_version":"test-retest-t4"},{"responses":{"Q02":"0","Q03":"0","Q06":"0","Q05":"0","Q07":"0","Q04":"0","Q01":"0","Q08":"0"},"rt":31721.684999996796,"survey":"gad7","trial_type":"survey-template","trial_index":3,"time_elapsed":128615,"internal_node_id":"0.0-3.0","task_version":"test-retest-t4"},{"view_history":"[{\"page_index\":0,\"viewing_time\":1825.1750000054017},{\"page_index\":1,\"viewing_time\":512.3400000156835},{\"page_index\":2,\"viewing_time\":827.3699999554083},{\"page_index\":3,\"viewing_time\":1257.9450000193901},{\"page_index\":4,\"viewing_time\":660.1750000263564},{\"page_index\":5,\"viewing_time\":443.87499999720603}]","rt":5527.475000009872,"trial_type":"pit-instructions","trial_index":4,"time_elapsed":134146,"internal_node_id":"0.0-4.0-0.0","task_version":"test-retest-t4"},{"Rune":"rune_00_ingz","Hex":"#FFFFF080","Correct":32,"Choice":32,"RT":581.7149999784306,"Accuracy":1,"Outcome":"+10","Keys":[2082.5150000164285],"TotalKeys":1,"Block":0,"Action":"Go","trial_type":"pit-trial","trial_index":5,"time_elapsed":137232,"internal_node_id":"0.0-4.0-1.0-0.0","task_version":"test-retest-t4"},{"Rune":"rune_00_ingz","Hex":"#FFFFF080","Correct":32,"Choice":32,"RT":153.73499999986961,"Accuracy":1,"Outcome":"+10","Keys":[1654.5200000400655],"TotalKeys":1,"Block":0,"Action":"Go","trial_type":"pit-trial","trial_index":6,"time_elapsed":139890,"internal_node_id":"0.0-4.0-1.0-0.1","task_version":"test-retest-t4"},{"Rune":"rune_00_ingz","Hex":"#FFFFF080","Correct":32,"Choice":32,"RT":159.34999997261912,"Accuracy":1,"Outcome":"+10","Keys":[1659.5549999619834],"TotalKeys":1,"Block":0,"Action":"Go","trial_type":"pit-trial","trial_index":7,"time_elapsed":142553,"internal_node_id":"0.0-4.0-1.0-0.2","task_version":"test-retest-t4"},{"Rune":"rune_00_ingz","Hex":"#FFFFF080","Correct":32,"Choice":32,"RT":128.58999997843057,"Accuracy":1,"Outcome":"+10","Keys":[1628.9150000084192],"TotalKeys":1,"Block":0,"Action":"Go","trial_type":"pit-trial","trial_index":8,"time_elapsed":145184,"internal_node_id":"0.0-4.0-1.0-0.3","task_version":"test-retest-t4"},{"view_history":"[{\"page_index\":0,\"viewing_time\":2066.660000011325}]","rt":2067.044999974314,"trial_type":"pit-instructions","trial_index":9,"time_elapsed":147252,"internal_node_id":"0.0-4.0-2.0","task_version":"test-retest-t4"},{"Rune":"rune_00_isaz","Hex":"#FFFFF080","Correct":-1,"Choice":-1,"RT":-1,"Accuracy":1,"Outcome":"+10","Keys":[],"TotalKeys":0,"Block":0,"Action":"No-Go","trial_type":"pit-trial","trial_index":10,"time_elapsed":151257,"internal_node_id":"0.0-4.0-3.0-0.0","task_version":"test-retest-t4"},{"Rune":"rune_00_isaz","Hex":"#FFFFF080","Correct":-1,"Choice":-1,"RT":-1,"Accuracy":1,"Outcome":"+10","Keys":[],"TotalKeys":0,"Block":0,"Action":"No-Go","trial_type":"pit-trial","trial_index":11,"time_elapsed":155266,"internal_node_id":"0.0-4.0-3.0-0.1","task_version":"test-retest-t4"},{"Rune":"rune_00_isaz","Hex":"#FFFFF080","Correct":-1,"Choice":-1,"RT":-1,"Accuracy":1,"Outcome":"+10","Keys":[],"TotalKeys":0,"Block":0,"Action":"No-Go","trial_type":"pit-trial","trial_index":12,"time_elapsed":159271,"internal_node_id":"0.0-4.0-3.0-0.2","task_version":"test-retest-t4"},{"Rune":"rune_00_isaz","Hex":"#FFFFF080","Correct":-1,"Choice":-1,"RT":-1,"Accuracy":1,"Outcome":"+10","Keys":[],"TotalKeys":0,"Block":0,"Action":"No-Go","trial_type":"pit-trial","trial_index":13,"time_elapsed":163275,"internal_node_id":"0.0-4.0-3.0-0.3","task_version":"test-retest-t4"},{"view_history":"[{\"page_index\":0,\"viewing_time\":2491.5100000216626},{\"page_index\":1,\"viewing_time\":4720.020000007935},{\"page_index\":2,\"viewing_time\":1794.095000019297},{\"page_index\":3,\"viewing_time\":916.254999989178},{\"page_index\":4,\"viewing_time\":825.5350000108592},{\"page_index\":5,\"viewing_time\":798.0499999830499},{\"page_index\":6,\"viewing_time\":894.2449999740347},{\"page_index\":7,\"viewing_time\":543.6550000449643}]","rt":12983.710000000428,"trial_type":"pit-instructions","trial_index":14,"time_elapsed":176259,"internal_node_id":"0.0-4.0-4.0","task_version":"test-retest-t4"},{"responses":["Do nothing","+10","-1","True","Yes"],"num_errors":0,"rt":15474.760000011884,"trial_type":"pit-comprehension","trial_index":15,"time_elapsed":191736,"internal_node_id":"0.0-4.0-5.0","task_version":"test-retest-t4"},{"trial_type":"call-function","trial_index":16,"time_elapsed":191739,"internal_node_id":"0.0-5.0","task_version":"test-retest-t4"},{"view_history":"[{\"page_index\":0,\"viewing_time\":1062.8100000321865},{\"page_index\":1,\"viewing_time\":1208.184999995865},{\"page_index\":2,\"viewing_time\":659.8750000121072}]","rt":2931.1849999940023,"trial_type":"pit-instructions","trial_index":17,"time_elapsed":194671,"internal_node_id":"0.0-6.0","task_version":"test-retest-t4"},{"Rune":"rune_08_mannaz","Hex":"#3366ff99","Correct":-1,"Choice":32,"RT":254.85999998636544,"Accuracy":0,"Outcome":"+1","Keys":[1756.824999989476],"TotalKeys":1,"Block":1,"Trial":1,"Robot":2,"Valence":"Win","Action":"No-Go","Sham":0,"Color":"blue","trial_type":"pit-trial","trial_index":18,"time_elapsed":197432,"internal_node_id":"0.0-7.0","task_version":"test-retest-t4"},{"Rune":"rune_08_pertho","Hex":"#ffcc3399","Correct":32,"Choice":32,"RT":616.8049999978393,"Accuracy":1,"Outcome":"-1","Keys":[2117.035000002943],"TotalKeys":1,"Block":1,"Trial":2,"Robot":3,"Valence":"Lose","Action":"Go","Sham":0,"Color":"yellow","trial_type":"pit-trial","trial_index":19,"time_elapsed":200551,"internal_node_id":"0.0-8.0","task_version":"test-retest-t4"},{"Rune":"rune_08_fehu","Hex":"#3366ff99","Correct":32,"Choice":-1,"RT":-1,"Accuracy":0,"Outcome":"+1","Keys":[],"TotalKeys":0,"Block":1,"Trial":3,"Robot":1,"Valence":"Win","Action":"Go","Sham":0,"Color":"blue","trial_type":"pit-trial","trial_index":20,"time_elapsed":204553,"internal_node_id":"0.0-9.0","task_version":"test-retest-t4"},{"Rune":"rune_08_sigel","Hex":"#ffcc3399","Correct":-1,"Choice":32,"RT":720.8250000257976,"Accuracy":0,"Outcome":"-10","Keys":[2222.384999971837],"TotalKeys":1,"Block":1,"Trial":4,"Robot":4,"Valence":"Lose","Action":"No-Go","Sham":0,"Color":"yellow","trial_type":"pit-trial","trial_index":21,"time_elapsed":207777,"internal_node_id":"0.0-10.0","task_version":"test-retest-t4"},{"Rune":"rune_08_sigel","Hex":"#ffcc3399","Correct":-1,"Choice":32,"RT":595.5499999690801,"Accuracy":0,"Outcome":"-10","Keys":[2096.4350000140257],"TotalKeys":1,"Block":1,"Trial":5,"Robot":4,"Valence":"Lose","Action":"No-Go","Sham":0,"Color":"yellow","trial_type":"pit-trial","trial_index":22,"time_elapsed":210877,"internal_node_id":"0.0-11.0","task_version":"test-retest-t4"},{"Rune":"rune_08_pertho","Hex":"#ffcc3399","Correct":32,"Choice":32,"RT":927.2149999742396,"Accuracy":1,"Outcome":"-1","Keys":[2427.594999957364],"TotalKeys":1,"Block":1,"Trial":6,"Robot":3,"Valence":"Lose","Action":"Go","Sham":0,"Color":"yellow","trial_type":"pit-trial","trial_index":23,"time_elapsed":214309,"internal_node_id":"0.0-12.0","task_version":"test-retest-t4"},{"Rune":"rune_08_mannaz","Hex":"#3366ff99","Correct":-1,"Choice":32,"RT":549.8249999945983,"Accuracy":0,"Outcome":"+1","Keys":[2050.814999965951],"TotalKeys":1,"Block":1,"Trial":7,"Robot":2,"Valence":"Win","Action":"No-Go","Sham":0,"Color":"blue","trial_type":"pit-trial","trial_index":24,"time_elapsed":217362,"internal_node_id":"0.0-13.0","task_version":"test-retest-t4"},{"Rune":"rune_08_fehu","Hex":"#3366ff99","Correct":32,"Choice":32,"RT":625.44999999227,"Accuracy":1,"Outcome":"+10","Keys":[2125.7500000065193],"TotalKeys":1,"Block":1,"Trial":8,"Robot":1,"Valence":"Win","Action":"Go","Sham":0,"Color":"blue","trial_type":"pit-trial","trial_index":25,"time_elapsed":220490,"internal_node_id":"0.0-14.0","task_version":"test-retest-t4"},{"Rune":"rune_08_sigel","Hex":"#ffcc3399","Correct":-1,"Choice":-1,"RT":-1,"Accuracy":1,"Outcome":"-10","Keys":[],"TotalKeys":0,"Block":1,"Trial":9,"Robot":4,"Valence":"Lose","Action":"No-Go","Sham":1,"Color":"yellow","trial_type":"pit-trial","trial_index":26,"time_elapsed":224495,"internal_node_id":"0.0-15.0","task_version":"test-retest-t4"},{"Rune":"rune_08_pertho","Hex":"#ffcc3399","Correct":32,"Choice":32,"RT":451.2999999569729,"Accuracy":1,"Outcome":"-1","Keys":[1951.535000000149],"TotalKeys":1,"Block":1,"Trial":10,"Robot":3,"Valence":"Lose","Action":"Go","Sham":0,"Color":"yellow","trial_type":"pit-trial","trial_index":27,"time_elapsed":227450,"internal_node_id":"0.0-16.0","task_version":"test-retest-t4"},{"Rune":"rune_08_mannaz","Hex":"#3366ff99","Correct":-1,"Choice":-1,"RT":-1,"Accuracy":1,"Outcome":"+10","Keys":[],"TotalKeys":0,"Block":1,"Trial":11,"Robot":2,"Valence":"Win","Action":"No-Go","Sham":0,"Color":"blue","trial_type":"pit-trial","trial_index":28,"time_elapsed":231454,"internal_node_id":"0.0-17.0","task_version":"test-retest-t4"},{"Rune":"rune_08_fehu","Hex":"#3366ff99","Correct":32,"Choice":32,"RT":510.4200000059791,"Accuracy":1,"Outcome":"+10","Keys":[2011.3700000219978],"TotalKeys":1,"Block":1,"Trial":12,"Robot":1,"Valence":"Win","Action":"Go","Sham":0,"Color":"blue","trial_type":"pit-trial","trial_index":29,"time_elapsed":234468,"internal_node_id":"0.0-18.0","task_version":"test-retest-t4"},{"Rune":"rune_08_pertho","Hex":"#ffcc3399","Correct":32,"Choice":32,"RT":516.2099999724887,"Accuracy":1,"Outcome":"-1","Keys":[2017.1749999863096],"TotalKeys":1,"Block":1,"Trial":13,"Robot":3,"Valence":"Lose","Action":"Go","Sham":0,"Color":"yellow","trial_type":"pit-trial","trial_index":30,"time_elapsed":237487,"internal_node_id":"0.0-19.0","task_version":"test-retest-t4"},{"Rune":"rune_08_sigel","Hex":"#ffcc3399","Correct":-1,"Choice":-1,"RT":-1,"Accuracy":1,"Outcome":"-1","Keys":[],"TotalKeys":0,"Block":1,"Trial":14,"Robot":4,"Valence":"Lose","Action":"No-Go","Sham":0,"Color":"yellow","trial_type":"pit-trial","trial_index":31,"time_elapsed":241491,"internal_node_id":"0.0-20.0","task_version":"test-retest-t4"},{"Rune":"rune_08_mannaz","Hex":"#3366ff99","Correct":-1,"Choice":-1,"RT":-1,"Accuracy":1,"Outcome":"+1","Keys":[],"TotalKeys":0,"Block":1,"Trial":15,"Robot":2,"Valence":"Win","Action":"No-Go","Sham":1,"Color":"blue","trial_type":"pit-trial","trial_index":32,"time_elapsed":245492,"internal_node_id":"0.0-21.0","task_version":"test-retest-t4"},{"Rune":"rune_08_fehu","Hex":"#3366ff99","Correct":32,"Choice":32,"RT":526.7800000146963,"Accuracy":1,"Outcome":"+1","Keys":[2027.5499999988824],"TotalKeys":1,"Block":1,"Trial":16,"Robot":1,"Valence":"Win","Action":"Go","Sham":1,"Color":"blue","trial_type":"pit-trial","trial_index":33,"time_elapsed":248523,"internal_node_id":"0.0-22.0","task_version":"test-retest-t4"},{"Rune":"rune_08_sigel","Hex":"#ffcc3399","Correct":-1,"Choice":-1,"RT":-1,"Accuracy":1,"Outcome":"-1","Keys":[],"TotalKeys":0,"Block":1,"Trial":17,"Robot":4,"Valence":"Lose","Action":"No-Go","Sham":0,"Color":"yellow","trial_type":"pit-trial","trial_index":34,"time_elapsed":252527,"internal_node_id":"0.0-23.0","task_version":"test-retest-t4"},{"Rune":"rune_08_pertho","Hex":"#ffcc3399","Correct":32,"Choice":32,"RT":501.1750000412576,"Accuracy":1,"Outcome":"-10","Keys":[2001.7050000024028],"TotalKeys":1,"Block":1,"Trial":18,"Robot":3,"Valence":"Lose","Action":"Go","Sham":1,"Color":"yellow","trial_type":"pit-trial","trial_index":35,"time_elapsed":255531,"internal_node_id":"0.0-24.0","task_version":"test-retest-t4"},{"Rune":"rune_08_fehu","Hex":"#3366ff99","Correct":32,"Choice":32,"RT":407.00999996624887,"Accuracy":1,"Outcome":"+10","Keys":[1908.0550000071526],"TotalKeys":1,"Block":1,"Trial":19,"Robot":1,"Valence":"Win","Action":"Go","Sham":0,"Color":"blue","trial_type":"pit-trial","trial_index":36,"time_elapsed":258441,"internal_node_id":"0.0-25.0","task_version":"test-retest-t4"},{"Rune":"rune_08_mannaz","Hex":"#3366ff99","Correct":-1,"Choice":32,"RT":679.6099999919534,"Accuracy":0,"Outcome":"+1","Keys":[2181.4850000082515],"TotalKeys":1,"Block":1,"Trial":20,"Robot":2,"Valence":"Win","Action":"No-Go","Sham":0,"Color":"blue","trial_type":"pit-trial","trial_index":37,"time_elapsed":261625,"internal_node_id":"0.0-26.0","task_version":"test-retest-t4"},{"Rune":"rune_08_mannaz","Hex":"#3366ff99","Correct":-1,"Choice":-1,"RT":-1,"Accuracy":1,"Outcome":"+10","Keys":[],"TotalKeys":0,"Block":1,"Trial":21,"Robot":2,"Valence":"Win","Action":"No-Go","Sham":0,"Color":"blue","trial_type":"pit-trial","trial_index":38,"time_elapsed":265628,"internal_node_id":"0.0-27.0","task_version":"test-retest-t4"},{"Rune":"rune_08_sigel","Hex":"#ffcc3399","Correct":-1,"Choice":-1,"RT":-1,"Accuracy":1,"Outcome":"-10","Keys":[],"TotalKeys":0,"Block":1,"Trial":22,"Robot":4,"Valence":"Lose","Action":"No-Go","Sham":1,"Color":"yellow","trial_type":"pit-trial","trial_index":39,"time_elapsed":269632,"internal_node_id":"0.0-28.0","task_version":"test-retest-t4"},{"Rune":"rune_08_fehu","Hex":"#3366ff99","Correct":32,"Choice":32,"RT":518.5950000304729,"Accuracy":1,"Outcome":"+10","Keys":[2020.0649999896996],"TotalKeys":1,"Block":1,"Trial":23,"Robot":1,"Valence":"Win","Action":"Go","Sham":0,"Color":"blue","trial_type":"pit-trial","trial_index":40,"time_elapsed":272654,"internal_node_id":"0.0-29.0","task_version":"test-retest-t4"},{"Rune":"rune_08_pertho","Hex":"#ffcc3399","Correct":32,"Choice":32,"RT":378.6100000143051,"Accuracy":1,"Outcome":"-1","Keys":[1879.1600000113249],"TotalKeys":1,"Block":1,"Trial":24,"Robot":3,"Valence":"Lose","Action":"Go","Sham":0,"Color":"yellow","trial_type":"pit-trial","trial_index":41,"time_elapsed":275535,"internal_node_id":"0.0-30.0","task_version":"test-retest-t4"},{"Rune":"rune_08_mannaz","Hex":"#3366ff99","Correct":-1,"Choice":-1,"RT":-1,"Accuracy":1,"Outcome":"+10","Keys":[],"TotalKeys":0,"Block":1,"Trial":25,"Robot":2,"Valence":"Win","Action":"No-Go","Sham":0,"Color":"blue","trial_type":"pit-trial","trial_index":42,"time_elapsed":279538,"internal_node_id":"0.0-31.0","task_version":"test-retest-t4"},{"Rune":"rune_08_fehu","Hex":"#3366ff99","Correct":32,"Choice":32,"RT":582.7099999878556,"Accuracy":1,"Outcome":"+1","Keys":[2083.4000000031665],"TotalKeys":1,"Block":1,"Trial":26,"Robot":1,"Valence":"Win","Action":"Go","Sham":1,"Color":"blue","trial_type":"pit-trial","trial_index":43,"time_elapsed":282624,"internal_node_id":"0.0-32.0","task_version":"test-retest-t4"},{"Rune":"rune_08_pertho","Hex":"#ffcc3399","Correct":32,"Choice":32,"RT":412.9049999755807,"Accuracy":1,"Outcome":"-1","Keys":[1913.0000000004657],"TotalKeys":1,"Block":1,"Trial":27,"Robot":3,"Valence":"Lose","Action":"Go","Sham":0,"Color":"yellow","trial_type":"pit-trial","trial_index":44,"time_elapsed":285541,"internal_node_id":"0.0-33.0","task_version":"test-retest-t4"},{"Rune":"rune_08_sigel","Hex":"#ffcc3399","Correct":-1,"Choice":-1,"RT":-1,"Accuracy":1,"Outcome":"-1","Keys":[],"TotalKeys":0,"Block":1,"Trial":28,"Robot":4,"Valence":"Lose","Action":"No-Go","Sham":0,"Color":"yellow","trial_type":"pit-trial","trial_index":45,"time_elapsed":289545,"internal_node_id":"0.0-34.0","task_version":"test-retest-t4"},{"Rune":"rune_08_pertho","Hex":"#ffcc3399","Correct":32,"Choice":32,"RT":302.19499999657273,"Accuracy":1,"Outcome":"-1","Keys":[1803.1499999924563],"TotalKeys":1,"Block":1,"Trial":29,"Robot":3,"Valence":"Lose","Action":"Go","Sham":0,"Color":"yellow","trial_type":"pit-trial","trial_index":46,"time_elapsed":292350,"internal_node_id":"0.0-35.0","task_version":"test-retest-t4"},{"Rune":"rune_08_fehu","Hex":"#3366ff99","Correct":32,"Choice":32,"RT":387.3949999688193,"Accuracy":1,"Outcome":"+10","Keys":[1887.445000000298],"TotalKeys":1,"Block":1,"Trial":30,"Robot":1,"Valence":"Win","Action":"Go","Sham":0,"Color":"blue","trial_type":"pit-trial","trial_index":47,"time_elapsed":295241,"internal_node_id":"0.0-36.0","task_version":"test-retest-t4"},{"Rune":"rune_08_sigel","Hex":"#ffcc3399","Correct":-1,"Choice":-1,"RT":-1,"Accuracy":1,"Outcome":"-1","Keys":[],"TotalKeys":0,"Block":1,"Trial":31,"Robot":4,"Valence":"Lose","Action":"No-Go","Sham":0,"Color":"yellow","trial_type":"pit-trial","trial_index":48,"time_elapsed":299245,"internal_node_id":"0.0-37.0","task_version":"test-retest-t4"},{"Rune":"rune_08_mannaz","Hex":"#3366ff99","Correct":-1,"Choice":-1,"RT":-1,"Accuracy":1,"Outcome":"+10","Keys":[],"TotalKeys":0,"Block":1,"Trial":32,"Robot":2,"Valence":"Win","Action":"No-Go","Sham":0,"Color":"blue","trial_type":"pit-trial","trial_index":49,"time_elapsed":303249,"internal_node_id":"0.0-38.0","task_version":"test-retest-t4"},{"Rune":"rune_08_fehu","Hex":"#3366ff99","Correct":32,"Choice":32,"RT":407.8250000020489,"Accuracy":1,"Outcome":"+10","Keys":[1908.564999990631],"TotalKeys":1,"Block":1,"Trial":33,"Robot":1,"Valence":"Win","Action":"Go","Sham":0,"Color":"blue","trial_type":"pit-trial","trial_index":50,"time_elapsed":306159,"internal_node_id":"0.0-39.0","task_version":"test-retest-t4"},{"Rune":"rune_08_sigel","Hex":"#ffcc3399","Correct":-1,"Choice":-1,"RT":-1,"Accuracy":1,"Outcome":"-1","Keys":[],"TotalKeys":0,"Block":1,"Trial":34,"Robot":4,"Valence":"Lose","Action":"No-Go","Sham":0,"Color":"yellow","trial_type":"pit-trial","trial_index":51,"time_elapsed":310163,"internal_node_id":"0.0-40.0","task_version":"test-retest-t4"},{"Rune":"rune_08_pertho","Hex":"#ffcc3399","Correct":32,"Choice":32,"RT":279.37499998370185,"Accuracy":1,"Outcome":"-1","Keys":[1779.6849999576807],"TotalKeys":1,"Block":1,"Trial":35,"Robot":3,"Valence":"Lose","Action":"Go","Sham":0,"Color":"yellow","trial_type":"pit-trial","trial_index":52,"time_elapsed":312945,"internal_node_id":"0.0-41.0","task_version":"test-retest-t4"},{"Rune":"rune_08_mannaz","Hex":"#3366ff99","Correct":-1,"Choice":-1,"RT":-1,"Accuracy":1,"Outcome":"+1","Keys":[],"TotalKeys":0,"Block":1,"Trial":36,"Robot":2,"Valence":"Win","Action":"No-Go","Sham":1,"Color":"blue","trial_type":"pit-trial","trial_index":53,"time_elapsed":316949,"internal_node_id":"0.0-42.0","task_version":"test-retest-t4"},{"Rune":"rune_08_sigel","Hex":"#ffcc3399","Correct":-1,"Choice":-1,"RT":-1,"Accuracy":1,"Outcome":"-1","Keys":[],"TotalKeys":0,"Block":1,"Trial":37,"Robot":4,"Valence":"Lose","Action":"No-Go","Sham":0,"Color":"yellow","trial_type":"pit-trial","trial_index":54,"time_elapsed":320954,"internal_node_id":"0.0-43.0","task_version":"test-retest-t4"},{"Rune":"rune_08_mannaz","Hex":"#3366ff99","Correct":-1,"Choice":-1,"RT":-1,"Accuracy":1,"Outcome":"+10","Keys":[],"TotalKeys":0,"Block":1,"Trial":38,"Robot":2,"Valence":"Win","Action":"No-Go","Sham":0,"Color":"blue","trial_type":"pit-trial","trial_index":55,"time_elapsed":324959,"internal_node_id":"0.0-44.0","task_version":"test-retest-t4"},{"Rune":"rune_08_fehu","Hex":"#3366ff99","Correct":32,"Choice":32,"RT":355.31499999342486,"Accuracy":1,"Outcome":"+10","Keys":[1856.1449999688193],"TotalKeys":1,"Block":1,"Trial":39,"Robot":1,"Valence":"Win","Action":"Go","Sham":0,"Color":"blue","trial_type":"pit-trial","trial_index":56,"time_elapsed":327816,"internal_node_id":"0.0-45.0","task_version":"test-retest-t4"},{"Rune":"rune_08_pertho","Hex":"#ffcc3399","Correct":32,"Choice":32,"RT":357.5999999884516,"Accuracy":1,"Outcome":"-10","Keys":[1857.8299999935552],"TotalKeys":1,"Block":1,"Trial":40,"Robot":3,"Valence":"Lose","Action":"Go","Sham":1,"Color":"yellow","trial_type":"pit-trial","trial_index":57,"time_elapsed":330677,"internal_node_id":"0.0-46.0","task_version":"test-retest-t4"},{"Rune":"rune_08_sigel","Hex":"#ffcc3399","Correct":-1,"Choice":-1,"RT":-1,"Accuracy":1,"Outcome":"-1","Keys":[],"TotalKeys":0,"Block":1,"Trial":41,"Robot":4,"Valence":"Lose","Action":"No-Go","Sham":0,"Color":"yellow","trial_type":"pit-trial","trial_index":58,"time_elapsed":334681,"internal_node_id":"0.0-47.0","task_version":"test-retest-t4"},{"Rune":"rune_08_fehu","Hex":"#3366ff99","Correct":32,"Choice":32,"RT":437.33500002417713,"Accuracy":1,"Outcome":"+10","Keys":[1937.770000018645],"TotalKeys":1,"Block":1,"Trial":42,"Robot":1,"Valence":"Win","Action":"Go","Sham":0,"Color":"blue","trial_type":"pit-trial","trial_index":59,"time_elapsed":337621,"internal_node_id":"0.0-48.0","task_version":"test-retest-t4"},{"Rune":"rune_08_pertho","Hex":"#ffcc3399","Correct":32,"Choice":32,"RT":272.5300000165589,"Accuracy":1,"Outcome":"-1","Keys":[1772.9099999996834],"TotalKeys":1,"Block":1,"Trial":43,"Robot":3,"Valence":"Lose","Action":"Go","Sham":0,"Color":"yellow","trial_type":"pit-trial","trial_index":60,"time_elapsed":340397,"internal_node_id":"0.0-49.0","task_version":"test-retest-t4"},{"Rune":"rune_08_mannaz","Hex":"#3366ff99","Correct":-1,"Choice":32,"RT":343.16500002751127,"Accuracy":0,"Outcome":"+10","Keys":[1844.0449999761768],"TotalKeys":1,"Block":1,"Trial":44,"Robot":2,"Valence":"Win","Action":"No-Go","Sham":1,"Color":"blue","trial_type":"pit-trial","trial_index":61,"time_elapsed":343244,"internal_node_id":"0.0-50.0","task_version":"test-retest-t4"},{"Rune":"rune_08_fehu","Hex":"#3366ff99","Correct":32,"Choice":32,"RT":388.9649999910034,"Accuracy":1,"Outcome":"+1","Keys":[1889.339999994263],"TotalKeys":1,"Block":1,"Trial":45,"Robot":1,"Valence":"Win","Action":"Go","Sham":1,"Color":"blue","trial_type":"pit-trial","trial_index":62,"time_elapsed":346137,"internal_node_id":"0.0-51.0","task_version":"test-retest-t4"},{"Rune":"rune_08_mannaz","Hex":"#3366ff99","Correct":-1,"Choice":-1,"RT":-1,"Accuracy":1,"Outcome":"+10","Keys":[],"TotalKeys":0,"Block":1,"Trial":46,"Robot":2,"Valence":"Win","Action":"No-Go","Sham":0,"Color":"blue","trial_type":"pit-trial","trial_index":63,"time_elapsed":350140,"internal_node_id":"0.0-52.0","task_version":"test-retest-t4"},{"Rune":"rune_08_sigel","Hex":"#ffcc3399","Correct":-1,"Choice":-1,"RT":-1,"Accuracy":1,"Outcome":"-1","Keys":[],"TotalKeys":0,"Block":1,"Trial":47,"Robot":4,"Valence":"Lose","Action":"No-Go","Sham":0,"Color":"yellow","trial_type":"pit-trial","trial_index":64,"time_elapsed":354143,"internal_node_id":"0.0-53.0","task_version":"test-retest-t4"},{"Rune":"rune_08_pertho","Hex":"#ffcc3399","Correct":32,"Choice":32,"RT":389.85500001581386,"Accuracy":1,"Outcome":"-10","Keys":[1890.0099999736995],"TotalKeys":1,"Block":1,"Trial":48,"Robot":3,"Valence":"Lose","Action":"Go","Sham":1,"Color":"yellow","trial_type":"pit-trial","trial_index":65,"time_elapsed":357036,"internal_node_id":"0.0-54.0","task_version":"test-retest-t4"},{"Rune":"rune_08_mannaz","Hex":"#3366ff99","Correct":-1,"Choice":-1,"RT":-1,"Accuracy":1,"Outcome":"+10","Keys":[],"TotalKeys":0,"Block":1,"Trial":49,"Robot":2,"Valence":"Win","Action":"No-Go","Sham":0,"Color":"blue","trial_type":"pit-trial","trial_index":66,"time_elapsed":361040,"internal_node_id":"0.0-55.0","task_version":"test-retest-t4"},{"Rune":"rune_08_sigel","Hex":"#ffcc3399","Correct":-1,"Choice":-1,"RT":-1,"Accuracy":1,"Outcome":"-1","Keys":[],"TotalKeys":0,"Block":1,"Trial":50,"Robot":4,"Valence":"Lose","Action":"No-Go","Sham":0,"Color":"yellow","trial_type":"pit-trial","trial_index":67,"time_elapsed":365043,"internal_node_id":"0.0-56.0","task_version":"test-retest-t4"},{"Rune":"rune_08_fehu","Hex":"#3366ff99","Correct":32,"Choice":32,"RT":465.520000027027,"Accuracy":1,"Outcome":"+10","Keys":[1965.5800000182353],"TotalKeys":1,"Block":1,"Trial":51,"Robot":1,"Valence":"Win","Action":"Go","Sham":0,"Color":"blue","trial_type":"pit-trial","trial_index":68,"time_elapsed":368010,"internal_node_id":"0.0-57.0","task_version":"test-retest-t4"},{"Rune":"rune_08_pertho","Hex":"#ffcc3399","Correct":32,"Choice":32,"RT":341.7799999588169,"Accuracy":1,"Outcome":"-1","Keys":[1842.5599999609403],"TotalKeys":1,"Block":1,"Trial":52,"Robot":3,"Valence":"Lose","Action":"Go","Sham":0,"Color":"yellow","trial_type":"pit-trial","trial_index":69,"time_elapsed":370854,"internal_node_id":"0.0-58.0","task_version":"test-retest-t4"},{"Rune":"rune_08_fehu","Hex":"#3366ff99","Correct":32,"Choice":32,"RT":435.93999999575317,"Accuracy":1,"Outcome":"+10","Keys":[1936.7499999934807],"TotalKeys":1,"Block":1,"Trial":53,"Robot":1,"Valence":"Win","Action":"Go","Sham":0,"Color":"blue","trial_type":"pit-trial","trial_index":70,"time_elapsed":373793,"internal_node_id":"0.0-59.0","task_version":"test-retest-t4"},{"Rune":"rune_08_sigel","Hex":"#ffcc3399","Correct":-1,"Choice":-1,"RT":-1,"Accuracy":1,"Outcome":"-1","Keys":[],"TotalKeys":0,"Block":1,"Trial":54,"Robot":4,"Valence":"Lose","Action":"No-Go","Sham":0,"Color":"yellow","trial_type":"pit-trial","trial_index":71,"time_elapsed":377796,"internal_node_id":"0.0-60.0","task_version":"test-retest-t4"},{"Rune":"rune_08_pertho","Hex":"#ffcc3399","Correct":32,"Choice":32,"RT":343.349999981001,"Accuracy":1,"Outcome":"-1","Keys":[1844.8199999984354],"TotalKeys":1,"Block":1,"Trial":55,"Robot":3,"Valence":"Lose","Action":"Go","Sham":0,"Color":"yellow","trial_type":"pit-trial","trial_index":72,"time_elapsed":380643,"internal_node_id":"0.0-61.0","task_version":"test-retest-t4"},{"Rune":"rune_08_mannaz","Hex":"#3366ff99","Correct":-1,"Choice":-1,"RT":-1,"Accuracy":1,"Outcome":"+10","Keys":[],"TotalKeys":0,"Block":1,"Trial":56,"Robot":2,"Valence":"Win","Action":"No-Go","Sham":0,"Color":"blue","trial_type":"pit-trial","trial_index":73,"time_elapsed":384648,"internal_node_id":"0.0-62.0","task_version":"test-retest-t4"},{"Rune":"rune_08_pertho","Hex":"#ffcc3399","Correct":32,"Choice":32,"RT":354.2349999770522,"Accuracy":1,"Outcome":"-1","Keys":[1854.7450000187382],"TotalKeys":1,"Block":1,"Trial":57,"Robot":3,"Valence":"Lose","Action":"Go","Sham":0,"Color":"yellow","trial_type":"pit-trial","trial_index":74,"time_elapsed":387505,"internal_node_id":"0.0-63.0","task_version":"test-retest-t4"},{"Rune":"rune_08_mannaz","Hex":"#3366ff99","Correct":-1,"Choice":-1,"RT":-1,"Accuracy":1,"Outcome":"+10","Keys":[],"TotalKeys":0,"Block":1,"Trial":58,"Robot":2,"Valence":"Win","Action":"No-Go","Sham":0,"Color":"blue","trial_type":"pit-trial","trial_index":75,"time_elapsed":391509,"internal_node_id":"0.0-64.0","task_version":"test-retest-t4"},{"Rune":"rune_08_sigel","Hex":"#ffcc3399","Correct":-1,"Choice":-1,"RT":-1,"Accuracy":1,"Outcome":"-10","Keys":[],"TotalKeys":0,"Block":1,"Trial":59,"Robot":4,"Valence":"Lose","Action":"No-Go","Sham":1,"Color":"yellow","trial_type":"pit-trial","trial_index":76,"time_elapsed":395513,"internal_node_id":"0.0-65.0","task_version":"test-retest-t4"},{"Rune":"rune_08_fehu","Hex":"#3366ff99","Correct":32,"Choice":32,"RT":400.81500000087544,"Accuracy":1,"Outcome":"+10","Keys":[1901.3100000447594],"TotalKeys":1,"Block":1,"Trial":60,"Robot":1,"Valence":"Win","Action":"Go","Sham":0,"Color":"blue","trial_type":"pit-trial","trial_index":77,"time_elapsed":398416,"internal_node_id":"0.0-66.0","task_version":"test-retest-t4"},{"value":false,"trial_type":"call-function","trial_index":78,"time_elapsed":398418,"internal_node_id":"0.0-67.0","task_version":"test-retest-t4"},{"view_history":"[{\"page_index\":0,\"viewing_time\":2099.1350000258535},{\"page_index\":1,\"viewing_time\":1157.8849999932572}]","rt":3257.4400000157766,"trial_type":"pit-instructions","trial_index":79,"time_elapsed":401675,"internal_node_id":"0.0-68.0","task_version":"test-retest-t4"},{"Rune":"rune_08_pertho","Hex":"#ffcc3399","Correct":32,"Choice":32,"RT":364.9650000152178,"Accuracy":1,"Outcome":"-1","Keys":[1866.5250000194646],"TotalKeys":1,"Block":1,"Trial":61,"Robot":3,"Valence":"Lose","Action":"Go","Sham":0,"Color":"yellow","trial_type":"pit-trial","trial_index":80,"time_elapsed":404545,"internal_node_id":"0.0-69.0","task_version":"test-retest-t4"},{"Rune":"rune_08_mannaz","Hex":"#3366ff99","Correct":-1,"Choice":-1,"RT":-1,"Accuracy":1,"Outcome":"+10","Keys":[],"TotalKeys":0,"Block":1,"Trial":62,"Robot":2,"Valence":"Win","Action":"No-Go","Sham":0,"Color":"blue","trial_type":"pit-trial","trial_index":81,"time_elapsed":408549,"internal_node_id":"0.0-70.0","task_version":"test-retest-t4"},{"Rune":"rune_08_sigel","Hex":"#ffcc3399","Correct":-1,"Choice":-1,"RT":-1,"Accuracy":1,"Outcome":"-1","Keys":[],"TotalKeys":0,"Block":1,"Trial":63,"Robot":4,"Valence":"Lose","Action":"No-Go","Sham":0,"Color":"yellow","trial_type":"pit-trial","trial_index":82,"time_elapsed":412551,"internal_node_id":"0.0-71.0","task_version":"test-retest-t4"},{"Rune":"rune_08_fehu","Hex":"#3366ff99","Correct":32,"Choice":32,"RT":407.1299999486655,"Accuracy":1,"Outcome":"+10","Keys":[1907.6700000441633],"TotalKeys":1,"Block":1,"Trial":64,"Robot":1,"Valence":"Win","Action":"Go","Sham":0,"Color":"blue","trial_type":"pit-trial","trial_index":83,"time_elapsed":415461,"internal_node_id":"0.0-72.0","task_version":"test-retest-t4"},{"Rune":"rune_08_mannaz","Hex":"#3366ff99","Correct":-1,"Choice":-1,"RT":-1,"Accuracy":1,"Outcome":"+10","Keys":[],"TotalKeys":0,"Block":1,"Trial":65,"Robot":2,"Valence":"Win","Action":"No-Go","Sham":0,"Color":"blue","trial_type":"pit-trial","trial_index":84,"time_elapsed":419463,"internal_node_id":"0.0-73.0","task_version":"test-retest-t4"},{"Rune":"rune_08_sigel","Hex":"#ffcc3399","Correct":-1,"Choice":-1,"RT":-1,"Accuracy":1,"Outcome":"-1","Keys":[],"TotalKeys":0,"Block":1,"Trial":66,"Robot":4,"Valence":"Lose","Action":"No-Go","Sham":0,"Color":"yellow","trial_type":"pit-trial","trial_index":85,"time_elapsed":423467,"internal_node_id":"0.0-74.0","task_version":"test-retest-t4"},{"Rune":"rune_08_pertho","Hex":"#ffcc3399","Correct":32,"Choice":32,"RT":340.3600000310689,"Accuracy":1,"Outcome":"-10","Keys":[1841.3450000225566],"TotalKeys":1,"Block":1,"Trial":67,"Robot":3,"Valence":"Lose","Action":"Go","Sham":1,"Color":"yellow","trial_type":"pit-trial","trial_index":86,"time_elapsed":426311,"internal_node_id":"0.0-75.0","task_version":"test-retest-t4"},{"Rune":"rune_08_fehu","Hex":"#3366ff99","Correct":32,"Choice":32,"RT":385.3699999745004,"Accuracy":1,"Outcome":"+10","Keys":[1886.1000000033528],"TotalKeys":1,"Block":1,"Trial":68,"Robot":1,"Valence":"Win","Action":"Go","Sham":0,"Color":"blue","trial_type":"pit-trial","trial_index":87,"time_elapsed":429200,"internal_node_id":"0.0-76.0","task_version":"test-retest-t4"},{"Rune":"rune_08_mannaz","Hex":"#3366ff99","Correct":-1,"Choice":-1,"RT":-1,"Accuracy":1,"Outcome":"+1","Keys":[],"TotalKeys":0,"Block":1,"Trial":69,"Robot":2,"Valence":"Win","Action":"No-Go","Sham":1,"Color":"blue","trial_type":"pit-trial","trial_index":88,"time_elapsed":433203,"internal_node_id":"0.0-77.0","task_version":"test-retest-t4"},{"Rune":"rune_08_sigel","Hex":"#ffcc3399","Correct":-1,"Choice":-1,"RT":-1,"Accuracy":1,"Outcome":"-10","Keys":[],"TotalKeys":0,"Block":1,"Trial":70,"Robot":4,"Valence":"Lose","Action":"No-Go","Sham":1,"Color":"yellow","trial_type":"pit-trial","trial_index":89,"time_elapsed":437206,"internal_node_id":"0.0-78.0","task_version":"test-retest-t4"},{"Rune":"rune_08_pertho","Hex":"#ffcc3399","Correct":32,"Choice":32,"RT":344.8249999783002,"Accuracy":1,"Outcome":"-1","Keys":[1845.1050000148825],"TotalKeys":1,"Block":1,"Trial":71,"Robot":3,"Valence":"Lose","Action":"Go","Sham":0,"Color":"yellow","trial_type":"pit-trial","trial_index":90,"time_elapsed":440054,"internal_node_id":"0.0-79.0","task_version":"test-retest-t4"},{"Rune":"rune_08_fehu","Hex":"#3366ff99","Correct":32,"Choice":32,"RT":442.8450000123121,"Accuracy":1,"Outcome":"+10","Keys":[1944.4800000055693],"TotalKeys":1,"Block":1,"Trial":72,"Robot":1,"Valence":"Win","Action":"Go","Sham":0,"Color":"blue","trial_type":"pit-trial","trial_index":91,"time_elapsed":443001,"internal_node_id":"0.0-80.0","task_version":"test-retest-t4"},{"Rune":"rune_08_sigel","Hex":"#ffcc3399","Correct":-1,"Choice":-1,"RT":-1,"Accuracy":1,"Outcome":"-1","Keys":[],"TotalKeys":0,"Block":1,"Trial":73,"Robot":4,"Valence":"Lose","Action":"No-Go","Sham":0,"Color":"yellow","trial_type":"pit-trial","trial_index":92,"time_elapsed":447004,"internal_node_id":"0.0-81.0","task_version":"test-retest-t4"},{"Rune":"rune_08_mannaz","Hex":"#3366ff99","Correct":-1,"Choice":-1,"RT":-1,"Accuracy":1,"Outcome":"+10","Keys":[],"TotalKeys":0,"Block":1,"Trial":74,"Robot":2,"Valence":"Win","Action":"No-Go","Sham":0,"Color":"blue","trial_type":"pit-trial","trial_index":93,"time_elapsed":451007,"internal_node_id":"0.0-82.0","task_version":"test-retest-t4"},{"Rune":"rune_08_fehu","Hex":"#3366ff99","Correct":32,"Choice":32,"RT":403.51999999256805,"Accuracy":1,"Outcome":"+10","Keys":[1904.3999999994412],"TotalKeys":1,"Block":1,"Trial":75,"Robot":1,"Valence":"Win","Action":"Go","Sham":0,"Color":"blue","trial_type":"pit-trial","trial_index":94,"time_elapsed":453913,"internal_node_id":"0.0-83.0","task_version":"test-retest-t4"},{"Rune":"rune_08_pertho","Hex":"#ffcc3399","Correct":32,"Choice":32,"RT":409.4850000110455,"Accuracy":1,"Outcome":"-1","Keys":[1910.1900000241585],"TotalKeys":1,"Block":1,"Trial":76,"Robot":3,"Valence":"Lose","Action":"Go","Sham":0,"Color":"yellow","trial_type":"pit-trial","trial_index":95,"time_elapsed":456826,"internal_node_id":"0.0-84.0","task_version":"test-retest-t4"},{"Rune":"rune_08_pertho","Hex":"#ffcc3399","Correct":32,"Choice":32,"RT":364.2950000357814,"Accuracy":1,"Outcome":"-1","Keys":[1864.7950000013225],"TotalKeys":1,"Block":1,"Trial":77,"Robot":3,"Valence":"Lose","Action":"Go","Sham":0,"Color":"yellow","trial_type":"pit-trial","trial_index":96,"time_elapsed":459692,"internal_node_id":"0.0-85.0","task_version":"test-retest-t4"},{"Rune":"rune_08_sigel","Hex":"#ffcc3399","Correct":-1,"Choice":-1,"RT":-1,"Accuracy":1,"Outcome":"-1","Keys":[],"TotalKeys":0,"Block":1,"Trial":78,"Robot":4,"Valence":"Lose","Action":"No-Go","Sham":0,"Color":"yellow","trial_type":"pit-trial","trial_index":97,"time_elapsed":463697,"internal_node_id":"0.0-86.0","task_version":"test-retest-t4"},{"Rune":"rune_08_mannaz","Hex":"#3366ff99","Correct":-1,"Choice":-1,"RT":-1,"Accuracy":1,"Outcome":"+10","Keys":[],"TotalKeys":0,"Block":1,"Trial":79,"Robot":2,"Valence":"Win","Action":"No-Go","Sham":0,"Color":"blue","trial_type":"pit-trial","trial_index":98,"time_elapsed":467700,"internal_node_id":"0.0-87.0","task_version":"test-retest-t4"},{"Rune":"rune_08_fehu","Hex":"#3366ff99","Correct":32,"Choice":32,"RT":482.64000000199303,"Accuracy":1,"Outcome":"+1","Keys":[1982.9199999803677],"TotalKeys":1,"Block":1,"Trial":80,"Robot":1,"Valence":"Win","Action":"Go","Sham":1,"Color":"blue","trial_type":"pit-trial","trial_index":99,"time_elapsed":470685,"internal_node_id":"0.0-88.0","task_version":"test-retest-t4"},{"Rune":"rune_08_pertho","Hex":"#ffcc3399","Correct":32,"Choice":32,"RT":419.179999968037,"Accuracy":1,"Outcome":"-10","Keys":[1920.2899999800138],"TotalKeys":1,"Block":1,"Trial":81,"Robot":3,"Valence":"Lose","Action":"Go","Sham":1,"Color":"yellow","trial_type":"pit-trial","trial_index":100,"time_elapsed":473609,"internal_node_id":"0.0-89.0","task_version":"test-retest-t4"},{"Rune":"rune_08_mannaz","Hex":"#3366ff99","Correct":-1,"Choice":-1,"RT":-1,"Accuracy":1,"Outcome":"+10","Keys":[],"TotalKeys":0,"Block":1,"Trial":82,"Robot":2,"Valence":"Win","Action":"No-Go","Sham":0,"Color":"blue","trial_type":"pit-trial","trial_index":101,"time_elapsed":477614,"internal_node_id":"0.0-90.0","task_version":"test-retest-t4"},{"Rune":"rune_08_fehu","Hex":"#3366ff99","Correct":32,"Choice":32,"RT":405.29000002425164,"Accuracy":1,"Outcome":"+10","Keys":[1907.0800000336021],"TotalKeys":1,"Block":1,"Trial":83,"Robot":1,"Valence":"Win","Action":"Go","Sham":0,"Color":"blue","trial_type":"pit-trial","trial_index":102,"time_elapsed":480524,"internal_node_id":"0.0-91.0","task_version":"test-retest-t4"},{"Rune":"rune_08_sigel","Hex":"#ffcc3399","Correct":-1,"Choice":-1,"RT":-1,"Accuracy":1,"Outcome":"-1","Keys":[],"TotalKeys":0,"Block":1,"Trial":84,"Robot":4,"Valence":"Lose","Action":"No-Go","Sham":0,"Color":"yellow","trial_type":"pit-trial","trial_index":103,"time_elapsed":484526,"internal_node_id":"0.0-92.0","task_version":"test-retest-t4"},{"Rune":"rune_08_pertho","Hex":"#ffcc3399","Correct":32,"Choice":32,"RT":326.73499995144084,"Accuracy":1,"Outcome":"-1","Keys":[1827.7149999630637],"TotalKeys":1,"Block":1,"Trial":85,"Robot":3,"Valence":"Lose","Action":"Go","Sham":0,"Color":"yellow","trial_type":"pit-trial","trial_index":104,"time_elapsed":487356,"internal_node_id":"0.0-93.0","task_version":"test-retest-t4"},{"Rune":"rune_08_sigel","Hex":"#ffcc3399","Correct":-1,"Choice":-1,"RT":-1,"Accuracy":1,"Outcome":"-1","Keys":[],"TotalKeys":0,"Block":1,"Trial":86,"Robot":4,"Valence":"Lose","Action":"No-Go","Sham":0,"Color":"yellow","trial_type":"pit-trial","trial_index":105,"time_elapsed":491359,"internal_node_id":"0.0-94.0","task_version":"test-retest-t4"},{"Rune":"rune_08_mannaz","Hex":"#3366ff99","Correct":-1,"Choice":-1,"RT":-1,"Accuracy":1,"Outcome":"+10","Keys":[],"TotalKeys":0,"Block":1,"Trial":87,"Robot":2,"Valence":"Win","Action":"No-Go","Sham":0,"Color":"blue","trial_type":"pit-trial","trial_index":106,"time_elapsed":495362,"internal_node_id":"0.0-95.0","task_version":"test-retest-t4"},{"Rune":"rune_08_fehu","Hex":"#3366ff99","Correct":32,"Choice":32,"RT":350.330000044778,"Accuracy":1,"Outcome":"+10","Keys":[1850.9349999949336],"TotalKeys":1,"Block":1,"Trial":88,"Robot":1,"Valence":"Win","Action":"Go","Sham":0,"Color":"blue","trial_type":"pit-trial","trial_index":107,"time_elapsed":498214,"internal_node_id":"0.0-96.0","task_version":"test-retest-t4"},{"Rune":"rune_08_sigel","Hex":"#ffcc3399","Correct":-1,"Choice":-1,"RT":-1,"Accuracy":1,"Outcome":"-1","Keys":[],"TotalKeys":0,"Block":1,"Trial":89,"Robot":4,"Valence":"Lose","Action":"No-Go","Sham":0,"Color":"yellow","trial_type":"pit-trial","trial_index":108,"time_elapsed":502218,"internal_node_id":"0.0-97.0","task_version":"test-retest-t4"},{"Rune":"rune_08_pertho","Hex":"#ffcc3399","Correct":32,"Choice":32,"RT":362.0650000520982,"Accuracy":1,"Outcome":"-1","Keys":[1863.0999999586493],"TotalKeys":1,"Block":1,"Trial":90,"Robot":3,"Valence":"Lose","Action":"Go","Sham":0,"Color":"yellow","trial_type":"pit-trial","trial_index":109,"time_elapsed":505084,"internal_node_id":"0.0-98.0","task_version":"test-retest-t4"},{"Rune":"rune_08_fehu","Hex":"#3366ff99","Correct":32,"Choice":32,"RT":387.63999997172505,"Accuracy":1,"Outcome":"+10","Keys":[1888.5449999943376],"TotalKeys":1,"Block":1,"Trial":91,"Robot":1,"Valence":"Win","Action":"Go","Sham":0,"Color":"blue","trial_type":"pit-trial","trial_index":110,"time_elapsed":507976,"internal_node_id":"0.0-99.0","task_version":"test-retest-t4"},{"Rune":"rune_08_mannaz","Hex":"#3366ff99","Correct":-1,"Choice":-1,"RT":-1,"Accuracy":1,"Outcome":"+1","Keys":[],"TotalKeys":0,"Block":1,"Trial":92,"Robot":2,"Valence":"Win","Action":"No-Go","Sham":1,"Color":"blue","trial_type":"pit-trial","trial_index":111,"time_elapsed":511980,"internal_node_id":"0.0-100.0","task_version":"test-retest-t4"},{"Rune":"rune_08_sigel","Hex":"#ffcc3399","Correct":-1,"Choice":-1,"RT":-1,"Accuracy":1,"Outcome":"-10","Keys":[],"TotalKeys":0,"Block":1,"Trial":93,"Robot":4,"Valence":"Lose","Action":"No-Go","Sham":1,"Color":"yellow","trial_type":"pit-trial","trial_index":112,"time_elapsed":515983,"internal_node_id":"0.0-101.0","task_version":"test-retest-t4"},{"Rune":"rune_08_mannaz","Hex":"#3366ff99","Correct":-1,"Choice":-1,"RT":-1,"Accuracy":1,"Outcome":"+10","Keys":[],"TotalKeys":0,"Block":1,"Trial":94,"Robot":2,"Valence":"Win","Action":"No-Go","Sham":0,"Color":"blue","trial_type":"pit-trial","trial_index":113,"time_elapsed":519987,"internal_node_id":"0.0-102.0","task_version":"test-retest-t4"},{"Rune":"rune_08_pertho","Hex":"#ffcc3399","Correct":32,"Choice":32,"RT":332.5450000120327,"Accuracy":1,"Outcome":"-1","Keys":[1833.9500000001863],"TotalKeys":1,"Block":1,"Trial":95,"Robot":3,"Valence":"Lose","Action":"Go","Sham":0,"Color":"yellow","trial_type":"pit-trial","trial_index":114,"time_elapsed":522826,"internal_node_id":"0.0-103.0","task_version":"test-retest-t4"},{"Rune":"rune_08_fehu","Hex":"#3366ff99","Correct":32,"Choice":32,"RT":356.3999999896623,"Accuracy":1,"Outcome":"+10","Keys":[1857.2849999764003],"TotalKeys":1,"Block":1,"Trial":96,"Robot":1,"Valence":"Win","Action":"Go","Sham":0,"Color":"blue","trial_type":"pit-trial","trial_index":115,"time_elapsed":525686,"internal_node_id":"0.0-104.0","task_version":"test-retest-t4"},{"Rune":"rune_08_fehu","Hex":"#3366ff99","Correct":32,"Choice":32,"RT":298.73500001849607,"Accuracy":1,"Outcome":"+1","Keys":[1834.3199999653734],"TotalKeys":1,"Block":1,"Trial":97,"Robot":1,"Valence":"Win","Action":"Go","Sham":1,"Color":"blue","trial_type":"pit-trial","trial_index":116,"time_elapsed":528522,"internal_node_id":"0.0-105.0","task_version":"test-retest-t4"},{"Rune":"rune_08_sigel","Hex":"#ffcc3399","Correct":-1,"Choice":-1,"RT":-1,"Accuracy":1,"Outcome":"-1","Keys":[],"TotalKeys":0,"Block":1,"Trial":98,"Robot":4,"Valence":"Lose","Action":"No-Go","Sham":0,"Color":"yellow","trial_type":"pit-trial","trial_index":117,"time_elapsed":532526,"internal_node_id":"0.0-106.0","task_version":"test-retest-t4"},{"Rune":"rune_08_pertho","Hex":"#ffcc3399","Correct":32,"Choice":32,"RT":416.09499999322,"Accuracy":1,"Outcome":"-1","Keys":[1916.4100000052713],"TotalKeys":1,"Block":1,"Trial":99,"Robot":3,"Valence":"Lose","Action":"Go","Sham":0,"Color":"yellow","trial_type":"pit-trial","trial_index":118,"time_elapsed":535444,"internal_node_id":"0.0-107.0","task_version":"test-retest-t4"},{"Rune":"rune_08_mannaz","Hex":"#3366ff99","Correct":-1,"Choice":-1,"RT":-1,"Accuracy":1,"Outcome":"+10","Keys":[],"TotalKeys":0,"Block":1,"Trial":100,"Robot":2,"Valence":"Win","Action":"No-Go","Sham":0,"Color":"blue","trial_type":"pit-trial","trial_index":119,"time_elapsed":539447,"internal_node_id":"0.0-108.0","task_version":"test-retest-t4"},{"Rune":"rune_08_sigel","Hex":"#ffcc3399","Correct":-1,"Choice":-1,"RT":-1,"Accuracy":1,"Outcome":"-10","Keys":[],"TotalKeys":0,"Block":1,"Trial":101,"Robot":4,"Valence":"Lose","Action":"No-Go","Sham":1,"Color":"yellow","trial_type":"pit-trial","trial_index":120,"time_elapsed":543450,"internal_node_id":"0.0-109.0","task_version":"test-retest-t4"},{"Rune":"rune_08_pertho","Hex":"#ffcc3399","Correct":32,"Choice":32,"RT":314.56999998772517,"Accuracy":1,"Outcome":"-10","Keys":[1815.0599999935366],"TotalKeys":1,"Block":1,"Trial":102,"Robot":3,"Valence":"Lose","Action":"Go","Sham":1,"Color":"yellow","trial_type":"pit-trial","trial_index":121,"time_elapsed":546267,"internal_node_id":"0.0-110.0","task_version":"test-retest-t4"},{"Rune":"rune_08_fehu","Hex":"#3366ff99","Correct":32,"Choice":32,"RT":408.53499999502674,"Accuracy":1,"Outcome":"+10","Keys":[1908.9750000275671],"TotalKeys":1,"Block":1,"Trial":103,"Robot":1,"Valence":"Win","Action":"Go","Sham":0,"Color":"blue","trial_type":"pit-trial","trial_index":122,"time_elapsed":549178,"internal_node_id":"0.0-111.0","task_version":"test-retest-t4"},{"Rune":"rune_08_mannaz","Hex":"#3366ff99","Correct":-1,"Choice":-1,"RT":-1,"Accuracy":1,"Outcome":"+10","Keys":[],"TotalKeys":0,"Block":1,"Trial":104,"Robot":2,"Valence":"Win","Action":"No-Go","Sham":0,"Color":"blue","trial_type":"pit-trial","trial_index":123,"time_elapsed":553192,"internal_node_id":"0.0-112.0","task_version":"test-retest-t4"},{"Rune":"rune_08_fehu","Hex":"#3366ff99","Correct":32,"Choice":32,"RT":452.2399999550544,"Accuracy":1,"Outcome":"+10","Keys":[1952.5800000410527],"TotalKeys":1,"Block":1,"Trial":105,"Robot":1,"Valence":"Win","Action":"Go","Sham":0,"Color":"blue","trial_type":"pit-trial","trial_index":124,"time_elapsed":556147,"internal_node_id":"0.0-113.0","task_version":"test-retest-t4"},{"Rune":"rune_08_sigel","Hex":"#ffcc3399","Correct":-1,"Choice":-1,"RT":-1,"Accuracy":1,"Outcome":"-1","Keys":[],"TotalKeys":0,"Block":1,"Trial":106,"Robot":4,"Valence":"Lose","Action":"No-Go","Sham":0,"Color":"yellow","trial_type":"pit-trial","trial_index":125,"time_elapsed":560150,"internal_node_id":"0.0-114.0","task_version":"test-retest-t4"},{"Rune":"rune_08_pertho","Hex":"#ffcc3399","Correct":32,"Choice":32,"RT":319.50000004144385,"Accuracy":1,"Outcome":"-1","Keys":[1820.5049999523908],"TotalKeys":1,"Block":1,"Trial":107,"Robot":3,"Valence":"Lose","Action":"Go","Sham":0,"Color":"yellow","trial_type":"pit-trial","trial_index":126,"time_elapsed":562975,"internal_node_id":"0.0-115.0","task_version":"test-retest-t4"},{"Rune":"rune_08_mannaz","Hex":"#3366ff99","Correct":-1,"Choice":-1,"RT":-1,"Accuracy":1,"Outcome":"+10","Keys":[],"TotalKeys":0,"Block":1,"Trial":108,"Robot":2,"Valence":"Win","Action":"No-Go","Sham":0,"Color":"blue","trial_type":"pit-trial","trial_index":127,"time_elapsed":566979,"internal_node_id":"0.0-116.0","task_version":"test-retest-t4"},{"Rune":"rune_08_pertho","Hex":"#ffcc3399","Correct":32,"Choice":32,"RT":278.1550000072457,"Accuracy":1,"Outcome":"-1","Keys":[1779.0099999983795],"TotalKeys":1,"Block":1,"Trial":109,"Robot":3,"Valence":"Lose","Action":"Go","Sham":0,"Color":"yellow","trial_type":"pit-trial","trial_index":128,"time_elapsed":569760,"internal_node_id":"0.0-117.0","task_version":"test-retest-t4"},{"Rune":"rune_08_mannaz","Hex":"#3366ff99","Correct":-1,"Choice":-1,"RT":-1,"Accuracy":1,"Outcome":"+1","Keys":[],"TotalKeys":0,"Block":1,"Trial":110,"Robot":2,"Valence":"Win","Action":"No-Go","Sham":1,"Color":"blue","trial_type":"pit-trial","trial_index":129,"time_elapsed":573765,"internal_node_id":"0.0-118.0","task_version":"test-retest-t4"},{"Rune":"rune_08_sigel","Hex":"#ffcc3399","Correct":-1,"Choice":-1,"RT":-1,"Accuracy":1,"Outcome":"-1","Keys":[],"TotalKeys":0,"Block":1,"Trial":111,"Robot":4,"Valence":"Lose","Action":"No-Go","Sham":0,"Color":"yellow","trial_type":"pit-trial","trial_index":130,"time_elapsed":577768,"internal_node_id":"0.0-119.0","task_version":"test-retest-t4"},{"Rune":"rune_08_fehu","Hex":"#3366ff99","Correct":32,"Choice":32,"RT":469.2100000102073,"Accuracy":1,"Outcome":"+1","Keys":[1969.3400000105612],"TotalKeys":1,"Block":1,"Trial":112,"Robot":1,"Valence":"Win","Action":"Go","Sham":1,"Color":"blue","trial_type":"pit-trial","trial_index":131,"time_elapsed":580739,"internal_node_id":"0.0-120.0","task_version":"test-retest-t4"},{"Rune":"rune_08_sigel","Hex":"#ffcc3399","Correct":-1,"Choice":-1,"RT":-1,"Accuracy":1,"Outcome":"-1","Keys":[],"TotalKeys":0,"Block":1,"Trial":113,"Robot":4,"Valence":"Lose","Action":"No-Go","Sham":0,"Color":"yellow","trial_type":"pit-trial","trial_index":132,"time_elapsed":584742,"internal_node_id":"0.0-121.0","task_version":"test-retest-t4"},{"Rune":"rune_08_pertho","Hex":"#ffcc3399","Correct":32,"Choice":32,"RT":451.2249999679625,"Accuracy":1,"Outcome":"-1","Keys":[1951.679999998305],"TotalKeys":1,"Block":1,"Trial":114,"Robot":3,"Valence":"Lose","Action":"Go","Sham":0,"Color":"yellow","trial_type":"pit-trial","trial_index":133,"time_elapsed":587699,"internal_node_id":"0.0-122.0","task_version":"test-retest-t4"},{"Rune":"rune_08_fehu","Hex":"#3366ff99","Correct":32,"Choice":32,"RT":501.7949999892153,"Accuracy":1,"Outcome":"+10","Keys":[2002.2749999770895],"TotalKeys":1,"Block":1,"Trial":115,"Robot":1,"Valence":"Win","Action":"Go","Sham":0,"Color":"blue","trial_type":"pit-trial","trial_index":134,"time_elapsed":590707,"internal_node_id":"0.0-123.0","task_version":"test-retest-t4"},{"Rune":"rune_08_mannaz","Hex":"#3366ff99","Correct":-1,"Choice":-1,"RT":-1,"Accuracy":1,"Outcome":"+10","Keys":[],"TotalKeys":0,"Block":1,"Trial":116,"Robot":2,"Valence":"Win","Action":"No-Go","Sham":0,"Color":"blue","trial_type":"pit-trial","trial_index":135,"time_elapsed":594711,"internal_node_id":"0.0-124.0","task_version":"test-retest-t4"},{"Rune":"rune_08_mannaz","Hex":"#3366ff99","Correct":-1,"Choice":-1,"RT":-1,"Accuracy":1,"Outcome":"+10","Keys":[],"TotalKeys":0,"Block":1,"Trial":117,"Robot":2,"Valence":"Win","Action":"No-Go","Sham":0,"Color":"blue","trial_type":"pit-trial","trial_index":136,"time_elapsed":598716,"internal_node_id":"0.0-125.0","task_version":"test-retest-t4"},{"Rune":"rune_08_fehu","Hex":"#3366ff99","Correct":32,"Choice":32,"RT":403.65499997278675,"Accuracy":1,"Outcome":"+10","Keys":[1905.5999999982305],"TotalKeys":1,"Block":1,"Trial":118,"Robot":1,"Valence":"Win","Action":"Go","Sham":0,"Color":"blue","trial_type":"pit-trial","trial_index":137,"time_elapsed":601625,"internal_node_id":"0.0-126.0","task_version":"test-retest-t4"},{"Rune":"rune_08_sigel","Hex":"#ffcc3399","Correct":-1,"Choice":-1,"RT":-1,"Accuracy":1,"Outcome":"-1","Keys":[],"TotalKeys":0,"Block":1,"Trial":119,"Robot":4,"Valence":"Lose","Action":"No-Go","Sham":0,"Color":"yellow","trial_type":"pit-trial","trial_index":138,"time_elapsed":605628,"internal_node_id":"0.0-127.0","task_version":"test-retest-t4"},{"Rune":"rune_08_pertho","Hex":"#ffcc3399","Correct":32,"Choice":32,"RT":337.1900000493042,"Accuracy":1,"Outcome":"-1","Keys":[1838.3100000210106],"TotalKeys":1,"Block":1,"Trial":120,"Robot":3,"Valence":"Lose","Action":"Go","Sham":0,"Color":"yellow","trial_type":"pit-trial","trial_index":139,"time_elapsed":608468,"internal_node_id":"0.0-128.0","task_version":"test-retest-t4"},{"view_history":"[{\"page_index\":0,\"viewing_time\":14976.989999995567},{\"page_index\":1,\"viewing_time\":1100.6949999718927},{\"page_index\":2,\"viewing_time\":1131.4049999928102}]","rt":17209.374999976717,"trial_type":"pit-instructions","trial_index":140,"time_elapsed":625678,"internal_node_id":"0.0-129.0","task_version":"test-retest-t4"},{"Rune":"rune_07_gar","Hex":"#ffcc3399","Correct":32,"Choice":32,"RT":716.6349999606609,"Accuracy":1,"Outcome":"-1","Keys":[2218.0349999689497],"TotalKeys":1,"Block":2,"Trial":121,"Robot":3,"Valence":"Lose","Action":"Go","Sham":0,"Color":"yellow","trial_type":"pit-trial","trial_index":141,"time_elapsed":628899,"internal_node_id":"0.0-130.0","task_version":"test-retest-t4"},{"Rune":"rune_07_laukaz","Hex":"#3366ff99","Correct":-1,"Choice":-1,"RT":-1,"Accuracy":1,"Outcome":"+10","Keys":[],"TotalKeys":0,"Block":2,"Trial":122,"Robot":2,"Valence":"Win","Action":"No-Go","Sham":0,"Color":"blue","trial_type":"pit-trial","trial_index":142,"time_elapsed":632901,"internal_node_id":"0.0-131.0","task_version":"test-retest-t4"},{"Rune":"rune_07_thurisaz","Hex":"#3366ff99","Correct":32,"Choice":32,"RT":468.4899999992922,"Accuracy":1,"Outcome":"+10","Keys":[1970.1249999925494],"TotalKeys":1,"Block":2,"Trial":123,"Robot":1,"Valence":"Win","Action":"Go","Sham":0,"Color":"blue","trial_type":"pit-trial","trial_index":143,"time_elapsed":635873,"internal_node_id":"0.0-132.0","task_version":"test-retest-t4"},{"Rune":"rune_07_kauna","Hex":"#ffcc3399","Correct":-1,"Choice":-1,"RT":-1,"Accuracy":1,"Outcome":"-1","Keys":[],"TotalKeys":0,"Block":2,"Trial":124,"Robot":4,"Valence":"Lose","Action":"No-Go","Sham":0,"Color":"yellow","trial_type":"pit-trial","trial_index":144,"time_elapsed":639879,"internal_node_id":"0.0-133.0","task_version":"test-retest-t4"},{"Rune":"rune_07_gar","Hex":"#ffcc3399","Correct":32,"Choice":32,"RT":465.5800000182353,"Accuracy":1,"Outcome":"-1","Keys":[1965.7350000343286],"TotalKeys":1,"Block":2,"Trial":125,"Robot":3,"Valence":"Lose","Action":"Go","Sham":0,"Color":"yellow","trial_type":"pit-trial","trial_index":145,"time_elapsed":642846,"internal_node_id":"0.0-134.0","task_version":"test-retest-t4"},{"Rune":"rune_07_kauna","Hex":"#ffcc3399","Correct":-1,"Choice":-1,"RT":-1,"Accuracy":1,"Outcome":"-1","Keys":[],"TotalKeys":0,"Block":2,"Trial":126,"Robot":4,"Valence":"Lose","Action":"No-Go","Sham":0,"Color":"yellow","trial_type":"pit-trial","trial_index":146,"time_elapsed":646849,"internal_node_id":"0.0-135.0","task_version":"test-retest-t4"},{"Rune":"rune_07_thurisaz","Hex":"#3366ff99","Correct":32,"Choice":32,"RT":367.0799999963492,"Accuracy":1,"Outcome":"+10","Keys":[1868.300000031013],"TotalKeys":1,"Block":2,"Trial":127,"Robot":1,"Valence":"Win","Action":"Go","Sham":0,"Color":"blue","trial_type":"pit-trial","trial_index":147,"time_elapsed":649720,"internal_node_id":"0.0-136.0","task_version":"test-retest-t4"},{"Rune":"rune_07_laukaz","Hex":"#3366ff99","Correct":-1,"Choice":-1,"RT":-1,"Accuracy":1,"Outcome":"+10","Keys":[],"TotalKeys":0,"Block":2,"Trial":128,"Robot":2,"Valence":"Win","Action":"No-Go","Sham":0,"Color":"blue","trial_type":"pit-trial","trial_index":148,"time_elapsed":653723,"internal_node_id":"0.0-137.0","task_version":"test-retest-t4"},{"Rune":"rune_07_gar","Hex":"#ffcc3399","Correct":32,"Choice":32,"RT":364.4349999958649,"Accuracy":1,"Outcome":"-1","Keys":[1865.7750000129454],"TotalKeys":1,"Block":2,"Trial":129,"Robot":3,"Valence":"Lose","Action":"Go","Sham":0,"Color":"yellow","trial_type":"pit-trial","trial_index":149,"time_elapsed":656590,"internal_node_id":"0.0-138.0","task_version":"test-retest-t4"},{"Rune":"rune_07_thurisaz","Hex":"#3366ff99","Correct":32,"Choice":32,"RT":495.02500001108274,"Accuracy":1,"Outcome":"+10","Keys":[1996.5850000153296],"TotalKeys":1,"Block":2,"Trial":130,"Robot":1,"Valence":"Win","Action":"Go","Sham":0,"Color":"blue","trial_type":"pit-trial","trial_index":150,"time_elapsed":659590,"internal_node_id":"0.0-139.0","task_version":"test-retest-t4"},{"Rune":"rune_07_kauna","Hex":"#ffcc3399","Correct":-1,"Choice":-1,"RT":-1,"Accuracy":1,"Outcome":"-10","Keys":[],"TotalKeys":0,"Block":2,"Trial":131,"Robot":4,"Valence":"Lose","Action":"No-Go","Sham":1,"Color":"yellow","trial_type":"pit-trial","trial_index":151,"time_elapsed":663593,"internal_node_id":"0.0-140.0","task_version":"test-retest-t4"},{"Rune":"rune_07_laukaz","Hex":"#3366ff99","Correct":-1,"Choice":-1,"RT":-1,"Accuracy":1,"Outcome":"+10","Keys":[],"TotalKeys":0,"Block":2,"Trial":132,"Robot":2,"Valence":"Win","Action":"No-Go","Sham":0,"Color":"blue","trial_type":"pit-trial","trial_index":152,"time_elapsed":667598,"internal_node_id":"0.0-141.0","task_version":"test-retest-t4"},{"Rune":"rune_07_thurisaz","Hex":"#3366ff99","Correct":32,"Choice":32,"RT":482.01500001596287,"Accuracy":1,"Outcome":"+1","Keys":[1982.1349999983795],"TotalKeys":1,"Block":2,"Trial":133,"Robot":1,"Valence":"Win","Action":"Go","Sham":1,"Color":"blue","trial_type":"pit-trial","trial_index":153,"time_elapsed":670583,"internal_node_id":"0.0-142.0","task_version":"test-retest-t4"},{"Rune":"rune_07_gar","Hex":"#ffcc3399","Correct":32,"Choice":32,"RT":333.24000000720844,"Accuracy":1,"Outcome":"-1","Keys":[1833.669999963604],"TotalKeys":1,"Block":2,"Trial":134,"Robot":3,"Valence":"Lose","Action":"Go","Sham":0,"Color":"yellow","trial_type":"pit-trial","trial_index":154,"time_elapsed":673419,"internal_node_id":"0.0-143.0","task_version":"test-retest-t4"},{"Rune":"rune_07_kauna","Hex":"#ffcc3399","Correct":-1,"Choice":-1,"RT":-1,"Accuracy":1,"Outcome":"-1","Keys":[],"TotalKeys":0,"Block":2,"Trial":135,"Robot":4,"Valence":"Lose","Action":"No-Go","Sham":0,"Color":"yellow","trial_type":"pit-trial","trial_index":155,"time_elapsed":677421,"internal_node_id":"0.0-144.0","task_version":"test-retest-t4"},{"Rune":"rune_07_laukaz","Hex":"#3366ff99","Correct":-1,"Choice":-1,"RT":-1,"Accuracy":1,"Outcome":"+1","Keys":[],"TotalKeys":0,"Block":2,"Trial":136,"Robot":2,"Valence":"Win","Action":"No-Go","Sham":1,"Color":"blue","trial_type":"pit-trial","trial_index":156,"time_elapsed":681424,"internal_node_id":"0.0-145.0","task_version":"test-retest-t4"},{"Rune":"rune_07_thurisaz","Hex":"#3366ff99","Correct":32,"Choice":32,"RT":421.31999996490777,"Accuracy":1,"Outcome":"+10","Keys":[1921.5299999923445],"TotalKeys":1,"Block":2,"Trial":137,"Robot":1,"Valence":"Win","Action":"Go","Sham":0,"Color":"blue","trial_type":"pit-trial","trial_index":157,"time_elapsed":684350,"internal_node_id":"0.0-146.0","task_version":"test-retest-t4"},{"Rune":"rune_07_kauna","Hex":"#ffcc3399","Correct":-1,"Choice":-1,"RT":-1,"Accuracy":1,"Outcome":"-1","Keys":[],"TotalKeys":0,"Block":2,"Trial":138,"Robot":4,"Valence":"Lose","Action":"No-Go","Sham":0,"Color":"yellow","trial_type":"pit-trial","trial_index":158,"time_elapsed":688354,"internal_node_id":"0.0-147.0","task_version":"test-retest-t4"},{"Rune":"rune_07_gar","Hex":"#ffcc3399","Correct":32,"Choice":32,"RT":426.8850000225939,"Accuracy":1,"Outcome":"-10","Keys":[1927.075000014156],"TotalKeys":1,"Block":2,"Trial":139,"Robot":3,"Valence":"Lose","Action":"Go","Sham":1,"Color":"yellow","trial_type":"pit-trial","trial_index":159,"time_elapsed":691283,"internal_node_id":"0.0-148.0","task_version":"test-retest-t4"},{"Rune":"rune_07_laukaz","Hex":"#3366ff99","Correct":-1,"Choice":-1,"RT":-1,"Accuracy":1,"Outcome":"+10","Keys":[],"TotalKeys":0,"Block":2,"Trial":140,"Robot":2,"Valence":"Win","Action":"No-Go","Sham":0,"Color":"blue","trial_type":"pit-trial","trial_index":160,"time_elapsed":695286,"internal_node_id":"0.0-149.0","task_version":"test-retest-t4"},{"Rune":"rune_07_gar","Hex":"#ffcc3399","Correct":32,"Choice":32,"RT":408.8149999734014,"Accuracy":1,"Outcome":"-1","Keys":[1909.6199999912642],"TotalKeys":1,"Block":2,"Trial":141,"Robot":3,"Valence":"Lose","Action":"Go","Sham":0,"Color":"yellow","trial_type":"pit-trial","trial_index":161,"time_elapsed":698198,"internal_node_id":"0.0-150.0","task_version":"test-retest-t4"},{"Rune":"rune_07_thurisaz","Hex":"#3366ff99","Correct":32,"Choice":32,"RT":479.78500003227964,"Accuracy":1,"Outcome":"+10","Keys":[1981.4449999830686],"TotalKeys":1,"Block":2,"Trial":142,"Robot":1,"Valence":"Win","Action":"Go","Sham":0,"Color":"blue","trial_type":"pit-trial","trial_index":162,"time_elapsed":701182,"internal_node_id":"0.0-151.0","task_version":"test-retest-t4"},{"Rune":"rune_07_laukaz","Hex":"#3366ff99","Correct":-1,"Choice":-1,"RT":-1,"Accuracy":1,"Outcome":"+10","Keys":[],"TotalKeys":0,"Block":2,"Trial":143,"Robot":2,"Valence":"Win","Action":"No-Go","Sham":0,"Color":"blue","trial_type":"pit-trial","trial_index":163,"time_elapsed":705185,"internal_node_id":"0.0-152.0","task_version":"test-retest-t4"},{"Rune":"rune_07_kauna","Hex":"#ffcc3399","Correct":-1,"Choice":-1,"RT":-1,"Accuracy":1,"Outcome":"-10","Keys":[],"TotalKeys":0,"Block":2,"Trial":144,"Robot":4,"Valence":"Lose","Action":"No-Go","Sham":1,"Color":"yellow","trial_type":"pit-trial","trial_index":164,"time_elapsed":709195,"internal_node_id":"0.0-153.0","task_version":"test-retest-t4"},{"Rune":"rune_07_thurisaz","Hex":"#3366ff99","Correct":32,"Choice":32,"RT":475.4100000136532,"Accuracy":1,"Outcome":"+1","Keys":[1975.7099999696948],"TotalKeys":1,"Block":2,"Trial":145,"Robot":1,"Valence":"Win","Action":"Go","Sham":1,"Color":"blue","trial_type":"pit-trial","trial_index":165,"time_elapsed":712173,"internal_node_id":"0.0-154.0","task_version":"test-retest-t4"},{"Rune":"rune_07_kauna","Hex":"#ffcc3399","Correct":-1,"Choice":-1,"RT":-1,"Accuracy":1,"Outcome":"-1","Keys":[],"TotalKeys":0,"Block":2,"Trial":146,"Robot":4,"Valence":"Lose","Action":"No-Go","Sham":0,"Color":"yellow","trial_type":"pit-trial","trial_index":166,"time_elapsed":716177,"internal_node_id":"0.0-155.0","task_version":"test-retest-t4"},{"Rune":"rune_07_laukaz","Hex":"#3366ff99","Correct":-1,"Choice":-1,"RT":-1,"Accuracy":1,"Outcome":"+10","Keys":[],"TotalKeys":0,"Block":2,"Trial":147,"Robot":2,"Valence":"Win","Action":"No-Go","Sham":0,"Color":"blue","trial_type":"pit-trial","trial_index":167,"time_elapsed":720180,"internal_node_id":"0.0-156.0","task_version":"test-retest-t4"},{"Rune":"rune_07_gar","Hex":"#ffcc3399","Correct":32,"Choice":32,"RT":413.0299999960698,"Accuracy":1,"Outcome":"-1","Keys":[1913.730000029318],"TotalKeys":1,"Block":2,"Trial":148,"Robot":3,"Valence":"Lose","Action":"Go","Sham":0,"Color":"yellow","trial_type":"pit-trial","trial_index":168,"time_elapsed":723097,"internal_node_id":"0.0-157.0","task_version":"test-retest-t4"},{"Rune":"rune_07_thurisaz","Hex":"#3366ff99","Correct":32,"Choice":32,"RT":421.8099999707192,"Accuracy":1,"Outcome":"+10","Keys":[1921.9000000157394],"TotalKeys":1,"Block":2,"Trial":149,"Robot":1,"Valence":"Win","Action":"Go","Sham":0,"Color":"blue","trial_type":"pit-trial","trial_index":169,"time_elapsed":726021,"internal_node_id":"0.0-158.0","task_version":"test-retest-t4"},{"Rune":"rune_07_laukaz","Hex":"#3366ff99","Correct":-1,"Choice":-1,"RT":-1,"Accuracy":1,"Outcome":"+10","Keys":[],"TotalKeys":0,"Block":2,"Trial":150,"Robot":2,"Valence":"Win","Action":"No-Go","Sham":0,"Color":"blue","trial_type":"pit-trial","trial_index":170,"time_elapsed":730024,"internal_node_id":"0.0-159.0","task_version":"test-retest-t4"},{"Rune":"rune_07_gar","Hex":"#ffcc3399","Correct":32,"Choice":32,"RT":398.0699999956414,"Accuracy":1,"Outcome":"-1","Keys":[1899.57000000868],"TotalKeys":1,"Block":2,"Trial":151,"Robot":3,"Valence":"Lose","Action":"Go","Sham":0,"Color":"yellow","trial_type":"pit-trial","trial_index":171,"time_elapsed":732927,"internal_node_id":"0.0-160.0","task_version":"test-retest-t4"},{"Rune":"rune_07_kauna","Hex":"#ffcc3399","Correct":-1,"Choice":-1,"RT":-1,"Accuracy":1,"Outcome":"-1","Keys":[],"TotalKeys":0,"Block":2,"Trial":152,"Robot":4,"Valence":"Lose","Action":"No-Go","Sham":0,"Color":"yellow","trial_type":"pit-trial","trial_index":172,"time_elapsed":736930,"internal_node_id":"0.0-161.0","task_version":"test-retest-t4"},{"Rune":"rune_07_laukaz","Hex":"#3366ff99","Correct":-1,"Choice":-1,"RT":-1,"Accuracy":1,"Outcome":"+1","Keys":[],"TotalKeys":0,"Block":2,"Trial":153,"Robot":2,"Valence":"Win","Action":"No-Go","Sham":1,"Color":"blue","trial_type":"pit-trial","trial_index":173,"time_elapsed":740933,"internal_node_id":"0.0-162.0","task_version":"test-retest-t4"},{"Rune":"rune_07_gar","Hex":"#ffcc3399","Correct":32,"Choice":32,"RT":367.6850000047125,"Accuracy":1,"Outcome":"-1","Keys":[1867.7649999735877],"TotalKeys":1,"Block":2,"Trial":154,"Robot":3,"Valence":"Lose","Action":"Go","Sham":0,"Color":"yellow","trial_type":"pit-trial","trial_index":174,"time_elapsed":743803,"internal_node_id":"0.0-163.0","task_version":"test-retest-t4"},{"Rune":"rune_07_thurisaz","Hex":"#3366ff99","Correct":32,"Choice":32,"RT":606.134999950882,"Accuracy":1,"Outcome":"+10","Keys":[2106.999999959953],"TotalKeys":1,"Block":2,"Trial":155,"Robot":1,"Valence":"Win","Action":"Go","Sham":0,"Color":"blue","trial_type":"pit-trial","trial_index":175,"time_elapsed":746912,"internal_node_id":"0.0-164.0","task_version":"test-retest-t4"},{"Rune":"rune_07_kauna","Hex":"#ffcc3399","Correct":-1,"Choice":-1,"RT":-1,"Accuracy":1,"Outcome":"-1","Keys":[],"TotalKeys":0,"Block":2,"Trial":156,"Robot":4,"Valence":"Lose","Action":"No-Go","Sham":0,"Color":"yellow","trial_type":"pit-trial","trial_index":176,"time_elapsed":750916,"internal_node_id":"0.0-165.0","task_version":"test-retest-t4"},{"Rune":"rune_07_gar","Hex":"#ffcc3399","Correct":32,"Choice":32,"RT":367.98499996075407,"Accuracy":1,"Outcome":"-10","Keys":[1869.3549999734387],"TotalKeys":1,"Block":2,"Trial":157,"Robot":3,"Valence":"Lose","Action":"Go","Sham":1,"Color":"yellow","trial_type":"pit-trial","trial_index":177,"time_elapsed":753787,"internal_node_id":"0.0-166.0","task_version":"test-retest-t4"},{"Rune":"rune_07_laukaz","Hex":"#3366ff99","Correct":-1,"Choice":-1,"RT":-1,"Accuracy":1,"Outcome":"+10","Keys":[],"TotalKeys":0,"Block":2,"Trial":158,"Robot":2,"Valence":"Win","Action":"No-Go","Sham":0,"Color":"blue","trial_type":"pit-trial","trial_index":178,"time_elapsed":757791,"internal_node_id":"0.0-167.0","task_version":"test-retest-t4"},{"Rune":"rune_07_kauna","Hex":"#ffcc3399","Correct":-1,"Choice":-1,"RT":-1,"Accuracy":1,"Outcome":"-1","Keys":[],"TotalKeys":0,"Block":2,"Trial":159,"Robot":4,"Valence":"Lose","Action":"No-Go","Sham":0,"Color":"yellow","trial_type":"pit-trial","trial_index":179,"time_elapsed":761794,"internal_node_id":"0.0-168.0","task_version":"test-retest-t4"},{"Rune":"rune_07_thurisaz","Hex":"#3366ff99","Correct":32,"Choice":32,"RT":614.2000000108965,"Accuracy":1,"Outcome":"+10","Keys":[2114.6350000053644],"TotalKeys":1,"Block":2,"Trial":160,"Robot":1,"Valence":"Win","Action":"Go","Sham":0,"Color":"blue","trial_type":"pit-trial","trial_index":180,"time_elapsed":764911,"internal_node_id":"0.0-169.0","task_version":"test-retest-t4"},{"Rune":"rune_07_thurisaz","Hex":"#3366ff99","Correct":32,"Choice":32,"RT":626.5549999661744,"Accuracy":1,"Outcome":"+10","Keys":[2128.0850000330247],"TotalKeys":1,"Block":2,"Trial":161,"Robot":1,"Valence":"Win","Action":"Go","Sham":0,"Color":"blue","trial_type":"pit-trial","trial_index":181,"time_elapsed":768041,"internal_node_id":"0.0-170.0","task_version":"test-retest-t4"},{"Rune":"rune_07_gar","Hex":"#ffcc3399","Correct":32,"Choice":32,"RT":398.18499999819323,"Accuracy":1,"Outcome":"-1","Keys":[1898.2400000095367],"TotalKeys":1,"Block":2,"Trial":162,"Robot":3,"Valence":"Lose","Action":"Go","Sham":0,"Color":"yellow","trial_type":"pit-trial","trial_index":182,"time_elapsed":770942,"internal_node_id":"0.0-171.0","task_version":"test-retest-t4"},{"Rune":"rune_07_kauna","Hex":"#ffcc3399","Correct":-1,"Choice":32,"RT":1050.054999999702,"Accuracy":0,"Outcome":"-10","Keys":[2550.8549999794923],"TotalKeys":1,"Block":2,"Trial":163,"Robot":4,"Valence":"Lose","Action":"No-Go","Sham":0,"Color":"yellow","trial_type":"pit-trial","trial_index":183,"time_elapsed":774495,"internal_node_id":"0.0-172.0","task_version":"test-retest-t4"},{"Rune":"rune_07_laukaz","Hex":"#3366ff99","Correct":-1,"Choice":-1,"RT":-1,"Accuracy":1,"Outcome":"+1","Keys":[],"TotalKeys":0,"Block":2,"Trial":164,"Robot":2,"Valence":"Win","Action":"No-Go","Sham":1,"Color":"blue","trial_type":"pit-trial","trial_index":184,"time_elapsed":778498,"internal_node_id":"0.0-173.0","task_version":"test-retest-t4"},{"Rune":"rune_07_kauna","Hex":"#ffcc3399","Correct":-1,"Choice":-1,"RT":-1,"Accuracy":1,"Outcome":"-1","Keys":[],"TotalKeys":0,"Block":2,"Trial":165,"Robot":4,"Valence":"Lose","Action":"No-Go","Sham":0,"Color":"yellow","trial_type":"pit-trial","trial_index":185,"time_elapsed":782501,"internal_node_id":"0.0-174.0","task_version":"test-retest-t4"},{"Rune":"rune_07_thurisaz","Hex":"#3366ff99","Correct":32,"Choice":32,"RT":924.1049999836832,"Accuracy":1,"Outcome":"+1","Keys":[2424.7499999473803],"TotalKeys":1,"Block":2,"Trial":166,"Robot":1,"Valence":"Win","Action":"Go","Sham":1,"Color":"blue","trial_type":"pit-trial","trial_index":186,"time_elapsed":785929,"internal_node_id":"0.0-175.0","task_version":"test-retest-t4"},{"Rune":"rune_07_laukaz","Hex":"#3366ff99","Correct":-1,"Choice":-1,"RT":-1,"Accuracy":1,"Outcome":"+10","Keys":[],"TotalKeys":0,"Block":2,"Trial":167,"Robot":2,"Valence":"Win","Action":"No-Go","Sham":0,"Color":"blue","trial_type":"pit-trial","trial_index":187,"time_elapsed":789934,"internal_node_id":"0.0-176.0","task_version":"test-retest-t4"},{"Rune":"rune_07_gar","Hex":"#ffcc3399","Correct":32,"Choice":32,"RT":320.4949999926612,"Accuracy":1,"Outcome":"-10","Keys":[1820.7449999754317],"TotalKeys":1,"Block":2,"Trial":168,"Robot":3,"Valence":"Lose","Action":"Go","Sham":1,"Color":"yellow","trial_type":"pit-trial","trial_index":188,"time_elapsed":792756,"internal_node_id":"0.0-177.0","task_version":"test-retest-t4"},{"Rune":"rune_07_laukaz","Hex":"#3366ff99","Correct":-1,"Choice":-1,"RT":-1,"Accuracy":1,"Outcome":"+10","Keys":[],"TotalKeys":0,"Block":2,"Trial":169,"Robot":2,"Valence":"Win","Action":"No-Go","Sham":0,"Color":"blue","trial_type":"pit-trial","trial_index":189,"time_elapsed":796760,"internal_node_id":"0.0-178.0","task_version":"test-retest-t4"},{"Rune":"rune_07_thurisaz","Hex":"#3366ff99","Correct":32,"Choice":32,"RT":701.9200000213459,"Accuracy":1,"Outcome":"+10","Keys":[2202.9699999839067],"TotalKeys":1,"Block":2,"Trial":170,"Robot":1,"Valence":"Win","Action":"Go","Sham":0,"Color":"blue","trial_type":"pit-trial","trial_index":190,"time_elapsed":799964,"internal_node_id":"0.0-179.0","task_version":"test-retest-t4"},{"Rune":"rune_07_gar","Hex":"#ffcc3399","Correct":32,"Choice":32,"RT":362.1900000143796,"Accuracy":1,"Outcome":"-1","Keys":[1863.5749999666587],"TotalKeys":1,"Block":2,"Trial":171,"Robot":3,"Valence":"Lose","Action":"Go","Sham":0,"Color":"yellow","trial_type":"pit-trial","trial_index":191,"time_elapsed":802830,"internal_node_id":"0.0-180.0","task_version":"test-retest-t4"},{"Rune":"rune_07_kauna","Hex":"#ffcc3399","Correct":-1,"Choice":-1,"RT":-1,"Accuracy":1,"Outcome":"-1","Keys":[],"TotalKeys":0,"Block":2,"Trial":172,"Robot":4,"Valence":"Lose","Action":"No-Go","Sham":0,"Color":"yellow","trial_type":"pit-trial","trial_index":192,"time_elapsed":806832,"internal_node_id":"0.0-181.0","task_version":"test-retest-t4"},{"Rune":"rune_07_gar","Hex":"#ffcc3399","Correct":32,"Choice":32,"RT":270.09499998530373,"Accuracy":1,"Outcome":"-1","Keys":[1771.134999988135],"TotalKeys":1,"Block":2,"Trial":173,"Robot":3,"Valence":"Lose","Action":"Go","Sham":0,"Color":"yellow","trial_type":"pit-trial","trial_index":193,"time_elapsed":809606,"internal_node_id":"0.0-182.0","task_version":"test-retest-t4"},{"Rune":"rune_07_kauna","Hex":"#ffcc3399","Correct":-1,"Choice":-1,"RT":-1,"Accuracy":1,"Outcome":"-1","Keys":[],"TotalKeys":0,"Block":2,"Trial":174,"Robot":4,"Valence":"Lose","Action":"No-Go","Sham":0,"Color":"yellow","trial_type":"pit-trial","trial_index":194,"time_elapsed":813611,"internal_node_id":"0.0-183.0","task_version":"test-retest-t4"},{"Rune":"rune_07_laukaz","Hex":"#3366ff99","Correct":-1,"Choice":-1,"RT":-1,"Accuracy":1,"Outcome":"+10","Keys":[],"TotalKeys":0,"Block":2,"Trial":175,"Robot":2,"Valence":"Win","Action":"No-Go","Sham":0,"Color":"blue","trial_type":"pit-trial","trial_index":195,"time_elapsed":817615,"internal_node_id":"0.0-184.0","task_version":"test-retest-t4"},{"Rune":"rune_07_thurisaz","Hex":"#3366ff99","Correct":32,"Choice":32,"RT":510.6999999843538,"Accuracy":1,"Outcome":"+10","Keys":[2010.8950000139885],"TotalKeys":1,"Block":2,"Trial":176,"Robot":1,"Valence":"Win","Action":"Go","Sham":0,"Color":"blue","trial_type":"pit-trial","trial_index":196,"time_elapsed":820628,"internal_node_id":"0.0-185.0","task_version":"test-retest-t4"},{"Rune":"rune_07_laukaz","Hex":"#3366ff99","Correct":-1,"Choice":-1,"RT":-1,"Accuracy":1,"Outcome":"+10","Keys":[],"TotalKeys":0,"Block":2,"Trial":177,"Robot":2,"Valence":"Win","Action":"No-Go","Sham":0,"Color":"blue","trial_type":"pit-trial","trial_index":197,"time_elapsed":824632,"internal_node_id":"0.0-186.0","task_version":"test-retest-t4"},{"Rune":"rune_07_kauna","Hex":"#ffcc3399","Correct":-1,"Choice":-1,"RT":-1,"Accuracy":1,"Outcome":"-10","Keys":[],"TotalKeys":0,"Block":2,"Trial":178,"Robot":4,"Valence":"Lose","Action":"No-Go","Sham":1,"Color":"yellow","trial_type":"pit-trial","trial_index":198,"time_elapsed":828635,"internal_node_id":"0.0-187.0","task_version":"test-retest-t4"},{"Rune":"rune_07_gar","Hex":"#ffcc3399","Correct":32,"Choice":32,"RT":381.7249999847263,"Accuracy":1,"Outcome":"-1","Keys":[1882.5049999868497],"TotalKeys":1,"Block":2,"Trial":179,"Robot":3,"Valence":"Lose","Action":"Go","Sham":0,"Color":"yellow","trial_type":"pit-trial","trial_index":199,"time_elapsed":831520,"internal_node_id":"0.0-188.0","task_version":"test-retest-t4"},{"Rune":"rune_07_thurisaz","Hex":"#3366ff99","Correct":32,"Choice":32,"RT":469.3599999882281,"Accuracy":1,"Outcome":"+10","Keys":[1970.1150000328198],"TotalKeys":1,"Block":2,"Trial":180,"Robot":1,"Valence":"Win","Action":"Go","Sham":0,"Color":"blue","trial_type":"pit-trial","trial_index":200,"time_elapsed":834493,"internal_node_id":"0.0-189.0","task_version":"test-retest-t4"},{"view_history":"[{\"page_index\":0,\"viewing_time\":10805.92000001343},{\"page_index\":1,\"viewing_time\":797.904999984894}]","rt":11604.140000010375,"trial_type":"pit-instructions","trial_index":201,"time_elapsed":846098,"internal_node_id":"0.0-190.0","task_version":"test-retest-t4"},{"Rune":"rune_07_laukaz","Hex":"#3366ff99","Correct":-1,"Choice":-1,"RT":-1,"Accuracy":1,"Outcome":"+10","Keys":[],"TotalKeys":0,"Block":2,"Trial":181,"Robot":2,"Valence":"Win","Action":"No-Go","Sham":0,"Color":"blue","trial_type":"pit-trial","trial_index":202,"time_elapsed":850101,"internal_node_id":"0.0-191.0","task_version":"test-retest-t4"},{"Rune":"rune_07_kauna","Hex":"#ffcc3399","Correct":-1,"Choice":-1,"RT":-1,"Accuracy":1,"Outcome":"-1","Keys":[],"TotalKeys":0,"Block":2,"Trial":182,"Robot":4,"Valence":"Lose","Action":"No-Go","Sham":0,"Color":"yellow","trial_type":"pit-trial","trial_index":203,"time_elapsed":854105,"internal_node_id":"0.0-192.0","task_version":"test-retest-t4"},{"Rune":"rune_07_gar","Hex":"#ffcc3399","Correct":32,"Choice":32,"RT":463.9850000385195,"Accuracy":1,"Outcome":"-1","Keys":[1964.0049999579787],"TotalKeys":1,"Block":2,"Trial":183,"Robot":3,"Valence":"Lose","Action":"Go","Sham":0,"Color":"yellow","trial_type":"pit-trial","trial_index":204,"time_elapsed":857071,"internal_node_id":"0.0-193.0","task_version":"test-retest-t4"},{"Rune":"rune_07_thurisaz","Hex":"#3366ff99","Correct":32,"Choice":32,"RT":278.6449999548495,"Accuracy":1,"Outcome":"+10","Keys":[1780.269999988377],"TotalKeys":1,"Block":2,"Trial":184,"Robot":1,"Valence":"Win","Action":"Go","Sham":0,"Color":"blue","trial_type":"pit-trial","trial_index":205,"time_elapsed":859853,"internal_node_id":"0.0-194.0","task_version":"test-retest-t4"},{"Rune":"rune_07_laukaz","Hex":"#3366ff99","Correct":-1,"Choice":-1,"RT":-1,"Accuracy":1,"Outcome":"+10","Keys":[],"TotalKeys":0,"Block":2,"Trial":185,"Robot":2,"Valence":"Win","Action":"No-Go","Sham":0,"Color":"blue","trial_type":"pit-trial","trial_index":206,"time_elapsed":863856,"internal_node_id":"0.0-195.0","task_version":"test-retest-t4"},{"Rune":"rune_07_kauna","Hex":"#ffcc3399","Correct":-1,"Choice":-1,"RT":-1,"Accuracy":1,"Outcome":"-1","Keys":[],"TotalKeys":0,"Block":2,"Trial":186,"Robot":4,"Valence":"Lose","Action":"No-Go","Sham":0,"Color":"yellow","trial_type":"pit-trial","trial_index":207,"time_elapsed":867860,"internal_node_id":"0.0-196.0","task_version":"test-retest-t4"},{"Rune":"rune_07_thurisaz","Hex":"#3366ff99","Correct":32,"Choice":32,"RT":451.6749999602325,"Accuracy":1,"Outcome":"+10","Keys":[1951.9250000012107],"TotalKeys":1,"Block":2,"Trial":187,"Robot":1,"Valence":"Win","Action":"Go","Sham":0,"Color":"blue","trial_type":"pit-trial","trial_index":208,"time_elapsed":870814,"internal_node_id":"0.0-197.0","task_version":"test-retest-t4"},{"Rune":"rune_07_gar","Hex":"#ffcc3399","Correct":32,"Choice":32,"RT":282.27999998489395,"Accuracy":1,"Outcome":"-10","Keys":[1782.565000001341],"TotalKeys":1,"Block":2,"Trial":188,"Robot":3,"Valence":"Lose","Action":"Go","Sham":1,"Color":"yellow","trial_type":"pit-trial","trial_index":209,"time_elapsed":873598,"internal_node_id":"0.0-198.0","task_version":"test-retest-t4"},{"Rune":"rune_07_laukaz","Hex":"#3366ff99","Correct":-1,"Choice":-1,"RT":-1,"Accuracy":1,"Outcome":"+1","Keys":[],"TotalKeys":0,"Block":2,"Trial":189,"Robot":2,"Valence":"Win","Action":"No-Go","Sham":1,"Color":"blue","trial_type":"pit-trial","trial_index":210,"time_elapsed":877603,"internal_node_id":"0.0-199.0","task_version":"test-retest-t4"},{"Rune":"rune_07_kauna","Hex":"#ffcc3399","Correct":-1,"Choice":-1,"RT":-1,"Accuracy":1,"Outcome":"-10","Keys":[],"TotalKeys":0,"Block":2,"Trial":190,"Robot":4,"Valence":"Lose","Action":"No-Go","Sham":1,"Color":"yellow","trial_type":"pit-trial","trial_index":211,"time_elapsed":881607,"internal_node_id":"0.0-200.0","task_version":"test-retest-t4"},{"Rune":"rune_07_thurisaz","Hex":"#3366ff99","Correct":32,"Choice":32,"RT":433.5200000205077,"Accuracy":1,"Outcome":"+10","Keys":[1934.175000002142],"TotalKeys":1,"Block":2,"Trial":191,"Robot":1,"Valence":"Win","Action":"Go","Sham":0,"Color":"blue","trial_type":"pit-trial","trial_index":212,"time_elapsed":884544,"internal_node_id":"0.0-201.0","task_version":"test-retest-t4"},{"Rune":"rune_07_gar","Hex":"#ffcc3399","Correct":32,"Choice":32,"RT":316.274999990128,"Accuracy":1,"Outcome":"-1","Keys":[1816.6699999710545],"TotalKeys":1,"Block":2,"Trial":192,"Robot":3,"Valence":"Lose","Action":"Go","Sham":0,"Color":"yellow","trial_type":"pit-trial","trial_index":213,"time_elapsed":887363,"internal_node_id":"0.0-202.0","task_version":"test-retest-t4"},{"Rune":"rune_07_laukaz","Hex":"#3366ff99","Correct":-1,"Choice":-1,"RT":-1,"Accuracy":1,"Outcome":"+10","Keys":[],"TotalKeys":0,"Block":2,"Trial":193,"Robot":2,"Valence":"Win","Action":"No-Go","Sham":0,"Color":"blue","trial_type":"pit-trial","trial_index":214,"time_elapsed":891367,"internal_node_id":"0.0-203.0","task_version":"test-retest-t4"},{"Rune":"rune_07_kauna","Hex":"#ffcc3399","Correct":-1,"Choice":-1,"RT":-1,"Accuracy":1,"Outcome":"-1","Keys":[],"TotalKeys":0,"Block":2,"Trial":194,"Robot":4,"Valence":"Lose","Action":"No-Go","Sham":0,"Color":"yellow","trial_type":"pit-trial","trial_index":215,"time_elapsed":895369,"internal_node_id":"0.0-204.0","task_version":"test-retest-t4"},{"Rune":"rune_07_thurisaz","Hex":"#3366ff99","Correct":32,"Choice":32,"RT":383.9550000266172,"Accuracy":1,"Outcome":"+10","Keys":[1885.29499998549],"TotalKeys":1,"Block":2,"Trial":195,"Robot":1,"Valence":"Win","Action":"Go","Sham":0,"Color":"blue","trial_type":"pit-trial","trial_index":216,"time_elapsed":898257,"internal_node_id":"0.0-205.0","task_version":"test-retest-t4"},{"Rune":"rune_07_gar","Hex":"#ffcc3399","Correct":32,"Choice":32,"RT":293.98499999661,"Accuracy":1,"Outcome":"-1","Keys":[1794.7849999764003],"TotalKeys":1,"Block":2,"Trial":196,"Robot":3,"Valence":"Lose","Action":"Go","Sham":0,"Color":"yellow","trial_type":"pit-trial","trial_index":217,"time_elapsed":901054,"internal_node_id":"0.0-206.0","task_version":"test-retest-t4"},{"Rune":"rune_07_kauna","Hex":"#ffcc3399","Correct":-1,"Choice":-1,"RT":-1,"Accuracy":1,"Outcome":"-1","Keys":[],"TotalKeys":0,"Block":2,"Trial":197,"Robot":4,"Valence":"Lose","Action":"No-Go","Sham":0,"Color":"yellow","trial_type":"pit-trial","trial_index":218,"time_elapsed":905058,"internal_node_id":"0.0-207.0","task_version":"test-retest-t4"},{"Rune":"rune_07_gar","Hex":"#ffcc3399","Correct":32,"Choice":32,"RT":305.0550000043586,"Accuracy":1,"Outcome":"-1","Keys":[1806.0650000115857],"TotalKeys":1,"Block":2,"Trial":198,"Robot":3,"Valence":"Lose","Action":"Go","Sham":0,"Color":"yellow","trial_type":"pit-trial","trial_index":219,"time_elapsed":907866,"internal_node_id":"0.0-208.0","task_version":"test-retest-t4"},{"Rune":"rune_07_thurisaz","Hex":"#3366ff99","Correct":32,"Choice":32,"RT":392.7150000235997,"Accuracy":1,"Outcome":"+1","Keys":[1893.1050000246614],"TotalKeys":1,"Block":2,"Trial":199,"Robot":1,"Valence":"Win","Action":"Go","Sham":1,"Color":"blue","trial_type":"pit-trial","trial_index":220,"time_elapsed":910761,"internal_node_id":"0.0-209.0","task_version":"test-retest-t4"},{"Rune":"rune_07_laukaz","Hex":"#3366ff99","Correct":-1,"Choice":-1,"RT":-1,"Accuracy":1,"Outcome":"+10","Keys":[],"TotalKeys":0,"Block":2,"Trial":200,"Robot":2,"Valence":"Win","Action":"No-Go","Sham":0,"Color":"blue","trial_type":"pit-trial","trial_index":221,"time_elapsed":914766,"internal_node_id":"0.0-210.0","task_version":"test-retest-t4"},{"Rune":"rune_07_laukaz","Hex":"#3366ff99","Correct":-1,"Choice":-1,"RT":-1,"Accuracy":1,"Outcome":"+10","Keys":[],"TotalKeys":0,"Block":2,"Trial":201,"Robot":2,"Valence":"Win","Action":"No-Go","Sham":0,"Color":"blue","trial_type":"pit-trial","trial_index":222,"time_elapsed":918769,"internal_node_id":"0.0-211.0","task_version":"test-retest-t4"},{"Rune":"rune_07_thurisaz","Hex":"#3366ff99","Correct":32,"Choice":32,"RT":420.5299999448471,"Accuracy":1,"Outcome":"+10","Keys":[1922.4149999790825],"TotalKeys":1,"Block":2,"Trial":202,"Robot":1,"Valence":"Win","Action":"Go","Sham":0,"Color":"blue","trial_type":"pit-trial","trial_index":223,"time_elapsed":921694,"internal_node_id":"0.0-212.0","task_version":"test-retest-t4"},{"Rune":"rune_07_kauna","Hex":"#ffcc3399","Correct":-1,"Choice":-1,"RT":-1,"Accuracy":1,"Outcome":"-1","Keys":[],"TotalKeys":0,"Block":2,"Trial":203,"Robot":4,"Valence":"Lose","Action":"No-Go","Sham":0,"Color":"yellow","trial_type":"pit-trial","trial_index":224,"time_elapsed":925698,"internal_node_id":"0.0-213.0","task_version":"test-retest-t4"},{"Rune":"rune_07_gar","Hex":"#ffcc3399","Correct":32,"Choice":32,"RT":320.39499998791143,"Accuracy":1,"Outcome":"-10","Keys":[1821.735000004992],"TotalKeys":1,"Block":2,"Trial":204,"Robot":3,"Valence":"Lose","Action":"Go","Sham":1,"Color":"yellow","trial_type":"pit-trial","trial_index":225,"time_elapsed":928522,"internal_node_id":"0.0-214.0","task_version":"test-retest-t4"},{"Rune":"rune_07_laukaz","Hex":"#3366ff99","Correct":-1,"Choice":-1,"RT":-1,"Accuracy":1,"Outcome":"+10","Keys":[],"TotalKeys":0,"Block":2,"Trial":205,"Robot":2,"Valence":"Win","Action":"No-Go","Sham":0,"Color":"blue","trial_type":"pit-trial","trial_index":226,"time_elapsed":932526,"internal_node_id":"0.0-215.0","task_version":"test-retest-t4"},{"Rune":"rune_07_gar","Hex":"#ffcc3399","Correct":32,"Choice":32,"RT":257.03499995870516,"Accuracy":1,"Outcome":"-1","Keys":[1757.9800000530668],"TotalKeys":1,"Block":2,"Trial":206,"Robot":3,"Valence":"Lose","Action":"Go","Sham":0,"Color":"yellow","trial_type":"pit-trial","trial_index":227,"time_elapsed":935287,"internal_node_id":"0.0-216.0","task_version":"test-retest-t4"},{"Rune":"rune_07_thurisaz","Hex":"#3366ff99","Correct":32,"Choice":32,"RT":321.8199999537319,"Accuracy":1,"Outcome":"+10","Keys":[1823.5249999561347],"TotalKeys":1,"Block":2,"Trial":207,"Robot":1,"Valence":"Win","Action":"Go","Sham":0,"Color":"blue","trial_type":"pit-trial","trial_index":228,"time_elapsed":938112,"internal_node_id":"0.0-217.0","task_version":"test-retest-t4"},{"Rune":"rune_07_kauna","Hex":"#ffcc3399","Correct":-1,"Choice":-1,"RT":-1,"Accuracy":1,"Outcome":"-1","Keys":[],"TotalKeys":0,"Block":2,"Trial":208,"Robot":4,"Valence":"Lose","Action":"No-Go","Sham":0,"Color":"yellow","trial_type":"pit-trial","trial_index":229,"time_elapsed":942116,"internal_node_id":"0.0-218.0","task_version":"test-retest-t4"},{"Rune":"rune_07_gar","Hex":"#ffcc3399","Correct":32,"Choice":32,"RT":246.27999996300787,"Accuracy":1,"Outcome":"-1","Keys":[1746.8949999893084],"TotalKeys":1,"Block":2,"Trial":209,"Robot":3,"Valence":"Lose","Action":"Go","Sham":0,"Color":"yellow","trial_type":"pit-trial","trial_index":230,"time_elapsed":944865,"internal_node_id":"0.0-219.0","task_version":"test-retest-t4"},{"Rune":"rune_07_laukaz","Hex":"#3366ff99","Correct":-1,"Choice":-1,"RT":-1,"Accuracy":1,"Outcome":"+1","Keys":[],"TotalKeys":0,"Block":2,"Trial":210,"Robot":2,"Valence":"Win","Action":"No-Go","Sham":1,"Color":"blue","trial_type":"pit-trial","trial_index":231,"time_elapsed":948866,"internal_node_id":"0.0-220.0","task_version":"test-retest-t4"},{"Rune":"rune_07_thurisaz","Hex":"#3366ff99","Correct":32,"Choice":32,"RT":439.74500003969297,"Accuracy":1,"Outcome":"+10","Keys":[1940.2499999850988],"TotalKeys":1,"Block":2,"Trial":211,"Robot":1,"Valence":"Win","Action":"Go","Sham":0,"Color":"blue","trial_type":"pit-trial","trial_index":232,"time_elapsed":951809,"internal_node_id":"0.0-221.0","task_version":"test-retest-t4"},{"Rune":"rune_07_kauna","Hex":"#ffcc3399","Correct":-1,"Choice":-1,"RT":-1,"Accuracy":1,"Outcome":"-1","Keys":[],"TotalKeys":0,"Block":2,"Trial":212,"Robot":4,"Valence":"Lose","Action":"No-Go","Sham":0,"Color":"yellow","trial_type":"pit-trial","trial_index":233,"time_elapsed":955812,"internal_node_id":"0.0-222.0","task_version":"test-retest-t4"},{"Rune":"rune_07_laukaz","Hex":"#3366ff99","Correct":-1,"Choice":-1,"RT":-1,"Accuracy":1,"Outcome":"+10","Keys":[],"TotalKeys":0,"Block":2,"Trial":213,"Robot":2,"Valence":"Win","Action":"No-Go","Sham":0,"Color":"blue","trial_type":"pit-trial","trial_index":234,"time_elapsed":959815,"internal_node_id":"0.0-223.0","task_version":"test-retest-t4"},{"Rune":"rune_07_gar","Hex":"#ffcc3399","Correct":32,"Choice":32,"RT":230.1749999751337,"Accuracy":1,"Outcome":"-1","Keys":[1730.7499999878928],"TotalKeys":1,"Block":2,"Trial":214,"Robot":3,"Valence":"Lose","Action":"Go","Sham":0,"Color":"yellow","trial_type":"pit-trial","trial_index":235,"time_elapsed":962548,"internal_node_id":"0.0-224.0","task_version":"test-retest-t4"},{"Rune":"rune_07_thurisaz","Hex":"#3366ff99","Correct":32,"Choice":32,"RT":360.61499995412305,"Accuracy":1,"Outcome":"+10","Keys":[1860.6800000416115],"TotalKeys":1,"Block":2,"Trial":215,"Robot":1,"Valence":"Win","Action":"Go","Sham":0,"Color":"blue","trial_type":"pit-trial","trial_index":236,"time_elapsed":965410,"internal_node_id":"0.0-225.0","task_version":"test-retest-t4"},{"Rune":"rune_07_kauna","Hex":"#ffcc3399","Correct":-1,"Choice":-1,"RT":-1,"Accuracy":1,"Outcome":"-10","Keys":[],"TotalKeys":0,"Block":2,"Trial":216,"Robot":4,"Valence":"Lose","Action":"No-Go","Sham":1,"Color":"yellow","trial_type":"pit-trial","trial_index":237,"time_elapsed":969413,"internal_node_id":"0.0-226.0","task_version":"test-retest-t4"},{"Rune":"rune_07_laukaz","Hex":"#3366ff99","Correct":-1,"Choice":-1,"RT":-1,"Accuracy":1,"Outcome":"+10","Keys":[],"TotalKeys":0,"Block":2,"Trial":217,"Robot":2,"Valence":"Win","Action":"No-Go","Sham":0,"Color":"blue","trial_type":"pit-trial","trial_index":238,"time_elapsed":973417,"internal_node_id":"0.0-227.0","task_version":"test-retest-t4"},{"Rune":"rune_07_kauna","Hex":"#ffcc3399","Correct":-1,"Choice":-1,"RT":-1,"Accuracy":1,"Outcome":"-1","Keys":[],"TotalKeys":0,"Block":2,"Trial":218,"Robot":4,"Valence":"Lose","Action":"No-Go","Sham":0,"Color":"yellow","trial_type":"pit-trial","trial_index":239,"time_elapsed":977422,"internal_node_id":"0.0-228.0","task_version":"test-retest-t4"},{"Rune":"rune_07_gar","Hex":"#ffcc3399","Correct":32,"Choice":32,"RT":284.7450000117533,"Accuracy":1,"Outcome":"-1","Keys":[1784.8349999985658],"TotalKeys":1,"Block":2,"Trial":219,"Robot":3,"Valence":"Lose","Action":"Go","Sham":0,"Color":"yellow","trial_type":"pit-trial","trial_index":240,"time_elapsed":980208,"internal_node_id":"0.0-229.0","task_version":"test-retest-t4"},{"Rune":"rune_07_thurisaz","Hex":"#3366ff99","Correct":32,"Choice":32,"RT":391.7350000119768,"Accuracy":1,"Outcome":"+1","Keys":[1892.0199999702163],"TotalKeys":1,"Block":2,"Trial":220,"Robot":1,"Valence":"Win","Action":"Go","Sham":1,"Color":"blue","trial_type":"pit-trial","trial_index":241,"time_elapsed":983103,"internal_node_id":"0.0-230.0","task_version":"test-retest-t4"},{"Rune":"rune_07_thurisaz","Hex":"#3366ff99","Correct":32,"Choice":32,"RT":430.88499997975305,"Accuracy":1,"Outcome":"+10","Keys":[1932.585000002291],"TotalKeys":1,"Block":2,"Trial":221,"Robot":1,"Valence":"Win","Action":"Go","Sham":0,"Color":"blue","trial_type":"pit-trial","trial_index":242,"time_elapsed":986037,"internal_node_id":"0.0-231.0","task_version":"test-retest-t4"},{"Rune":"rune_07_kauna","Hex":"#ffcc3399","Correct":-1,"Choice":-1,"RT":-1,"Accuracy":1,"Outcome":"-10","Keys":[],"TotalKeys":0,"Block":2,"Trial":222,"Robot":4,"Valence":"Lose","Action":"No-Go","Sham":1,"Color":"yellow","trial_type":"pit-trial","trial_index":243,"time_elapsed":990041,"internal_node_id":"0.0-232.0","task_version":"test-retest-t4"},{"Rune":"rune_07_gar","Hex":"#ffcc3399","Correct":32,"Choice":32,"RT":316.87500001862645,"Accuracy":1,"Outcome":"-10","Keys":[1817.9699999745935],"TotalKeys":1,"Block":2,"Trial":223,"Robot":3,"Valence":"Lose","Action":"Go","Sham":1,"Color":"yellow","trial_type":"pit-trial","trial_index":244,"time_elapsed":992862,"internal_node_id":"0.0-233.0","task_version":"test-retest-t4"},{"Rune":"rune_07_laukaz","Hex":"#3366ff99","Correct":-1,"Choice":-1,"RT":-1,"Accuracy":1,"Outcome":"+10","Keys":[],"TotalKeys":0,"Block":2,"Trial":224,"Robot":2,"Valence":"Win","Action":"No-Go","Sham":0,"Color":"blue","trial_type":"pit-trial","trial_index":245,"time_elapsed":996866,"internal_node_id":"0.0-234.0","task_version":"test-retest-t4"},{"Rune":"rune_07_laukaz","Hex":"#3366ff99","Correct":-1,"Choice":-1,"RT":-1,"Accuracy":1,"Outcome":"+10","Keys":[],"TotalKeys":0,"Block":2,"Trial":225,"Robot":2,"Valence":"Win","Action":"No-Go","Sham":0,"Color":"blue","trial_type":"pit-trial","trial_index":246,"time_elapsed":1000870,"internal_node_id":"0.0-235.0","task_version":"test-retest-t4"},{"Rune":"rune_07_gar","Hex":"#ffcc3399","Correct":32,"Choice":32,"RT":260.1450000074692,"Accuracy":1,"Outcome":"-1","Keys":[1762.0950000127777],"TotalKeys":1,"Block":2,"Trial":226,"Robot":3,"Valence":"Lose","Action":"Go","Sham":0,"Color":"yellow","trial_type":"pit-trial","trial_index":247,"time_elapsed":1003634,"internal_node_id":"0.0-236.0","task_version":"test-retest-t4"},{"Rune":"rune_07_thurisaz","Hex":"#3366ff99","Correct":32,"Choice":32,"RT":376.6699999687262,"Accuracy":1,"Outcome":"+10","Keys":[1877.4399999529123],"TotalKeys":1,"Block":2,"Trial":227,"Robot":1,"Valence":"Win","Action":"Go","Sham":0,"Color":"blue","trial_type":"pit-trial","trial_index":248,"time_elapsed":1006514,"internal_node_id":"0.0-237.0","task_version":"test-retest-t4"},{"Rune":"rune_07_kauna","Hex":"#ffcc3399","Correct":-1,"Choice":-1,"RT":-1,"Accuracy":1,"Outcome":"-1","Keys":[],"TotalKeys":0,"Block":2,"Trial":228,"Robot":4,"Valence":"Lose","Action":"No-Go","Sham":0,"Color":"yellow","trial_type":"pit-trial","trial_index":249,"time_elapsed":1010516,"internal_node_id":"0.0-238.0","task_version":"test-retest-t4"},{"Rune":"rune_07_thurisaz","Hex":"#3366ff99","Correct":32,"Choice":32,"RT":373.6250000074506,"Accuracy":1,"Outcome":"+1","Keys":[1874.405000009574],"TotalKeys":1,"Block":2,"Trial":229,"Robot":1,"Valence":"Win","Action":"Go","Sham":1,"Color":"blue","trial_type":"pit-trial","trial_index":250,"time_elapsed":1013394,"internal_node_id":"0.0-239.0","task_version":"test-retest-t4"},{"Rune":"rune_07_laukaz","Hex":"#3366ff99","Correct":-1,"Choice":-1,"RT":-1,"Accuracy":1,"Outcome":"+1","Keys":[],"TotalKeys":0,"Block":2,"Trial":230,"Robot":2,"Valence":"Win","Action":"No-Go","Sham":1,"Color":"blue","trial_type":"pit-trial","trial_index":251,"time_elapsed":1017397,"internal_node_id":"0.0-240.0","task_version":"test-retest-t4"},{"Rune":"rune_07_kauna","Hex":"#ffcc3399","Correct":-1,"Choice":-1,"RT":-1,"Accuracy":1,"Outcome":"-1","Keys":[],"TotalKeys":0,"Block":2,"Trial":231,"Robot":4,"Valence":"Lose","Action":"No-Go","Sham":0,"Color":"yellow","trial_type":"pit-trial","trial_index":252,"time_elapsed":1021402,"internal_node_id":"0.0-241.0","task_version":"test-retest-t4"},{"Rune":"rune_07_gar","Hex":"#ffcc3399","Correct":32,"Choice":32,"RT":305.0049999728799,"Accuracy":1,"Outcome":"-1","Keys":[1805.9750000247732],"TotalKeys":1,"Block":2,"Trial":232,"Robot":3,"Valence":"Lose","Action":"Go","Sham":0,"Color":"yellow","trial_type":"pit-trial","trial_index":253,"time_elapsed":1024210,"internal_node_id":"0.0-242.0","task_version":"test-retest-t4"},{"Rune":"rune_07_thurisaz","Hex":"#3366ff99","Correct":32,"Choice":32,"RT":374.56500000553206,"Accuracy":1,"Outcome":"+10","Keys":[1875.0949999666773],"TotalKeys":1,"Block":2,"Trial":233,"Robot":1,"Valence":"Win","Action":"Go","Sham":0,"Color":"blue","trial_type":"pit-trial","trial_index":254,"time_elapsed":1027087,"internal_node_id":"0.0-243.0","task_version":"test-retest-t4"},{"Rune":"rune_07_gar","Hex":"#ffcc3399","Correct":32,"Choice":32,"RT":268.6000000103377,"Accuracy":1,"Outcome":"-1","Keys":[1769.8249999666587],"TotalKeys":1,"Block":2,"Trial":234,"Robot":3,"Valence":"Lose","Action":"Go","Sham":0,"Color":"yellow","trial_type":"pit-trial","trial_index":255,"time_elapsed":1029859,"internal_node_id":"0.0-244.0","task_version":"test-retest-t4"},{"Rune":"rune_07_laukaz","Hex":"#3366ff99","Correct":-1,"Choice":-1,"RT":-1,"Accuracy":1,"Outcome":"+10","Keys":[],"TotalKeys":0,"Block":2,"Trial":235,"Robot":2,"Valence":"Win","Action":"No-Go","Sham":0,"Color":"blue","trial_type":"pit-trial","trial_index":256,"time_elapsed":1033862,"internal_node_id":"0.0-245.0","task_version":"test-retest-t4"},{"Rune":"rune_07_kauna","Hex":"#ffcc3399","Correct":-1,"Choice":-1,"RT":-1,"Accuracy":1,"Outcome":"-1","Keys":[],"TotalKeys":0,"Block":2,"Trial":236,"Robot":4,"Valence":"Lose","Action":"No-Go","Sham":0,"Color":"yellow","trial_type":"pit-trial","trial_index":257,"time_elapsed":1037868,"internal_node_id":"0.0-246.0","task_version":"test-retest-t4"},{"Rune":"rune_07_thurisaz","Hex":"#3366ff99","Correct":32,"Choice":32,"RT":444.37500002095476,"Accuracy":1,"Outcome":"+10","Keys":[1944.6549999993294],"TotalKeys":1,"Block":2,"Trial":237,"Robot":1,"Valence":"Win","Action":"Go","Sham":0,"Color":"blue","trial_type":"pit-trial","trial_index":258,"time_elapsed":1040815,"internal_node_id":"0.0-247.0","task_version":"test-retest-t4"},{"Rune":"rune_07_laukaz","Hex":"#3366ff99","Correct":-1,"Choice":-1,"RT":-1,"Accuracy":1,"Outcome":"+10","Keys":[],"TotalKeys":0,"Block":2,"Trial":238,"Robot":2,"Valence":"Win","Action":"No-Go","Sham":0,"Color":"blue","trial_type":"pit-trial","trial_index":259,"time_elapsed":1044818,"internal_node_id":"0.0-248.0","task_version":"test-retest-t4"},{"Rune":"rune_07_kauna","Hex":"#ffcc3399","Correct":-1,"Choice":-1,"RT":-1,"Accuracy":1,"Outcome":"-1","Keys":[],"TotalKeys":0,"Block":2,"Trial":239,"Robot":4,"Valence":"Lose","Action":"No-Go","Sham":0,"Color":"yellow","trial_type":"pit-trial","trial_index":260,"time_elapsed":1048825,"internal_node_id":"0.0-249.0","task_version":"test-retest-t4"},{"Rune":"rune_07_gar","Hex":"#ffcc3399","Correct":32,"Choice":32,"RT":293.5699999798089,"Accuracy":1,"Outcome":"-1","Keys":[1794.1349999746308],"TotalKeys":1,"Block":2,"Trial":240,"Robot":3,"Valence":"Lose","Action":"Go","Sham":0,"Color":"yellow","trial_type":"pit-trial","trial_index":261,"time_elapsed":1051622,"internal_node_id":"0.0-250.0","task_version":"test-retest-t4"},{"view_history":"[{\"page_index\":0,\"viewing_time\":1867.9049999918789}]","rt":1868.3099999907427,"trial_type":"pit-instructions","trial_index":262,"time_elapsed":1053492,"internal_node_id":"0.0-251.0","task_version":"test-retest-t4"},{"rt":9237.280000001192,"responses":{"age":"22","gender-categorical":"Male","gender-free-response":"","ethnicity":"Not Hispanic or Latino","race":"White","language":"No","fluency":"Very well"},"survey":"demographics","trial_type":"survey-demo","trial_index":263,"time_elapsed":1062732,"internal_node_id":"0.0-252.0","task_version":"test-retest-t4"},{"rt":9782.050000037998,"responses":{"difficulty":"4","fun":"4","clarity":"5","strategy":"Remember only what I needed to accept.","feedback":""},"survey":"debrief","trial_type":"survey-debrief","trial_index":264,"time_elapsed":1072516,"internal_node_id":"0.0-253.0","task_version":"test-retest-t4"},{"rt":2489.369999966584,"stimulus":"You earned a bonus of $1.45 out of $1.5.<br><br>Press any key to complete the experiment.","key_press":32,"trial_type":"html-keyboard-response","trial_index":265,"time_elapsed":1075008,"internal_node_id":"0.0-254.0","task_version":"test-retest-t4","accuracy":0.9666666666666667,"bonus":1.45,"interactions":"[{\"event\":\"blur\",\"trial\":201,\"time\":843951},{\"event\":\"focus\",\"trial\":201,\"time\":845217}]"}]