[{"slider_type":"valence","raw_loc":731,"loc":0.962,"trial_type":"affective-slider","trial_index":0,"time_elapsed":3028,"internal_node_id":"0.0-0.0","task_version":"test-retest-t4"},{"responses":{"Q04":"1","Q02":"1","Q05":"3","Q07":"3","Q12":"0","Q03":"2","Q11":"0","Q13":"0","Q09":"1","Q01":"0","Q08":"2","Q10":"1","Q06":"3"},"rt":122088.48500000022,"survey":"bisbas","trial_type":"survey-template","trial_index":1,"time_elapsed":125122,"internal_node_id":"0.0-1.0","task_version":"test-retest-t4"},{"responses":{"Q01":"0","Q04":"0","Q08":"0","Q06":"1","Q07":"0","Q05":"0","Q03":"0","Q02":"0"},"rt":15233.430000000226,"survey":"gad7","trial_type":"survey-template","trial_index":2,"time_elapsed":140357,"internal_node_id":"0.0-2.0","task_version":"test-retest-t4"},{"responses":{"Q06":"0","Q01":"0","Q09":"0","Q04":"0","Q05":"0","Q07":"1","Q15":"0","Q10":"0","Q14":"0","Q08":"2","Q03":"2","Q02":"0","Q12":"0","Q13":"0","Q11":"0"},"rt":377990.25000000256,"survey":"7up7down","trial_type":"survey-template","trial_index":3,"time_elapsed":518351,"internal_node_id":"0.0-3.0","task_version":"test-retest-t4"},{"view_history":"[{\"page_index\":0,\"viewing_time\":44078.92499999795},{\"page_index\":1,\"viewing_time\":60454.88000000117},{\"page_index\":2,\"viewing_time\":4928.10499999905},{\"page_index\":3,\"viewing_time\":1931.9450000001816},{\"page_index\":4,\"viewing_time\":2733.9800000009127},{\"page_index\":5,\"viewing_time\":4540.124999999534}]","rt":118668.82499999693,"trial_type":"pit-instructions","trial_index":4,"time_elapsed":637025,"internal_node_id":"0.0-4.0-0.0","task_version":"test-retest-t4"},{"Rune":"rune_00_ingz","Hex":"#FFFFF080","Correct":32,"Choice":-1,"RT":-1,"Accuracy":0,"Outcome":"+0","Keys":[],"TotalKeys":0,"Block":0,"Action":"Go","trial_type":"pit-trial","trial_index":5,"time_elapsed":641030,"internal_node_id":"0.0-4.0-1.0-0.0","task_version":"test-retest-t4"},{"Rune":"rune_00_ingz","Hex":"#FFFFF080","Correct":32,"Choice":-1,"RT":-1,"Accuracy":0,"Outcome":"+0","Keys":[],"TotalKeys":0,"Block":0,"Action":"Go","trial_type":"pit-trial","trial_index":6,"time_elapsed":645037,"internal_node_id":"0.0-4.0-1.0-0.1","task_version":"test-retest-t4"},{"Rune":"rune_00_ingz","Hex":"#FFFFF080","Correct":32,"Choice":-1,"RT":-1,"Accuracy":0,"Outcome":"+0","Keys":[],"TotalKeys":0,"Block":0,"Action":"Go","trial_type":"pit-trial","trial_index":7,"time_elapsed":649041,"internal_node_id":"0.0-4.0-1.0-0.2","task_version":"test-retest-t4"},{"Rune":"rune_00_ingz","Hex":"#FFFFF080","Correct":32,"Choice":-1,"RT":-1,"Accuracy":0,"Outcome":"+0","Keys":[],"TotalKeys":0,"Block":0,"Action":"Go","trial_type":"pit-trial","trial_index":8,"time_elapsed":653042,"internal_node_id":"0.0-4.0-1.0-0.3","task_version":"test-retest-t4"},{"view_history":"[{\"page_index\":0,\"viewing_time\":12931.254999999539}]","rt":12931.564999999013,"trial_type":"pit-instructions","trial_index":9,"time_elapsed":665975,"internal_node_id":"0.0-4.0-2.0","task_version":"test-retest-t4"},{"Rune":"rune_00_isaz","Hex":"#FFFFF080","Correct":-1,"Choice":-1,"RT":-1,"Accuracy":1,"Outcome":"+10","Keys":[],"TotalKeys":0,"Block":0,"Action":"No-Go","trial_type":"pit-trial","trial_index":10,"time_elapsed":669978,"internal_node_id":"0.0-4.0-3.0-0.0","task_version":"test-retest-t4"},{"Rune":"rune_00_isaz","Hex":"#FFFFF080","Correct":-1,"Choice":-1,"RT":-1,"Accuracy":1,"Outcome":"+10","Keys":[],"TotalKeys":0,"Block":0,"Action":"No-Go","trial_type":"pit-trial","trial_index":11,"time_elapsed":673981,"internal_node_id":"0.0-4.0-3.0-0.1","task_version":"test-retest-t4"},{"Rune":"rune_00_isaz","Hex":"#FFFFF080","Correct":-1,"Choice":-1,"RT":-1,"Accuracy":1,"Outcome":"+10","Keys":[],"TotalKeys":0,"Block":0,"Action":"No-Go","trial_type":"pit-trial","trial_index":12,"time_elapsed":677983,"internal_node_id":"0.0-4.0-3.0-0.2","task_version":"test-retest-t4"},{"Rune":"rune_00_isaz","Hex":"#FFFFF080","Correct":-1,"Choice":-1,"RT":-1,"Accuracy":1,"Outcome":"+10","Keys":[],"TotalKeys":0,"Block":0,"Action":"No-Go","trial_type":"pit-trial","trial_index":13,"time_elapsed":681987,"internal_node_id":"0.0-4.0-3.0-0.3","task_version":"test-retest-t4"},{"view_history":"[{\"page_index\":0,\"viewing_time\":2652.5050000018673},{\"page_index\":1,\"viewing_time\":3847.9650000007823},{\"page_index\":2,\"viewing_time\":2485.969999997993},{\"page_index\":3,\"viewing_time\":3822.005000001751},{\"page_index\":4,\"viewing_time\":7840.29999999993},{\"page_index\":5,\"viewing_time\":10946.06500000006},{\"page_index\":6,\"viewing_time\":1653.7499999976717},{\"page_index\":7,\"viewing_time\":1895.9300000023795}]","rt":35144.76000000292,"trial_type":"pit-instructions","trial_index":14,"time_elapsed":717133,"internal_node_id":"0.0-4.0-4.0","task_version":"test-retest-t4"},{"responses":["Do nothing","+10","-1","True","Yes"],"num_errors":0,"rt":20904.585000000196,"trial_type":"pit-comprehension","trial_index":15,"time_elapsed":738039,"internal_node_id":"0.0-4.0-5.0","task_version":"test-retest-t4"},{"trial_type":"call-function","trial_index":16,"time_elapsed":738041,"internal_node_id":"0.0-5.0","task_version":"test-retest-t4"},{"view_history":"[{\"page_index\":0,\"viewing_time\":3244.3750000020955},{\"page_index\":1,\"viewing_time\":14122.025000000605},{\"page_index\":2,\"viewing_time\":1772.095000000205}]","rt":19138.80500000238,"trial_type":"pit-instructions","trial_index":17,"time_elapsed":757180,"internal_node_id":"0.0-6.0","task_version":"test-retest-t4"},{"Rune":"rune_07_thurisaz","Hex":"#3366ff99","Correct":-1,"Choice":32,"RT":362.6850000000559,"Accuracy":0,"Outcome":"+1","Keys":[1862.9000000000233],"TotalKeys":1,"Block":1,"Trial":1,"Robot":2,"Valence":"Win","Action":"No-Go","Sham":0,"Color":"blue","trial_type":"pit-trial","trial_index":18,"time_elapsed":760047,"internal_node_id":"0.0-7.0","task_version":"test-retest-t4"},{"Rune":"rune_07_laukaz","Hex":"#ffcc3399","Correct":32,"Choice":32,"RT":273.6850000001723,"Accuracy":1,"Outcome":"-10","Keys":[1773.940000002738],"TotalKeys":1,"Block":1,"Trial":2,"Robot":3,"Valence":"Lose","Action":"Go","Sham":1,"Color":"yellow","trial_type":"pit-trial","trial_index":19,"time_elapsed":762823,"internal_node_id":"0.0-8.0","task_version":"test-retest-t4"},{"Rune":"rune_07_gar","Hex":"#3366ff99","Correct":32,"Choice":32,"RT":249.79499999969266,"Accuracy":1,"Outcome":"+10","Keys":[1749.9250000000466],"TotalKeys":1,"Block":1,"Trial":3,"Robot":1,"Valence":"Win","Action":"Go","Sham":0,"Color":"blue","trial_type":"pit-trial","trial_index":20,"time_elapsed":765574,"internal_node_id":"0.0-9.0","task_version":"test-retest-t4"},{"Rune":"rune_07_kauna","Hex":"#ffcc3399","Correct":-1,"Choice":-1,"RT":-1,"Accuracy":1,"Outcome":"-1","Keys":[],"TotalKeys":0,"Block":1,"Trial":4,"Robot":4,"Valence":"Lose","Action":"No-Go","Sham":0,"Color":"yellow","trial_type":"pit-trial","trial_index":21,"time_elapsed":769579,"internal_node_id":"0.0-10.0","task_version":"test-retest-t4"},{"Rune":"rune_07_thurisaz","Hex":"#3366ff99","Correct":-1,"Choice":-1,"RT":-1,"Accuracy":1,"Outcome":"+10","Keys":[],"TotalKeys":0,"Block":1,"Trial":5,"Robot":2,"Valence":"Win","Action":"No-Go","Sham":0,"Color":"blue","trial_type":"pit-trial","trial_index":22,"time_elapsed":773586,"internal_node_id":"0.0-11.0","task_version":"test-retest-t4"},{"Rune":"rune_07_kauna","Hex":"#ffcc3399","Correct":-1,"Choice":-1,"RT":-1,"Accuracy":1,"Outcome":"-1","Keys":[],"TotalKeys":0,"Block":1,"Trial":6,"Robot":4,"Valence":"Lose","Action":"No-Go","Sham":0,"Color":"yellow","trial_type":"pit-trial","trial_index":23,"time_elapsed":777593,"internal_node_id":"0.0-12.0","task_version":"test-retest-t4"},{"Rune":"rune_07_gar","Hex":"#3366ff99","Correct":32,"Choice":32,"RT":551.3199999986682,"Accuracy":1,"Outcome":"+10","Keys":[2052.0849999993807],"TotalKeys":1,"Block":1,"Trial":7,"Robot":1,"Valence":"Win","Action":"Go","Sham":0,"Color":"blue","trial_type":"pit-trial","trial_index":24,"time_elapsed":780648,"internal_node_id":"0.0-13.0","task_version":"test-retest-t4"},{"Rune":"rune_07_laukaz","Hex":"#ffcc3399","Correct":32,"Choice":-1,"RT":-1,"Accuracy":0,"Outcome":"-10","Keys":[],"TotalKeys":0,"Block":1,"Trial":8,"Robot":3,"Valence":"Lose","Action":"Go","Sham":0,"Color":"yellow","trial_type":"pit-trial","trial_index":25,"time_elapsed":784654,"internal_node_id":"0.0-14.0","task_version":"test-retest-t4"},{"Rune":"rune_07_thurisaz","Hex":"#3366ff99","Correct":-1,"Choice":-1,"RT":-1,"Accuracy":1,"Outcome":"+10","Keys":[],"TotalKeys":0,"Block":1,"Trial":9,"Robot":2,"Valence":"Win","Action":"No-Go","Sham":0,"Color":"blue","trial_type":"pit-trial","trial_index":26,"time_elapsed":788657,"internal_node_id":"0.0-15.0","task_version":"test-retest-t4"},{"Rune":"rune_07_gar","Hex":"#3366ff99","Correct":32,"Choice":32,"RT":480.00000000325963,"Accuracy":1,"Outcome":"+1","Keys":[1980.7949999994598],"TotalKeys":1,"Block":1,"Trial":10,"Robot":1,"Valence":"Win","Action":"Go","Sham":1,"Color":"blue","trial_type":"pit-trial","trial_index":27,"time_elapsed":791639,"internal_node_id":"0.0-16.0","task_version":"test-retest-t4"},{"Rune":"rune_07_kauna","Hex":"#ffcc3399","Correct":-1,"Choice":-1,"RT":-1,"Accuracy":1,"Outcome":"-1","Keys":[],"TotalKeys":0,"Block":1,"Trial":11,"Robot":4,"Valence":"Lose","Action":"No-Go","Sham":0,"Color":"yellow","trial_type":"pit-trial","trial_index":28,"time_elapsed":795643,"internal_node_id":"0.0-17.0","task_version":"test-retest-t4"},{"Rune":"rune_07_laukaz","Hex":"#ffcc3399","Correct":32,"Choice":-1,"RT":-1,"Accuracy":0,"Outcome":"-10","Keys":[],"TotalKeys":0,"Block":1,"Trial":12,"Robot":3,"Valence":"Lose","Action":"Go","Sham":0,"Color":"yellow","trial_type":"pit-trial","trial_index":29,"time_elapsed":799649,"internal_node_id":"0.0-18.0","task_version":"test-retest-t4"},{"Rune":"rune_07_kauna","Hex":"#ffcc3399","Correct":-1,"Choice":-1,"RT":-1,"Accuracy":1,"Outcome":"-10","Keys":[],"TotalKeys":0,"Block":1,"Trial":13,"Robot":4,"Valence":"Lose","Action":"No-Go","Sham":1,"Color":"yellow","trial_type":"pit-trial","trial_index":30,"time_elapsed":803653,"internal_node_id":"0.0-19.0","task_version":"test-retest-t4"},{"Rune":"rune_07_gar","Hex":"#3366ff99","Correct":32,"Choice":32,"RT":475.71000000240747,"Accuracy":1,"Outcome":"+10","Keys":[1975.86500000034],"TotalKeys":1,"Block":1,"Trial":14,"Robot":1,"Valence":"Win","Action":"Go","Sham":0,"Color":"blue","trial_type":"pit-trial","trial_index":31,"time_elapsed":806635,"internal_node_id":"0.0-20.0","task_version":"test-retest-t4"},{"Rune":"rune_07_laukaz","Hex":"#ffcc3399","Correct":32,"Choice":-1,"RT":-1,"Accuracy":0,"Outcome":"-10","Keys":[],"TotalKeys":0,"Block":1,"Trial":15,"Robot":3,"Valence":"Lose","Action":"Go","Sham":0,"Color":"yellow","trial_type":"pit-trial","trial_index":32,"time_elapsed":810641,"internal_node_id":"0.0-21.0","task_version":"test-retest-t4"},{"Rune":"rune_07_thurisaz","Hex":"#3366ff99","Correct":-1,"Choice":-1,"RT":-1,"Accuracy":1,"Outcome":"+1","Keys":[],"TotalKeys":0,"Block":1,"Trial":16,"Robot":2,"Valence":"Win","Action":"No-Go","Sham":1,"Color":"blue","trial_type":"pit-trial","trial_index":33,"time_elapsed":814643,"internal_node_id":"0.0-22.0","task_version":"test-retest-t4"},{"Rune":"rune_07_kauna","Hex":"#ffcc3399","Correct":-1,"Choice":-1,"RT":-1,"Accuracy":1,"Outcome":"-1","Keys":[],"TotalKeys":0,"Block":1,"Trial":17,"Robot":4,"Valence":"Lose","Action":"No-Go","Sham":0,"Color":"yellow","trial_type":"pit-trial","trial_index":34,"time_elapsed":818645,"internal_node_id":"0.0-23.0","task_version":"test-retest-t4"},{"Rune":"rune_07_thurisaz","Hex":"#3366ff99","Correct":-1,"Choice":-1,"RT":-1,"Accuracy":1,"Outcome":"+10","Keys":[],"TotalKeys":0,"Block":1,"Trial":18,"Robot":2,"Valence":"Win","Action":"No-Go","Sham":0,"Color":"blue","trial_type":"pit-trial","trial_index":35,"time_elapsed":822649,"internal_node_id":"0.0-24.0","task_version":"test-retest-t4"},{"Rune":"rune_07_laukaz","Hex":"#ffcc3399","Correct":32,"Choice":32,"RT":712.2400000006892,"Accuracy":1,"Outcome":"-1","Keys":[2212.240000000689],"TotalKeys":1,"Block":1,"Trial":19,"Robot":3,"Valence":"Lose","Action":"Go","Sham":0,"Color":"yellow","trial_type":"pit-trial","trial_index":36,"time_elapsed":825867,"internal_node_id":"0.0-25.0","task_version":"test-retest-t4"},{"Rune":"rune_07_gar","Hex":"#3366ff99","Correct":32,"Choice":32,"RT":689.9599999996135,"Accuracy":1,"Outcome":"+10","Keys":[2190.549999999348],"TotalKeys":1,"Block":1,"Trial":20,"Robot":1,"Valence":"Win","Action":"Go","Sham":0,"Color":"blue","trial_type":"pit-trial","trial_index":37,"time_elapsed":829064,"internal_node_id":"0.0-26.0","task_version":"test-retest-t4"},{"Rune":"rune_07_laukaz","Hex":"#ffcc3399","Correct":32,"Choice":32,"RT":631.9999999977881,"Accuracy":1,"Outcome":"-1","Keys":[2132.689999998547],"TotalKeys":1,"Block":1,"Trial":21,"Robot":3,"Valence":"Lose","Action":"Go","Sham":0,"Color":"yellow","trial_type":"pit-trial","trial_index":38,"time_elapsed":832203,"internal_node_id":"0.0-27.0","task_version":"test-retest-t4"},{"Rune":"rune_07_gar","Hex":"#3366ff99","Correct":32,"Choice":32,"RT":482.0800000015879,"Accuracy":1,"Outcome":"+10","Keys":[1983.2900000001537],"TotalKeys":1,"Block":1,"Trial":22,"Robot":1,"Valence":"Win","Action":"Go","Sham":0,"Color":"blue","trial_type":"pit-trial","trial_index":39,"time_elapsed":835190,"internal_node_id":"0.0-28.0","task_version":"test-retest-t4"},{"Rune":"rune_07_thurisaz","Hex":"#3366ff99","Correct":-1,"Choice":-1,"RT":-1,"Accuracy":1,"Outcome":"+10","Keys":[],"TotalKeys":0,"Block":1,"Trial":23,"Robot":2,"Valence":"Win","Action":"No-Go","Sham":0,"Color":"blue","trial_type":"pit-trial","trial_index":40,"time_elapsed":839193,"internal_node_id":"0.0-29.0","task_version":"test-retest-t4"},{"Rune":"rune_07_kauna","Hex":"#ffcc3399","Correct":-1,"Choice":-1,"RT":-1,"Accuracy":1,"Outcome":"-1","Keys":[],"TotalKeys":0,"Block":1,"Trial":24,"Robot":4,"Valence":"Lose","Action":"No-Go","Sham":0,"Color":"yellow","trial_type":"pit-trial","trial_index":41,"time_elapsed":843197,"internal_node_id":"0.0-30.0","task_version":"test-retest-t4"},{"Rune":"rune_07_thurisaz","Hex":"#3366ff99","Correct":-1,"Choice":-1,"RT":-1,"Accuracy":1,"Outcome":"+10","Keys":[],"TotalKeys":0,"Block":1,"Trial":25,"Robot":2,"Valence":"Win","Action":"No-Go","Sham":0,"Color":"blue","trial_type":"pit-trial","trial_index":42,"time_elapsed":847200,"internal_node_id":"0.0-31.0","task_version":"test-retest-t4"},{"Rune":"rune_07_laukaz","Hex":"#ffcc3399","Correct":32,"Choice":32,"RT":448.5400000012014,"Accuracy":1,"Outcome":"-10","Keys":[1949.0249999980442],"TotalKeys":1,"Block":1,"Trial":26,"Robot":3,"Valence":"Lose","Action":"Go","Sham":1,"Color":"yellow","trial_type":"pit-trial","trial_index":43,"time_elapsed":850151,"internal_node_id":"0.0-32.0","task_version":"test-retest-t4"},{"Rune":"rune_07_gar","Hex":"#3366ff99","Correct":32,"Choice":32,"RT":537.3499999986961,"Accuracy":1,"Outcome":"+10","Keys":[2037.684999999241],"TotalKeys":1,"Block":1,"Trial":27,"Robot":1,"Valence":"Win","Action":"Go","Sham":0,"Color":"blue","trial_type":"pit-trial","trial_index":44,"time_elapsed":853190,"internal_node_id":"0.0-33.0","task_version":"test-retest-t4"},{"Rune":"rune_07_kauna","Hex":"#ffcc3399","Correct":-1,"Choice":-1,"RT":-1,"Accuracy":1,"Outcome":"-1","Keys":[],"TotalKeys":0,"Block":1,"Trial":28,"Robot":4,"Valence":"Lose","Action":"No-Go","Sham":0,"Color":"yellow","trial_type":"pit-trial","trial_index":45,"time_elapsed":857193,"internal_node_id":"0.0-34.0","task_version":"test-retest-t4"},{"Rune":"rune_07_laukaz","Hex":"#ffcc3399","Correct":32,"Choice":32,"RT":525.5599999981932,"Accuracy":1,"Outcome":"-1","Keys":[2027.5399999992223],"TotalKeys":1,"Block":1,"Trial":29,"Robot":3,"Valence":"Lose","Action":"Go","Sham":0,"Color":"yellow","trial_type":"pit-trial","trial_index":46,"time_elapsed":860227,"internal_node_id":"0.0-35.0","task_version":"test-retest-t4"},{"Rune":"rune_07_thurisaz","Hex":"#3366ff99","Correct":-1,"Choice":-1,"RT":-1,"Accuracy":1,"Outcome":"+1","Keys":[],"TotalKeys":0,"Block":1,"Trial":30,"Robot":2,"Valence":"Win","Action":"No-Go","Sham":1,"Color":"blue","trial_type":"pit-trial","trial_index":47,"time_elapsed":864233,"internal_node_id":"0.0-36.0","task_version":"test-retest-t4"},{"Rune":"rune_07_gar","Hex":"#3366ff99","Correct":32,"Choice":32,"RT":598.7499999974389,"Accuracy":1,"Outcome":"+10","Keys":[2099.095000001369],"TotalKeys":1,"Block":1,"Trial":31,"Robot":1,"Valence":"Win","Action":"Go","Sham":0,"Color":"blue","trial_type":"pit-trial","trial_index":48,"time_elapsed":867339,"internal_node_id":"0.0-37.0","task_version":"test-retest-t4"},{"Rune":"rune_07_kauna","Hex":"#ffcc3399","Correct":-1,"Choice":-1,"RT":-1,"Accuracy":1,"Outcome":"-1","Keys":[],"TotalKeys":0,"Block":1,"Trial":32,"Robot":4,"Valence":"Lose","Action":"No-Go","Sham":0,"Color":"yellow","trial_type":"pit-trial","trial_index":49,"time_elapsed":871345,"internal_node_id":"0.0-38.0","task_version":"test-retest-t4"},{"Rune":"rune_07_kauna","Hex":"#ffcc3399","Correct":-1,"Choice":-1,"RT":-1,"Accuracy":1,"Outcome":"-1","Keys":[],"TotalKeys":0,"Block":1,"Trial":33,"Robot":4,"Valence":"Lose","Action":"No-Go","Sham":0,"Color":"yellow","trial_type":"pit-trial","trial_index":50,"time_elapsed":875349,"internal_node_id":"0.0-39.0","task_version":"test-retest-t4"},{"Rune":"rune_07_thurisaz","Hex":"#3366ff99","Correct":-1,"Choice":-1,"RT":-1,"Accuracy":1,"Outcome":"+10","Keys":[],"TotalKeys":0,"Block":1,"Trial":34,"Robot":2,"Valence":"Win","Action":"No-Go","Sham":0,"Color":"blue","trial_type":"pit-trial","trial_index":51,"time_elapsed":879353,"internal_node_id":"0.0-40.0","task_version":"test-retest-t4"},{"Rune":"rune_07_gar","Hex":"#3366ff99","Correct":32,"Choice":32,"RT":472.20000000018626,"Accuracy":1,"Outcome":"+10","Keys":[1972.7249999996275],"TotalKeys":1,"Block":1,"Trial":35,"Robot":1,"Valence":"Win","Action":"Go","Sham":0,"Color":"blue","trial_type":"pit-trial","trial_index":52,"time_elapsed":882331,"internal_node_id":"0.0-41.0","task_version":"test-retest-t4"},{"Rune":"rune_07_laukaz","Hex":"#ffcc3399","Correct":32,"Choice":32,"RT":597.2149999979883,"Accuracy":1,"Outcome":"-1","Keys":[2098.1399999982677],"TotalKeys":1,"Block":1,"Trial":36,"Robot":3,"Valence":"Lose","Action":"Go","Sham":0,"Color":"yellow","trial_type":"pit-trial","trial_index":53,"time_elapsed":886122,"internal_node_id":"0.0-42.0","task_version":"test-retest-t4"},{"Rune":"rune_07_kauna","Hex":"#ffcc3399","Correct":-1,"Choice":-1,"RT":-1,"Accuracy":1,"Outcome":"-10","Keys":[],"TotalKeys":0,"Block":1,"Trial":37,"Robot":4,"Valence":"Lose","Action":"No-Go","Sham":1,"Color":"yellow","trial_type":"pit-trial","trial_index":54,"time_elapsed":890128,"internal_node_id":"0.0-43.0","task_version":"test-retest-t4"},{"Rune":"rune_07_gar","Hex":"#3366ff99","Correct":32,"Choice":32,"RT":419.6699999993434,"Accuracy":1,"Outcome":"+1","Keys":[1920.4500000014668],"TotalKeys":1,"Block":1,"Trial":38,"Robot":1,"Valence":"Win","Action":"Go","Sham":1,"Color":"blue","trial_type":"pit-trial","trial_index":55,"time_elapsed":893051,"internal_node_id":"0.0-44.0","task_version":"test-retest-t4"},{"Rune":"rune_07_laukaz","Hex":"#ffcc3399","Correct":32,"Choice":32,"RT":494.00999999861233,"Accuracy":1,"Outcome":"-1","Keys":[1994.4849999992875],"TotalKeys":1,"Block":1,"Trial":39,"Robot":3,"Valence":"Lose","Action":"Go","Sham":0,"Color":"yellow","trial_type":"pit-trial","trial_index":56,"time_elapsed":896047,"internal_node_id":"0.0-45.0","task_version":"test-retest-t4"},{"Rune":"rune_07_thurisaz","Hex":"#3366ff99","Correct":-1,"Choice":-1,"RT":-1,"Accuracy":1,"Outcome":"+10","Keys":[],"TotalKeys":0,"Block":1,"Trial":40,"Robot":2,"Valence":"Win","Action":"No-Go","Sham":0,"Color":"blue","trial_type":"pit-trial","trial_index":57,"time_elapsed":900051,"internal_node_id":"0.0-46.0","task_version":"test-retest-t4"},{"Rune":"rune_07_laukaz","Hex":"#ffcc3399","Correct":32,"Choice":32,"RT":445.4199999999255,"Accuracy":1,"Outcome":"-10","Keys":[1946.1799999990035],"TotalKeys":1,"Block":1,"Trial":41,"Robot":3,"Valence":"Lose","Action":"Go","Sham":1,"Color":"yellow","trial_type":"pit-trial","trial_index":58,"time_elapsed":903000,"internal_node_id":"0.0-47.0","task_version":"test-retest-t4"},{"Rune":"rune_07_thurisaz","Hex":"#3366ff99","Correct":-1,"Choice":-1,"RT":-1,"Accuracy":1,"Outcome":"+10","Keys":[],"TotalKeys":0,"Block":1,"Trial":42,"Robot":2,"Valence":"Win","Action":"No-Go","Sham":0,"Color":"blue","trial_type":"pit-trial","trial_index":59,"time_elapsed":907004,"internal_node_id":"0.0-48.0","task_version":"test-retest-t4"},{"Rune":"rune_07_gar","Hex":"#3366ff99","Correct":32,"Choice":32,"RT":452.0149999988498,"Accuracy":1,"Outcome":"+10","Keys":[1952.7500000003492],"TotalKeys":1,"Block":1,"Trial":43,"Robot":1,"Valence":"Win","Action":"Go","Sham":0,"Color":"blue","trial_type":"pit-trial","trial_index":60,"time_elapsed":909963,"internal_node_id":"0.0-49.0","task_version":"test-retest-t4"},{"Rune":"rune_07_kauna","Hex":"#ffcc3399","Correct":-1,"Choice":-1,"RT":-1,"Accuracy":1,"Outcome":"-1","Keys":[],"TotalKeys":0,"Block":1,"Trial":44,"Robot":4,"Valence":"Lose","Action":"No-Go","Sham":0,"Color":"yellow","trial_type":"pit-trial","trial_index":61,"time_elapsed":913969,"internal_node_id":"0.0-50.0","task_version":"test-retest-t4"},{"Rune":"rune_07_kauna","Hex":"#ffcc3399","Correct":-1,"Choice":-1,"RT":-1,"Accuracy":1,"Outcome":"-1","Keys":[],"TotalKeys":0,"Block":1,"Trial":45,"Robot":4,"Valence":"Lose","Action":"No-Go","Sham":0,"Color":"yellow","trial_type":"pit-trial","trial_index":62,"time_elapsed":917973,"internal_node_id":"0.0-51.0","task_version":"test-retest-t4"},{"Rune":"rune_07_gar","Hex":"#3366ff99","Correct":32,"Choice":32,"RT":371.9950000012759,"Accuracy":1,"Outcome":"+1","Keys":[1872.2699999997858],"TotalKeys":1,"Block":1,"Trial":46,"Robot":1,"Valence":"Win","Action":"Go","Sham":1,"Color":"blue","trial_type":"pit-trial","trial_index":63,"time_elapsed":920847,"internal_node_id":"0.0-52.0","task_version":"test-retest-t4"},{"Rune":"rune_07_thurisaz","Hex":"#3366ff99","Correct":-1,"Choice":-1,"RT":-1,"Accuracy":1,"Outcome":"+10","Keys":[],"TotalKeys":0,"Block":1,"Trial":47,"Robot":2,"Valence":"Win","Action":"No-Go","Sham":0,"Color":"blue","trial_type":"pit-trial","trial_index":64,"time_elapsed":924850,"internal_node_id":"0.0-53.0","task_version":"test-retest-t4"},{"Rune":"rune_07_laukaz","Hex":"#ffcc3399","Correct":32,"Choice":32,"RT":486.2549999997718,"Accuracy":1,"Outcome":"-1","Keys":[1986.9450000005309],"TotalKeys":1,"Block":1,"Trial":48,"Robot":3,"Valence":"Lose","Action":"Go","Sham":0,"Color":"yellow","trial_type":"pit-trial","trial_index":65,"time_elapsed":927840,"internal_node_id":"0.0-54.0","task_version":"test-retest-t4"},{"Rune":"rune_07_gar","Hex":"#3366ff99","Correct":32,"Choice":32,"RT":459.1649999965448,"Accuracy":1,"Outcome":"+10","Keys":[1959.8299999997253],"TotalKeys":1,"Block":1,"Trial":49,"Robot":1,"Valence":"Win","Action":"Go","Sham":0,"Color":"blue","trial_type":"pit-trial","trial_index":66,"time_elapsed":930803,"internal_node_id":"0.0-55.0","task_version":"test-retest-t4"},{"Rune":"rune_07_kauna","Hex":"#ffcc3399","Correct":-1,"Choice":-1,"RT":-1,"Accuracy":1,"Outcome":"-1","Keys":[],"TotalKeys":0,"Block":1,"Trial":50,"Robot":4,"Valence":"Lose","Action":"No-Go","Sham":0,"Color":"yellow","trial_type":"pit-trial","trial_index":67,"time_elapsed":934809,"internal_node_id":"0.0-56.0","task_version":"test-retest-t4"},{"Rune":"rune_07_laukaz","Hex":"#ffcc3399","Correct":32,"Choice":32,"RT":590.8999999992084,"Accuracy":1,"Outcome":"-1","Keys":[2092.474999997532],"TotalKeys":1,"Block":1,"Trial":51,"Robot":3,"Valence":"Lose","Action":"Go","Sham":0,"Color":"yellow","trial_type":"pit-trial","trial_index":68,"time_elapsed":937908,"internal_node_id":"0.0-57.0","task_version":"test-retest-t4"},{"Rune":"rune_07_thurisaz","Hex":"#3366ff99","Correct":-1,"Choice":-1,"RT":-1,"Accuracy":1,"Outcome":"+10","Keys":[],"TotalKeys":0,"Block":1,"Trial":52,"Robot":2,"Valence":"Win","Action":"No-Go","Sham":0,"Color":"blue","trial_type":"pit-trial","trial_index":69,"time_elapsed":941915,"internal_node_id":"0.0-58.0","task_version":"test-retest-t4"},{"Rune":"rune_07_gar","Hex":"#3366ff99","Correct":32,"Choice":32,"RT":474.6099999975413,"Accuracy":1,"Outcome":"+10","Keys":[1974.615000002901],"TotalKeys":1,"Block":1,"Trial":53,"Robot":1,"Valence":"Win","Action":"Go","Sham":0,"Color":"blue","trial_type":"pit-trial","trial_index":70,"time_elapsed":944895,"internal_node_id":"0.0-59.0","task_version":"test-retest-t4"},{"Rune":"rune_07_kauna","Hex":"#ffcc3399","Correct":-1,"Choice":-1,"RT":-1,"Accuracy":1,"Outcome":"-1","Keys":[],"TotalKeys":0,"Block":1,"Trial":54,"Robot":4,"Valence":"Lose","Action":"No-Go","Sham":0,"Color":"yellow","trial_type":"pit-trial","trial_index":71,"time_elapsed":948897,"internal_node_id":"0.0-60.0","task_version":"test-retest-t4"},{"Rune":"rune_07_thurisaz","Hex":"#3366ff99","Correct":-1,"Choice":-1,"RT":-1,"Accuracy":1,"Outcome":"+1","Keys":[],"TotalKeys":0,"Block":1,"Trial":55,"Robot":2,"Valence":"Win","Action":"No-Go","Sham":1,"Color":"blue","trial_type":"pit-trial","trial_index":72,"time_elapsed":952900,"internal_node_id":"0.0-61.0","task_version":"test-retest-t4"},{"Rune":"rune_07_laukaz","Hex":"#ffcc3399","Correct":32,"Choice":32,"RT":508.2299999995157,"Accuracy":1,"Outcome":"-1","Keys":[2008.9399999997113],"TotalKeys":1,"Block":1,"Trial":56,"Robot":3,"Valence":"Lose","Action":"Go","Sham":0,"Color":"yellow","trial_type":"pit-trial","trial_index":73,"time_elapsed":955916,"internal_node_id":"0.0-62.0","task_version":"test-retest-t4"},{"Rune":"rune_07_kauna","Hex":"#ffcc3399","Correct":-1,"Choice":-1,"RT":-1,"Accuracy":1,"Outcome":"-10","Keys":[],"TotalKeys":0,"Block":1,"Trial":57,"Robot":4,"Valence":"Lose","Action":"No-Go","Sham":1,"Color":"yellow","trial_type":"pit-trial","trial_index":74,"time_elapsed":959923,"internal_node_id":"0.0-63.0","task_version":"test-retest-t4"},{"Rune":"rune_07_gar","Hex":"#3366ff99","Correct":32,"Choice":32,"RT":460.7899999973597,"Accuracy":1,"Outcome":"+10","Keys":[1961.650000001071],"TotalKeys":1,"Block":1,"Trial":58,"Robot":1,"Valence":"Win","Action":"Go","Sham":0,"Color":"blue","trial_type":"pit-trial","trial_index":75,"time_elapsed":962891,"internal_node_id":"0.0-64.0","task_version":"test-retest-t4"},{"Rune":"rune_07_laukaz","Hex":"#ffcc3399","Correct":32,"Choice":32,"RT":900.6649999973597,"Accuracy":1,"Outcome":"-1","Keys":[2400.935000001453],"TotalKeys":1,"Block":1,"Trial":59,"Robot":3,"Valence":"Lose","Action":"Go","Sham":0,"Color":"yellow","trial_type":"pit-trial","trial_index":76,"time_elapsed":966298,"internal_node_id":"0.0-65.0","task_version":"test-retest-t4"},{"Rune":"rune_07_thurisaz","Hex":"#3366ff99","Correct":-1,"Choice":-1,"RT":-1,"Accuracy":1,"Outcome":"+10","Keys":[],"TotalKeys":0,"Block":1,"Trial":60,"Robot":2,"Valence":"Win","Action":"No-Go","Sham":0,"Color":"blue","trial_type":"pit-trial","trial_index":77,"time_elapsed":970304,"internal_node_id":"0.0-66.0","task_version":"test-retest-t4"},{"value":false,"trial_type":"call-function","trial_index":78,"time_elapsed":970305,"internal_node_id":"0.0-67.0","task_version":"test-retest-t4"},{"view_history":"[{\"page_index\":0,\"viewing_time\":77068.00999999908},{\"page_index\":1,\"viewing_time\":1724.0000000018626}]","rt":78792.32499999856,"trial_type":"pit-instructions","trial_index":79,"time_elapsed":1049099,"internal_node_id":"0.0-68.0","task_version":"test-retest-t4"},{"Rune":"rune_07_thurisaz","Hex":"#3366ff99","Correct":-1,"Choice":-1,"RT":-1,"Accuracy":1,"Outcome":"+10","Keys":[],"TotalKeys":0,"Block":1,"Trial":61,"Robot":2,"Valence":"Win","Action":"No-Go","Sham":0,"Color":"blue","trial_type":"pit-trial","trial_index":80,"time_elapsed":1053104,"internal_node_id":"0.0-69.0","task_version":"test-retest-t4"},{"Rune":"rune_07_laukaz","Hex":"#ffcc3399","Correct":32,"Choice":32,"RT":345.22499999729916,"Accuracy":1,"Outcome":"-1","Keys":[1846.1499999975786],"TotalKeys":1,"Block":1,"Trial":62,"Robot":3,"Valence":"Lose","Action":"Go","Sham":0,"Color":"yellow","trial_type":"pit-trial","trial_index":81,"time_elapsed":1055953,"internal_node_id":"0.0-70.0","task_version":"test-retest-t4"},{"Rune":"rune_07_gar","Hex":"#3366ff99","Correct":32,"Choice":32,"RT":466.6799999976065,"Accuracy":1,"Outcome":"+1","Keys":[1967.5550000029616],"TotalKeys":1,"Block":1,"Trial":63,"Robot":1,"Valence":"Win","Action":"Go","Sham":1,"Color":"blue","trial_type":"pit-trial","trial_index":82,"time_elapsed":1058924,"internal_node_id":"0.0-71.0","task_version":"test-retest-t4"},{"Rune":"rune_07_kauna","Hex":"#ffcc3399","Correct":-1,"Choice":-1,"RT":-1,"Accuracy":1,"Outcome":"-1","Keys":[],"TotalKeys":0,"Block":1,"Trial":64,"Robot":4,"Valence":"Lose","Action":"No-Go","Sham":0,"Color":"yellow","trial_type":"pit-trial","trial_index":83,"time_elapsed":1062930,"internal_node_id":"0.0-72.0","task_version":"test-retest-t4"},{"Rune":"rune_07_thurisaz","Hex":"#3366ff99","Correct":-1,"Choice":-1,"RT":-1,"Accuracy":1,"Outcome":"+10","Keys":[],"TotalKeys":0,"Block":1,"Trial":65,"Robot":2,"Valence":"Win","Action":"No-Go","Sham":0,"Color":"blue","trial_type":"pit-trial","trial_index":84,"time_elapsed":1066933,"internal_node_id":"0.0-73.0","task_version":"test-retest-t4"},{"Rune":"rune_07_gar","Hex":"#3366ff99","Correct":32,"Choice":32,"RT":507.6900000022724,"Accuracy":1,"Outcome":"+10","Keys":[2007.765000001993],"TotalKeys":1,"Block":1,"Trial":66,"Robot":1,"Valence":"Win","Action":"Go","Sham":0,"Color":"blue","trial_type":"pit-trial","trial_index":85,"time_elapsed":1069943,"internal_node_id":"0.0-74.0","task_version":"test-retest-t4"},{"Rune":"rune_07_laukaz","Hex":"#ffcc3399","Correct":32,"Choice":32,"RT":515.8550000013784,"Accuracy":1,"Outcome":"-1","Keys":[2016.5349999989849],"TotalKeys":1,"Block":1,"Trial":67,"Robot":3,"Valence":"Lose","Action":"Go","Sham":0,"Color":"yellow","trial_type":"pit-trial","trial_index":86,"time_elapsed":1072963,"internal_node_id":"0.0-75.0","task_version":"test-retest-t4"},{"Rune":"rune_07_kauna","Hex":"#ffcc3399","Correct":-1,"Choice":-1,"RT":-1,"Accuracy":1,"Outcome":"-1","Keys":[294.68500000075437],"TotalKeys":1,"Block":1,"Trial":68,"Robot":4,"Valence":"Lose","Action":"No-Go","Sham":0,"Color":"yellow","trial_type":"pit-trial","trial_index":87,"time_elapsed":1076971,"internal_node_id":"0.0-76.0","task_version":"test-retest-t4"},{"Rune":"rune_07_kauna","Hex":"#ffcc3399","Correct":-1,"Choice":-1,"RT":-1,"Accuracy":1,"Outcome":"-1","Keys":[],"TotalKeys":0,"Block":1,"Trial":69,"Robot":4,"Valence":"Lose","Action":"No-Go","Sham":0,"Color":"yellow","trial_type":"pit-trial","trial_index":88,"time_elapsed":1080978,"internal_node_id":"0.0-77.0","task_version":"test-retest-t4"},{"Rune":"rune_07_thurisaz","Hex":"#3366ff99","Correct":-1,"Choice":-1,"RT":-1,"Accuracy":1,"Outcome":"+10","Keys":[],"TotalKeys":0,"Block":1,"Trial":70,"Robot":2,"Valence":"Win","Action":"No-Go","Sham":0,"Color":"blue","trial_type":"pit-trial","trial_index":89,"time_elapsed":1084985,"internal_node_id":"0.0-78.0","task_version":"test-retest-t4"},{"Rune":"rune_07_laukaz","Hex":"#ffcc3399","Correct":32,"Choice":32,"RT":491.4900000002235,"Accuracy":1,"Outcome":"-10","Keys":[1993.2850000006147],"TotalKeys":1,"Block":1,"Trial":71,"Robot":3,"Valence":"Lose","Action":"Go","Sham":1,"Color":"yellow","trial_type":"pit-trial","trial_index":90,"time_elapsed":1087984,"internal_node_id":"0.0-79.0","task_version":"test-retest-t4"},{"Rune":"rune_07_gar","Hex":"#3366ff99","Correct":32,"Choice":32,"RT":423.9000000017695,"Accuracy":1,"Outcome":"+10","Keys":[1925.1100000001024],"TotalKeys":1,"Block":1,"Trial":72,"Robot":1,"Valence":"Win","Action":"Go","Sham":0,"Color":"blue","trial_type":"pit-trial","trial_index":91,"time_elapsed":1090911,"internal_node_id":"0.0-80.0","task_version":"test-retest-t4"},{"Rune":"rune_07_kauna","Hex":"#ffcc3399","Correct":-1,"Choice":-1,"RT":-1,"Accuracy":1,"Outcome":"-10","Keys":[],"TotalKeys":0,"Block":1,"Trial":73,"Robot":4,"Valence":"Lose","Action":"No-Go","Sham":1,"Color":"yellow","trial_type":"pit-trial","trial_index":92,"time_elapsed":1094913,"internal_node_id":"0.0-81.0","task_version":"test-retest-t4"},{"Rune":"rune_07_gar","Hex":"#3366ff99","Correct":32,"Choice":32,"RT":418.90499999863096,"Accuracy":1,"Outcome":"+10","Keys":[1919.1900000006426],"TotalKeys":1,"Block":1,"Trial":74,"Robot":1,"Valence":"Win","Action":"Go","Sham":0,"Color":"blue","trial_type":"pit-trial","trial_index":93,"time_elapsed":1097836,"internal_node_id":"0.0-82.0","task_version":"test-retest-t4"},{"Rune":"rune_07_laukaz","Hex":"#ffcc3399","Correct":32,"Choice":32,"RT":514.0250000003725,"Accuracy":1,"Outcome":"-1","Keys":[2014.2500000002328],"TotalKeys":1,"Block":1,"Trial":75,"Robot":3,"Valence":"Lose","Action":"Go","Sham":0,"Color":"yellow","trial_type":"pit-trial","trial_index":94,"time_elapsed":1100855,"internal_node_id":"0.0-83.0","task_version":"test-retest-t4"},{"Rune":"rune_07_thurisaz","Hex":"#3366ff99","Correct":-1,"Choice":-1,"RT":-1,"Accuracy":1,"Outcome":"+1","Keys":[],"TotalKeys":0,"Block":1,"Trial":76,"Robot":2,"Valence":"Win","Action":"No-Go","Sham":1,"Color":"blue","trial_type":"pit-trial","trial_index":95,"time_elapsed":1104858,"internal_node_id":"0.0-84.0","task_version":"test-retest-t4"},{"Rune":"rune_07_kauna","Hex":"#ffcc3399","Correct":-1,"Choice":-1,"RT":-1,"Accuracy":1,"Outcome":"-1","Keys":[],"TotalKeys":0,"Block":1,"Trial":77,"Robot":4,"Valence":"Lose","Action":"No-Go","Sham":0,"Color":"yellow","trial_type":"pit-trial","trial_index":96,"time_elapsed":1108861,"internal_node_id":"0.0-85.0","task_version":"test-retest-t4"},{"Rune":"rune_07_thurisaz","Hex":"#3366ff99","Correct":-1,"Choice":-1,"RT":-1,"Accuracy":1,"Outcome":"+10","Keys":[],"TotalKeys":0,"Block":1,"Trial":78,"Robot":2,"Valence":"Win","Action":"No-Go","Sham":0,"Color":"blue","trial_type":"pit-trial","trial_index":97,"time_elapsed":1112866,"internal_node_id":"0.0-86.0","task_version":"test-retest-t4"},{"Rune":"rune_07_gar","Hex":"#3366ff99","Correct":32,"Choice":32,"RT":534.5550000020303,"Accuracy":1,"Outcome":"+10","Keys":[2035.1149999988265],"TotalKeys":1,"Block":1,"Trial":79,"Robot":1,"Valence":"Win","Action":"Go","Sham":0,"Color":"blue","trial_type":"pit-trial","trial_index":98,"time_elapsed":1115904,"internal_node_id":"0.0-87.0","task_version":"test-retest-t4"},{"Rune":"rune_07_laukaz","Hex":"#ffcc3399","Correct":32,"Choice":32,"RT":417.5699999979697,"Accuracy":1,"Outcome":"-1","Keys":[1917.610000000568],"TotalKeys":1,"Block":1,"Trial":80,"Robot":3,"Valence":"Lose","Action":"Go","Sham":0,"Color":"yellow","trial_type":"pit-trial","trial_index":99,"time_elapsed":1118822,"internal_node_id":"0.0-88.0","task_version":"test-retest-t4"},{"Rune":"rune_07_laukaz","Hex":"#ffcc3399","Correct":32,"Choice":32,"RT":417.3350000020582,"Accuracy":1,"Outcome":"-1","Keys":[1918.0750000013504],"TotalKeys":1,"Block":1,"Trial":81,"Robot":3,"Valence":"Lose","Action":"Go","Sham":0,"Color":"yellow","trial_type":"pit-trial","trial_index":100,"time_elapsed":1121742,"internal_node_id":"0.0-89.0","task_version":"test-retest-t4"},{"Rune":"rune_07_kauna","Hex":"#ffcc3399","Correct":-1,"Choice":-1,"RT":-1,"Accuracy":1,"Outcome":"-10","Keys":[],"TotalKeys":0,"Block":1,"Trial":82,"Robot":4,"Valence":"Lose","Action":"No-Go","Sham":1,"Color":"yellow","trial_type":"pit-trial","trial_index":101,"time_elapsed":1125746,"internal_node_id":"0.0-90.0","task_version":"test-retest-t4"},{"Rune":"rune_07_thurisaz","Hex":"#3366ff99","Correct":-1,"Choice":-1,"RT":-1,"Accuracy":1,"Outcome":"+10","Keys":[],"TotalKeys":0,"Block":1,"Trial":83,"Robot":2,"Valence":"Win","Action":"No-Go","Sham":0,"Color":"blue","trial_type":"pit-trial","trial_index":102,"time_elapsed":1129749,"internal_node_id":"0.0-91.0","task_version":"test-retest-t4"},{"Rune":"rune_07_gar","Hex":"#3366ff99","Correct":32,"Choice":32,"RT":718.3050000020303,"Accuracy":1,"Outcome":"+10","Keys":[2218.9099999996834],"TotalKeys":1,"Block":1,"Trial":84,"Robot":1,"Valence":"Win","Action":"Go","Sham":0,"Color":"blue","trial_type":"pit-trial","trial_index":103,"time_elapsed":1132971,"internal_node_id":"0.0-92.0","task_version":"test-retest-t4"},{"Rune":"rune_07_thurisaz","Hex":"#3366ff99","Correct":-1,"Choice":-1,"RT":-1,"Accuracy":1,"Outcome":"+10","Keys":[],"TotalKeys":0,"Block":1,"Trial":85,"Robot":2,"Valence":"Win","Action":"No-Go","Sham":0,"Color":"blue","trial_type":"pit-trial","trial_index":104,"time_elapsed":1136974,"internal_node_id":"0.0-93.0","task_version":"test-retest-t4"},{"Rune":"rune_07_gar","Hex":"#3366ff99","Correct":32,"Choice":32,"RT":434.6299999996554,"Accuracy":1,"Outcome":"+10","Keys":[1936.480000000447],"TotalKeys":1,"Block":1,"Trial":86,"Robot":1,"Valence":"Win","Action":"Go","Sham":0,"Color":"blue","trial_type":"pit-trial","trial_index":105,"time_elapsed":1139914,"internal_node_id":"0.0-94.0","task_version":"test-retest-t4"},{"Rune":"rune_07_laukaz","Hex":"#ffcc3399","Correct":32,"Choice":32,"RT":382.63999999989755,"Accuracy":1,"Outcome":"-10","Keys":[1882.8300000024028],"TotalKeys":1,"Block":1,"Trial":87,"Robot":3,"Valence":"Lose","Action":"Go","Sham":1,"Color":"yellow","trial_type":"pit-trial","trial_index":106,"time_elapsed":1142803,"internal_node_id":"0.0-95.0","task_version":"test-retest-t4"},{"Rune":"rune_07_kauna","Hex":"#ffcc3399","Correct":-1,"Choice":-1,"RT":-1,"Accuracy":1,"Outcome":"-1","Keys":[],"TotalKeys":0,"Block":1,"Trial":88,"Robot":4,"Valence":"Lose","Action":"No-Go","Sham":0,"Color":"yellow","trial_type":"pit-trial","trial_index":107,"time_elapsed":1146809,"internal_node_id":"0.0-96.0","task_version":"test-retest-t4"},{"Rune":"rune_07_kauna","Hex":"#ffcc3399","Correct":-1,"Choice":-1,"RT":-1,"Accuracy":1,"Outcome":"-1","Keys":[],"TotalKeys":0,"Block":1,"Trial":89,"Robot":4,"Valence":"Lose","Action":"No-Go","Sham":0,"Color":"yellow","trial_type":"pit-trial","trial_index":108,"time_elapsed":1150813,"internal_node_id":"0.0-97.0","task_version":"test-retest-t4"},{"Rune":"rune_07_gar","Hex":"#3366ff99","Correct":32,"Choice":32,"RT":451.3500000028871,"Accuracy":1,"Outcome":"+1","Keys":[1952.0750000011176],"TotalKeys":1,"Block":1,"Trial":90,"Robot":1,"Valence":"Win","Action":"Go","Sham":1,"Color":"blue","trial_type":"pit-trial","trial_index":109,"time_elapsed":1153767,"internal_node_id":"0.0-98.0","task_version":"test-retest-t4"},{"Rune":"rune_07_thurisaz","Hex":"#3366ff99","Correct":-1,"Choice":-1,"RT":-1,"Accuracy":1,"Outcome":"+10","Keys":[],"TotalKeys":0,"Block":1,"Trial":91,"Robot":2,"Valence":"Win","Action":"No-Go","Sham":0,"Color":"blue","trial_type":"pit-trial","trial_index":110,"time_elapsed":1157770,"internal_node_id":"0.0-99.0","task_version":"test-retest-t4"},{"Rune":"rune_07_laukaz","Hex":"#ffcc3399","Correct":32,"Choice":32,"RT":590.1500000001397,"Accuracy":1,"Outcome":"-1","Keys":[2090.2749999987427],"TotalKeys":1,"Block":1,"Trial":92,"Robot":3,"Valence":"Lose","Action":"Go","Sham":0,"Color":"yellow","trial_type":"pit-trial","trial_index":111,"time_elapsed":1160863,"internal_node_id":"0.0-100.0","task_version":"test-retest-t4"},{"Rune":"rune_07_laukaz","Hex":"#ffcc3399","Correct":32,"Choice":32,"RT":460.0700000009965,"Accuracy":1,"Outcome":"-1","Keys":[1960.989999999525],"TotalKeys":1,"Block":1,"Trial":93,"Robot":3,"Valence":"Lose","Action":"Go","Sham":0,"Color":"yellow","trial_type":"pit-trial","trial_index":112,"time_elapsed":1163827,"internal_node_id":"0.0-101.0","task_version":"test-retest-t4"},{"Rune":"rune_07_thurisaz","Hex":"#3366ff99","Correct":-1,"Choice":-1,"RT":-1,"Accuracy":1,"Outcome":"+1","Keys":[],"TotalKeys":0,"Block":1,"Trial":94,"Robot":2,"Valence":"Win","Action":"No-Go","Sham":1,"Color":"blue","trial_type":"pit-trial","trial_index":113,"time_elapsed":1167834,"internal_node_id":"0.0-102.0","task_version":"test-retest-t4"},{"Rune":"rune_07_kauna","Hex":"#ffcc3399","Correct":-1,"Choice":-1,"RT":-1,"Accuracy":1,"Outcome":"-1","Keys":[],"TotalKeys":0,"Block":1,"Trial":95,"Robot":4,"Valence":"Lose","Action":"No-Go","Sham":0,"Color":"yellow","trial_type":"pit-trial","trial_index":114,"time_elapsed":1171840,"internal_node_id":"0.0-103.0","task_version":"test-retest-t4"},{"Rune":"rune_07_gar","Hex":"#3366ff99","Correct":32,"Choice":32,"RT":471.46499999868684,"Accuracy":1,"Outcome":"+10","Keys":[1972.9100000003818],"TotalKeys":1,"Block":1,"Trial":96,"Robot":1,"Valence":"Win","Action":"Go","Sham":0,"Color":"blue","trial_type":"pit-trial","trial_index":115,"time_elapsed":1174814,"internal_node_id":"0.0-104.0","task_version":"test-retest-t4"},{"Rune":"rune_07_thurisaz","Hex":"#3366ff99","Correct":-1,"Choice":-1,"RT":-1,"Accuracy":1,"Outcome":"+10","Keys":[],"TotalKeys":0,"Block":1,"Trial":97,"Robot":2,"Valence":"Win","Action":"No-Go","Sham":0,"Color":"blue","trial_type":"pit-trial","trial_index":116,"time_elapsed":1178818,"internal_node_id":"0.0-105.0","task_version":"test-retest-t4"},{"Rune":"rune_07_gar","Hex":"#3366ff99","Correct":32,"Choice":32,"RT":358.8249999994878,"Accuracy":1,"Outcome":"+10","Keys":[1859.290000000503],"TotalKeys":1,"Block":1,"Trial":98,"Robot":1,"Valence":"Win","Action":"Go","Sham":0,"Color":"blue","trial_type":"pit-trial","trial_index":117,"time_elapsed":1181680,"internal_node_id":"0.0-106.0","task_version":"test-retest-t4"},{"Rune":"rune_07_kauna","Hex":"#ffcc3399","Correct":-1,"Choice":-1,"RT":-1,"Accuracy":1,"Outcome":"-1","Keys":[],"TotalKeys":0,"Block":1,"Trial":99,"Robot":4,"Valence":"Lose","Action":"No-Go","Sham":0,"Color":"yellow","trial_type":"pit-trial","trial_index":118,"time_elapsed":1185687,"internal_node_id":"0.0-107.0","task_version":"test-retest-t4"},{"Rune":"rune_07_laukaz","Hex":"#ffcc3399","Correct":32,"Choice":32,"RT":545.0149999996647,"Accuracy":1,"Outcome":"-1","Keys":[2046.4800000009127],"TotalKeys":1,"Block":1,"Trial":100,"Robot":3,"Valence":"Lose","Action":"Go","Sham":0,"Color":"yellow","trial_type":"pit-trial","trial_index":119,"time_elapsed":1188739,"internal_node_id":"0.0-108.0","task_version":"test-retest-t4"},{"Rune":"rune_07_kauna","Hex":"#ffcc3399","Correct":-1,"Choice":-1,"RT":-1,"Accuracy":1,"Outcome":"-1","Keys":[],"TotalKeys":0,"Block":1,"Trial":101,"Robot":4,"Valence":"Lose","Action":"No-Go","Sham":0,"Color":"yellow","trial_type":"pit-trial","trial_index":120,"time_elapsed":1192746,"internal_node_id":"0.0-109.0","task_version":"test-retest-t4"},{"Rune":"rune_07_laukaz","Hex":"#ffcc3399","Correct":32,"Choice":32,"RT":498.78000000165775,"Accuracy":1,"Outcome":"-1","Keys":[1999.7550000008196],"TotalKeys":1,"Block":1,"Trial":102,"Robot":3,"Valence":"Lose","Action":"Go","Sham":0,"Color":"yellow","trial_type":"pit-trial","trial_index":121,"time_elapsed":1195751,"internal_node_id":"0.0-110.0","task_version":"test-retest-t4"},{"Rune":"rune_07_gar","Hex":"#3366ff99","Correct":32,"Choice":32,"RT":760.750000001397,"Accuracy":1,"Outcome":"+10","Keys":[2262.144999996992],"TotalKeys":1,"Block":1,"Trial":103,"Robot":1,"Valence":"Win","Action":"Go","Sham":0,"Color":"blue","trial_type":"pit-trial","trial_index":122,"time_elapsed":1199015,"internal_node_id":"0.0-111.0","task_version":"test-retest-t4"},{"Rune":"rune_07_thurisaz","Hex":"#3366ff99","Correct":-1,"Choice":-1,"RT":-1,"Accuracy":1,"Outcome":"+10","Keys":[],"TotalKeys":0,"Block":1,"Trial":104,"Robot":2,"Valence":"Win","Action":"No-Go","Sham":0,"Color":"blue","trial_type":"pit-trial","trial_index":123,"time_elapsed":1203017,"internal_node_id":"0.0-112.0","task_version":"test-retest-t4"},{"Rune":"rune_07_thurisaz","Hex":"#3366ff99","Correct":-1,"Choice":-1,"RT":-1,"Accuracy":1,"Outcome":"+10","Keys":[],"TotalKeys":0,"Block":1,"Trial":105,"Robot":2,"Valence":"Win","Action":"No-Go","Sham":0,"Color":"blue","trial_type":"pit-trial","trial_index":124,"time_elapsed":1207020,"internal_node_id":"0.0-113.0","task_version":"test-retest-t4"},{"Rune":"rune_07_gar","Hex":"#3366ff99","Correct":32,"Choice":32,"RT":412.5850000018254,"Accuracy":1,"Outcome":"+10","Keys":[1912.9849999989383],"TotalKeys":1,"Block":1,"Trial":106,"Robot":1,"Valence":"Win","Action":"Go","Sham":0,"Color":"blue","trial_type":"pit-trial","trial_index":125,"time_elapsed":1209939,"internal_node_id":"0.0-114.0","task_version":"test-retest-t4"},{"Rune":"rune_07_kauna","Hex":"#ffcc3399","Correct":-1,"Choice":-1,"RT":-1,"Accuracy":1,"Outcome":"-1","Keys":[],"TotalKeys":0,"Block":1,"Trial":107,"Robot":4,"Valence":"Lose","Action":"No-Go","Sham":0,"Color":"yellow","trial_type":"pit-trial","trial_index":126,"time_elapsed":1213946,"internal_node_id":"0.0-115.0","task_version":"test-retest-t4"},{"Rune":"rune_07_laukaz","Hex":"#ffcc3399","Correct":32,"Choice":32,"RT":539.2150000007823,"Accuracy":1,"Outcome":"-1","Keys":[2039.3750000002328],"TotalKeys":1,"Block":1,"Trial":108,"Robot":3,"Valence":"Lose","Action":"Go","Sham":0,"Color":"yellow","trial_type":"pit-trial","trial_index":127,"time_elapsed":1216991,"internal_node_id":"0.0-116.0","task_version":"test-retest-t4"},{"Rune":"rune_07_kauna","Hex":"#ffcc3399","Correct":-1,"Choice":-1,"RT":-1,"Accuracy":1,"Outcome":"-1","Keys":[],"TotalKeys":0,"Block":1,"Trial":109,"Robot":4,"Valence":"Lose","Action":"No-Go","Sham":0,"Color":"yellow","trial_type":"pit-trial","trial_index":128,"time_elapsed":1220994,"internal_node_id":"0.0-117.0","task_version":"test-retest-t4"},{"Rune":"rune_07_gar","Hex":"#3366ff99","Correct":32,"Choice":32,"RT":366.5399999988731,"Accuracy":1,"Outcome":"+1","Keys":[1867.3049999999348],"TotalKeys":1,"Block":1,"Trial":110,"Robot":1,"Valence":"Win","Action":"Go","Sham":1,"Color":"blue","trial_type":"pit-trial","trial_index":129,"time_elapsed":1223863,"internal_node_id":"0.0-118.0","task_version":"test-retest-t4"},{"Rune":"rune_07_laukaz","Hex":"#ffcc3399","Correct":32,"Choice":32,"RT":393.23499999940395,"Accuracy":1,"Outcome":"-1","Keys":[1894.2349999998696],"TotalKeys":1,"Block":1,"Trial":111,"Robot":3,"Valence":"Lose","Action":"Go","Sham":0,"Color":"yellow","trial_type":"pit-trial","trial_index":130,"time_elapsed":1226759,"internal_node_id":"0.0-119.0","task_version":"test-retest-t4"},{"Rune":"rune_07_thurisaz","Hex":"#3366ff99","Correct":-1,"Choice":-1,"RT":-1,"Accuracy":1,"Outcome":"+10","Keys":[],"TotalKeys":0,"Block":1,"Trial":112,"Robot":2,"Valence":"Win","Action":"No-Go","Sham":0,"Color":"blue","trial_type":"pit-trial","trial_index":131,"time_elapsed":1230763,"internal_node_id":"0.0-120.0","task_version":"test-retest-t4"},{"Rune":"rune_07_gar","Hex":"#3366ff99","Correct":32,"Choice":32,"RT":431.9849999991711,"Accuracy":1,"Outcome":"+10","Keys":[1932.3949999997858],"TotalKeys":1,"Block":1,"Trial":113,"Robot":1,"Valence":"Win","Action":"Go","Sham":0,"Color":"blue","trial_type":"pit-trial","trial_index":132,"time_elapsed":1233698,"internal_node_id":"0.0-121.0","task_version":"test-retest-t4"},{"Rune":"rune_07_kauna","Hex":"#ffcc3399","Correct":-1,"Choice":-1,"RT":-1,"Accuracy":1,"Outcome":"-1","Keys":[],"TotalKeys":0,"Block":1,"Trial":114,"Robot":4,"Valence":"Lose","Action":"No-Go","Sham":0,"Color":"yellow","trial_type":"pit-trial","trial_index":133,"time_elapsed":1237701,"internal_node_id":"0.0-122.0","task_version":"test-retest-t4"},{"Rune":"rune_07_laukaz","Hex":"#ffcc3399","Correct":32,"Choice":32,"RT":391.6900000004098,"Accuracy":1,"Outcome":"-1","Keys":[1892.2449999991804],"TotalKeys":1,"Block":1,"Trial":115,"Robot":3,"Valence":"Lose","Action":"Go","Sham":0,"Color":"yellow","trial_type":"pit-trial","trial_index":134,"time_elapsed":1240598,"internal_node_id":"0.0-123.0","task_version":"test-retest-t4"},{"Rune":"rune_07_thurisaz","Hex":"#3366ff99","Correct":-1,"Choice":-1,"RT":-1,"Accuracy":1,"Outcome":"+1","Keys":[],"TotalKeys":0,"Block":1,"Trial":116,"Robot":2,"Valence":"Win","Action":"No-Go","Sham":1,"Color":"blue","trial_type":"pit-trial","trial_index":135,"time_elapsed":1244603,"internal_node_id":"0.0-124.0","task_version":"test-retest-t4"},{"Rune":"rune_07_laukaz","Hex":"#ffcc3399","Correct":32,"Choice":32,"RT":425.85999999940395,"Accuracy":1,"Outcome":"-10","Keys":[1926.7599999986123],"TotalKeys":1,"Block":1,"Trial":117,"Robot":3,"Valence":"Lose","Action":"Go","Sham":1,"Color":"yellow","trial_type":"pit-trial","trial_index":136,"time_elapsed":1247534,"internal_node_id":"0.0-125.0","task_version":"test-retest-t4"},{"Rune":"rune_07_gar","Hex":"#3366ff99","Correct":32,"Choice":32,"RT":465.56000000052154,"Accuracy":1,"Outcome":"+10","Keys":[1966.5999999998603],"TotalKeys":1,"Block":1,"Trial":118,"Robot":1,"Valence":"Win","Action":"Go","Sham":0,"Color":"blue","trial_type":"pit-trial","trial_index":137,"time_elapsed":1250503,"internal_node_id":"0.0-126.0","task_version":"test-retest-t4"},{"Rune":"rune_07_kauna","Hex":"#ffcc3399","Correct":-1,"Choice":-1,"RT":-1,"Accuracy":1,"Outcome":"-10","Keys":[],"TotalKeys":0,"Block":1,"Trial":119,"Robot":4,"Valence":"Lose","Action":"No-Go","Sham":1,"Color":"yellow","trial_type":"pit-trial","trial_index":138,"time_elapsed":1254506,"internal_node_id":"0.0-127.0","task_version":"test-retest-t4"},{"Rune":"rune_07_thurisaz","Hex":"#3366ff99","Correct":-1,"Choice":-1,"RT":-1,"Accuracy":1,"Outcome":"+10","Keys":[],"TotalKeys":0,"Block":1,"Trial":120,"Robot":2,"Valence":"Win","Action":"No-Go","Sham":0,"Color":"blue","trial_type":"pit-trial","trial_index":139,"time_elapsed":1258509,"internal_node_id":"0.0-128.0","task_version":"test-retest-t4"},{"view_history":"[{\"page_index\":0,\"viewing_time\":14184.669999998761},{\"page_index\":1,\"viewing_time\":333762.04000000143},{\"page_index\":2,\"viewing_time\":1010.2100000004284}]","rt":348957.234999998,"trial_type":"pit-instructions","trial_index":140,"time_elapsed":1607471,"internal_node_id":"0.0-129.0","task_version":"test-retest-t4"},{"Rune":"rune_08_sigel","Hex":"#3366ff99","Correct":32,"Choice":32,"RT":315.42500000074506,"Accuracy":1,"Outcome":"+10","Keys":[1816.1600000022445],"TotalKeys":1,"Block":2,"Trial":121,"Robot":1,"Valence":"Win","Action":"Go","Sham":0,"Color":"blue","trial_type":"pit-trial","trial_index":141,"time_elapsed":1610291,"internal_node_id":"0.0-130.0","task_version":"test-retest-t4"},{"Rune":"rune_08_pertho","Hex":"#ffcc3399","Correct":-1,"Choice":32,"RT":412.9850000026636,"Accuracy":0,"Outcome":"-10","Keys":[1913.4950000005774],"TotalKeys":1,"Block":2,"Trial":122,"Robot":4,"Valence":"Lose","Action":"No-Go","Sham":0,"Color":"yellow","trial_type":"pit-trial","trial_index":142,"time_elapsed":1613211,"internal_node_id":"0.0-131.0","task_version":"test-retest-t4"},{"Rune":"rune_08_fehu","Hex":"#ffcc3399","Correct":32,"Choice":32,"RT":363.3249999983236,"Accuracy":1,"Outcome":"-10","Keys":[1863.379999998957],"TotalKeys":1,"Block":2,"Trial":123,"Robot":3,"Valence":"Lose","Action":"Go","Sham":1,"Color":"yellow","trial_type":"pit-trial","trial_index":143,"time_elapsed":1616079,"internal_node_id":"0.0-132.0","task_version":"test-retest-t4"},{"Rune":"rune_08_mannaz","Hex":"#3366ff99","Correct":-1,"Choice":-1,"RT":-1,"Accuracy":1,"Outcome":"+10","Keys":[],"TotalKeys":0,"Block":2,"Trial":124,"Robot":2,"Valence":"Win","Action":"No-Go","Sham":0,"Color":"blue","trial_type":"pit-trial","trial_index":144,"time_elapsed":1620081,"internal_node_id":"0.0-133.0","task_version":"test-retest-t4"},{"Rune":"rune_08_sigel","Hex":"#3366ff99","Correct":32,"Choice":32,"RT":679.3399999986868,"Accuracy":1,"Outcome":"+10","Keys":[2180.0100000000093],"TotalKeys":1,"Block":2,"Trial":125,"Robot":1,"Valence":"Win","Action":"Go","Sham":0,"Color":"blue","trial_type":"pit-trial","trial_index":145,"time_elapsed":1623263,"internal_node_id":"0.0-134.0","task_version":"test-retest-t4"},{"Rune":"rune_08_pertho","Hex":"#ffcc3399","Correct":-1,"Choice":32,"RT":457.3049999999348,"Accuracy":0,"Outcome":"-10","Keys":[1957.9699999995064],"TotalKeys":1,"Block":2,"Trial":126,"Robot":4,"Valence":"Lose","Action":"No-Go","Sham":0,"Color":"yellow","trial_type":"pit-trial","trial_index":146,"time_elapsed":1626223,"internal_node_id":"0.0-135.0","task_version":"test-retest-t4"},{"Rune":"rune_08_mannaz","Hex":"#3366ff99","Correct":-1,"Choice":-1,"RT":-1,"Accuracy":1,"Outcome":"+10","Keys":[],"TotalKeys":0,"Block":2,"Trial":127,"Robot":2,"Valence":"Win","Action":"No-Go","Sham":0,"Color":"blue","trial_type":"pit-trial","trial_index":147,"time_elapsed":1630227,"internal_node_id":"0.0-136.0","task_version":"test-retest-t4"},{"Rune":"rune_08_fehu","Hex":"#ffcc3399","Correct":32,"Choice":-1,"RT":-1,"Accuracy":0,"Outcome":"-10","Keys":[],"TotalKeys":0,"Block":2,"Trial":128,"Robot":3,"Valence":"Lose","Action":"Go","Sham":0,"Color":"yellow","trial_type":"pit-trial","trial_index":148,"time_elapsed":1634230,"internal_node_id":"0.0-137.0","task_version":"test-retest-t4"},{"Rune":"rune_08_pertho","Hex":"#ffcc3399","Correct":-1,"Choice":-1,"RT":-1,"Accuracy":1,"Outcome":"-1","Keys":[],"TotalKeys":0,"Block":2,"Trial":129,"Robot":4,"Valence":"Lose","Action":"No-Go","Sham":0,"Color":"yellow","trial_type":"pit-trial","trial_index":149,"time_elapsed":1638234,"internal_node_id":"0.0-138.0","task_version":"test-retest-t4"},{"Rune":"rune_08_fehu","Hex":"#ffcc3399","Correct":32,"Choice":32,"RT":462.5049999996554,"Accuracy":1,"Outcome":"-1","Keys":[1963.514999999432],"TotalKeys":1,"Block":2,"Trial":130,"Robot":3,"Valence":"Lose","Action":"Go","Sham":0,"Color":"yellow","trial_type":"pit-trial","trial_index":150,"time_elapsed":1641199,"internal_node_id":"0.0-139.0","task_version":"test-retest-t4"},{"Rune":"rune_08_sigel","Hex":"#3366ff99","Correct":32,"Choice":32,"RT":561.2750000001397,"Accuracy":1,"Outcome":"+1","Keys":[2062.1750000028405],"TotalKeys":1,"Block":2,"Trial":131,"Robot":1,"Valence":"Win","Action":"Go","Sham":1,"Color":"blue","trial_type":"pit-trial","trial_index":151,"time_elapsed":1644263,"internal_node_id":"0.0-140.0","task_version":"test-retest-t4"},{"Rune":"rune_08_mannaz","Hex":"#3366ff99","Correct":-1,"Choice":-1,"RT":-1,"Accuracy":1,"Outcome":"+10","Keys":[],"TotalKeys":0,"Block":2,"Trial":132,"Robot":2,"Valence":"Win","Action":"No-Go","Sham":0,"Color":"blue","trial_type":"pit-trial","trial_index":152,"time_elapsed":1648265,"internal_node_id":"0.0-141.0","task_version":"test-retest-t4"},{"Rune":"rune_08_mannaz","Hex":"#3366ff99","Correct":-1,"Choice":-1,"RT":-1,"Accuracy":1,"Outcome":"+1","Keys":[],"TotalKeys":0,"Block":2,"Trial":133,"Robot":2,"Valence":"Win","Action":"No-Go","Sham":1,"Color":"blue","trial_type":"pit-trial","trial_index":153,"time_elapsed":1652268,"internal_node_id":"0.0-142.0","task_version":"test-retest-t4"},{"Rune":"rune_08_fehu","Hex":"#ffcc3399","Correct":32,"Choice":32,"RT":443.9249999995809,"Accuracy":1,"Outcome":"-1","Keys":[1945.2449999991804],"TotalKeys":1,"Block":2,"Trial":134,"Robot":3,"Valence":"Lose","Action":"Go","Sham":0,"Color":"yellow","trial_type":"pit-trial","trial_index":154,"time_elapsed":1655216,"internal_node_id":"0.0-143.0","task_version":"test-retest-t4"},{"Rune":"rune_08_pertho","Hex":"#ffcc3399","Correct":-1,"Choice":-1,"RT":-1,"Accuracy":1,"Outcome":"-10","Keys":[],"TotalKeys":0,"Block":2,"Trial":135,"Robot":4,"Valence":"Lose","Action":"No-Go","Sham":1,"Color":"yellow","trial_type":"pit-trial","trial_index":155,"time_elapsed":1659219,"internal_node_id":"0.0-144.0","task_version":"test-retest-t4"},{"Rune":"rune_08_sigel","Hex":"#3366ff99","Correct":32,"Choice":32,"RT":324.71999999694526,"Accuracy":1,"Outcome":"+10","Keys":[1825.2700000011828],"TotalKeys":1,"Block":2,"Trial":136,"Robot":1,"Valence":"Win","Action":"Go","Sham":0,"Color":"blue","trial_type":"pit-trial","trial_index":156,"time_elapsed":1662047,"internal_node_id":"0.0-145.0","task_version":"test-retest-t4"},{"Rune":"rune_08_pertho","Hex":"#ffcc3399","Correct":-1,"Choice":-1,"RT":-1,"Accuracy":1,"Outcome":"-1","Keys":[],"TotalKeys":0,"Block":2,"Trial":137,"Robot":4,"Valence":"Lose","Action":"No-Go","Sham":0,"Color":"yellow","trial_type":"pit-trial","trial_index":157,"time_elapsed":1666050,"internal_node_id":"0.0-146.0","task_version":"test-retest-t4"},{"Rune":"rune_08_fehu","Hex":"#ffcc3399","Correct":32,"Choice":32,"RT":498.87000000313856,"Accuracy":1,"Outcome":"-1","Keys":[1999.6899999969173],"TotalKeys":1,"Block":2,"Trial":138,"Robot":3,"Valence":"Lose","Action":"Go","Sham":0,"Color":"yellow","trial_type":"pit-trial","trial_index":158,"time_elapsed":1669056,"internal_node_id":"0.0-147.0","task_version":"test-retest-t4"},{"Rune":"rune_08_mannaz","Hex":"#3366ff99","Correct":-1,"Choice":-1,"RT":-1,"Accuracy":1,"Outcome":"+10","Keys":[],"TotalKeys":0,"Block":2,"Trial":139,"Robot":2,"Valence":"Win","Action":"No-Go","Sham":0,"Color":"blue","trial_type":"pit-trial","trial_index":159,"time_elapsed":1673063,"internal_node_id":"0.0-148.0","task_version":"test-retest-t4"},{"Rune":"rune_08_sigel","Hex":"#3366ff99","Correct":32,"Choice":32,"RT":397.67500000004657,"Accuracy":1,"Outcome":"+10","Keys":[1898.345000001369],"TotalKeys":1,"Block":2,"Trial":140,"Robot":1,"Valence":"Win","Action":"Go","Sham":0,"Color":"blue","trial_type":"pit-trial","trial_index":160,"time_elapsed":1675967,"internal_node_id":"0.0-149.0","task_version":"test-retest-t4"},{"Rune":"rune_08_mannaz","Hex":"#3366ff99","Correct":-1,"Choice":-1,"RT":-1,"Accuracy":1,"Outcome":"+10","Keys":[],"TotalKeys":0,"Block":2,"Trial":141,"Robot":2,"Valence":"Win","Action":"No-Go","Sham":0,"Color":"blue","trial_type":"pit-trial","trial_index":161,"time_elapsed":1679970,"internal_node_id":"0.0-150.0","task_version":"test-retest-t4"},{"Rune":"rune_08_sigel","Hex":"#3366ff99","Correct":32,"Choice":32,"RT":621.4199999994598,"Accuracy":1,"Outcome":"+10","Keys":[2122.8449999981094],"TotalKeys":1,"Block":2,"Trial":142,"Robot":1,"Valence":"Win","Action":"Go","Sham":0,"Color":"blue","trial_type":"pit-trial","trial_index":162,"time_elapsed":1683094,"internal_node_id":"0.0-151.0","task_version":"test-retest-t4"},{"Rune":"rune_08_pertho","Hex":"#ffcc3399","Correct":-1,"Choice":-1,"RT":-1,"Accuracy":1,"Outcome":"-1","Keys":[],"TotalKeys":0,"Block":2,"Trial":143,"Robot":4,"Valence":"Lose","Action":"No-Go","Sham":0,"Color":"yellow","trial_type":"pit-trial","trial_index":163,"time_elapsed":1687098,"internal_node_id":"0.0-152.0","task_version":"test-retest-t4"},{"Rune":"rune_08_fehu","Hex":"#ffcc3399","Correct":32,"Choice":32,"RT":462.51000000117347,"Accuracy":1,"Outcome":"-1","Keys":[1963.3000000030734],"TotalKeys":1,"Block":2,"Trial":144,"Robot":3,"Valence":"Lose","Action":"Go","Sham":0,"Color":"yellow","trial_type":"pit-trial","trial_index":164,"time_elapsed":1690063,"internal_node_id":"0.0-153.0","task_version":"test-retest-t4"},{"Rune":"rune_08_sigel","Hex":"#3366ff99","Correct":32,"Choice":32,"RT":480.8450000018347,"Accuracy":1,"Outcome":"+10","Keys":[1981.8149999992456],"TotalKeys":1,"Block":2,"Trial":145,"Robot":1,"Valence":"Win","Action":"Go","Sham":0,"Color":"blue","trial_type":"pit-trial","trial_index":165,"time_elapsed":1693047,"internal_node_id":"0.0-154.0","task_version":"test-retest-t4"},{"Rune":"rune_08_fehu","Hex":"#ffcc3399","Correct":32,"Choice":32,"RT":555.9550000033341,"Accuracy":1,"Outcome":"-10","Keys":[2056.814999999944],"TotalKeys":1,"Block":2,"Trial":146,"Robot":3,"Valence":"Lose","Action":"Go","Sham":1,"Color":"yellow","trial_type":"pit-trial","trial_index":166,"time_elapsed":1696107,"internal_node_id":"0.0-155.0","task_version":"test-retest-t4"},{"Rune":"rune_08_pertho","Hex":"#ffcc3399","Correct":-1,"Choice":-1,"RT":-1,"Accuracy":1,"Outcome":"-1","Keys":[],"TotalKeys":0,"Block":2,"Trial":147,"Robot":4,"Valence":"Lose","Action":"No-Go","Sham":0,"Color":"yellow","trial_type":"pit-trial","trial_index":167,"time_elapsed":1700110,"internal_node_id":"0.0-156.0","task_version":"test-retest-t4"},{"Rune":"rune_08_mannaz","Hex":"#3366ff99","Correct":-1,"Choice":-1,"RT":-1,"Accuracy":1,"Outcome":"+10","Keys":[],"TotalKeys":0,"Block":2,"Trial":148,"Robot":2,"Valence":"Win","Action":"No-Go","Sham":0,"Color":"blue","trial_type":"pit-trial","trial_index":168,"time_elapsed":1704117,"internal_node_id":"0.0-157.0","task_version":"test-retest-t4"},{"Rune":"rune_08_fehu","Hex":"#ffcc3399","Correct":32,"Choice":32,"RT":482.4049999988638,"Accuracy":1,"Outcome":"-1","Keys":[1983.1749999974854],"TotalKeys":1,"Block":2,"Trial":149,"Robot":3,"Valence":"Lose","Action":"Go","Sham":0,"Color":"yellow","trial_type":"pit-trial","trial_index":169,"time_elapsed":1707107,"internal_node_id":"0.0-158.0","task_version":"test-retest-t4"},{"Rune":"rune_08_sigel","Hex":"#3366ff99","Correct":32,"Choice":32,"RT":397.1599999968894,"Accuracy":1,"Outcome":"+10","Keys":[1897.869999997085],"TotalKeys":1,"Block":2,"Trial":150,"Robot":1,"Valence":"Win","Action":"Go","Sham":0,"Color":"blue","trial_type":"pit-trial","trial_index":170,"time_elapsed":1710006,"internal_node_id":"0.0-159.0","task_version":"test-retest-t4"},{"Rune":"rune_08_pertho","Hex":"#ffcc3399","Correct":-1,"Choice":-1,"RT":-1,"Accuracy":1,"Outcome":"-1","Keys":[],"TotalKeys":0,"Block":2,"Trial":151,"Robot":4,"Valence":"Lose","Action":"No-Go","Sham":0,"Color":"yellow","trial_type":"pit-trial","trial_index":171,"time_elapsed":1714009,"internal_node_id":"0.0-160.0","task_version":"test-retest-t4"},{"Rune":"rune_08_mannaz","Hex":"#3366ff99","Correct":-1,"Choice":-1,"RT":-1,"Accuracy":1,"Outcome":"+1","Keys":[],"TotalKeys":0,"Block":2,"Trial":152,"Robot":2,"Valence":"Win","Action":"No-Go","Sham":1,"Color":"blue","trial_type":"pit-trial","trial_index":172,"time_elapsed":1718011,"internal_node_id":"0.0-161.0","task_version":"test-retest-t4"},{"Rune":"rune_08_mannaz","Hex":"#3366ff99","Correct":-1,"Choice":-1,"RT":-1,"Accuracy":1,"Outcome":"+10","Keys":[],"TotalKeys":0,"Block":2,"Trial":153,"Robot":2,"Valence":"Win","Action":"No-Go","Sham":0,"Color":"blue","trial_type":"pit-trial","trial_index":173,"time_elapsed":1722015,"internal_node_id":"0.0-162.0","task_version":"test-retest-t4"},{"Rune":"rune_08_fehu","Hex":"#ffcc3399","Correct":32,"Choice":32,"RT":476.8350000011269,"Accuracy":1,"Outcome":"-1","Keys":[1977.2949999968987],"TotalKeys":1,"Block":2,"Trial":154,"Robot":3,"Valence":"Lose","Action":"Go","Sham":0,"Color":"yellow","trial_type":"pit-trial","trial_index":174,"time_elapsed":1724994,"internal_node_id":"0.0-163.0","task_version":"test-retest-t4"},{"Rune":"rune_08_sigel","Hex":"#3366ff99","Correct":32,"Choice":32,"RT":713.2899999995716,"Accuracy":1,"Outcome":"+10","Keys":[2213.534999998985],"TotalKeys":1,"Block":2,"Trial":155,"Robot":1,"Valence":"Win","Action":"Go","Sham":0,"Color":"blue","trial_type":"pit-trial","trial_index":175,"time_elapsed":1728211,"internal_node_id":"0.0-164.0","task_version":"test-retest-t4"},{"Rune":"rune_08_pertho","Hex":"#ffcc3399","Correct":-1,"Choice":-1,"RT":-1,"Accuracy":1,"Outcome":"-1","Keys":[],"TotalKeys":0,"Block":2,"Trial":156,"Robot":4,"Valence":"Lose","Action":"No-Go","Sham":0,"Color":"yellow","trial_type":"pit-trial","trial_index":176,"time_elapsed":1732217,"internal_node_id":"0.0-165.0","task_version":"test-retest-t4"},{"Rune":"rune_08_mannaz","Hex":"#3366ff99","Correct":-1,"Choice":-1,"RT":-1,"Accuracy":1,"Outcome":"+10","Keys":[],"TotalKeys":0,"Block":2,"Trial":157,"Robot":2,"Valence":"Win","Action":"No-Go","Sham":0,"Color":"blue","trial_type":"pit-trial","trial_index":177,"time_elapsed":1736224,"internal_node_id":"0.0-166.0","task_version":"test-retest-t4"},{"Rune":"rune_08_fehu","Hex":"#ffcc3399","Correct":32,"Choice":32,"RT":472.224999997532,"Accuracy":1,"Outcome":"-1","Keys":[1973.0600000000559],"TotalKeys":1,"Block":2,"Trial":158,"Robot":3,"Valence":"Lose","Action":"Go","Sham":0,"Color":"yellow","trial_type":"pit-trial","trial_index":178,"time_elapsed":1739199,"internal_node_id":"0.0-167.0","task_version":"test-retest-t4"},{"Rune":"rune_08_pertho","Hex":"#ffcc3399","Correct":-1,"Choice":-1,"RT":-1,"Accuracy":1,"Outcome":"-10","Keys":[],"TotalKeys":0,"Block":2,"Trial":159,"Robot":4,"Valence":"Lose","Action":"No-Go","Sham":1,"Color":"yellow","trial_type":"pit-trial","trial_index":179,"time_elapsed":1743202,"internal_node_id":"0.0-168.0","task_version":"test-retest-t4"},{"Rune":"rune_08_sigel","Hex":"#3366ff99","Correct":32,"Choice":32,"RT":507.85999999800697,"Accuracy":1,"Outcome":"+1","Keys":[2008.4550000028685],"TotalKeys":1,"Block":2,"Trial":160,"Robot":1,"Valence":"Win","Action":"Go","Sham":1,"Color":"blue","trial_type":"pit-trial","trial_index":180,"time_elapsed":1746217,"internal_node_id":"0.0-169.0","task_version":"test-retest-t4"},{"Rune":"rune_08_pertho","Hex":"#ffcc3399","Correct":-1,"Choice":-1,"RT":-1,"Accuracy":1,"Outcome":"-1","Keys":[],"TotalKeys":0,"Block":2,"Trial":161,"Robot":4,"Valence":"Lose","Action":"No-Go","Sham":0,"Color":"yellow","trial_type":"pit-trial","trial_index":181,"time_elapsed":1750220,"internal_node_id":"0.0-170.0","task_version":"test-retest-t4"},{"Rune":"rune_08_mannaz","Hex":"#3366ff99","Correct":-1,"Choice":-1,"RT":-1,"Accuracy":1,"Outcome":"+10","Keys":[],"TotalKeys":0,"Block":2,"Trial":162,"Robot":2,"Valence":"Win","Action":"No-Go","Sham":0,"Color":"blue","trial_type":"pit-trial","trial_index":182,"time_elapsed":1754227,"internal_node_id":"0.0-171.0","task_version":"test-retest-t4"},{"Rune":"rune_08_sigel","Hex":"#3366ff99","Correct":32,"Choice":32,"RT":458.2349999982398,"Accuracy":1,"Outcome":"+10","Keys":[1959.87000000244],"TotalKeys":1,"Block":2,"Trial":163,"Robot":1,"Valence":"Win","Action":"Go","Sham":0,"Color":"blue","trial_type":"pit-trial","trial_index":183,"time_elapsed":1757192,"internal_node_id":"0.0-172.0","task_version":"test-retest-t4"},{"Rune":"rune_08_fehu","Hex":"#ffcc3399","Correct":32,"Choice":32,"RT":439.9799999992829,"Accuracy":1,"Outcome":"-10","Keys":[1940.679999999702],"TotalKeys":1,"Block":2,"Trial":164,"Robot":3,"Valence":"Lose","Action":"Go","Sham":1,"Color":"yellow","trial_type":"pit-trial","trial_index":184,"time_elapsed":1760136,"internal_node_id":"0.0-173.0","task_version":"test-retest-t4"},{"Rune":"rune_08_pertho","Hex":"#ffcc3399","Correct":-1,"Choice":-1,"RT":-1,"Accuracy":1,"Outcome":"-1","Keys":[],"TotalKeys":0,"Block":2,"Trial":165,"Robot":4,"Valence":"Lose","Action":"No-Go","Sham":0,"Color":"yellow","trial_type":"pit-trial","trial_index":185,"time_elapsed":1764138,"internal_node_id":"0.0-174.0","task_version":"test-retest-t4"},{"Rune":"rune_08_sigel","Hex":"#3366ff99","Correct":32,"Choice":32,"RT":750.1799999992363,"Accuracy":1,"Outcome":"+1","Keys":[2250.6050000011455],"TotalKeys":1,"Block":2,"Trial":166,"Robot":1,"Valence":"Win","Action":"Go","Sham":1,"Color":"blue","trial_type":"pit-trial","trial_index":186,"time_elapsed":1767391,"internal_node_id":"0.0-175.0","task_version":"test-retest-t4"},{"Rune":"rune_08_fehu","Hex":"#ffcc3399","Correct":32,"Choice":32,"RT":458.705000000773,"Accuracy":1,"Outcome":"-1","Keys":[1959.9799999995157],"TotalKeys":1,"Block":2,"Trial":167,"Robot":3,"Valence":"Lose","Action":"Go","Sham":0,"Color":"yellow","trial_type":"pit-trial","trial_index":187,"time_elapsed":1770353,"internal_node_id":"0.0-176.0","task_version":"test-retest-t4"},{"Rune":"rune_08_mannaz","Hex":"#3366ff99","Correct":-1,"Choice":-1,"RT":-1,"Accuracy":1,"Outcome":"+10","Keys":[],"TotalKeys":0,"Block":2,"Trial":168,"Robot":2,"Valence":"Win","Action":"No-Go","Sham":0,"Color":"blue","trial_type":"pit-trial","trial_index":188,"time_elapsed":1774358,"internal_node_id":"0.0-177.0","task_version":"test-retest-t4"},{"Rune":"rune_08_sigel","Hex":"#3366ff99","Correct":32,"Choice":32,"RT":618.1849999995902,"Accuracy":1,"Outcome":"+10","Keys":[2118.8199999998324],"TotalKeys":1,"Block":2,"Trial":169,"Robot":1,"Valence":"Win","Action":"Go","Sham":0,"Color":"blue","trial_type":"pit-trial","trial_index":189,"time_elapsed":1777481,"internal_node_id":"0.0-178.0","task_version":"test-retest-t4"},{"Rune":"rune_08_mannaz","Hex":"#3366ff99","Correct":-1,"Choice":-1,"RT":-1,"Accuracy":1,"Outcome":"+10","Keys":[],"TotalKeys":0,"Block":2,"Trial":170,"Robot":2,"Valence":"Win","Action":"No-Go","Sham":0,"Color":"blue","trial_type":"pit-trial","trial_index":190,"time_elapsed":1781487,"internal_node_id":"0.0-179.0","task_version":"test-retest-t4"},{"Rune":"rune_08_fehu","Hex":"#ffcc3399","Correct":32,"Choice":32,"RT":556.4550000017043,"Accuracy":1,"Outcome":"-1","Keys":[2056.6800000015646],"TotalKeys":1,"Block":2,"Trial":171,"Robot":3,"Valence":"Lose","Action":"Go","Sham":0,"Color":"yellow","trial_type":"pit-trial","trial_index":191,"time_elapsed":1784551,"internal_node_id":"0.0-180.0","task_version":"test-retest-t4"},{"Rune":"rune_08_pertho","Hex":"#ffcc3399","Correct":-1,"Choice":-1,"RT":-1,"Accuracy":1,"Outcome":"-1","Keys":[],"TotalKeys":0,"Block":2,"Trial":172,"Robot":4,"Valence":"Lose","Action":"No-Go","Sham":0,"Color":"yellow","trial_type":"pit-trial","trial_index":192,"time_elapsed":1788553,"internal_node_id":"0.0-181.0","task_version":"test-retest-t4"},{"Rune":"rune_08_mannaz","Hex":"#3366ff99","Correct":-1,"Choice":-1,"RT":-1,"Accuracy":1,"Outcome":"+1","Keys":[],"TotalKeys":0,"Block":2,"Trial":173,"Robot":2,"Valence":"Win","Action":"No-Go","Sham":1,"Color":"blue","trial_type":"pit-trial","trial_index":193,"time_elapsed":1792555,"internal_node_id":"0.0-182.0","task_version":"test-retest-t4"},{"Rune":"rune_08_fehu","Hex":"#ffcc3399","Correct":32,"Choice":32,"RT":487.07500000088476,"Accuracy":1,"Outcome":"-1","Keys":[1988.1050000002142],"TotalKeys":1,"Block":2,"Trial":174,"Robot":3,"Valence":"Lose","Action":"Go","Sham":0,"Color":"yellow","trial_type":"pit-trial","trial_index":194,"time_elapsed":1795546,"internal_node_id":"0.0-183.0","task_version":"test-retest-t4"},{"Rune":"rune_08_sigel","Hex":"#3366ff99","Correct":32,"Choice":32,"RT":348.1699999975972,"Accuracy":1,"Outcome":"+10","Keys":[1848.9650000010151],"TotalKeys":1,"Block":2,"Trial":175,"Robot":1,"Valence":"Win","Action":"Go","Sham":0,"Color":"blue","trial_type":"pit-trial","trial_index":195,"time_elapsed":1798401,"internal_node_id":"0.0-184.0","task_version":"test-retest-t4"},{"Rune":"rune_08_pertho","Hex":"#ffcc3399","Correct":-1,"Choice":-1,"RT":-1,"Accuracy":1,"Outcome":"-1","Keys":[],"TotalKeys":0,"Block":2,"Trial":176,"Robot":4,"Valence":"Lose","Action":"No-Go","Sham":0,"Color":"yellow","trial_type":"pit-trial","trial_index":196,"time_elapsed":1802405,"internal_node_id":"0.0-185.0","task_version":"test-retest-t4"},{"Rune":"rune_08_sigel","Hex":"#3366ff99","Correct":32,"Choice":32,"RT":383.7950000013225,"Accuracy":1,"Outcome":"+10","Keys":[1884.2049999984447],"TotalKeys":1,"Block":2,"Trial":177,"Robot":1,"Valence":"Win","Action":"Go","Sham":0,"Color":"blue","trial_type":"pit-trial","trial_index":197,"time_elapsed":1805295,"internal_node_id":"0.0-186.0","task_version":"test-retest-t4"},{"Rune":"rune_08_pertho","Hex":"#ffcc3399","Correct":-1,"Choice":-1,"RT":-1,"Accuracy":1,"Outcome":"-10","Keys":[],"TotalKeys":0,"Block":2,"Trial":178,"Robot":4,"Valence":"Lose","Action":"No-Go","Sham":1,"Color":"yellow","trial_type":"pit-trial","trial_index":198,"time_elapsed":1809301,"internal_node_id":"0.0-187.0","task_version":"test-retest-t4"},{"Rune":"rune_08_fehu","Hex":"#ffcc3399","Correct":32,"Choice":32,"RT":450.55999999749474,"Accuracy":1,"Outcome":"-1","Keys":[1951.3800000022165],"TotalKeys":1,"Block":2,"Trial":179,"Robot":3,"Valence":"Lose","Action":"Go","Sham":0,"Color":"yellow","trial_type":"pit-trial","trial_index":199,"time_elapsed":1812255,"internal_node_id":"0.0-188.0","task_version":"test-retest-t4"},{"Rune":"rune_08_mannaz","Hex":"#3366ff99","Correct":-1,"Choice":-1,"RT":-1,"Accuracy":1,"Outcome":"+10","Keys":[],"TotalKeys":0,"Block":2,"Trial":180,"Robot":2,"Valence":"Win","Action":"No-Go","Sham":0,"Color":"blue","trial_type":"pit-trial","trial_index":200,"time_elapsed":1816257,"internal_node_id":"0.0-189.0","task_version":"test-retest-t4"},{"view_history":"[{\"page_index\":0,\"viewing_time\":12153.94999999972},{\"page_index\":1,\"viewing_time\":2885.8650000002235}]","rt":15040.119999997783,"trial_type":"pit-instructions","trial_index":201,"time_elapsed":1831298,"internal_node_id":"0.0-190.0","task_version":"test-retest-t4"},{"Rune":"rune_08_fehu","Hex":"#ffcc3399","Correct":32,"Choice":32,"RT":423.7100000027567,"Accuracy":1,"Outcome":"-1","Keys":[1924.5249999985099],"TotalKeys":1,"Block":2,"Trial":181,"Robot":3,"Valence":"Lose","Action":"Go","Sham":0,"Color":"yellow","trial_type":"pit-trial","trial_index":202,"time_elapsed":1834226,"internal_node_id":"0.0-191.0","task_version":"test-retest-t4"},{"Rune":"rune_08_sigel","Hex":"#3366ff99","Correct":32,"Choice":32,"RT":426.87499999743886,"Accuracy":1,"Outcome":"+1","Keys":[1926.9499999973923],"TotalKeys":1,"Block":2,"Trial":182,"Robot":1,"Valence":"Win","Action":"Go","Sham":1,"Color":"blue","trial_type":"pit-trial","trial_index":203,"time_elapsed":1837160,"internal_node_id":"0.0-192.0","task_version":"test-retest-t4"},{"Rune":"rune_08_mannaz","Hex":"#3366ff99","Correct":-1,"Choice":-1,"RT":-1,"Accuracy":1,"Outcome":"+10","Keys":[],"TotalKeys":0,"Block":2,"Trial":183,"Robot":2,"Valence":"Win","Action":"No-Go","Sham":0,"Color":"blue","trial_type":"pit-trial","trial_index":204,"time_elapsed":1841167,"internal_node_id":"0.0-193.0","task_version":"test-retest-t4"},{"Rune":"rune_08_pertho","Hex":"#ffcc3399","Correct":-1,"Choice":-1,"RT":-1,"Accuracy":1,"Outcome":"-1","Keys":[],"TotalKeys":0,"Block":2,"Trial":184,"Robot":4,"Valence":"Lose","Action":"No-Go","Sham":0,"Color":"yellow","trial_type":"pit-trial","trial_index":205,"time_elapsed":1845173,"internal_node_id":"0.0-194.0","task_version":"test-retest-t4"},{"Rune":"rune_08_fehu","Hex":"#ffcc3399","Correct":32,"Choice":32,"RT":378.704999999376,"Accuracy":1,"Outcome":"-1","Keys":[1879.7300000006799],"TotalKeys":1,"Block":2,"Trial":185,"Robot":3,"Valence":"Lose","Action":"Go","Sham":0,"Color":"yellow","trial_type":"pit-trial","trial_index":206,"time_elapsed":1848056,"internal_node_id":"0.0-195.0","task_version":"test-retest-t4"},{"Rune":"rune_08_mannaz","Hex":"#3366ff99","Correct":-1,"Choice":32,"RT":599.5450000008568,"Accuracy":0,"Outcome":"+1","Keys":[2100.940000000177],"TotalKeys":1,"Block":2,"Trial":186,"Robot":2,"Valence":"Win","Action":"No-Go","Sham":0,"Color":"blue","trial_type":"pit-trial","trial_index":207,"time_elapsed":1851159,"internal_node_id":"0.0-196.0","task_version":"test-retest-t4"},{"Rune":"rune_08_pertho","Hex":"#ffcc3399","Correct":-1,"Choice":-1,"RT":-1,"Accuracy":1,"Outcome":"-1","Keys":[],"TotalKeys":0,"Block":2,"Trial":187,"Robot":4,"Valence":"Lose","Action":"No-Go","Sham":0,"Color":"yellow","trial_type":"pit-trial","trial_index":208,"time_elapsed":1855163,"internal_node_id":"0.0-197.0","task_version":"test-retest-t4"},{"Rune":"rune_08_sigel","Hex":"#3366ff99","Correct":32,"Choice":32,"RT":435.6999999980908,"Accuracy":1,"Outcome":"+10","Keys":[1935.7899999995716],"TotalKeys":1,"Block":2,"Trial":188,"Robot":1,"Valence":"Win","Action":"Go","Sham":0,"Color":"blue","trial_type":"pit-trial","trial_index":209,"time_elapsed":1858104,"internal_node_id":"0.0-198.0","task_version":"test-retest-t4"},{"Rune":"rune_08_sigel","Hex":"#3366ff99","Correct":32,"Choice":32,"RT":375.2349999996368,"Accuracy":1,"Outcome":"+10","Keys":[1876.0049999984913],"TotalKeys":1,"Block":2,"Trial":189,"Robot":1,"Valence":"Win","Action":"Go","Sham":0,"Color":"blue","trial_type":"pit-trial","trial_index":210,"time_elapsed":1860986,"internal_node_id":"0.0-199.0","task_version":"test-retest-t4"},{"Rune":"rune_08_mannaz","Hex":"#3366ff99","Correct":-1,"Choice":-1,"RT":-1,"Accuracy":1,"Outcome":"+10","Keys":[],"TotalKeys":0,"Block":2,"Trial":190,"Robot":2,"Valence":"Win","Action":"No-Go","Sham":0,"Color":"blue","trial_type":"pit-trial","trial_index":211,"time_elapsed":1864991,"internal_node_id":"0.0-200.0","task_version":"test-retest-t4"},{"Rune":"rune_08_fehu","Hex":"#ffcc3399","Correct":32,"Choice":32,"RT":695.3400000021793,"Accuracy":1,"Outcome":"-10","Keys":[2195.769999998389],"TotalKeys":1,"Block":2,"Trial":191,"Robot":3,"Valence":"Lose","Action":"Go","Sham":1,"Color":"yellow","trial_type":"pit-trial","trial_index":212,"time_elapsed":1868191,"internal_node_id":"0.0-201.0","task_version":"test-retest-t4"},{"Rune":"rune_08_pertho","Hex":"#ffcc3399","Correct":-1,"Choice":-1,"RT":-1,"Accuracy":1,"Outcome":"-1","Keys":[],"TotalKeys":0,"Block":2,"Trial":192,"Robot":4,"Valence":"Lose","Action":"No-Go","Sham":0,"Color":"yellow","trial_type":"pit-trial","trial_index":213,"time_elapsed":1872194,"internal_node_id":"0.0-202.0","task_version":"test-retest-t4"},{"Rune":"rune_08_mannaz","Hex":"#3366ff99","Correct":-1,"Choice":-1,"RT":-1,"Accuracy":1,"Outcome":"+1","Keys":[],"TotalKeys":0,"Block":2,"Trial":193,"Robot":2,"Valence":"Win","Action":"No-Go","Sham":1,"Color":"blue","trial_type":"pit-trial","trial_index":214,"time_elapsed":1876197,"internal_node_id":"0.0-203.0","task_version":"test-retest-t4"},{"Rune":"rune_08_sigel","Hex":"#3366ff99","Correct":32,"Choice":32,"RT":526.5,"Accuracy":1,"Outcome":"+10","Keys":[2027.2699999988545],"TotalKeys":1,"Block":2,"Trial":194,"Robot":1,"Valence":"Win","Action":"Go","Sham":0,"Color":"blue","trial_type":"pit-trial","trial_index":215,"time_elapsed":1879227,"internal_node_id":"0.0-204.0","task_version":"test-retest-t4"},{"Rune":"rune_08_pertho","Hex":"#ffcc3399","Correct":-1,"Choice":-1,"RT":-1,"Accuracy":1,"Outcome":"-10","Keys":[],"TotalKeys":0,"Block":2,"Trial":195,"Robot":4,"Valence":"Lose","Action":"No-Go","Sham":1,"Color":"yellow","trial_type":"pit-trial","trial_index":216,"time_elapsed":1883233,"internal_node_id":"0.0-205.0","task_version":"test-retest-t4"},{"Rune":"rune_08_fehu","Hex":"#ffcc3399","Correct":32,"Choice":32,"RT":502.74999999953434,"Accuracy":1,"Outcome":"-1","Keys":[2003.160000000149],"TotalKeys":1,"Block":2,"Trial":196,"Robot":3,"Valence":"Lose","Action":"Go","Sham":0,"Color":"yellow","trial_type":"pit-trial","trial_index":217,"time_elapsed":1886243,"internal_node_id":"0.0-206.0","task_version":"test-retest-t4"},{"Rune":"rune_08_mannaz","Hex":"#3366ff99","Correct":-1,"Choice":-1,"RT":-1,"Accuracy":1,"Outcome":"+10","Keys":[],"TotalKeys":0,"Block":2,"Trial":197,"Robot":2,"Valence":"Win","Action":"No-Go","Sham":0,"Color":"blue","trial_type":"pit-trial","trial_index":218,"time_elapsed":1890248,"internal_node_id":"0.0-207.0","task_version":"test-retest-t4"},{"Rune":"rune_08_fehu","Hex":"#ffcc3399","Correct":32,"Choice":32,"RT":460.6300000012852,"Accuracy":1,"Outcome":"-1","Keys":[1961.4599999985658],"TotalKeys":1,"Block":2,"Trial":198,"Robot":3,"Valence":"Lose","Action":"Go","Sham":0,"Color":"yellow","trial_type":"pit-trial","trial_index":219,"time_elapsed":1893215,"internal_node_id":"0.0-208.0","task_version":"test-retest-t4"},{"Rune":"rune_08_pertho","Hex":"#ffcc3399","Correct":-1,"Choice":-1,"RT":-1,"Accuracy":1,"Outcome":"-1","Keys":[],"TotalKeys":0,"Block":2,"Trial":199,"Robot":4,"Valence":"Lose","Action":"No-Go","Sham":0,"Color":"yellow","trial_type":"pit-trial","trial_index":220,"time_elapsed":1897219,"internal_node_id":"0.0-209.0","task_version":"test-retest-t4"},{"Rune":"rune_08_sigel","Hex":"#3366ff99","Correct":32,"Choice":32,"RT":525.1849999986589,"Accuracy":1,"Outcome":"+10","Keys":[2026.054999998305],"TotalKeys":1,"Block":2,"Trial":200,"Robot":1,"Valence":"Win","Action":"Go","Sham":0,"Color":"blue","trial_type":"pit-trial","trial_index":221,"time_elapsed":1900247,"internal_node_id":"0.0-210.0","task_version":"test-retest-t4"},{"Rune":"rune_08_mannaz","Hex":"#3366ff99","Correct":-1,"Choice":-1,"RT":-1,"Accuracy":1,"Outcome":"+10","Keys":[],"TotalKeys":0,"Block":2,"Trial":201,"Robot":2,"Valence":"Win","Action":"No-Go","Sham":0,"Color":"blue","trial_type":"pit-trial","trial_index":222,"time_elapsed":1904251,"internal_node_id":"0.0-211.0","task_version":"test-retest-t4"},{"Rune":"rune_08_fehu","Hex":"#ffcc3399","Correct":32,"Choice":32,"RT":402.7899999965448,"Accuracy":1,"Outcome":"-1","Keys":[1902.8049999980722],"TotalKeys":1,"Block":2,"Trial":202,"Robot":3,"Valence":"Lose","Action":"Go","Sham":0,"Color":"yellow","trial_type":"pit-trial","trial_index":223,"time_elapsed":1907159,"internal_node_id":"0.0-212.0","task_version":"test-retest-t4"},{"Rune":"rune_08_sigel","Hex":"#3366ff99","Correct":32,"Choice":32,"RT":443.99500000150874,"Accuracy":1,"Outcome":"+10","Keys":[1944.1100000003353],"TotalKeys":1,"Block":2,"Trial":203,"Robot":1,"Valence":"Win","Action":"Go","Sham":0,"Color":"blue","trial_type":"pit-trial","trial_index":224,"time_elapsed":1910106,"internal_node_id":"0.0-213.0","task_version":"test-retest-t4"},{"Rune":"rune_08_pertho","Hex":"#ffcc3399","Correct":-1,"Choice":-1,"RT":-1,"Accuracy":1,"Outcome":"-10","Keys":[],"TotalKeys":0,"Block":2,"Trial":204,"Robot":4,"Valence":"Lose","Action":"No-Go","Sham":1,"Color":"yellow","trial_type":"pit-trial","trial_index":225,"time_elapsed":1914113,"internal_node_id":"0.0-214.0","task_version":"test-retest-t4"},{"Rune":"rune_08_fehu","Hex":"#ffcc3399","Correct":32,"Choice":32,"RT":448.0450000008568,"Accuracy":1,"Outcome":"-10","Keys":[1948.210000002291],"TotalKeys":1,"Block":2,"Trial":205,"Robot":3,"Valence":"Lose","Action":"Go","Sham":1,"Color":"yellow","trial_type":"pit-trial","trial_index":226,"time_elapsed":1917065,"internal_node_id":"0.0-215.0","task_version":"test-retest-t4"},{"Rune":"rune_08_sigel","Hex":"#3366ff99","Correct":32,"Choice":32,"RT":447.45500000123866,"Accuracy":1,"Outcome":"+10","Keys":[1947.9800000006799],"TotalKeys":1,"Block":2,"Trial":206,"Robot":1,"Valence":"Win","Action":"Go","Sham":0,"Color":"blue","trial_type":"pit-trial","trial_index":227,"time_elapsed":1920014,"internal_node_id":"0.0-216.0","task_version":"test-retest-t4"},{"Rune":"rune_08_pertho","Hex":"#ffcc3399","Correct":-1,"Choice":-1,"RT":-1,"Accuracy":1,"Outcome":"-1","Keys":[],"TotalKeys":0,"Block":2,"Trial":207,"Robot":4,"Valence":"Lose","Action":"No-Go","Sham":0,"Color":"yellow","trial_type":"pit-trial","trial_index":228,"time_elapsed":1924017,"internal_node_id":"0.0-217.0","task_version":"test-retest-t4"},{"Rune":"rune_08_mannaz","Hex":"#3366ff99","Correct":-1,"Choice":-1,"RT":-1,"Accuracy":1,"Outcome":"+10","Keys":[],"TotalKeys":0,"Block":2,"Trial":208,"Robot":2,"Valence":"Win","Action":"No-Go","Sham":0,"Color":"blue","trial_type":"pit-trial","trial_index":229,"time_elapsed":1928020,"internal_node_id":"0.0-218.0","task_version":"test-retest-t4"},{"Rune":"rune_08_mannaz","Hex":"#3366ff99","Correct":-1,"Choice":-1,"RT":-1,"Accuracy":1,"Outcome":"+10","Keys":[],"TotalKeys":0,"Block":2,"Trial":209,"Robot":2,"Valence":"Win","Action":"No-Go","Sham":0,"Color":"blue","trial_type":"pit-trial","trial_index":230,"time_elapsed":1932023,"internal_node_id":"0.0-219.0","task_version":"test-retest-t4"},{"Rune":"rune_08_pertho","Hex":"#ffcc3399","Correct":-1,"Choice":-1,"RT":-1,"Accuracy":1,"Outcome":"-1","Keys":[],"TotalKeys":0,"Block":2,"Trial":210,"Robot":4,"Valence":"Lose","Action":"No-Go","Sham":0,"Color":"yellow","trial_type":"pit-trial","trial_index":231,"time_elapsed":1936027,"internal_node_id":"0.0-220.0","task_version":"test-retest-t4"},{"Rune":"rune_08_sigel","Hex":"#3366ff99","Correct":32,"Choice":32,"RT":453.36500000115484,"Accuracy":1,"Outcome":"+1","Keys":[1953.5899999972899],"TotalKeys":1,"Block":2,"Trial":211,"Robot":1,"Valence":"Win","Action":"Go","Sham":1,"Color":"blue","trial_type":"pit-trial","trial_index":232,"time_elapsed":1938987,"internal_node_id":"0.0-221.0","task_version":"test-retest-t4"},{"Rune":"rune_08_fehu","Hex":"#ffcc3399","Correct":32,"Choice":32,"RT":530.4849999991711,"Accuracy":1,"Outcome":"-1","Keys":[2030.9299999973737],"TotalKeys":1,"Block":2,"Trial":212,"Robot":3,"Valence":"Lose","Action":"Go","Sham":0,"Color":"yellow","trial_type":"pit-trial","trial_index":233,"time_elapsed":1942024,"internal_node_id":"0.0-222.0","task_version":"test-retest-t4"},{"Rune":"rune_08_sigel","Hex":"#3366ff99","Correct":32,"Choice":32,"RT":439.8700000019744,"Accuracy":1,"Outcome":"+10","Keys":[1940.6100000014994],"TotalKeys":1,"Block":2,"Trial":213,"Robot":1,"Valence":"Win","Action":"Go","Sham":0,"Color":"blue","trial_type":"pit-trial","trial_index":234,"time_elapsed":1944967,"internal_node_id":"0.0-223.0","task_version":"test-retest-t4"},{"Rune":"rune_08_mannaz","Hex":"#3366ff99","Correct":-1,"Choice":-1,"RT":-1,"Accuracy":1,"Outcome":"+1","Keys":[],"TotalKeys":0,"Block":2,"Trial":214,"Robot":2,"Valence":"Win","Action":"No-Go","Sham":1,"Color":"blue","trial_type":"pit-trial","trial_index":235,"time_elapsed":1948969,"internal_node_id":"0.0-224.0","task_version":"test-retest-t4"},{"Rune":"rune_08_fehu","Hex":"#ffcc3399","Correct":32,"Choice":32,"RT":446.33999999868684,"Accuracy":1,"Outcome":"-1","Keys":[1947.0650000004098],"TotalKeys":1,"Block":2,"Trial":215,"Robot":3,"Valence":"Lose","Action":"Go","Sham":0,"Color":"yellow","trial_type":"pit-trial","trial_index":236,"time_elapsed":1951920,"internal_node_id":"0.0-225.0","task_version":"test-retest-t4"},{"Rune":"rune_08_pertho","Hex":"#ffcc3399","Correct":-1,"Choice":-1,"RT":-1,"Accuracy":1,"Outcome":"-1","Keys":[],"TotalKeys":0,"Block":2,"Trial":216,"Robot":4,"Valence":"Lose","Action":"No-Go","Sham":0,"Color":"yellow","trial_type":"pit-trial","trial_index":237,"time_elapsed":1955928,"internal_node_id":"0.0-226.0","task_version":"test-retest-t4"},{"Rune":"rune_08_mannaz","Hex":"#3366ff99","Correct":-1,"Choice":-1,"RT":-1,"Accuracy":1,"Outcome":"+10","Keys":[],"TotalKeys":0,"Block":2,"Trial":217,"Robot":2,"Valence":"Win","Action":"No-Go","Sham":0,"Color":"blue","trial_type":"pit-trial","trial_index":238,"time_elapsed":1959935,"internal_node_id":"0.0-227.0","task_version":"test-retest-t4"},{"Rune":"rune_08_sigel","Hex":"#3366ff99","Correct":32,"Choice":32,"RT":384.88000000151806,"Accuracy":1,"Outcome":"+10","Keys":[1885.0549999990035],"TotalKeys":1,"Block":2,"Trial":218,"Robot":1,"Valence":"Win","Action":"Go","Sham":0,"Color":"blue","trial_type":"pit-trial","trial_index":239,"time_elapsed":1962826,"internal_node_id":"0.0-228.0","task_version":"test-retest-t4"},{"Rune":"rune_08_pertho","Hex":"#ffcc3399","Correct":-1,"Choice":-1,"RT":-1,"Accuracy":1,"Outcome":"-1","Keys":[],"TotalKeys":0,"Block":2,"Trial":219,"Robot":4,"Valence":"Lose","Action":"No-Go","Sham":0,"Color":"yellow","trial_type":"pit-trial","trial_index":240,"time_elapsed":1966832,"internal_node_id":"0.0-229.0","task_version":"test-retest-t4"},{"Rune":"rune_08_fehu","Hex":"#ffcc3399","Correct":32,"Choice":32,"RT":584.0250000001397,"Accuracy":1,"Outcome":"-1","Keys":[2084.549999999581],"TotalKeys":1,"Block":2,"Trial":220,"Robot":3,"Valence":"Lose","Action":"Go","Sham":0,"Color":"yellow","trial_type":"pit-trial","trial_index":241,"time_elapsed":1969919,"internal_node_id":"0.0-230.0","task_version":"test-retest-t4"},{"Rune":"rune_08_sigel","Hex":"#3366ff99","Correct":32,"Choice":32,"RT":432.99499999918044,"Accuracy":1,"Outcome":"+10","Keys":[1934.0099999972153],"TotalKeys":1,"Block":2,"Trial":221,"Robot":1,"Valence":"Win","Action":"Go","Sham":0,"Color":"blue","trial_type":"pit-trial","trial_index":242,"time_elapsed":1972855,"internal_node_id":"0.0-231.0","task_version":"test-retest-t4"},{"Rune":"rune_08_fehu","Hex":"#ffcc3399","Correct":32,"Choice":32,"RT":433.34499999764375,"Accuracy":1,"Outcome":"-1","Keys":[1933.4349999988917],"TotalKeys":1,"Block":2,"Trial":222,"Robot":3,"Valence":"Lose","Action":"Go","Sham":0,"Color":"yellow","trial_type":"pit-trial","trial_index":243,"time_elapsed":1975791,"internal_node_id":"0.0-232.0","task_version":"test-retest-t4"},{"Rune":"rune_08_pertho","Hex":"#ffcc3399","Correct":-1,"Choice":-1,"RT":-1,"Accuracy":1,"Outcome":"-1","Keys":[],"TotalKeys":0,"Block":2,"Trial":223,"Robot":4,"Valence":"Lose","Action":"No-Go","Sham":0,"Color":"yellow","trial_type":"pit-trial","trial_index":244,"time_elapsed":1979794,"internal_node_id":"0.0-233.0","task_version":"test-retest-t4"},{"Rune":"rune_08_mannaz","Hex":"#3366ff99","Correct":-1,"Choice":-1,"RT":-1,"Accuracy":1,"Outcome":"+10","Keys":[],"TotalKeys":0,"Block":2,"Trial":224,"Robot":2,"Valence":"Win","Action":"No-Go","Sham":0,"Color":"blue","trial_type":"pit-trial","trial_index":245,"time_elapsed":1983797,"internal_node_id":"0.0-234.0","task_version":"test-retest-t4"},{"Rune":"rune_08_sigel","Hex":"#3366ff99","Correct":32,"Choice":32,"RT":562.8450000004377,"Accuracy":1,"Outcome":"+10","Keys":[2063.56500000041],"TotalKeys":1,"Block":2,"Trial":225,"Robot":1,"Valence":"Win","Action":"Go","Sham":0,"Color":"blue","trial_type":"pit-trial","trial_index":246,"time_elapsed":1986863,"internal_node_id":"0.0-235.0","task_version":"test-retest-t4"},{"Rune":"rune_08_pertho","Hex":"#ffcc3399","Correct":-1,"Choice":-1,"RT":-1,"Accuracy":1,"Outcome":"-1","Keys":[],"TotalKeys":0,"Block":2,"Trial":226,"Robot":4,"Valence":"Lose","Action":"No-Go","Sham":0,"Color":"yellow","trial_type":"pit-trial","trial_index":247,"time_elapsed":1990867,"internal_node_id":"0.0-236.0","task_version":"test-retest-t4"},{"Rune":"rune_08_mannaz","Hex":"#3366ff99","Correct":-1,"Choice":-1,"RT":-1,"Accuracy":1,"Outcome":"+10","Keys":[],"TotalKeys":0,"Block":2,"Trial":227,"Robot":2,"Valence":"Win","Action":"No-Go","Sham":0,"Color":"blue","trial_type":"pit-trial","trial_index":248,"time_elapsed":1994870,"internal_node_id":"0.0-237.0","task_version":"test-retest-t4"},{"Rune":"rune_08_fehu","Hex":"#ffcc3399","Correct":32,"Choice":32,"RT":684.2300000025425,"Accuracy":1,"Outcome":"-1","Keys":[2185.8749999993015],"TotalKeys":1,"Block":2,"Trial":228,"Robot":3,"Valence":"Lose","Action":"Go","Sham":0,"Color":"yellow","trial_type":"pit-trial","trial_index":249,"time_elapsed":1998059,"internal_node_id":"0.0-238.0","task_version":"test-retest-t4"},{"Rune":"rune_08_fehu","Hex":"#ffcc3399","Correct":32,"Choice":32,"RT":545.6000000012573,"Accuracy":1,"Outcome":"-1","Keys":[2046.0800000000745],"TotalKeys":1,"Block":2,"Trial":229,"Robot":3,"Valence":"Lose","Action":"Go","Sham":0,"Color":"yellow","trial_type":"pit-trial","trial_index":250,"time_elapsed":2001112,"internal_node_id":"0.0-239.0","task_version":"test-retest-t4"},{"Rune":"rune_08_mannaz","Hex":"#3366ff99","Correct":-1,"Choice":-1,"RT":-1,"Accuracy":1,"Outcome":"+10","Keys":[],"TotalKeys":0,"Block":2,"Trial":230,"Robot":2,"Valence":"Win","Action":"No-Go","Sham":0,"Color":"blue","trial_type":"pit-trial","trial_index":251,"time_elapsed":2005118,"internal_node_id":"0.0-240.0","task_version":"test-retest-t4"},{"Rune":"rune_08_pertho","Hex":"#ffcc3399","Correct":-1,"Choice":-1,"RT":-1,"Accuracy":1,"Outcome":"-1","Keys":[],"TotalKeys":0,"Block":2,"Trial":231,"Robot":4,"Valence":"Lose","Action":"No-Go","Sham":0,"Color":"yellow","trial_type":"pit-trial","trial_index":252,"time_elapsed":2009120,"internal_node_id":"0.0-241.0","task_version":"test-retest-t4"},{"Rune":"rune_08_sigel","Hex":"#3366ff99","Correct":32,"Choice":32,"RT":632.8350000004284,"Accuracy":1,"Outcome":"+1","Keys":[2132.864999999525],"TotalKeys":1,"Block":2,"Trial":232,"Robot":1,"Valence":"Win","Action":"Go","Sham":1,"Color":"blue","trial_type":"pit-trial","trial_index":253,"time_elapsed":2012257,"internal_node_id":"0.0-242.0","task_version":"test-retest-t4"},{"Rune":"rune_08_fehu","Hex":"#ffcc3399","Correct":32,"Choice":32,"RT":528.9950000005774,"Accuracy":1,"Outcome":"-1","Keys":[2029.2399999999907],"TotalKeys":1,"Block":2,"Trial":233,"Robot":3,"Valence":"Lose","Action":"Go","Sham":0,"Color":"yellow","trial_type":"pit-trial","trial_index":254,"time_elapsed":2015292,"internal_node_id":"0.0-243.0","task_version":"test-retest-t4"},{"Rune":"rune_08_mannaz","Hex":"#3366ff99","Correct":-1,"Choice":-1,"RT":-1,"Accuracy":1,"Outcome":"+1","Keys":[],"TotalKeys":0,"Block":2,"Trial":234,"Robot":2,"Valence":"Win","Action":"No-Go","Sham":1,"Color":"blue","trial_type":"pit-trial","trial_index":255,"time_elapsed":2019298,"internal_node_id":"0.0-244.0","task_version":"test-retest-t4"},{"Rune":"rune_08_pertho","Hex":"#ffcc3399","Correct":-1,"Choice":-1,"RT":-1,"Accuracy":1,"Outcome":"-1","Keys":[],"TotalKeys":0,"Block":2,"Trial":235,"Robot":4,"Valence":"Lose","Action":"No-Go","Sham":0,"Color":"yellow","trial_type":"pit-trial","trial_index":256,"time_elapsed":2023304,"internal_node_id":"0.0-245.0","task_version":"test-retest-t4"},{"Rune":"rune_08_sigel","Hex":"#3366ff99","Correct":32,"Choice":32,"RT":474.44499999983236,"Accuracy":1,"Outcome":"+10","Keys":[1976.1650000000373],"TotalKeys":1,"Block":2,"Trial":236,"Robot":1,"Valence":"Win","Action":"Go","Sham":0,"Color":"blue","trial_type":"pit-trial","trial_index":257,"time_elapsed":2026282,"internal_node_id":"0.0-246.0","task_version":"test-retest-t4"},{"Rune":"rune_08_pertho","Hex":"#ffcc3399","Correct":-1,"Choice":-1,"RT":-1,"Accuracy":1,"Outcome":"-10","Keys":[],"TotalKeys":0,"Block":2,"Trial":237,"Robot":4,"Valence":"Lose","Action":"No-Go","Sham":1,"Color":"yellow","trial_type":"pit-trial","trial_index":258,"time_elapsed":2030284,"internal_node_id":"0.0-247.0","task_version":"test-retest-t4"},{"Rune":"rune_08_sigel","Hex":"#3366ff99","Correct":32,"Choice":32,"RT":379.37500000046566,"Accuracy":1,"Outcome":"+10","Keys":[1880.0650000011083],"TotalKeys":1,"Block":2,"Trial":238,"Robot":1,"Valence":"Win","Action":"Go","Sham":0,"Color":"blue","trial_type":"pit-trial","trial_index":259,"time_elapsed":2033166,"internal_node_id":"0.0-248.0","task_version":"test-retest-t4"},{"Rune":"rune_08_fehu","Hex":"#ffcc3399","Correct":32,"Choice":32,"RT":409.7799999981653,"Accuracy":1,"Outcome":"-10","Keys":[1910.2300000011455],"TotalKeys":1,"Block":2,"Trial":239,"Robot":3,"Valence":"Lose","Action":"Go","Sham":1,"Color":"yellow","trial_type":"pit-trial","trial_index":260,"time_elapsed":2036080,"internal_node_id":"0.0-249.0","task_version":"test-retest-t4"},{"Rune":"rune_08_mannaz","Hex":"#3366ff99","Correct":-1,"Choice":-1,"RT":-1,"Accuracy":1,"Outcome":"+10","Keys":[],"TotalKeys":0,"Block":2,"Trial":240,"Robot":2,"Valence":"Win","Action":"No-Go","Sham":0,"Color":"blue","trial_type":"pit-trial","trial_index":261,"time_elapsed":2040086,"internal_node_id":"0.0-250.0","task_version":"test-retest-t4"},{"view_history":"[{\"page_index\":0,\"viewing_time\":14859.024999997811}]","rt":14859.314999997849,"trial_type":"pit-instructions","trial_index":262,"time_elapsed":2054946,"internal_node_id":"0.0-251.0","task_version":"test-retest-t4"},{"rt":19927.03000000259,"responses":{"age":"38","gender-categorical":"Male","gender-free-response":"","ethnicity":"Not Hispanic or Latino","race":"White","language":"Yes","fluency":"Very well"},"survey":"demographics","trial_type":"survey-demo","trial_index":263,"time_elapsed":2074877,"internal_node_id":"0.0-252.0","task_version":"test-retest-t4"},{"rt":33501.76500000083,"responses":{"difficulty":"4","fun":"4","clarity":"5","strategy":"I pressed space on several items initially to narrow down which items had postive results","feedback":"none"},"survey":"debrief","trial_type":"survey-debrief","trial_index":264,"time_elapsed":2108381,"internal_node_id":"0.0-253.0","task_version":"test-retest-t4"},{"rt":9918.549999998417,"stimulus":"You earned a bonus of $1.45 out of $1.5.<br><br>Press any key to complete the experiment.","key_press":32,"trial_type":"html-keyboard-response","trial_index":265,"time_elapsed":2118302,"internal_node_id":"0.0-254.0","task_version":"test-retest-t4","accuracy":0.9666666666666667,"bonus":1.45,"interactions":"[{\"event\":\"blur\",\"trial\":4,\"time\":605400},{\"event\":\"focus\",\"trial\":4,\"time\":610173},{\"event\":\"blur\",\"trial\":4,\"time\":610173},{\"event\":\"focus\",\"trial\":4,\"time\":621137},{\"event\":\"blur\",\"trial\":49,\"time\":870824},{\"event\":\"focus\",\"trial\":50,\"time\":872013},{\"event\":\"blur\",\"trial\":53,\"time\":885298},{\"event\":\"focus\",\"trial\":54,\"time\":887552},{\"event\":\"blur\",\"trial\":79,\"time\":999323},{\"event\":\"focus\",\"trial\":79,\"time\":1005987},{\"event\":\"blur\",\"trial\":140,\"time\":1475993},{\"event\":\"focus\",\"trial\":140,\"time\":1477041},{\"event\":\"blur\",\"trial\":182,\"time\":1750322},{\"event\":\"focus\",\"trial\":182,\"time\":1751181}]"}]