[{"slider_type":"valence","raw_loc":608,"loc":0.716,"trial_type":"affective-slider","trial_index":0,"time_elapsed":3657,"internal_node_id":"0.0-0.0","task_version":"test-retest"},{"responses":{"Q07":"3","Q09":"2","Q10":"2","Q03":"3","Q08":"2","Q11":"2","Q02":"3","Q05":"2","Q13":"0","Q01":"3","Q06":"3","Q12":"1","Q04":"3"},"rt":36772.23499999673,"survey":"bisbas","trial_type":"survey-template","trial_index":1,"time_elapsed":40437,"internal_node_id":"0.0-1.0","task_version":"test-retest"},{"responses":{"Q02":"0","Q06":"0","Q03":"0","Q07":"0","Q01":"0","Q05":"0","Q04":"0","Q08":"0"},"rt":25592.534999988857,"survey":"gad7","trial_type":"survey-template","trial_index":2,"time_elapsed":66035,"internal_node_id":"0.0-2.0","task_version":"test-retest"},{"responses":{"Q04":"0","Q09":"1","Q07":"1","Q12":"0","Q02":"0","Q06":"0","Q13":"0","Q05":"0","Q01":"0","Q15":"0","Q03":"0","Q10":"1","Q08":"0","Q14":"0","Q11":"0"},"rt":106458.75000000524,"survey":"7up7down","trial_type":"survey-template","trial_index":3,"time_elapsed":172502,"internal_node_id":"0.0-3.0","task_version":"test-retest"},{"value":false,"trial_type":"call-function","trial_index":4,"time_elapsed":172505,"internal_node_id":"0.0-4.0","task_version":"test-retest"},{"view_history":"[{\"page_index\":0,\"viewing_time\":1841.9599999906495},{\"page_index\":1,\"viewing_time\":6355.790000001434},{\"page_index\":2,\"viewing_time\":4834.994999997434},{\"page_index\":3,\"viewing_time\":2754.9250000010943},{\"page_index\":4,\"viewing_time\":3844.02499999851}]","rt":19633.279999994556,"trial_type":"pit-instructions","trial_index":5,"time_elapsed":192146,"internal_node_id":"0.0-5.0-0.0","task_version":"test-retest"},{"Rune":"rune_00_ingz","Hex":"#FFFFF080","Correct":32,"Choice":32,"RT":347.0449999877019,"Accuracy":1,"Outcome":"+10","Keys":[946.8400000041584,1847.4700000078883],"TotalKeys":2,"Block":0,"Action":"Go","trial_type":"pit-trial","trial_index":6,"time_elapsed":195003,"internal_node_id":"0.0-5.0-1.0-0.0","task_version":"test-retest"},{"Rune":"rune_00_ingz","Hex":"#FFFFF080","Correct":32,"Choice":32,"RT":466.7300000000978,"Accuracy":1,"Outcome":"+10","Keys":[1968.670000002021],"TotalKeys":1,"Block":0,"Action":"Go","trial_type":"pit-trial","trial_index":7,"time_elapsed":197980,"internal_node_id":"0.0-5.0-1.0-0.1","task_version":"test-retest"},{"Rune":"rune_00_ingz","Hex":"#FFFFF080","Correct":32,"Choice":32,"RT":471.6150000022026,"Accuracy":1,"Outcome":"+10","Keys":[1971.9500000064727],"TotalKeys":1,"Block":0,"Action":"Go","trial_type":"pit-trial","trial_index":8,"time_elapsed":200958,"internal_node_id":"0.0-5.0-1.0-0.2","task_version":"test-retest"},{"Rune":"rune_00_ingz","Hex":"#FFFFF080","Correct":32,"Choice":32,"RT":461.90999999816995,"Accuracy":1,"Outcome":"+10","Keys":[1962.3299999948358],"TotalKeys":1,"Block":0,"Action":"Go","trial_type":"pit-trial","trial_index":9,"time_elapsed":203929,"internal_node_id":"0.0-5.0-1.0-0.3","task_version":"test-retest"},{"view_history":"[{\"page_index\":0,\"viewing_time\":4151.639999996405}]","rt":4152.390000002924,"trial_type":"pit-instructions","trial_index":10,"time_elapsed":208083,"internal_node_id":"0.0-5.0-2.0","task_version":"test-retest"},{"Rune":"rune_00_isaz","Hex":"#FFFFF080","Correct":-1,"Choice":-1,"RT":-1,"Accuracy":1,"Outcome":"+10","Keys":[],"TotalKeys":0,"Block":0,"Action":"No-Go","trial_type":"pit-trial","trial_index":11,"time_elapsed":212093,"internal_node_id":"0.0-5.0-3.0-0.0","task_version":"test-retest"},{"Rune":"rune_00_isaz","Hex":"#FFFFF080","Correct":-1,"Choice":-1,"RT":-1,"Accuracy":1,"Outcome":"+10","Keys":[],"TotalKeys":0,"Block":0,"Action":"No-Go","trial_type":"pit-trial","trial_index":12,"time_elapsed":216106,"internal_node_id":"0.0-5.0-3.0-0.1","task_version":"test-retest"},{"Rune":"rune_00_isaz","Hex":"#FFFFF080","Correct":-1,"Choice":-1,"RT":-1,"Accuracy":1,"Outcome":"+10","Keys":[],"TotalKeys":0,"Block":0,"Action":"No-Go","trial_type":"pit-trial","trial_index":13,"time_elapsed":220115,"internal_node_id":"0.0-5.0-3.0-0.2","task_version":"test-retest"},{"Rune":"rune_00_isaz","Hex":"#FFFFF080","Correct":-1,"Choice":-1,"RT":-1,"Accuracy":1,"Outcome":"+10","Keys":[],"TotalKeys":0,"Block":0,"Action":"No-Go","trial_type":"pit-trial","trial_index":14,"time_elapsed":224127,"internal_node_id":"0.0-5.0-3.0-0.3","task_version":"test-retest"},{"view_history":"[{\"page_index\":0,\"viewing_time\":3110.5400000087684},{\"page_index\":1,\"viewing_time\":7410.2099999872735},{\"page_index\":2,\"viewing_time\":10579.330000007758},{\"page_index\":3,\"viewing_time\":3658.655000006547},{\"page_index\":4,\"viewing_time\":3092.079999987618},{\"page_index\":5,\"viewing_time\":5107.224999999744},{\"page_index\":6,\"viewing_time\":2479.490000012447},{\"page_index\":7,\"viewing_time\":2184.9849999998696}]","rt":37623.13000000722,"trial_type":"pit-instructions","trial_index":15,"time_elapsed":261754,"internal_node_id":"0.0-5.0-4.0","task_version":"test-retest"},{"responses":["Do nothing","+10","-1","True","Yes"],"num_errors":0,"rt":12413.81499999261,"trial_type":"pit-comprehension","trial_index":16,"time_elapsed":274175,"internal_node_id":"0.0-5.0-5.0","task_version":"test-retest"},{"trial_type":"call-function","trial_index":17,"time_elapsed":274179,"internal_node_id":"0.0-6.0","task_version":"test-retest"},{"view_history":"[{\"page_index\":0,\"viewing_time\":2738.0899999989197},{\"page_index\":1,\"viewing_time\":3137.994999997318}]","rt":5876.699999993434,"trial_type":"pit-instructions","trial_index":18,"time_elapsed":280057,"internal_node_id":"0.0-7.0","task_version":"test-retest"},{"Rune":"rune_02_os","Hex":"#ffcc3399","Correct":32,"Choice":-1,"RT":-1,"Accuracy":0,"Outcome":"-10","Keys":[],"TotalKeys":0,"Block":1,"Trial":1,"Robot":3,"Valence":"Lose","Action":"Go","Sham":0,"Color":"yellow","trial_type":"pit-trial","trial_index":19,"time_elapsed":284068,"internal_node_id":"0.0-8.0","task_version":"test-retest"},{"Rune":"rune_02_haglaz","Hex":"#3366ff99","Correct":-1,"Choice":32,"RT":609.5349999959581,"Accuracy":0,"Outcome":"+1","Keys":[2109.7500000032596],"TotalKeys":1,"Block":1,"Trial":2,"Robot":2,"Valence":"Win","Action":"No-Go","Sham":0,"Color":"blue","trial_type":"pit-trial","trial_index":20,"time_elapsed":287186,"internal_node_id":"0.0-9.0","task_version":"test-retest"},{"Rune":"rune_02_raido","Hex":"#3366ff99","Correct":32,"Choice":32,"RT":597.1649999992223,"Accuracy":1,"Outcome":"+10","Keys":[2097.2949999995762],"TotalKeys":1,"Block":1,"Trial":3,"Robot":1,"Valence":"Win","Action":"Go","Sham":0,"Color":"blue","trial_type":"pit-trial","trial_index":21,"time_elapsed":290289,"internal_node_id":"0.0-10.0","task_version":"test-retest"},{"Rune":"rune_02_cen","Hex":"#ffcc3399","Correct":-1,"Choice":32,"RT":492.69500000809785,"Accuracy":0,"Outcome":"-10","Keys":[1993.0549999990035],"TotalKeys":1,"Block":1,"Trial":4,"Robot":4,"Valence":"Lose","Action":"No-Go","Sham":0,"Color":"yellow","trial_type":"pit-trial","trial_index":22,"time_elapsed":293289,"internal_node_id":"0.0-11.0","task_version":"test-retest"},{"Rune":"rune_02_os","Hex":"#ffcc3399","Correct":32,"Choice":32,"RT":666.945000004489,"Accuracy":1,"Outcome":"-1","Keys":[2167.1099999948638],"TotalKeys":1,"Block":1,"Trial":5,"Robot":3,"Valence":"Lose","Action":"Go","Sham":0,"Color":"yellow","trial_type":"pit-trial","trial_index":23,"time_elapsed":296460,"internal_node_id":"0.0-12.0","task_version":"test-retest"},{"Rune":"rune_02_raido","Hex":"#3366ff99","Correct":32,"Choice":32,"RT":455.4199999984121,"Accuracy":1,"Outcome":"+10","Keys":[1955.8499999984633],"TotalKeys":1,"Block":1,"Trial":6,"Robot":1,"Valence":"Win","Action":"Go","Sham":0,"Color":"blue","trial_type":"pit-trial","trial_index":24,"time_elapsed":299420,"internal_node_id":"0.0-13.0","task_version":"test-retest"},{"Rune":"rune_02_cen","Hex":"#ffcc3399","Correct":-1,"Choice":-1,"RT":-1,"Accuracy":1,"Outcome":"-1","Keys":[],"TotalKeys":0,"Block":1,"Trial":7,"Robot":4,"Valence":"Lose","Action":"No-Go","Sham":0,"Color":"yellow","trial_type":"pit-trial","trial_index":25,"time_elapsed":303426,"internal_node_id":"0.0-14.0","task_version":"test-retest"},{"Rune":"rune_02_haglaz","Hex":"#3366ff99","Correct":-1,"Choice":32,"RT":555.7200000039302,"Accuracy":0,"Outcome":"+1","Keys":[2057.7400000038324],"TotalKeys":1,"Block":1,"Trial":8,"Robot":2,"Valence":"Win","Action":"No-Go","Sham":0,"Color":"blue","trial_type":"pit-trial","trial_index":26,"time_elapsed":306489,"internal_node_id":"0.0-15.0","task_version":"test-retest"},{"Rune":"rune_02_os","Hex":"#ffcc3399","Correct":32,"Choice":32,"RT":813.2250000053318,"Accuracy":1,"Outcome":"-1","Keys":[2313.690000009956],"TotalKeys":1,"Block":1,"Trial":9,"Robot":3,"Valence":"Lose","Action":"Go","Sham":0,"Color":"yellow","trial_type":"pit-trial","trial_index":27,"time_elapsed":309809,"internal_node_id":"0.0-16.0","task_version":"test-retest"},{"Rune":"rune_02_haglaz","Hex":"#3366ff99","Correct":-1,"Choice":32,"RT":689.9150000099326,"Accuracy":0,"Outcome":"+1","Keys":[2191.0250000073574],"TotalKeys":1,"Block":1,"Trial":10,"Robot":2,"Valence":"Win","Action":"No-Go","Sham":0,"Color":"blue","trial_type":"pit-trial","trial_index":28,"time_elapsed":313007,"internal_node_id":"0.0-17.0","task_version":"test-retest"},{"Rune":"rune_02_raido","Hex":"#3366ff99","Correct":32,"Choice":32,"RT":696.3850000029197,"Accuracy":1,"Outcome":"+10","Keys":[2197.005000009085],"TotalKeys":1,"Block":1,"Trial":11,"Robot":1,"Valence":"Win","Action":"Go","Sham":0,"Color":"blue","trial_type":"pit-trial","trial_index":29,"time_elapsed":316210,"internal_node_id":"0.0-18.0","task_version":"test-retest"},{"Rune":"rune_02_cen","Hex":"#ffcc3399","Correct":-1,"Choice":-1,"RT":-1,"Accuracy":1,"Outcome":"-1","Keys":[],"TotalKeys":0,"Block":1,"Trial":12,"Robot":4,"Valence":"Lose","Action":"No-Go","Sham":0,"Color":"yellow","trial_type":"pit-trial","trial_index":30,"time_elapsed":320221,"internal_node_id":"0.0-19.0","task_version":"test-retest"},{"Rune":"rune_02_cen","Hex":"#ffcc3399","Correct":-1,"Choice":-1,"RT":-1,"Accuracy":1,"Outcome":"-1","Keys":[],"TotalKeys":0,"Block":1,"Trial":13,"Robot":4,"Valence":"Lose","Action":"No-Go","Sham":0,"Color":"yellow","trial_type":"pit-trial","trial_index":31,"time_elapsed":324232,"internal_node_id":"0.0-20.0","task_version":"test-retest"},{"Rune":"rune_02_raido","Hex":"#3366ff99","Correct":32,"Choice":32,"RT":540.3099999966798,"Accuracy":1,"Outcome":"+1","Keys":[2042.9950000107056],"TotalKeys":1,"Block":1,"Trial":14,"Robot":1,"Valence":"Win","Action":"Go","Sham":1,"Color":"blue","trial_type":"pit-trial","trial_index":32,"time_elapsed":327279,"internal_node_id":"0.0-21.0","task_version":"test-retest"},{"Rune":"rune_02_os","Hex":"#ffcc3399","Correct":32,"Choice":32,"RT":935.7799999997951,"Accuracy":1,"Outcome":"-10","Keys":[2436.8650000105845],"TotalKeys":1,"Block":1,"Trial":15,"Robot":3,"Valence":"Lose","Action":"Go","Sham":1,"Color":"yellow","trial_type":"pit-trial","trial_index":33,"time_elapsed":330724,"internal_node_id":"0.0-22.0","task_version":"test-retest"},{"Rune":"rune_02_haglaz","Hex":"#3366ff99","Correct":-1,"Choice":32,"RT":479.81499999877997,"Accuracy":0,"Outcome":"+1","Keys":[1979.9950000015087],"TotalKeys":1,"Block":1,"Trial":16,"Robot":2,"Valence":"Win","Action":"No-Go","Sham":0,"Color":"blue","trial_type":"pit-trial","trial_index":34,"time_elapsed":333710,"internal_node_id":"0.0-23.0","task_version":"test-retest"},{"Rune":"rune_02_raido","Hex":"#3366ff99","Correct":32,"Choice":32,"RT":449.00500000221655,"Accuracy":1,"Outcome":"+10","Keys":[1949.205000011716],"TotalKeys":1,"Block":1,"Trial":17,"Robot":1,"Valence":"Win","Action":"Go","Sham":0,"Color":"blue","trial_type":"pit-trial","trial_index":35,"time_elapsed":336665,"internal_node_id":"0.0-24.0","task_version":"test-retest"},{"Rune":"rune_02_haglaz","Hex":"#3366ff99","Correct":-1,"Choice":32,"RT":440.1450000004843,"Accuracy":0,"Outcome":"+10","Keys":[1940.7800000044517],"TotalKeys":1,"Block":1,"Trial":18,"Robot":2,"Valence":"Win","Action":"No-Go","Sham":1,"Color":"blue","trial_type":"pit-trial","trial_index":36,"time_elapsed":339609,"internal_node_id":"0.0-25.0","task_version":"test-retest"},{"Rune":"rune_02_os","Hex":"#ffcc3399","Correct":32,"Choice":-1,"RT":-1,"Accuracy":0,"Outcome":"-10","Keys":[],"TotalKeys":0,"Block":1,"Trial":19,"Robot":3,"Valence":"Lose","Action":"Go","Sham":0,"Color":"yellow","trial_type":"pit-trial","trial_index":37,"time_elapsed":343614,"internal_node_id":"0.0-26.0","task_version":"test-retest"},{"Rune":"rune_02_cen","Hex":"#ffcc3399","Correct":-1,"Choice":-1,"RT":-1,"Accuracy":1,"Outcome":"-10","Keys":[],"TotalKeys":0,"Block":1,"Trial":20,"Robot":4,"Valence":"Lose","Action":"No-Go","Sham":1,"Color":"yellow","trial_type":"pit-trial","trial_index":38,"time_elapsed":347619,"internal_node_id":"0.0-27.0","task_version":"test-retest"},{"Rune":"rune_02_os","Hex":"#ffcc3399","Correct":32,"Choice":32,"RT":609.1000000014901,"Accuracy":1,"Outcome":"-1","Keys":[2110.4550000018207],"TotalKeys":1,"Block":1,"Trial":21,"Robot":3,"Valence":"Lose","Action":"Go","Sham":0,"Color":"yellow","trial_type":"pit-trial","trial_index":39,"time_elapsed":350737,"internal_node_id":"0.0-28.0","task_version":"test-retest"},{"Rune":"rune_02_raido","Hex":"#3366ff99","Correct":32,"Choice":32,"RT":1050.9500000043772,"Accuracy":1,"Outcome":"+1","Keys":[2552.76999999478],"TotalKeys":1,"Block":1,"Trial":22,"Robot":1,"Valence":"Win","Action":"Go","Sham":1,"Color":"blue","trial_type":"pit-trial","trial_index":40,"time_elapsed":354296,"internal_node_id":"0.0-29.0","task_version":"test-retest"},{"Rune":"rune_02_cen","Hex":"#ffcc3399","Correct":-1,"Choice":-1,"RT":-1,"Accuracy":1,"Outcome":"-1","Keys":[],"TotalKeys":0,"Block":1,"Trial":23,"Robot":4,"Valence":"Lose","Action":"No-Go","Sham":0,"Color":"yellow","trial_type":"pit-trial","trial_index":41,"time_elapsed":358308,"internal_node_id":"0.0-30.0","task_version":"test-retest"},{"Rune":"rune_02_haglaz","Hex":"#3366ff99","Correct":-1,"Choice":32,"RT":514.6300000051269,"Accuracy":0,"Outcome":"+1","Keys":[2014.7199999919394],"TotalKeys":1,"Block":1,"Trial":24,"Robot":2,"Valence":"Win","Action":"No-Go","Sham":0,"Color":"blue","trial_type":"pit-trial","trial_index":42,"time_elapsed":361327,"internal_node_id":"0.0-31.0","task_version":"test-retest"},{"Rune":"rune_02_haglaz","Hex":"#3366ff99","Correct":-1,"Choice":32,"RT":528.1099999992875,"Accuracy":0,"Outcome":"+1","Keys":[2028.5299999959534],"TotalKeys":1,"Block":1,"Trial":25,"Robot":2,"Valence":"Win","Action":"No-Go","Sham":0,"Color":"blue","trial_type":"pit-trial","trial_index":43,"time_elapsed":364362,"internal_node_id":"0.0-32.0","task_version":"test-retest"},{"Rune":"rune_02_raido","Hex":"#3366ff99","Correct":32,"Choice":32,"RT":485.79500000050757,"Accuracy":1,"Outcome":"+10","Keys":[1985.8600000006845],"TotalKeys":1,"Block":1,"Trial":26,"Robot":1,"Valence":"Win","Action":"Go","Sham":0,"Color":"blue","trial_type":"pit-trial","trial_index":44,"time_elapsed":367352,"internal_node_id":"0.0-33.0","task_version":"test-retest"},{"Rune":"rune_02_os","Hex":"#ffcc3399","Correct":32,"Choice":32,"RT":650.3399999928661,"Accuracy":1,"Outcome":"-1","Keys":[2151.7750000057276],"TotalKeys":1,"Block":1,"Trial":27,"Robot":3,"Valence":"Lose","Action":"Go","Sham":0,"Color":"yellow","trial_type":"pit-trial","trial_index":45,"time_elapsed":370510,"internal_node_id":"0.0-34.0","task_version":"test-retest"},{"Rune":"rune_02_cen","Hex":"#ffcc3399","Correct":-1,"Choice":-1,"RT":-1,"Accuracy":1,"Outcome":"-1","Keys":[],"TotalKeys":0,"Block":1,"Trial":28,"Robot":4,"Valence":"Lose","Action":"No-Go","Sham":0,"Color":"yellow","trial_type":"pit-trial","trial_index":46,"time_elapsed":374521,"internal_node_id":"0.0-35.0","task_version":"test-retest"},{"Rune":"rune_02_haglaz","Hex":"#3366ff99","Correct":-1,"Choice":32,"RT":683.4249999956228,"Accuracy":0,"Outcome":"+1","Keys":[2184.8750000062864],"TotalKeys":1,"Block":1,"Trial":29,"Robot":2,"Valence":"Win","Action":"No-Go","Sham":0,"Color":"blue","trial_type":"pit-trial","trial_index":47,"time_elapsed":377714,"internal_node_id":"0.0-36.0","task_version":"test-retest"},{"Rune":"rune_02_raido","Hex":"#3366ff99","Correct":32,"Choice":32,"RT":644.8249999957625,"Accuracy":1,"Outcome":"+10","Keys":[2144.9250000005122],"TotalKeys":1,"Block":1,"Trial":30,"Robot":1,"Valence":"Win","Action":"Go","Sham":0,"Color":"blue","trial_type":"pit-trial","trial_index":48,"time_elapsed":380866,"internal_node_id":"0.0-37.0","task_version":"test-retest"},{"Rune":"rune_02_os","Hex":"#ffcc3399","Correct":32,"Choice":32,"RT":668.8250000006519,"Accuracy":1,"Outcome":"-1","Keys":[2169.43499998888],"TotalKeys":1,"Block":1,"Trial":31,"Robot":3,"Valence":"Lose","Action":"Go","Sham":0,"Color":"yellow","trial_type":"pit-trial","trial_index":49,"time_elapsed":384043,"internal_node_id":"0.0-38.0","task_version":"test-retest"},{"Rune":"rune_02_cen","Hex":"#ffcc3399","Correct":-1,"Choice":-1,"RT":-1,"Accuracy":1,"Outcome":"-1","Keys":[],"TotalKeys":0,"Block":1,"Trial":32,"Robot":4,"Valence":"Lose","Action":"No-Go","Sham":0,"Color":"yellow","trial_type":"pit-trial","trial_index":50,"time_elapsed":388053,"internal_node_id":"0.0-39.0","task_version":"test-retest"},{"Rune":"rune_02_haglaz","Hex":"#3366ff99","Correct":-1,"Choice":-1,"RT":-1,"Accuracy":1,"Outcome":"+1","Keys":[],"TotalKeys":0,"Block":1,"Trial":33,"Robot":2,"Valence":"Win","Action":"No-Go","Sham":1,"Color":"blue","trial_type":"pit-trial","trial_index":51,"time_elapsed":392064,"internal_node_id":"0.0-40.0","task_version":"test-retest"},{"Rune":"rune_02_os","Hex":"#ffcc3399","Correct":32,"Choice":32,"RT":1129.4349999952829,"Accuracy":1,"Outcome":"-10","Keys":[2629.6149999980116],"TotalKeys":1,"Block":1,"Trial":34,"Robot":3,"Valence":"Lose","Action":"Go","Sham":1,"Color":"yellow","trial_type":"pit-trial","trial_index":52,"time_elapsed":395698,"internal_node_id":"0.0-41.0","task_version":"test-retest"},{"Rune":"rune_02_raido","Hex":"#3366ff99","Correct":32,"Choice":32,"RT":520.3649999893969,"Accuracy":1,"Outcome":"+10","Keys":[2020.4799999919487],"TotalKeys":1,"Block":1,"Trial":35,"Robot":1,"Valence":"Win","Action":"Go","Sham":0,"Color":"blue","trial_type":"pit-trial","trial_index":53,"time_elapsed":398726,"internal_node_id":"0.0-42.0","task_version":"test-retest"},{"Rune":"rune_02_cen","Hex":"#ffcc3399","Correct":-1,"Choice":-1,"RT":-1,"Accuracy":1,"Outcome":"-1","Keys":[],"TotalKeys":0,"Block":1,"Trial":36,"Robot":4,"Valence":"Lose","Action":"No-Go","Sham":0,"Color":"yellow","trial_type":"pit-trial","trial_index":54,"time_elapsed":402734,"internal_node_id":"0.0-43.0","task_version":"test-retest"},{"Rune":"rune_02_os","Hex":"#ffcc3399","Correct":32,"Choice":-1,"RT":-1,"Accuracy":0,"Outcome":"-10","Keys":[],"TotalKeys":0,"Block":1,"Trial":37,"Robot":3,"Valence":"Lose","Action":"Go","Sham":0,"Color":"yellow","trial_type":"pit-trial","trial_index":55,"time_elapsed":406746,"internal_node_id":"0.0-44.0","task_version":"test-retest"},{"Rune":"rune_02_cen","Hex":"#ffcc3399","Correct":-1,"Choice":-1,"RT":-1,"Accuracy":1,"Outcome":"-10","Keys":[3072.214999992866],"TotalKeys":1,"Block":1,"Trial":38,"Robot":4,"Valence":"Lose","Action":"No-Go","Sham":1,"Color":"yellow","trial_type":"pit-trial","trial_index":56,"time_elapsed":410755,"internal_node_id":"0.0-45.0","task_version":"test-retest"},{"Rune":"rune_02_haglaz","Hex":"#3366ff99","Correct":-1,"Choice":-1,"RT":-1,"Accuracy":1,"Outcome":"+10","Keys":[],"TotalKeys":0,"Block":1,"Trial":39,"Robot":2,"Valence":"Win","Action":"No-Go","Sham":0,"Color":"blue","trial_type":"pit-trial","trial_index":57,"time_elapsed":414762,"internal_node_id":"0.0-46.0","task_version":"test-retest"},{"Rune":"rune_02_raido","Hex":"#3366ff99","Correct":32,"Choice":32,"RT":463.13499999814667,"Accuracy":1,"Outcome":"+10","Keys":[1963.2500000006985],"TotalKeys":1,"Block":1,"Trial":40,"Robot":1,"Valence":"Win","Action":"Go","Sham":0,"Color":"blue","trial_type":"pit-trial","trial_index":58,"time_elapsed":417729,"internal_node_id":"0.0-47.0","task_version":"test-retest"},{"Rune":"rune_02_cen","Hex":"#ffcc3399","Correct":-1,"Choice":32,"RT":1096.289999986766,"Accuracy":0,"Outcome":"-1","Keys":[2596.495000005234],"TotalKeys":1,"Block":1,"Trial":41,"Robot":4,"Valence":"Lose","Action":"No-Go","Sham":1,"Color":"yellow","trial_type":"pit-trial","trial_index":59,"time_elapsed":421330,"internal_node_id":"0.0-48.0","task_version":"test-retest"},{"Rune":"rune_02_os","Hex":"#ffcc3399","Correct":32,"Choice":-1,"RT":-1,"Accuracy":0,"Outcome":"-10","Keys":[],"TotalKeys":0,"Block":1,"Trial":42,"Robot":3,"Valence":"Lose","Action":"Go","Sham":0,"Color":"yellow","trial_type":"pit-trial","trial_index":60,"time_elapsed":425340,"internal_node_id":"0.0-49.0","task_version":"test-retest"},{"Rune":"rune_02_raido","Hex":"#3366ff99","Correct":32,"Choice":32,"RT":558.4499999968102,"Accuracy":1,"Outcome":"+10","Keys":[2060.1299999980256],"TotalKeys":1,"Block":1,"Trial":43,"Robot":1,"Valence":"Win","Action":"Go","Sham":0,"Color":"blue","trial_type":"pit-trial","trial_index":61,"time_elapsed":428408,"internal_node_id":"0.0-50.0","task_version":"test-retest"},{"Rune":"rune_02_haglaz","Hex":"#3366ff99","Correct":-1,"Choice":32,"RT":630.010000008042,"Accuracy":0,"Outcome":"+1","Keys":[2131.9300000031944],"TotalKeys":1,"Block":1,"Trial":44,"Robot":2,"Valence":"Win","Action":"No-Go","Sham":0,"Color":"blue","trial_type":"pit-trial","trial_index":62,"time_elapsed":431545,"internal_node_id":"0.0-51.0","task_version":"test-retest"},{"Rune":"rune_02_haglaz","Hex":"#3366ff99","Correct":-1,"Choice":-1,"RT":-1,"Accuracy":1,"Outcome":"+10","Keys":[],"TotalKeys":0,"Block":1,"Trial":45,"Robot":2,"Valence":"Win","Action":"No-Go","Sham":0,"Color":"blue","trial_type":"pit-trial","trial_index":63,"time_elapsed":435551,"internal_node_id":"0.0-52.0","task_version":"test-retest"},{"Rune":"rune_02_cen","Hex":"#ffcc3399","Correct":-1,"Choice":32,"RT":754.4400000042515,"Accuracy":0,"Outcome":"-10","Keys":[2254.644999993616],"TotalKeys":1,"Block":1,"Trial":46,"Robot":4,"Valence":"Lose","Action":"No-Go","Sham":0,"Color":"yellow","trial_type":"pit-trial","trial_index":64,"time_elapsed":438813,"internal_node_id":"0.0-53.0","task_version":"test-retest"},{"Rune":"rune_02_os","Hex":"#ffcc3399","Correct":32,"Choice":32,"RT":881.6699999879347,"Accuracy":1,"Outcome":"-1","Keys":[2382.209999996121],"TotalKeys":1,"Block":1,"Trial":47,"Robot":3,"Valence":"Lose","Action":"Go","Sham":0,"Color":"yellow","trial_type":"pit-trial","trial_index":65,"time_elapsed":442202,"internal_node_id":"0.0-54.0","task_version":"test-retest"},{"Rune":"rune_02_raido","Hex":"#3366ff99","Correct":32,"Choice":32,"RT":542.7700000000186,"Accuracy":1,"Outcome":"+10","Keys":[2042.8850000025705],"TotalKeys":1,"Block":1,"Trial":48,"Robot":1,"Valence":"Win","Action":"Go","Sham":0,"Color":"blue","trial_type":"pit-trial","trial_index":66,"time_elapsed":445253,"internal_node_id":"0.0-55.0","task_version":"test-retest"},{"Rune":"rune_02_cen","Hex":"#ffcc3399","Correct":-1,"Choice":-1,"RT":-1,"Accuracy":1,"Outcome":"-1","Keys":[],"TotalKeys":0,"Block":1,"Trial":49,"Robot":4,"Valence":"Lose","Action":"No-Go","Sham":0,"Color":"yellow","trial_type":"pit-trial","trial_index":67,"time_elapsed":449263,"internal_node_id":"0.0-56.0","task_version":"test-retest"},{"Rune":"rune_02_os","Hex":"#ffcc3399","Correct":32,"Choice":32,"RT":1416.4750000054482,"Accuracy":1,"Outcome":"-1","Keys":[2917.060000007041],"TotalKeys":1,"Block":1,"Trial":50,"Robot":3,"Valence":"Lose","Action":"Go","Sham":0,"Color":"yellow","trial_type":"pit-trial","trial_index":68,"time_elapsed":453191,"internal_node_id":"0.0-57.0","task_version":"test-retest"},{"Rune":"rune_02_haglaz","Hex":"#3366ff99","Correct":-1,"Choice":-1,"RT":-1,"Accuracy":1,"Outcome":"+10","Keys":[],"TotalKeys":0,"Block":1,"Trial":51,"Robot":2,"Valence":"Win","Action":"No-Go","Sham":0,"Color":"blue","trial_type":"pit-trial","trial_index":69,"time_elapsed":457200,"internal_node_id":"0.0-58.0","task_version":"test-retest"},{"Rune":"rune_02_raido","Hex":"#3366ff99","Correct":32,"Choice":32,"RT":414.03500000888016,"Accuracy":1,"Outcome":"+10","Keys":[1915.3150000056485],"TotalKeys":1,"Block":1,"Trial":52,"Robot":1,"Valence":"Win","Action":"Go","Sham":0,"Color":"blue","trial_type":"pit-trial","trial_index":70,"time_elapsed":460118,"internal_node_id":"0.0-59.0","task_version":"test-retest"},{"Rune":"rune_02_cen","Hex":"#ffcc3399","Correct":-1,"Choice":32,"RT":612.9999999975553,"Accuracy":0,"Outcome":"-10","Keys":[2113.2549999892944],"TotalKeys":1,"Block":1,"Trial":53,"Robot":4,"Valence":"Lose","Action":"No-Go","Sham":0,"Color":"yellow","trial_type":"pit-trial","trial_index":71,"time_elapsed":463239,"internal_node_id":"0.0-60.0","task_version":"test-retest"},{"Rune":"rune_02_raido","Hex":"#3366ff99","Correct":32,"Choice":32,"RT":482.60999999183696,"Accuracy":1,"Outcome":"+1","Keys":[1983.2800000003772],"TotalKeys":1,"Block":1,"Trial":54,"Robot":1,"Valence":"Win","Action":"Go","Sham":1,"Color":"blue","trial_type":"pit-trial","trial_index":72,"time_elapsed":466230,"internal_node_id":"0.0-61.0","task_version":"test-retest"},{"Rune":"rune_02_haglaz","Hex":"#3366ff99","Correct":-1,"Choice":-1,"RT":-1,"Accuracy":1,"Outcome":"+1","Keys":[],"TotalKeys":0,"Block":1,"Trial":55,"Robot":2,"Valence":"Win","Action":"No-Go","Sham":1,"Color":"blue","trial_type":"pit-trial","trial_index":73,"time_elapsed":470243,"internal_node_id":"0.0-62.0","task_version":"test-retest"},{"Rune":"rune_02_os","Hex":"#ffcc3399","Correct":32,"Choice":32,"RT":1046.9100000045728,"Accuracy":1,"Outcome":"-1","Keys":[2547.7050000044983],"TotalKeys":1,"Block":1,"Trial":56,"Robot":3,"Valence":"Lose","Action":"Go","Sham":0,"Color":"yellow","trial_type":"pit-trial","trial_index":74,"time_elapsed":473798,"internal_node_id":"0.0-63.0","task_version":"test-retest"},{"Rune":"rune_02_os","Hex":"#ffcc3399","Correct":32,"Choice":32,"RT":803.0100000032689,"Accuracy":1,"Outcome":"-10","Keys":[2308.4749999979977],"TotalKeys":1,"Block":1,"Trial":57,"Robot":3,"Valence":"Lose","Action":"Go","Sham":1,"Color":"yellow","trial_type":"pit-trial","trial_index":75,"time_elapsed":477110,"internal_node_id":"0.0-64.0","task_version":"test-retest"},{"Rune":"rune_02_cen","Hex":"#ffcc3399","Correct":-1,"Choice":-1,"RT":-1,"Accuracy":1,"Outcome":"-1","Keys":[],"TotalKeys":0,"Block":1,"Trial":58,"Robot":4,"Valence":"Lose","Action":"No-Go","Sham":0,"Color":"yellow","trial_type":"pit-trial","trial_index":76,"time_elapsed":481118,"internal_node_id":"0.0-65.0","task_version":"test-retest"},{"Rune":"rune_02_haglaz","Hex":"#3366ff99","Correct":-1,"Choice":-1,"RT":-1,"Accuracy":1,"Outcome":"+10","Keys":[],"TotalKeys":0,"Block":1,"Trial":59,"Robot":2,"Valence":"Win","Action":"No-Go","Sham":0,"Color":"blue","trial_type":"pit-trial","trial_index":77,"time_elapsed":485125,"internal_node_id":"0.0-66.0","task_version":"test-retest"},{"Rune":"rune_02_raido","Hex":"#3366ff99","Correct":32,"Choice":32,"RT":631.8050000118092,"Accuracy":1,"Outcome":"+10","Keys":[2131.934999997611],"TotalKeys":1,"Block":1,"Trial":60,"Robot":1,"Valence":"Win","Action":"Go","Sham":0,"Color":"blue","trial_type":"pit-trial","trial_index":78,"time_elapsed":488264,"internal_node_id":"0.0-67.0","task_version":"test-retest"},{"value":false,"trial_type":"call-function","trial_index":79,"time_elapsed":488267,"internal_node_id":"0.0-68.0","task_version":"test-retest"},{"view_history":"[{\"page_index\":0,\"viewing_time\":31301.014999990002},{\"page_index\":1,\"viewing_time\":1864.9200000072597}]","rt":33166.81999999855,"trial_type":"pit-instructions","trial_index":80,"time_elapsed":521437,"internal_node_id":"0.0-69.0","task_version":"test-retest"},{"Rune":"rune_02_os","Hex":"#ffcc3399","Correct":32,"Choice":32,"RT":563.0600000004051,"Accuracy":1,"Outcome":"-1","Keys":[2063.3600000001024],"TotalKeys":1,"Block":1,"Trial":61,"Robot":3,"Valence":"Lose","Action":"Go","Sham":0,"Color":"yellow","trial_type":"pit-trial","trial_index":81,"time_elapsed":524511,"internal_node_id":"0.0-70.0","task_version":"test-retest"},{"Rune":"rune_02_haglaz","Hex":"#3366ff99","Correct":-1,"Choice":-1,"RT":-1,"Accuracy":1,"Outcome":"+1","Keys":[],"TotalKeys":0,"Block":1,"Trial":62,"Robot":2,"Valence":"Win","Action":"No-Go","Sham":1,"Color":"blue","trial_type":"pit-trial","trial_index":82,"time_elapsed":528517,"internal_node_id":"0.0-71.0","task_version":"test-retest"},{"Rune":"rune_02_raido","Hex":"#3366ff99","Correct":32,"Choice":32,"RT":454.6950000076322,"Accuracy":1,"Outcome":"+1","Keys":[1957.07499999844],"TotalKeys":1,"Block":1,"Trial":63,"Robot":1,"Valence":"Win","Action":"Go","Sham":1,"Color":"blue","trial_type":"pit-trial","trial_index":83,"time_elapsed":531477,"internal_node_id":"0.0-72.0","task_version":"test-retest"},{"Rune":"rune_02_cen","Hex":"#ffcc3399","Correct":-1,"Choice":-1,"RT":-1,"Accuracy":1,"Outcome":"-1","Keys":[],"TotalKeys":0,"Block":1,"Trial":64,"Robot":4,"Valence":"Lose","Action":"No-Go","Sham":0,"Color":"yellow","trial_type":"pit-trial","trial_index":84,"time_elapsed":535486,"internal_node_id":"0.0-73.0","task_version":"test-retest"},{"Rune":"rune_02_cen","Hex":"#ffcc3399","Correct":-1,"Choice":32,"RT":737.0450000016717,"Accuracy":0,"Outcome":"-10","Keys":[2239.320000007865],"TotalKeys":1,"Block":1,"Trial":65,"Robot":4,"Valence":"Lose","Action":"No-Go","Sham":0,"Color":"yellow","trial_type":"pit-trial","trial_index":85,"time_elapsed":538732,"internal_node_id":"0.0-74.0","task_version":"test-retest"},{"Rune":"rune_02_haglaz","Hex":"#3366ff99","Correct":-1,"Choice":-1,"RT":-1,"Accuracy":1,"Outcome":"+10","Keys":[],"TotalKeys":0,"Block":1,"Trial":66,"Robot":2,"Valence":"Win","Action":"No-Go","Sham":0,"Color":"blue","trial_type":"pit-trial","trial_index":86,"time_elapsed":542745,"internal_node_id":"0.0-75.0","task_version":"test-retest"},{"Rune":"rune_02_os","Hex":"#ffcc3399","Correct":32,"Choice":32,"RT":504.63999999919906,"Accuracy":1,"Outcome":"-1","Keys":[2004.7150000027614],"TotalKeys":1,"Block":1,"Trial":67,"Robot":3,"Valence":"Lose","Action":"Go","Sham":0,"Color":"yellow","trial_type":"pit-trial","trial_index":87,"time_elapsed":545754,"internal_node_id":"0.0-76.0","task_version":"test-retest"},{"Rune":"rune_02_raido","Hex":"#3366ff99","Correct":32,"Choice":32,"RT":403.0800000036834,"Accuracy":1,"Outcome":"+10","Keys":[1905.19000000495],"TotalKeys":1,"Block":1,"Trial":68,"Robot":1,"Valence":"Win","Action":"Go","Sham":0,"Color":"blue","trial_type":"pit-trial","trial_index":88,"time_elapsed":548664,"internal_node_id":"0.0-77.0","task_version":"test-retest"},{"Rune":"rune_02_haglaz","Hex":"#3366ff99","Correct":-1,"Choice":-1,"RT":-1,"Accuracy":1,"Outcome":"+10","Keys":[],"TotalKeys":0,"Block":1,"Trial":69,"Robot":2,"Valence":"Win","Action":"No-Go","Sham":0,"Color":"blue","trial_type":"pit-trial","trial_index":89,"time_elapsed":552676,"internal_node_id":"0.0-78.0","task_version":"test-retest"},{"Rune":"rune_02_raido","Hex":"#3366ff99","Correct":32,"Choice":32,"RT":479.2050000105519,"Accuracy":1,"Outcome":"+10","Keys":[1980.215000003227],"TotalKeys":1,"Block":1,"Trial":70,"Robot":1,"Valence":"Win","Action":"Go","Sham":0,"Color":"blue","trial_type":"pit-trial","trial_index":90,"time_elapsed":555662,"internal_node_id":"0.0-79.0","task_version":"test-retest"},{"Rune":"rune_02_cen","Hex":"#ffcc3399","Correct":-1,"Choice":-1,"RT":-1,"Accuracy":1,"Outcome":"-10","Keys":[],"TotalKeys":0,"Block":1,"Trial":71,"Robot":4,"Valence":"Lose","Action":"No-Go","Sham":1,"Color":"yellow","trial_type":"pit-trial","trial_index":91,"time_elapsed":559675,"internal_node_id":"0.0-80.0","task_version":"test-retest"},{"Rune":"rune_02_os","Hex":"#ffcc3399","Correct":32,"Choice":32,"RT":536.6950000025099,"Accuracy":1,"Outcome":"-1","Keys":[2038.5149999929126],"TotalKeys":1,"Block":1,"Trial":72,"Robot":3,"Valence":"Lose","Action":"Go","Sham":0,"Color":"yellow","trial_type":"pit-trial","trial_index":92,"time_elapsed":562720,"internal_node_id":"0.0-81.0","task_version":"test-retest"},{"Rune":"rune_02_haglaz","Hex":"#3366ff99","Correct":-1,"Choice":32,"RT":1013.1299999920884,"Accuracy":0,"Outcome":"+1","Keys":[2515.5349999986356],"TotalKeys":1,"Block":1,"Trial":73,"Robot":2,"Valence":"Win","Action":"No-Go","Sham":0,"Color":"blue","trial_type":"pit-trial","trial_index":93,"time_elapsed":566242,"internal_node_id":"0.0-82.0","task_version":"test-retest"},{"Rune":"rune_02_raido","Hex":"#3366ff99","Correct":32,"Choice":32,"RT":409.2899999959627,"Accuracy":1,"Outcome":"+10","Keys":[1911.9000000064261],"TotalKeys":1,"Block":1,"Trial":74,"Robot":1,"Valence":"Win","Action":"Go","Sham":0,"Color":"blue","trial_type":"pit-trial","trial_index":94,"time_elapsed":569162,"internal_node_id":"0.0-83.0","task_version":"test-retest"},{"Rune":"rune_02_cen","Hex":"#ffcc3399","Correct":-1,"Choice":32,"RT":561.4300000015646,"Accuracy":0,"Outcome":"-10","Keys":[2061.50000001071],"TotalKeys":1,"Block":1,"Trial":75,"Robot":4,"Valence":"Lose","Action":"No-Go","Sham":0,"Color":"yellow","trial_type":"pit-trial","trial_index":95,"time_elapsed":572231,"internal_node_id":"0.0-84.0","task_version":"test-retest"},{"Rune":"rune_02_os","Hex":"#ffcc3399","Correct":32,"Choice":32,"RT":547.7950000058627,"Accuracy":1,"Outcome":"-10","Keys":[2048.3600000006845],"TotalKeys":1,"Block":1,"Trial":76,"Robot":3,"Valence":"Lose","Action":"Go","Sham":1,"Color":"yellow","trial_type":"pit-trial","trial_index":96,"time_elapsed":575287,"internal_node_id":"0.0-85.0","task_version":"test-retest"},{"Rune":"rune_02_os","Hex":"#ffcc3399","Correct":32,"Choice":32,"RT":564.5499999955064,"Accuracy":1,"Outcome":"-1","Keys":[2065.0900000036927],"TotalKeys":1,"Block":1,"Trial":77,"Robot":3,"Valence":"Lose","Action":"Go","Sham":0,"Color":"yellow","trial_type":"pit-trial","trial_index":97,"time_elapsed":578360,"internal_node_id":"0.0-86.0","task_version":"test-retest"},{"Rune":"rune_02_raido","Hex":"#3366ff99","Correct":32,"Choice":32,"RT":297.3700000002282,"Accuracy":1,"Outcome":"+10","Keys":[1798.110000003362],"TotalKeys":1,"Block":1,"Trial":78,"Robot":1,"Valence":"Win","Action":"Go","Sham":0,"Color":"blue","trial_type":"pit-trial","trial_index":98,"time_elapsed":581162,"internal_node_id":"0.0-87.0","task_version":"test-retest"},{"Rune":"rune_02_cen","Hex":"#ffcc3399","Correct":-1,"Choice":-1,"RT":-1,"Accuracy":1,"Outcome":"-1","Keys":[],"TotalKeys":0,"Block":1,"Trial":79,"Robot":4,"Valence":"Lose","Action":"No-Go","Sham":0,"Color":"yellow","trial_type":"pit-trial","trial_index":99,"time_elapsed":585170,"internal_node_id":"0.0-88.0","task_version":"test-retest"},{"Rune":"rune_02_haglaz","Hex":"#3366ff99","Correct":-1,"Choice":-1,"RT":-1,"Accuracy":1,"Outcome":"+10","Keys":[],"TotalKeys":0,"Block":1,"Trial":80,"Robot":2,"Valence":"Win","Action":"No-Go","Sham":0,"Color":"blue","trial_type":"pit-trial","trial_index":100,"time_elapsed":589178,"internal_node_id":"0.0-89.0","task_version":"test-retest"},{"Rune":"rune_02_cen","Hex":"#ffcc3399","Correct":-1,"Choice":32,"RT":1263.0299999873387,"Accuracy":0,"Outcome":"-10","Keys":[2764.374999998836],"TotalKeys":1,"Block":1,"Trial":81,"Robot":4,"Valence":"Lose","Action":"No-Go","Sham":0,"Color":"yellow","trial_type":"pit-trial","trial_index":101,"time_elapsed":592951,"internal_node_id":"0.0-90.0","task_version":"test-retest"},{"Rune":"rune_02_haglaz","Hex":"#3366ff99","Correct":-1,"Choice":-1,"RT":-1,"Accuracy":1,"Outcome":"+10","Keys":[],"TotalKeys":0,"Block":1,"Trial":82,"Robot":2,"Valence":"Win","Action":"No-Go","Sham":0,"Color":"blue","trial_type":"pit-trial","trial_index":102,"time_elapsed":596963,"internal_node_id":"0.0-91.0","task_version":"test-retest"},{"Rune":"rune_02_os","Hex":"#ffcc3399","Correct":32,"Choice":-1,"RT":-1,"Accuracy":0,"Outcome":"-10","Keys":[],"TotalKeys":0,"Block":1,"Trial":83,"Robot":3,"Valence":"Lose","Action":"Go","Sham":0,"Color":"yellow","trial_type":"pit-trial","trial_index":103,"time_elapsed":600975,"internal_node_id":"0.0-92.0","task_version":"test-retest"},{"Rune":"rune_02_raido","Hex":"#3366ff99","Correct":32,"Choice":32,"RT":415.0799999915762,"Accuracy":1,"Outcome":"+10","Keys":[1916.42999999749],"TotalKeys":1,"Block":1,"Trial":84,"Robot":1,"Valence":"Win","Action":"Go","Sham":0,"Color":"blue","trial_type":"pit-trial","trial_index":104,"time_elapsed":603900,"internal_node_id":"0.0-93.0","task_version":"test-retest"},{"Rune":"rune_02_os","Hex":"#ffcc3399","Correct":32,"Choice":32,"RT":1057.409999993979,"Accuracy":1,"Outcome":"-1","Keys":[2557.77999998827],"TotalKeys":1,"Block":1,"Trial":85,"Robot":3,"Valence":"Lose","Action":"Go","Sham":0,"Color":"yellow","trial_type":"pit-trial","trial_index":105,"time_elapsed":607466,"internal_node_id":"0.0-94.0","task_version":"test-retest"},{"Rune":"rune_02_haglaz","Hex":"#3366ff99","Correct":-1,"Choice":-1,"RT":-1,"Accuracy":1,"Outcome":"+10","Keys":[],"TotalKeys":0,"Block":1,"Trial":86,"Robot":2,"Valence":"Win","Action":"No-Go","Sham":0,"Color":"blue","trial_type":"pit-trial","trial_index":106,"time_elapsed":611476,"internal_node_id":"0.0-95.0","task_version":"test-retest"},{"Rune":"rune_02_raido","Hex":"#3366ff99","Correct":32,"Choice":32,"RT":456.34000000427477,"Accuracy":1,"Outcome":"+10","Keys":[1957.51000000746],"TotalKeys":1,"Block":1,"Trial":87,"Robot":1,"Valence":"Win","Action":"Go","Sham":0,"Color":"blue","trial_type":"pit-trial","trial_index":107,"time_elapsed":614439,"internal_node_id":"0.0-96.0","task_version":"test-retest"},{"Rune":"rune_02_cen","Hex":"#ffcc3399","Correct":-1,"Choice":32,"RT":924.8349999979837,"Accuracy":0,"Outcome":"-10","Keys":[2425.0299999985145],"TotalKeys":1,"Block":1,"Trial":88,"Robot":4,"Valence":"Lose","Action":"No-Go","Sham":0,"Color":"yellow","trial_type":"pit-trial","trial_index":108,"time_elapsed":617868,"internal_node_id":"0.0-97.0","task_version":"test-retest"},{"Rune":"rune_02_haglaz","Hex":"#3366ff99","Correct":-1,"Choice":-1,"RT":-1,"Accuracy":1,"Outcome":"+10","Keys":[],"TotalKeys":0,"Block":1,"Trial":89,"Robot":2,"Valence":"Win","Action":"No-Go","Sham":0,"Color":"blue","trial_type":"pit-trial","trial_index":109,"time_elapsed":621879,"internal_node_id":"0.0-98.0","task_version":"test-retest"},{"Rune":"rune_02_cen","Hex":"#ffcc3399","Correct":-1,"Choice":-1,"RT":-1,"Accuracy":1,"Outcome":"-1","Keys":[],"TotalKeys":0,"Block":1,"Trial":90,"Robot":4,"Valence":"Lose","Action":"No-Go","Sham":0,"Color":"yellow","trial_type":"pit-trial","trial_index":110,"time_elapsed":625890,"internal_node_id":"0.0-99.0","task_version":"test-retest"},{"Rune":"rune_02_os","Hex":"#ffcc3399","Correct":32,"Choice":32,"RT":1008.0350000062026,"Accuracy":1,"Outcome":"-10","Keys":[2509.349999992992],"TotalKeys":1,"Block":1,"Trial":91,"Robot":3,"Valence":"Lose","Action":"Go","Sham":1,"Color":"yellow","trial_type":"pit-trial","trial_index":111,"time_elapsed":629408,"internal_node_id":"0.0-100.0","task_version":"test-retest"},{"Rune":"rune_02_raido","Hex":"#3366ff99","Correct":32,"Choice":32,"RT":391.35499999974854,"Accuracy":1,"Outcome":"+1","Keys":[1891.8649999977788],"TotalKeys":1,"Block":1,"Trial":92,"Robot":1,"Valence":"Win","Action":"Go","Sham":1,"Color":"blue","trial_type":"pit-trial","trial_index":112,"time_elapsed":632308,"internal_node_id":"0.0-101.0","task_version":"test-retest"},{"Rune":"rune_02_cen","Hex":"#ffcc3399","Correct":-1,"Choice":-1,"RT":-1,"Accuracy":1,"Outcome":"-10","Keys":[],"TotalKeys":0,"Block":1,"Trial":93,"Robot":4,"Valence":"Lose","Action":"No-Go","Sham":1,"Color":"yellow","trial_type":"pit-trial","trial_index":113,"time_elapsed":636317,"internal_node_id":"0.0-102.0","task_version":"test-retest"},{"Rune":"rune_02_os","Hex":"#ffcc3399","Correct":32,"Choice":-1,"RT":-1,"Accuracy":0,"Outcome":"-10","Keys":[],"TotalKeys":0,"Block":1,"Trial":94,"Robot":3,"Valence":"Lose","Action":"Go","Sham":0,"Color":"yellow","trial_type":"pit-trial","trial_index":114,"time_elapsed":640325,"internal_node_id":"0.0-103.0","task_version":"test-retest"},{"Rune":"rune_02_haglaz","Hex":"#3366ff99","Correct":-1,"Choice":-1,"RT":-1,"Accuracy":1,"Outcome":"+10","Keys":[],"TotalKeys":0,"Block":1,"Trial":95,"Robot":2,"Valence":"Win","Action":"No-Go","Sham":0,"Color":"blue","trial_type":"pit-trial","trial_index":115,"time_elapsed":644334,"internal_node_id":"0.0-104.0","task_version":"test-retest"},{"Rune":"rune_02_raido","Hex":"#3366ff99","Correct":32,"Choice":32,"RT":476.345000002766,"Accuracy":1,"Outcome":"+10","Keys":[1977.2499999962747],"TotalKeys":1,"Block":1,"Trial":96,"Robot":1,"Valence":"Win","Action":"Go","Sham":0,"Color":"blue","trial_type":"pit-trial","trial_index":116,"time_elapsed":647318,"internal_node_id":"0.0-105.0","task_version":"test-retest"},{"Rune":"rune_02_raido","Hex":"#3366ff99","Correct":32,"Choice":32,"RT":592.1550000057323,"Accuracy":1,"Outcome":"+10","Keys":[2095.08499999356],"TotalKeys":1,"Block":1,"Trial":97,"Robot":1,"Valence":"Win","Action":"Go","Sham":0,"Color":"blue","trial_type":"pit-trial","trial_index":117,"time_elapsed":650419,"internal_node_id":"0.0-106.0","task_version":"test-retest"},{"Rune":"rune_02_cen","Hex":"#ffcc3399","Correct":-1,"Choice":-1,"RT":-1,"Accuracy":1,"Outcome":"-1","Keys":[],"TotalKeys":0,"Block":1,"Trial":98,"Robot":4,"Valence":"Lose","Action":"No-Go","Sham":0,"Color":"yellow","trial_type":"pit-trial","trial_index":118,"time_elapsed":654429,"internal_node_id":"0.0-107.0","task_version":"test-retest"},{"Rune":"rune_02_haglaz","Hex":"#3366ff99","Correct":-1,"Choice":32,"RT":725.7700000045588,"Accuracy":0,"Outcome":"+10","Keys":[2228.0849999951897],"TotalKeys":1,"Block":1,"Trial":99,"Robot":2,"Valence":"Win","Action":"No-Go","Sham":1,"Color":"blue","trial_type":"pit-trial","trial_index":119,"time_elapsed":657661,"internal_node_id":"0.0-108.0","task_version":"test-retest"},{"Rune":"rune_02_os","Hex":"#ffcc3399","Correct":32,"Choice":-1,"RT":-1,"Accuracy":0,"Outcome":"-10","Keys":[],"TotalKeys":0,"Block":1,"Trial":100,"Robot":3,"Valence":"Lose","Action":"Go","Sham":0,"Color":"yellow","trial_type":"pit-trial","trial_index":120,"time_elapsed":661667,"internal_node_id":"0.0-109.0","task_version":"test-retest"},{"Rune":"rune_02_haglaz","Hex":"#3366ff99","Correct":-1,"Choice":32,"RT":801.4400000101887,"Accuracy":0,"Outcome":"+1","Keys":[2302.2800000035204],"TotalKeys":1,"Block":1,"Trial":101,"Robot":2,"Valence":"Win","Action":"No-Go","Sham":0,"Color":"blue","trial_type":"pit-trial","trial_index":121,"time_elapsed":664977,"internal_node_id":"0.0-110.0","task_version":"test-retest"},{"Rune":"rune_02_cen","Hex":"#ffcc3399","Correct":-1,"Choice":-1,"RT":-1,"Accuracy":1,"Outcome":"-10","Keys":[],"TotalKeys":0,"Block":1,"Trial":102,"Robot":4,"Valence":"Lose","Action":"No-Go","Sham":1,"Color":"yellow","trial_type":"pit-trial","trial_index":122,"time_elapsed":668989,"internal_node_id":"0.0-111.0","task_version":"test-retest"},{"Rune":"rune_02_raido","Hex":"#3366ff99","Correct":32,"Choice":32,"RT":428.7999999942258,"Accuracy":1,"Outcome":"+10","Keys":[1929.3299999990268],"TotalKeys":1,"Block":1,"Trial":103,"Robot":1,"Valence":"Win","Action":"Go","Sham":0,"Color":"blue","trial_type":"pit-trial","trial_index":123,"time_elapsed":671926,"internal_node_id":"0.0-112.0","task_version":"test-retest"},{"Rune":"rune_02_os","Hex":"#ffcc3399","Correct":32,"Choice":-1,"RT":-1,"Accuracy":0,"Outcome":"-1","Keys":[],"TotalKeys":0,"Block":1,"Trial":104,"Robot":3,"Valence":"Lose","Action":"Go","Sham":1,"Color":"yellow","trial_type":"pit-trial","trial_index":124,"time_elapsed":675937,"internal_node_id":"0.0-113.0","task_version":"test-retest"},{"Rune":"rune_02_os","Hex":"#ffcc3399","Correct":32,"Choice":-1,"RT":-1,"Accuracy":0,"Outcome":"-10","Keys":[],"TotalKeys":0,"Block":1,"Trial":105,"Robot":3,"Valence":"Lose","Action":"Go","Sham":0,"Color":"yellow","trial_type":"pit-trial","trial_index":125,"time_elapsed":679948,"internal_node_id":"0.0-114.0","task_version":"test-retest"},{"Rune":"rune_02_haglaz","Hex":"#3366ff99","Correct":-1,"Choice":-1,"RT":-1,"Accuracy":1,"Outcome":"+10","Keys":[],"TotalKeys":0,"Block":1,"Trial":106,"Robot":2,"Valence":"Win","Action":"No-Go","Sham":0,"Color":"blue","trial_type":"pit-trial","trial_index":126,"time_elapsed":683960,"internal_node_id":"0.0-115.0","task_version":"test-retest"},{"Rune":"rune_02_raido","Hex":"#3366ff99","Correct":32,"Choice":32,"RT":488.88499999884516,"Accuracy":1,"Outcome":"+10","Keys":[1989.2350000009174],"TotalKeys":1,"Block":1,"Trial":107,"Robot":1,"Valence":"Win","Action":"Go","Sham":0,"Color":"blue","trial_type":"pit-trial","trial_index":127,"time_elapsed":686955,"internal_node_id":"0.0-116.0","task_version":"test-retest"},{"Rune":"rune_02_cen","Hex":"#ffcc3399","Correct":-1,"Choice":32,"RT":495.1549999968847,"Accuracy":0,"Outcome":"-10","Keys":[1995.4150000121444],"TotalKeys":1,"Block":1,"Trial":108,"Robot":4,"Valence":"Lose","Action":"No-Go","Sham":0,"Color":"yellow","trial_type":"pit-trial","trial_index":128,"time_elapsed":689960,"internal_node_id":"0.0-117.0","task_version":"test-retest"},{"Rune":"rune_02_haglaz","Hex":"#3366ff99","Correct":-1,"Choice":-1,"RT":-1,"Accuracy":1,"Outcome":"+1","Keys":[],"TotalKeys":0,"Block":1,"Trial":109,"Robot":2,"Valence":"Win","Action":"No-Go","Sham":1,"Color":"blue","trial_type":"pit-trial","trial_index":129,"time_elapsed":693967,"internal_node_id":"0.0-118.0","task_version":"test-retest"},{"Rune":"rune_02_os","Hex":"#ffcc3399","Correct":32,"Choice":-1,"RT":-1,"Accuracy":0,"Outcome":"-10","Keys":[],"TotalKeys":0,"Block":1,"Trial":110,"Robot":3,"Valence":"Lose","Action":"Go","Sham":0,"Color":"yellow","trial_type":"pit-trial","trial_index":130,"time_elapsed":697979,"internal_node_id":"0.0-119.0","task_version":"test-retest"},{"Rune":"rune_02_cen","Hex":"#ffcc3399","Correct":-1,"Choice":32,"RT":520.6100000068545,"Accuracy":0,"Outcome":"-10","Keys":[2020.7249999948544],"TotalKeys":1,"Block":1,"Trial":111,"Robot":4,"Valence":"Lose","Action":"No-Go","Sham":0,"Color":"yellow","trial_type":"pit-trial","trial_index":131,"time_elapsed":701003,"internal_node_id":"0.0-120.0","task_version":"test-retest"},{"Rune":"rune_02_raido","Hex":"#3366ff99","Correct":32,"Choice":32,"RT":350.8750000037253,"Accuracy":1,"Outcome":"+1","Keys":[1852.230000004056],"TotalKeys":1,"Block":1,"Trial":112,"Robot":1,"Valence":"Win","Action":"Go","Sham":1,"Color":"blue","trial_type":"pit-trial","trial_index":132,"time_elapsed":703860,"internal_node_id":"0.0-121.0","task_version":"test-retest"},{"Rune":"rune_02_cen","Hex":"#ffcc3399","Correct":-1,"Choice":32,"RT":495.1100000034785,"Accuracy":0,"Outcome":"-10","Keys":[1995.6200000015087],"TotalKeys":1,"Block":1,"Trial":113,"Robot":4,"Valence":"Lose","Action":"No-Go","Sham":0,"Color":"yellow","trial_type":"pit-trial","trial_index":133,"time_elapsed":706861,"internal_node_id":"0.0-122.0","task_version":"test-retest"},{"Rune":"rune_02_os","Hex":"#ffcc3399","Correct":32,"Choice":-1,"RT":-1,"Accuracy":0,"Outcome":"-10","Keys":[],"TotalKeys":0,"Block":1,"Trial":114,"Robot":3,"Valence":"Lose","Action":"Go","Sham":0,"Color":"yellow","trial_type":"pit-trial","trial_index":134,"time_elapsed":710872,"internal_node_id":"0.0-123.0","task_version":"test-retest"},{"Rune":"rune_02_raido","Hex":"#3366ff99","Correct":32,"Choice":32,"RT":439.5899999944959,"Accuracy":1,"Outcome":"+10","Keys":[1941.5049999952316],"TotalKeys":1,"Block":1,"Trial":115,"Robot":1,"Valence":"Win","Action":"Go","Sham":0,"Color":"blue","trial_type":"pit-trial","trial_index":135,"time_elapsed":713821,"internal_node_id":"0.0-124.0","task_version":"test-retest"},{"Rune":"rune_02_haglaz","Hex":"#3366ff99","Correct":-1,"Choice":32,"RT":560.6399999960558,"Accuracy":0,"Outcome":"+1","Keys":[2062.8649999998743],"TotalKeys":1,"Block":1,"Trial":116,"Robot":2,"Valence":"Win","Action":"No-Go","Sham":0,"Color":"blue","trial_type":"pit-trial","trial_index":136,"time_elapsed":716892,"internal_node_id":"0.0-125.0","task_version":"test-retest"},{"Rune":"rune_02_os","Hex":"#ffcc3399","Correct":32,"Choice":-1,"RT":-1,"Accuracy":0,"Outcome":"-10","Keys":[],"TotalKeys":0,"Block":1,"Trial":117,"Robot":3,"Valence":"Lose","Action":"Go","Sham":0,"Color":"yellow","trial_type":"pit-trial","trial_index":137,"time_elapsed":720901,"internal_node_id":"0.0-126.0","task_version":"test-retest"},{"Rune":"rune_02_cen","Hex":"#ffcc3399","Correct":-1,"Choice":32,"RT":812.6849999971455,"Accuracy":0,"Outcome":"-10","Keys":[2314.1000000032363],"TotalKeys":1,"Block":1,"Trial":118,"Robot":4,"Valence":"Lose","Action":"No-Go","Sham":0,"Color":"yellow","trial_type":"pit-trial","trial_index":138,"time_elapsed":724222,"internal_node_id":"0.0-127.0","task_version":"test-retest"},{"Rune":"rune_02_haglaz","Hex":"#3366ff99","Correct":-1,"Choice":32,"RT":609.6749999996973,"Accuracy":0,"Outcome":"+1","Keys":[2112.0600000140257],"TotalKeys":1,"Block":1,"Trial":119,"Robot":2,"Valence":"Win","Action":"No-Go","Sham":0,"Color":"blue","trial_type":"pit-trial","trial_index":139,"time_elapsed":727342,"internal_node_id":"0.0-128.0","task_version":"test-retest"},{"Rune":"rune_02_raido","Hex":"#3366ff99","Correct":32,"Choice":32,"RT":401.7349999921862,"Accuracy":1,"Outcome":"+10","Keys":[1904.6999999991385],"TotalKeys":1,"Block":1,"Trial":120,"Robot":1,"Valence":"Win","Action":"Go","Sham":0,"Color":"blue","trial_type":"pit-trial","trial_index":140,"time_elapsed":730252,"internal_node_id":"0.0-129.0","task_version":"test-retest"},{"view_history":"[{\"page_index\":0,\"viewing_time\":31798.240000003716},{\"page_index\":1,\"viewing_time\":2500.9350000036648},{\"page_index\":2,\"viewing_time\":1171.2399999960326}]","rt":35471.334999994724,"trial_type":"pit-instructions","trial_index":141,"time_elapsed":765733,"internal_node_id":"0.0-130.0","task_version":"test-retest"},{"Rune":"rune_01_ger","Hex":"#ffcc3399","Correct":-1,"Choice":32,"RT":539.7300000040559,"Accuracy":0,"Outcome":"-10","Keys":[2040.0850000005448],"TotalKeys":1,"Block":2,"Trial":121,"Robot":4,"Valence":"Lose","Action":"No-Go","Sham":0,"Color":"yellow","trial_type":"pit-trial","trial_index":142,"time_elapsed":768785,"internal_node_id":"0.0-131.0","task_version":"test-retest"},{"Rune":"rune_01_yr","Hex":"#3366ff99","Correct":-1,"Choice":32,"RT":389.9749999982305,"Accuracy":0,"Outcome":"+1","Keys":[1892.440000010538],"TotalKeys":1,"Block":2,"Trial":122,"Robot":2,"Valence":"Win","Action":"No-Go","Sham":0,"Color":"blue","trial_type":"pit-trial","trial_index":143,"time_elapsed":771684,"internal_node_id":"0.0-132.0","task_version":"test-retest"},{"Rune":"rune_01_ear","Hex":"#3366ff99","Correct":32,"Choice":32,"RT":412.6600000017788,"Accuracy":1,"Outcome":"+10","Keys":[1913.1999999954132],"TotalKeys":1,"Block":2,"Trial":123,"Robot":1,"Valence":"Win","Action":"Go","Sham":0,"Color":"blue","trial_type":"pit-trial","trial_index":144,"time_elapsed":774605,"internal_node_id":"0.0-133.0","task_version":"test-retest"},{"Rune":"rune_01_ingwaz","Hex":"#ffcc3399","Correct":32,"Choice":-1,"RT":-1,"Accuracy":0,"Outcome":"-10","Keys":[],"TotalKeys":0,"Block":2,"Trial":124,"Robot":3,"Valence":"Lose","Action":"Go","Sham":0,"Color":"yellow","trial_type":"pit-trial","trial_index":145,"time_elapsed":778614,"internal_node_id":"0.0-134.0","task_version":"test-retest"},{"Rune":"rune_01_ger","Hex":"#ffcc3399","Correct":-1,"Choice":32,"RT":652.8149999940069,"Accuracy":0,"Outcome":"-10","Keys":[2154.0399999939837],"TotalKeys":1,"Block":2,"Trial":125,"Robot":4,"Valence":"Lose","Action":"No-Go","Sham":0,"Color":"yellow","trial_type":"pit-trial","trial_index":146,"time_elapsed":781773,"internal_node_id":"0.0-135.0","task_version":"test-retest"},{"Rune":"rune_01_ingwaz","Hex":"#ffcc3399","Correct":32,"Choice":32,"RT":702.7999999991152,"Accuracy":1,"Outcome":"-1","Keys":[2203.754999994999],"TotalKeys":1,"Block":2,"Trial":126,"Robot":3,"Valence":"Lose","Action":"Go","Sham":0,"Color":"yellow","trial_type":"pit-trial","trial_index":147,"time_elapsed":784982,"internal_node_id":"0.0-136.0","task_version":"test-retest"},{"Rune":"rune_01_ear","Hex":"#3366ff99","Correct":32,"Choice":32,"RT":558.7050000031013,"Accuracy":1,"Outcome":"+10","Keys":[2061.634999990929],"TotalKeys":1,"Block":2,"Trial":127,"Robot":1,"Valence":"Win","Action":"Go","Sham":0,"Color":"blue","trial_type":"pit-trial","trial_index":148,"time_elapsed":788049,"internal_node_id":"0.0-137.0","task_version":"test-retest"},{"Rune":"rune_01_yr","Hex":"#3366ff99","Correct":-1,"Choice":32,"RT":488.6199999891687,"Accuracy":0,"Outcome":"+1","Keys":[1988.824999993085],"TotalKeys":1,"Block":2,"Trial":128,"Robot":2,"Valence":"Win","Action":"No-Go","Sham":0,"Color":"blue","trial_type":"pit-trial","trial_index":149,"time_elapsed":791042,"internal_node_id":"0.0-138.0","task_version":"test-retest"},{"Rune":"rune_01_ear","Hex":"#3366ff99","Correct":32,"Choice":32,"RT":467.5149999966379,"Accuracy":1,"Outcome":"+10","Keys":[1967.6550000003772],"TotalKeys":1,"Block":2,"Trial":129,"Robot":1,"Valence":"Win","Action":"Go","Sham":0,"Color":"blue","trial_type":"pit-trial","trial_index":150,"time_elapsed":794015,"internal_node_id":"0.0-139.0","task_version":"test-retest"},{"Rune":"rune_01_yr","Hex":"#3366ff99","Correct":-1,"Choice":32,"RT":464.14500000537373,"Accuracy":0,"Outcome":"+1","Keys":[1966.3699999946402],"TotalKeys":1,"Block":2,"Trial":130,"Robot":2,"Valence":"Win","Action":"No-Go","Sham":0,"Color":"blue","trial_type":"pit-trial","trial_index":151,"time_elapsed":796987,"internal_node_id":"0.0-140.0","task_version":"test-retest"},{"Rune":"rune_01_ingwaz","Hex":"#ffcc3399","Correct":32,"Choice":32,"RT":726.8699999985984,"Accuracy":1,"Outcome":"-1","Keys":[2227.129999999306],"TotalKeys":1,"Block":2,"Trial":131,"Robot":3,"Valence":"Lose","Action":"Go","Sham":0,"Color":"yellow","trial_type":"pit-trial","trial_index":152,"time_elapsed":800221,"internal_node_id":"0.0-141.0","task_version":"test-retest"},{"Rune":"rune_01_ger","Hex":"#ffcc3399","Correct":-1,"Choice":-1,"RT":-1,"Accuracy":1,"Outcome":"-1","Keys":[],"TotalKeys":0,"Block":2,"Trial":132,"Robot":4,"Valence":"Lose","Action":"No-Go","Sham":0,"Color":"yellow","trial_type":"pit-trial","trial_index":153,"time_elapsed":804233,"internal_node_id":"0.0-142.0","task_version":"test-retest"},{"Rune":"rune_01_ingwaz","Hex":"#ffcc3399","Correct":32,"Choice":32,"RT":509.5349999901373,"Accuracy":1,"Outcome":"-10","Keys":[2010.085000001709],"TotalKeys":1,"Block":2,"Trial":133,"Robot":3,"Valence":"Lose","Action":"Go","Sham":1,"Color":"yellow","trial_type":"pit-trial","trial_index":154,"time_elapsed":807246,"internal_node_id":"0.0-143.0","task_version":"test-retest"},{"Rune":"rune_01_yr","Hex":"#3366ff99","Correct":-1,"Choice":-1,"RT":-1,"Accuracy":1,"Outcome":"+10","Keys":[],"TotalKeys":0,"Block":2,"Trial":134,"Robot":2,"Valence":"Win","Action":"No-Go","Sham":0,"Color":"blue","trial_type":"pit-trial","trial_index":155,"time_elapsed":811257,"internal_node_id":"0.0-144.0","task_version":"test-retest"},{"Rune":"rune_01_ger","Hex":"#ffcc3399","Correct":-1,"Choice":-1,"RT":-1,"Accuracy":1,"Outcome":"-1","Keys":[],"TotalKeys":0,"Block":2,"Trial":135,"Robot":4,"Valence":"Lose","Action":"No-Go","Sham":0,"Color":"yellow","trial_type":"pit-trial","trial_index":156,"time_elapsed":815268,"internal_node_id":"0.0-145.0","task_version":"test-retest"},{"Rune":"rune_01_ear","Hex":"#3366ff99","Correct":32,"Choice":32,"RT":498.6499999940861,"Accuracy":1,"Outcome":"+1","Keys":[1999.230000001262],"TotalKeys":1,"Block":2,"Trial":136,"Robot":1,"Valence":"Win","Action":"Go","Sham":1,"Color":"blue","trial_type":"pit-trial","trial_index":157,"time_elapsed":818275,"internal_node_id":"0.0-146.0","task_version":"test-retest"},{"Rune":"rune_01_ingwaz","Hex":"#ffcc3399","Correct":32,"Choice":32,"RT":866.9950000039535,"Accuracy":1,"Outcome":"-1","Keys":[2368.3400000008987],"TotalKeys":1,"Block":2,"Trial":137,"Robot":3,"Valence":"Lose","Action":"Go","Sham":0,"Color":"yellow","trial_type":"pit-trial","trial_index":158,"time_elapsed":821652,"internal_node_id":"0.0-147.0","task_version":"test-retest"},{"Rune":"rune_01_yr","Hex":"#3366ff99","Correct":-1,"Choice":-1,"RT":-1,"Accuracy":1,"Outcome":"+1","Keys":[],"TotalKeys":0,"Block":2,"Trial":138,"Robot":2,"Valence":"Win","Action":"No-Go","Sham":1,"Color":"blue","trial_type":"pit-trial","trial_index":159,"time_elapsed":825665,"internal_node_id":"0.0-148.0","task_version":"test-retest"},{"Rune":"rune_01_ger","Hex":"#ffcc3399","Correct":-1,"Choice":32,"RT":878.484999993816,"Accuracy":0,"Outcome":"-1","Keys":[2378.8149999891175],"TotalKeys":1,"Block":2,"Trial":139,"Robot":4,"Valence":"Lose","Action":"No-Go","Sham":1,"Color":"yellow","trial_type":"pit-trial","trial_index":160,"time_elapsed":829053,"internal_node_id":"0.0-149.0","task_version":"test-retest"},{"Rune":"rune_01_ear","Hex":"#3366ff99","Correct":32,"Choice":-1,"RT":-1,"Accuracy":0,"Outcome":"+1","Keys":[],"TotalKeys":0,"Block":2,"Trial":140,"Robot":1,"Valence":"Win","Action":"Go","Sham":0,"Color":"blue","trial_type":"pit-trial","trial_index":161,"time_elapsed":833061,"internal_node_id":"0.0-150.0","task_version":"test-retest"},{"Rune":"rune_01_ear","Hex":"#3366ff99","Correct":32,"Choice":32,"RT":525.4599999898346,"Accuracy":1,"Outcome":"+1","Keys":[2025.8150000008754],"TotalKeys":1,"Block":2,"Trial":141,"Robot":1,"Valence":"Win","Action":"Go","Sham":1,"Color":"blue","trial_type":"pit-trial","trial_index":162,"time_elapsed":836091,"internal_node_id":"0.0-151.0","task_version":"test-retest"},{"Rune":"rune_01_yr","Hex":"#3366ff99","Correct":-1,"Choice":-1,"RT":-1,"Accuracy":1,"Outcome":"+10","Keys":[],"TotalKeys":0,"Block":2,"Trial":142,"Robot":2,"Valence":"Win","Action":"No-Go","Sham":0,"Color":"blue","trial_type":"pit-trial","trial_index":163,"time_elapsed":840097,"internal_node_id":"0.0-152.0","task_version":"test-retest"},{"Rune":"rune_01_ingwaz","Hex":"#ffcc3399","Correct":32,"Choice":-1,"RT":-1,"Accuracy":0,"Outcome":"-10","Keys":[],"TotalKeys":0,"Block":2,"Trial":143,"Robot":3,"Valence":"Lose","Action":"Go","Sham":0,"Color":"yellow","trial_type":"pit-trial","trial_index":164,"time_elapsed":844107,"internal_node_id":"0.0-153.0","task_version":"test-retest"},{"Rune":"rune_01_ger","Hex":"#ffcc3399","Correct":-1,"Choice":-1,"RT":-1,"Accuracy":1,"Outcome":"-1","Keys":[],"TotalKeys":0,"Block":2,"Trial":144,"Robot":4,"Valence":"Lose","Action":"No-Go","Sham":0,"Color":"yellow","trial_type":"pit-trial","trial_index":165,"time_elapsed":848119,"internal_node_id":"0.0-154.0","task_version":"test-retest"},{"Rune":"rune_01_yr","Hex":"#3366ff99","Correct":-1,"Choice":-1,"RT":-1,"Accuracy":1,"Outcome":"+10","Keys":[],"TotalKeys":0,"Block":2,"Trial":145,"Robot":2,"Valence":"Win","Action":"No-Go","Sham":0,"Color":"blue","trial_type":"pit-trial","trial_index":166,"time_elapsed":852131,"internal_node_id":"0.0-155.0","task_version":"test-retest"},{"Rune":"rune_01_ear","Hex":"#3366ff99","Correct":32,"Choice":32,"RT":711.0249999968801,"Accuracy":1,"Outcome":"+10","Keys":[2211.1900000018068],"TotalKeys":1,"Block":2,"Trial":146,"Robot":1,"Valence":"Win","Action":"Go","Sham":0,"Color":"blue","trial_type":"pit-trial","trial_index":167,"time_elapsed":855347,"internal_node_id":"0.0-156.0","task_version":"test-retest"},{"Rune":"rune_01_ingwaz","Hex":"#ffcc3399","Correct":32,"Choice":32,"RT":753.100000001723,"Accuracy":1,"Outcome":"-1","Keys":[2253.5449999995762],"TotalKeys":1,"Block":2,"Trial":147,"Robot":3,"Valence":"Lose","Action":"Go","Sham":0,"Color":"yellow","trial_type":"pit-trial","trial_index":168,"time_elapsed":858604,"internal_node_id":"0.0-157.0","task_version":"test-retest"},{"Rune":"rune_01_ger","Hex":"#ffcc3399","Correct":-1,"Choice":-1,"RT":-1,"Accuracy":1,"Outcome":"-1","Keys":[],"TotalKeys":0,"Block":2,"Trial":148,"Robot":4,"Valence":"Lose","Action":"No-Go","Sham":0,"Color":"yellow","trial_type":"pit-trial","trial_index":169,"time_elapsed":862614,"internal_node_id":"0.0-158.0","task_version":"test-retest"},{"Rune":"rune_01_ingwaz","Hex":"#ffcc3399","Correct":32,"Choice":32,"RT":1043.2599999912782,"Accuracy":1,"Outcome":"-1","Keys":[2543.4750000131316],"TotalKeys":1,"Block":2,"Trial":149,"Robot":3,"Valence":"Lose","Action":"Go","Sham":0,"Color":"yellow","trial_type":"pit-trial","trial_index":170,"time_elapsed":866164,"internal_node_id":"0.0-159.0","task_version":"test-retest"},{"Rune":"rune_01_ear","Hex":"#3366ff99","Correct":32,"Choice":32,"RT":528.9249999914318,"Accuracy":1,"Outcome":"+10","Keys":[2029.2300000000978],"TotalKeys":1,"Block":2,"Trial":150,"Robot":1,"Valence":"Win","Action":"Go","Sham":0,"Color":"blue","trial_type":"pit-trial","trial_index":171,"time_elapsed":869198,"internal_node_id":"0.0-160.0","task_version":"test-retest"},{"Rune":"rune_01_ger","Hex":"#ffcc3399","Correct":-1,"Choice":-1,"RT":-1,"Accuracy":1,"Outcome":"-1","Keys":[],"TotalKeys":0,"Block":2,"Trial":151,"Robot":4,"Valence":"Lose","Action":"No-Go","Sham":0,"Color":"yellow","trial_type":"pit-trial","trial_index":172,"time_elapsed":873209,"internal_node_id":"0.0-161.0","task_version":"test-retest"},{"Rune":"rune_01_yr","Hex":"#3366ff99","Correct":-1,"Choice":-1,"RT":-1,"Accuracy":1,"Outcome":"+10","Keys":[],"TotalKeys":0,"Block":2,"Trial":152,"Robot":2,"Valence":"Win","Action":"No-Go","Sham":0,"Color":"blue","trial_type":"pit-trial","trial_index":173,"time_elapsed":877221,"internal_node_id":"0.0-162.0","task_version":"test-retest"},{"Rune":"rune_01_ingwaz","Hex":"#ffcc3399","Correct":32,"Choice":32,"RT":875.3599999909056,"Accuracy":1,"Outcome":"-10","Keys":[2376.4850000006845],"TotalKeys":1,"Block":2,"Trial":153,"Robot":3,"Valence":"Lose","Action":"Go","Sham":1,"Color":"yellow","trial_type":"pit-trial","trial_index":174,"time_elapsed":880605,"internal_node_id":"0.0-163.0","task_version":"test-retest"},{"Rune":"rune_01_ger","Hex":"#ffcc3399","Correct":-1,"Choice":-1,"RT":-1,"Accuracy":1,"Outcome":"-1","Keys":[],"TotalKeys":0,"Block":2,"Trial":154,"Robot":4,"Valence":"Lose","Action":"No-Go","Sham":0,"Color":"yellow","trial_type":"pit-trial","trial_index":175,"time_elapsed":884616,"internal_node_id":"0.0-164.0","task_version":"test-retest"},{"Rune":"rune_01_ear","Hex":"#3366ff99","Correct":32,"Choice":32,"RT":546.024999988731,"Accuracy":1,"Outcome":"+10","Keys":[2046.2700000061886],"TotalKeys":1,"Block":2,"Trial":155,"Robot":1,"Valence":"Win","Action":"Go","Sham":0,"Color":"blue","trial_type":"pit-trial","trial_index":176,"time_elapsed":887666,"internal_node_id":"0.0-165.0","task_version":"test-retest"},{"Rune":"rune_01_yr","Hex":"#3366ff99","Correct":-1,"Choice":-1,"RT":-1,"Accuracy":1,"Outcome":"+1","Keys":[],"TotalKeys":0,"Block":2,"Trial":156,"Robot":2,"Valence":"Win","Action":"No-Go","Sham":1,"Color":"blue","trial_type":"pit-trial","trial_index":177,"time_elapsed":891675,"internal_node_id":"0.0-166.0","task_version":"test-retest"},{"Rune":"rune_01_ear","Hex":"#3366ff99","Correct":32,"Choice":32,"RT":562.195000005886,"Accuracy":1,"Outcome":"+10","Keys":[2062.7649999951245],"TotalKeys":1,"Block":2,"Trial":157,"Robot":1,"Valence":"Win","Action":"Go","Sham":0,"Color":"blue","trial_type":"pit-trial","trial_index":178,"time_elapsed":894746,"internal_node_id":"0.0-167.0","task_version":"test-retest"},{"Rune":"rune_01_ingwaz","Hex":"#ffcc3399","Correct":32,"Choice":32,"RT":1261.0600000043632,"Accuracy":1,"Outcome":"-1","Keys":[2761.7449999961536],"TotalKeys":1,"Block":2,"Trial":158,"Robot":3,"Valence":"Lose","Action":"Go","Sham":0,"Color":"yellow","trial_type":"pit-trial","trial_index":179,"time_elapsed":898511,"internal_node_id":"0.0-168.0","task_version":"test-retest"},{"Rune":"rune_01_yr","Hex":"#3366ff99","Correct":-1,"Choice":-1,"RT":-1,"Accuracy":1,"Outcome":"+10","Keys":[],"TotalKeys":0,"Block":2,"Trial":159,"Robot":2,"Valence":"Win","Action":"No-Go","Sham":0,"Color":"blue","trial_type":"pit-trial","trial_index":180,"time_elapsed":902520,"internal_node_id":"0.0-169.0","task_version":"test-retest"},{"Rune":"rune_01_ger","Hex":"#ffcc3399","Correct":-1,"Choice":-1,"RT":-1,"Accuracy":1,"Outcome":"-10","Keys":[],"TotalKeys":0,"Block":2,"Trial":160,"Robot":4,"Valence":"Lose","Action":"No-Go","Sham":1,"Color":"yellow","trial_type":"pit-trial","trial_index":181,"time_elapsed":906527,"internal_node_id":"0.0-170.0","task_version":"test-retest"},{"Rune":"rune_01_ear","Hex":"#3366ff99","Correct":32,"Choice":32,"RT":413.749999992433,"Accuracy":1,"Outcome":"+10","Keys":[1915.8750000060536],"TotalKeys":1,"Block":2,"Trial":161,"Robot":1,"Valence":"Win","Action":"Go","Sham":0,"Color":"blue","trial_type":"pit-trial","trial_index":182,"time_elapsed":909449,"internal_node_id":"0.0-171.0","task_version":"test-retest"},{"Rune":"rune_01_ingwaz","Hex":"#ffcc3399","Correct":32,"Choice":32,"RT":695.5100000050152,"Accuracy":1,"Outcome":"-1","Keys":[2196.8350000097416],"TotalKeys":1,"Block":2,"Trial":162,"Robot":3,"Valence":"Lose","Action":"Go","Sham":0,"Color":"yellow","trial_type":"pit-trial","trial_index":183,"time_elapsed":912651,"internal_node_id":"0.0-172.0","task_version":"test-retest"},{"Rune":"rune_01_yr","Hex":"#3366ff99","Correct":-1,"Choice":-1,"RT":-1,"Accuracy":1,"Outcome":"+10","Keys":[],"TotalKeys":0,"Block":2,"Trial":163,"Robot":2,"Valence":"Win","Action":"No-Go","Sham":0,"Color":"blue","trial_type":"pit-trial","trial_index":184,"time_elapsed":916657,"internal_node_id":"0.0-173.0","task_version":"test-retest"},{"Rune":"rune_01_ger","Hex":"#ffcc3399","Correct":-1,"Choice":-1,"RT":-1,"Accuracy":1,"Outcome":"-10","Keys":[],"TotalKeys":0,"Block":2,"Trial":164,"Robot":4,"Valence":"Lose","Action":"No-Go","Sham":1,"Color":"yellow","trial_type":"pit-trial","trial_index":185,"time_elapsed":920667,"internal_node_id":"0.0-174.0","task_version":"test-retest"},{"Rune":"rune_01_ingwaz","Hex":"#ffcc3399","Correct":32,"Choice":32,"RT":695.1100000005681,"Accuracy":1,"Outcome":"-1","Keys":[2197.3649999999907],"TotalKeys":1,"Block":2,"Trial":165,"Robot":3,"Valence":"Lose","Action":"Go","Sham":0,"Color":"yellow","trial_type":"pit-trial","trial_index":186,"time_elapsed":923870,"internal_node_id":"0.0-175.0","task_version":"test-retest"},{"Rune":"rune_01_yr","Hex":"#3366ff99","Correct":-1,"Choice":-1,"RT":-1,"Accuracy":1,"Outcome":"+10","Keys":[],"TotalKeys":0,"Block":2,"Trial":166,"Robot":2,"Valence":"Win","Action":"No-Go","Sham":0,"Color":"blue","trial_type":"pit-trial","trial_index":187,"time_elapsed":927882,"internal_node_id":"0.0-176.0","task_version":"test-retest"},{"Rune":"rune_01_ear","Hex":"#3366ff99","Correct":32,"Choice":32,"RT":592.770000002929,"Accuracy":1,"Outcome":"+10","Keys":[2093.429999993532],"TotalKeys":1,"Block":2,"Trial":167,"Robot":1,"Valence":"Win","Action":"Go","Sham":0,"Color":"blue","trial_type":"pit-trial","trial_index":188,"time_elapsed":930982,"internal_node_id":"0.0-177.0","task_version":"test-retest"},{"Rune":"rune_01_ger","Hex":"#ffcc3399","Correct":-1,"Choice":32,"RT":626.2349999888102,"Accuracy":0,"Outcome":"-10","Keys":[2127.55499999912],"TotalKeys":1,"Block":2,"Trial":168,"Robot":4,"Valence":"Lose","Action":"No-Go","Sham":0,"Color":"yellow","trial_type":"pit-trial","trial_index":189,"time_elapsed":934116,"internal_node_id":"0.0-178.0","task_version":"test-retest"},{"Rune":"rune_01_ear","Hex":"#3366ff99","Correct":32,"Choice":32,"RT":673.5899999912363,"Accuracy":1,"Outcome":"+10","Keys":[2175.230000008014],"TotalKeys":1,"Block":2,"Trial":169,"Robot":1,"Valence":"Win","Action":"Go","Sham":0,"Color":"blue","trial_type":"pit-trial","trial_index":190,"time_elapsed":937299,"internal_node_id":"0.0-179.0","task_version":"test-retest"},{"Rune":"rune_01_yr","Hex":"#3366ff99","Correct":-1,"Choice":-1,"RT":-1,"Accuracy":1,"Outcome":"+10","Keys":[],"TotalKeys":0,"Block":2,"Trial":170,"Robot":2,"Valence":"Win","Action":"No-Go","Sham":0,"Color":"blue","trial_type":"pit-trial","trial_index":191,"time_elapsed":941310,"internal_node_id":"0.0-180.0","task_version":"test-retest"},{"Rune":"rune_01_ger","Hex":"#ffcc3399","Correct":-1,"Choice":-1,"RT":-1,"Accuracy":1,"Outcome":"-1","Keys":[],"TotalKeys":0,"Block":2,"Trial":171,"Robot":4,"Valence":"Lose","Action":"No-Go","Sham":0,"Color":"yellow","trial_type":"pit-trial","trial_index":192,"time_elapsed":945319,"internal_node_id":"0.0-181.0","task_version":"test-retest"},{"Rune":"rune_01_ingwaz","Hex":"#ffcc3399","Correct":32,"Choice":32,"RT":792.9299999959767,"Accuracy":1,"Outcome":"-1","Keys":[2293.0300000007264],"TotalKeys":1,"Block":2,"Trial":172,"Robot":3,"Valence":"Lose","Action":"Go","Sham":0,"Color":"yellow","trial_type":"pit-trial","trial_index":193,"time_elapsed":948619,"internal_node_id":"0.0-182.0","task_version":"test-retest"},{"Rune":"rune_01_ear","Hex":"#3366ff99","Correct":32,"Choice":32,"RT":516.1950000037905,"Accuracy":1,"Outcome":"+1","Keys":[2017.7100000000792],"TotalKeys":1,"Block":2,"Trial":173,"Robot":1,"Valence":"Win","Action":"Go","Sham":1,"Color":"blue","trial_type":"pit-trial","trial_index":194,"time_elapsed":951642,"internal_node_id":"0.0-183.0","task_version":"test-retest"},{"Rune":"rune_01_ger","Hex":"#ffcc3399","Correct":-1,"Choice":-1,"RT":-1,"Accuracy":1,"Outcome":"-1","Keys":[],"TotalKeys":0,"Block":2,"Trial":174,"Robot":4,"Valence":"Lose","Action":"No-Go","Sham":0,"Color":"yellow","trial_type":"pit-trial","trial_index":195,"time_elapsed":955648,"internal_node_id":"0.0-184.0","task_version":"test-retest"},{"Rune":"rune_01_ingwaz","Hex":"#ffcc3399","Correct":32,"Choice":32,"RT":680.3950000030454,"Accuracy":1,"Outcome":"-1","Keys":[2180.72000000393],"TotalKeys":1,"Block":2,"Trial":175,"Robot":3,"Valence":"Lose","Action":"Go","Sham":0,"Color":"yellow","trial_type":"pit-trial","trial_index":196,"time_elapsed":958835,"internal_node_id":"0.0-185.0","task_version":"test-retest"},{"Rune":"rune_01_yr","Hex":"#3366ff99","Correct":-1,"Choice":-1,"RT":-1,"Accuracy":1,"Outcome":"+1","Keys":[],"TotalKeys":0,"Block":2,"Trial":176,"Robot":2,"Valence":"Win","Action":"No-Go","Sham":1,"Color":"blue","trial_type":"pit-trial","trial_index":197,"time_elapsed":962848,"internal_node_id":"0.0-186.0","task_version":"test-retest"},{"Rune":"rune_01_ingwaz","Hex":"#ffcc3399","Correct":32,"Choice":32,"RT":534.3049999937648,"Accuracy":1,"Outcome":"-10","Keys":[2034.5600000000559],"TotalKeys":1,"Block":2,"Trial":177,"Robot":3,"Valence":"Lose","Action":"Go","Sham":1,"Color":"yellow","trial_type":"pit-trial","trial_index":198,"time_elapsed":965891,"internal_node_id":"0.0-187.0","task_version":"test-retest"},{"Rune":"rune_01_yr","Hex":"#3366ff99","Correct":-1,"Choice":-1,"RT":-1,"Accuracy":1,"Outcome":"+10","Keys":[],"TotalKeys":0,"Block":2,"Trial":178,"Robot":2,"Valence":"Win","Action":"No-Go","Sham":0,"Color":"blue","trial_type":"pit-trial","trial_index":199,"time_elapsed":969900,"internal_node_id":"0.0-188.0","task_version":"test-retest"},{"Rune":"rune_01_ear","Hex":"#3366ff99","Correct":32,"Choice":32,"RT":537.5900000071852,"Accuracy":1,"Outcome":"+10","Keys":[2037.9049999901326],"TotalKeys":1,"Block":2,"Trial":179,"Robot":1,"Valence":"Win","Action":"Go","Sham":0,"Color":"blue","trial_type":"pit-trial","trial_index":200,"time_elapsed":972942,"internal_node_id":"0.0-189.0","task_version":"test-retest"},{"Rune":"rune_01_ger","Hex":"#ffcc3399","Correct":-1,"Choice":-1,"RT":-1,"Accuracy":1,"Outcome":"-1","Keys":[],"TotalKeys":0,"Block":2,"Trial":180,"Robot":4,"Valence":"Lose","Action":"No-Go","Sham":0,"Color":"yellow","trial_type":"pit-trial","trial_index":201,"time_elapsed":976947,"internal_node_id":"0.0-190.0","task_version":"test-retest"},{"view_history":"[{\"page_index\":0,\"viewing_time\":16939.809999996214},{\"page_index\":1,\"viewing_time\":1242.0450000063283}]","rt":18182.595000005676,"trial_type":"pit-instructions","trial_index":202,"time_elapsed":995133,"internal_node_id":"0.0-191.0","task_version":"test-retest"},{"Rune":"rune_01_ger","Hex":"#ffcc3399","Correct":-1,"Choice":-1,"RT":-1,"Accuracy":1,"Outcome":"-1","Keys":[],"TotalKeys":0,"Block":2,"Trial":181,"Robot":4,"Valence":"Lose","Action":"No-Go","Sham":0,"Color":"yellow","trial_type":"pit-trial","trial_index":203,"time_elapsed":999143,"internal_node_id":"0.0-192.0","task_version":"test-retest"},{"Rune":"rune_01_yr","Hex":"#3366ff99","Correct":-1,"Choice":-1,"RT":-1,"Accuracy":1,"Outcome":"+1","Keys":[],"TotalKeys":0,"Block":2,"Trial":182,"Robot":2,"Valence":"Win","Action":"No-Go","Sham":1,"Color":"blue","trial_type":"pit-trial","trial_index":204,"time_elapsed":1003154,"internal_node_id":"0.0-193.0","task_version":"test-retest"},{"Rune":"rune_01_ear","Hex":"#3366ff99","Correct":32,"Choice":32,"RT":382.9750000004424,"Accuracy":1,"Outcome":"+1","Keys":[1884.1749999992317],"TotalKeys":1,"Block":2,"Trial":183,"Robot":1,"Valence":"Win","Action":"Go","Sham":1,"Color":"blue","trial_type":"pit-trial","trial_index":205,"time_elapsed":1006045,"internal_node_id":"0.0-194.0","task_version":"test-retest"},{"Rune":"rune_01_ingwaz","Hex":"#ffcc3399","Correct":32,"Choice":32,"RT":611.8500000011409,"Accuracy":1,"Outcome":"-1","Keys":[2111.9249999901513],"TotalKeys":1,"Block":2,"Trial":184,"Robot":3,"Valence":"Lose","Action":"Go","Sham":0,"Color":"yellow","trial_type":"pit-trial","trial_index":206,"time_elapsed":1009162,"internal_node_id":"0.0-195.0","task_version":"test-retest"},{"Rune":"rune_01_ingwaz","Hex":"#ffcc3399","Correct":32,"Choice":32,"RT":520.6000000034692,"Accuracy":1,"Outcome":"-1","Keys":[2020.5900000000838],"TotalKeys":1,"Block":2,"Trial":185,"Robot":3,"Valence":"Lose","Action":"Go","Sham":0,"Color":"yellow","trial_type":"pit-trial","trial_index":207,"time_elapsed":1012191,"internal_node_id":"0.0-196.0","task_version":"test-retest"},{"Rune":"rune_01_yr","Hex":"#3366ff99","Correct":-1,"Choice":-1,"RT":-1,"Accuracy":1,"Outcome":"+10","Keys":[],"TotalKeys":0,"Block":2,"Trial":186,"Robot":2,"Valence":"Win","Action":"No-Go","Sham":0,"Color":"blue","trial_type":"pit-trial","trial_index":208,"time_elapsed":1016202,"internal_node_id":"0.0-197.0","task_version":"test-retest"},{"Rune":"rune_01_ger","Hex":"#ffcc3399","Correct":-1,"Choice":-1,"RT":-1,"Accuracy":1,"Outcome":"-1","Keys":[],"TotalKeys":0,"Block":2,"Trial":187,"Robot":4,"Valence":"Lose","Action":"No-Go","Sham":0,"Color":"yellow","trial_type":"pit-trial","trial_index":209,"time_elapsed":1020213,"internal_node_id":"0.0-198.0","task_version":"test-retest"},{"Rune":"rune_01_ear","Hex":"#3366ff99","Correct":32,"Choice":32,"RT":430.0349999975879,"Accuracy":1,"Outcome":"+10","Keys":[1930.1549999945564],"TotalKeys":1,"Block":2,"Trial":188,"Robot":1,"Valence":"Win","Action":"Go","Sham":0,"Color":"blue","trial_type":"pit-trial","trial_index":210,"time_elapsed":1023150,"internal_node_id":"0.0-199.0","task_version":"test-retest"},{"Rune":"rune_01_ger","Hex":"#ffcc3399","Correct":-1,"Choice":-1,"RT":-1,"Accuracy":1,"Outcome":"-10","Keys":[],"TotalKeys":0,"Block":2,"Trial":189,"Robot":4,"Valence":"Lose","Action":"No-Go","Sham":1,"Color":"yellow","trial_type":"pit-trial","trial_index":211,"time_elapsed":1027161,"internal_node_id":"0.0-200.0","task_version":"test-retest"},{"Rune":"rune_01_ear","Hex":"#3366ff99","Correct":32,"Choice":32,"RT":396.1600000038743,"Accuracy":1,"Outcome":"+10","Keys":[1896.5600000083214],"TotalKeys":1,"Block":2,"Trial":190,"Robot":1,"Valence":"Win","Action":"Go","Sham":0,"Color":"blue","trial_type":"pit-trial","trial_index":212,"time_elapsed":1030065,"internal_node_id":"0.0-201.0","task_version":"test-retest"},{"Rune":"rune_01_ingwaz","Hex":"#ffcc3399","Correct":32,"Choice":32,"RT":466.3650000002235,"Accuracy":1,"Outcome":"-1","Keys":[1966.6549999965355],"TotalKeys":1,"Block":2,"Trial":191,"Robot":3,"Valence":"Lose","Action":"Go","Sham":0,"Color":"yellow","trial_type":"pit-trial","trial_index":213,"time_elapsed":1033039,"internal_node_id":"0.0-202.0","task_version":"test-retest"},{"Rune":"rune_01_yr","Hex":"#3366ff99","Correct":-1,"Choice":-1,"RT":-1,"Accuracy":1,"Outcome":"+10","Keys":[],"TotalKeys":0,"Block":2,"Trial":192,"Robot":2,"Valence":"Win","Action":"No-Go","Sham":0,"Color":"blue","trial_type":"pit-trial","trial_index":214,"time_elapsed":1037045,"internal_node_id":"0.0-203.0","task_version":"test-retest"},{"Rune":"rune_01_ear","Hex":"#3366ff99","Correct":32,"Choice":32,"RT":421.1499999946682,"Accuracy":1,"Outcome":"+10","Keys":[1921.9750000047497],"TotalKeys":1,"Block":2,"Trial":193,"Robot":1,"Valence":"Win","Action":"Go","Sham":0,"Color":"blue","trial_type":"pit-trial","trial_index":215,"time_elapsed":1039975,"internal_node_id":"0.0-204.0","task_version":"test-retest"},{"Rune":"rune_01_ger","Hex":"#ffcc3399","Correct":-1,"Choice":-1,"RT":-1,"Accuracy":1,"Outcome":"-1","Keys":[],"TotalKeys":0,"Block":2,"Trial":194,"Robot":4,"Valence":"Lose","Action":"No-Go","Sham":0,"Color":"yellow","trial_type":"pit-trial","trial_index":216,"time_elapsed":1043982,"internal_node_id":"0.0-205.0","task_version":"test-retest"},{"Rune":"rune_01_ingwaz","Hex":"#ffcc3399","Correct":32,"Choice":32,"RT":769.9750000028871,"Accuracy":1,"Outcome":"-10","Keys":[2270.7850000006147],"TotalKeys":1,"Block":2,"Trial":195,"Robot":3,"Valence":"Lose","Action":"Go","Sham":1,"Color":"yellow","trial_type":"pit-trial","trial_index":217,"time_elapsed":1047260,"internal_node_id":"0.0-206.0","task_version":"test-retest"},{"Rune":"rune_01_yr","Hex":"#3366ff99","Correct":-1,"Choice":-1,"RT":-1,"Accuracy":1,"Outcome":"+10","Keys":[],"TotalKeys":0,"Block":2,"Trial":196,"Robot":2,"Valence":"Win","Action":"No-Go","Sham":0,"Color":"blue","trial_type":"pit-trial","trial_index":218,"time_elapsed":1051270,"internal_node_id":"0.0-207.0","task_version":"test-retest"},{"Rune":"rune_01_yr","Hex":"#3366ff99","Correct":-1,"Choice":-1,"RT":-1,"Accuracy":1,"Outcome":"+10","Keys":[],"TotalKeys":0,"Block":2,"Trial":197,"Robot":2,"Valence":"Win","Action":"No-Go","Sham":0,"Color":"blue","trial_type":"pit-trial","trial_index":219,"time_elapsed":1055282,"internal_node_id":"0.0-208.0","task_version":"test-retest"},{"Rune":"rune_01_ingwaz","Hex":"#ffcc3399","Correct":32,"Choice":-1,"RT":-1,"Accuracy":0,"Outcome":"-10","Keys":[],"TotalKeys":0,"Block":2,"Trial":198,"Robot":3,"Valence":"Lose","Action":"Go","Sham":0,"Color":"yellow","trial_type":"pit-trial","trial_index":220,"time_elapsed":1059286,"internal_node_id":"0.0-209.0","task_version":"test-retest"},{"Rune":"rune_01_ear","Hex":"#3366ff99","Correct":32,"Choice":32,"RT":441.26500000129454,"Accuracy":1,"Outcome":"+10","Keys":[1941.4749999996275],"TotalKeys":1,"Block":2,"Trial":199,"Robot":1,"Valence":"Win","Action":"Go","Sham":0,"Color":"blue","trial_type":"pit-trial","trial_index":221,"time_elapsed":1062236,"internal_node_id":"0.0-210.0","task_version":"test-retest"},{"Rune":"rune_01_ger","Hex":"#ffcc3399","Correct":-1,"Choice":-1,"RT":-1,"Accuracy":1,"Outcome":"-1","Keys":[],"TotalKeys":0,"Block":2,"Trial":200,"Robot":4,"Valence":"Lose","Action":"No-Go","Sham":0,"Color":"yellow","trial_type":"pit-trial","trial_index":222,"time_elapsed":1066248,"internal_node_id":"0.0-211.0","task_version":"test-retest"},{"Rune":"rune_01_ear","Hex":"#3366ff99","Correct":32,"Choice":32,"RT":426.57999999960884,"Accuracy":1,"Outcome":"+10","Keys":[1927.9849999875296],"TotalKeys":1,"Block":2,"Trial":201,"Robot":1,"Valence":"Win","Action":"Go","Sham":0,"Color":"blue","trial_type":"pit-trial","trial_index":223,"time_elapsed":1069185,"internal_node_id":"0.0-212.0","task_version":"test-retest"},{"Rune":"rune_01_ger","Hex":"#ffcc3399","Correct":-1,"Choice":-1,"RT":-1,"Accuracy":1,"Outcome":"-1","Keys":[],"TotalKeys":0,"Block":2,"Trial":202,"Robot":4,"Valence":"Lose","Action":"No-Go","Sham":0,"Color":"yellow","trial_type":"pit-trial","trial_index":224,"time_elapsed":1073194,"internal_node_id":"0.0-213.0","task_version":"test-retest"},{"Rune":"rune_01_yr","Hex":"#3366ff99","Correct":-1,"Choice":-1,"RT":-1,"Accuracy":1,"Outcome":"+10","Keys":[],"TotalKeys":0,"Block":2,"Trial":203,"Robot":2,"Valence":"Win","Action":"No-Go","Sham":0,"Color":"blue","trial_type":"pit-trial","trial_index":225,"time_elapsed":1077205,"internal_node_id":"0.0-214.0","task_version":"test-retest"},{"Rune":"rune_01_ingwaz","Hex":"#ffcc3399","Correct":32,"Choice":32,"RT":904.315000006929,"Accuracy":1,"Outcome":"-1","Keys":[2404.4500000015832],"TotalKeys":1,"Block":2,"Trial":204,"Robot":3,"Valence":"Lose","Action":"Go","Sham":0,"Color":"yellow","trial_type":"pit-trial","trial_index":226,"time_elapsed":1080616,"internal_node_id":"0.0-215.0","task_version":"test-retest"},{"Rune":"rune_01_ingwaz","Hex":"#ffcc3399","Correct":32,"Choice":32,"RT":869.7399999946356,"Accuracy":1,"Outcome":"-1","Keys":[2370.255000001518],"TotalKeys":1,"Block":2,"Trial":205,"Robot":3,"Valence":"Lose","Action":"Go","Sham":0,"Color":"yellow","trial_type":"pit-trial","trial_index":227,"time_elapsed":1083995,"internal_node_id":"0.0-216.0","task_version":"test-retest"},{"Rune":"rune_01_ear","Hex":"#3366ff99","Correct":32,"Choice":32,"RT":475.3349999957718,"Accuracy":1,"Outcome":"+10","Keys":[1975.4749999993946],"TotalKeys":1,"Block":2,"Trial":206,"Robot":1,"Valence":"Win","Action":"Go","Sham":0,"Color":"blue","trial_type":"pit-trial","trial_index":228,"time_elapsed":1086979,"internal_node_id":"0.0-217.0","task_version":"test-retest"},{"Rune":"rune_01_ger","Hex":"#ffcc3399","Correct":-1,"Choice":-1,"RT":-1,"Accuracy":1,"Outcome":"-1","Keys":[],"TotalKeys":0,"Block":2,"Trial":207,"Robot":4,"Valence":"Lose","Action":"No-Go","Sham":0,"Color":"yellow","trial_type":"pit-trial","trial_index":229,"time_elapsed":1090987,"internal_node_id":"0.0-218.0","task_version":"test-retest"},{"Rune":"rune_01_yr","Hex":"#3366ff99","Correct":-1,"Choice":-1,"RT":-1,"Accuracy":1,"Outcome":"+10","Keys":[],"TotalKeys":0,"Block":2,"Trial":208,"Robot":2,"Valence":"Win","Action":"No-Go","Sham":0,"Color":"blue","trial_type":"pit-trial","trial_index":230,"time_elapsed":1094996,"internal_node_id":"0.0-219.0","task_version":"test-retest"},{"Rune":"rune_01_ingwaz","Hex":"#ffcc3399","Correct":32,"Choice":32,"RT":836.3699999901,"Accuracy":1,"Outcome":"-10","Keys":[2336.7250000010245],"TotalKeys":1,"Block":2,"Trial":209,"Robot":3,"Valence":"Lose","Action":"Go","Sham":1,"Color":"yellow","trial_type":"pit-trial","trial_index":231,"time_elapsed":1098340,"internal_node_id":"0.0-220.0","task_version":"test-retest"},{"Rune":"rune_01_ear","Hex":"#3366ff99","Correct":32,"Choice":32,"RT":407.93000000109896,"Accuracy":1,"Outcome":"+1","Keys":[1908.3950000058394],"TotalKeys":1,"Block":2,"Trial":210,"Robot":1,"Valence":"Win","Action":"Go","Sham":1,"Color":"blue","trial_type":"pit-trial","trial_index":232,"time_elapsed":1101257,"internal_node_id":"0.0-221.0","task_version":"test-retest"},{"Rune":"rune_01_ger","Hex":"#ffcc3399","Correct":-1,"Choice":-1,"RT":-1,"Accuracy":1,"Outcome":"-1","Keys":[],"TotalKeys":0,"Block":2,"Trial":211,"Robot":4,"Valence":"Lose","Action":"No-Go","Sham":0,"Color":"yellow","trial_type":"pit-trial","trial_index":233,"time_elapsed":1105263,"internal_node_id":"0.0-222.0","task_version":"test-retest"},{"Rune":"rune_01_yr","Hex":"#3366ff99","Correct":-1,"Choice":-1,"RT":-1,"Accuracy":1,"Outcome":"+10","Keys":[],"TotalKeys":0,"Block":2,"Trial":212,"Robot":2,"Valence":"Win","Action":"No-Go","Sham":0,"Color":"blue","trial_type":"pit-trial","trial_index":234,"time_elapsed":1109267,"internal_node_id":"0.0-223.0","task_version":"test-retest"},{"Rune":"rune_01_yr","Hex":"#3366ff99","Correct":-1,"Choice":-1,"RT":-1,"Accuracy":1,"Outcome":"+10","Keys":[],"TotalKeys":0,"Block":2,"Trial":213,"Robot":2,"Valence":"Win","Action":"No-Go","Sham":0,"Color":"blue","trial_type":"pit-trial","trial_index":235,"time_elapsed":1113276,"internal_node_id":"0.0-224.0","task_version":"test-retest"},{"Rune":"rune_01_ingwaz","Hex":"#ffcc3399","Correct":32,"Choice":32,"RT":927.0450000041164,"Accuracy":1,"Outcome":"-1","Keys":[2427.8850000118837],"TotalKeys":1,"Block":2,"Trial":214,"Robot":3,"Valence":"Lose","Action":"Go","Sham":0,"Color":"yellow","trial_type":"pit-trial","trial_index":236,"time_elapsed":1116708,"internal_node_id":"0.0-225.0","task_version":"test-retest"},{"Rune":"rune_01_ger","Hex":"#ffcc3399","Correct":-1,"Choice":-1,"RT":-1,"Accuracy":1,"Outcome":"-10","Keys":[],"TotalKeys":0,"Block":2,"Trial":215,"Robot":4,"Valence":"Lose","Action":"No-Go","Sham":1,"Color":"yellow","trial_type":"pit-trial","trial_index":237,"time_elapsed":1120718,"internal_node_id":"0.0-226.0","task_version":"test-retest"},{"Rune":"rune_01_ear","Hex":"#3366ff99","Correct":32,"Choice":32,"RT":489.29500000644475,"Accuracy":1,"Outcome":"+10","Keys":[1990.3100000084378],"TotalKeys":1,"Block":2,"Trial":216,"Robot":1,"Valence":"Win","Action":"Go","Sham":0,"Color":"blue","trial_type":"pit-trial","trial_index":238,"time_elapsed":1123714,"internal_node_id":"0.0-227.0","task_version":"test-retest"},{"Rune":"rune_01_ingwaz","Hex":"#ffcc3399","Correct":32,"Choice":32,"RT":618.9250000026077,"Accuracy":1,"Outcome":"-1","Keys":[2119.2000000011176],"TotalKeys":1,"Block":2,"Trial":217,"Robot":3,"Valence":"Lose","Action":"Go","Sham":0,"Color":"yellow","trial_type":"pit-trial","trial_index":239,"time_elapsed":1126840,"internal_node_id":"0.0-228.0","task_version":"test-retest"},{"Rune":"rune_01_yr","Hex":"#3366ff99","Correct":-1,"Choice":-1,"RT":-1,"Accuracy":1,"Outcome":"+1","Keys":[],"TotalKeys":0,"Block":2,"Trial":218,"Robot":2,"Valence":"Win","Action":"No-Go","Sham":1,"Color":"blue","trial_type":"pit-trial","trial_index":240,"time_elapsed":1130848,"internal_node_id":"0.0-229.0","task_version":"test-retest"},{"Rune":"rune_01_ger","Hex":"#ffcc3399","Correct":-1,"Choice":-1,"RT":-1,"Accuracy":1,"Outcome":"-1","Keys":[],"TotalKeys":0,"Block":2,"Trial":219,"Robot":4,"Valence":"Lose","Action":"No-Go","Sham":0,"Color":"yellow","trial_type":"pit-trial","trial_index":241,"time_elapsed":1134860,"internal_node_id":"0.0-230.0","task_version":"test-retest"},{"Rune":"rune_01_ear","Hex":"#3366ff99","Correct":32,"Choice":32,"RT":499.5049999996554,"Accuracy":1,"Outcome":"+10","Keys":[1999.830000000773],"TotalKeys":1,"Block":2,"Trial":220,"Robot":1,"Valence":"Win","Action":"Go","Sham":0,"Color":"blue","trial_type":"pit-trial","trial_index":242,"time_elapsed":1137865,"internal_node_id":"0.0-231.0","task_version":"test-retest"},{"Rune":"rune_01_ingwaz","Hex":"#ffcc3399","Correct":32,"Choice":32,"RT":753.0149999947753,"Accuracy":1,"Outcome":"-10","Keys":[2254.639999999199],"TotalKeys":1,"Block":2,"Trial":221,"Robot":3,"Valence":"Lose","Action":"Go","Sham":1,"Color":"yellow","trial_type":"pit-trial","trial_index":243,"time_elapsed":1141125,"internal_node_id":"0.0-232.0","task_version":"test-retest"},{"Rune":"rune_01_ear","Hex":"#3366ff99","Correct":32,"Choice":32,"RT":516.3900000043213,"Accuracy":1,"Outcome":"+10","Keys":[2017.145000005141],"TotalKeys":1,"Block":2,"Trial":222,"Robot":1,"Valence":"Win","Action":"Go","Sham":0,"Color":"blue","trial_type":"pit-trial","trial_index":244,"time_elapsed":1144148,"internal_node_id":"0.0-233.0","task_version":"test-retest"},{"Rune":"rune_01_yr","Hex":"#3366ff99","Correct":-1,"Choice":-1,"RT":-1,"Accuracy":1,"Outcome":"+10","Keys":[],"TotalKeys":0,"Block":2,"Trial":223,"Robot":2,"Valence":"Win","Action":"No-Go","Sham":0,"Color":"blue","trial_type":"pit-trial","trial_index":245,"time_elapsed":1148160,"internal_node_id":"0.0-234.0","task_version":"test-retest"},{"Rune":"rune_01_ger","Hex":"#ffcc3399","Correct":-1,"Choice":-1,"RT":-1,"Accuracy":1,"Outcome":"-10","Keys":[],"TotalKeys":0,"Block":2,"Trial":224,"Robot":4,"Valence":"Lose","Action":"No-Go","Sham":1,"Color":"yellow","trial_type":"pit-trial","trial_index":246,"time_elapsed":1152171,"internal_node_id":"0.0-235.0","task_version":"test-retest"},{"Rune":"rune_01_yr","Hex":"#3366ff99","Correct":-1,"Choice":-1,"RT":-1,"Accuracy":1,"Outcome":"+10","Keys":[],"TotalKeys":0,"Block":2,"Trial":225,"Robot":2,"Valence":"Win","Action":"No-Go","Sham":0,"Color":"blue","trial_type":"pit-trial","trial_index":247,"time_elapsed":1156184,"internal_node_id":"0.0-236.0","task_version":"test-retest"},{"Rune":"rune_01_ger","Hex":"#ffcc3399","Correct":-1,"Choice":-1,"RT":-1,"Accuracy":1,"Outcome":"-1","Keys":[],"TotalKeys":0,"Block":2,"Trial":226,"Robot":4,"Valence":"Lose","Action":"No-Go","Sham":0,"Color":"yellow","trial_type":"pit-trial","trial_index":248,"time_elapsed":1160193,"internal_node_id":"0.0-237.0","task_version":"test-retest"},{"Rune":"rune_01_ingwaz","Hex":"#ffcc3399","Correct":32,"Choice":32,"RT":948.0150000015274,"Accuracy":1,"Outcome":"-1","Keys":[2448.300000003772],"TotalKeys":1,"Block":2,"Trial":227,"Robot":3,"Valence":"Lose","Action":"Go","Sham":0,"Color":"yellow","trial_type":"pit-trial","trial_index":249,"time_elapsed":1163647,"internal_node_id":"0.0-238.0","task_version":"test-retest"},{"Rune":"rune_01_ear","Hex":"#3366ff99","Correct":32,"Choice":32,"RT":494.36500000581145,"Accuracy":1,"Outcome":"+10","Keys":[1994.9349999953993],"TotalKeys":1,"Block":2,"Trial":228,"Robot":1,"Valence":"Win","Action":"Go","Sham":0,"Color":"blue","trial_type":"pit-trial","trial_index":250,"time_elapsed":1166646,"internal_node_id":"0.0-239.0","task_version":"test-retest"},{"Rune":"rune_01_ger","Hex":"#ffcc3399","Correct":-1,"Choice":-1,"RT":-1,"Accuracy":1,"Outcome":"-1","Keys":[],"TotalKeys":0,"Block":2,"Trial":229,"Robot":4,"Valence":"Lose","Action":"No-Go","Sham":0,"Color":"yellow","trial_type":"pit-trial","trial_index":251,"time_elapsed":1170654,"internal_node_id":"0.0-240.0","task_version":"test-retest"},{"Rune":"rune_01_yr","Hex":"#3366ff99","Correct":-1,"Choice":-1,"RT":-1,"Accuracy":1,"Outcome":"+1","Keys":[],"TotalKeys":0,"Block":2,"Trial":230,"Robot":2,"Valence":"Win","Action":"No-Go","Sham":1,"Color":"blue","trial_type":"pit-trial","trial_index":252,"time_elapsed":1174661,"internal_node_id":"0.0-241.0","task_version":"test-retest"},{"Rune":"rune_01_ear","Hex":"#3366ff99","Correct":32,"Choice":32,"RT":413.9149999974761,"Accuracy":1,"Outcome":"+1","Keys":[1913.9900000011548],"TotalKeys":1,"Block":2,"Trial":231,"Robot":1,"Valence":"Win","Action":"Go","Sham":1,"Color":"blue","trial_type":"pit-trial","trial_index":253,"time_elapsed":1177580,"internal_node_id":"0.0-242.0","task_version":"test-retest"},{"Rune":"rune_01_ingwaz","Hex":"#ffcc3399","Correct":32,"Choice":32,"RT":587.4600000097416,"Accuracy":1,"Outcome":"-1","Keys":[2087.7500000060536],"TotalKeys":1,"Block":2,"Trial":232,"Robot":3,"Valence":"Lose","Action":"Go","Sham":0,"Color":"yellow","trial_type":"pit-trial","trial_index":254,"time_elapsed":1180675,"internal_node_id":"0.0-243.0","task_version":"test-retest"},{"Rune":"rune_01_ingwaz","Hex":"#ffcc3399","Correct":32,"Choice":32,"RT":587.7900000051595,"Accuracy":1,"Outcome":"-1","Keys":[2089.8149999994785],"TotalKeys":1,"Block":2,"Trial":233,"Robot":3,"Valence":"Lose","Action":"Go","Sham":0,"Color":"yellow","trial_type":"pit-trial","trial_index":255,"time_elapsed":1183774,"internal_node_id":"0.0-244.0","task_version":"test-retest"},{"Rune":"rune_01_yr","Hex":"#3366ff99","Correct":-1,"Choice":-1,"RT":-1,"Accuracy":1,"Outcome":"+10","Keys":[],"TotalKeys":0,"Block":2,"Trial":234,"Robot":2,"Valence":"Win","Action":"No-Go","Sham":0,"Color":"blue","trial_type":"pit-trial","trial_index":256,"time_elapsed":1187781,"internal_node_id":"0.0-245.0","task_version":"test-retest"},{"Rune":"rune_01_ger","Hex":"#ffcc3399","Correct":-1,"Choice":-1,"RT":-1,"Accuracy":1,"Outcome":"-1","Keys":[],"TotalKeys":0,"Block":2,"Trial":235,"Robot":4,"Valence":"Lose","Action":"No-Go","Sham":0,"Color":"yellow","trial_type":"pit-trial","trial_index":257,"time_elapsed":1191791,"internal_node_id":"0.0-246.0","task_version":"test-retest"},{"Rune":"rune_01_ear","Hex":"#3366ff99","Correct":32,"Choice":32,"RT":512.9050000105053,"Accuracy":1,"Outcome":"+10","Keys":[2013.060000012163],"TotalKeys":1,"Block":2,"Trial":236,"Robot":1,"Valence":"Win","Action":"Go","Sham":0,"Color":"blue","trial_type":"pit-trial","trial_index":258,"time_elapsed":1194808,"internal_node_id":"0.0-247.0","task_version":"test-retest"},{"Rune":"rune_01_ingwaz","Hex":"#ffcc3399","Correct":32,"Choice":32,"RT":717.9699999978766,"Accuracy":1,"Outcome":"-1","Keys":[2221.8199999916833],"TotalKeys":1,"Block":2,"Trial":237,"Robot":3,"Valence":"Lose","Action":"Go","Sham":0,"Color":"yellow","trial_type":"pit-trial","trial_index":259,"time_elapsed":1198035,"internal_node_id":"0.0-248.0","task_version":"test-retest"},{"Rune":"rune_01_ear","Hex":"#3366ff99","Correct":32,"Choice":32,"RT":545.005000007106,"Accuracy":1,"Outcome":"+10","Keys":[2045.1449999965262],"TotalKeys":1,"Block":2,"Trial":238,"Robot":1,"Valence":"Win","Action":"Go","Sham":0,"Color":"blue","trial_type":"pit-trial","trial_index":260,"time_elapsed":1201087,"internal_node_id":"0.0-249.0","task_version":"test-retest"},{"Rune":"rune_01_yr","Hex":"#3366ff99","Correct":-1,"Choice":-1,"RT":-1,"Accuracy":1,"Outcome":"+10","Keys":[],"TotalKeys":0,"Block":2,"Trial":239,"Robot":2,"Valence":"Win","Action":"No-Go","Sham":0,"Color":"blue","trial_type":"pit-trial","trial_index":261,"time_elapsed":1205101,"internal_node_id":"0.0-250.0","task_version":"test-retest"},{"Rune":"rune_01_ger","Hex":"#ffcc3399","Correct":-1,"Choice":-1,"RT":-1,"Accuracy":1,"Outcome":"-1","Keys":[],"TotalKeys":0,"Block":2,"Trial":240,"Robot":4,"Valence":"Lose","Action":"No-Go","Sham":0,"Color":"yellow","trial_type":"pit-trial","trial_index":262,"time_elapsed":1209113,"internal_node_id":"0.0-251.0","task_version":"test-retest"},{"view_history":"[{\"page_index\":0,\"viewing_time\":2106.539999993518}]","rt":2107.32500000461,"trial_type":"pit-instructions","trial_index":263,"time_elapsed":1211223,"internal_node_id":"0.0-252.0","task_version":"test-retest"},{"rt":10950.179999999935,"responses":{"age":"31","gender-categorical":"Female","gender-free-response":"","ethnicity":"Not Hispanic or Latino","race":"White","language":"Yes","fluency":"Very well"},"survey":"demographics","trial_type":"survey-demo","trial_index":264,"time_elapsed":1222182,"internal_node_id":"0.0-253.0","task_version":"test-retest"},{"rt":26434.085000000894,"responses":{"difficulty":"2","fun":"4","clarity":"5","strategy":"I just tried to make note in my head of ones not to accept.","feedback":""},"survey":"debrief","trial_type":"survey-debrief","trial_index":265,"time_elapsed":1248621,"internal_node_id":"0.0-254.0","task_version":"test-retest"},{"rt":4322.209999998566,"stimulus":"You earned a bonus of $1.2 out of $1.5.<br><br>Press any key to complete the experiment.","key_press":74,"trial_type":"html-keyboard-response","trial_index":266,"time_elapsed":1252949,"internal_node_id":"0.0-255.0","task_version":"test-retest","accuracy":0.7958333333333333,"bonus":1.2,"interactions":"[{\"event\":\"blur\",\"trial\":141,\"time\":736313},{\"event\":\"focus\",\"trial\":141,\"time\":760933},{\"event\":\"blur\",\"trial\":202,\"time\":980413},{\"event\":\"focus\",\"trial\":202,\"time\":991005}]"}]