[{"slider_type":"valence","raw_loc":644,"loc":0.788,"trial_type":"affective-slider","trial_index":0,"time_elapsed":3874,"internal_node_id":"0.0-0.0","task_version":"test-retest-t3"},{"responses":{"Q08":"0","Q02":"0","Q04":"1","Q01":"0","Q06":"0","Q03":"1","Q05":"0","Q07":"0"},"rt":23087.784999981523,"survey":"gad7","trial_type":"survey-template","trial_index":1,"time_elapsed":26965,"internal_node_id":"0.0-1.0","task_version":"test-retest-t3"},{"view_history":"[{\"page_index\":0,\"viewing_time\":2689.6700000215787},{\"page_index\":1,\"viewing_time\":728.6599999933969},{\"page_index\":2,\"viewing_time\":810.8849999844097},{\"page_index\":3,\"viewing_time\":936.6450000088662},{\"page_index\":4,\"viewing_time\":770.8099999872502},{\"page_index\":5,\"viewing_time\":962.9850000201259}]","rt":6900.405000022147,"trial_type":"pit-instructions","trial_index":2,"time_elapsed":33871,"internal_node_id":"0.0-2.0-0.0","task_version":"test-retest-t3"},{"Rune":"rune_00_ingz","Hex":"#FFFFF080","Correct":32,"Choice":32,"RT":1289.504999993369,"Accuracy":1,"Outcome":"+10","Keys":[2790.0900000240654],"TotalKeys":1,"Block":0,"Action":"Go","trial_type":"pit-trial","trial_index":3,"time_elapsed":37667,"internal_node_id":"0.0-2.0-1.0-0.0","task_version":"test-retest-t3"},{"Rune":"rune_00_ingz","Hex":"#FFFFF080","Correct":32,"Choice":32,"RT":740.5500000168104,"Accuracy":1,"Outcome":"+10","Keys":[2241.5949999995064],"TotalKeys":1,"Block":0,"Action":"Go","trial_type":"pit-trial","trial_index":4,"time_elapsed":40914,"internal_node_id":"0.0-2.0-1.0-0.1","task_version":"test-retest-t3"},{"Rune":"rune_00_ingz","Hex":"#FFFFF080","Correct":32,"Choice":32,"RT":295.58500001439825,"Accuracy":1,"Outcome":"+10","Keys":[1796.0000000020955],"TotalKeys":1,"Block":0,"Action":"Go","trial_type":"pit-trial","trial_index":5,"time_elapsed":43715,"internal_node_id":"0.0-2.0-1.0-0.2","task_version":"test-retest-t3"},{"Rune":"rune_00_ingz","Hex":"#FFFFF080","Correct":32,"Choice":32,"RT":195.55999999283813,"Accuracy":1,"Outcome":"+10","Keys":[1695.9800000186078],"TotalKeys":1,"Block":0,"Action":"Go","trial_type":"pit-trial","trial_index":6,"time_elapsed":46417,"internal_node_id":"0.0-2.0-1.0-0.3","task_version":"test-retest-t3"},{"view_history":"[{\"page_index\":0,\"viewing_time\":2759.0450000134297}]","rt":2759.409999998752,"trial_type":"pit-instructions","trial_index":7,"time_elapsed":49180,"internal_node_id":"0.0-2.0-2.0","task_version":"test-retest-t3"},{"Rune":"rune_00_isaz","Hex":"#FFFFF080","Correct":-1,"Choice":-1,"RT":-1,"Accuracy":1,"Outcome":"+10","Keys":[],"TotalKeys":0,"Block":0,"Action":"No-Go","trial_type":"pit-trial","trial_index":8,"time_elapsed":53185,"internal_node_id":"0.0-2.0-3.0-0.0","task_version":"test-retest-t3"},{"Rune":"rune_00_isaz","Hex":"#FFFFF080","Correct":-1,"Choice":-1,"RT":-1,"Accuracy":1,"Outcome":"+10","Keys":[],"TotalKeys":0,"Block":0,"Action":"No-Go","trial_type":"pit-trial","trial_index":9,"time_elapsed":57190,"internal_node_id":"0.0-2.0-3.0-0.1","task_version":"test-retest-t3"},{"Rune":"rune_00_isaz","Hex":"#FFFFF080","Correct":-1,"Choice":-1,"RT":-1,"Accuracy":1,"Outcome":"+10","Keys":[],"TotalKeys":0,"Block":0,"Action":"No-Go","trial_type":"pit-trial","trial_index":10,"time_elapsed":61195,"internal_node_id":"0.0-2.0-3.0-0.2","task_version":"test-retest-t3"},{"Rune":"rune_00_isaz","Hex":"#FFFFF080","Correct":-1,"Choice":-1,"RT":-1,"Accuracy":1,"Outcome":"+10","Keys":[],"TotalKeys":0,"Block":0,"Action":"No-Go","trial_type":"pit-trial","trial_index":11,"time_elapsed":65200,"internal_node_id":"0.0-2.0-3.0-0.3","task_version":"test-retest-t3"},{"view_history":"[{\"page_index\":0,\"viewing_time\":1755.8499999868218},{\"page_index\":1,\"viewing_time\":4758.3900000026915},{\"page_index\":2,\"viewing_time\":2461.2250000063796},{\"page_index\":3,\"viewing_time\":1481.5700000035577},{\"page_index\":2,\"viewing_time\":6013.804999995045},{\"page_index\":1,\"viewing_time\":2396.6399999917485},{\"page_index\":2,\"viewing_time\":552.0050000050105},{\"page_index\":3,\"viewing_time\":4609.759999992093},{\"page_index\":4,\"viewing_time\":1611.9650000182446},{\"page_index\":5,\"viewing_time\":1548.5549999866635},{\"page_index\":6,\"viewing_time\":1066.3350000104401},{\"page_index\":7,\"viewing_time\":1458.649999985937}]","rt":29715.100000001257,"trial_type":"pit-instructions","trial_index":12,"time_elapsed":94918,"internal_node_id":"0.0-2.0-4.0","task_version":"test-retest-t3"},{"responses":["Do nothing","+10","-1","True","Yes"],"num_errors":0,"rt":16444.38500000979,"trial_type":"pit-comprehension","trial_index":13,"time_elapsed":111368,"internal_node_id":"0.0-2.0-5.0","task_version":"test-retest-t3"},{"trial_type":"call-function","trial_index":14,"time_elapsed":111373,"internal_node_id":"0.0-3.0","task_version":"test-retest-t3"},{"view_history":"[{\"page_index\":0,\"viewing_time\":1196.494999981951},{\"page_index\":1,\"viewing_time\":922.1000000252388},{\"page_index\":2,\"viewing_time\":3628.2199999841396}]","rt":5747.1999999834225,"trial_type":"pit-instructions","trial_index":15,"time_elapsed":117121,"internal_node_id":"0.0-4.0","task_version":"test-retest-t3"},{"Rune":"rune_06_ehwaz","Hex":"#ffcc3399","Correct":32,"Choice":32,"RT":319.63499999255873,"Accuracy":1,"Outcome":"-10","Keys":[1819.9949999980163],"TotalKeys":1,"Block":1,"Trial":1,"Robot":3,"Valence":"Lose","Action":"Go","Sham":1,"Color":"yellow","trial_type":"pit-trial","trial_index":16,"time_elapsed":119949,"internal_node_id":"0.0-5.0","task_version":"test-retest-t3"},{"Rune":"rune_06_cweord","Hex":"#3366ff99","Correct":32,"Choice":32,"RT":721.3199999823701,"Accuracy":1,"Outcome":"+10","Keys":[2223.48499999498],"TotalKeys":1,"Block":1,"Trial":2,"Robot":1,"Valence":"Win","Action":"Go","Sham":0,"Color":"blue","trial_type":"pit-trial","trial_index":17,"time_elapsed":123177,"internal_node_id":"0.0-6.0","task_version":"test-retest-t3"},{"Rune":"rune_06_berkanan","Hex":"#ffcc3399","Correct":-1,"Choice":32,"RT":909.3700000084937,"Accuracy":0,"Outcome":"-10","Keys":[2410.58999998495],"TotalKeys":1,"Block":1,"Trial":3,"Robot":4,"Valence":"Lose","Action":"No-Go","Sham":0,"Color":"yellow","trial_type":"pit-trial","trial_index":18,"time_elapsed":126593,"internal_node_id":"0.0-7.0","task_version":"test-retest-t3"},{"Rune":"rune_06_ansuz","Hex":"#3366ff99","Correct":-1,"Choice":-1,"RT":-1,"Accuracy":1,"Outcome":"+10","Keys":[],"TotalKeys":0,"Block":1,"Trial":4,"Robot":2,"Valence":"Win","Action":"No-Go","Sham":0,"Color":"blue","trial_type":"pit-trial","trial_index":19,"time_elapsed":130599,"internal_node_id":"0.0-8.0","task_version":"test-retest-t3"},{"Rune":"rune_06_ehwaz","Hex":"#ffcc3399","Correct":32,"Choice":32,"RT":606.3149999827147,"Accuracy":1,"Outcome":"-1","Keys":[2106.6800000262447],"TotalKeys":1,"Block":1,"Trial":5,"Robot":3,"Valence":"Lose","Action":"Go","Sham":0,"Color":"yellow","trial_type":"pit-trial","trial_index":20,"time_elapsed":133711,"internal_node_id":"0.0-9.0","task_version":"test-retest-t3"},{"Rune":"rune_06_berkanan","Hex":"#ffcc3399","Correct":-1,"Choice":-1,"RT":-1,"Accuracy":1,"Outcome":"-1","Keys":[],"TotalKeys":0,"Block":1,"Trial":6,"Robot":4,"Valence":"Lose","Action":"No-Go","Sham":0,"Color":"yellow","trial_type":"pit-trial","trial_index":21,"time_elapsed":137717,"internal_node_id":"0.0-10.0","task_version":"test-retest-t3"},{"Rune":"rune_06_cweord","Hex":"#3366ff99","Correct":32,"Choice":32,"RT":442.0950000057928,"Accuracy":1,"Outcome":"+1","Keys":[1942.1849999926053],"TotalKeys":1,"Block":1,"Trial":7,"Robot":1,"Valence":"Win","Action":"Go","Sham":1,"Color":"blue","trial_type":"pit-trial","trial_index":22,"time_elapsed":140665,"internal_node_id":"0.0-11.0","task_version":"test-retest-t3"},{"Rune":"rune_06_ansuz","Hex":"#3366ff99","Correct":-1,"Choice":-1,"RT":-1,"Accuracy":1,"Outcome":"+1","Keys":[],"TotalKeys":0,"Block":1,"Trial":8,"Robot":2,"Valence":"Win","Action":"No-Go","Sham":1,"Color":"blue","trial_type":"pit-trial","trial_index":23,"time_elapsed":144671,"internal_node_id":"0.0-12.0","task_version":"test-retest-t3"},{"Rune":"rune_06_ansuz","Hex":"#3366ff99","Correct":-1,"Choice":-1,"RT":-1,"Accuracy":1,"Outcome":"+10","Keys":[],"TotalKeys":0,"Block":1,"Trial":9,"Robot":2,"Valence":"Win","Action":"No-Go","Sham":0,"Color":"blue","trial_type":"pit-trial","trial_index":24,"time_elapsed":148677,"internal_node_id":"0.0-13.0","task_version":"test-retest-t3"},{"Rune":"rune_06_cweord","Hex":"#3366ff99","Correct":32,"Choice":32,"RT":1353.434999997262,"Accuracy":1,"Outcome":"+10","Keys":[2854.3700000154786],"TotalKeys":1,"Block":1,"Trial":10,"Robot":1,"Valence":"Win","Action":"Go","Sham":0,"Color":"blue","trial_type":"pit-trial","trial_index":25,"time_elapsed":152536,"internal_node_id":"0.0-14.0","task_version":"test-retest-t3"},{"Rune":"rune_06_ehwaz","Hex":"#ffcc3399","Correct":32,"Choice":-1,"RT":-1,"Accuracy":0,"Outcome":"-10","Keys":[],"TotalKeys":0,"Block":1,"Trial":11,"Robot":3,"Valence":"Lose","Action":"Go","Sham":0,"Color":"yellow","trial_type":"pit-trial","trial_index":26,"time_elapsed":156542,"internal_node_id":"0.0-15.0","task_version":"test-retest-t3"},{"Rune":"rune_06_berkanan","Hex":"#ffcc3399","Correct":-1,"Choice":-1,"RT":-1,"Accuracy":1,"Outcome":"-10","Keys":[],"TotalKeys":0,"Block":1,"Trial":12,"Robot":4,"Valence":"Lose","Action":"No-Go","Sham":1,"Color":"yellow","trial_type":"pit-trial","trial_index":27,"time_elapsed":160548,"internal_node_id":"0.0-16.0","task_version":"test-retest-t3"},{"Rune":"rune_06_ehwaz","Hex":"#ffcc3399","Correct":32,"Choice":32,"RT":442.56999998469837,"Accuracy":1,"Outcome":"-1","Keys":[1943.8549999904353],"TotalKeys":1,"Block":1,"Trial":13,"Robot":3,"Valence":"Lose","Action":"Go","Sham":0,"Color":"yellow","trial_type":"pit-trial","trial_index":28,"time_elapsed":163497,"internal_node_id":"0.0-17.0","task_version":"test-retest-t3"},{"Rune":"rune_06_berkanan","Hex":"#ffcc3399","Correct":-1,"Choice":32,"RT":446.6100000136066,"Accuracy":0,"Outcome":"-10","Keys":[1947.4599999957718],"TotalKeys":1,"Block":1,"Trial":14,"Robot":4,"Valence":"Lose","Action":"No-Go","Sham":0,"Color":"yellow","trial_type":"pit-trial","trial_index":29,"time_elapsed":166450,"internal_node_id":"0.0-18.0","task_version":"test-retest-t3"},{"Rune":"rune_06_cweord","Hex":"#3366ff99","Correct":32,"Choice":32,"RT":602.5300000037532,"Accuracy":1,"Outcome":"+10","Keys":[2103.0200000095647],"TotalKeys":1,"Block":1,"Trial":15,"Robot":1,"Valence":"Win","Action":"Go","Sham":0,"Color":"blue","trial_type":"pit-trial","trial_index":30,"time_elapsed":169558,"internal_node_id":"0.0-19.0","task_version":"test-retest-t3"},{"Rune":"rune_06_ansuz","Hex":"#3366ff99","Correct":-1,"Choice":32,"RT":404.4850000063889,"Accuracy":0,"Outcome":"+1","Keys":[1905.4100000066683],"TotalKeys":1,"Block":1,"Trial":16,"Robot":2,"Valence":"Win","Action":"No-Go","Sham":0,"Color":"blue","trial_type":"pit-trial","trial_index":31,"time_elapsed":172469,"internal_node_id":"0.0-20.0","task_version":"test-retest-t3"},{"Rune":"rune_06_ehwaz","Hex":"#ffcc3399","Correct":32,"Choice":32,"RT":416.399999987334,"Accuracy":1,"Outcome":"-1","Keys":[1917.5300000060815],"TotalKeys":1,"Block":1,"Trial":17,"Robot":3,"Valence":"Lose","Action":"Go","Sham":0,"Color":"yellow","trial_type":"pit-trial","trial_index":32,"time_elapsed":175391,"internal_node_id":"0.0-21.0","task_version":"test-retest-t3"},{"Rune":"rune_06_ansuz","Hex":"#3366ff99","Correct":-1,"Choice":-1,"RT":-1,"Accuracy":1,"Outcome":"+10","Keys":[],"TotalKeys":0,"Block":1,"Trial":18,"Robot":2,"Valence":"Win","Action":"No-Go","Sham":0,"Color":"blue","trial_type":"pit-trial","trial_index":33,"time_elapsed":179397,"internal_node_id":"0.0-22.0","task_version":"test-retest-t3"},{"Rune":"rune_06_cweord","Hex":"#3366ff99","Correct":32,"Choice":32,"RT":545.3599999891594,"Accuracy":1,"Outcome":"+10","Keys":[2047.1050000051036],"TotalKeys":1,"Block":1,"Trial":19,"Robot":1,"Valence":"Win","Action":"Go","Sham":0,"Color":"blue","trial_type":"pit-trial","trial_index":34,"time_elapsed":182449,"internal_node_id":"0.0-23.0","task_version":"test-retest-t3"},{"Rune":"rune_06_berkanan","Hex":"#ffcc3399","Correct":-1,"Choice":-1,"RT":-1,"Accuracy":1,"Outcome":"-1","Keys":[],"TotalKeys":0,"Block":1,"Trial":20,"Robot":4,"Valence":"Lose","Action":"No-Go","Sham":0,"Color":"yellow","trial_type":"pit-trial","trial_index":35,"time_elapsed":186453,"internal_node_id":"0.0-24.0","task_version":"test-retest-t3"},{"Rune":"rune_06_ansuz","Hex":"#3366ff99","Correct":-1,"Choice":-1,"RT":-1,"Accuracy":1,"Outcome":"+10","Keys":[],"TotalKeys":0,"Block":1,"Trial":21,"Robot":2,"Valence":"Win","Action":"No-Go","Sham":0,"Color":"blue","trial_type":"pit-trial","trial_index":36,"time_elapsed":190458,"internal_node_id":"0.0-25.0","task_version":"test-retest-t3"},{"Rune":"rune_06_cweord","Hex":"#3366ff99","Correct":32,"Choice":32,"RT":574.1949999937788,"Accuracy":1,"Outcome":"+10","Keys":[2075.154999998631],"TotalKeys":1,"Block":1,"Trial":22,"Robot":1,"Valence":"Win","Action":"Go","Sham":0,"Color":"blue","trial_type":"pit-trial","trial_index":37,"time_elapsed":193538,"internal_node_id":"0.0-26.0","task_version":"test-retest-t3"},{"Rune":"rune_06_berkanan","Hex":"#ffcc3399","Correct":-1,"Choice":-1,"RT":-1,"Accuracy":1,"Outcome":"-1","Keys":[],"TotalKeys":0,"Block":1,"Trial":23,"Robot":4,"Valence":"Lose","Action":"No-Go","Sham":0,"Color":"yellow","trial_type":"pit-trial","trial_index":38,"time_elapsed":197544,"internal_node_id":"0.0-27.0","task_version":"test-retest-t3"},{"Rune":"rune_06_ehwaz","Hex":"#ffcc3399","Correct":32,"Choice":32,"RT":477.61000000173226,"Accuracy":1,"Outcome":"-1","Keys":[1977.6800000108778],"TotalKeys":1,"Block":1,"Trial":24,"Robot":3,"Valence":"Lose","Action":"Go","Sham":0,"Color":"yellow","trial_type":"pit-trial","trial_index":39,"time_elapsed":200532,"internal_node_id":"0.0-28.0","task_version":"test-retest-t3"},{"Rune":"rune_06_berkanan","Hex":"#ffcc3399","Correct":-1,"Choice":-1,"RT":-1,"Accuracy":1,"Outcome":"-1","Keys":[],"TotalKeys":0,"Block":1,"Trial":25,"Robot":4,"Valence":"Lose","Action":"No-Go","Sham":0,"Color":"yellow","trial_type":"pit-trial","trial_index":40,"time_elapsed":204543,"internal_node_id":"0.0-29.0","task_version":"test-retest-t3"},{"Rune":"rune_06_ehwaz","Hex":"#ffcc3399","Correct":32,"Choice":32,"RT":515.7299999846146,"Accuracy":1,"Outcome":"-1","Keys":[2016.3849999953527],"TotalKeys":1,"Block":1,"Trial":26,"Robot":3,"Valence":"Lose","Action":"Go","Sham":0,"Color":"yellow","trial_type":"pit-trial","trial_index":41,"time_elapsed":207564,"internal_node_id":"0.0-30.0","task_version":"test-retest-t3"},{"Rune":"rune_06_ansuz","Hex":"#3366ff99","Correct":-1,"Choice":-1,"RT":-1,"Accuracy":1,"Outcome":"+1","Keys":[],"TotalKeys":0,"Block":1,"Trial":27,"Robot":2,"Valence":"Win","Action":"No-Go","Sham":1,"Color":"blue","trial_type":"pit-trial","trial_index":42,"time_elapsed":211571,"internal_node_id":"0.0-31.0","task_version":"test-retest-t3"},{"Rune":"rune_06_cweord","Hex":"#3366ff99","Correct":32,"Choice":32,"RT":553.4700000134762,"Accuracy":1,"Outcome":"+10","Keys":[2054.694999998901],"TotalKeys":1,"Block":1,"Trial":28,"Robot":1,"Valence":"Win","Action":"Go","Sham":0,"Color":"blue","trial_type":"pit-trial","trial_index":43,"time_elapsed":214631,"internal_node_id":"0.0-32.0","task_version":"test-retest-t3"},{"Rune":"rune_06_cweord","Hex":"#3366ff99","Correct":32,"Choice":32,"RT":567.2749999794178,"Accuracy":1,"Outcome":"+10","Keys":[2068.1600000243634],"TotalKeys":1,"Block":1,"Trial":29,"Robot":1,"Valence":"Win","Action":"Go","Sham":0,"Color":"blue","trial_type":"pit-trial","trial_index":44,"time_elapsed":217707,"internal_node_id":"0.0-33.0","task_version":"test-retest-t3"},{"Rune":"rune_06_ansuz","Hex":"#3366ff99","Correct":-1,"Choice":-1,"RT":-1,"Accuracy":1,"Outcome":"+10","Keys":[],"TotalKeys":0,"Block":1,"Trial":30,"Robot":2,"Valence":"Win","Action":"No-Go","Sham":0,"Color":"blue","trial_type":"pit-trial","trial_index":45,"time_elapsed":221719,"internal_node_id":"0.0-34.0","task_version":"test-retest-t3"},{"Rune":"rune_06_ehwaz","Hex":"#ffcc3399","Correct":32,"Choice":32,"RT":568.5250000096858,"Accuracy":1,"Outcome":"-10","Keys":[2069.3350000074133],"TotalKeys":1,"Block":1,"Trial":31,"Robot":3,"Valence":"Lose","Action":"Go","Sham":1,"Color":"yellow","trial_type":"pit-trial","trial_index":46,"time_elapsed":224794,"internal_node_id":"0.0-35.0","task_version":"test-retest-t3"},{"Rune":"rune_06_berkanan","Hex":"#ffcc3399","Correct":-1,"Choice":-1,"RT":-1,"Accuracy":1,"Outcome":"-1","Keys":[],"TotalKeys":0,"Block":1,"Trial":32,"Robot":4,"Valence":"Lose","Action":"No-Go","Sham":0,"Color":"yellow","trial_type":"pit-trial","trial_index":47,"time_elapsed":228799,"internal_node_id":"0.0-36.0","task_version":"test-retest-t3"},{"Rune":"rune_06_berkanan","Hex":"#ffcc3399","Correct":-1,"Choice":-1,"RT":-1,"Accuracy":1,"Outcome":"-1","Keys":[],"TotalKeys":0,"Block":1,"Trial":33,"Robot":4,"Valence":"Lose","Action":"No-Go","Sham":0,"Color":"yellow","trial_type":"pit-trial","trial_index":48,"time_elapsed":232806,"internal_node_id":"0.0-37.0","task_version":"test-retest-t3"},{"Rune":"rune_06_ehwaz","Hex":"#ffcc3399","Correct":32,"Choice":32,"RT":486.05000000679865,"Accuracy":1,"Outcome":"-1","Keys":[1990.1200000022072],"TotalKeys":1,"Block":1,"Trial":34,"Robot":3,"Valence":"Lose","Action":"Go","Sham":0,"Color":"yellow","trial_type":"pit-trial","trial_index":49,"time_elapsed":235821,"internal_node_id":"0.0-38.0","task_version":"test-retest-t3"},{"Rune":"rune_06_ansuz","Hex":"#3366ff99","Correct":-1,"Choice":-1,"RT":-1,"Accuracy":1,"Outcome":"+10","Keys":[],"TotalKeys":0,"Block":1,"Trial":35,"Robot":2,"Valence":"Win","Action":"No-Go","Sham":0,"Color":"blue","trial_type":"pit-trial","trial_index":50,"time_elapsed":239826,"internal_node_id":"0.0-39.0","task_version":"test-retest-t3"},{"Rune":"rune_06_cweord","Hex":"#3366ff99","Correct":32,"Choice":32,"RT":426.64499999955297,"Accuracy":1,"Outcome":"+10","Keys":[1927.9150000074878],"TotalKeys":1,"Block":1,"Trial":36,"Robot":1,"Valence":"Win","Action":"Go","Sham":0,"Color":"blue","trial_type":"pit-trial","trial_index":51,"time_elapsed":242762,"internal_node_id":"0.0-40.0","task_version":"test-retest-t3"},{"Rune":"rune_06_ehwaz","Hex":"#ffcc3399","Correct":32,"Choice":32,"RT":405.62999999383464,"Accuracy":1,"Outcome":"-1","Keys":[1905.8699999877717],"TotalKeys":1,"Block":1,"Trial":37,"Robot":3,"Valence":"Lose","Action":"Go","Sham":0,"Color":"yellow","trial_type":"pit-trial","trial_index":52,"time_elapsed":245673,"internal_node_id":"0.0-41.0","task_version":"test-retest-t3"},{"Rune":"rune_06_cweord","Hex":"#3366ff99","Correct":32,"Choice":32,"RT":489.8549999925308,"Accuracy":1,"Outcome":"+1","Keys":[1990.170000004582],"TotalKeys":1,"Block":1,"Trial":38,"Robot":1,"Valence":"Win","Action":"Go","Sham":1,"Color":"blue","trial_type":"pit-trial","trial_index":53,"time_elapsed":248668,"internal_node_id":"0.0-42.0","task_version":"test-retest-t3"},{"Rune":"rune_06_ansuz","Hex":"#3366ff99","Correct":-1,"Choice":-1,"RT":-1,"Accuracy":1,"Outcome":"+10","Keys":[],"TotalKeys":0,"Block":1,"Trial":39,"Robot":2,"Valence":"Win","Action":"No-Go","Sham":0,"Color":"blue","trial_type":"pit-trial","trial_index":54,"time_elapsed":252675,"internal_node_id":"0.0-43.0","task_version":"test-retest-t3"},{"Rune":"rune_06_berkanan","Hex":"#ffcc3399","Correct":-1,"Choice":-1,"RT":-1,"Accuracy":1,"Outcome":"-10","Keys":[],"TotalKeys":0,"Block":1,"Trial":40,"Robot":4,"Valence":"Lose","Action":"No-Go","Sham":1,"Color":"yellow","trial_type":"pit-trial","trial_index":55,"time_elapsed":256680,"internal_node_id":"0.0-44.0","task_version":"test-retest-t3"},{"Rune":"rune_06_ansuz","Hex":"#3366ff99","Correct":-1,"Choice":-1,"RT":-1,"Accuracy":1,"Outcome":"+10","Keys":[],"TotalKeys":0,"Block":1,"Trial":41,"Robot":2,"Valence":"Win","Action":"No-Go","Sham":0,"Color":"blue","trial_type":"pit-trial","trial_index":56,"time_elapsed":260686,"internal_node_id":"0.0-45.0","task_version":"test-retest-t3"},{"Rune":"rune_06_cweord","Hex":"#3366ff99","Correct":32,"Choice":32,"RT":624.9499999976251,"Accuracy":1,"Outcome":"+1","Keys":[2125.5499999970198],"TotalKeys":1,"Block":1,"Trial":42,"Robot":1,"Valence":"Win","Action":"Go","Sham":1,"Color":"blue","trial_type":"pit-trial","trial_index":57,"time_elapsed":263816,"internal_node_id":"0.0-46.0","task_version":"test-retest-t3"},{"Rune":"rune_06_berkanan","Hex":"#ffcc3399","Correct":-1,"Choice":-1,"RT":-1,"Accuracy":1,"Outcome":"-1","Keys":[],"TotalKeys":0,"Block":1,"Trial":43,"Robot":4,"Valence":"Lose","Action":"No-Go","Sham":0,"Color":"yellow","trial_type":"pit-trial","trial_index":58,"time_elapsed":267822,"internal_node_id":"0.0-47.0","task_version":"test-retest-t3"},{"Rune":"rune_06_ehwaz","Hex":"#ffcc3399","Correct":32,"Choice":32,"RT":451.37500000419095,"Accuracy":1,"Outcome":"-1","Keys":[1953.0049999884795],"TotalKeys":1,"Block":1,"Trial":44,"Robot":3,"Valence":"Lose","Action":"Go","Sham":0,"Color":"yellow","trial_type":"pit-trial","trial_index":59,"time_elapsed":270780,"internal_node_id":"0.0-48.0","task_version":"test-retest-t3"},{"Rune":"rune_06_cweord","Hex":"#3366ff99","Correct":32,"Choice":32,"RT":512.6000000163913,"Accuracy":1,"Outcome":"+10","Keys":[2013.8300000107847],"TotalKeys":1,"Block":1,"Trial":45,"Robot":1,"Valence":"Win","Action":"Go","Sham":0,"Color":"blue","trial_type":"pit-trial","trial_index":60,"time_elapsed":273799,"internal_node_id":"0.0-49.0","task_version":"test-retest-t3"},{"Rune":"rune_06_berkanan","Hex":"#ffcc3399","Correct":-1,"Choice":-1,"RT":-1,"Accuracy":1,"Outcome":"-1","Keys":[],"TotalKeys":0,"Block":1,"Trial":46,"Robot":4,"Valence":"Lose","Action":"No-Go","Sham":0,"Color":"yellow","trial_type":"pit-trial","trial_index":61,"time_elapsed":277805,"internal_node_id":"0.0-50.0","task_version":"test-retest-t3"},{"Rune":"rune_06_ansuz","Hex":"#3366ff99","Correct":-1,"Choice":-1,"RT":-1,"Accuracy":1,"Outcome":"+10","Keys":[],"TotalKeys":0,"Block":1,"Trial":47,"Robot":2,"Valence":"Win","Action":"No-Go","Sham":0,"Color":"blue","trial_type":"pit-trial","trial_index":62,"time_elapsed":281811,"internal_node_id":"0.0-51.0","task_version":"test-retest-t3"},{"Rune":"rune_06_ehwaz","Hex":"#ffcc3399","Correct":32,"Choice":32,"RT":413.0650000006426,"Accuracy":1,"Outcome":"-10","Keys":[1913.3900000015274],"TotalKeys":1,"Block":1,"Trial":48,"Robot":3,"Valence":"Lose","Action":"Go","Sham":1,"Color":"yellow","trial_type":"pit-trial","trial_index":63,"time_elapsed":284729,"internal_node_id":"0.0-52.0","task_version":"test-retest-t3"},{"Rune":"rune_06_berkanan","Hex":"#ffcc3399","Correct":-1,"Choice":-1,"RT":-1,"Accuracy":1,"Outcome":"-1","Keys":[],"TotalKeys":0,"Block":1,"Trial":49,"Robot":4,"Valence":"Lose","Action":"No-Go","Sham":0,"Color":"yellow","trial_type":"pit-trial","trial_index":64,"time_elapsed":288735,"internal_node_id":"0.0-53.0","task_version":"test-retest-t3"},{"Rune":"rune_06_ansuz","Hex":"#3366ff99","Correct":-1,"Choice":-1,"RT":-1,"Accuracy":1,"Outcome":"+1","Keys":[],"TotalKeys":0,"Block":1,"Trial":50,"Robot":2,"Valence":"Win","Action":"No-Go","Sham":1,"Color":"blue","trial_type":"pit-trial","trial_index":65,"time_elapsed":292740,"internal_node_id":"0.0-54.0","task_version":"test-retest-t3"},{"Rune":"rune_06_cweord","Hex":"#3366ff99","Correct":32,"Choice":32,"RT":449.50000001699664,"Accuracy":1,"Outcome":"+10","Keys":[1950.4249999881722],"TotalKeys":1,"Block":1,"Trial":51,"Robot":1,"Valence":"Win","Action":"Go","Sham":0,"Color":"blue","trial_type":"pit-trial","trial_index":66,"time_elapsed":295695,"internal_node_id":"0.0-55.0","task_version":"test-retest-t3"},{"Rune":"rune_06_ehwaz","Hex":"#ffcc3399","Correct":32,"Choice":32,"RT":437.04000001889654,"Accuracy":1,"Outcome":"-1","Keys":[1937.420000002021],"TotalKeys":1,"Block":1,"Trial":52,"Robot":3,"Valence":"Lose","Action":"Go","Sham":0,"Color":"yellow","trial_type":"pit-trial","trial_index":67,"time_elapsed":298637,"internal_node_id":"0.0-56.0","task_version":"test-retest-t3"},{"Rune":"rune_06_ehwaz","Hex":"#ffcc3399","Correct":32,"Choice":32,"RT":479.8000000009779,"Accuracy":1,"Outcome":"-1","Keys":[1979.909999994561],"TotalKeys":1,"Block":1,"Trial":53,"Robot":3,"Valence":"Lose","Action":"Go","Sham":0,"Color":"yellow","trial_type":"pit-trial","trial_index":68,"time_elapsed":301622,"internal_node_id":"0.0-57.0","task_version":"test-retest-t3"},{"Rune":"rune_06_berkanan","Hex":"#ffcc3399","Correct":-1,"Choice":-1,"RT":-1,"Accuracy":1,"Outcome":"-1","Keys":[],"TotalKeys":0,"Block":1,"Trial":54,"Robot":4,"Valence":"Lose","Action":"No-Go","Sham":0,"Color":"yellow","trial_type":"pit-trial","trial_index":69,"time_elapsed":305628,"internal_node_id":"0.0-58.0","task_version":"test-retest-t3"},{"Rune":"rune_06_ansuz","Hex":"#3366ff99","Correct":-1,"Choice":-1,"RT":-1,"Accuracy":1,"Outcome":"+10","Keys":[],"TotalKeys":0,"Block":1,"Trial":55,"Robot":2,"Valence":"Win","Action":"No-Go","Sham":0,"Color":"blue","trial_type":"pit-trial","trial_index":70,"time_elapsed":309634,"internal_node_id":"0.0-59.0","task_version":"test-retest-t3"},{"Rune":"rune_06_cweord","Hex":"#3366ff99","Correct":32,"Choice":32,"RT":401.97999999509193,"Accuracy":1,"Outcome":"+10","Keys":[1902.3099999758415],"TotalKeys":1,"Block":1,"Trial":56,"Robot":1,"Valence":"Win","Action":"Go","Sham":0,"Color":"blue","trial_type":"pit-trial","trial_index":71,"time_elapsed":312541,"internal_node_id":"0.0-60.0","task_version":"test-retest-t3"},{"Rune":"rune_06_ansuz","Hex":"#3366ff99","Correct":-1,"Choice":-1,"RT":-1,"Accuracy":1,"Outcome":"+10","Keys":[],"TotalKeys":0,"Block":1,"Trial":57,"Robot":2,"Valence":"Win","Action":"No-Go","Sham":0,"Color":"blue","trial_type":"pit-trial","trial_index":72,"time_elapsed":316547,"internal_node_id":"0.0-61.0","task_version":"test-retest-t3"},{"Rune":"rune_06_cweord","Hex":"#3366ff99","Correct":32,"Choice":32,"RT":401.61000000080094,"Accuracy":1,"Outcome":"+10","Keys":[1902.0149999996647],"TotalKeys":1,"Block":1,"Trial":58,"Robot":1,"Valence":"Win","Action":"Go","Sham":0,"Color":"blue","trial_type":"pit-trial","trial_index":73,"time_elapsed":319453,"internal_node_id":"0.0-62.0","task_version":"test-retest-t3"},{"Rune":"rune_06_berkanan","Hex":"#ffcc3399","Correct":-1,"Choice":-1,"RT":-1,"Accuracy":1,"Outcome":"-10","Keys":[],"TotalKeys":0,"Block":1,"Trial":59,"Robot":4,"Valence":"Lose","Action":"No-Go","Sham":1,"Color":"yellow","trial_type":"pit-trial","trial_index":74,"time_elapsed":323458,"internal_node_id":"0.0-63.0","task_version":"test-retest-t3"},{"Rune":"rune_06_ehwaz","Hex":"#ffcc3399","Correct":32,"Choice":32,"RT":425.47499999636784,"Accuracy":1,"Outcome":"-1","Keys":[1925.9099999908358],"TotalKeys":1,"Block":1,"Trial":60,"Robot":3,"Valence":"Lose","Action":"Go","Sham":0,"Color":"yellow","trial_type":"pit-trial","trial_index":75,"time_elapsed":326389,"internal_node_id":"0.0-64.0","task_version":"test-retest-t3"},{"value":false,"trial_type":"call-function","trial_index":76,"time_elapsed":326393,"internal_node_id":"0.0-65.0","task_version":"test-retest-t3"},{"view_history":"[{\"page_index\":0,\"viewing_time\":5086.269999999786},{\"page_index\":1,\"viewing_time\":1527.9150000133086}]","rt":6614.60500000976,"trial_type":"pit-instructions","trial_index":77,"time_elapsed":333008,"internal_node_id":"0.0-66.0","task_version":"test-retest-t3"},{"Rune":"rune_06_berkanan","Hex":"#ffcc3399","Correct":-1,"Choice":-1,"RT":-1,"Accuracy":1,"Outcome":"-1","Keys":[],"TotalKeys":0,"Block":1,"Trial":61,"Robot":4,"Valence":"Lose","Action":"No-Go","Sham":0,"Color":"yellow","trial_type":"pit-trial","trial_index":78,"time_elapsed":337015,"internal_node_id":"0.0-67.0","task_version":"test-retest-t3"},{"Rune":"rune_06_ehwaz","Hex":"#ffcc3399","Correct":32,"Choice":32,"RT":432.2749999992084,"Accuracy":1,"Outcome":"-1","Keys":[1933.1200000015087],"TotalKeys":1,"Block":1,"Trial":62,"Robot":3,"Valence":"Lose","Action":"Go","Sham":0,"Color":"yellow","trial_type":"pit-trial","trial_index":79,"time_elapsed":339954,"internal_node_id":"0.0-68.0","task_version":"test-retest-t3"},{"Rune":"rune_06_ansuz","Hex":"#3366ff99","Correct":-1,"Choice":-1,"RT":-1,"Accuracy":1,"Outcome":"+10","Keys":[],"TotalKeys":0,"Block":1,"Trial":63,"Robot":2,"Valence":"Win","Action":"No-Go","Sham":0,"Color":"blue","trial_type":"pit-trial","trial_index":80,"time_elapsed":343961,"internal_node_id":"0.0-69.0","task_version":"test-retest-t3"},{"Rune":"rune_06_cweord","Hex":"#3366ff99","Correct":32,"Choice":32,"RT":364.1500000085216,"Accuracy":1,"Outcome":"+10","Keys":[1864.7950000013225],"TotalKeys":1,"Block":1,"Trial":64,"Robot":1,"Valence":"Win","Action":"Go","Sham":0,"Color":"blue","trial_type":"pit-trial","trial_index":81,"time_elapsed":346831,"internal_node_id":"0.0-70.0","task_version":"test-retest-t3"},{"Rune":"rune_06_berkanan","Hex":"#ffcc3399","Correct":-1,"Choice":-1,"RT":-1,"Accuracy":1,"Outcome":"-1","Keys":[],"TotalKeys":0,"Block":1,"Trial":65,"Robot":4,"Valence":"Lose","Action":"No-Go","Sham":0,"Color":"yellow","trial_type":"pit-trial","trial_index":82,"time_elapsed":350837,"internal_node_id":"0.0-71.0","task_version":"test-retest-t3"},{"Rune":"rune_06_ansuz","Hex":"#3366ff99","Correct":-1,"Choice":-1,"RT":-1,"Accuracy":1,"Outcome":"+10","Keys":[],"TotalKeys":0,"Block":1,"Trial":66,"Robot":2,"Valence":"Win","Action":"No-Go","Sham":0,"Color":"blue","trial_type":"pit-trial","trial_index":83,"time_elapsed":354843,"internal_node_id":"0.0-72.0","task_version":"test-retest-t3"},{"Rune":"rune_06_ehwaz","Hex":"#ffcc3399","Correct":32,"Choice":32,"RT":471.4899999962654,"Accuracy":1,"Outcome":"-1","Keys":[1971.7550000059418],"TotalKeys":1,"Block":1,"Trial":67,"Robot":3,"Valence":"Lose","Action":"Go","Sham":0,"Color":"yellow","trial_type":"pit-trial","trial_index":84,"time_elapsed":357820,"internal_node_id":"0.0-73.0","task_version":"test-retest-t3"},{"Rune":"rune_06_cweord","Hex":"#3366ff99","Correct":32,"Choice":32,"RT":549.4649999891408,"Accuracy":1,"Outcome":"+1","Keys":[2050.0600000086706],"TotalKeys":1,"Block":1,"Trial":68,"Robot":1,"Valence":"Win","Action":"Go","Sham":1,"Color":"blue","trial_type":"pit-trial","trial_index":85,"time_elapsed":360875,"internal_node_id":"0.0-74.0","task_version":"test-retest-t3"},{"Rune":"rune_06_berkanan","Hex":"#ffcc3399","Correct":-1,"Choice":-1,"RT":-1,"Accuracy":1,"Outcome":"-10","Keys":[],"TotalKeys":0,"Block":1,"Trial":69,"Robot":4,"Valence":"Lose","Action":"No-Go","Sham":1,"Color":"yellow","trial_type":"pit-trial","trial_index":86,"time_elapsed":364881,"internal_node_id":"0.0-75.0","task_version":"test-retest-t3"},{"Rune":"rune_06_ehwaz","Hex":"#ffcc3399","Correct":32,"Choice":32,"RT":427.87500002305023,"Accuracy":1,"Outcome":"-1","Keys":[1928.0549999966752],"TotalKeys":1,"Block":1,"Trial":70,"Robot":3,"Valence":"Lose","Action":"Go","Sham":0,"Color":"yellow","trial_type":"pit-trial","trial_index":87,"time_elapsed":367814,"internal_node_id":"0.0-76.0","task_version":"test-retest-t3"},{"Rune":"rune_06_ansuz","Hex":"#3366ff99","Correct":-1,"Choice":-1,"RT":-1,"Accuracy":1,"Outcome":"+10","Keys":[],"TotalKeys":0,"Block":1,"Trial":71,"Robot":2,"Valence":"Win","Action":"No-Go","Sham":0,"Color":"blue","trial_type":"pit-trial","trial_index":88,"time_elapsed":371820,"internal_node_id":"0.0-77.0","task_version":"test-retest-t3"},{"Rune":"rune_06_cweord","Hex":"#3366ff99","Correct":32,"Choice":32,"RT":457.5300000142306,"Accuracy":1,"Outcome":"+10","Keys":[1958.760000008624],"TotalKeys":1,"Block":1,"Trial":72,"Robot":1,"Valence":"Win","Action":"Go","Sham":0,"Color":"blue","trial_type":"pit-trial","trial_index":89,"time_elapsed":374784,"internal_node_id":"0.0-78.0","task_version":"test-retest-t3"},{"Rune":"rune_06_berkanan","Hex":"#ffcc3399","Correct":-1,"Choice":-1,"RT":-1,"Accuracy":1,"Outcome":"-1","Keys":[],"TotalKeys":0,"Block":1,"Trial":73,"Robot":4,"Valence":"Lose","Action":"No-Go","Sham":0,"Color":"yellow","trial_type":"pit-trial","trial_index":90,"time_elapsed":378790,"internal_node_id":"0.0-79.0","task_version":"test-retest-t3"},{"Rune":"rune_06_ansuz","Hex":"#3366ff99","Correct":-1,"Choice":-1,"RT":-1,"Accuracy":1,"Outcome":"+1","Keys":[],"TotalKeys":0,"Block":1,"Trial":74,"Robot":2,"Valence":"Win","Action":"No-Go","Sham":1,"Color":"blue","trial_type":"pit-trial","trial_index":91,"time_elapsed":382797,"internal_node_id":"0.0-80.0","task_version":"test-retest-t3"},{"Rune":"rune_06_cweord","Hex":"#3366ff99","Correct":32,"Choice":32,"RT":484.64499998954125,"Accuracy":1,"Outcome":"+10","Keys":[1984.8600000259466],"TotalKeys":1,"Block":1,"Trial":75,"Robot":1,"Valence":"Win","Action":"Go","Sham":0,"Color":"blue","trial_type":"pit-trial","trial_index":92,"time_elapsed":385787,"internal_node_id":"0.0-81.0","task_version":"test-retest-t3"},{"Rune":"rune_06_ehwaz","Hex":"#ffcc3399","Correct":32,"Choice":32,"RT":460.4000000108499,"Accuracy":1,"Outcome":"-10","Keys":[1961.5300000004936],"TotalKeys":1,"Block":1,"Trial":76,"Robot":3,"Valence":"Lose","Action":"Go","Sham":1,"Color":"yellow","trial_type":"pit-trial","trial_index":93,"time_elapsed":388754,"internal_node_id":"0.0-82.0","task_version":"test-retest-t3"},{"Rune":"rune_06_ehwaz","Hex":"#ffcc3399","Correct":32,"Choice":32,"RT":586.9999999995343,"Accuracy":1,"Outcome":"-1","Keys":[2087.619999976596],"TotalKeys":1,"Block":1,"Trial":77,"Robot":3,"Valence":"Lose","Action":"Go","Sham":0,"Color":"yellow","trial_type":"pit-trial","trial_index":94,"time_elapsed":391847,"internal_node_id":"0.0-83.0","task_version":"test-retest-t3"},{"Rune":"rune_06_cweord","Hex":"#3366ff99","Correct":32,"Choice":32,"RT":555.1449999911711,"Accuracy":1,"Outcome":"+10","Keys":[2055.7499999995343],"TotalKeys":1,"Block":1,"Trial":78,"Robot":1,"Valence":"Win","Action":"Go","Sham":0,"Color":"blue","trial_type":"pit-trial","trial_index":95,"time_elapsed":394908,"internal_node_id":"0.0-84.0","task_version":"test-retest-t3"},{"Rune":"rune_06_ansuz","Hex":"#3366ff99","Correct":-1,"Choice":-1,"RT":-1,"Accuracy":1,"Outcome":"+10","Keys":[],"TotalKeys":0,"Block":1,"Trial":79,"Robot":2,"Valence":"Win","Action":"No-Go","Sham":0,"Color":"blue","trial_type":"pit-trial","trial_index":96,"time_elapsed":398914,"internal_node_id":"0.0-85.0","task_version":"test-retest-t3"},{"Rune":"rune_06_berkanan","Hex":"#ffcc3399","Correct":-1,"Choice":-1,"RT":-1,"Accuracy":1,"Outcome":"-1","Keys":[],"TotalKeys":0,"Block":1,"Trial":80,"Robot":4,"Valence":"Lose","Action":"No-Go","Sham":0,"Color":"yellow","trial_type":"pit-trial","trial_index":97,"time_elapsed":402921,"internal_node_id":"0.0-86.0","task_version":"test-retest-t3"},{"Rune":"rune_06_berkanan","Hex":"#ffcc3399","Correct":-1,"Choice":-1,"RT":-1,"Accuracy":1,"Outcome":"-1","Keys":[],"TotalKeys":0,"Block":1,"Trial":81,"Robot":4,"Valence":"Lose","Action":"No-Go","Sham":0,"Color":"yellow","trial_type":"pit-trial","trial_index":98,"time_elapsed":406926,"internal_node_id":"0.0-87.0","task_version":"test-retest-t3"},{"Rune":"rune_06_ehwaz","Hex":"#ffcc3399","Correct":32,"Choice":32,"RT":494.8549999971874,"Accuracy":1,"Outcome":"-1","Keys":[1995.4699999943841],"TotalKeys":1,"Block":1,"Trial":82,"Robot":3,"Valence":"Lose","Action":"Go","Sham":0,"Color":"yellow","trial_type":"pit-trial","trial_index":99,"time_elapsed":409927,"internal_node_id":"0.0-88.0","task_version":"test-retest-t3"},{"Rune":"rune_06_cweord","Hex":"#3366ff99","Correct":32,"Choice":32,"RT":475.9949999861419,"Accuracy":1,"Outcome":"+10","Keys":[1977.0600000047125],"TotalKeys":1,"Block":1,"Trial":83,"Robot":1,"Valence":"Win","Action":"Go","Sham":0,"Color":"blue","trial_type":"pit-trial","trial_index":100,"time_elapsed":412909,"internal_node_id":"0.0-89.0","task_version":"test-retest-t3"},{"Rune":"rune_06_ansuz","Hex":"#3366ff99","Correct":-1,"Choice":-1,"RT":-1,"Accuracy":1,"Outcome":"+10","Keys":[],"TotalKeys":0,"Block":1,"Trial":84,"Robot":2,"Valence":"Win","Action":"No-Go","Sham":0,"Color":"blue","trial_type":"pit-trial","trial_index":101,"time_elapsed":416915,"internal_node_id":"0.0-90.0","task_version":"test-retest-t3"},{"Rune":"rune_06_berkanan","Hex":"#ffcc3399","Correct":-1,"Choice":-1,"RT":-1,"Accuracy":1,"Outcome":"-1","Keys":[],"TotalKeys":0,"Block":1,"Trial":85,"Robot":4,"Valence":"Lose","Action":"No-Go","Sham":0,"Color":"yellow","trial_type":"pit-trial","trial_index":102,"time_elapsed":420923,"internal_node_id":"0.0-91.0","task_version":"test-retest-t3"},{"Rune":"rune_06_cweord","Hex":"#3366ff99","Correct":32,"Choice":32,"RT":407.245000009425,"Accuracy":1,"Outcome":"+10","Keys":[1907.905000000028],"TotalKeys":1,"Block":1,"Trial":86,"Robot":1,"Valence":"Win","Action":"Go","Sham":0,"Color":"blue","trial_type":"pit-trial","trial_index":103,"time_elapsed":423836,"internal_node_id":"0.0-92.0","task_version":"test-retest-t3"},{"Rune":"rune_06_ehwaz","Hex":"#ffcc3399","Correct":32,"Choice":32,"RT":496.3999999745283,"Accuracy":1,"Outcome":"-1","Keys":[1997.9100000055041],"TotalKeys":1,"Block":1,"Trial":87,"Robot":3,"Valence":"Lose","Action":"Go","Sham":0,"Color":"yellow","trial_type":"pit-trial","trial_index":104,"time_elapsed":426839,"internal_node_id":"0.0-93.0","task_version":"test-retest-t3"},{"Rune":"rune_06_ansuz","Hex":"#3366ff99","Correct":-1,"Choice":-1,"RT":-1,"Accuracy":1,"Outcome":"+1","Keys":[],"TotalKeys":0,"Block":1,"Trial":88,"Robot":2,"Valence":"Win","Action":"No-Go","Sham":1,"Color":"blue","trial_type":"pit-trial","trial_index":105,"time_elapsed":430846,"internal_node_id":"0.0-94.0","task_version":"test-retest-t3"},{"Rune":"rune_06_ansuz","Hex":"#3366ff99","Correct":-1,"Choice":-1,"RT":-1,"Accuracy":1,"Outcome":"+10","Keys":[],"TotalKeys":0,"Block":1,"Trial":89,"Robot":2,"Valence":"Win","Action":"No-Go","Sham":0,"Color":"blue","trial_type":"pit-trial","trial_index":106,"time_elapsed":434851,"internal_node_id":"0.0-95.0","task_version":"test-retest-t3"},{"Rune":"rune_06_ehwaz","Hex":"#ffcc3399","Correct":32,"Choice":32,"RT":495.6100000126753,"Accuracy":1,"Outcome":"-1","Keys":[1997.445000015432],"TotalKeys":1,"Block":1,"Trial":90,"Robot":3,"Valence":"Lose","Action":"Go","Sham":0,"Color":"yellow","trial_type":"pit-trial","trial_index":107,"time_elapsed":437853,"internal_node_id":"0.0-96.0","task_version":"test-retest-t3"},{"Rune":"rune_06_berkanan","Hex":"#ffcc3399","Correct":-1,"Choice":-1,"RT":-1,"Accuracy":1,"Outcome":"-1","Keys":[],"TotalKeys":0,"Block":1,"Trial":91,"Robot":4,"Valence":"Lose","Action":"No-Go","Sham":0,"Color":"yellow","trial_type":"pit-trial","trial_index":108,"time_elapsed":441858,"internal_node_id":"0.0-97.0","task_version":"test-retest-t3"},{"Rune":"rune_06_cweord","Hex":"#3366ff99","Correct":32,"Choice":32,"RT":410.44000000692904,"Accuracy":1,"Outcome":"+10","Keys":[1911.9850000133738],"TotalKeys":1,"Block":1,"Trial":92,"Robot":1,"Valence":"Win","Action":"Go","Sham":0,"Color":"blue","trial_type":"pit-trial","trial_index":109,"time_elapsed":444776,"internal_node_id":"0.0-98.0","task_version":"test-retest-t3"},{"Rune":"rune_06_ansuz","Hex":"#3366ff99","Correct":-1,"Choice":-1,"RT":-1,"Accuracy":1,"Outcome":"+10","Keys":[],"TotalKeys":0,"Block":1,"Trial":93,"Robot":2,"Valence":"Win","Action":"No-Go","Sham":0,"Color":"blue","trial_type":"pit-trial","trial_index":110,"time_elapsed":448781,"internal_node_id":"0.0-99.0","task_version":"test-retest-t3"},{"Rune":"rune_06_berkanan","Hex":"#ffcc3399","Correct":-1,"Choice":-1,"RT":-1,"Accuracy":1,"Outcome":"-1","Keys":[3162.5199999834877],"TotalKeys":1,"Block":1,"Trial":94,"Robot":4,"Valence":"Lose","Action":"No-Go","Sham":0,"Color":"yellow","trial_type":"pit-trial","trial_index":111,"time_elapsed":452787,"internal_node_id":"0.0-100.0","task_version":"test-retest-t3"},{"Rune":"rune_06_ehwaz","Hex":"#ffcc3399","Correct":32,"Choice":32,"RT":382.93999998131767,"Accuracy":1,"Outcome":"-1","Keys":[1883.750000008149],"TotalKeys":1,"Block":1,"Trial":95,"Robot":3,"Valence":"Lose","Action":"Go","Sham":0,"Color":"yellow","trial_type":"pit-trial","trial_index":112,"time_elapsed":455674,"internal_node_id":"0.0-101.0","task_version":"test-retest-t3"},{"Rune":"rune_06_cweord","Hex":"#3366ff99","Correct":32,"Choice":32,"RT":584.1749999963213,"Accuracy":1,"Outcome":"+1","Keys":[2084.564999997383],"TotalKeys":1,"Block":1,"Trial":96,"Robot":1,"Valence":"Win","Action":"Go","Sham":1,"Color":"blue","trial_type":"pit-trial","trial_index":113,"time_elapsed":458764,"internal_node_id":"0.0-102.0","task_version":"test-retest-t3"},{"Rune":"rune_06_ehwaz","Hex":"#ffcc3399","Correct":32,"Choice":32,"RT":427.78999998699874,"Accuracy":1,"Outcome":"-10","Keys":[1929.5799999963492],"TotalKeys":1,"Block":1,"Trial":97,"Robot":3,"Valence":"Lose","Action":"Go","Sham":1,"Color":"yellow","trial_type":"pit-trial","trial_index":114,"time_elapsed":461698,"internal_node_id":"0.0-103.0","task_version":"test-retest-t3"},{"Rune":"rune_06_cweord","Hex":"#3366ff99","Correct":32,"Choice":32,"RT":368.90499998116866,"Accuracy":1,"Outcome":"+10","Keys":[1870.5749999789987],"TotalKeys":1,"Block":1,"Trial":98,"Robot":1,"Valence":"Win","Action":"Go","Sham":0,"Color":"blue","trial_type":"pit-trial","trial_index":115,"time_elapsed":464573,"internal_node_id":"0.0-104.0","task_version":"test-retest-t3"},{"Rune":"rune_06_berkanan","Hex":"#ffcc3399","Correct":-1,"Choice":-1,"RT":-1,"Accuracy":1,"Outcome":"-10","Keys":[],"TotalKeys":0,"Block":1,"Trial":99,"Robot":4,"Valence":"Lose","Action":"No-Go","Sham":1,"Color":"yellow","trial_type":"pit-trial","trial_index":116,"time_elapsed":468579,"internal_node_id":"0.0-105.0","task_version":"test-retest-t3"},{"Rune":"rune_06_ansuz","Hex":"#3366ff99","Correct":-1,"Choice":-1,"RT":-1,"Accuracy":1,"Outcome":"+10","Keys":[],"TotalKeys":0,"Block":1,"Trial":100,"Robot":2,"Valence":"Win","Action":"No-Go","Sham":0,"Color":"blue","trial_type":"pit-trial","trial_index":117,"time_elapsed":472583,"internal_node_id":"0.0-106.0","task_version":"test-retest-t3"},{"Rune":"rune_06_cweord","Hex":"#3366ff99","Correct":32,"Choice":32,"RT":409.79500001412816,"Accuracy":1,"Outcome":"+1","Keys":[1911.4600000029895],"TotalKeys":1,"Block":1,"Trial":101,"Robot":1,"Valence":"Win","Action":"Go","Sham":1,"Color":"blue","trial_type":"pit-trial","trial_index":118,"time_elapsed":475499,"internal_node_id":"0.0-107.0","task_version":"test-retest-t3"},{"Rune":"rune_06_ehwaz","Hex":"#ffcc3399","Correct":32,"Choice":32,"RT":429.9100000062026,"Accuracy":1,"Outcome":"-1","Keys":[1931.3699999765959],"TotalKeys":1,"Block":1,"Trial":102,"Robot":3,"Valence":"Lose","Action":"Go","Sham":0,"Color":"yellow","trial_type":"pit-trial","trial_index":119,"time_elapsed":478435,"internal_node_id":"0.0-108.0","task_version":"test-retest-t3"},{"Rune":"rune_06_berkanan","Hex":"#ffcc3399","Correct":-1,"Choice":-1,"RT":-1,"Accuracy":1,"Outcome":"-1","Keys":[],"TotalKeys":0,"Block":1,"Trial":103,"Robot":4,"Valence":"Lose","Action":"No-Go","Sham":0,"Color":"yellow","trial_type":"pit-trial","trial_index":120,"time_elapsed":482441,"internal_node_id":"0.0-109.0","task_version":"test-retest-t3"},{"Rune":"rune_06_ansuz","Hex":"#3366ff99","Correct":-1,"Choice":-1,"RT":-1,"Accuracy":1,"Outcome":"+10","Keys":[],"TotalKeys":0,"Block":1,"Trial":104,"Robot":2,"Valence":"Win","Action":"No-Go","Sham":0,"Color":"blue","trial_type":"pit-trial","trial_index":121,"time_elapsed":486447,"internal_node_id":"0.0-110.0","task_version":"test-retest-t3"},{"Rune":"rune_06_ehwaz","Hex":"#ffcc3399","Correct":32,"Choice":32,"RT":361.1549999914132,"Accuracy":1,"Outcome":"-10","Keys":[1862.4050000216812],"TotalKeys":1,"Block":1,"Trial":105,"Robot":3,"Valence":"Lose","Action":"Go","Sham":1,"Color":"yellow","trial_type":"pit-trial","trial_index":122,"time_elapsed":489314,"internal_node_id":"0.0-111.0","task_version":"test-retest-t3"},{"Rune":"rune_06_ansuz","Hex":"#3366ff99","Correct":-1,"Choice":-1,"RT":-1,"Accuracy":1,"Outcome":"+10","Keys":[],"TotalKeys":0,"Block":1,"Trial":106,"Robot":2,"Valence":"Win","Action":"No-Go","Sham":0,"Color":"blue","trial_type":"pit-trial","trial_index":123,"time_elapsed":493323,"internal_node_id":"0.0-112.0","task_version":"test-retest-t3"},{"Rune":"rune_06_berkanan","Hex":"#ffcc3399","Correct":-1,"Choice":-1,"RT":-1,"Accuracy":1,"Outcome":"-10","Keys":[],"TotalKeys":0,"Block":1,"Trial":107,"Robot":4,"Valence":"Lose","Action":"No-Go","Sham":1,"Color":"yellow","trial_type":"pit-trial","trial_index":124,"time_elapsed":497329,"internal_node_id":"0.0-113.0","task_version":"test-retest-t3"},{"Rune":"rune_06_cweord","Hex":"#3366ff99","Correct":32,"Choice":32,"RT":357.0250000047963,"Accuracy":1,"Outcome":"+10","Keys":[1857.9050000116695],"TotalKeys":1,"Block":1,"Trial":108,"Robot":1,"Valence":"Win","Action":"Go","Sham":0,"Color":"blue","trial_type":"pit-trial","trial_index":125,"time_elapsed":500192,"internal_node_id":"0.0-114.0","task_version":"test-retest-t3"},{"Rune":"rune_06_cweord","Hex":"#3366ff99","Correct":32,"Choice":32,"RT":429.5400000119116,"Accuracy":1,"Outcome":"+10","Keys":[1930.240000016056],"TotalKeys":1,"Block":1,"Trial":109,"Robot":1,"Valence":"Win","Action":"Go","Sham":0,"Color":"blue","trial_type":"pit-trial","trial_index":126,"time_elapsed":503127,"internal_node_id":"0.0-115.0","task_version":"test-retest-t3"},{"Rune":"rune_06_berkanan","Hex":"#ffcc3399","Correct":-1,"Choice":-1,"RT":-1,"Accuracy":1,"Outcome":"-1","Keys":[],"TotalKeys":0,"Block":1,"Trial":110,"Robot":4,"Valence":"Lose","Action":"No-Go","Sham":0,"Color":"yellow","trial_type":"pit-trial","trial_index":127,"time_elapsed":507134,"internal_node_id":"0.0-116.0","task_version":"test-retest-t3"},{"Rune":"rune_06_ehwaz","Hex":"#ffcc3399","Correct":32,"Choice":32,"RT":397.545000014361,"Accuracy":1,"Outcome":"-1","Keys":[1899.650000006659],"TotalKeys":1,"Block":1,"Trial":111,"Robot":3,"Valence":"Lose","Action":"Go","Sham":0,"Color":"yellow","trial_type":"pit-trial","trial_index":128,"time_elapsed":510038,"internal_node_id":"0.0-117.0","task_version":"test-retest-t3"},{"Rune":"rune_06_ansuz","Hex":"#3366ff99","Correct":-1,"Choice":-1,"RT":-1,"Accuracy":1,"Outcome":"+1","Keys":[],"TotalKeys":0,"Block":1,"Trial":112,"Robot":2,"Valence":"Win","Action":"No-Go","Sham":1,"Color":"blue","trial_type":"pit-trial","trial_index":129,"time_elapsed":514044,"internal_node_id":"0.0-118.0","task_version":"test-retest-t3"},{"Rune":"rune_06_ansuz","Hex":"#3366ff99","Correct":-1,"Choice":-1,"RT":-1,"Accuracy":1,"Outcome":"+10","Keys":[],"TotalKeys":0,"Block":1,"Trial":113,"Robot":2,"Valence":"Win","Action":"No-Go","Sham":0,"Color":"blue","trial_type":"pit-trial","trial_index":130,"time_elapsed":518050,"internal_node_id":"0.0-119.0","task_version":"test-retest-t3"},{"Rune":"rune_06_cweord","Hex":"#3366ff99","Correct":32,"Choice":32,"RT":390.8449999871664,"Accuracy":1,"Outcome":"+10","Keys":[1891.860000003362],"TotalKeys":1,"Block":1,"Trial":114,"Robot":1,"Valence":"Win","Action":"Go","Sham":0,"Color":"blue","trial_type":"pit-trial","trial_index":131,"time_elapsed":520947,"internal_node_id":"0.0-120.0","task_version":"test-retest-t3"},{"Rune":"rune_06_berkanan","Hex":"#ffcc3399","Correct":-1,"Choice":-1,"RT":-1,"Accuracy":1,"Outcome":"-1","Keys":[],"TotalKeys":0,"Block":1,"Trial":115,"Robot":4,"Valence":"Lose","Action":"No-Go","Sham":0,"Color":"yellow","trial_type":"pit-trial","trial_index":132,"time_elapsed":524953,"internal_node_id":"0.0-121.0","task_version":"test-retest-t3"},{"Rune":"rune_06_ehwaz","Hex":"#ffcc3399","Correct":32,"Choice":32,"RT":491.2050000275485,"Accuracy":1,"Outcome":"-1","Keys":[1991.9449999870267],"TotalKeys":1,"Block":1,"Trial":116,"Robot":3,"Valence":"Lose","Action":"Go","Sham":0,"Color":"yellow","trial_type":"pit-trial","trial_index":133,"time_elapsed":527949,"internal_node_id":"0.0-122.0","task_version":"test-retest-t3"},{"Rune":"rune_06_cweord","Hex":"#3366ff99","Correct":32,"Choice":32,"RT":489.7499999788124,"Accuracy":1,"Outcome":"+10","Keys":[1992.2050000168383],"TotalKeys":1,"Block":1,"Trial":117,"Robot":1,"Valence":"Win","Action":"Go","Sham":0,"Color":"blue","trial_type":"pit-trial","trial_index":134,"time_elapsed":530946,"internal_node_id":"0.0-123.0","task_version":"test-retest-t3"},{"Rune":"rune_06_ansuz","Hex":"#3366ff99","Correct":-1,"Choice":-1,"RT":-1,"Accuracy":1,"Outcome":"+10","Keys":[],"TotalKeys":0,"Block":1,"Trial":118,"Robot":2,"Valence":"Win","Action":"No-Go","Sham":0,"Color":"blue","trial_type":"pit-trial","trial_index":135,"time_elapsed":534954,"internal_node_id":"0.0-124.0","task_version":"test-retest-t3"},{"Rune":"rune_06_ehwaz","Hex":"#ffcc3399","Correct":32,"Choice":32,"RT":478.7899999937508,"Accuracy":1,"Outcome":"-1","Keys":[1980.0349999859463],"TotalKeys":1,"Block":1,"Trial":119,"Robot":3,"Valence":"Lose","Action":"Go","Sham":0,"Color":"yellow","trial_type":"pit-trial","trial_index":136,"time_elapsed":537938,"internal_node_id":"0.0-125.0","task_version":"test-retest-t3"},{"Rune":"rune_06_berkanan","Hex":"#ffcc3399","Correct":-1,"Choice":-1,"RT":-1,"Accuracy":1,"Outcome":"-1","Keys":[],"TotalKeys":0,"Block":1,"Trial":120,"Robot":4,"Valence":"Lose","Action":"No-Go","Sham":0,"Color":"yellow","trial_type":"pit-trial","trial_index":137,"time_elapsed":541944,"internal_node_id":"0.0-126.0","task_version":"test-retest-t3"},{"view_history":"[{\"page_index\":0,\"viewing_time\":3364.800000010291},{\"page_index\":1,\"viewing_time\":743.0699999968056},{\"page_index\":2,\"viewing_time\":621.1600000096951}]","rt":4729.455000022426,"trial_type":"pit-instructions","trial_index":138,"time_elapsed":546677,"internal_node_id":"0.0-127.0","task_version":"test-retest-t3"},{"Rune":"rune_05_ior","Hex":"#ffcc3399","Correct":-1,"Choice":32,"RT":517.9300000017975,"Accuracy":0,"Outcome":"-10","Keys":[2018.0399999953806],"TotalKeys":1,"Block":2,"Trial":121,"Robot":4,"Valence":"Lose","Action":"No-Go","Sham":0,"Color":"yellow","trial_type":"pit-trial","trial_index":139,"time_elapsed":549702,"internal_node_id":"0.0-128.0","task_version":"test-retest-t3"},{"Rune":"rune_05_tiwaz","Hex":"#3366ff99","Correct":-1,"Choice":32,"RT":355.05000001285225,"Accuracy":0,"Outcome":"+1","Keys":[1855.8850000263192],"TotalKeys":1,"Block":2,"Trial":122,"Robot":2,"Valence":"Win","Action":"No-Go","Sham":0,"Color":"blue","trial_type":"pit-trial","trial_index":140,"time_elapsed":552562,"internal_node_id":"0.0-129.0","task_version":"test-retest-t3"},{"Rune":"rune_05_jeran","Hex":"#3366ff99","Correct":32,"Choice":-1,"RT":-1,"Accuracy":0,"Outcome":"+1","Keys":[],"TotalKeys":0,"Block":2,"Trial":123,"Robot":1,"Valence":"Win","Action":"Go","Sham":0,"Color":"blue","trial_type":"pit-trial","trial_index":141,"time_elapsed":556569,"internal_node_id":"0.0-130.0","task_version":"test-retest-t3"},{"Rune":"rune_05_gebo","Hex":"#ffcc3399","Correct":32,"Choice":32,"RT":341.1600000108592,"Accuracy":1,"Outcome":"-10","Keys":[1842.399999994086],"TotalKeys":1,"Block":2,"Trial":124,"Robot":3,"Valence":"Lose","Action":"Go","Sham":1,"Color":"yellow","trial_type":"pit-trial","trial_index":142,"time_elapsed":559416,"internal_node_id":"0.0-131.0","task_version":"test-retest-t3"},{"Rune":"rune_05_ior","Hex":"#ffcc3399","Correct":-1,"Choice":32,"RT":747.7550000185147,"Accuracy":0,"Outcome":"-10","Keys":[2248.470000020461],"TotalKeys":1,"Block":2,"Trial":125,"Robot":4,"Valence":"Lose","Action":"No-Go","Sham":0,"Color":"yellow","trial_type":"pit-trial","trial_index":143,"time_elapsed":562669,"internal_node_id":"0.0-132.0","task_version":"test-retest-t3"},{"Rune":"rune_05_gebo","Hex":"#ffcc3399","Correct":32,"Choice":-1,"RT":-1,"Accuracy":0,"Outcome":"-10","Keys":[3032.085000013467],"TotalKeys":1,"Block":2,"Trial":126,"Robot":3,"Valence":"Lose","Action":"Go","Sham":0,"Color":"yellow","trial_type":"pit-trial","trial_index":144,"time_elapsed":566675,"internal_node_id":"0.0-133.0","task_version":"test-retest-t3"},{"Rune":"rune_05_jeran","Hex":"#3366ff99","Correct":32,"Choice":-1,"RT":-1,"Accuracy":0,"Outcome":"+10","Keys":[],"TotalKeys":0,"Block":2,"Trial":127,"Robot":1,"Valence":"Win","Action":"Go","Sham":1,"Color":"blue","trial_type":"pit-trial","trial_index":145,"time_elapsed":570681,"internal_node_id":"0.0-134.0","task_version":"test-retest-t3"},{"Rune":"rune_05_tiwaz","Hex":"#3366ff99","Correct":-1,"Choice":32,"RT":407.60999999474734,"Accuracy":0,"Outcome":"+10","Keys":[1908.2300000009127],"TotalKeys":1,"Block":2,"Trial":128,"Robot":2,"Valence":"Win","Action":"No-Go","Sham":1,"Color":"blue","trial_type":"pit-trial","trial_index":146,"time_elapsed":573595,"internal_node_id":"0.0-135.0","task_version":"test-retest-t3"},{"Rune":"rune_05_gebo","Hex":"#ffcc3399","Correct":32,"Choice":-1,"RT":-1,"Accuracy":0,"Outcome":"-10","Keys":[],"TotalKeys":0,"Block":2,"Trial":129,"Robot":3,"Valence":"Lose","Action":"Go","Sham":0,"Color":"yellow","trial_type":"pit-trial","trial_index":147,"time_elapsed":577600,"internal_node_id":"0.0-136.0","task_version":"test-retest-t3"},{"Rune":"rune_05_ior","Hex":"#ffcc3399","Correct":-1,"Choice":32,"RT":498.33000000217,"Accuracy":0,"Outcome":"-1","Keys":[1999.7499999881256],"TotalKeys":1,"Block":2,"Trial":130,"Robot":4,"Valence":"Lose","Action":"No-Go","Sham":1,"Color":"yellow","trial_type":"pit-trial","trial_index":148,"time_elapsed":580605,"internal_node_id":"0.0-137.0","task_version":"test-retest-t3"},{"Rune":"rune_05_tiwaz","Hex":"#3366ff99","Correct":-1,"Choice":32,"RT":459.68999998876825,"Accuracy":0,"Outcome":"+1","Keys":[1960.5199999932665],"TotalKeys":1,"Block":2,"Trial":131,"Robot":2,"Valence":"Win","Action":"No-Go","Sham":0,"Color":"blue","trial_type":"pit-trial","trial_index":149,"time_elapsed":583570,"internal_node_id":"0.0-138.0","task_version":"test-retest-t3"},{"Rune":"rune_05_jeran","Hex":"#3366ff99","Correct":32,"Choice":-1,"RT":-1,"Accuracy":0,"Outcome":"+1","Keys":[],"TotalKeys":0,"Block":2,"Trial":132,"Robot":1,"Valence":"Win","Action":"Go","Sham":0,"Color":"blue","trial_type":"pit-trial","trial_index":150,"time_elapsed":587577,"internal_node_id":"0.0-139.0","task_version":"test-retest-t3"},{"Rune":"rune_05_ior","Hex":"#ffcc3399","Correct":-1,"Choice":32,"RT":466.084999992745,"Accuracy":0,"Outcome":"-10","Keys":[1966.9750000175554],"TotalKeys":1,"Block":2,"Trial":133,"Robot":4,"Valence":"Lose","Action":"No-Go","Sham":0,"Color":"yellow","trial_type":"pit-trial","trial_index":151,"time_elapsed":590549,"internal_node_id":"0.0-140.0","task_version":"test-retest-t3"},{"Rune":"rune_05_jeran","Hex":"#3366ff99","Correct":32,"Choice":-1,"RT":-1,"Accuracy":0,"Outcome":"+1","Keys":[],"TotalKeys":0,"Block":2,"Trial":134,"Robot":1,"Valence":"Win","Action":"Go","Sham":0,"Color":"blue","trial_type":"pit-trial","trial_index":152,"time_elapsed":594555,"internal_node_id":"0.0-141.0","task_version":"test-retest-t3"},{"Rune":"rune_05_tiwaz","Hex":"#3366ff99","Correct":-1,"Choice":32,"RT":460.11000001453795,"Accuracy":0,"Outcome":"+1","Keys":[1961.2150000175461],"TotalKeys":1,"Block":2,"Trial":135,"Robot":2,"Valence":"Win","Action":"No-Go","Sham":0,"Color":"blue","trial_type":"pit-trial","trial_index":153,"time_elapsed":597522,"internal_node_id":"0.0-142.0","task_version":"test-retest-t3"},{"Rune":"rune_05_gebo","Hex":"#ffcc3399","Correct":32,"Choice":-1,"RT":-1,"Accuracy":0,"Outcome":"-10","Keys":[],"TotalKeys":0,"Block":2,"Trial":136,"Robot":3,"Valence":"Lose","Action":"Go","Sham":0,"Color":"yellow","trial_type":"pit-trial","trial_index":154,"time_elapsed":601527,"internal_node_id":"0.0-143.0","task_version":"test-retest-t3"},{"Rune":"rune_05_jeran","Hex":"#3366ff99","Correct":32,"Choice":-1,"RT":-1,"Accuracy":0,"Outcome":"+1","Keys":[],"TotalKeys":0,"Block":2,"Trial":137,"Robot":1,"Valence":"Win","Action":"Go","Sham":0,"Color":"blue","trial_type":"pit-trial","trial_index":155,"time_elapsed":605533,"internal_node_id":"0.0-144.0","task_version":"test-retest-t3"},{"Rune":"rune_05_tiwaz","Hex":"#3366ff99","Correct":-1,"Choice":32,"RT":386.43499999307096,"Accuracy":0,"Outcome":"+1","Keys":[1886.979999981122],"TotalKeys":1,"Block":2,"Trial":138,"Robot":2,"Valence":"Win","Action":"No-Go","Sham":0,"Color":"blue","trial_type":"pit-trial","trial_index":156,"time_elapsed":608425,"internal_node_id":"0.0-145.0","task_version":"test-retest-t3"},{"Rune":"rune_05_ior","Hex":"#ffcc3399","Correct":-1,"Choice":-1,"RT":-1,"Accuracy":1,"Outcome":"-1","Keys":[],"TotalKeys":0,"Block":2,"Trial":139,"Robot":4,"Valence":"Lose","Action":"No-Go","Sham":0,"Color":"yellow","trial_type":"pit-trial","trial_index":157,"time_elapsed":612429,"internal_node_id":"0.0-146.0","task_version":"test-retest-t3"},{"Rune":"rune_05_gebo","Hex":"#ffcc3399","Correct":32,"Choice":32,"RT":434.4250000140164,"Accuracy":1,"Outcome":"-1","Keys":[1935.2450000005774],"TotalKeys":1,"Block":2,"Trial":140,"Robot":3,"Valence":"Lose","Action":"Go","Sham":0,"Color":"yellow","trial_type":"pit-trial","trial_index":158,"time_elapsed":615370,"internal_node_id":"0.0-147.0","task_version":"test-retest-t3"},{"Rune":"rune_05_jeran","Hex":"#3366ff99","Correct":32,"Choice":-1,"RT":-1,"Accuracy":0,"Outcome":"+1","Keys":[],"TotalKeys":0,"Block":2,"Trial":141,"Robot":1,"Valence":"Win","Action":"Go","Sham":0,"Color":"blue","trial_type":"pit-trial","trial_index":159,"time_elapsed":619376,"internal_node_id":"0.0-148.0","task_version":"test-retest-t3"},{"Rune":"rune_05_ior","Hex":"#ffcc3399","Correct":-1,"Choice":-1,"RT":-1,"Accuracy":1,"Outcome":"-1","Keys":[],"TotalKeys":0,"Block":2,"Trial":142,"Robot":4,"Valence":"Lose","Action":"No-Go","Sham":0,"Color":"yellow","trial_type":"pit-trial","trial_index":160,"time_elapsed":623381,"internal_node_id":"0.0-149.0","task_version":"test-retest-t3"},{"Rune":"rune_05_tiwaz","Hex":"#3366ff99","Correct":-1,"Choice":32,"RT":641.07499999227,"Accuracy":0,"Outcome":"+1","Keys":[2141.334999992978],"TotalKeys":1,"Block":2,"Trial":143,"Robot":2,"Valence":"Win","Action":"No-Go","Sham":0,"Color":"blue","trial_type":"pit-trial","trial_index":161,"time_elapsed":626527,"internal_node_id":"0.0-150.0","task_version":"test-retest-t3"},{"Rune":"rune_05_gebo","Hex":"#ffcc3399","Correct":32,"Choice":32,"RT":442.9250000102911,"Accuracy":1,"Outcome":"-1","Keys":[1943.9000000129454],"TotalKeys":1,"Block":2,"Trial":144,"Robot":3,"Valence":"Lose","Action":"Go","Sham":0,"Color":"yellow","trial_type":"pit-trial","trial_index":162,"time_elapsed":629476,"internal_node_id":"0.0-151.0","task_version":"test-retest-t3"},{"Rune":"rune_05_tiwaz","Hex":"#3366ff99","Correct":-1,"Choice":32,"RT":317.7549999963958,"Accuracy":0,"Outcome":"+10","Keys":[1818.4499999915715],"TotalKeys":1,"Block":2,"Trial":145,"Robot":2,"Valence":"Win","Action":"No-Go","Sham":1,"Color":"blue","trial_type":"pit-trial","trial_index":163,"time_elapsed":632299,"internal_node_id":"0.0-152.0","task_version":"test-retest-t3"},{"Rune":"rune_05_gebo","Hex":"#ffcc3399","Correct":32,"Choice":32,"RT":532.9649999912363,"Accuracy":1,"Outcome":"-1","Keys":[2033.9200000162236],"TotalKeys":1,"Block":2,"Trial":146,"Robot":3,"Valence":"Lose","Action":"Go","Sham":0,"Color":"yellow","trial_type":"pit-trial","trial_index":164,"time_elapsed":635338,"internal_node_id":"0.0-153.0","task_version":"test-retest-t3"},{"Rune":"rune_05_ior","Hex":"#ffcc3399","Correct":-1,"Choice":-1,"RT":-1,"Accuracy":1,"Outcome":"-1","Keys":[],"TotalKeys":0,"Block":2,"Trial":147,"Robot":4,"Valence":"Lose","Action":"No-Go","Sham":0,"Color":"yellow","trial_type":"pit-trial","trial_index":165,"time_elapsed":639343,"internal_node_id":"0.0-154.0","task_version":"test-retest-t3"},{"Rune":"rune_05_jeran","Hex":"#3366ff99","Correct":32,"Choice":-1,"RT":-1,"Accuracy":0,"Outcome":"+1","Keys":[],"TotalKeys":0,"Block":2,"Trial":148,"Robot":1,"Valence":"Win","Action":"Go","Sham":0,"Color":"blue","trial_type":"pit-trial","trial_index":166,"time_elapsed":643351,"internal_node_id":"0.0-155.0","task_version":"test-retest-t3"},{"Rune":"rune_05_tiwaz","Hex":"#3366ff99","Correct":-1,"Choice":32,"RT":344.375000015134,"Accuracy":0,"Outcome":"+1","Keys":[1845.3900000022259],"TotalKeys":1,"Block":2,"Trial":149,"Robot":2,"Valence":"Win","Action":"No-Go","Sham":0,"Color":"blue","trial_type":"pit-trial","trial_index":167,"time_elapsed":646202,"internal_node_id":"0.0-156.0","task_version":"test-retest-t3"},{"Rune":"rune_05_gebo","Hex":"#ffcc3399","Correct":32,"Choice":32,"RT":637.959999992745,"Accuracy":1,"Outcome":"-10","Keys":[2138.280000013765],"TotalKeys":1,"Block":2,"Trial":150,"Robot":3,"Valence":"Lose","Action":"Go","Sham":1,"Color":"yellow","trial_type":"pit-trial","trial_index":168,"time_elapsed":649345,"internal_node_id":"0.0-157.0","task_version":"test-retest-t3"},{"Rune":"rune_05_jeran","Hex":"#3366ff99","Correct":32,"Choice":-1,"RT":-1,"Accuracy":0,"Outcome":"+1","Keys":[],"TotalKeys":0,"Block":2,"Trial":151,"Robot":1,"Valence":"Win","Action":"Go","Sham":0,"Color":"blue","trial_type":"pit-trial","trial_index":169,"time_elapsed":653352,"internal_node_id":"0.0-158.0","task_version":"test-retest-t3"},{"Rune":"rune_05_ior","Hex":"#ffcc3399","Correct":-1,"Choice":-1,"RT":-1,"Accuracy":1,"Outcome":"-1","Keys":[],"TotalKeys":0,"Block":2,"Trial":152,"Robot":4,"Valence":"Lose","Action":"No-Go","Sham":0,"Color":"yellow","trial_type":"pit-trial","trial_index":170,"time_elapsed":657356,"internal_node_id":"0.0-159.0","task_version":"test-retest-t3"},{"Rune":"rune_05_jeran","Hex":"#3366ff99","Correct":32,"Choice":-1,"RT":-1,"Accuracy":0,"Outcome":"+1","Keys":[],"TotalKeys":0,"Block":2,"Trial":153,"Robot":1,"Valence":"Win","Action":"Go","Sham":0,"Color":"blue","trial_type":"pit-trial","trial_index":171,"time_elapsed":661362,"internal_node_id":"0.0-160.0","task_version":"test-retest-t3"},{"Rune":"rune_05_ior","Hex":"#ffcc3399","Correct":-1,"Choice":-1,"RT":-1,"Accuracy":1,"Outcome":"-1","Keys":[],"TotalKeys":0,"Block":2,"Trial":154,"Robot":4,"Valence":"Lose","Action":"No-Go","Sham":0,"Color":"yellow","trial_type":"pit-trial","trial_index":172,"time_elapsed":665367,"internal_node_id":"0.0-161.0","task_version":"test-retest-t3"},{"Rune":"rune_05_gebo","Hex":"#ffcc3399","Correct":32,"Choice":32,"RT":493.6900000029709,"Accuracy":1,"Outcome":"-1","Keys":[1994.009999994887],"TotalKeys":1,"Block":2,"Trial":155,"Robot":3,"Valence":"Lose","Action":"Go","Sham":0,"Color":"yellow","trial_type":"pit-trial","trial_index":173,"time_elapsed":668366,"internal_node_id":"0.0-162.0","task_version":"test-retest-t3"},{"Rune":"rune_05_tiwaz","Hex":"#3366ff99","Correct":-1,"Choice":32,"RT":425.23000002256595,"Accuracy":0,"Outcome":"+1","Keys":[1925.9599999932107],"TotalKeys":1,"Block":2,"Trial":156,"Robot":2,"Valence":"Win","Action":"No-Go","Sham":0,"Color":"blue","trial_type":"pit-trial","trial_index":174,"time_elapsed":671297,"internal_node_id":"0.0-163.0","task_version":"test-retest-t3"},{"Rune":"rune_05_gebo","Hex":"#ffcc3399","Correct":32,"Choice":32,"RT":557.7499999781139,"Accuracy":1,"Outcome":"-1","Keys":[2057.925000000978],"TotalKeys":1,"Block":2,"Trial":157,"Robot":3,"Valence":"Lose","Action":"Go","Sham":0,"Color":"yellow","trial_type":"pit-trial","trial_index":175,"time_elapsed":674359,"internal_node_id":"0.0-164.0","task_version":"test-retest-t3"},{"Rune":"rune_05_jeran","Hex":"#3366ff99","Correct":32,"Choice":-1,"RT":-1,"Accuracy":0,"Outcome":"+10","Keys":[],"TotalKeys":0,"Block":2,"Trial":158,"Robot":1,"Valence":"Win","Action":"Go","Sham":1,"Color":"blue","trial_type":"pit-trial","trial_index":176,"time_elapsed":678365,"internal_node_id":"0.0-165.0","task_version":"test-retest-t3"},{"Rune":"rune_05_tiwaz","Hex":"#3366ff99","Correct":-1,"Choice":32,"RT":320.9400000050664,"Accuracy":0,"Outcome":"+1","Keys":[1821.1350000055972],"TotalKeys":1,"Block":2,"Trial":159,"Robot":2,"Valence":"Win","Action":"No-Go","Sham":0,"Color":"blue","trial_type":"pit-trial","trial_index":177,"time_elapsed":681192,"internal_node_id":"0.0-166.0","task_version":"test-retest-t3"},{"Rune":"rune_05_ior","Hex":"#ffcc3399","Correct":-1,"Choice":-1,"RT":-1,"Accuracy":1,"Outcome":"-10","Keys":[],"TotalKeys":0,"Block":2,"Trial":160,"Robot":4,"Valence":"Lose","Action":"No-Go","Sham":1,"Color":"yellow","trial_type":"pit-trial","trial_index":178,"time_elapsed":685197,"internal_node_id":"0.0-167.0","task_version":"test-retest-t3"},{"Rune":"rune_05_jeran","Hex":"#3366ff99","Correct":32,"Choice":-1,"RT":-1,"Accuracy":0,"Outcome":"+10","Keys":[],"TotalKeys":0,"Block":2,"Trial":161,"Robot":1,"Valence":"Win","Action":"Go","Sham":1,"Color":"blue","trial_type":"pit-trial","trial_index":179,"time_elapsed":689202,"internal_node_id":"0.0-168.0","task_version":"test-retest-t3"},{"Rune":"rune_05_tiwaz","Hex":"#3366ff99","Correct":-1,"Choice":32,"RT":511.07999999658205,"Accuracy":0,"Outcome":"+1","Keys":[2011.1800000013318],"TotalKeys":1,"Block":2,"Trial":162,"Robot":2,"Valence":"Win","Action":"No-Go","Sham":0,"Color":"blue","trial_type":"pit-trial","trial_index":180,"time_elapsed":692218,"internal_node_id":"0.0-169.0","task_version":"test-retest-t3"},{"Rune":"rune_05_gebo","Hex":"#ffcc3399","Correct":32,"Choice":32,"RT":1109.1700000106357,"Accuracy":1,"Outcome":"-1","Keys":[2610.4749999940395],"TotalKeys":1,"Block":2,"Trial":163,"Robot":3,"Valence":"Lose","Action":"Go","Sham":0,"Color":"yellow","trial_type":"pit-trial","trial_index":181,"time_elapsed":695834,"internal_node_id":"0.0-170.0","task_version":"test-retest-t3"},{"Rune":"rune_05_ior","Hex":"#ffcc3399","Correct":-1,"Choice":-1,"RT":-1,"Accuracy":1,"Outcome":"-1","Keys":[],"TotalKeys":0,"Block":2,"Trial":164,"Robot":4,"Valence":"Lose","Action":"No-Go","Sham":0,"Color":"yellow","trial_type":"pit-trial","trial_index":182,"time_elapsed":699840,"internal_node_id":"0.0-171.0","task_version":"test-retest-t3"},{"Rune":"rune_05_jeran","Hex":"#3366ff99","Correct":32,"Choice":32,"RT":624.8900000064168,"Accuracy":1,"Outcome":"+10","Keys":[2125.0749999890104],"TotalKeys":1,"Block":2,"Trial":165,"Robot":1,"Valence":"Win","Action":"Go","Sham":0,"Color":"blue","trial_type":"pit-trial","trial_index":183,"time_elapsed":702969,"internal_node_id":"0.0-172.0","task_version":"test-retest-t3"},{"Rune":"rune_05_gebo","Hex":"#ffcc3399","Correct":32,"Choice":32,"RT":950.989999982994,"Accuracy":1,"Outcome":"-10","Keys":[2451.1249999923166],"TotalKeys":1,"Block":2,"Trial":166,"Robot":3,"Valence":"Lose","Action":"Go","Sham":1,"Color":"yellow","trial_type":"pit-trial","trial_index":184,"time_elapsed":706425,"internal_node_id":"0.0-173.0","task_version":"test-retest-t3"},{"Rune":"rune_05_ior","Hex":"#ffcc3399","Correct":-1,"Choice":-1,"RT":-1,"Accuracy":1,"Outcome":"-1","Keys":[],"TotalKeys":0,"Block":2,"Trial":167,"Robot":4,"Valence":"Lose","Action":"No-Go","Sham":0,"Color":"yellow","trial_type":"pit-trial","trial_index":185,"time_elapsed":710431,"internal_node_id":"0.0-174.0","task_version":"test-retest-t3"},{"Rune":"rune_05_tiwaz","Hex":"#3366ff99","Correct":-1,"Choice":-1,"RT":-1,"Accuracy":1,"Outcome":"+10","Keys":[],"TotalKeys":0,"Block":2,"Trial":168,"Robot":2,"Valence":"Win","Action":"No-Go","Sham":0,"Color":"blue","trial_type":"pit-trial","trial_index":186,"time_elapsed":714436,"internal_node_id":"0.0-175.0","task_version":"test-retest-t3"},{"Rune":"rune_05_tiwaz","Hex":"#3366ff99","Correct":-1,"Choice":-1,"RT":-1,"Accuracy":1,"Outcome":"+1","Keys":[],"TotalKeys":0,"Block":2,"Trial":169,"Robot":2,"Valence":"Win","Action":"No-Go","Sham":1,"Color":"blue","trial_type":"pit-trial","trial_index":187,"time_elapsed":718443,"internal_node_id":"0.0-176.0","task_version":"test-retest-t3"},{"Rune":"rune_05_gebo","Hex":"#ffcc3399","Correct":32,"Choice":32,"RT":460.27999999932945,"Accuracy":1,"Outcome":"-1","Keys":[1960.3100000240374],"TotalKeys":1,"Block":2,"Trial":170,"Robot":3,"Valence":"Lose","Action":"Go","Sham":0,"Color":"yellow","trial_type":"pit-trial","trial_index":188,"time_elapsed":721407,"internal_node_id":"0.0-177.0","task_version":"test-retest-t3"},{"Rune":"rune_05_ior","Hex":"#ffcc3399","Correct":-1,"Choice":-1,"RT":-1,"Accuracy":1,"Outcome":"-1","Keys":[],"TotalKeys":0,"Block":2,"Trial":171,"Robot":4,"Valence":"Lose","Action":"No-Go","Sham":0,"Color":"yellow","trial_type":"pit-trial","trial_index":189,"time_elapsed":725413,"internal_node_id":"0.0-178.0","task_version":"test-retest-t3"},{"Rune":"rune_05_jeran","Hex":"#3366ff99","Correct":32,"Choice":32,"RT":524.329999985639,"Accuracy":1,"Outcome":"+10","Keys":[2025.2949999994598],"TotalKeys":1,"Block":2,"Trial":172,"Robot":1,"Valence":"Win","Action":"Go","Sham":0,"Color":"blue","trial_type":"pit-trial","trial_index":190,"time_elapsed":728444,"internal_node_id":"0.0-179.0","task_version":"test-retest-t3"},{"Rune":"rune_05_ior","Hex":"#ffcc3399","Correct":-1,"Choice":-1,"RT":-1,"Accuracy":1,"Outcome":"-1","Keys":[],"TotalKeys":0,"Block":2,"Trial":173,"Robot":4,"Valence":"Lose","Action":"No-Go","Sham":0,"Color":"yellow","trial_type":"pit-trial","trial_index":191,"time_elapsed":732450,"internal_node_id":"0.0-180.0","task_version":"test-retest-t3"},{"Rune":"rune_05_tiwaz","Hex":"#3366ff99","Correct":-1,"Choice":-1,"RT":-1,"Accuracy":1,"Outcome":"+10","Keys":[],"TotalKeys":0,"Block":2,"Trial":174,"Robot":2,"Valence":"Win","Action":"No-Go","Sham":0,"Color":"blue","trial_type":"pit-trial","trial_index":192,"time_elapsed":736456,"internal_node_id":"0.0-181.0","task_version":"test-retest-t3"},{"Rune":"rune_05_jeran","Hex":"#3366ff99","Correct":32,"Choice":32,"RT":616.1299999803305,"Accuracy":1,"Outcome":"+10","Keys":[2116.8950000137556],"TotalKeys":1,"Block":2,"Trial":175,"Robot":1,"Valence":"Win","Action":"Go","Sham":0,"Color":"blue","trial_type":"pit-trial","trial_index":193,"time_elapsed":739577,"internal_node_id":"0.0-182.0","task_version":"test-retest-t3"},{"Rune":"rune_05_gebo","Hex":"#ffcc3399","Correct":32,"Choice":32,"RT":709.7500000090804,"Accuracy":1,"Outcome":"-1","Keys":[2210.80499998061],"TotalKeys":1,"Block":2,"Trial":176,"Robot":3,"Valence":"Lose","Action":"Go","Sham":0,"Color":"yellow","trial_type":"pit-trial","trial_index":194,"time_elapsed":742792,"internal_node_id":"0.0-183.0","task_version":"test-retest-t3"},{"Rune":"rune_05_ior","Hex":"#ffcc3399","Correct":-1,"Choice":-1,"RT":-1,"Accuracy":1,"Outcome":"-10","Keys":[],"TotalKeys":0,"Block":2,"Trial":177,"Robot":4,"Valence":"Lose","Action":"No-Go","Sham":1,"Color":"yellow","trial_type":"pit-trial","trial_index":195,"time_elapsed":746799,"internal_node_id":"0.0-184.0","task_version":"test-retest-t3"},{"Rune":"rune_05_gebo","Hex":"#ffcc3399","Correct":32,"Choice":32,"RT":628.6149999941699,"Accuracy":1,"Outcome":"-1","Keys":[2129.719999997178],"TotalKeys":1,"Block":2,"Trial":178,"Robot":3,"Valence":"Lose","Action":"Go","Sham":0,"Color":"yellow","trial_type":"pit-trial","trial_index":196,"time_elapsed":749934,"internal_node_id":"0.0-185.0","task_version":"test-retest-t3"},{"Rune":"rune_05_tiwaz","Hex":"#3366ff99","Correct":-1,"Choice":-1,"RT":-1,"Accuracy":1,"Outcome":"+10","Keys":[],"TotalKeys":0,"Block":2,"Trial":179,"Robot":2,"Valence":"Win","Action":"No-Go","Sham":0,"Color":"blue","trial_type":"pit-trial","trial_index":197,"time_elapsed":753940,"internal_node_id":"0.0-186.0","task_version":"test-retest-t3"},{"Rune":"rune_05_jeran","Hex":"#3366ff99","Correct":32,"Choice":32,"RT":560.6350000016391,"Accuracy":1,"Outcome":"+10","Keys":[2060.8500000089407],"TotalKeys":1,"Block":2,"Trial":180,"Robot":1,"Valence":"Win","Action":"Go","Sham":0,"Color":"blue","trial_type":"pit-trial","trial_index":198,"time_elapsed":757005,"internal_node_id":"0.0-187.0","task_version":"test-retest-t3"},{"view_history":"[{\"page_index\":0,\"viewing_time\":2018.9550000068266},{\"page_index\":1,\"viewing_time\":908.3849999879021}]","rt":2927.639999979874,"trial_type":"pit-instructions","trial_index":199,"time_elapsed":759936,"internal_node_id":"0.0-188.0","task_version":"test-retest-t3"},{"Rune":"rune_05_jeran","Hex":"#3366ff99","Correct":32,"Choice":32,"RT":400.4150000109803,"Accuracy":1,"Outcome":"+10","Keys":[1900.5949999846052],"TotalKeys":1,"Block":2,"Trial":181,"Robot":1,"Valence":"Win","Action":"Go","Sham":0,"Color":"blue","trial_type":"pit-trial","trial_index":200,"time_elapsed":762843,"internal_node_id":"0.0-189.0","task_version":"test-retest-t3"},{"Rune":"rune_05_gebo","Hex":"#ffcc3399","Correct":32,"Choice":32,"RT":384.810000017751,"Accuracy":1,"Outcome":"-1","Keys":[1885.8150000160094],"TotalKeys":1,"Block":2,"Trial":182,"Robot":3,"Valence":"Lose","Action":"Go","Sham":0,"Color":"yellow","trial_type":"pit-trial","trial_index":201,"time_elapsed":765734,"internal_node_id":"0.0-190.0","task_version":"test-retest-t3"},{"Rune":"rune_05_ior","Hex":"#ffcc3399","Correct":-1,"Choice":-1,"RT":-1,"Accuracy":1,"Outcome":"-1","Keys":[],"TotalKeys":0,"Block":2,"Trial":183,"Robot":4,"Valence":"Lose","Action":"No-Go","Sham":0,"Color":"yellow","trial_type":"pit-trial","trial_index":202,"time_elapsed":769751,"internal_node_id":"0.0-191.0","task_version":"test-retest-t3"},{"Rune":"rune_05_tiwaz","Hex":"#3366ff99","Correct":-1,"Choice":-1,"RT":-1,"Accuracy":1,"Outcome":"+10","Keys":[],"TotalKeys":0,"Block":2,"Trial":184,"Robot":2,"Valence":"Win","Action":"No-Go","Sham":0,"Color":"blue","trial_type":"pit-trial","trial_index":203,"time_elapsed":773756,"internal_node_id":"0.0-192.0","task_version":"test-retest-t3"},{"Rune":"rune_05_tiwaz","Hex":"#3366ff99","Correct":-1,"Choice":-1,"RT":-1,"Accuracy":1,"Outcome":"+10","Keys":[],"TotalKeys":0,"Block":2,"Trial":185,"Robot":2,"Valence":"Win","Action":"No-Go","Sham":0,"Color":"blue","trial_type":"pit-trial","trial_index":204,"time_elapsed":777761,"internal_node_id":"0.0-193.0","task_version":"test-retest-t3"},{"Rune":"rune_05_ior","Hex":"#ffcc3399","Correct":-1,"Choice":-1,"RT":-1,"Accuracy":1,"Outcome":"-1","Keys":[],"TotalKeys":0,"Block":2,"Trial":186,"Robot":4,"Valence":"Lose","Action":"No-Go","Sham":0,"Color":"yellow","trial_type":"pit-trial","trial_index":205,"time_elapsed":781767,"internal_node_id":"0.0-194.0","task_version":"test-retest-t3"},{"Rune":"rune_05_gebo","Hex":"#ffcc3399","Correct":32,"Choice":32,"RT":445.6800000043586,"Accuracy":1,"Outcome":"-1","Keys":[1946.1600000213366],"TotalKeys":1,"Block":2,"Trial":187,"Robot":3,"Valence":"Lose","Action":"Go","Sham":0,"Color":"yellow","trial_type":"pit-trial","trial_index":206,"time_elapsed":784719,"internal_node_id":"0.0-195.0","task_version":"test-retest-t3"},{"Rune":"rune_05_jeran","Hex":"#3366ff99","Correct":32,"Choice":32,"RT":390.0450000073761,"Accuracy":1,"Outcome":"+1","Keys":[1891.0500000056345],"TotalKeys":1,"Block":2,"Trial":188,"Robot":1,"Valence":"Win","Action":"Go","Sham":1,"Color":"blue","trial_type":"pit-trial","trial_index":207,"time_elapsed":787615,"internal_node_id":"0.0-196.0","task_version":"test-retest-t3"},{"Rune":"rune_05_jeran","Hex":"#3366ff99","Correct":32,"Choice":32,"RT":480.70499999448657,"Accuracy":1,"Outcome":"+10","Keys":[1981.7600000242237],"TotalKeys":1,"Block":2,"Trial":189,"Robot":1,"Valence":"Win","Action":"Go","Sham":0,"Color":"blue","trial_type":"pit-trial","trial_index":208,"time_elapsed":790602,"internal_node_id":"0.0-197.0","task_version":"test-retest-t3"},{"Rune":"rune_05_ior","Hex":"#ffcc3399","Correct":-1,"Choice":-1,"RT":-1,"Accuracy":1,"Outcome":"-10","Keys":[],"TotalKeys":0,"Block":2,"Trial":190,"Robot":4,"Valence":"Lose","Action":"No-Go","Sham":1,"Color":"yellow","trial_type":"pit-trial","trial_index":209,"time_elapsed":794608,"internal_node_id":"0.0-198.0","task_version":"test-retest-t3"},{"Rune":"rune_05_gebo","Hex":"#ffcc3399","Correct":32,"Choice":32,"RT":599.1349999967497,"Accuracy":1,"Outcome":"-1","Keys":[2099.2649999971036],"TotalKeys":1,"Block":2,"Trial":191,"Robot":3,"Valence":"Lose","Action":"Go","Sham":0,"Color":"yellow","trial_type":"pit-trial","trial_index":210,"time_elapsed":797713,"internal_node_id":"0.0-199.0","task_version":"test-retest-t3"},{"Rune":"rune_05_tiwaz","Hex":"#3366ff99","Correct":-1,"Choice":-1,"RT":-1,"Accuracy":1,"Outcome":"+10","Keys":[],"TotalKeys":0,"Block":2,"Trial":192,"Robot":2,"Valence":"Win","Action":"No-Go","Sham":0,"Color":"blue","trial_type":"pit-trial","trial_index":211,"time_elapsed":801719,"internal_node_id":"0.0-200.0","task_version":"test-retest-t3"},{"Rune":"rune_05_jeran","Hex":"#3366ff99","Correct":32,"Choice":32,"RT":404.8449999827426,"Accuracy":1,"Outcome":"+10","Keys":[1905.6649999984074],"TotalKeys":1,"Block":2,"Trial":193,"Robot":1,"Valence":"Win","Action":"Go","Sham":0,"Color":"blue","trial_type":"pit-trial","trial_index":212,"time_elapsed":804629,"internal_node_id":"0.0-201.0","task_version":"test-retest-t3"},{"Rune":"rune_05_gebo","Hex":"#ffcc3399","Correct":32,"Choice":32,"RT":1002.6850000140257,"Accuracy":1,"Outcome":"-10","Keys":[2503.449999989243],"TotalKeys":1,"Block":2,"Trial":194,"Robot":3,"Valence":"Lose","Action":"Go","Sham":1,"Color":"yellow","trial_type":"pit-trial","trial_index":213,"time_elapsed":808138,"internal_node_id":"0.0-202.0","task_version":"test-retest-t3"},{"Rune":"rune_05_ior","Hex":"#ffcc3399","Correct":-1,"Choice":-1,"RT":-1,"Accuracy":1,"Outcome":"-1","Keys":[],"TotalKeys":0,"Block":2,"Trial":195,"Robot":4,"Valence":"Lose","Action":"No-Go","Sham":0,"Color":"yellow","trial_type":"pit-trial","trial_index":214,"time_elapsed":812144,"internal_node_id":"0.0-203.0","task_version":"test-retest-t3"},{"Rune":"rune_05_tiwaz","Hex":"#3366ff99","Correct":-1,"Choice":-1,"RT":-1,"Accuracy":1,"Outcome":"+1","Keys":[],"TotalKeys":0,"Block":2,"Trial":196,"Robot":2,"Valence":"Win","Action":"No-Go","Sham":1,"Color":"blue","trial_type":"pit-trial","trial_index":215,"time_elapsed":816151,"internal_node_id":"0.0-204.0","task_version":"test-retest-t3"},{"Rune":"rune_05_tiwaz","Hex":"#3366ff99","Correct":-1,"Choice":-1,"RT":-1,"Accuracy":1,"Outcome":"+10","Keys":[],"TotalKeys":0,"Block":2,"Trial":197,"Robot":2,"Valence":"Win","Action":"No-Go","Sham":0,"Color":"blue","trial_type":"pit-trial","trial_index":216,"time_elapsed":820158,"internal_node_id":"0.0-205.0","task_version":"test-retest-t3"},{"Rune":"rune_05_gebo","Hex":"#ffcc3399","Correct":32,"Choice":32,"RT":518.3250000118278,"Accuracy":1,"Outcome":"-1","Keys":[2019.3950000102632],"TotalKeys":1,"Block":2,"Trial":198,"Robot":3,"Valence":"Lose","Action":"Go","Sham":0,"Color":"yellow","trial_type":"pit-trial","trial_index":217,"time_elapsed":823182,"internal_node_id":"0.0-206.0","task_version":"test-retest-t3"},{"Rune":"rune_05_jeran","Hex":"#3366ff99","Correct":32,"Choice":32,"RT":516.8300000077579,"Accuracy":1,"Outcome":"+10","Keys":[2017.3899999936111],"TotalKeys":1,"Block":2,"Trial":199,"Robot":1,"Valence":"Win","Action":"Go","Sham":0,"Color":"blue","trial_type":"pit-trial","trial_index":218,"time_elapsed":826204,"internal_node_id":"0.0-207.0","task_version":"test-retest-t3"},{"Rune":"rune_05_ior","Hex":"#ffcc3399","Correct":-1,"Choice":-1,"RT":-1,"Accuracy":1,"Outcome":"-1","Keys":[],"TotalKeys":0,"Block":2,"Trial":200,"Robot":4,"Valence":"Lose","Action":"No-Go","Sham":0,"Color":"yellow","trial_type":"pit-trial","trial_index":219,"time_elapsed":830209,"internal_node_id":"0.0-208.0","task_version":"test-retest-t3"},{"Rune":"rune_05_gebo","Hex":"#ffcc3399","Correct":32,"Choice":32,"RT":387.4800000048708,"Accuracy":1,"Outcome":"-1","Keys":[1888.4200000029523],"TotalKeys":1,"Block":2,"Trial":201,"Robot":3,"Valence":"Lose","Action":"Go","Sham":0,"Color":"yellow","trial_type":"pit-trial","trial_index":220,"time_elapsed":833102,"internal_node_id":"0.0-209.0","task_version":"test-retest-t3"},{"Rune":"rune_05_ior","Hex":"#ffcc3399","Correct":-1,"Choice":-1,"RT":-1,"Accuracy":1,"Outcome":"-1","Keys":[],"TotalKeys":0,"Block":2,"Trial":202,"Robot":4,"Valence":"Lose","Action":"No-Go","Sham":0,"Color":"yellow","trial_type":"pit-trial","trial_index":221,"time_elapsed":837109,"internal_node_id":"0.0-210.0","task_version":"test-retest-t3"},{"Rune":"rune_05_jeran","Hex":"#3366ff99","Correct":32,"Choice":32,"RT":353.9150000142399,"Accuracy":1,"Outcome":"+10","Keys":[1853.995000012219],"TotalKeys":1,"Block":2,"Trial":203,"Robot":1,"Valence":"Win","Action":"Go","Sham":0,"Color":"blue","trial_type":"pit-trial","trial_index":222,"time_elapsed":839967,"internal_node_id":"0.0-211.0","task_version":"test-retest-t3"},{"Rune":"rune_05_tiwaz","Hex":"#3366ff99","Correct":-1,"Choice":-1,"RT":-1,"Accuracy":1,"Outcome":"+10","Keys":[],"TotalKeys":0,"Block":2,"Trial":204,"Robot":2,"Valence":"Win","Action":"No-Go","Sham":0,"Color":"blue","trial_type":"pit-trial","trial_index":223,"time_elapsed":843972,"internal_node_id":"0.0-212.0","task_version":"test-retest-t3"},{"Rune":"rune_05_tiwaz","Hex":"#3366ff99","Correct":-1,"Choice":-1,"RT":-1,"Accuracy":1,"Outcome":"+1","Keys":[],"TotalKeys":0,"Block":2,"Trial":205,"Robot":2,"Valence":"Win","Action":"No-Go","Sham":1,"Color":"blue","trial_type":"pit-trial","trial_index":224,"time_elapsed":847979,"internal_node_id":"0.0-213.0","task_version":"test-retest-t3"},{"Rune":"rune_05_jeran","Hex":"#3366ff99","Correct":32,"Choice":32,"RT":360.56500000995584,"Accuracy":1,"Outcome":"+10","Keys":[1860.899999999674],"TotalKeys":1,"Block":2,"Trial":206,"Robot":1,"Valence":"Win","Action":"Go","Sham":0,"Color":"blue","trial_type":"pit-trial","trial_index":225,"time_elapsed":850845,"internal_node_id":"0.0-214.0","task_version":"test-retest-t3"},{"Rune":"rune_05_ior","Hex":"#ffcc3399","Correct":-1,"Choice":-1,"RT":-1,"Accuracy":1,"Outcome":"-1","Keys":[],"TotalKeys":0,"Block":2,"Trial":207,"Robot":4,"Valence":"Lose","Action":"No-Go","Sham":0,"Color":"yellow","trial_type":"pit-trial","trial_index":226,"time_elapsed":854851,"internal_node_id":"0.0-215.0","task_version":"test-retest-t3"},{"Rune":"rune_05_gebo","Hex":"#ffcc3399","Correct":32,"Choice":32,"RT":451.84499997412786,"Accuracy":1,"Outcome":"-1","Keys":[1952.2450000222307],"TotalKeys":1,"Block":2,"Trial":208,"Robot":3,"Valence":"Lose","Action":"Go","Sham":0,"Color":"yellow","trial_type":"pit-trial","trial_index":227,"time_elapsed":857808,"internal_node_id":"0.0-216.0","task_version":"test-retest-t3"},{"Rune":"rune_05_ior","Hex":"#ffcc3399","Correct":-1,"Choice":-1,"RT":-1,"Accuracy":1,"Outcome":"-1","Keys":[],"TotalKeys":0,"Block":2,"Trial":209,"Robot":4,"Valence":"Lose","Action":"No-Go","Sham":0,"Color":"yellow","trial_type":"pit-trial","trial_index":228,"time_elapsed":861815,"internal_node_id":"0.0-217.0","task_version":"test-retest-t3"},{"Rune":"rune_05_gebo","Hex":"#ffcc3399","Correct":32,"Choice":32,"RT":490.9849999821745,"Accuracy":1,"Outcome":"-1","Keys":[1991.2899999762885],"TotalKeys":1,"Block":2,"Trial":210,"Robot":3,"Valence":"Lose","Action":"Go","Sham":0,"Color":"yellow","trial_type":"pit-trial","trial_index":229,"time_elapsed":864811,"internal_node_id":"0.0-218.0","task_version":"test-retest-t3"},{"Rune":"rune_05_jeran","Hex":"#3366ff99","Correct":32,"Choice":32,"RT":399.05999999609776,"Accuracy":1,"Outcome":"+10","Keys":[1899.5149999973364],"TotalKeys":1,"Block":2,"Trial":211,"Robot":1,"Valence":"Win","Action":"Go","Sham":0,"Color":"blue","trial_type":"pit-trial","trial_index":230,"time_elapsed":867716,"internal_node_id":"0.0-219.0","task_version":"test-retest-t3"},{"Rune":"rune_05_tiwaz","Hex":"#3366ff99","Correct":-1,"Choice":-1,"RT":-1,"Accuracy":1,"Outcome":"+10","Keys":[],"TotalKeys":0,"Block":2,"Trial":212,"Robot":2,"Valence":"Win","Action":"No-Go","Sham":0,"Color":"blue","trial_type":"pit-trial","trial_index":231,"time_elapsed":871721,"internal_node_id":"0.0-220.0","task_version":"test-retest-t3"},{"Rune":"rune_05_jeran","Hex":"#3366ff99","Correct":32,"Choice":32,"RT":509.11499999347143,"Accuracy":1,"Outcome":"+1","Keys":[2010.1750000030734],"TotalKeys":1,"Block":2,"Trial":213,"Robot":1,"Valence":"Win","Action":"Go","Sham":1,"Color":"blue","trial_type":"pit-trial","trial_index":232,"time_elapsed":874735,"internal_node_id":"0.0-221.0","task_version":"test-retest-t3"},{"Rune":"rune_05_gebo","Hex":"#ffcc3399","Correct":32,"Choice":32,"RT":557.5200000021141,"Accuracy":1,"Outcome":"-1","Keys":[2059.8449999815784],"TotalKeys":1,"Block":2,"Trial":214,"Robot":3,"Valence":"Lose","Action":"Go","Sham":0,"Color":"yellow","trial_type":"pit-trial","trial_index":233,"time_elapsed":877799,"internal_node_id":"0.0-222.0","task_version":"test-retest-t3"},{"Rune":"rune_05_tiwaz","Hex":"#3366ff99","Correct":-1,"Choice":-1,"RT":-1,"Accuracy":1,"Outcome":"+10","Keys":[],"TotalKeys":0,"Block":2,"Trial":215,"Robot":2,"Valence":"Win","Action":"No-Go","Sham":0,"Color":"blue","trial_type":"pit-trial","trial_index":234,"time_elapsed":881804,"internal_node_id":"0.0-223.0","task_version":"test-retest-t3"},{"Rune":"rune_05_ior","Hex":"#ffcc3399","Correct":-1,"Choice":-1,"RT":-1,"Accuracy":1,"Outcome":"-1","Keys":[],"TotalKeys":0,"Block":2,"Trial":216,"Robot":4,"Valence":"Lose","Action":"No-Go","Sham":0,"Color":"yellow","trial_type":"pit-trial","trial_index":235,"time_elapsed":885809,"internal_node_id":"0.0-224.0","task_version":"test-retest-t3"},{"Rune":"rune_05_ior","Hex":"#ffcc3399","Correct":-1,"Choice":-1,"RT":-1,"Accuracy":1,"Outcome":"-10","Keys":[],"TotalKeys":0,"Block":2,"Trial":217,"Robot":4,"Valence":"Lose","Action":"No-Go","Sham":1,"Color":"yellow","trial_type":"pit-trial","trial_index":236,"time_elapsed":889816,"internal_node_id":"0.0-225.0","task_version":"test-retest-t3"},{"Rune":"rune_05_jeran","Hex":"#3366ff99","Correct":32,"Choice":32,"RT":455.7949999871198,"Accuracy":1,"Outcome":"+10","Keys":[1957.1350000042003],"TotalKeys":1,"Block":2,"Trial":218,"Robot":1,"Valence":"Win","Action":"Go","Sham":0,"Color":"blue","trial_type":"pit-trial","trial_index":237,"time_elapsed":892778,"internal_node_id":"0.0-226.0","task_version":"test-retest-t3"},{"Rune":"rune_05_tiwaz","Hex":"#3366ff99","Correct":-1,"Choice":-1,"RT":-1,"Accuracy":1,"Outcome":"+10","Keys":[],"TotalKeys":0,"Block":2,"Trial":219,"Robot":2,"Valence":"Win","Action":"No-Go","Sham":0,"Color":"blue","trial_type":"pit-trial","trial_index":238,"time_elapsed":896784,"internal_node_id":"0.0-227.0","task_version":"test-retest-t3"},{"Rune":"rune_05_gebo","Hex":"#ffcc3399","Correct":32,"Choice":32,"RT":510.9449999872595,"Accuracy":1,"Outcome":"-10","Keys":[2011.610000015935],"TotalKeys":1,"Block":2,"Trial":220,"Robot":3,"Valence":"Lose","Action":"Go","Sham":1,"Color":"yellow","trial_type":"pit-trial","trial_index":239,"time_elapsed":899800,"internal_node_id":"0.0-228.0","task_version":"test-retest-t3"},{"Rune":"rune_05_ior","Hex":"#ffcc3399","Correct":-1,"Choice":-1,"RT":-1,"Accuracy":1,"Outcome":"-1","Keys":[],"TotalKeys":0,"Block":2,"Trial":221,"Robot":4,"Valence":"Lose","Action":"No-Go","Sham":0,"Color":"yellow","trial_type":"pit-trial","trial_index":240,"time_elapsed":903806,"internal_node_id":"0.0-229.0","task_version":"test-retest-t3"},{"Rune":"rune_05_jeran","Hex":"#3366ff99","Correct":32,"Choice":32,"RT":410.6749999918975,"Accuracy":1,"Outcome":"+1","Keys":[1911.740000010468],"TotalKeys":1,"Block":2,"Trial":222,"Robot":1,"Valence":"Win","Action":"Go","Sham":1,"Color":"blue","trial_type":"pit-trial","trial_index":241,"time_elapsed":906724,"internal_node_id":"0.0-230.0","task_version":"test-retest-t3"},{"Rune":"rune_05_tiwaz","Hex":"#3366ff99","Correct":-1,"Choice":-1,"RT":-1,"Accuracy":1,"Outcome":"+10","Keys":[],"TotalKeys":0,"Block":2,"Trial":223,"Robot":2,"Valence":"Win","Action":"No-Go","Sham":0,"Color":"blue","trial_type":"pit-trial","trial_index":242,"time_elapsed":910730,"internal_node_id":"0.0-231.0","task_version":"test-retest-t3"},{"Rune":"rune_05_gebo","Hex":"#ffcc3399","Correct":32,"Choice":32,"RT":444.38499998068437,"Accuracy":1,"Outcome":"-1","Keys":[1946.4199999929406],"TotalKeys":1,"Block":2,"Trial":224,"Robot":3,"Valence":"Lose","Action":"Go","Sham":0,"Color":"yellow","trial_type":"pit-trial","trial_index":243,"time_elapsed":913682,"internal_node_id":"0.0-232.0","task_version":"test-retest-t3"},{"Rune":"rune_05_jeran","Hex":"#3366ff99","Correct":32,"Choice":32,"RT":399.8049999936484,"Accuracy":1,"Outcome":"+10","Keys":[1900.6200000003446],"TotalKeys":1,"Block":2,"Trial":225,"Robot":1,"Valence":"Win","Action":"Go","Sham":0,"Color":"blue","trial_type":"pit-trial","trial_index":244,"time_elapsed":916592,"internal_node_id":"0.0-233.0","task_version":"test-retest-t3"},{"Rune":"rune_05_ior","Hex":"#ffcc3399","Correct":-1,"Choice":-1,"RT":-1,"Accuracy":1,"Outcome":"-10","Keys":[],"TotalKeys":0,"Block":2,"Trial":226,"Robot":4,"Valence":"Lose","Action":"No-Go","Sham":1,"Color":"yellow","trial_type":"pit-trial","trial_index":245,"time_elapsed":920598,"internal_node_id":"0.0-234.0","task_version":"test-retest-t3"},{"Rune":"rune_05_gebo","Hex":"#ffcc3399","Correct":32,"Choice":32,"RT":499.24999999348074,"Accuracy":1,"Outcome":"-10","Keys":[1999.6849999879487],"TotalKeys":1,"Block":2,"Trial":227,"Robot":3,"Valence":"Lose","Action":"Go","Sham":1,"Color":"yellow","trial_type":"pit-trial","trial_index":246,"time_elapsed":923602,"internal_node_id":"0.0-235.0","task_version":"test-retest-t3"},{"Rune":"rune_05_tiwaz","Hex":"#3366ff99","Correct":-1,"Choice":-1,"RT":-1,"Accuracy":1,"Outcome":"+10","Keys":[],"TotalKeys":0,"Block":2,"Trial":228,"Robot":2,"Valence":"Win","Action":"No-Go","Sham":0,"Color":"blue","trial_type":"pit-trial","trial_index":247,"time_elapsed":927607,"internal_node_id":"0.0-236.0","task_version":"test-retest-t3"},{"Rune":"rune_05_tiwaz","Hex":"#3366ff99","Correct":-1,"Choice":-1,"RT":-1,"Accuracy":1,"Outcome":"+1","Keys":[],"TotalKeys":0,"Block":2,"Trial":229,"Robot":2,"Valence":"Win","Action":"No-Go","Sham":1,"Color":"blue","trial_type":"pit-trial","trial_index":248,"time_elapsed":931615,"internal_node_id":"0.0-237.0","task_version":"test-retest-t3"},{"Rune":"rune_05_jeran","Hex":"#3366ff99","Correct":32,"Choice":32,"RT":357.8050000069197,"Accuracy":1,"Outcome":"+10","Keys":[1858.8849999941885],"TotalKeys":1,"Block":2,"Trial":230,"Robot":1,"Valence":"Win","Action":"Go","Sham":0,"Color":"blue","trial_type":"pit-trial","trial_index":249,"time_elapsed":934479,"internal_node_id":"0.0-238.0","task_version":"test-retest-t3"},{"Rune":"rune_05_ior","Hex":"#ffcc3399","Correct":-1,"Choice":-1,"RT":-1,"Accuracy":1,"Outcome":"-1","Keys":[],"TotalKeys":0,"Block":2,"Trial":231,"Robot":4,"Valence":"Lose","Action":"No-Go","Sham":0,"Color":"yellow","trial_type":"pit-trial","trial_index":250,"time_elapsed":938484,"internal_node_id":"0.0-239.0","task_version":"test-retest-t3"},{"Rune":"rune_05_gebo","Hex":"#ffcc3399","Correct":32,"Choice":32,"RT":368.2649999973364,"Accuracy":1,"Outcome":"-1","Keys":[1869.21999999322],"TotalKeys":1,"Block":2,"Trial":232,"Robot":3,"Valence":"Lose","Action":"Go","Sham":0,"Color":"yellow","trial_type":"pit-trial","trial_index":251,"time_elapsed":941358,"internal_node_id":"0.0-240.0","task_version":"test-retest-t3"},{"Rune":"rune_05_tiwaz","Hex":"#3366ff99","Correct":-1,"Choice":-1,"RT":-1,"Accuracy":1,"Outcome":"+10","Keys":[],"TotalKeys":0,"Block":2,"Trial":233,"Robot":2,"Valence":"Win","Action":"No-Go","Sham":0,"Color":"blue","trial_type":"pit-trial","trial_index":252,"time_elapsed":945364,"internal_node_id":"0.0-241.0","task_version":"test-retest-t3"},{"Rune":"rune_05_jeran","Hex":"#3366ff99","Correct":32,"Choice":32,"RT":398.87000000453554,"Accuracy":1,"Outcome":"+10","Keys":[1900.2899999904912],"TotalKeys":1,"Block":2,"Trial":234,"Robot":1,"Valence":"Win","Action":"Go","Sham":0,"Color":"blue","trial_type":"pit-trial","trial_index":253,"time_elapsed":948269,"internal_node_id":"0.0-242.0","task_version":"test-retest-t3"},{"Rune":"rune_05_gebo","Hex":"#ffcc3399","Correct":32,"Choice":32,"RT":445.4599999880884,"Accuracy":1,"Outcome":"-1","Keys":[1946.6799999936484],"TotalKeys":1,"Block":2,"Trial":235,"Robot":3,"Valence":"Lose","Action":"Go","Sham":0,"Color":"yellow","trial_type":"pit-trial","trial_index":254,"time_elapsed":951221,"internal_node_id":"0.0-243.0","task_version":"test-retest-t3"},{"Rune":"rune_05_ior","Hex":"#ffcc3399","Correct":-1,"Choice":-1,"RT":-1,"Accuracy":1,"Outcome":"-1","Keys":[],"TotalKeys":0,"Block":2,"Trial":236,"Robot":4,"Valence":"Lose","Action":"No-Go","Sham":0,"Color":"yellow","trial_type":"pit-trial","trial_index":255,"time_elapsed":955226,"internal_node_id":"0.0-244.0","task_version":"test-retest-t3"},{"Rune":"rune_05_jeran","Hex":"#3366ff99","Correct":32,"Choice":32,"RT":350.96000001067296,"Accuracy":1,"Outcome":"+10","Keys":[1852.9250000137836],"TotalKeys":1,"Block":2,"Trial":237,"Robot":1,"Valence":"Win","Action":"Go","Sham":0,"Color":"blue","trial_type":"pit-trial","trial_index":256,"time_elapsed":958084,"internal_node_id":"0.0-245.0","task_version":"test-retest-t3"},{"Rune":"rune_05_tiwaz","Hex":"#3366ff99","Correct":-1,"Choice":-1,"RT":-1,"Accuracy":1,"Outcome":"+10","Keys":[],"TotalKeys":0,"Block":2,"Trial":238,"Robot":2,"Valence":"Win","Action":"No-Go","Sham":0,"Color":"blue","trial_type":"pit-trial","trial_index":257,"time_elapsed":962090,"internal_node_id":"0.0-246.0","task_version":"test-retest-t3"},{"Rune":"rune_05_gebo","Hex":"#ffcc3399","Correct":32,"Choice":32,"RT":1356.9450000068173,"Accuracy":1,"Outcome":"-1","Keys":[2857.2199999762233],"TotalKeys":1,"Block":2,"Trial":239,"Robot":3,"Valence":"Lose","Action":"Go","Sham":0,"Color":"yellow","trial_type":"pit-trial","trial_index":258,"time_elapsed":965952,"internal_node_id":"0.0-247.0","task_version":"test-retest-t3"},{"Rune":"rune_05_ior","Hex":"#ffcc3399","Correct":-1,"Choice":-1,"RT":-1,"Accuracy":1,"Outcome":"-1","Keys":[],"TotalKeys":0,"Block":2,"Trial":240,"Robot":4,"Valence":"Lose","Action":"No-Go","Sham":0,"Color":"yellow","trial_type":"pit-trial","trial_index":259,"time_elapsed":969959,"internal_node_id":"0.0-248.0","task_version":"test-retest-t3"},{"view_history":"[{\"page_index\":0,\"viewing_time\":1374.7250000014901}]","rt":1375.0850000069477,"trial_type":"pit-instructions","trial_index":260,"time_elapsed":971337,"internal_node_id":"0.0-249.0","task_version":"test-retest-t3"},{"rt":102026.93000002182,"responses":{"difficulty":"4","fun":"5","clarity":"5","strategy":"Tried to establish  as early as possible what symbols were right and which were wrong (initial malfunctions made this method more difficult as it misled me as to which were right and which were wrong as opposed to earlier trials of this experiment)","feedback":"n/a"},"survey":"debrief","trial_type":"survey-debrief","trial_index":261,"time_elapsed":1073369,"internal_node_id":"0.0-250.0","task_version":"test-retest-t3"},{"rt":3711.215000017546,"stimulus":"You earned a bonus of $1.3 out of $1.5.<br><br>Press any key to complete the experiment.","key_press":32,"trial_type":"html-keyboard-response","trial_index":262,"time_elapsed":1077085,"internal_node_id":"0.0-251.0","task_version":"test-retest-t3","accuracy":0.8625,"bonus":1.3,"interactions":"[]"}]