[{"slider_type":"valence","raw_loc":607.5,"loc":0.715,"trial_type":"affective-slider","trial_index":0,"time_elapsed":3096,"internal_node_id":"0.0-0.0","task_version":"test-retest-t3"},{"responses":{"Q01":"1","Q06":"0","Q05":"0","Q08":"0","Q03":"0","Q07":"0","Q02":"0","Q04":"1"},"rt":10595.050000119954,"survey":"gad7","trial_type":"survey-template","trial_index":1,"time_elapsed":13694,"internal_node_id":"0.0-1.0","task_version":"test-retest-t3"},{"view_history":"[{\"page_index\":0,\"viewing_time\":10312.219999963418},{\"page_index\":1,\"viewing_time\":800.190000096336},{\"page_index\":2,\"viewing_time\":1911.4800000097603},{\"page_index\":3,\"viewing_time\":2487.88999998942},{\"page_index\":4,\"viewing_time\":1632.0350000169128},{\"page_index\":5,\"viewing_time\":1512.044999981299}]","rt":18656.66999993846,"trial_type":"pit-instructions","trial_index":2,"time_elapsed":32357,"internal_node_id":"0.0-2.0-0.0","task_version":"test-retest-t3"},{"Rune":"rune_00_ingz","Hex":"#FFFFF080","Correct":32,"Choice":32,"RT":904.1300001554191,"Accuracy":1,"Outcome":"+10","Keys":[2405.744999879971],"TotalKeys":1,"Block":0,"Action":"Go","trial_type":"pit-trial","trial_index":3,"time_elapsed":35768,"internal_node_id":"0.0-2.0-1.0-0.0","task_version":"test-retest-t3"},{"Rune":"rune_00_ingz","Hex":"#FFFFF080","Correct":32,"Choice":32,"RT":627.2050000261515,"Accuracy":1,"Outcome":"+10","Keys":[2127.470000181347],"TotalKeys":1,"Block":0,"Action":"Go","trial_type":"pit-trial","trial_index":4,"time_elapsed":38902,"internal_node_id":"0.0-2.0-1.0-0.1","task_version":"test-retest-t3"},{"Rune":"rune_00_ingz","Hex":"#FFFFF080","Correct":32,"Choice":32,"RT":503.78999998793006,"Accuracy":1,"Outcome":"+10","Keys":[2004.0049999952316],"TotalKeys":1,"Block":0,"Action":"Go","trial_type":"pit-trial","trial_index":5,"time_elapsed":41910,"internal_node_id":"0.0-2.0-1.0-0.2","task_version":"test-retest-t3"},{"Rune":"rune_00_ingz","Hex":"#FFFFF080","Correct":32,"Choice":32,"RT":260.95999986864626,"Accuracy":1,"Outcome":"+10","Keys":[1762.980000115931],"TotalKeys":1,"Block":0,"Action":"Go","trial_type":"pit-trial","trial_index":6,"time_elapsed":44678,"internal_node_id":"0.0-2.0-1.0-0.3","task_version":"test-retest-t3"},{"view_history":"[{\"page_index\":0,\"viewing_time\":1805.0700000021607}]","rt":1805.519999936223,"trial_type":"pit-instructions","trial_index":7,"time_elapsed":46484,"internal_node_id":"0.0-2.0-2.0","task_version":"test-retest-t3"},{"Rune":"rune_00_isaz","Hex":"#FFFFF080","Correct":-1,"Choice":-1,"RT":-1,"Accuracy":1,"Outcome":"+10","Keys":[],"TotalKeys":0,"Block":0,"Action":"No-Go","trial_type":"pit-trial","trial_index":8,"time_elapsed":50488,"internal_node_id":"0.0-2.0-3.0-0.0","task_version":"test-retest-t3"},{"Rune":"rune_00_isaz","Hex":"#FFFFF080","Correct":-1,"Choice":-1,"RT":-1,"Accuracy":1,"Outcome":"+10","Keys":[],"TotalKeys":0,"Block":0,"Action":"No-Go","trial_type":"pit-trial","trial_index":9,"time_elapsed":54494,"internal_node_id":"0.0-2.0-3.0-0.1","task_version":"test-retest-t3"},{"Rune":"rune_00_isaz","Hex":"#FFFFF080","Correct":-1,"Choice":-1,"RT":-1,"Accuracy":1,"Outcome":"+10","Keys":[],"TotalKeys":0,"Block":0,"Action":"No-Go","trial_type":"pit-trial","trial_index":10,"time_elapsed":58498,"internal_node_id":"0.0-2.0-3.0-0.2","task_version":"test-retest-t3"},{"Rune":"rune_00_isaz","Hex":"#FFFFF080","Correct":-1,"Choice":-1,"RT":-1,"Accuracy":1,"Outcome":"+10","Keys":[],"TotalKeys":0,"Block":0,"Action":"No-Go","trial_type":"pit-trial","trial_index":11,"time_elapsed":62503,"internal_node_id":"0.0-2.0-3.0-0.3","task_version":"test-retest-t3"},{"view_history":"[{\"page_index\":0,\"viewing_time\":14124.105000169948},{\"page_index\":1,\"viewing_time\":2111.784999957308},{\"page_index\":2,\"viewing_time\":4184.434999944642},{\"page_index\":3,\"viewing_time\":1887.675000121817},{\"page_index\":4,\"viewing_time\":1383.9749998878688},{\"page_index\":5,\"viewing_time\":1999.8350001405925},{\"page_index\":6,\"viewing_time\":1248.169999802485},{\"page_index\":7,\"viewing_time\":1512.3400001320988}]","rt":28452.70500006154,"trial_type":"pit-instructions","trial_index":12,"time_elapsed":90957,"internal_node_id":"0.0-2.0-4.0","task_version":"test-retest-t3"},{"responses":["Do nothing","+10","-1","True","Yes"],"num_errors":0,"rt":11854.599999962375,"trial_type":"pit-comprehension","trial_index":13,"time_elapsed":102814,"internal_node_id":"0.0-2.0-5.0","task_version":"test-retest-t3"},{"trial_type":"call-function","trial_index":14,"time_elapsed":102817,"internal_node_id":"0.0-3.0","task_version":"test-retest-t3"},{"view_history":"[{\"page_index\":0,\"viewing_time\":145737.99000005238},{\"page_index\":1,\"viewing_time\":1320.0799999758601},{\"page_index\":2,\"viewing_time\":1383.7449999991804}]","rt":148442.21500004642,"trial_type":"pit-instructions","trial_index":15,"time_elapsed":251259,"internal_node_id":"0.0-4.0","task_version":"test-retest-t3"},{"Rune":"rune_06_ehwaz","Hex":"#3366ff99","Correct":32,"Choice":32,"RT":559.7049999050796,"Accuracy":1,"Outcome":"+10","Keys":[2060.835000127554],"TotalKeys":1,"Block":1,"Trial":1,"Robot":1,"Valence":"Win","Action":"Go","Sham":0,"Color":"blue","trial_type":"pit-trial","trial_index":16,"time_elapsed":254325,"internal_node_id":"0.0-5.0","task_version":"test-retest-t3"},{"Rune":"rune_06_ansuz","Hex":"#ffcc3399","Correct":32,"Choice":-1,"RT":-1,"Accuracy":0,"Outcome":"-1","Keys":[],"TotalKeys":0,"Block":1,"Trial":2,"Robot":3,"Valence":"Lose","Action":"Go","Sham":1,"Color":"yellow","trial_type":"pit-trial","trial_index":17,"time_elapsed":258330,"internal_node_id":"0.0-6.0","task_version":"test-retest-t3"},{"Rune":"rune_06_berkanan","Hex":"#ffcc3399","Correct":-1,"Choice":32,"RT":595.6650001462549,"Accuracy":0,"Outcome":"-10","Keys":[2095.835000043735],"TotalKeys":1,"Block":1,"Trial":3,"Robot":4,"Valence":"Lose","Action":"No-Go","Sham":0,"Color":"yellow","trial_type":"pit-trial","trial_index":18,"time_elapsed":261428,"internal_node_id":"0.0-7.0","task_version":"test-retest-t3"},{"Rune":"rune_06_cweord","Hex":"#3366ff99","Correct":-1,"Choice":32,"RT":967.1249999664724,"Accuracy":0,"Outcome":"+10","Keys":[2468.4299998916686],"TotalKeys":1,"Block":1,"Trial":4,"Robot":2,"Valence":"Win","Action":"No-Go","Sham":1,"Color":"blue","trial_type":"pit-trial","trial_index":19,"time_elapsed":264900,"internal_node_id":"0.0-8.0","task_version":"test-retest-t3"},{"Rune":"rune_06_berkanan","Hex":"#ffcc3399","Correct":-1,"Choice":32,"RT":952.8399999253452,"Accuracy":0,"Outcome":"-10","Keys":[2453.2149999868125],"TotalKeys":1,"Block":1,"Trial":5,"Robot":4,"Valence":"Lose","Action":"No-Go","Sham":0,"Color":"yellow","trial_type":"pit-trial","trial_index":20,"time_elapsed":268356,"internal_node_id":"0.0-9.0","task_version":"test-retest-t3"},{"Rune":"rune_06_cweord","Hex":"#3366ff99","Correct":-1,"Choice":32,"RT":1080.3900000173599,"Accuracy":0,"Outcome":"+1","Keys":[2581.2550000846386],"TotalKeys":1,"Block":1,"Trial":6,"Robot":2,"Valence":"Win","Action":"No-Go","Sham":0,"Color":"blue","trial_type":"pit-trial","trial_index":21,"time_elapsed":271940,"internal_node_id":"0.0-10.0","task_version":"test-retest-t3"},{"Rune":"rune_06_ansuz","Hex":"#ffcc3399","Correct":32,"Choice":-1,"RT":-1,"Accuracy":0,"Outcome":"-10","Keys":[],"TotalKeys":0,"Block":1,"Trial":7,"Robot":3,"Valence":"Lose","Action":"Go","Sham":0,"Color":"yellow","trial_type":"pit-trial","trial_index":22,"time_elapsed":275946,"internal_node_id":"0.0-11.0","task_version":"test-retest-t3"},{"Rune":"rune_06_ehwaz","Hex":"#3366ff99","Correct":32,"Choice":32,"RT":481.9450001232326,"Accuracy":1,"Outcome":"+10","Keys":[1982.4500000104308],"TotalKeys":1,"Block":1,"Trial":8,"Robot":1,"Valence":"Win","Action":"Go","Sham":0,"Color":"blue","trial_type":"pit-trial","trial_index":23,"time_elapsed":278932,"internal_node_id":"0.0-12.0","task_version":"test-retest-t3"},{"Rune":"rune_06_ansuz","Hex":"#ffcc3399","Correct":32,"Choice":-1,"RT":-1,"Accuracy":0,"Outcome":"-10","Keys":[],"TotalKeys":0,"Block":1,"Trial":9,"Robot":3,"Valence":"Lose","Action":"Go","Sham":0,"Color":"yellow","trial_type":"pit-trial","trial_index":24,"time_elapsed":282937,"internal_node_id":"0.0-13.0","task_version":"test-retest-t3"},{"Rune":"rune_06_berkanan","Hex":"#ffcc3399","Correct":-1,"Choice":32,"RT":802.9400000814348,"Accuracy":0,"Outcome":"-10","Keys":[2304.384999908507],"TotalKeys":1,"Block":1,"Trial":10,"Robot":4,"Valence":"Lose","Action":"No-Go","Sham":0,"Color":"yellow","trial_type":"pit-trial","trial_index":25,"time_elapsed":286243,"internal_node_id":"0.0-14.0","task_version":"test-retest-t3"},{"Rune":"rune_06_ehwaz","Hex":"#3366ff99","Correct":32,"Choice":32,"RT":472.8449999820441,"Accuracy":1,"Outcome":"+10","Keys":[1973.7650000024587],"TotalKeys":1,"Block":1,"Trial":11,"Robot":1,"Valence":"Win","Action":"Go","Sham":0,"Color":"blue","trial_type":"pit-trial","trial_index":26,"time_elapsed":289219,"internal_node_id":"0.0-15.0","task_version":"test-retest-t3"},{"Rune":"rune_06_cweord","Hex":"#3366ff99","Correct":-1,"Choice":32,"RT":743.4449999127537,"Accuracy":0,"Outcome":"+1","Keys":[2245.4450000077486],"TotalKeys":1,"Block":1,"Trial":12,"Robot":2,"Valence":"Win","Action":"No-Go","Sham":0,"Color":"blue","trial_type":"pit-trial","trial_index":27,"time_elapsed":292467,"internal_node_id":"0.0-16.0","task_version":"test-retest-t3"},{"Rune":"rune_06_ehwaz","Hex":"#3366ff99","Correct":32,"Choice":32,"RT":440.4899999499321,"Accuracy":1,"Outcome":"+10","Keys":[1941.7549998033792],"TotalKeys":1,"Block":1,"Trial":13,"Robot":1,"Valence":"Win","Action":"Go","Sham":0,"Color":"blue","trial_type":"pit-trial","trial_index":28,"time_elapsed":295412,"internal_node_id":"0.0-17.0","task_version":"test-retest-t3"},{"Rune":"rune_06_ansuz","Hex":"#ffcc3399","Correct":32,"Choice":32,"RT":968.2950000278652,"Accuracy":1,"Outcome":"-1","Keys":[2468.790000071749],"TotalKeys":1,"Block":1,"Trial":14,"Robot":3,"Valence":"Lose","Action":"Go","Sham":0,"Color":"yellow","trial_type":"pit-trial","trial_index":29,"time_elapsed":298885,"internal_node_id":"0.0-18.0","task_version":"test-retest-t3"},{"Rune":"rune_06_cweord","Hex":"#3366ff99","Correct":-1,"Choice":32,"RT":853.5649999976158,"Accuracy":0,"Outcome":"+1","Keys":[2354.86500011757],"TotalKeys":1,"Block":1,"Trial":15,"Robot":2,"Valence":"Win","Action":"No-Go","Sham":0,"Color":"blue","trial_type":"pit-trial","trial_index":30,"time_elapsed":302244,"internal_node_id":"0.0-19.0","task_version":"test-retest-t3"},{"Rune":"rune_06_berkanan","Hex":"#ffcc3399","Correct":-1,"Choice":-1,"RT":-1,"Accuracy":1,"Outcome":"-1","Keys":[],"TotalKeys":0,"Block":1,"Trial":16,"Robot":4,"Valence":"Lose","Action":"No-Go","Sham":0,"Color":"yellow","trial_type":"pit-trial","trial_index":31,"time_elapsed":306247,"internal_node_id":"0.0-20.0","task_version":"test-retest-t3"},{"Rune":"rune_06_cweord","Hex":"#3366ff99","Correct":-1,"Choice":32,"RT":861.8650001008064,"Accuracy":0,"Outcome":"+1","Keys":[2369.704999960959],"TotalKeys":1,"Block":1,"Trial":17,"Robot":2,"Valence":"Win","Action":"No-Go","Sham":0,"Color":"blue","trial_type":"pit-trial","trial_index":32,"time_elapsed":309619,"internal_node_id":"0.0-21.0","task_version":"test-retest-t3"},{"Rune":"rune_06_ehwaz","Hex":"#3366ff99","Correct":32,"Choice":32,"RT":600.3900000359863,"Accuracy":1,"Outcome":"+1","Keys":[2103.2300000078976],"TotalKeys":1,"Block":1,"Trial":18,"Robot":1,"Valence":"Win","Action":"Go","Sham":1,"Color":"blue","trial_type":"pit-trial","trial_index":33,"time_elapsed":312725,"internal_node_id":"0.0-22.0","task_version":"test-retest-t3"},{"Rune":"rune_06_ansuz","Hex":"#ffcc3399","Correct":32,"Choice":-1,"RT":-1,"Accuracy":0,"Outcome":"-10","Keys":[],"TotalKeys":0,"Block":1,"Trial":19,"Robot":3,"Valence":"Lose","Action":"Go","Sham":0,"Color":"yellow","trial_type":"pit-trial","trial_index":34,"time_elapsed":316728,"internal_node_id":"0.0-23.0","task_version":"test-retest-t3"},{"Rune":"rune_06_berkanan","Hex":"#ffcc3399","Correct":-1,"Choice":32,"RT":1060.3449998889118,"Accuracy":0,"Outcome":"-1","Keys":[2560.920000076294],"TotalKeys":1,"Block":1,"Trial":20,"Robot":4,"Valence":"Lose","Action":"No-Go","Sham":1,"Color":"yellow","trial_type":"pit-trial","trial_index":35,"time_elapsed":320293,"internal_node_id":"0.0-24.0","task_version":"test-retest-t3"},{"Rune":"rune_06_ehwaz","Hex":"#3366ff99","Correct":32,"Choice":32,"RT":454.88500013016164,"Accuracy":1,"Outcome":"+1","Keys":[1956.3300001900643],"TotalKeys":1,"Block":1,"Trial":21,"Robot":1,"Valence":"Win","Action":"Go","Sham":1,"Color":"blue","trial_type":"pit-trial","trial_index":36,"time_elapsed":323252,"internal_node_id":"0.0-25.0","task_version":"test-retest-t3"},{"Rune":"rune_06_ansuz","Hex":"#ffcc3399","Correct":32,"Choice":32,"RT":1127.539999783039,"Accuracy":1,"Outcome":"-10","Keys":[2628.440000116825],"TotalKeys":1,"Block":1,"Trial":22,"Robot":3,"Valence":"Lose","Action":"Go","Sham":1,"Color":"yellow","trial_type":"pit-trial","trial_index":37,"time_elapsed":326884,"internal_node_id":"0.0-26.0","task_version":"test-retest-t3"},{"Rune":"rune_06_berkanan","Hex":"#ffcc3399","Correct":-1,"Choice":32,"RT":631.1599998734891,"Accuracy":0,"Outcome":"-10","Keys":[2132.7450000680983],"TotalKeys":1,"Block":1,"Trial":23,"Robot":4,"Valence":"Lose","Action":"No-Go","Sham":0,"Color":"yellow","trial_type":"pit-trial","trial_index":38,"time_elapsed":330020,"internal_node_id":"0.0-27.0","task_version":"test-retest-t3"},{"Rune":"rune_06_cweord","Hex":"#3366ff99","Correct":-1,"Choice":32,"RT":695.7900000270456,"Accuracy":0,"Outcome":"+1","Keys":[2196.609999984503],"TotalKeys":1,"Block":1,"Trial":24,"Robot":2,"Valence":"Win","Action":"No-Go","Sham":0,"Color":"blue","trial_type":"pit-trial","trial_index":39,"time_elapsed":333220,"internal_node_id":"0.0-28.0","task_version":"test-retest-t3"},{"Rune":"rune_06_berkanan","Hex":"#ffcc3399","Correct":-1,"Choice":32,"RT":839.644999941811,"Accuracy":0,"Outcome":"-10","Keys":[2340.7749999314547],"TotalKeys":1,"Block":1,"Trial":25,"Robot":4,"Valence":"Lose","Action":"No-Go","Sham":0,"Color":"yellow","trial_type":"pit-trial","trial_index":40,"time_elapsed":336563,"internal_node_id":"0.0-29.0","task_version":"test-retest-t3"},{"Rune":"rune_06_ansuz","Hex":"#ffcc3399","Correct":32,"Choice":-1,"RT":-1,"Accuracy":0,"Outcome":"-10","Keys":[],"TotalKeys":0,"Block":1,"Trial":26,"Robot":3,"Valence":"Lose","Action":"Go","Sham":0,"Color":"yellow","trial_type":"pit-trial","trial_index":41,"time_elapsed":340568,"internal_node_id":"0.0-30.0","task_version":"test-retest-t3"},{"Rune":"rune_06_cweord","Hex":"#3366ff99","Correct":-1,"Choice":32,"RT":643.8499998766929,"Accuracy":0,"Outcome":"+1","Keys":[2145.015000132844],"TotalKeys":1,"Block":1,"Trial":27,"Robot":2,"Valence":"Win","Action":"No-Go","Sham":0,"Color":"blue","trial_type":"pit-trial","trial_index":42,"time_elapsed":343717,"internal_node_id":"0.0-31.0","task_version":"test-retest-t3"},{"Rune":"rune_06_ehwaz","Hex":"#3366ff99","Correct":32,"Choice":32,"RT":391.10500016249716,"Accuracy":1,"Outcome":"+10","Keys":[1891.7849999852479],"TotalKeys":1,"Block":1,"Trial":28,"Robot":1,"Valence":"Win","Action":"Go","Sham":0,"Color":"blue","trial_type":"pit-trial","trial_index":43,"time_elapsed":346612,"internal_node_id":"0.0-32.0","task_version":"test-retest-t3"},{"Rune":"rune_06_berkanan","Hex":"#ffcc3399","Correct":-1,"Choice":-1,"RT":-1,"Accuracy":1,"Outcome":"-1","Keys":[],"TotalKeys":0,"Block":1,"Trial":29,"Robot":4,"Valence":"Lose","Action":"No-Go","Sham":0,"Color":"yellow","trial_type":"pit-trial","trial_index":44,"time_elapsed":350617,"internal_node_id":"0.0-33.0","task_version":"test-retest-t3"},{"Rune":"rune_06_ansuz","Hex":"#ffcc3399","Correct":32,"Choice":-1,"RT":-1,"Accuracy":0,"Outcome":"-10","Keys":[],"TotalKeys":0,"Block":1,"Trial":30,"Robot":3,"Valence":"Lose","Action":"Go","Sham":0,"Color":"yellow","trial_type":"pit-trial","trial_index":45,"time_elapsed":354622,"internal_node_id":"0.0-34.0","task_version":"test-retest-t3"},{"Rune":"rune_06_cweord","Hex":"#3366ff99","Correct":-1,"Choice":32,"RT":589.6099999081343,"Accuracy":0,"Outcome":"+1","Keys":[2090.6150001101196],"TotalKeys":1,"Block":1,"Trial":31,"Robot":2,"Valence":"Win","Action":"No-Go","Sham":0,"Color":"blue","trial_type":"pit-trial","trial_index":46,"time_elapsed":357716,"internal_node_id":"0.0-35.0","task_version":"test-retest-t3"},{"Rune":"rune_06_ehwaz","Hex":"#3366ff99","Correct":32,"Choice":32,"RT":418.9049999695271,"Accuracy":1,"Outcome":"+10","Keys":[1923.9650000818074],"TotalKeys":1,"Block":1,"Trial":32,"Robot":1,"Valence":"Win","Action":"Go","Sham":0,"Color":"blue","trial_type":"pit-trial","trial_index":47,"time_elapsed":360663,"internal_node_id":"0.0-36.0","task_version":"test-retest-t3"},{"Rune":"rune_06_cweord","Hex":"#3366ff99","Correct":-1,"Choice":32,"RT":660.5700000654906,"Accuracy":0,"Outcome":"+10","Keys":[2161.390000022948],"TotalKeys":1,"Block":1,"Trial":33,"Robot":2,"Valence":"Win","Action":"No-Go","Sham":1,"Color":"blue","trial_type":"pit-trial","trial_index":48,"time_elapsed":363828,"internal_node_id":"0.0-37.0","task_version":"test-retest-t3"},{"Rune":"rune_06_ehwaz","Hex":"#3366ff99","Correct":32,"Choice":32,"RT":503.5300001036376,"Accuracy":1,"Outcome":"+10","Keys":[2004.8400000669062],"TotalKeys":1,"Block":1,"Trial":34,"Robot":1,"Valence":"Win","Action":"Go","Sham":0,"Color":"blue","trial_type":"pit-trial","trial_index":49,"time_elapsed":366836,"internal_node_id":"0.0-38.0","task_version":"test-retest-t3"},{"Rune":"rune_06_ansuz","Hex":"#ffcc3399","Correct":32,"Choice":-1,"RT":-1,"Accuracy":0,"Outcome":"-10","Keys":[],"TotalKeys":0,"Block":1,"Trial":35,"Robot":3,"Valence":"Lose","Action":"Go","Sham":0,"Color":"yellow","trial_type":"pit-trial","trial_index":50,"time_elapsed":370839,"internal_node_id":"0.0-39.0","task_version":"test-retest-t3"},{"Rune":"rune_06_berkanan","Hex":"#ffcc3399","Correct":-1,"Choice":-1,"RT":-1,"Accuracy":1,"Outcome":"-1","Keys":[],"TotalKeys":0,"Block":1,"Trial":36,"Robot":4,"Valence":"Lose","Action":"No-Go","Sham":0,"Color":"yellow","trial_type":"pit-trial","trial_index":51,"time_elapsed":374845,"internal_node_id":"0.0-40.0","task_version":"test-retest-t3"},{"Rune":"rune_06_ehwaz","Hex":"#3366ff99","Correct":32,"Choice":32,"RT":558.6400001775473,"Accuracy":1,"Outcome":"+10","Keys":[2059.9149998743087],"TotalKeys":1,"Block":1,"Trial":37,"Robot":1,"Valence":"Win","Action":"Go","Sham":0,"Color":"blue","trial_type":"pit-trial","trial_index":52,"time_elapsed":377908,"internal_node_id":"0.0-41.0","task_version":"test-retest-t3"},{"Rune":"rune_06_berkanan","Hex":"#ffcc3399","Correct":-1,"Choice":32,"RT":1268.7550000846386,"Accuracy":0,"Outcome":"-1","Keys":[2769.43500014022],"TotalKeys":1,"Block":1,"Trial":38,"Robot":4,"Valence":"Lose","Action":"No-Go","Sham":1,"Color":"yellow","trial_type":"pit-trial","trial_index":53,"time_elapsed":381684,"internal_node_id":"0.0-42.0","task_version":"test-retest-t3"},{"Rune":"rune_06_ansuz","Hex":"#ffcc3399","Correct":32,"Choice":-1,"RT":-1,"Accuracy":0,"Outcome":"-10","Keys":[],"TotalKeys":0,"Block":1,"Trial":39,"Robot":3,"Valence":"Lose","Action":"Go","Sham":0,"Color":"yellow","trial_type":"pit-trial","trial_index":54,"time_elapsed":385689,"internal_node_id":"0.0-43.0","task_version":"test-retest-t3"},{"Rune":"rune_06_cweord","Hex":"#3366ff99","Correct":-1,"Choice":32,"RT":994.6449999697506,"Accuracy":0,"Outcome":"+1","Keys":[2495.789999840781],"TotalKeys":1,"Block":1,"Trial":40,"Robot":2,"Valence":"Win","Action":"No-Go","Sham":0,"Color":"blue","trial_type":"pit-trial","trial_index":55,"time_elapsed":389188,"internal_node_id":"0.0-44.0","task_version":"test-retest-t3"},{"Rune":"rune_06_berkanan","Hex":"#ffcc3399","Correct":-1,"Choice":32,"RT":744.745000032708,"Accuracy":0,"Outcome":"-1","Keys":[2245.185000123456],"TotalKeys":1,"Block":1,"Trial":41,"Robot":4,"Valence":"Lose","Action":"No-Go","Sham":1,"Color":"yellow","trial_type":"pit-trial","trial_index":56,"time_elapsed":392436,"internal_node_id":"0.0-45.0","task_version":"test-retest-t3"},{"Rune":"rune_06_ehwaz","Hex":"#3366ff99","Correct":32,"Choice":32,"RT":519.4800000172108,"Accuracy":1,"Outcome":"+10","Keys":[2020.8399998955429],"TotalKeys":1,"Block":1,"Trial":42,"Robot":1,"Valence":"Win","Action":"Go","Sham":0,"Color":"blue","trial_type":"pit-trial","trial_index":57,"time_elapsed":395460,"internal_node_id":"0.0-46.0","task_version":"test-retest-t3"},{"Rune":"rune_06_cweord","Hex":"#3366ff99","Correct":-1,"Choice":-1,"RT":-1,"Accuracy":1,"Outcome":"+10","Keys":[],"TotalKeys":0,"Block":1,"Trial":43,"Robot":2,"Valence":"Win","Action":"No-Go","Sham":0,"Color":"blue","trial_type":"pit-trial","trial_index":58,"time_elapsed":399463,"internal_node_id":"0.0-47.0","task_version":"test-retest-t3"},{"Rune":"rune_06_ansuz","Hex":"#ffcc3399","Correct":32,"Choice":32,"RT":1377.149999840185,"Accuracy":1,"Outcome":"-1","Keys":[2877.240000059828],"TotalKeys":1,"Block":1,"Trial":44,"Robot":3,"Valence":"Lose","Action":"Go","Sham":0,"Color":"yellow","trial_type":"pit-trial","trial_index":59,"time_elapsed":403348,"internal_node_id":"0.0-48.0","task_version":"test-retest-t3"},{"Rune":"rune_06_ansuz","Hex":"#ffcc3399","Correct":32,"Choice":32,"RT":580.6249999441206,"Accuracy":1,"Outcome":"-10","Keys":[2084.3400000594556],"TotalKeys":1,"Block":1,"Trial":45,"Robot":3,"Valence":"Lose","Action":"Go","Sham":1,"Color":"yellow","trial_type":"pit-trial","trial_index":60,"time_elapsed":406436,"internal_node_id":"0.0-49.0","task_version":"test-retest-t3"},{"Rune":"rune_06_berkanan","Hex":"#ffcc3399","Correct":-1,"Choice":-1,"RT":-1,"Accuracy":1,"Outcome":"-1","Keys":[],"TotalKeys":0,"Block":1,"Trial":46,"Robot":4,"Valence":"Lose","Action":"No-Go","Sham":0,"Color":"yellow","trial_type":"pit-trial","trial_index":61,"time_elapsed":410441,"internal_node_id":"0.0-50.0","task_version":"test-retest-t3"},{"Rune":"rune_06_cweord","Hex":"#3366ff99","Correct":-1,"Choice":32,"RT":803.1100002117455,"Accuracy":0,"Outcome":"+1","Keys":[2303.5499998368323],"TotalKeys":1,"Block":1,"Trial":47,"Robot":2,"Valence":"Win","Action":"No-Go","Sham":0,"Color":"blue","trial_type":"pit-trial","trial_index":62,"time_elapsed":413747,"internal_node_id":"0.0-51.0","task_version":"test-retest-t3"},{"Rune":"rune_06_ehwaz","Hex":"#3366ff99","Correct":32,"Choice":32,"RT":408.3849999587983,"Accuracy":1,"Outcome":"+10","Keys":[1909.3400000128895],"TotalKeys":1,"Block":1,"Trial":48,"Robot":1,"Valence":"Win","Action":"Go","Sham":0,"Color":"blue","trial_type":"pit-trial","trial_index":63,"time_elapsed":416660,"internal_node_id":"0.0-52.0","task_version":"test-retest-t3"},{"Rune":"rune_06_cweord","Hex":"#3366ff99","Correct":-1,"Choice":-1,"RT":-1,"Accuracy":1,"Outcome":"+10","Keys":[],"TotalKeys":0,"Block":1,"Trial":49,"Robot":2,"Valence":"Win","Action":"No-Go","Sham":0,"Color":"blue","trial_type":"pit-trial","trial_index":64,"time_elapsed":420664,"internal_node_id":"0.0-53.0","task_version":"test-retest-t3"},{"Rune":"rune_06_ansuz","Hex":"#ffcc3399","Correct":32,"Choice":32,"RT":979.1400001849979,"Accuracy":1,"Outcome":"-1","Keys":[2480.604999931529],"TotalKeys":1,"Block":1,"Trial":50,"Robot":3,"Valence":"Lose","Action":"Go","Sham":0,"Color":"yellow","trial_type":"pit-trial","trial_index":65,"time_elapsed":424147,"internal_node_id":"0.0-54.0","task_version":"test-retest-t3"},{"Rune":"rune_06_berkanan","Hex":"#ffcc3399","Correct":-1,"Choice":-1,"RT":-1,"Accuracy":1,"Outcome":"-1","Keys":[],"TotalKeys":0,"Block":1,"Trial":51,"Robot":4,"Valence":"Lose","Action":"No-Go","Sham":0,"Color":"yellow","trial_type":"pit-trial","trial_index":66,"time_elapsed":428151,"internal_node_id":"0.0-55.0","task_version":"test-retest-t3"},{"Rune":"rune_06_ehwaz","Hex":"#3366ff99","Correct":32,"Choice":32,"RT":484.76499994285405,"Accuracy":1,"Outcome":"+10","Keys":[1986.2450000364333],"TotalKeys":1,"Block":1,"Trial":52,"Robot":1,"Valence":"Win","Action":"Go","Sham":0,"Color":"blue","trial_type":"pit-trial","trial_index":67,"time_elapsed":431139,"internal_node_id":"0.0-56.0","task_version":"test-retest-t3"},{"Rune":"rune_06_cweord","Hex":"#3366ff99","Correct":-1,"Choice":-1,"RT":-1,"Accuracy":1,"Outcome":"+1","Keys":[],"TotalKeys":0,"Block":1,"Trial":53,"Robot":2,"Valence":"Win","Action":"No-Go","Sham":1,"Color":"blue","trial_type":"pit-trial","trial_index":68,"time_elapsed":435143,"internal_node_id":"0.0-57.0","task_version":"test-retest-t3"},{"Rune":"rune_06_ansuz","Hex":"#ffcc3399","Correct":32,"Choice":32,"RT":1010.2199998218566,"Accuracy":1,"Outcome":"-1","Keys":[2511.8400000501424],"TotalKeys":1,"Block":1,"Trial":54,"Robot":3,"Valence":"Lose","Action":"Go","Sham":0,"Color":"yellow","trial_type":"pit-trial","trial_index":69,"time_elapsed":438660,"internal_node_id":"0.0-58.0","task_version":"test-retest-t3"},{"Rune":"rune_06_berkanan","Hex":"#ffcc3399","Correct":-1,"Choice":32,"RT":1253.9450000040233,"Accuracy":0,"Outcome":"-10","Keys":[2755.379999987781],"TotalKeys":1,"Block":1,"Trial":55,"Robot":4,"Valence":"Lose","Action":"No-Go","Sham":0,"Color":"yellow","trial_type":"pit-trial","trial_index":70,"time_elapsed":442420,"internal_node_id":"0.0-59.0","task_version":"test-retest-t3"},{"Rune":"rune_06_ehwaz","Hex":"#3366ff99","Correct":32,"Choice":32,"RT":393.8200001139194,"Accuracy":1,"Outcome":"+10","Keys":[1895.120000001043],"TotalKeys":1,"Block":1,"Trial":56,"Robot":1,"Valence":"Win","Action":"Go","Sham":0,"Color":"blue","trial_type":"pit-trial","trial_index":71,"time_elapsed":445335,"internal_node_id":"0.0-60.0","task_version":"test-retest-t3"},{"Rune":"rune_06_cweord","Hex":"#3366ff99","Correct":-1,"Choice":-1,"RT":-1,"Accuracy":1,"Outcome":"+10","Keys":[],"TotalKeys":0,"Block":1,"Trial":57,"Robot":2,"Valence":"Win","Action":"No-Go","Sham":0,"Color":"blue","trial_type":"pit-trial","trial_index":72,"time_elapsed":449342,"internal_node_id":"0.0-61.0","task_version":"test-retest-t3"},{"Rune":"rune_06_ansuz","Hex":"#ffcc3399","Correct":32,"Choice":32,"RT":622.2149999812245,"Accuracy":1,"Outcome":"-1","Keys":[2122.7500000968575],"TotalKeys":1,"Block":1,"Trial":58,"Robot":3,"Valence":"Lose","Action":"Go","Sham":0,"Color":"yellow","trial_type":"pit-trial","trial_index":73,"time_elapsed":452470,"internal_node_id":"0.0-62.0","task_version":"test-retest-t3"},{"Rune":"rune_06_berkanan","Hex":"#ffcc3399","Correct":-1,"Choice":-1,"RT":-1,"Accuracy":1,"Outcome":"-1","Keys":[],"TotalKeys":0,"Block":1,"Trial":59,"Robot":4,"Valence":"Lose","Action":"No-Go","Sham":0,"Color":"yellow","trial_type":"pit-trial","trial_index":74,"time_elapsed":456474,"internal_node_id":"0.0-63.0","task_version":"test-retest-t3"},{"Rune":"rune_06_ehwaz","Hex":"#3366ff99","Correct":32,"Choice":32,"RT":417.4450000282377,"Accuracy":1,"Outcome":"+1","Keys":[1918.3449998963624],"TotalKeys":1,"Block":1,"Trial":60,"Robot":1,"Valence":"Win","Action":"Go","Sham":1,"Color":"blue","trial_type":"pit-trial","trial_index":75,"time_elapsed":459395,"internal_node_id":"0.0-64.0","task_version":"test-retest-t3"},{"value":false,"trial_type":"call-function","trial_index":76,"time_elapsed":459397,"internal_node_id":"0.0-65.0","task_version":"test-retest-t3"},{"view_history":"[{\"page_index\":0,\"viewing_time\":42259.17500001378},{\"page_index\":1,\"viewing_time\":4792.205000063404}]","rt":47052.93000000529,"trial_type":"pit-instructions","trial_index":77,"time_elapsed":506451,"internal_node_id":"0.0-66.0","task_version":"test-retest-t3"},{"Rune":"rune_06_ehwaz","Hex":"#3366ff99","Correct":32,"Choice":32,"RT":629.539999878034,"Accuracy":1,"Outcome":"+10","Keys":[2131.3400000799447],"TotalKeys":1,"Block":1,"Trial":61,"Robot":1,"Valence":"Win","Action":"Go","Sham":0,"Color":"blue","trial_type":"pit-trial","trial_index":78,"time_elapsed":509587,"internal_node_id":"0.0-67.0","task_version":"test-retest-t3"},{"Rune":"rune_06_cweord","Hex":"#3366ff99","Correct":-1,"Choice":-1,"RT":-1,"Accuracy":1,"Outcome":"+10","Keys":[1189.1449999529868],"TotalKeys":1,"Block":1,"Trial":62,"Robot":2,"Valence":"Win","Action":"No-Go","Sham":0,"Color":"blue","trial_type":"pit-trial","trial_index":79,"time_elapsed":513590,"internal_node_id":"0.0-68.0","task_version":"test-retest-t3"},{"Rune":"rune_06_berkanan","Hex":"#ffcc3399","Correct":-1,"Choice":-1,"RT":-1,"Accuracy":1,"Outcome":"-1","Keys":[],"TotalKeys":0,"Block":1,"Trial":63,"Robot":4,"Valence":"Lose","Action":"No-Go","Sham":0,"Color":"yellow","trial_type":"pit-trial","trial_index":80,"time_elapsed":517594,"internal_node_id":"0.0-69.0","task_version":"test-retest-t3"},{"Rune":"rune_06_ansuz","Hex":"#ffcc3399","Correct":32,"Choice":32,"RT":657.500000204891,"Accuracy":1,"Outcome":"-1","Keys":[2158.589999889955],"TotalKeys":1,"Block":1,"Trial":64,"Robot":3,"Valence":"Lose","Action":"Go","Sham":0,"Color":"yellow","trial_type":"pit-trial","trial_index":81,"time_elapsed":520756,"internal_node_id":"0.0-70.0","task_version":"test-retest-t3"},{"Rune":"rune_06_berkanan","Hex":"#ffcc3399","Correct":-1,"Choice":-1,"RT":-1,"Accuracy":1,"Outcome":"-1","Keys":[],"TotalKeys":0,"Block":1,"Trial":65,"Robot":4,"Valence":"Lose","Action":"No-Go","Sham":0,"Color":"yellow","trial_type":"pit-trial","trial_index":82,"time_elapsed":524760,"internal_node_id":"0.0-71.0","task_version":"test-retest-t3"},{"Rune":"rune_06_cweord","Hex":"#3366ff99","Correct":-1,"Choice":-1,"RT":-1,"Accuracy":1,"Outcome":"+1","Keys":[],"TotalKeys":0,"Block":1,"Trial":66,"Robot":2,"Valence":"Win","Action":"No-Go","Sham":1,"Color":"blue","trial_type":"pit-trial","trial_index":83,"time_elapsed":528764,"internal_node_id":"0.0-72.0","task_version":"test-retest-t3"},{"Rune":"rune_06_ehwaz","Hex":"#3366ff99","Correct":32,"Choice":32,"RT":400.12499992735684,"Accuracy":1,"Outcome":"+10","Keys":[1900.690000038594],"TotalKeys":1,"Block":1,"Trial":67,"Robot":1,"Valence":"Win","Action":"Go","Sham":0,"Color":"blue","trial_type":"pit-trial","trial_index":84,"time_elapsed":531667,"internal_node_id":"0.0-73.0","task_version":"test-retest-t3"},{"Rune":"rune_06_ansuz","Hex":"#ffcc3399","Correct":32,"Choice":32,"RT":855.6349999271333,"Accuracy":1,"Outcome":"-1","Keys":[2356.459999922663],"TotalKeys":1,"Block":1,"Trial":68,"Robot":3,"Valence":"Lose","Action":"Go","Sham":0,"Color":"yellow","trial_type":"pit-trial","trial_index":85,"time_elapsed":535027,"internal_node_id":"0.0-74.0","task_version":"test-retest-t3"},{"Rune":"rune_06_cweord","Hex":"#3366ff99","Correct":-1,"Choice":-1,"RT":-1,"Accuracy":1,"Outcome":"+10","Keys":[],"TotalKeys":0,"Block":1,"Trial":69,"Robot":2,"Valence":"Win","Action":"No-Go","Sham":0,"Color":"blue","trial_type":"pit-trial","trial_index":86,"time_elapsed":539031,"internal_node_id":"0.0-75.0","task_version":"test-retest-t3"},{"Rune":"rune_06_berkanan","Hex":"#ffcc3399","Correct":-1,"Choice":-1,"RT":-1,"Accuracy":1,"Outcome":"-10","Keys":[],"TotalKeys":0,"Block":1,"Trial":70,"Robot":4,"Valence":"Lose","Action":"No-Go","Sham":1,"Color":"yellow","trial_type":"pit-trial","trial_index":87,"time_elapsed":543034,"internal_node_id":"0.0-76.0","task_version":"test-retest-t3"},{"Rune":"rune_06_ehwaz","Hex":"#3366ff99","Correct":32,"Choice":32,"RT":606.4699999988079,"Accuracy":1,"Outcome":"+1","Keys":[2108.204999938607],"TotalKeys":1,"Block":1,"Trial":71,"Robot":1,"Valence":"Win","Action":"Go","Sham":1,"Color":"blue","trial_type":"pit-trial","trial_index":88,"time_elapsed":546146,"internal_node_id":"0.0-77.0","task_version":"test-retest-t3"},{"Rune":"rune_06_ansuz","Hex":"#ffcc3399","Correct":32,"Choice":-1,"RT":-1,"Accuracy":0,"Outcome":"-10","Keys":[],"TotalKeys":0,"Block":1,"Trial":72,"Robot":3,"Valence":"Lose","Action":"Go","Sham":0,"Color":"yellow","trial_type":"pit-trial","trial_index":89,"time_elapsed":550152,"internal_node_id":"0.0-78.0","task_version":"test-retest-t3"},{"Rune":"rune_06_ansuz","Hex":"#ffcc3399","Correct":32,"Choice":32,"RT":739.8950001224875,"Accuracy":1,"Outcome":"-1","Keys":[2240.3700000140816],"TotalKeys":1,"Block":1,"Trial":73,"Robot":3,"Valence":"Lose","Action":"Go","Sham":0,"Color":"yellow","trial_type":"pit-trial","trial_index":90,"time_elapsed":553395,"internal_node_id":"0.0-79.0","task_version":"test-retest-t3"},{"Rune":"rune_06_berkanan","Hex":"#ffcc3399","Correct":-1,"Choice":-1,"RT":-1,"Accuracy":1,"Outcome":"-1","Keys":[],"TotalKeys":0,"Block":1,"Trial":74,"Robot":4,"Valence":"Lose","Action":"No-Go","Sham":0,"Color":"yellow","trial_type":"pit-trial","trial_index":91,"time_elapsed":557402,"internal_node_id":"0.0-80.0","task_version":"test-retest-t3"},{"Rune":"rune_06_ehwaz","Hex":"#3366ff99","Correct":32,"Choice":32,"RT":563.0299998447299,"Accuracy":1,"Outcome":"+10","Keys":[2064.0200001653284],"TotalKeys":1,"Block":1,"Trial":75,"Robot":1,"Valence":"Win","Action":"Go","Sham":0,"Color":"blue","trial_type":"pit-trial","trial_index":92,"time_elapsed":560469,"internal_node_id":"0.0-81.0","task_version":"test-retest-t3"},{"Rune":"rune_06_cweord","Hex":"#3366ff99","Correct":-1,"Choice":-1,"RT":-1,"Accuracy":1,"Outcome":"+10","Keys":[],"TotalKeys":0,"Block":1,"Trial":76,"Robot":2,"Valence":"Win","Action":"No-Go","Sham":0,"Color":"blue","trial_type":"pit-trial","trial_index":93,"time_elapsed":564473,"internal_node_id":"0.0-82.0","task_version":"test-retest-t3"},{"Rune":"rune_06_ehwaz","Hex":"#3366ff99","Correct":32,"Choice":32,"RT":466.66000015102327,"Accuracy":1,"Outcome":"+10","Keys":[1967.1899999957532],"TotalKeys":1,"Block":1,"Trial":77,"Robot":1,"Valence":"Win","Action":"Go","Sham":0,"Color":"blue","trial_type":"pit-trial","trial_index":94,"time_elapsed":567442,"internal_node_id":"0.0-83.0","task_version":"test-retest-t3"},{"Rune":"rune_06_berkanan","Hex":"#ffcc3399","Correct":-1,"Choice":-1,"RT":-1,"Accuracy":1,"Outcome":"-1","Keys":[],"TotalKeys":0,"Block":1,"Trial":78,"Robot":4,"Valence":"Lose","Action":"No-Go","Sham":0,"Color":"yellow","trial_type":"pit-trial","trial_index":95,"time_elapsed":571447,"internal_node_id":"0.0-84.0","task_version":"test-retest-t3"},{"Rune":"rune_06_ansuz","Hex":"#ffcc3399","Correct":32,"Choice":32,"RT":500.8799999486655,"Accuracy":1,"Outcome":"-10","Keys":[2001.369999954477],"TotalKeys":1,"Block":1,"Trial":79,"Robot":3,"Valence":"Lose","Action":"Go","Sham":1,"Color":"yellow","trial_type":"pit-trial","trial_index":96,"time_elapsed":574451,"internal_node_id":"0.0-85.0","task_version":"test-retest-t3"},{"Rune":"rune_06_cweord","Hex":"#3366ff99","Correct":-1,"Choice":-1,"RT":-1,"Accuracy":1,"Outcome":"+10","Keys":[],"TotalKeys":0,"Block":1,"Trial":80,"Robot":2,"Valence":"Win","Action":"No-Go","Sham":0,"Color":"blue","trial_type":"pit-trial","trial_index":97,"time_elapsed":578457,"internal_node_id":"0.0-86.0","task_version":"test-retest-t3"},{"Rune":"rune_06_ansuz","Hex":"#ffcc3399","Correct":32,"Choice":32,"RT":752.7850000187755,"Accuracy":1,"Outcome":"-1","Keys":[2252.9349999967963],"TotalKeys":1,"Block":1,"Trial":81,"Robot":3,"Valence":"Lose","Action":"Go","Sham":0,"Color":"yellow","trial_type":"pit-trial","trial_index":98,"time_elapsed":581715,"internal_node_id":"0.0-87.0","task_version":"test-retest-t3"},{"Rune":"rune_06_berkanan","Hex":"#ffcc3399","Correct":-1,"Choice":-1,"RT":-1,"Accuracy":1,"Outcome":"-1","Keys":[],"TotalKeys":0,"Block":1,"Trial":82,"Robot":4,"Valence":"Lose","Action":"No-Go","Sham":0,"Color":"yellow","trial_type":"pit-trial","trial_index":99,"time_elapsed":585718,"internal_node_id":"0.0-88.0","task_version":"test-retest-t3"},{"Rune":"rune_06_cweord","Hex":"#3366ff99","Correct":-1,"Choice":32,"RT":692.9600001312792,"Accuracy":0,"Outcome":"+1","Keys":[2193.574999924749],"TotalKeys":1,"Block":1,"Trial":83,"Robot":2,"Valence":"Win","Action":"No-Go","Sham":0,"Color":"blue","trial_type":"pit-trial","trial_index":100,"time_elapsed":588914,"internal_node_id":"0.0-89.0","task_version":"test-retest-t3"},{"Rune":"rune_06_ehwaz","Hex":"#3366ff99","Correct":32,"Choice":32,"RT":455.6200001388788,"Accuracy":1,"Outcome":"+10","Keys":[1957.369999960065],"TotalKeys":1,"Block":1,"Trial":84,"Robot":1,"Valence":"Win","Action":"Go","Sham":0,"Color":"blue","trial_type":"pit-trial","trial_index":101,"time_elapsed":591874,"internal_node_id":"0.0-90.0","task_version":"test-retest-t3"},{"Rune":"rune_06_cweord","Hex":"#3366ff99","Correct":-1,"Choice":-1,"RT":-1,"Accuracy":1,"Outcome":"+1","Keys":[],"TotalKeys":0,"Block":1,"Trial":85,"Robot":2,"Valence":"Win","Action":"No-Go","Sham":1,"Color":"blue","trial_type":"pit-trial","trial_index":102,"time_elapsed":595879,"internal_node_id":"0.0-91.0","task_version":"test-retest-t3"},{"Rune":"rune_06_berkanan","Hex":"#ffcc3399","Correct":-1,"Choice":-1,"RT":-1,"Accuracy":1,"Outcome":"-1","Keys":[],"TotalKeys":0,"Block":1,"Trial":86,"Robot":4,"Valence":"Lose","Action":"No-Go","Sham":0,"Color":"yellow","trial_type":"pit-trial","trial_index":103,"time_elapsed":599887,"internal_node_id":"0.0-92.0","task_version":"test-retest-t3"},{"Rune":"rune_06_ehwaz","Hex":"#3366ff99","Correct":32,"Choice":32,"RT":780.1399999298155,"Accuracy":1,"Outcome":"+10","Keys":[2280.7199999224395],"TotalKeys":1,"Block":1,"Trial":87,"Robot":1,"Valence":"Win","Action":"Go","Sham":0,"Color":"blue","trial_type":"pit-trial","trial_index":104,"time_elapsed":603170,"internal_node_id":"0.0-93.0","task_version":"test-retest-t3"},{"Rune":"rune_06_ansuz","Hex":"#ffcc3399","Correct":32,"Choice":32,"RT":1368.7049997970462,"Accuracy":1,"Outcome":"-1","Keys":[2869.8549999389797],"TotalKeys":1,"Block":1,"Trial":88,"Robot":3,"Valence":"Lose","Action":"Go","Sham":0,"Color":"yellow","trial_type":"pit-trial","trial_index":105,"time_elapsed":607042,"internal_node_id":"0.0-94.0","task_version":"test-retest-t3"},{"Rune":"rune_06_ehwaz","Hex":"#3366ff99","Correct":32,"Choice":32,"RT":840.4200000222772,"Accuracy":1,"Outcome":"+10","Keys":[2341.004999820143],"TotalKeys":1,"Block":1,"Trial":89,"Robot":1,"Valence":"Win","Action":"Go","Sham":0,"Color":"blue","trial_type":"pit-trial","trial_index":106,"time_elapsed":610385,"internal_node_id":"0.0-95.0","task_version":"test-retest-t3"},{"Rune":"rune_06_berkanan","Hex":"#ffcc3399","Correct":-1,"Choice":-1,"RT":-1,"Accuracy":1,"Outcome":"-1","Keys":[],"TotalKeys":0,"Block":1,"Trial":90,"Robot":4,"Valence":"Lose","Action":"No-Go","Sham":0,"Color":"yellow","trial_type":"pit-trial","trial_index":107,"time_elapsed":614388,"internal_node_id":"0.0-96.0","task_version":"test-retest-t3"},{"Rune":"rune_06_cweord","Hex":"#3366ff99","Correct":-1,"Choice":-1,"RT":-1,"Accuracy":1,"Outcome":"+10","Keys":[],"TotalKeys":0,"Block":1,"Trial":91,"Robot":2,"Valence":"Win","Action":"No-Go","Sham":0,"Color":"blue","trial_type":"pit-trial","trial_index":108,"time_elapsed":618393,"internal_node_id":"0.0-97.0","task_version":"test-retest-t3"},{"Rune":"rune_06_ansuz","Hex":"#ffcc3399","Correct":32,"Choice":32,"RT":1393.150000134483,"Accuracy":1,"Outcome":"-1","Keys":[2894.540000008419],"TotalKeys":1,"Block":1,"Trial":92,"Robot":3,"Valence":"Lose","Action":"Go","Sham":0,"Color":"yellow","trial_type":"pit-trial","trial_index":109,"time_elapsed":622291,"internal_node_id":"0.0-98.0","task_version":"test-retest-t3"},{"Rune":"rune_06_ansuz","Hex":"#ffcc3399","Correct":32,"Choice":32,"RT":503.16999992355704,"Accuracy":1,"Outcome":"-10","Keys":[2004.295000107959],"TotalKeys":1,"Block":1,"Trial":93,"Robot":3,"Valence":"Lose","Action":"Go","Sham":1,"Color":"yellow","trial_type":"pit-trial","trial_index":110,"time_elapsed":625300,"internal_node_id":"0.0-99.0","task_version":"test-retest-t3"},{"Rune":"rune_06_ehwaz","Hex":"#3366ff99","Correct":32,"Choice":32,"RT":688.7799999676645,"Accuracy":1,"Outcome":"+10","Keys":[2192.8850000258535],"TotalKeys":1,"Block":1,"Trial":94,"Robot":1,"Valence":"Win","Action":"Go","Sham":0,"Color":"blue","trial_type":"pit-trial","trial_index":111,"time_elapsed":628498,"internal_node_id":"0.0-100.0","task_version":"test-retest-t3"},{"Rune":"rune_06_berkanan","Hex":"#ffcc3399","Correct":-1,"Choice":-1,"RT":-1,"Accuracy":1,"Outcome":"-10","Keys":[],"TotalKeys":0,"Block":1,"Trial":95,"Robot":4,"Valence":"Lose","Action":"No-Go","Sham":1,"Color":"yellow","trial_type":"pit-trial","trial_index":112,"time_elapsed":632502,"internal_node_id":"0.0-101.0","task_version":"test-retest-t3"},{"Rune":"rune_06_cweord","Hex":"#3366ff99","Correct":-1,"Choice":32,"RT":900.205000070855,"Accuracy":0,"Outcome":"+1","Keys":[2403.099999995902],"TotalKeys":1,"Block":1,"Trial":96,"Robot":2,"Valence":"Win","Action":"No-Go","Sham":0,"Color":"blue","trial_type":"pit-trial","trial_index":113,"time_elapsed":635907,"internal_node_id":"0.0-102.0","task_version":"test-retest-t3"},{"Rune":"rune_06_berkanan","Hex":"#ffcc3399","Correct":-1,"Choice":-1,"RT":-1,"Accuracy":1,"Outcome":"-1","Keys":[],"TotalKeys":0,"Block":1,"Trial":97,"Robot":4,"Valence":"Lose","Action":"No-Go","Sham":0,"Color":"yellow","trial_type":"pit-trial","trial_index":114,"time_elapsed":639910,"internal_node_id":"0.0-103.0","task_version":"test-retest-t3"},{"Rune":"rune_06_ehwaz","Hex":"#3366ff99","Correct":32,"Choice":-1,"RT":-1,"Accuracy":0,"Outcome":"+10","Keys":[3009.8500000312924],"TotalKeys":1,"Block":1,"Trial":98,"Robot":1,"Valence":"Win","Action":"Go","Sham":1,"Color":"blue","trial_type":"pit-trial","trial_index":115,"time_elapsed":643925,"internal_node_id":"0.0-104.0","task_version":"test-retest-t3"},{"Rune":"rune_06_cweord","Hex":"#3366ff99","Correct":-1,"Choice":-1,"RT":-1,"Accuracy":1,"Outcome":"+10","Keys":[],"TotalKeys":0,"Block":1,"Trial":99,"Robot":2,"Valence":"Win","Action":"No-Go","Sham":0,"Color":"blue","trial_type":"pit-trial","trial_index":116,"time_elapsed":647929,"internal_node_id":"0.0-105.0","task_version":"test-retest-t3"},{"Rune":"rune_06_ansuz","Hex":"#ffcc3399","Correct":32,"Choice":-1,"RT":-1,"Accuracy":0,"Outcome":"-10","Keys":[],"TotalKeys":0,"Block":1,"Trial":100,"Robot":3,"Valence":"Lose","Action":"Go","Sham":0,"Color":"yellow","trial_type":"pit-trial","trial_index":117,"time_elapsed":651934,"internal_node_id":"0.0-106.0","task_version":"test-retest-t3"},{"Rune":"rune_06_ehwaz","Hex":"#3366ff99","Correct":32,"Choice":32,"RT":604.9800000619143,"Accuracy":1,"Outcome":"+10","Keys":[2105.7150000706315],"TotalKeys":1,"Block":1,"Trial":101,"Robot":1,"Valence":"Win","Action":"Go","Sham":0,"Color":"blue","trial_type":"pit-trial","trial_index":118,"time_elapsed":655043,"internal_node_id":"0.0-107.0","task_version":"test-retest-t3"},{"Rune":"rune_06_ansuz","Hex":"#ffcc3399","Correct":32,"Choice":32,"RT":952.0849999971688,"Accuracy":1,"Outcome":"-1","Keys":[2454.4999999925494],"TotalKeys":1,"Block":1,"Trial":102,"Robot":3,"Valence":"Lose","Action":"Go","Sham":0,"Color":"yellow","trial_type":"pit-trial","trial_index":119,"time_elapsed":658500,"internal_node_id":"0.0-108.0","task_version":"test-retest-t3"},{"Rune":"rune_06_cweord","Hex":"#3366ff99","Correct":-1,"Choice":-1,"RT":-1,"Accuracy":1,"Outcome":"+1","Keys":[],"TotalKeys":0,"Block":1,"Trial":103,"Robot":2,"Valence":"Win","Action":"No-Go","Sham":1,"Color":"blue","trial_type":"pit-trial","trial_index":120,"time_elapsed":662504,"internal_node_id":"0.0-109.0","task_version":"test-retest-t3"},{"Rune":"rune_06_berkanan","Hex":"#ffcc3399","Correct":-1,"Choice":-1,"RT":-1,"Accuracy":1,"Outcome":"-10","Keys":[],"TotalKeys":0,"Block":1,"Trial":104,"Robot":4,"Valence":"Lose","Action":"No-Go","Sham":1,"Color":"yellow","trial_type":"pit-trial","trial_index":121,"time_elapsed":666509,"internal_node_id":"0.0-110.0","task_version":"test-retest-t3"},{"Rune":"rune_06_berkanan","Hex":"#ffcc3399","Correct":-1,"Choice":-1,"RT":-1,"Accuracy":1,"Outcome":"-1","Keys":[],"TotalKeys":0,"Block":1,"Trial":105,"Robot":4,"Valence":"Lose","Action":"No-Go","Sham":0,"Color":"yellow","trial_type":"pit-trial","trial_index":122,"time_elapsed":670513,"internal_node_id":"0.0-111.0","task_version":"test-retest-t3"},{"Rune":"rune_06_ansuz","Hex":"#ffcc3399","Correct":32,"Choice":-1,"RT":-1,"Accuracy":0,"Outcome":"-10","Keys":[],"TotalKeys":0,"Block":1,"Trial":106,"Robot":3,"Valence":"Lose","Action":"Go","Sham":0,"Color":"yellow","trial_type":"pit-trial","trial_index":123,"time_elapsed":674518,"internal_node_id":"0.0-112.0","task_version":"test-retest-t3"},{"Rune":"rune_06_cweord","Hex":"#3366ff99","Correct":-1,"Choice":32,"RT":1156.5900000277907,"Accuracy":0,"Outcome":"+1","Keys":[2656.9799999706447],"TotalKeys":1,"Block":1,"Trial":107,"Robot":2,"Valence":"Win","Action":"No-Go","Sham":0,"Color":"blue","trial_type":"pit-trial","trial_index":124,"time_elapsed":678177,"internal_node_id":"0.0-113.0","task_version":"test-retest-t3"},{"Rune":"rune_06_ehwaz","Hex":"#3366ff99","Correct":32,"Choice":-1,"RT":-1,"Accuracy":0,"Outcome":"+1","Keys":[3350.1150000374764],"TotalKeys":1,"Block":1,"Trial":108,"Robot":1,"Valence":"Win","Action":"Go","Sham":0,"Color":"blue","trial_type":"pit-trial","trial_index":125,"time_elapsed":682181,"internal_node_id":"0.0-114.0","task_version":"test-retest-t3"},{"Rune":"rune_06_ehwaz","Hex":"#3366ff99","Correct":32,"Choice":32,"RT":469.15999986231327,"Accuracy":1,"Outcome":"+10","Keys":[1969.4799999706447],"TotalKeys":1,"Block":1,"Trial":109,"Robot":1,"Valence":"Win","Action":"Go","Sham":0,"Color":"blue","trial_type":"pit-trial","trial_index":126,"time_elapsed":685156,"internal_node_id":"0.0-115.0","task_version":"test-retest-t3"},{"Rune":"rune_06_ansuz","Hex":"#ffcc3399","Correct":32,"Choice":32,"RT":790.430000051856,"Accuracy":1,"Outcome":"-10","Keys":[2291.0249999258667],"TotalKeys":1,"Block":1,"Trial":110,"Robot":3,"Valence":"Lose","Action":"Go","Sham":1,"Color":"yellow","trial_type":"pit-trial","trial_index":127,"time_elapsed":688450,"internal_node_id":"0.0-116.0","task_version":"test-retest-t3"},{"Rune":"rune_06_cweord","Hex":"#3366ff99","Correct":-1,"Choice":-1,"RT":-1,"Accuracy":1,"Outcome":"+10","Keys":[],"TotalKeys":0,"Block":1,"Trial":111,"Robot":2,"Valence":"Win","Action":"No-Go","Sham":0,"Color":"blue","trial_type":"pit-trial","trial_index":128,"time_elapsed":692454,"internal_node_id":"0.0-117.0","task_version":"test-retest-t3"},{"Rune":"rune_06_berkanan","Hex":"#ffcc3399","Correct":-1,"Choice":-1,"RT":-1,"Accuracy":1,"Outcome":"-1","Keys":[],"TotalKeys":0,"Block":1,"Trial":112,"Robot":4,"Valence":"Lose","Action":"No-Go","Sham":0,"Color":"yellow","trial_type":"pit-trial","trial_index":129,"time_elapsed":696459,"internal_node_id":"0.0-118.0","task_version":"test-retest-t3"},{"Rune":"rune_06_ehwaz","Hex":"#3366ff99","Correct":32,"Choice":32,"RT":607.4050001334399,"Accuracy":1,"Outcome":"+1","Keys":[2108.8449999224395],"TotalKeys":1,"Block":1,"Trial":113,"Robot":1,"Valence":"Win","Action":"Go","Sham":1,"Color":"blue","trial_type":"pit-trial","trial_index":130,"time_elapsed":699569,"internal_node_id":"0.0-119.0","task_version":"test-retest-t3"},{"Rune":"rune_06_ansuz","Hex":"#ffcc3399","Correct":32,"Choice":32,"RT":569.4600001443177,"Accuracy":1,"Outcome":"-1","Keys":[2069.9450001120567],"TotalKeys":1,"Block":1,"Trial":114,"Robot":3,"Valence":"Lose","Action":"Go","Sham":0,"Color":"yellow","trial_type":"pit-trial","trial_index":131,"time_elapsed":702644,"internal_node_id":"0.0-120.0","task_version":"test-retest-t3"},{"Rune":"rune_06_cweord","Hex":"#3366ff99","Correct":-1,"Choice":-1,"RT":-1,"Accuracy":1,"Outcome":"+10","Keys":[],"TotalKeys":0,"Block":1,"Trial":115,"Robot":2,"Valence":"Win","Action":"No-Go","Sham":0,"Color":"blue","trial_type":"pit-trial","trial_index":132,"time_elapsed":706648,"internal_node_id":"0.0-121.0","task_version":"test-retest-t3"},{"Rune":"rune_06_berkanan","Hex":"#ffcc3399","Correct":-1,"Choice":-1,"RT":-1,"Accuracy":1,"Outcome":"-1","Keys":[],"TotalKeys":0,"Block":1,"Trial":116,"Robot":4,"Valence":"Lose","Action":"No-Go","Sham":0,"Color":"yellow","trial_type":"pit-trial","trial_index":133,"time_elapsed":710651,"internal_node_id":"0.0-122.0","task_version":"test-retest-t3"},{"Rune":"rune_06_cweord","Hex":"#3366ff99","Correct":-1,"Choice":-1,"RT":-1,"Accuracy":1,"Outcome":"+10","Keys":[],"TotalKeys":0,"Block":1,"Trial":117,"Robot":2,"Valence":"Win","Action":"No-Go","Sham":0,"Color":"blue","trial_type":"pit-trial","trial_index":134,"time_elapsed":714654,"internal_node_id":"0.0-123.0","task_version":"test-retest-t3"},{"Rune":"rune_06_ansuz","Hex":"#ffcc3399","Correct":32,"Choice":32,"RT":524.3850001133978,"Accuracy":1,"Outcome":"-1","Keys":[2025.374999968335],"TotalKeys":1,"Block":1,"Trial":118,"Robot":3,"Valence":"Lose","Action":"Go","Sham":0,"Color":"yellow","trial_type":"pit-trial","trial_index":135,"time_elapsed":717683,"internal_node_id":"0.0-124.0","task_version":"test-retest-t3"},{"Rune":"rune_06_berkanan","Hex":"#ffcc3399","Correct":-1,"Choice":32,"RT":1239.3100000917912,"Accuracy":0,"Outcome":"-10","Keys":[2739.8649998940527],"TotalKeys":1,"Block":1,"Trial":119,"Robot":4,"Valence":"Lose","Action":"No-Go","Sham":0,"Color":"yellow","trial_type":"pit-trial","trial_index":136,"time_elapsed":721426,"internal_node_id":"0.0-125.0","task_version":"test-retest-t3"},{"Rune":"rune_06_ehwaz","Hex":"#3366ff99","Correct":32,"Choice":-1,"RT":-1,"Accuracy":0,"Outcome":"+1","Keys":[3381.4600000623614],"TotalKeys":1,"Block":1,"Trial":120,"Robot":1,"Valence":"Win","Action":"Go","Sham":0,"Color":"blue","trial_type":"pit-trial","trial_index":137,"time_elapsed":725431,"internal_node_id":"0.0-126.0","task_version":"test-retest-t3"},{"view_history":"[{\"page_index\":0,\"viewing_time\":25991.25500000082},{\"page_index\":1,\"viewing_time\":1736.1500000115484},{\"page_index\":2,\"viewing_time\":1232.1000001393259}]","rt":28960.32000007108,"trial_type":"pit-instructions","trial_index":138,"time_elapsed":754394,"internal_node_id":"0.0-127.0","task_version":"test-retest-t3"},{"Rune":"rune_05_ior","Hex":"#ffcc3399","Correct":-1,"Choice":32,"RT":701.0449999943376,"Accuracy":0,"Outcome":"-10","Keys":[2202.4650000967085],"TotalKeys":1,"Block":2,"Trial":121,"Robot":4,"Valence":"Lose","Action":"No-Go","Sham":0,"Color":"yellow","trial_type":"pit-trial","trial_index":139,"time_elapsed":757602,"internal_node_id":"0.0-128.0","task_version":"test-retest-t3"},{"Rune":"rune_05_tiwaz","Hex":"#ffcc3399","Correct":32,"Choice":32,"RT":553.3950000535697,"Accuracy":1,"Outcome":"-10","Keys":[2053.7849999964237],"TotalKeys":1,"Block":2,"Trial":122,"Robot":3,"Valence":"Lose","Action":"Go","Sham":1,"Color":"yellow","trial_type":"pit-trial","trial_index":140,"time_elapsed":760658,"internal_node_id":"0.0-129.0","task_version":"test-retest-t3"},{"Rune":"rune_05_jeran","Hex":"#3366ff99","Correct":-1,"Choice":32,"RT":517.5499999895692,"Accuracy":0,"Outcome":"+10","Keys":[2019.7050001006573],"TotalKeys":1,"Block":2,"Trial":123,"Robot":2,"Valence":"Win","Action":"No-Go","Sham":1,"Color":"blue","trial_type":"pit-trial","trial_index":141,"time_elapsed":763681,"internal_node_id":"0.0-130.0","task_version":"test-retest-t3"},{"Rune":"rune_05_gebo","Hex":"#3366ff99","Correct":32,"Choice":32,"RT":408.2599999383092,"Accuracy":1,"Outcome":"+10","Keys":[1908.9500000700355],"TotalKeys":1,"Block":2,"Trial":124,"Robot":1,"Valence":"Win","Action":"Go","Sham":0,"Color":"blue","trial_type":"pit-trial","trial_index":142,"time_elapsed":766593,"internal_node_id":"0.0-131.0","task_version":"test-retest-t3"},{"Rune":"rune_05_jeran","Hex":"#3366ff99","Correct":-1,"Choice":32,"RT":1381.220000097528,"Accuracy":0,"Outcome":"+1","Keys":[2885.2500000502914],"TotalKeys":1,"Block":2,"Trial":125,"Robot":2,"Valence":"Win","Action":"No-Go","Sham":0,"Color":"blue","trial_type":"pit-trial","trial_index":143,"time_elapsed":770481,"internal_node_id":"0.0-132.0","task_version":"test-retest-t3"},{"Rune":"rune_05_gebo","Hex":"#3366ff99","Correct":32,"Choice":32,"RT":486.89000005833805,"Accuracy":1,"Outcome":"+10","Keys":[1989.2749998252839],"TotalKeys":1,"Block":2,"Trial":126,"Robot":1,"Valence":"Win","Action":"Go","Sham":0,"Color":"blue","trial_type":"pit-trial","trial_index":144,"time_elapsed":773490,"internal_node_id":"0.0-133.0","task_version":"test-retest-t3"},{"Rune":"rune_05_tiwaz","Hex":"#ffcc3399","Correct":32,"Choice":-1,"RT":-1,"Accuracy":0,"Outcome":"-10","Keys":[],"TotalKeys":0,"Block":2,"Trial":127,"Robot":3,"Valence":"Lose","Action":"Go","Sham":0,"Color":"yellow","trial_type":"pit-trial","trial_index":145,"time_elapsed":777501,"internal_node_id":"0.0-134.0","task_version":"test-retest-t3"},{"Rune":"rune_05_ior","Hex":"#ffcc3399","Correct":-1,"Choice":32,"RT":573.2350000180304,"Accuracy":0,"Outcome":"-10","Keys":[2073.629999998957],"TotalKeys":1,"Block":2,"Trial":128,"Robot":4,"Valence":"Lose","Action":"No-Go","Sham":0,"Color":"yellow","trial_type":"pit-trial","trial_index":146,"time_elapsed":780578,"internal_node_id":"0.0-135.0","task_version":"test-retest-t3"},{"Rune":"rune_05_gebo","Hex":"#3366ff99","Correct":32,"Choice":32,"RT":1079.484999878332,"Accuracy":1,"Outcome":"+10","Keys":[2580.640000058338],"TotalKeys":1,"Block":2,"Trial":129,"Robot":1,"Valence":"Win","Action":"Go","Sham":0,"Color":"blue","trial_type":"pit-trial","trial_index":147,"time_elapsed":784161,"internal_node_id":"0.0-136.0","task_version":"test-retest-t3"},{"Rune":"rune_05_tiwaz","Hex":"#ffcc3399","Correct":32,"Choice":-1,"RT":-1,"Accuracy":0,"Outcome":"-10","Keys":[],"TotalKeys":0,"Block":2,"Trial":130,"Robot":3,"Valence":"Lose","Action":"Go","Sham":0,"Color":"yellow","trial_type":"pit-trial","trial_index":148,"time_elapsed":788165,"internal_node_id":"0.0-137.0","task_version":"test-retest-t3"},{"Rune":"rune_05_jeran","Hex":"#3366ff99","Correct":-1,"Choice":-1,"RT":-1,"Accuracy":1,"Outcome":"+10","Keys":[3890.1750000659376],"TotalKeys":1,"Block":2,"Trial":131,"Robot":2,"Valence":"Win","Action":"No-Go","Sham":0,"Color":"blue","trial_type":"pit-trial","trial_index":149,"time_elapsed":792170,"internal_node_id":"0.0-138.0","task_version":"test-retest-t3"},{"Rune":"rune_05_ior","Hex":"#ffcc3399","Correct":-1,"Choice":32,"RT":95.28500004671514,"Accuracy":0,"Outcome":"-10","Keys":[1596.0150000173599],"TotalKeys":1,"Block":2,"Trial":132,"Robot":4,"Valence":"Lose","Action":"No-Go","Sham":0,"Color":"yellow","trial_type":"pit-trial","trial_index":150,"time_elapsed":794769,"internal_node_id":"0.0-139.0","task_version":"test-retest-t3"},{"Rune":"rune_05_gebo","Hex":"#3366ff99","Correct":32,"Choice":32,"RT":148.68000010028481,"Accuracy":1,"Outcome":"+10","Keys":[1653.4349999856204],"TotalKeys":1,"Block":2,"Trial":133,"Robot":1,"Valence":"Win","Action":"Go","Sham":0,"Color":"blue","trial_type":"pit-trial","trial_index":151,"time_elapsed":797425,"internal_node_id":"0.0-140.0","task_version":"test-retest-t3"},{"Rune":"rune_05_tiwaz","Hex":"#ffcc3399","Correct":32,"Choice":-1,"RT":-1,"Accuracy":0,"Outcome":"-10","Keys":[],"TotalKeys":0,"Block":2,"Trial":134,"Robot":3,"Valence":"Lose","Action":"Go","Sham":0,"Color":"yellow","trial_type":"pit-trial","trial_index":152,"time_elapsed":801430,"internal_node_id":"0.0-141.0","task_version":"test-retest-t3"},{"Rune":"rune_05_ior","Hex":"#ffcc3399","Correct":-1,"Choice":-1,"RT":-1,"Accuracy":1,"Outcome":"-1","Keys":[3824.8250000178814],"TotalKeys":1,"Block":2,"Trial":135,"Robot":4,"Valence":"Lose","Action":"No-Go","Sham":0,"Color":"yellow","trial_type":"pit-trial","trial_index":153,"time_elapsed":805434,"internal_node_id":"0.0-142.0","task_version":"test-retest-t3"},{"Rune":"rune_05_jeran","Hex":"#3366ff99","Correct":-1,"Choice":32,"RT":735.3499999735504,"Accuracy":0,"Outcome":"+1","Keys":[2236.25999991782],"TotalKeys":1,"Block":2,"Trial":136,"Robot":2,"Valence":"Win","Action":"No-Go","Sham":0,"Color":"blue","trial_type":"pit-trial","trial_index":154,"time_elapsed":808673,"internal_node_id":"0.0-143.0","task_version":"test-retest-t3"},{"Rune":"rune_05_gebo","Hex":"#3366ff99","Correct":32,"Choice":32,"RT":884.3400001060218,"Accuracy":1,"Outcome":"+1","Keys":[2388.075000140816],"TotalKeys":1,"Block":2,"Trial":137,"Robot":1,"Valence":"Win","Action":"Go","Sham":1,"Color":"blue","trial_type":"pit-trial","trial_index":155,"time_elapsed":812065,"internal_node_id":"0.0-144.0","task_version":"test-retest-t3"},{"Rune":"rune_05_jeran","Hex":"#3366ff99","Correct":-1,"Choice":-1,"RT":-1,"Accuracy":1,"Outcome":"+10","Keys":[],"TotalKeys":0,"Block":2,"Trial":138,"Robot":2,"Valence":"Win","Action":"No-Go","Sham":0,"Color":"blue","trial_type":"pit-trial","trial_index":156,"time_elapsed":816069,"internal_node_id":"0.0-145.0","task_version":"test-retest-t3"},{"Rune":"rune_05_ior","Hex":"#ffcc3399","Correct":-1,"Choice":-1,"RT":-1,"Accuracy":1,"Outcome":"-10","Keys":[3312.5350000336766],"TotalKeys":1,"Block":2,"Trial":139,"Robot":4,"Valence":"Lose","Action":"No-Go","Sham":1,"Color":"yellow","trial_type":"pit-trial","trial_index":157,"time_elapsed":820074,"internal_node_id":"0.0-146.0","task_version":"test-retest-t3"},{"Rune":"rune_05_tiwaz","Hex":"#ffcc3399","Correct":32,"Choice":-1,"RT":-1,"Accuracy":0,"Outcome":"-10","Keys":[],"TotalKeys":0,"Block":2,"Trial":140,"Robot":3,"Valence":"Lose","Action":"Go","Sham":0,"Color":"yellow","trial_type":"pit-trial","trial_index":158,"time_elapsed":824078,"internal_node_id":"0.0-147.0","task_version":"test-retest-t3"},{"Rune":"rune_05_tiwaz","Hex":"#ffcc3399","Correct":32,"Choice":32,"RT":538.4100000374019,"Accuracy":1,"Outcome":"-10","Keys":[2040.3249999508262],"TotalKeys":1,"Block":2,"Trial":141,"Robot":3,"Valence":"Lose","Action":"Go","Sham":1,"Color":"yellow","trial_type":"pit-trial","trial_index":159,"time_elapsed":827120,"internal_node_id":"0.0-148.0","task_version":"test-retest-t3"},{"Rune":"rune_05_ior","Hex":"#ffcc3399","Correct":-1,"Choice":-1,"RT":-1,"Accuracy":1,"Outcome":"-1","Keys":[],"TotalKeys":0,"Block":2,"Trial":142,"Robot":4,"Valence":"Lose","Action":"No-Go","Sham":0,"Color":"yellow","trial_type":"pit-trial","trial_index":160,"time_elapsed":831124,"internal_node_id":"0.0-149.0","task_version":"test-retest-t3"},{"Rune":"rune_05_jeran","Hex":"#3366ff99","Correct":-1,"Choice":32,"RT":903.7600001320243,"Accuracy":0,"Outcome":"+1","Keys":[2404.035000130534],"TotalKeys":1,"Block":2,"Trial":143,"Robot":2,"Valence":"Win","Action":"No-Go","Sham":0,"Color":"blue","trial_type":"pit-trial","trial_index":161,"time_elapsed":834531,"internal_node_id":"0.0-150.0","task_version":"test-retest-t3"},{"Rune":"rune_05_gebo","Hex":"#3366ff99","Correct":32,"Choice":-1,"RT":-1,"Accuracy":0,"Outcome":"+10","Keys":[],"TotalKeys":0,"Block":2,"Trial":144,"Robot":1,"Valence":"Win","Action":"Go","Sham":1,"Color":"blue","trial_type":"pit-trial","trial_index":162,"time_elapsed":838535,"internal_node_id":"0.0-151.0","task_version":"test-retest-t3"},{"Rune":"rune_05_gebo","Hex":"#3366ff99","Correct":32,"Choice":-1,"RT":-1,"Accuracy":0,"Outcome":"+1","Keys":[],"TotalKeys":0,"Block":2,"Trial":145,"Robot":1,"Valence":"Win","Action":"Go","Sham":0,"Color":"blue","trial_type":"pit-trial","trial_index":163,"time_elapsed":842540,"internal_node_id":"0.0-152.0","task_version":"test-retest-t3"},{"Rune":"rune_05_ior","Hex":"#ffcc3399","Correct":-1,"Choice":-1,"RT":-1,"Accuracy":1,"Outcome":"-1","Keys":[],"TotalKeys":0,"Block":2,"Trial":146,"Robot":4,"Valence":"Lose","Action":"No-Go","Sham":0,"Color":"yellow","trial_type":"pit-trial","trial_index":164,"time_elapsed":846544,"internal_node_id":"0.0-153.0","task_version":"test-retest-t3"},{"Rune":"rune_05_tiwaz","Hex":"#ffcc3399","Correct":32,"Choice":-1,"RT":-1,"Accuracy":0,"Outcome":"-10","Keys":[],"TotalKeys":0,"Block":2,"Trial":147,"Robot":3,"Valence":"Lose","Action":"Go","Sham":0,"Color":"yellow","trial_type":"pit-trial","trial_index":165,"time_elapsed":850547,"internal_node_id":"0.0-154.0","task_version":"test-retest-t3"},{"Rune":"rune_05_jeran","Hex":"#3366ff99","Correct":-1,"Choice":-1,"RT":-1,"Accuracy":1,"Outcome":"+10","Keys":[],"TotalKeys":0,"Block":2,"Trial":148,"Robot":2,"Valence":"Win","Action":"No-Go","Sham":0,"Color":"blue","trial_type":"pit-trial","trial_index":166,"time_elapsed":854551,"internal_node_id":"0.0-155.0","task_version":"test-retest-t3"},{"Rune":"rune_05_tiwaz","Hex":"#ffcc3399","Correct":32,"Choice":-1,"RT":-1,"Accuracy":0,"Outcome":"-10","Keys":[],"TotalKeys":0,"Block":2,"Trial":149,"Robot":3,"Valence":"Lose","Action":"Go","Sham":0,"Color":"yellow","trial_type":"pit-trial","trial_index":167,"time_elapsed":858555,"internal_node_id":"0.0-156.0","task_version":"test-retest-t3"},{"Rune":"rune_05_gebo","Hex":"#3366ff99","Correct":32,"Choice":32,"RT":508.254999993369,"Accuracy":1,"Outcome":"+10","Keys":[2009.7950000781566],"TotalKeys":1,"Block":2,"Trial":150,"Robot":1,"Valence":"Win","Action":"Go","Sham":0,"Color":"blue","trial_type":"pit-trial","trial_index":168,"time_elapsed":861569,"internal_node_id":"0.0-157.0","task_version":"test-retest-t3"},{"Rune":"rune_05_ior","Hex":"#ffcc3399","Correct":-1,"Choice":-1,"RT":-1,"Accuracy":1,"Outcome":"-1","Keys":[],"TotalKeys":0,"Block":2,"Trial":151,"Robot":4,"Valence":"Lose","Action":"No-Go","Sham":0,"Color":"yellow","trial_type":"pit-trial","trial_index":169,"time_elapsed":865573,"internal_node_id":"0.0-158.0","task_version":"test-retest-t3"},{"Rune":"rune_05_jeran","Hex":"#3366ff99","Correct":-1,"Choice":32,"RT":576.5250001568347,"Accuracy":0,"Outcome":"+1","Keys":[2080.254999920726],"TotalKeys":1,"Block":2,"Trial":152,"Robot":2,"Valence":"Win","Action":"No-Go","Sham":0,"Color":"blue","trial_type":"pit-trial","trial_index":170,"time_elapsed":868657,"internal_node_id":"0.0-159.0","task_version":"test-retest-t3"},{"Rune":"rune_05_gebo","Hex":"#3366ff99","Correct":32,"Choice":-1,"RT":-1,"Accuracy":0,"Outcome":"+1","Keys":[3109.1700000688434],"TotalKeys":1,"Block":2,"Trial":153,"Robot":1,"Valence":"Win","Action":"Go","Sham":0,"Color":"blue","trial_type":"pit-trial","trial_index":171,"time_elapsed":872660,"internal_node_id":"0.0-160.0","task_version":"test-retest-t3"},{"Rune":"rune_05_ior","Hex":"#ffcc3399","Correct":-1,"Choice":-1,"RT":-1,"Accuracy":1,"Outcome":"-1","Keys":[],"TotalKeys":0,"Block":2,"Trial":154,"Robot":4,"Valence":"Lose","Action":"No-Go","Sham":0,"Color":"yellow","trial_type":"pit-trial","trial_index":172,"time_elapsed":876665,"internal_node_id":"0.0-161.0","task_version":"test-retest-t3"},{"Rune":"rune_05_tiwaz","Hex":"#ffcc3399","Correct":32,"Choice":-1,"RT":-1,"Accuracy":0,"Outcome":"-10","Keys":[],"TotalKeys":0,"Block":2,"Trial":155,"Robot":3,"Valence":"Lose","Action":"Go","Sham":0,"Color":"yellow","trial_type":"pit-trial","trial_index":173,"time_elapsed":880670,"internal_node_id":"0.0-162.0","task_version":"test-retest-t3"},{"Rune":"rune_05_jeran","Hex":"#3366ff99","Correct":-1,"Choice":32,"RT":1018.5450001154095,"Accuracy":0,"Outcome":"+10","Keys":[2519.7799999732524],"TotalKeys":1,"Block":2,"Trial":156,"Robot":2,"Valence":"Win","Action":"No-Go","Sham":1,"Color":"blue","trial_type":"pit-trial","trial_index":174,"time_elapsed":884193,"internal_node_id":"0.0-163.0","task_version":"test-retest-t3"},{"Rune":"rune_05_jeran","Hex":"#3366ff99","Correct":-1,"Choice":32,"RT":583.8950001634657,"Accuracy":0,"Outcome":"+1","Keys":[2085.044999839738],"TotalKeys":1,"Block":2,"Trial":157,"Robot":2,"Valence":"Win","Action":"No-Go","Sham":0,"Color":"blue","trial_type":"pit-trial","trial_index":175,"time_elapsed":887280,"internal_node_id":"0.0-164.0","task_version":"test-retest-t3"},{"Rune":"rune_05_gebo","Hex":"#3366ff99","Correct":32,"Choice":32,"RT":555.7150000240654,"Accuracy":1,"Outcome":"+10","Keys":[2059.354999801144],"TotalKeys":1,"Block":2,"Trial":158,"Robot":1,"Valence":"Win","Action":"Go","Sham":0,"Color":"blue","trial_type":"pit-trial","trial_index":176,"time_elapsed":890342,"internal_node_id":"0.0-165.0","task_version":"test-retest-t3"},{"Rune":"rune_05_ior","Hex":"#ffcc3399","Correct":-1,"Choice":-1,"RT":-1,"Accuracy":1,"Outcome":"-10","Keys":[],"TotalKeys":0,"Block":2,"Trial":159,"Robot":4,"Valence":"Lose","Action":"No-Go","Sham":1,"Color":"yellow","trial_type":"pit-trial","trial_index":177,"time_elapsed":894346,"internal_node_id":"0.0-166.0","task_version":"test-retest-t3"},{"Rune":"rune_05_tiwaz","Hex":"#ffcc3399","Correct":32,"Choice":-1,"RT":-1,"Accuracy":0,"Outcome":"-10","Keys":[],"TotalKeys":0,"Block":2,"Trial":160,"Robot":3,"Valence":"Lose","Action":"Go","Sham":0,"Color":"yellow","trial_type":"pit-trial","trial_index":178,"time_elapsed":898350,"internal_node_id":"0.0-167.0","task_version":"test-retest-t3"},{"Rune":"rune_05_gebo","Hex":"#3366ff99","Correct":32,"Choice":32,"RT":539.335000095889,"Accuracy":1,"Outcome":"+10","Keys":[2040.3599999845028],"TotalKeys":1,"Block":2,"Trial":161,"Robot":1,"Valence":"Win","Action":"Go","Sham":0,"Color":"blue","trial_type":"pit-trial","trial_index":179,"time_elapsed":901393,"internal_node_id":"0.0-168.0","task_version":"test-retest-t3"},{"Rune":"rune_05_jeran","Hex":"#3366ff99","Correct":-1,"Choice":32,"RT":711.0150000080466,"Accuracy":0,"Outcome":"+1","Keys":[2212.234999984503],"TotalKeys":1,"Block":2,"Trial":162,"Robot":2,"Valence":"Win","Action":"No-Go","Sham":0,"Color":"blue","trial_type":"pit-trial","trial_index":180,"time_elapsed":904608,"internal_node_id":"0.0-169.0","task_version":"test-retest-t3"},{"Rune":"rune_05_ior","Hex":"#ffcc3399","Correct":-1,"Choice":-1,"RT":-1,"Accuracy":1,"Outcome":"-10","Keys":[],"TotalKeys":0,"Block":2,"Trial":163,"Robot":4,"Valence":"Lose","Action":"No-Go","Sham":1,"Color":"yellow","trial_type":"pit-trial","trial_index":181,"time_elapsed":908612,"internal_node_id":"0.0-170.0","task_version":"test-retest-t3"},{"Rune":"rune_05_tiwaz","Hex":"#ffcc3399","Correct":32,"Choice":32,"RT":1173.369999974966,"Accuracy":1,"Outcome":"-1","Keys":[2674.590000184253],"TotalKeys":1,"Block":2,"Trial":164,"Robot":3,"Valence":"Lose","Action":"Go","Sham":0,"Color":"yellow","trial_type":"pit-trial","trial_index":182,"time_elapsed":912289,"internal_node_id":"0.0-171.0","task_version":"test-retest-t3"},{"Rune":"rune_05_jeran","Hex":"#3366ff99","Correct":-1,"Choice":-1,"RT":-1,"Accuracy":1,"Outcome":"+10","Keys":[],"TotalKeys":0,"Block":2,"Trial":165,"Robot":2,"Valence":"Win","Action":"No-Go","Sham":0,"Color":"blue","trial_type":"pit-trial","trial_index":183,"time_elapsed":916295,"internal_node_id":"0.0-172.0","task_version":"test-retest-t3"},{"Rune":"rune_05_gebo","Hex":"#3366ff99","Correct":32,"Choice":-1,"RT":-1,"Accuracy":0,"Outcome":"+1","Keys":[3519.235000014305],"TotalKeys":1,"Block":2,"Trial":166,"Robot":1,"Valence":"Win","Action":"Go","Sham":0,"Color":"blue","trial_type":"pit-trial","trial_index":184,"time_elapsed":920299,"internal_node_id":"0.0-173.0","task_version":"test-retest-t3"},{"Rune":"rune_05_ior","Hex":"#ffcc3399","Correct":-1,"Choice":32,"RT":766.1300001200289,"Accuracy":0,"Outcome":"-10","Keys":[2267.4700000789016],"TotalKeys":1,"Block":2,"Trial":167,"Robot":4,"Valence":"Lose","Action":"No-Go","Sham":0,"Color":"yellow","trial_type":"pit-trial","trial_index":185,"time_elapsed":923570,"internal_node_id":"0.0-174.0","task_version":"test-retest-t3"},{"Rune":"rune_05_tiwaz","Hex":"#ffcc3399","Correct":32,"Choice":32,"RT":999.5549998711795,"Accuracy":1,"Outcome":"-10","Keys":[2500.0350000336766],"TotalKeys":1,"Block":2,"Trial":168,"Robot":3,"Valence":"Lose","Action":"Go","Sham":1,"Color":"yellow","trial_type":"pit-trial","trial_index":186,"time_elapsed":927073,"internal_node_id":"0.0-175.0","task_version":"test-retest-t3"},{"Rune":"rune_05_tiwaz","Hex":"#ffcc3399","Correct":32,"Choice":32,"RT":551.9399999175221,"Accuracy":1,"Outcome":"-1","Keys":[2052.8800000902265],"TotalKeys":1,"Block":2,"Trial":169,"Robot":3,"Valence":"Lose","Action":"Go","Sham":0,"Color":"yellow","trial_type":"pit-trial","trial_index":187,"time_elapsed":930129,"internal_node_id":"0.0-176.0","task_version":"test-retest-t3"},{"Rune":"rune_05_gebo","Hex":"#3366ff99","Correct":32,"Choice":32,"RT":808.3800000604242,"Accuracy":1,"Outcome":"+10","Keys":[2309.095000149682],"TotalKeys":1,"Block":2,"Trial":170,"Robot":1,"Valence":"Win","Action":"Go","Sham":0,"Color":"blue","trial_type":"pit-trial","trial_index":188,"time_elapsed":933440,"internal_node_id":"0.0-177.0","task_version":"test-retest-t3"},{"Rune":"rune_05_ior","Hex":"#ffcc3399","Correct":-1,"Choice":-1,"RT":-1,"Accuracy":1,"Outcome":"-1","Keys":[],"TotalKeys":0,"Block":2,"Trial":171,"Robot":4,"Valence":"Lose","Action":"No-Go","Sham":0,"Color":"yellow","trial_type":"pit-trial","trial_index":189,"time_elapsed":937444,"internal_node_id":"0.0-178.0","task_version":"test-retest-t3"},{"Rune":"rune_05_jeran","Hex":"#3366ff99","Correct":-1,"Choice":32,"RT":515.4850000981241,"Accuracy":0,"Outcome":"+1","Keys":[2016.770000103861],"TotalKeys":1,"Block":2,"Trial":172,"Robot":2,"Valence":"Win","Action":"No-Go","Sham":0,"Color":"blue","trial_type":"pit-trial","trial_index":190,"time_elapsed":940465,"internal_node_id":"0.0-179.0","task_version":"test-retest-t3"},{"Rune":"rune_05_ior","Hex":"#ffcc3399","Correct":-1,"Choice":-1,"RT":-1,"Accuracy":1,"Outcome":"-1","Keys":[],"TotalKeys":0,"Block":2,"Trial":173,"Robot":4,"Valence":"Lose","Action":"No-Go","Sham":0,"Color":"yellow","trial_type":"pit-trial","trial_index":191,"time_elapsed":944471,"internal_node_id":"0.0-180.0","task_version":"test-retest-t3"},{"Rune":"rune_05_tiwaz","Hex":"#ffcc3399","Correct":32,"Choice":32,"RT":562.2750001493841,"Accuracy":1,"Outcome":"-1","Keys":[2062.7900001127273],"TotalKeys":1,"Block":2,"Trial":174,"Robot":3,"Valence":"Lose","Action":"Go","Sham":0,"Color":"yellow","trial_type":"pit-trial","trial_index":192,"time_elapsed":947537,"internal_node_id":"0.0-181.0","task_version":"test-retest-t3"},{"Rune":"rune_05_gebo","Hex":"#3366ff99","Correct":32,"Choice":32,"RT":712.6800001133233,"Accuracy":1,"Outcome":"+10","Keys":[2213.539999909699],"TotalKeys":1,"Block":2,"Trial":175,"Robot":1,"Valence":"Win","Action":"Go","Sham":0,"Color":"blue","trial_type":"pit-trial","trial_index":193,"time_elapsed":950753,"internal_node_id":"0.0-182.0","task_version":"test-retest-t3"},{"Rune":"rune_05_jeran","Hex":"#3366ff99","Correct":-1,"Choice":-1,"RT":-1,"Accuracy":1,"Outcome":"+1","Keys":[],"TotalKeys":0,"Block":2,"Trial":176,"Robot":2,"Valence":"Win","Action":"No-Go","Sham":1,"Color":"blue","trial_type":"pit-trial","trial_index":194,"time_elapsed":954755,"internal_node_id":"0.0-183.0","task_version":"test-retest-t3"},{"Rune":"rune_05_tiwaz","Hex":"#ffcc3399","Correct":32,"Choice":32,"RT":660.2600000333041,"Accuracy":1,"Outcome":"-1","Keys":[2162.809999892488],"TotalKeys":1,"Block":2,"Trial":177,"Robot":3,"Valence":"Lose","Action":"Go","Sham":0,"Color":"yellow","trial_type":"pit-trial","trial_index":195,"time_elapsed":957920,"internal_node_id":"0.0-184.0","task_version":"test-retest-t3"},{"Rune":"rune_05_ior","Hex":"#ffcc3399","Correct":-1,"Choice":-1,"RT":-1,"Accuracy":1,"Outcome":"-1","Keys":[],"TotalKeys":0,"Block":2,"Trial":178,"Robot":4,"Valence":"Lose","Action":"No-Go","Sham":0,"Color":"yellow","trial_type":"pit-trial","trial_index":196,"time_elapsed":961926,"internal_node_id":"0.0-185.0","task_version":"test-retest-t3"},{"Rune":"rune_05_jeran","Hex":"#3366ff99","Correct":-1,"Choice":-1,"RT":-1,"Accuracy":1,"Outcome":"+10","Keys":[],"TotalKeys":0,"Block":2,"Trial":179,"Robot":2,"Valence":"Win","Action":"No-Go","Sham":0,"Color":"blue","trial_type":"pit-trial","trial_index":197,"time_elapsed":965929,"internal_node_id":"0.0-186.0","task_version":"test-retest-t3"},{"Rune":"rune_05_gebo","Hex":"#3366ff99","Correct":32,"Choice":32,"RT":512.3300000559539,"Accuracy":1,"Outcome":"+1","Keys":[2012.675000121817],"TotalKeys":1,"Block":2,"Trial":180,"Robot":1,"Valence":"Win","Action":"Go","Sham":1,"Color":"blue","trial_type":"pit-trial","trial_index":198,"time_elapsed":968945,"internal_node_id":"0.0-187.0","task_version":"test-retest-t3"},{"view_history":"[{\"page_index\":0,\"viewing_time\":3660.6799999717623},{\"page_index\":1,\"viewing_time\":471.81499982252717}]","rt":4132.909999927506,"trial_type":"pit-instructions","trial_index":199,"time_elapsed":973079,"internal_node_id":"0.0-188.0","task_version":"test-retest-t3"},{"Rune":"rune_05_jeran","Hex":"#3366ff99","Correct":-1,"Choice":-1,"RT":-1,"Accuracy":1,"Outcome":"+10","Keys":[],"TotalKeys":0,"Block":2,"Trial":181,"Robot":2,"Valence":"Win","Action":"No-Go","Sham":0,"Color":"blue","trial_type":"pit-trial","trial_index":200,"time_elapsed":977085,"internal_node_id":"0.0-189.0","task_version":"test-retest-t3"},{"Rune":"rune_05_tiwaz","Hex":"#ffcc3399","Correct":32,"Choice":-1,"RT":-1,"Accuracy":0,"Outcome":"-10","Keys":[],"TotalKeys":0,"Block":2,"Trial":182,"Robot":3,"Valence":"Lose","Action":"Go","Sham":0,"Color":"yellow","trial_type":"pit-trial","trial_index":201,"time_elapsed":981089,"internal_node_id":"0.0-190.0","task_version":"test-retest-t3"},{"Rune":"rune_05_ior","Hex":"#ffcc3399","Correct":-1,"Choice":-1,"RT":-1,"Accuracy":1,"Outcome":"-1","Keys":[],"TotalKeys":0,"Block":2,"Trial":183,"Robot":4,"Valence":"Lose","Action":"No-Go","Sham":0,"Color":"yellow","trial_type":"pit-trial","trial_index":202,"time_elapsed":985092,"internal_node_id":"0.0-191.0","task_version":"test-retest-t3"},{"Rune":"rune_05_gebo","Hex":"#3366ff99","Correct":32,"Choice":32,"RT":517.2800000291318,"Accuracy":1,"Outcome":"+10","Keys":[2017.69999996759],"TotalKeys":1,"Block":2,"Trial":184,"Robot":1,"Valence":"Win","Action":"Go","Sham":0,"Color":"blue","trial_type":"pit-trial","trial_index":203,"time_elapsed":988115,"internal_node_id":"0.0-192.0","task_version":"test-retest-t3"},{"Rune":"rune_05_tiwaz","Hex":"#ffcc3399","Correct":32,"Choice":32,"RT":486.82500002905726,"Accuracy":1,"Outcome":"-1","Keys":[1986.985000083223],"TotalKeys":1,"Block":2,"Trial":185,"Robot":3,"Valence":"Lose","Action":"Go","Sham":0,"Color":"yellow","trial_type":"pit-trial","trial_index":204,"time_elapsed":991105,"internal_node_id":"0.0-193.0","task_version":"test-retest-t3"},{"Rune":"rune_05_gebo","Hex":"#3366ff99","Correct":32,"Choice":32,"RT":438.38499998673797,"Accuracy":1,"Outcome":"+10","Keys":[1941.03500014171],"TotalKeys":1,"Block":2,"Trial":186,"Robot":1,"Valence":"Win","Action":"Go","Sham":0,"Color":"blue","trial_type":"pit-trial","trial_index":205,"time_elapsed":994048,"internal_node_id":"0.0-194.0","task_version":"test-retest-t3"},{"Rune":"rune_05_ior","Hex":"#ffcc3399","Correct":-1,"Choice":-1,"RT":-1,"Accuracy":1,"Outcome":"-1","Keys":[],"TotalKeys":0,"Block":2,"Trial":187,"Robot":4,"Valence":"Lose","Action":"No-Go","Sham":0,"Color":"yellow","trial_type":"pit-trial","trial_index":206,"time_elapsed":998057,"internal_node_id":"0.0-195.0","task_version":"test-retest-t3"},{"Rune":"rune_05_jeran","Hex":"#3366ff99","Correct":-1,"Choice":-1,"RT":-1,"Accuracy":1,"Outcome":"+1","Keys":[],"TotalKeys":0,"Block":2,"Trial":188,"Robot":2,"Valence":"Win","Action":"No-Go","Sham":1,"Color":"blue","trial_type":"pit-trial","trial_index":207,"time_elapsed":1002062,"internal_node_id":"0.0-196.0","task_version":"test-retest-t3"},{"Rune":"rune_05_gebo","Hex":"#3366ff99","Correct":32,"Choice":32,"RT":475.37500015459955,"Accuracy":1,"Outcome":"+1","Keys":[1976.1349998880178],"TotalKeys":1,"Block":2,"Trial":189,"Robot":1,"Valence":"Win","Action":"Go","Sham":1,"Color":"blue","trial_type":"pit-trial","trial_index":208,"time_elapsed":1005041,"internal_node_id":"0.0-197.0","task_version":"test-retest-t3"},{"Rune":"rune_05_ior","Hex":"#ffcc3399","Correct":-1,"Choice":-1,"RT":-1,"Accuracy":1,"Outcome":"-10","Keys":[],"TotalKeys":0,"Block":2,"Trial":190,"Robot":4,"Valence":"Lose","Action":"No-Go","Sham":1,"Color":"yellow","trial_type":"pit-trial","trial_index":209,"time_elapsed":1009044,"internal_node_id":"0.0-198.0","task_version":"test-retest-t3"},{"Rune":"rune_05_tiwaz","Hex":"#ffcc3399","Correct":32,"Choice":32,"RT":436.3200000952929,"Accuracy":1,"Outcome":"-1","Keys":[1937.5299999956042],"TotalKeys":1,"Block":2,"Trial":191,"Robot":3,"Valence":"Lose","Action":"Go","Sham":0,"Color":"yellow","trial_type":"pit-trial","trial_index":210,"time_elapsed":1011984,"internal_node_id":"0.0-199.0","task_version":"test-retest-t3"},{"Rune":"rune_05_jeran","Hex":"#3366ff99","Correct":-1,"Choice":-1,"RT":-1,"Accuracy":1,"Outcome":"+10","Keys":[],"TotalKeys":0,"Block":2,"Trial":192,"Robot":2,"Valence":"Win","Action":"No-Go","Sham":0,"Color":"blue","trial_type":"pit-trial","trial_index":211,"time_elapsed":1015988,"internal_node_id":"0.0-200.0","task_version":"test-retest-t3"},{"Rune":"rune_05_tiwaz","Hex":"#ffcc3399","Correct":32,"Choice":32,"RT":482.9850001260638,"Accuracy":1,"Outcome":"-1","Keys":[1984.9399998784065],"TotalKeys":1,"Block":2,"Trial":193,"Robot":3,"Valence":"Lose","Action":"Go","Sham":0,"Color":"yellow","trial_type":"pit-trial","trial_index":212,"time_elapsed":1018977,"internal_node_id":"0.0-201.0","task_version":"test-retest-t3"},{"Rune":"rune_05_ior","Hex":"#ffcc3399","Correct":-1,"Choice":-1,"RT":-1,"Accuracy":1,"Outcome":"-1","Keys":[],"TotalKeys":0,"Block":2,"Trial":194,"Robot":4,"Valence":"Lose","Action":"No-Go","Sham":0,"Color":"yellow","trial_type":"pit-trial","trial_index":213,"time_elapsed":1022983,"internal_node_id":"0.0-202.0","task_version":"test-retest-t3"},{"Rune":"rune_05_gebo","Hex":"#3366ff99","Correct":32,"Choice":32,"RT":737.2049998957664,"Accuracy":1,"Outcome":"+10","Keys":[2238.6549999937415],"TotalKeys":1,"Block":2,"Trial":195,"Robot":1,"Valence":"Win","Action":"Go","Sham":0,"Color":"blue","trial_type":"pit-trial","trial_index":214,"time_elapsed":1026225,"internal_node_id":"0.0-203.0","task_version":"test-retest-t3"},{"Rune":"rune_05_jeran","Hex":"#3366ff99","Correct":-1,"Choice":-1,"RT":-1,"Accuracy":1,"Outcome":"+10","Keys":[3620.545000070706],"TotalKeys":1,"Block":2,"Trial":196,"Robot":2,"Valence":"Win","Action":"No-Go","Sham":0,"Color":"blue","trial_type":"pit-trial","trial_index":215,"time_elapsed":1030231,"internal_node_id":"0.0-204.0","task_version":"test-retest-t3"},{"Rune":"rune_05_ior","Hex":"#ffcc3399","Correct":-1,"Choice":-1,"RT":-1,"Accuracy":1,"Outcome":"-1","Keys":[],"TotalKeys":0,"Block":2,"Trial":197,"Robot":4,"Valence":"Lose","Action":"No-Go","Sham":0,"Color":"yellow","trial_type":"pit-trial","trial_index":216,"time_elapsed":1034235,"internal_node_id":"0.0-205.0","task_version":"test-retest-t3"},{"Rune":"rune_05_jeran","Hex":"#3366ff99","Correct":-1,"Choice":-1,"RT":-1,"Accuracy":1,"Outcome":"+10","Keys":[],"TotalKeys":0,"Block":2,"Trial":198,"Robot":2,"Valence":"Win","Action":"No-Go","Sham":0,"Color":"blue","trial_type":"pit-trial","trial_index":217,"time_elapsed":1038241,"internal_node_id":"0.0-206.0","task_version":"test-retest-t3"},{"Rune":"rune_05_tiwaz","Hex":"#ffcc3399","Correct":32,"Choice":32,"RT":464.93500005453825,"Accuracy":1,"Outcome":"-10","Keys":[1966.149999992922],"TotalKeys":1,"Block":2,"Trial":199,"Robot":3,"Valence":"Lose","Action":"Go","Sham":1,"Color":"yellow","trial_type":"pit-trial","trial_index":218,"time_elapsed":1041216,"internal_node_id":"0.0-207.0","task_version":"test-retest-t3"},{"Rune":"rune_05_gebo","Hex":"#3366ff99","Correct":32,"Choice":32,"RT":441.1400000099093,"Accuracy":1,"Outcome":"+10","Keys":[1941.9249999336898],"TotalKeys":1,"Block":2,"Trial":200,"Robot":1,"Valence":"Win","Action":"Go","Sham":0,"Color":"blue","trial_type":"pit-trial","trial_index":219,"time_elapsed":1044161,"internal_node_id":"0.0-208.0","task_version":"test-retest-t3"},{"Rune":"rune_05_ior","Hex":"#ffcc3399","Correct":-1,"Choice":-1,"RT":-1,"Accuracy":1,"Outcome":"-1","Keys":[],"TotalKeys":0,"Block":2,"Trial":201,"Robot":4,"Valence":"Lose","Action":"No-Go","Sham":0,"Color":"yellow","trial_type":"pit-trial","trial_index":220,"time_elapsed":1048165,"internal_node_id":"0.0-209.0","task_version":"test-retest-t3"},{"Rune":"rune_05_gebo","Hex":"#3366ff99","Correct":32,"Choice":-1,"RT":-1,"Accuracy":0,"Outcome":"+1","Keys":[],"TotalKeys":0,"Block":2,"Trial":202,"Robot":1,"Valence":"Win","Action":"Go","Sham":0,"Color":"blue","trial_type":"pit-trial","trial_index":221,"time_elapsed":1052168,"internal_node_id":"0.0-210.0","task_version":"test-retest-t3"},{"Rune":"rune_05_jeran","Hex":"#3366ff99","Correct":-1,"Choice":-1,"RT":-1,"Accuracy":1,"Outcome":"+10","Keys":[],"TotalKeys":0,"Block":2,"Trial":203,"Robot":2,"Valence":"Win","Action":"No-Go","Sham":0,"Color":"blue","trial_type":"pit-trial","trial_index":222,"time_elapsed":1056173,"internal_node_id":"0.0-211.0","task_version":"test-retest-t3"},{"Rune":"rune_05_tiwaz","Hex":"#ffcc3399","Correct":32,"Choice":32,"RT":524.5799999684095,"Accuracy":1,"Outcome":"-1","Keys":[2024.6949999127537],"TotalKeys":1,"Block":2,"Trial":204,"Robot":3,"Valence":"Lose","Action":"Go","Sham":0,"Color":"yellow","trial_type":"pit-trial","trial_index":223,"time_elapsed":1059201,"internal_node_id":"0.0-212.0","task_version":"test-retest-t3"},{"Rune":"rune_05_tiwaz","Hex":"#ffcc3399","Correct":32,"Choice":32,"RT":773.5800000373274,"Accuracy":1,"Outcome":"-1","Keys":[2275.3250000532717],"TotalKeys":1,"Block":2,"Trial":205,"Robot":3,"Valence":"Lose","Action":"Go","Sham":0,"Color":"yellow","trial_type":"pit-trial","trial_index":224,"time_elapsed":1062480,"internal_node_id":"0.0-213.0","task_version":"test-retest-t3"},{"Rune":"rune_05_jeran","Hex":"#3366ff99","Correct":-1,"Choice":-1,"RT":-1,"Accuracy":1,"Outcome":"+1","Keys":[],"TotalKeys":0,"Block":2,"Trial":206,"Robot":2,"Valence":"Win","Action":"No-Go","Sham":1,"Color":"blue","trial_type":"pit-trial","trial_index":225,"time_elapsed":1066485,"internal_node_id":"0.0-214.0","task_version":"test-retest-t3"},{"Rune":"rune_05_gebo","Hex":"#3366ff99","Correct":32,"Choice":32,"RT":1459.959999890998,"Accuracy":1,"Outcome":"+10","Keys":[2960.484999930486],"TotalKeys":1,"Block":2,"Trial":207,"Robot":1,"Valence":"Win","Action":"Go","Sham":0,"Color":"blue","trial_type":"pit-trial","trial_index":226,"time_elapsed":1070448,"internal_node_id":"0.0-215.0","task_version":"test-retest-t3"},{"Rune":"rune_05_ior","Hex":"#ffcc3399","Correct":-1,"Choice":-1,"RT":-1,"Accuracy":1,"Outcome":"-1","Keys":[],"TotalKeys":0,"Block":2,"Trial":208,"Robot":4,"Valence":"Lose","Action":"No-Go","Sham":0,"Color":"yellow","trial_type":"pit-trial","trial_index":227,"time_elapsed":1074456,"internal_node_id":"0.0-216.0","task_version":"test-retest-t3"},{"Rune":"rune_05_ior","Hex":"#ffcc3399","Correct":-1,"Choice":-1,"RT":-1,"Accuracy":1,"Outcome":"-1","Keys":[],"TotalKeys":0,"Block":2,"Trial":209,"Robot":4,"Valence":"Lose","Action":"No-Go","Sham":0,"Color":"yellow","trial_type":"pit-trial","trial_index":228,"time_elapsed":1078461,"internal_node_id":"0.0-217.0","task_version":"test-retest-t3"},{"Rune":"rune_05_tiwaz","Hex":"#ffcc3399","Correct":32,"Choice":32,"RT":474.98499997891486,"Accuracy":1,"Outcome":"-1","Keys":[1975.974999833852],"TotalKeys":1,"Block":2,"Trial":210,"Robot":3,"Valence":"Lose","Action":"Go","Sham":0,"Color":"yellow","trial_type":"pit-trial","trial_index":229,"time_elapsed":1081440,"internal_node_id":"0.0-218.0","task_version":"test-retest-t3"},{"Rune":"rune_05_jeran","Hex":"#3366ff99","Correct":-1,"Choice":-1,"RT":-1,"Accuracy":1,"Outcome":"+10","Keys":[],"TotalKeys":0,"Block":2,"Trial":211,"Robot":2,"Valence":"Win","Action":"No-Go","Sham":0,"Color":"blue","trial_type":"pit-trial","trial_index":230,"time_elapsed":1085444,"internal_node_id":"0.0-219.0","task_version":"test-retest-t3"},{"Rune":"rune_05_gebo","Hex":"#3366ff99","Correct":32,"Choice":32,"RT":356.79999995045364,"Accuracy":1,"Outcome":"+10","Keys":[1856.995000038296],"TotalKeys":1,"Block":2,"Trial":212,"Robot":1,"Valence":"Win","Action":"Go","Sham":0,"Color":"blue","trial_type":"pit-trial","trial_index":231,"time_elapsed":1088305,"internal_node_id":"0.0-220.0","task_version":"test-retest-t3"},{"Rune":"rune_05_gebo","Hex":"#3366ff99","Correct":32,"Choice":32,"RT":423.1300000101328,"Accuracy":1,"Outcome":"+10","Keys":[1924.0999999456108],"TotalKeys":1,"Block":2,"Trial":213,"Robot":1,"Valence":"Win","Action":"Go","Sham":0,"Color":"blue","trial_type":"pit-trial","trial_index":232,"time_elapsed":1091232,"internal_node_id":"0.0-221.0","task_version":"test-retest-t3"},{"Rune":"rune_05_ior","Hex":"#ffcc3399","Correct":-1,"Choice":-1,"RT":-1,"Accuracy":1,"Outcome":"-10","Keys":[],"TotalKeys":0,"Block":2,"Trial":214,"Robot":4,"Valence":"Lose","Action":"No-Go","Sham":1,"Color":"yellow","trial_type":"pit-trial","trial_index":233,"time_elapsed":1095240,"internal_node_id":"0.0-222.0","task_version":"test-retest-t3"},{"Rune":"rune_05_jeran","Hex":"#3366ff99","Correct":-1,"Choice":-1,"RT":-1,"Accuracy":1,"Outcome":"+10","Keys":[],"TotalKeys":0,"Block":2,"Trial":215,"Robot":2,"Valence":"Win","Action":"No-Go","Sham":0,"Color":"blue","trial_type":"pit-trial","trial_index":234,"time_elapsed":1099244,"internal_node_id":"0.0-223.0","task_version":"test-retest-t3"},{"Rune":"rune_05_tiwaz","Hex":"#ffcc3399","Correct":32,"Choice":32,"RT":455.51500003784895,"Accuracy":1,"Outcome":"-10","Keys":[1960.9250000212342],"TotalKeys":1,"Block":2,"Trial":216,"Robot":3,"Valence":"Lose","Action":"Go","Sham":1,"Color":"yellow","trial_type":"pit-trial","trial_index":235,"time_elapsed":1102208,"internal_node_id":"0.0-224.0","task_version":"test-retest-t3"},{"Rune":"rune_05_gebo","Hex":"#3366ff99","Correct":32,"Choice":32,"RT":440.48499991185963,"Accuracy":1,"Outcome":"+1","Keys":[1941.4249998517334],"TotalKeys":1,"Block":2,"Trial":217,"Robot":1,"Valence":"Win","Action":"Go","Sham":1,"Color":"blue","trial_type":"pit-trial","trial_index":236,"time_elapsed":1105152,"internal_node_id":"0.0-225.0","task_version":"test-retest-t3"},{"Rune":"rune_05_tiwaz","Hex":"#ffcc3399","Correct":32,"Choice":32,"RT":489.1200000420213,"Accuracy":1,"Outcome":"-1","Keys":[1989.2250001430511],"TotalKeys":1,"Block":2,"Trial":218,"Robot":3,"Valence":"Lose","Action":"Go","Sham":0,"Color":"yellow","trial_type":"pit-trial","trial_index":237,"time_elapsed":1108144,"internal_node_id":"0.0-226.0","task_version":"test-retest-t3"},{"Rune":"rune_05_ior","Hex":"#ffcc3399","Correct":-1,"Choice":-1,"RT":-1,"Accuracy":1,"Outcome":"-1","Keys":[],"TotalKeys":0,"Block":2,"Trial":219,"Robot":4,"Valence":"Lose","Action":"No-Go","Sham":0,"Color":"yellow","trial_type":"pit-trial","trial_index":238,"time_elapsed":1112149,"internal_node_id":"0.0-227.0","task_version":"test-retest-t3"},{"Rune":"rune_05_jeran","Hex":"#3366ff99","Correct":-1,"Choice":-1,"RT":-1,"Accuracy":1,"Outcome":"+10","Keys":[],"TotalKeys":0,"Block":2,"Trial":220,"Robot":2,"Valence":"Win","Action":"No-Go","Sham":0,"Color":"blue","trial_type":"pit-trial","trial_index":239,"time_elapsed":1116155,"internal_node_id":"0.0-228.0","task_version":"test-retest-t3"},{"Rune":"rune_05_ior","Hex":"#ffcc3399","Correct":-1,"Choice":-1,"RT":-1,"Accuracy":1,"Outcome":"-10","Keys":[],"TotalKeys":0,"Block":2,"Trial":221,"Robot":4,"Valence":"Lose","Action":"No-Go","Sham":1,"Color":"yellow","trial_type":"pit-trial","trial_index":240,"time_elapsed":1120159,"internal_node_id":"0.0-229.0","task_version":"test-retest-t3"},{"Rune":"rune_05_tiwaz","Hex":"#ffcc3399","Correct":32,"Choice":32,"RT":441.5349999908358,"Accuracy":1,"Outcome":"-1","Keys":[1942.1449999790639],"TotalKeys":1,"Block":2,"Trial":222,"Robot":3,"Valence":"Lose","Action":"Go","Sham":0,"Color":"yellow","trial_type":"pit-trial","trial_index":241,"time_elapsed":1123104,"internal_node_id":"0.0-230.0","task_version":"test-retest-t3"},{"Rune":"rune_05_jeran","Hex":"#3366ff99","Correct":-1,"Choice":-1,"RT":-1,"Accuracy":1,"Outcome":"+1","Keys":[],"TotalKeys":0,"Block":2,"Trial":223,"Robot":2,"Valence":"Win","Action":"No-Go","Sham":1,"Color":"blue","trial_type":"pit-trial","trial_index":242,"time_elapsed":1127109,"internal_node_id":"0.0-231.0","task_version":"test-retest-t3"},{"Rune":"rune_05_gebo","Hex":"#3366ff99","Correct":32,"Choice":32,"RT":403.20500009693205,"Accuracy":1,"Outcome":"+10","Keys":[1904.9799998756498],"TotalKeys":1,"Block":2,"Trial":224,"Robot":1,"Valence":"Win","Action":"Go","Sham":0,"Color":"blue","trial_type":"pit-trial","trial_index":243,"time_elapsed":1130018,"internal_node_id":"0.0-232.0","task_version":"test-retest-t3"},{"Rune":"rune_05_ior","Hex":"#ffcc3399","Correct":-1,"Choice":-1,"RT":-1,"Accuracy":1,"Outcome":"-1","Keys":[],"TotalKeys":0,"Block":2,"Trial":225,"Robot":4,"Valence":"Lose","Action":"No-Go","Sham":0,"Color":"yellow","trial_type":"pit-trial","trial_index":244,"time_elapsed":1134022,"internal_node_id":"0.0-233.0","task_version":"test-retest-t3"},{"Rune":"rune_05_jeran","Hex":"#3366ff99","Correct":-1,"Choice":-1,"RT":-1,"Accuracy":1,"Outcome":"+10","Keys":[],"TotalKeys":0,"Block":2,"Trial":226,"Robot":2,"Valence":"Win","Action":"No-Go","Sham":0,"Color":"blue","trial_type":"pit-trial","trial_index":245,"time_elapsed":1138027,"internal_node_id":"0.0-234.0","task_version":"test-retest-t3"},{"Rune":"rune_05_tiwaz","Hex":"#ffcc3399","Correct":32,"Choice":32,"RT":381.1649999115616,"Accuracy":1,"Outcome":"-1","Keys":[1882.0250001735985],"TotalKeys":1,"Block":2,"Trial":227,"Robot":3,"Valence":"Lose","Action":"Go","Sham":0,"Color":"yellow","trial_type":"pit-trial","trial_index":246,"time_elapsed":1140911,"internal_node_id":"0.0-235.0","task_version":"test-retest-t3"},{"Rune":"rune_05_gebo","Hex":"#3366ff99","Correct":32,"Choice":32,"RT":408.4250000305474,"Accuracy":1,"Outcome":"+10","Keys":[1909.525000024587],"TotalKeys":1,"Block":2,"Trial":228,"Robot":1,"Valence":"Win","Action":"Go","Sham":0,"Color":"blue","trial_type":"pit-trial","trial_index":247,"time_elapsed":1143823,"internal_node_id":"0.0-236.0","task_version":"test-retest-t3"},{"Rune":"rune_05_tiwaz","Hex":"#ffcc3399","Correct":32,"Choice":32,"RT":440.24000014178455,"Accuracy":1,"Outcome":"-10","Keys":[1941.4950001519173],"TotalKeys":1,"Block":2,"Trial":229,"Robot":3,"Valence":"Lose","Action":"Go","Sham":1,"Color":"yellow","trial_type":"pit-trial","trial_index":248,"time_elapsed":1146767,"internal_node_id":"0.0-237.0","task_version":"test-retest-t3"},{"Rune":"rune_05_gebo","Hex":"#3366ff99","Correct":32,"Choice":32,"RT":438.7300000526011,"Accuracy":1,"Outcome":"+10","Keys":[1940.3950001578778],"TotalKeys":1,"Block":2,"Trial":230,"Robot":1,"Valence":"Win","Action":"Go","Sham":0,"Color":"blue","trial_type":"pit-trial","trial_index":249,"time_elapsed":1149711,"internal_node_id":"0.0-238.0","task_version":"test-retest-t3"},{"Rune":"rune_05_jeran","Hex":"#3366ff99","Correct":-1,"Choice":-1,"RT":-1,"Accuracy":1,"Outcome":"+10","Keys":[],"TotalKeys":0,"Block":2,"Trial":231,"Robot":2,"Valence":"Win","Action":"No-Go","Sham":0,"Color":"blue","trial_type":"pit-trial","trial_index":250,"time_elapsed":1153715,"internal_node_id":"0.0-239.0","task_version":"test-retest-t3"},{"Rune":"rune_05_ior","Hex":"#ffcc3399","Correct":-1,"Choice":-1,"RT":-1,"Accuracy":1,"Outcome":"-1","Keys":[],"TotalKeys":0,"Block":2,"Trial":232,"Robot":4,"Valence":"Lose","Action":"No-Go","Sham":0,"Color":"yellow","trial_type":"pit-trial","trial_index":251,"time_elapsed":1157720,"internal_node_id":"0.0-240.0","task_version":"test-retest-t3"},{"Rune":"rune_05_ior","Hex":"#ffcc3399","Correct":-1,"Choice":-1,"RT":-1,"Accuracy":1,"Outcome":"-1","Keys":[],"TotalKeys":0,"Block":2,"Trial":233,"Robot":4,"Valence":"Lose","Action":"No-Go","Sham":0,"Color":"yellow","trial_type":"pit-trial","trial_index":252,"time_elapsed":1161724,"internal_node_id":"0.0-241.0","task_version":"test-retest-t3"},{"Rune":"rune_05_tiwaz","Hex":"#ffcc3399","Correct":32,"Choice":32,"RT":396.08500013127923,"Accuracy":1,"Outcome":"-1","Keys":[1896.174999885261],"TotalKeys":1,"Block":2,"Trial":234,"Robot":3,"Valence":"Lose","Action":"Go","Sham":0,"Color":"yellow","trial_type":"pit-trial","trial_index":253,"time_elapsed":1164624,"internal_node_id":"0.0-242.0","task_version":"test-retest-t3"},{"Rune":"rune_05_jeran","Hex":"#3366ff99","Correct":-1,"Choice":-1,"RT":-1,"Accuracy":1,"Outcome":"+10","Keys":[],"TotalKeys":0,"Block":2,"Trial":235,"Robot":2,"Valence":"Win","Action":"No-Go","Sham":0,"Color":"blue","trial_type":"pit-trial","trial_index":254,"time_elapsed":1168628,"internal_node_id":"0.0-243.0","task_version":"test-retest-t3"},{"Rune":"rune_05_gebo","Hex":"#3366ff99","Correct":32,"Choice":32,"RT":418.9049999695271,"Accuracy":1,"Outcome":"+1","Keys":[1920.640000142157],"TotalKeys":1,"Block":2,"Trial":236,"Robot":1,"Valence":"Win","Action":"Go","Sham":1,"Color":"blue","trial_type":"pit-trial","trial_index":255,"time_elapsed":1171551,"internal_node_id":"0.0-244.0","task_version":"test-retest-t3"},{"Rune":"rune_05_tiwaz","Hex":"#ffcc3399","Correct":32,"Choice":32,"RT":486.09500005841255,"Accuracy":1,"Outcome":"-1","Keys":[1988.7300000991672],"TotalKeys":1,"Block":2,"Trial":237,"Robot":3,"Valence":"Lose","Action":"Go","Sham":0,"Color":"yellow","trial_type":"pit-trial","trial_index":256,"time_elapsed":1174544,"internal_node_id":"0.0-245.0","task_version":"test-retest-t3"},{"Rune":"rune_05_jeran","Hex":"#3366ff99","Correct":-1,"Choice":-1,"RT":-1,"Accuracy":1,"Outcome":"+10","Keys":[],"TotalKeys":0,"Block":2,"Trial":238,"Robot":2,"Valence":"Win","Action":"No-Go","Sham":0,"Color":"blue","trial_type":"pit-trial","trial_index":257,"time_elapsed":1178547,"internal_node_id":"0.0-246.0","task_version":"test-retest-t3"},{"Rune":"rune_05_ior","Hex":"#ffcc3399","Correct":-1,"Choice":-1,"RT":-1,"Accuracy":1,"Outcome":"-1","Keys":[],"TotalKeys":0,"Block":2,"Trial":239,"Robot":4,"Valence":"Lose","Action":"No-Go","Sham":0,"Color":"yellow","trial_type":"pit-trial","trial_index":258,"time_elapsed":1182550,"internal_node_id":"0.0-247.0","task_version":"test-retest-t3"},{"Rune":"rune_05_gebo","Hex":"#3366ff99","Correct":32,"Choice":32,"RT":416.68500006198883,"Accuracy":1,"Outcome":"+10","Keys":[1918.620000127703],"TotalKeys":1,"Block":2,"Trial":240,"Robot":1,"Valence":"Win","Action":"Go","Sham":0,"Color":"blue","trial_type":"pit-trial","trial_index":259,"time_elapsed":1185471,"internal_node_id":"0.0-248.0","task_version":"test-retest-t3"},{"view_history":"[{\"page_index\":0,\"viewing_time\":2757.4499999172986}]","rt":2757.8699998557568,"trial_type":"pit-instructions","trial_index":260,"time_elapsed":1188231,"internal_node_id":"0.0-249.0","task_version":"test-retest-t3"},{"rt":16556.3850000035,"responses":{"difficulty":"2","fun":"2","clarity":"5","strategy":"Just tried to work off my memory","feedback":""},"survey":"debrief","trial_type":"survey-debrief","trial_index":261,"time_elapsed":1204791,"internal_node_id":"0.0-250.0","task_version":"test-retest-t3"},{"rt":2332.729999907315,"stimulus":"You earned a bonus of $1.1 out of $1.5.<br><br>Press any key to complete the experiment.","key_press":32,"trial_type":"html-keyboard-response","trial_index":262,"time_elapsed":1207126,"internal_node_id":"0.0-251.0","task_version":"test-retest-t3","accuracy":0.7291666666666666,"bonus":1.1,"interactions":"[{\"event\":\"blur\",\"trial\":15,\"time\":109661},{\"event\":\"focus\",\"trial\":15,\"time\":248415},{\"event\":\"blur\",\"trial\":77,\"time\":490690},{\"event\":\"focus\",\"trial\":77,\"time\":501078},{\"event\":\"blur\",\"trial\":144,\"time\":773424},{\"event\":\"focus\",\"trial\":146,\"time\":779076},{\"event\":\"blur\",\"trial\":147,\"time\":780847},{\"event\":\"focus\",\"trial\":147,\"time\":782621},{\"event\":\"blur\",\"trial\":156,\"time\":815066},{\"event\":\"focus\",\"trial\":157,\"time\":818698}]"}]