[{"slider_type":"valence","raw_loc":731,"loc":0.962,"trial_type":"affective-slider","trial_index":0,"time_elapsed":3905,"internal_node_id":"0.0-0.0","task_version":"test-retest-t2"},{"responses":{"Q02":"1","Q03":"1","Q07":"1","Q04":"2","Q08":"0","Q01":"1","Q05":"0","Q06":"1"},"rt":49536.92500013858,"survey":"gad7","trial_type":"survey-template","trial_index":1,"time_elapsed":53447,"internal_node_id":"0.0-1.0","task_version":"test-retest-t2"},{"view_history":"[{\"page_index\":0,\"viewing_time\":4493.094999808818},{\"page_index\":1,\"viewing_time\":926.644999999553},{\"page_index\":2,\"viewing_time\":33783.19000010379},{\"page_index\":3,\"viewing_time\":9615.604999940842},{\"page_index\":4,\"viewing_time\":6079.219999955967},{\"page_index\":5,\"viewing_time\":3699.7250001877546}]","rt":58598.38499990292,"trial_type":"pit-instructions","trial_index":2,"time_elapsed":112052,"internal_node_id":"0.0-2.0-0.0","task_version":"test-retest-t2"},{"Rune":"rune_00_ingz","Hex":"#FFFFF080","Correct":32,"Choice":-1,"RT":-1,"Accuracy":0,"Outcome":"+0","Keys":[1346.2700000964105],"TotalKeys":1,"Block":0,"Action":"Go","trial_type":"pit-trial","trial_index":3,"time_elapsed":116058,"internal_node_id":"0.0-2.0-1.0-0.0","task_version":"test-retest-t2"},{"Rune":"rune_00_ingz","Hex":"#FFFFF080","Correct":32,"Choice":32,"RT":215.349999954924,"Accuracy":1,"Outcome":"+10","Keys":[1715.9100000280887],"TotalKeys":1,"Block":0,"Action":"Go","trial_type":"pit-trial","trial_index":4,"time_elapsed":118786,"internal_node_id":"0.0-2.0-1.0-0.1","task_version":"test-retest-t2"},{"Rune":"rune_00_ingz","Hex":"#FFFFF080","Correct":32,"Choice":32,"RT":171.74499994143844,"Accuracy":1,"Outcome":"+10","Keys":[1672.6949999574572],"TotalKeys":1,"Block":0,"Action":"Go","trial_type":"pit-trial","trial_index":5,"time_elapsed":121464,"internal_node_id":"0.0-2.0-1.0-0.2","task_version":"test-retest-t2"},{"Rune":"rune_00_ingz","Hex":"#FFFFF080","Correct":32,"Choice":32,"RT":137.94999988749623,"Accuracy":1,"Outcome":"+10","Keys":[1638.414999935776],"TotalKeys":1,"Block":0,"Action":"Go","trial_type":"pit-trial","trial_index":6,"time_elapsed":124110,"internal_node_id":"0.0-2.0-1.0-0.3","task_version":"test-retest-t2"},{"view_history":"[{\"page_index\":0,\"viewing_time\":3843.8549998681992}]","rt":3844.2700000014156,"trial_type":"pit-instructions","trial_index":7,"time_elapsed":127957,"internal_node_id":"0.0-2.0-2.0","task_version":"test-retest-t2"},{"Rune":"rune_00_isaz","Hex":"#FFFFF080","Correct":-1,"Choice":-1,"RT":-1,"Accuracy":1,"Outcome":"+10","Keys":[],"TotalKeys":0,"Block":0,"Action":"No-Go","trial_type":"pit-trial","trial_index":8,"time_elapsed":131962,"internal_node_id":"0.0-2.0-3.0-0.0","task_version":"test-retest-t2"},{"Rune":"rune_00_isaz","Hex":"#FFFFF080","Correct":-1,"Choice":-1,"RT":-1,"Accuracy":1,"Outcome":"+10","Keys":[],"TotalKeys":0,"Block":0,"Action":"No-Go","trial_type":"pit-trial","trial_index":9,"time_elapsed":135968,"internal_node_id":"0.0-2.0-3.0-0.1","task_version":"test-retest-t2"},{"Rune":"rune_00_isaz","Hex":"#FFFFF080","Correct":-1,"Choice":-1,"RT":-1,"Accuracy":1,"Outcome":"+10","Keys":[],"TotalKeys":0,"Block":0,"Action":"No-Go","trial_type":"pit-trial","trial_index":10,"time_elapsed":139974,"internal_node_id":"0.0-2.0-3.0-0.2","task_version":"test-retest-t2"},{"Rune":"rune_00_isaz","Hex":"#FFFFF080","Correct":-1,"Choice":-1,"RT":-1,"Accuracy":1,"Outcome":"+10","Keys":[],"TotalKeys":0,"Block":0,"Action":"No-Go","trial_type":"pit-trial","trial_index":11,"time_elapsed":143980,"internal_node_id":"0.0-2.0-3.0-0.3","task_version":"test-retest-t2"},{"view_history":"[{\"page_index\":0,\"viewing_time\":7287.890000035986},{\"page_index\":1,\"viewing_time\":6017.555000027642},{\"page_index\":2,\"viewing_time\":5175.120000028983},{\"page_index\":3,\"viewing_time\":4450.590000022203},{\"page_index\":4,\"viewing_time\":3132.800000021234},{\"page_index\":5,\"viewing_time\":6227.1699998527765},{\"page_index\":6,\"viewing_time\":3047.820000210777},{\"page_index\":7,\"viewing_time\":3926.509999902919}]","rt":39266.04000013322,"trial_type":"pit-instructions","trial_index":12,"time_elapsed":183249,"internal_node_id":"0.0-2.0-4.0","task_version":"test-retest-t2"},{"responses":["Do nothing","+10","-1","True","Yes"],"num_errors":0,"rt":19421.880000038072,"trial_type":"pit-comprehension","trial_index":13,"time_elapsed":202678,"internal_node_id":"0.0-2.0-5.0","task_version":"test-retest-t2"},{"trial_type":"call-function","trial_index":14,"time_elapsed":202687,"internal_node_id":"0.0-3.0","task_version":"test-retest-t2"},{"view_history":"[{\"page_index\":0,\"viewing_time\":1800.5899998825043},{\"page_index\":1,\"viewing_time\":2051.740000024438},{\"page_index\":2,\"viewing_time\":4380.020000040531}]","rt":8233.049999922514,"trial_type":"pit-instructions","trial_index":15,"time_elapsed":210922,"internal_node_id":"0.0-4.0","task_version":"test-retest-t2"},{"Rune":"rune_06_ansuz","Hex":"#ffcc3399","Correct":32,"Choice":32,"RT":320.0649998616427,"Accuracy":1,"Outcome":"+10","Keys":[1820.4999999143183],"TotalKeys":1,"Block":1,"Trial":1,"Robot":1,"Valence":"Win","Action":"Go","Sham":0,"Color":"yellow","trial_type":"pit-trial","trial_index":16,"time_elapsed":213751,"internal_node_id":"0.0-5.0","task_version":"test-retest-t2"},{"Rune":"rune_06_berkanan","Hex":"#3366ff99","Correct":32,"Choice":32,"RT":421.57000000588596,"Accuracy":1,"Outcome":"-10","Keys":[1921.9400000292808],"TotalKeys":1,"Block":1,"Trial":2,"Robot":3,"Valence":"Lose","Action":"Go","Sham":1,"Color":"blue","trial_type":"pit-trial","trial_index":17,"time_elapsed":216679,"internal_node_id":"0.0-6.0","task_version":"test-retest-t2"},{"Rune":"rune_06_cweord","Hex":"#ffcc3399","Correct":-1,"Choice":-1,"RT":-1,"Accuracy":1,"Outcome":"+10","Keys":[],"TotalKeys":0,"Block":1,"Trial":3,"Robot":2,"Valence":"Win","Action":"No-Go","Sham":0,"Color":"yellow","trial_type":"pit-trial","trial_index":18,"time_elapsed":220685,"internal_node_id":"0.0-7.0","task_version":"test-retest-t2"},{"Rune":"rune_06_ehwaz","Hex":"#3366ff99","Correct":-1,"Choice":32,"RT":584.4550000037998,"Accuracy":0,"Outcome":"-10","Keys":[2084.999999962747],"TotalKeys":1,"Block":1,"Trial":4,"Robot":4,"Valence":"Lose","Action":"No-Go","Sham":0,"Color":"blue","trial_type":"pit-trial","trial_index":19,"time_elapsed":223776,"internal_node_id":"0.0-8.0","task_version":"test-retest-t2"},{"Rune":"rune_06_ansuz","Hex":"#ffcc3399","Correct":32,"Choice":32,"RT":626.939999870956,"Accuracy":1,"Outcome":"+10","Keys":[2128.1550000421703],"TotalKeys":1,"Block":1,"Trial":5,"Robot":1,"Valence":"Win","Action":"Go","Sham":0,"Color":"yellow","trial_type":"pit-trial","trial_index":20,"time_elapsed":226909,"internal_node_id":"0.0-9.0","task_version":"test-retest-t2"},{"Rune":"rune_06_berkanan","Hex":"#3366ff99","Correct":32,"Choice":32,"RT":779.1699999943376,"Accuracy":1,"Outcome":"-1","Keys":[2280.89000005275],"TotalKeys":1,"Block":1,"Trial":6,"Robot":3,"Valence":"Lose","Action":"Go","Sham":0,"Color":"blue","trial_type":"pit-trial","trial_index":21,"time_elapsed":230195,"internal_node_id":"0.0-10.0","task_version":"test-retest-t2"},{"Rune":"rune_06_cweord","Hex":"#ffcc3399","Correct":-1,"Choice":-1,"RT":-1,"Accuracy":1,"Outcome":"+10","Keys":[],"TotalKeys":0,"Block":1,"Trial":7,"Robot":2,"Valence":"Win","Action":"No-Go","Sham":0,"Color":"yellow","trial_type":"pit-trial","trial_index":22,"time_elapsed":234201,"internal_node_id":"0.0-11.0","task_version":"test-retest-t2"},{"Rune":"rune_06_ehwaz","Hex":"#3366ff99","Correct":-1,"Choice":-1,"RT":-1,"Accuracy":1,"Outcome":"-1","Keys":[],"TotalKeys":0,"Block":1,"Trial":8,"Robot":4,"Valence":"Lose","Action":"No-Go","Sham":0,"Color":"blue","trial_type":"pit-trial","trial_index":23,"time_elapsed":238207,"internal_node_id":"0.0-12.0","task_version":"test-retest-t2"},{"Rune":"rune_06_berkanan","Hex":"#3366ff99","Correct":32,"Choice":32,"RT":639.2000000923872,"Accuracy":1,"Outcome":"-1","Keys":[2140.109999803826],"TotalKeys":1,"Block":1,"Trial":9,"Robot":3,"Valence":"Lose","Action":"Go","Sham":0,"Color":"blue","trial_type":"pit-trial","trial_index":24,"time_elapsed":241352,"internal_node_id":"0.0-13.0","task_version":"test-retest-t2"},{"Rune":"rune_06_ehwaz","Hex":"#3366ff99","Correct":-1,"Choice":-1,"RT":-1,"Accuracy":1,"Outcome":"-1","Keys":[],"TotalKeys":0,"Block":1,"Trial":10,"Robot":4,"Valence":"Lose","Action":"No-Go","Sham":0,"Color":"blue","trial_type":"pit-trial","trial_index":25,"time_elapsed":245358,"internal_node_id":"0.0-14.0","task_version":"test-retest-t2"},{"Rune":"rune_06_cweord","Hex":"#ffcc3399","Correct":-1,"Choice":-1,"RT":-1,"Accuracy":1,"Outcome":"+1","Keys":[],"TotalKeys":0,"Block":1,"Trial":11,"Robot":2,"Valence":"Win","Action":"No-Go","Sham":1,"Color":"yellow","trial_type":"pit-trial","trial_index":26,"time_elapsed":249365,"internal_node_id":"0.0-15.0","task_version":"test-retest-t2"},{"Rune":"rune_06_ansuz","Hex":"#ffcc3399","Correct":32,"Choice":32,"RT":689.8499999660999,"Accuracy":1,"Outcome":"+1","Keys":[2190.1099998503923],"TotalKeys":1,"Block":1,"Trial":12,"Robot":1,"Valence":"Win","Action":"Go","Sham":1,"Color":"yellow","trial_type":"pit-trial","trial_index":27,"time_elapsed":252560,"internal_node_id":"0.0-16.0","task_version":"test-retest-t2"},{"Rune":"rune_06_ehwaz","Hex":"#3366ff99","Correct":-1,"Choice":-1,"RT":-1,"Accuracy":1,"Outcome":"-1","Keys":[],"TotalKeys":0,"Block":1,"Trial":13,"Robot":4,"Valence":"Lose","Action":"No-Go","Sham":0,"Color":"blue","trial_type":"pit-trial","trial_index":28,"time_elapsed":256564,"internal_node_id":"0.0-17.0","task_version":"test-retest-t2"},{"Rune":"rune_06_cweord","Hex":"#ffcc3399","Correct":-1,"Choice":-1,"RT":-1,"Accuracy":1,"Outcome":"+10","Keys":[],"TotalKeys":0,"Block":1,"Trial":14,"Robot":2,"Valence":"Win","Action":"No-Go","Sham":0,"Color":"yellow","trial_type":"pit-trial","trial_index":29,"time_elapsed":260569,"internal_node_id":"0.0-18.0","task_version":"test-retest-t2"},{"Rune":"rune_06_berkanan","Hex":"#3366ff99","Correct":32,"Choice":32,"RT":681.0599998570979,"Accuracy":1,"Outcome":"-1","Keys":[2181.8700002040714],"TotalKeys":1,"Block":1,"Trial":15,"Robot":3,"Valence":"Lose","Action":"Go","Sham":0,"Color":"blue","trial_type":"pit-trial","trial_index":30,"time_elapsed":263758,"internal_node_id":"0.0-19.0","task_version":"test-retest-t2"},{"Rune":"rune_06_ansuz","Hex":"#ffcc3399","Correct":32,"Choice":32,"RT":376.2950000818819,"Accuracy":1,"Outcome":"+10","Keys":[1876.7899998929352],"TotalKeys":1,"Block":1,"Trial":16,"Robot":1,"Valence":"Win","Action":"Go","Sham":0,"Color":"yellow","trial_type":"pit-trial","trial_index":31,"time_elapsed":266641,"internal_node_id":"0.0-20.0","task_version":"test-retest-t2"},{"Rune":"rune_06_berkanan","Hex":"#3366ff99","Correct":32,"Choice":32,"RT":736.3950000144541,"Accuracy":1,"Outcome":"-1","Keys":[2237.0799998752773],"TotalKeys":1,"Block":1,"Trial":17,"Robot":3,"Valence":"Lose","Action":"Go","Sham":0,"Color":"blue","trial_type":"pit-trial","trial_index":32,"time_elapsed":269884,"internal_node_id":"0.0-21.0","task_version":"test-retest-t2"},{"Rune":"rune_06_ehwaz","Hex":"#3366ff99","Correct":-1,"Choice":-1,"RT":-1,"Accuracy":1,"Outcome":"-10","Keys":[],"TotalKeys":0,"Block":1,"Trial":18,"Robot":4,"Valence":"Lose","Action":"No-Go","Sham":1,"Color":"blue","trial_type":"pit-trial","trial_index":33,"time_elapsed":273890,"internal_node_id":"0.0-22.0","task_version":"test-retest-t2"},{"Rune":"rune_06_cweord","Hex":"#ffcc3399","Correct":-1,"Choice":-1,"RT":-1,"Accuracy":1,"Outcome":"+10","Keys":[],"TotalKeys":0,"Block":1,"Trial":19,"Robot":2,"Valence":"Win","Action":"No-Go","Sham":0,"Color":"yellow","trial_type":"pit-trial","trial_index":34,"time_elapsed":277895,"internal_node_id":"0.0-23.0","task_version":"test-retest-t2"},{"Rune":"rune_06_ansuz","Hex":"#ffcc3399","Correct":32,"Choice":32,"RT":486.3900002092123,"Accuracy":1,"Outcome":"+10","Keys":[1987.3299999162555],"TotalKeys":1,"Block":1,"Trial":20,"Robot":1,"Valence":"Win","Action":"Go","Sham":0,"Color":"yellow","trial_type":"pit-trial","trial_index":35,"time_elapsed":280887,"internal_node_id":"0.0-24.0","task_version":"test-retest-t2"},{"Rune":"rune_06_berkanan","Hex":"#3366ff99","Correct":32,"Choice":32,"RT":461.4049999509007,"Accuracy":1,"Outcome":"-10","Keys":[1961.6249999962747],"TotalKeys":1,"Block":1,"Trial":21,"Robot":3,"Valence":"Lose","Action":"Go","Sham":1,"Color":"blue","trial_type":"pit-trial","trial_index":36,"time_elapsed":283854,"internal_node_id":"0.0-25.0","task_version":"test-retest-t2"},{"Rune":"rune_06_cweord","Hex":"#ffcc3399","Correct":-1,"Choice":-1,"RT":-1,"Accuracy":1,"Outcome":"+10","Keys":[],"TotalKeys":0,"Block":1,"Trial":22,"Robot":2,"Valence":"Win","Action":"No-Go","Sham":0,"Color":"yellow","trial_type":"pit-trial","trial_index":37,"time_elapsed":287857,"internal_node_id":"0.0-26.0","task_version":"test-retest-t2"},{"Rune":"rune_06_ansuz","Hex":"#ffcc3399","Correct":32,"Choice":32,"RT":466.25999989919364,"Accuracy":1,"Outcome":"+1","Keys":[1967.6399999298155],"TotalKeys":1,"Block":1,"Trial":23,"Robot":1,"Valence":"Win","Action":"Go","Sham":1,"Color":"yellow","trial_type":"pit-trial","trial_index":38,"time_elapsed":290828,"internal_node_id":"0.0-27.0","task_version":"test-retest-t2"},{"Rune":"rune_06_ehwaz","Hex":"#3366ff99","Correct":-1,"Choice":-1,"RT":-1,"Accuracy":1,"Outcome":"-1","Keys":[],"TotalKeys":0,"Block":1,"Trial":24,"Robot":4,"Valence":"Lose","Action":"No-Go","Sham":0,"Color":"blue","trial_type":"pit-trial","trial_index":39,"time_elapsed":294835,"internal_node_id":"0.0-28.0","task_version":"test-retest-t2"},{"Rune":"rune_06_berkanan","Hex":"#3366ff99","Correct":32,"Choice":32,"RT":498.1349997688085,"Accuracy":1,"Outcome":"-1","Keys":[1998.4250001143664],"TotalKeys":1,"Block":1,"Trial":25,"Robot":3,"Valence":"Lose","Action":"Go","Sham":0,"Color":"blue","trial_type":"pit-trial","trial_index":40,"time_elapsed":297839,"internal_node_id":"0.0-29.0","task_version":"test-retest-t2"},{"Rune":"rune_06_ehwaz","Hex":"#3366ff99","Correct":-1,"Choice":-1,"RT":-1,"Accuracy":1,"Outcome":"-1","Keys":[],"TotalKeys":0,"Block":1,"Trial":26,"Robot":4,"Valence":"Lose","Action":"No-Go","Sham":0,"Color":"blue","trial_type":"pit-trial","trial_index":41,"time_elapsed":301845,"internal_node_id":"0.0-30.0","task_version":"test-retest-t2"},{"Rune":"rune_06_ansuz","Hex":"#ffcc3399","Correct":32,"Choice":32,"RT":332.9499999526888,"Accuracy":1,"Outcome":"+10","Keys":[1834.610000019893],"TotalKeys":1,"Block":1,"Trial":27,"Robot":1,"Valence":"Win","Action":"Go","Sham":0,"Color":"yellow","trial_type":"pit-trial","trial_index":42,"time_elapsed":304685,"internal_node_id":"0.0-31.0","task_version":"test-retest-t2"},{"Rune":"rune_06_cweord","Hex":"#ffcc3399","Correct":-1,"Choice":-1,"RT":-1,"Accuracy":1,"Outcome":"+10","Keys":[],"TotalKeys":0,"Block":1,"Trial":28,"Robot":2,"Valence":"Win","Action":"No-Go","Sham":0,"Color":"yellow","trial_type":"pit-trial","trial_index":43,"time_elapsed":308692,"internal_node_id":"0.0-32.0","task_version":"test-retest-t2"},{"Rune":"rune_06_ansuz","Hex":"#ffcc3399","Correct":32,"Choice":32,"RT":566.2200001534075,"Accuracy":1,"Outcome":"+10","Keys":[2068.184999981895],"TotalKeys":1,"Block":1,"Trial":29,"Robot":1,"Valence":"Win","Action":"Go","Sham":0,"Color":"yellow","trial_type":"pit-trial","trial_index":44,"time_elapsed":311765,"internal_node_id":"0.0-33.0","task_version":"test-retest-t2"},{"Rune":"rune_06_cweord","Hex":"#ffcc3399","Correct":-1,"Choice":-1,"RT":-1,"Accuracy":1,"Outcome":"+10","Keys":[],"TotalKeys":0,"Block":1,"Trial":30,"Robot":2,"Valence":"Win","Action":"No-Go","Sham":0,"Color":"yellow","trial_type":"pit-trial","trial_index":45,"time_elapsed":315770,"internal_node_id":"0.0-34.0","task_version":"test-retest-t2"},{"Rune":"rune_06_ehwaz","Hex":"#3366ff99","Correct":-1,"Choice":-1,"RT":-1,"Accuracy":1,"Outcome":"-1","Keys":[],"TotalKeys":0,"Block":1,"Trial":31,"Robot":4,"Valence":"Lose","Action":"No-Go","Sham":0,"Color":"blue","trial_type":"pit-trial","trial_index":46,"time_elapsed":319777,"internal_node_id":"0.0-35.0","task_version":"test-retest-t2"},{"Rune":"rune_06_berkanan","Hex":"#3366ff99","Correct":32,"Choice":32,"RT":502.10499996319413,"Accuracy":1,"Outcome":"-1","Keys":[2003.2550001051277],"TotalKeys":1,"Block":1,"Trial":32,"Robot":3,"Valence":"Lose","Action":"Go","Sham":0,"Color":"blue","trial_type":"pit-trial","trial_index":47,"time_elapsed":322786,"internal_node_id":"0.0-36.0","task_version":"test-retest-t2"},{"Rune":"rune_06_berkanan","Hex":"#3366ff99","Correct":32,"Choice":32,"RT":523.1650001369417,"Accuracy":1,"Outcome":"-1","Keys":[2023.6400000285357],"TotalKeys":1,"Block":1,"Trial":33,"Robot":3,"Valence":"Lose","Action":"Go","Sham":0,"Color":"blue","trial_type":"pit-trial","trial_index":48,"time_elapsed":325814,"internal_node_id":"0.0-37.0","task_version":"test-retest-t2"},{"Rune":"rune_06_ansuz","Hex":"#ffcc3399","Correct":32,"Choice":32,"RT":539.454999845475,"Accuracy":1,"Outcome":"+10","Keys":[2040.3700000606477],"TotalKeys":1,"Block":1,"Trial":34,"Robot":1,"Valence":"Win","Action":"Go","Sham":0,"Color":"yellow","trial_type":"pit-trial","trial_index":49,"time_elapsed":328861,"internal_node_id":"0.0-38.0","task_version":"test-retest-t2"},{"Rune":"rune_06_cweord","Hex":"#ffcc3399","Correct":-1,"Choice":-1,"RT":-1,"Accuracy":1,"Outcome":"+10","Keys":[],"TotalKeys":0,"Block":1,"Trial":35,"Robot":2,"Valence":"Win","Action":"No-Go","Sham":0,"Color":"yellow","trial_type":"pit-trial","trial_index":50,"time_elapsed":332864,"internal_node_id":"0.0-39.0","task_version":"test-retest-t2"},{"Rune":"rune_06_ehwaz","Hex":"#3366ff99","Correct":-1,"Choice":-1,"RT":-1,"Accuracy":1,"Outcome":"-10","Keys":[],"TotalKeys":0,"Block":1,"Trial":36,"Robot":4,"Valence":"Lose","Action":"No-Go","Sham":1,"Color":"blue","trial_type":"pit-trial","trial_index":51,"time_elapsed":336871,"internal_node_id":"0.0-40.0","task_version":"test-retest-t2"},{"Rune":"rune_06_ansuz","Hex":"#ffcc3399","Correct":32,"Choice":32,"RT":648.1699999421835,"Accuracy":1,"Outcome":"+10","Keys":[2149.1099998820573],"TotalKeys":1,"Block":1,"Trial":37,"Robot":1,"Valence":"Win","Action":"Go","Sham":0,"Color":"yellow","trial_type":"pit-trial","trial_index":52,"time_elapsed":340024,"internal_node_id":"0.0-41.0","task_version":"test-retest-t2"},{"Rune":"rune_06_berkanan","Hex":"#3366ff99","Correct":32,"Choice":32,"RT":542.6150001585484,"Accuracy":1,"Outcome":"-1","Keys":[2043.7199999578297],"TotalKeys":1,"Block":1,"Trial":38,"Robot":3,"Valence":"Lose","Action":"Go","Sham":0,"Color":"blue","trial_type":"pit-trial","trial_index":53,"time_elapsed":343073,"internal_node_id":"0.0-42.0","task_version":"test-retest-t2"},{"Rune":"rune_06_ehwaz","Hex":"#3366ff99","Correct":-1,"Choice":-1,"RT":-1,"Accuracy":1,"Outcome":"-1","Keys":[],"TotalKeys":0,"Block":1,"Trial":39,"Robot":4,"Valence":"Lose","Action":"No-Go","Sham":0,"Color":"blue","trial_type":"pit-trial","trial_index":54,"time_elapsed":347079,"internal_node_id":"0.0-43.0","task_version":"test-retest-t2"},{"Rune":"rune_06_cweord","Hex":"#ffcc3399","Correct":-1,"Choice":-1,"RT":-1,"Accuracy":1,"Outcome":"+1","Keys":[],"TotalKeys":0,"Block":1,"Trial":40,"Robot":2,"Valence":"Win","Action":"No-Go","Sham":1,"Color":"yellow","trial_type":"pit-trial","trial_index":55,"time_elapsed":351085,"internal_node_id":"0.0-44.0","task_version":"test-retest-t2"},{"Rune":"rune_06_berkanan","Hex":"#3366ff99","Correct":32,"Choice":32,"RT":672.8299998212606,"Accuracy":1,"Outcome":"-1","Keys":[2173.299999907613],"TotalKeys":1,"Block":1,"Trial":41,"Robot":3,"Valence":"Lose","Action":"Go","Sham":0,"Color":"blue","trial_type":"pit-trial","trial_index":56,"time_elapsed":354264,"internal_node_id":"0.0-45.0","task_version":"test-retest-t2"},{"Rune":"rune_06_ehwaz","Hex":"#3366ff99","Correct":-1,"Choice":-1,"RT":-1,"Accuracy":1,"Outcome":"-1","Keys":[],"TotalKeys":0,"Block":1,"Trial":42,"Robot":4,"Valence":"Lose","Action":"No-Go","Sham":0,"Color":"blue","trial_type":"pit-trial","trial_index":57,"time_elapsed":358270,"internal_node_id":"0.0-46.0","task_version":"test-retest-t2"},{"Rune":"rune_06_ansuz","Hex":"#ffcc3399","Correct":32,"Choice":32,"RT":523.6299999523908,"Accuracy":1,"Outcome":"+10","Keys":[2024.5750001631677],"TotalKeys":1,"Block":1,"Trial":43,"Robot":1,"Valence":"Win","Action":"Go","Sham":0,"Color":"yellow","trial_type":"pit-trial","trial_index":58,"time_elapsed":361301,"internal_node_id":"0.0-47.0","task_version":"test-retest-t2"},{"Rune":"rune_06_cweord","Hex":"#ffcc3399","Correct":-1,"Choice":-1,"RT":-1,"Accuracy":1,"Outcome":"+10","Keys":[],"TotalKeys":0,"Block":1,"Trial":44,"Robot":2,"Valence":"Win","Action":"No-Go","Sham":0,"Color":"yellow","trial_type":"pit-trial","trial_index":59,"time_elapsed":365309,"internal_node_id":"0.0-48.0","task_version":"test-retest-t2"},{"Rune":"rune_06_ehwaz","Hex":"#3366ff99","Correct":-1,"Choice":-1,"RT":-1,"Accuracy":1,"Outcome":"-10","Keys":[],"TotalKeys":0,"Block":1,"Trial":45,"Robot":4,"Valence":"Lose","Action":"No-Go","Sham":1,"Color":"blue","trial_type":"pit-trial","trial_index":60,"time_elapsed":369316,"internal_node_id":"0.0-49.0","task_version":"test-retest-t2"},{"Rune":"rune_06_cweord","Hex":"#ffcc3399","Correct":-1,"Choice":-1,"RT":-1,"Accuracy":1,"Outcome":"+10","Keys":[],"TotalKeys":0,"Block":1,"Trial":46,"Robot":2,"Valence":"Win","Action":"No-Go","Sham":0,"Color":"yellow","trial_type":"pit-trial","trial_index":61,"time_elapsed":373321,"internal_node_id":"0.0-50.0","task_version":"test-retest-t2"},{"Rune":"rune_06_berkanan","Hex":"#3366ff99","Correct":32,"Choice":32,"RT":533.3349998109043,"Accuracy":1,"Outcome":"-1","Keys":[2033.8299998547882],"TotalKeys":1,"Block":1,"Trial":47,"Robot":3,"Valence":"Lose","Action":"Go","Sham":0,"Color":"blue","trial_type":"pit-trial","trial_index":62,"time_elapsed":376359,"internal_node_id":"0.0-51.0","task_version":"test-retest-t2"},{"Rune":"rune_06_ansuz","Hex":"#ffcc3399","Correct":32,"Choice":32,"RT":527.4550002068281,"Accuracy":1,"Outcome":"+1","Keys":[2027.5550000369549],"TotalKeys":1,"Block":1,"Trial":48,"Robot":1,"Valence":"Win","Action":"Go","Sham":1,"Color":"yellow","trial_type":"pit-trial","trial_index":63,"time_elapsed":379393,"internal_node_id":"0.0-52.0","task_version":"test-retest-t2"},{"Rune":"rune_06_ehwaz","Hex":"#3366ff99","Correct":-1,"Choice":-1,"RT":-1,"Accuracy":1,"Outcome":"-1","Keys":[],"TotalKeys":0,"Block":1,"Trial":49,"Robot":4,"Valence":"Lose","Action":"No-Go","Sham":0,"Color":"blue","trial_type":"pit-trial","trial_index":64,"time_elapsed":383400,"internal_node_id":"0.0-53.0","task_version":"test-retest-t2"},{"Rune":"rune_06_ansuz","Hex":"#ffcc3399","Correct":32,"Choice":32,"RT":498.155000153929,"Accuracy":1,"Outcome":"+10","Keys":[1998.5549999400973],"TotalKeys":1,"Block":1,"Trial":50,"Robot":1,"Valence":"Win","Action":"Go","Sham":0,"Color":"yellow","trial_type":"pit-trial","trial_index":65,"time_elapsed":386402,"internal_node_id":"0.0-54.0","task_version":"test-retest-t2"},{"Rune":"rune_06_cweord","Hex":"#ffcc3399","Correct":-1,"Choice":-1,"RT":-1,"Accuracy":1,"Outcome":"+10","Keys":[],"TotalKeys":0,"Block":1,"Trial":51,"Robot":2,"Valence":"Win","Action":"No-Go","Sham":0,"Color":"yellow","trial_type":"pit-trial","trial_index":66,"time_elapsed":390408,"internal_node_id":"0.0-55.0","task_version":"test-retest-t2"},{"Rune":"rune_06_berkanan","Hex":"#3366ff99","Correct":32,"Choice":32,"RT":553.5150000359863,"Accuracy":1,"Outcome":"-10","Keys":[2054.634999949485],"TotalKeys":1,"Block":1,"Trial":52,"Robot":3,"Valence":"Lose","Action":"Go","Sham":1,"Color":"blue","trial_type":"pit-trial","trial_index":67,"time_elapsed":393466,"internal_node_id":"0.0-56.0","task_version":"test-retest-t2"},{"Rune":"rune_06_ehwaz","Hex":"#3366ff99","Correct":-1,"Choice":-1,"RT":-1,"Accuracy":1,"Outcome":"-1","Keys":[],"TotalKeys":0,"Block":1,"Trial":53,"Robot":4,"Valence":"Lose","Action":"No-Go","Sham":0,"Color":"blue","trial_type":"pit-trial","trial_index":68,"time_elapsed":397473,"internal_node_id":"0.0-57.0","task_version":"test-retest-t2"},{"Rune":"rune_06_cweord","Hex":"#ffcc3399","Correct":-1,"Choice":-1,"RT":-1,"Accuracy":1,"Outcome":"+10","Keys":[],"TotalKeys":0,"Block":1,"Trial":54,"Robot":2,"Valence":"Win","Action":"No-Go","Sham":0,"Color":"yellow","trial_type":"pit-trial","trial_index":69,"time_elapsed":401482,"internal_node_id":"0.0-58.0","task_version":"test-retest-t2"},{"Rune":"rune_06_ansuz","Hex":"#ffcc3399","Correct":32,"Choice":32,"RT":467.29999990202487,"Accuracy":1,"Outcome":"+10","Keys":[1968.30500010401],"TotalKeys":1,"Block":1,"Trial":55,"Robot":1,"Valence":"Win","Action":"Go","Sham":0,"Color":"yellow","trial_type":"pit-trial","trial_index":70,"time_elapsed":404456,"internal_node_id":"0.0-59.0","task_version":"test-retest-t2"},{"Rune":"rune_06_berkanan","Hex":"#3366ff99","Correct":32,"Choice":32,"RT":387.0399999432266,"Accuracy":1,"Outcome":"-1","Keys":[1887.1300001628697],"TotalKeys":1,"Block":1,"Trial":56,"Robot":3,"Valence":"Lose","Action":"Go","Sham":0,"Color":"blue","trial_type":"pit-trial","trial_index":71,"time_elapsed":407349,"internal_node_id":"0.0-60.0","task_version":"test-retest-t2"},{"Rune":"rune_06_ansuz","Hex":"#ffcc3399","Correct":32,"Choice":32,"RT":580.0650001037866,"Accuracy":1,"Outcome":"+10","Keys":[2080.450000008568],"TotalKeys":1,"Block":1,"Trial":57,"Robot":1,"Valence":"Win","Action":"Go","Sham":0,"Color":"yellow","trial_type":"pit-trial","trial_index":72,"time_elapsed":410434,"internal_node_id":"0.0-61.0","task_version":"test-retest-t2"},{"Rune":"rune_06_ehwaz","Hex":"#3366ff99","Correct":-1,"Choice":-1,"RT":-1,"Accuracy":1,"Outcome":"-1","Keys":[],"TotalKeys":0,"Block":1,"Trial":58,"Robot":4,"Valence":"Lose","Action":"No-Go","Sham":0,"Color":"blue","trial_type":"pit-trial","trial_index":73,"time_elapsed":414439,"internal_node_id":"0.0-62.0","task_version":"test-retest-t2"},{"Rune":"rune_06_cweord","Hex":"#ffcc3399","Correct":-1,"Choice":-1,"RT":-1,"Accuracy":1,"Outcome":"+1","Keys":[],"TotalKeys":0,"Block":1,"Trial":59,"Robot":2,"Valence":"Win","Action":"No-Go","Sham":1,"Color":"yellow","trial_type":"pit-trial","trial_index":74,"time_elapsed":418444,"internal_node_id":"0.0-63.0","task_version":"test-retest-t2"},{"Rune":"rune_06_berkanan","Hex":"#3366ff99","Correct":32,"Choice":32,"RT":494.34500001370907,"Accuracy":1,"Outcome":"-1","Keys":[1995.219999924302],"TotalKeys":1,"Block":1,"Trial":60,"Robot":3,"Valence":"Lose","Action":"Go","Sham":0,"Color":"blue","trial_type":"pit-trial","trial_index":75,"time_elapsed":421444,"internal_node_id":"0.0-64.0","task_version":"test-retest-t2"},{"value":false,"trial_type":"call-function","trial_index":76,"time_elapsed":421448,"internal_node_id":"0.0-65.0","task_version":"test-retest-t2"},{"view_history":"[{\"page_index\":0,\"viewing_time\":32015.320000005886},{\"page_index\":1,\"viewing_time\":2219.800000078976}]","rt":34236.395000014454,"trial_type":"pit-instructions","trial_index":77,"time_elapsed":455685,"internal_node_id":"0.0-66.0","task_version":"test-retest-t2"},{"Rune":"rune_06_ansuz","Hex":"#ffcc3399","Correct":32,"Choice":32,"RT":700.8899999782443,"Accuracy":1,"Outcome":"+1","Keys":[2202.104999916628],"TotalKeys":1,"Block":1,"Trial":61,"Robot":1,"Valence":"Win","Action":"Go","Sham":1,"Color":"yellow","trial_type":"pit-trial","trial_index":78,"time_elapsed":458896,"internal_node_id":"0.0-67.0","task_version":"test-retest-t2"},{"Rune":"rune_06_ehwaz","Hex":"#3366ff99","Correct":-1,"Choice":32,"RT":454.9099998548627,"Accuracy":0,"Outcome":"-1","Keys":[1955.6150001008064],"TotalKeys":1,"Block":1,"Trial":62,"Robot":4,"Valence":"Lose","Action":"No-Go","Sham":1,"Color":"blue","trial_type":"pit-trial","trial_index":79,"time_elapsed":461856,"internal_node_id":"0.0-68.0","task_version":"test-retest-t2"},{"Rune":"rune_06_cweord","Hex":"#ffcc3399","Correct":-1,"Choice":32,"RT":481.9399998523295,"Accuracy":0,"Outcome":"+1","Keys":[1984.0899999253452],"TotalKeys":1,"Block":1,"Trial":63,"Robot":2,"Valence":"Win","Action":"No-Go","Sham":0,"Color":"yellow","trial_type":"pit-trial","trial_index":80,"time_elapsed":464847,"internal_node_id":"0.0-69.0","task_version":"test-retest-t2"},{"Rune":"rune_06_berkanan","Hex":"#3366ff99","Correct":32,"Choice":32,"RT":518.0699999909848,"Accuracy":1,"Outcome":"-10","Keys":[2018.2449999265373],"TotalKeys":1,"Block":1,"Trial":64,"Robot":3,"Valence":"Lose","Action":"Go","Sham":1,"Color":"blue","trial_type":"pit-trial","trial_index":81,"time_elapsed":467872,"internal_node_id":"0.0-70.0","task_version":"test-retest-t2"},{"Rune":"rune_06_berkanan","Hex":"#3366ff99","Correct":32,"Choice":32,"RT":447.28500000201166,"Accuracy":1,"Outcome":"-1","Keys":[1948.7099999096245],"TotalKeys":1,"Block":1,"Trial":65,"Robot":3,"Valence":"Lose","Action":"Go","Sham":0,"Color":"blue","trial_type":"pit-trial","trial_index":82,"time_elapsed":470827,"internal_node_id":"0.0-71.0","task_version":"test-retest-t2"},{"Rune":"rune_06_cweord","Hex":"#ffcc3399","Correct":-1,"Choice":-1,"RT":-1,"Accuracy":1,"Outcome":"+1","Keys":[],"TotalKeys":0,"Block":1,"Trial":66,"Robot":2,"Valence":"Win","Action":"No-Go","Sham":1,"Color":"yellow","trial_type":"pit-trial","trial_index":83,"time_elapsed":474831,"internal_node_id":"0.0-72.0","task_version":"test-retest-t2"},{"Rune":"rune_06_ehwaz","Hex":"#3366ff99","Correct":-1,"Choice":32,"RT":651.6899999696761,"Accuracy":0,"Outcome":"-10","Keys":[2152.0350000355393],"TotalKeys":1,"Block":1,"Trial":67,"Robot":4,"Valence":"Lose","Action":"No-Go","Sham":0,"Color":"blue","trial_type":"pit-trial","trial_index":84,"time_elapsed":477988,"internal_node_id":"0.0-73.0","task_version":"test-retest-t2"},{"Rune":"rune_06_ansuz","Hex":"#ffcc3399","Correct":32,"Choice":32,"RT":477.8700000606477,"Accuracy":1,"Outcome":"+10","Keys":[1977.8449998702854],"TotalKeys":1,"Block":1,"Trial":68,"Robot":1,"Valence":"Win","Action":"Go","Sham":0,"Color":"yellow","trial_type":"pit-trial","trial_index":85,"time_elapsed":480970,"internal_node_id":"0.0-74.0","task_version":"test-retest-t2"},{"Rune":"rune_06_ansuz","Hex":"#ffcc3399","Correct":32,"Choice":32,"RT":438.32499999552965,"Accuracy":1,"Outcome":"+10","Keys":[1938.3549999911338],"TotalKeys":1,"Block":1,"Trial":69,"Robot":1,"Valence":"Win","Action":"Go","Sham":0,"Color":"yellow","trial_type":"pit-trial","trial_index":86,"time_elapsed":483915,"internal_node_id":"0.0-75.0","task_version":"test-retest-t2"},{"Rune":"rune_06_cweord","Hex":"#ffcc3399","Correct":-1,"Choice":-1,"RT":-1,"Accuracy":1,"Outcome":"+10","Keys":[],"TotalKeys":0,"Block":1,"Trial":70,"Robot":2,"Valence":"Win","Action":"No-Go","Sham":0,"Color":"yellow","trial_type":"pit-trial","trial_index":87,"time_elapsed":487919,"internal_node_id":"0.0-76.0","task_version":"test-retest-t2"},{"Rune":"rune_06_ehwaz","Hex":"#3366ff99","Correct":-1,"Choice":-1,"RT":-1,"Accuracy":1,"Outcome":"-1","Keys":[],"TotalKeys":0,"Block":1,"Trial":71,"Robot":4,"Valence":"Lose","Action":"No-Go","Sham":0,"Color":"blue","trial_type":"pit-trial","trial_index":88,"time_elapsed":491926,"internal_node_id":"0.0-77.0","task_version":"test-retest-t2"},{"Rune":"rune_06_berkanan","Hex":"#3366ff99","Correct":32,"Choice":32,"RT":533.8749999646097,"Accuracy":1,"Outcome":"-1","Keys":[2034.6199998166412],"TotalKeys":1,"Block":1,"Trial":72,"Robot":3,"Valence":"Lose","Action":"Go","Sham":0,"Color":"blue","trial_type":"pit-trial","trial_index":89,"time_elapsed":494967,"internal_node_id":"0.0-78.0","task_version":"test-retest-t2"},{"Rune":"rune_06_ansuz","Hex":"#ffcc3399","Correct":32,"Choice":32,"RT":509.11500002257526,"Accuracy":1,"Outcome":"+10","Keys":[2010.8500001952052],"TotalKeys":1,"Block":1,"Trial":73,"Robot":1,"Valence":"Win","Action":"Go","Sham":0,"Color":"yellow","trial_type":"pit-trial","trial_index":90,"time_elapsed":497985,"internal_node_id":"0.0-79.0","task_version":"test-retest-t2"},{"Rune":"rune_06_ehwaz","Hex":"#3366ff99","Correct":-1,"Choice":-1,"RT":-1,"Accuracy":1,"Outcome":"-1","Keys":[],"TotalKeys":0,"Block":1,"Trial":74,"Robot":4,"Valence":"Lose","Action":"No-Go","Sham":0,"Color":"blue","trial_type":"pit-trial","trial_index":91,"time_elapsed":501992,"internal_node_id":"0.0-80.0","task_version":"test-retest-t2"},{"Rune":"rune_06_berkanan","Hex":"#3366ff99","Correct":32,"Choice":32,"RT":463.4999998379499,"Accuracy":1,"Outcome":"-1","Keys":[1964.695000089705],"TotalKeys":1,"Block":1,"Trial":75,"Robot":3,"Valence":"Lose","Action":"Go","Sham":0,"Color":"blue","trial_type":"pit-trial","trial_index":92,"time_elapsed":504962,"internal_node_id":"0.0-81.0","task_version":"test-retest-t2"},{"Rune":"rune_06_cweord","Hex":"#ffcc3399","Correct":-1,"Choice":-1,"RT":-1,"Accuracy":1,"Outcome":"+10","Keys":[],"TotalKeys":0,"Block":1,"Trial":76,"Robot":2,"Valence":"Win","Action":"No-Go","Sham":0,"Color":"yellow","trial_type":"pit-trial","trial_index":93,"time_elapsed":508969,"internal_node_id":"0.0-82.0","task_version":"test-retest-t2"},{"Rune":"rune_06_ansuz","Hex":"#ffcc3399","Correct":32,"Choice":32,"RT":528.8899999577552,"Accuracy":1,"Outcome":"+10","Keys":[2029.710000148043],"TotalKeys":1,"Block":1,"Trial":77,"Robot":1,"Valence":"Win","Action":"Go","Sham":0,"Color":"yellow","trial_type":"pit-trial","trial_index":94,"time_elapsed":512004,"internal_node_id":"0.0-83.0","task_version":"test-retest-t2"},{"Rune":"rune_06_ehwaz","Hex":"#3366ff99","Correct":-1,"Choice":-1,"RT":-1,"Accuracy":1,"Outcome":"-1","Keys":[],"TotalKeys":0,"Block":1,"Trial":78,"Robot":4,"Valence":"Lose","Action":"No-Go","Sham":0,"Color":"blue","trial_type":"pit-trial","trial_index":95,"time_elapsed":516010,"internal_node_id":"0.0-84.0","task_version":"test-retest-t2"},{"Rune":"rune_06_cweord","Hex":"#ffcc3399","Correct":-1,"Choice":-1,"RT":-1,"Accuracy":1,"Outcome":"+10","Keys":[],"TotalKeys":0,"Block":1,"Trial":79,"Robot":2,"Valence":"Win","Action":"No-Go","Sham":0,"Color":"yellow","trial_type":"pit-trial","trial_index":96,"time_elapsed":520018,"internal_node_id":"0.0-85.0","task_version":"test-retest-t2"},{"Rune":"rune_06_berkanan","Hex":"#3366ff99","Correct":32,"Choice":32,"RT":572.1449998673052,"Accuracy":1,"Outcome":"-1","Keys":[2073.090000078082],"TotalKeys":1,"Block":1,"Trial":80,"Robot":3,"Valence":"Lose","Action":"Go","Sham":0,"Color":"blue","trial_type":"pit-trial","trial_index":97,"time_elapsed":523097,"internal_node_id":"0.0-86.0","task_version":"test-retest-t2"},{"Rune":"rune_06_ansuz","Hex":"#ffcc3399","Correct":32,"Choice":32,"RT":512.8050001803786,"Accuracy":1,"Outcome":"+1","Keys":[2013.9999999664724],"TotalKeys":1,"Block":1,"Trial":81,"Robot":1,"Valence":"Win","Action":"Go","Sham":1,"Color":"yellow","trial_type":"pit-trial","trial_index":98,"time_elapsed":526117,"internal_node_id":"0.0-87.0","task_version":"test-retest-t2"},{"Rune":"rune_06_berkanan","Hex":"#3366ff99","Correct":32,"Choice":32,"RT":475.48999986611307,"Accuracy":1,"Outcome":"-10","Keys":[1975.910000037402],"TotalKeys":1,"Block":1,"Trial":82,"Robot":3,"Valence":"Lose","Action":"Go","Sham":1,"Color":"blue","trial_type":"pit-trial","trial_index":99,"time_elapsed":529099,"internal_node_id":"0.0-88.0","task_version":"test-retest-t2"},{"Rune":"rune_06_ehwaz","Hex":"#3366ff99","Correct":-1,"Choice":-1,"RT":-1,"Accuracy":1,"Outcome":"-10","Keys":[],"TotalKeys":0,"Block":1,"Trial":83,"Robot":4,"Valence":"Lose","Action":"No-Go","Sham":1,"Color":"blue","trial_type":"pit-trial","trial_index":100,"time_elapsed":533107,"internal_node_id":"0.0-89.0","task_version":"test-retest-t2"},{"Rune":"rune_06_cweord","Hex":"#ffcc3399","Correct":-1,"Choice":-1,"RT":-1,"Accuracy":1,"Outcome":"+10","Keys":[],"TotalKeys":0,"Block":1,"Trial":84,"Robot":2,"Valence":"Win","Action":"No-Go","Sham":0,"Color":"yellow","trial_type":"pit-trial","trial_index":101,"time_elapsed":537115,"internal_node_id":"0.0-90.0","task_version":"test-retest-t2"},{"Rune":"rune_06_cweord","Hex":"#ffcc3399","Correct":-1,"Choice":-1,"RT":-1,"Accuracy":1,"Outcome":"+10","Keys":[],"TotalKeys":0,"Block":1,"Trial":85,"Robot":2,"Valence":"Win","Action":"No-Go","Sham":0,"Color":"yellow","trial_type":"pit-trial","trial_index":102,"time_elapsed":541120,"internal_node_id":"0.0-91.0","task_version":"test-retest-t2"},{"Rune":"rune_06_ansuz","Hex":"#ffcc3399","Correct":32,"Choice":32,"RT":401.9100000150502,"Accuracy":1,"Outcome":"+10","Keys":[1901.9150000531226],"TotalKeys":1,"Block":1,"Trial":86,"Robot":1,"Valence":"Win","Action":"Go","Sham":0,"Color":"yellow","trial_type":"pit-trial","trial_index":103,"time_elapsed":544027,"internal_node_id":"0.0-92.0","task_version":"test-retest-t2"},{"Rune":"rune_06_berkanan","Hex":"#3366ff99","Correct":32,"Choice":32,"RT":573.1699999887496,"Accuracy":1,"Outcome":"-1","Keys":[2073.270000051707],"TotalKeys":1,"Block":1,"Trial":87,"Robot":3,"Valence":"Lose","Action":"Go","Sham":0,"Color":"blue","trial_type":"pit-trial","trial_index":104,"time_elapsed":547107,"internal_node_id":"0.0-93.0","task_version":"test-retest-t2"},{"Rune":"rune_06_ehwaz","Hex":"#3366ff99","Correct":-1,"Choice":-1,"RT":-1,"Accuracy":1,"Outcome":"-1","Keys":[],"TotalKeys":0,"Block":1,"Trial":88,"Robot":4,"Valence":"Lose","Action":"No-Go","Sham":0,"Color":"blue","trial_type":"pit-trial","trial_index":105,"time_elapsed":551112,"internal_node_id":"0.0-94.0","task_version":"test-retest-t2"},{"Rune":"rune_06_ansuz","Hex":"#ffcc3399","Correct":32,"Choice":32,"RT":690.7750000245869,"Accuracy":1,"Outcome":"+10","Keys":[2191.4550000801682],"TotalKeys":1,"Block":1,"Trial":89,"Robot":1,"Valence":"Win","Action":"Go","Sham":0,"Color":"yellow","trial_type":"pit-trial","trial_index":106,"time_elapsed":554309,"internal_node_id":"0.0-95.0","task_version":"test-retest-t2"},{"Rune":"rune_06_berkanan","Hex":"#3366ff99","Correct":32,"Choice":32,"RT":506.5049999393523,"Accuracy":1,"Outcome":"-1","Keys":[2006.5999999642372],"TotalKeys":1,"Block":1,"Trial":90,"Robot":3,"Valence":"Lose","Action":"Go","Sham":0,"Color":"blue","trial_type":"pit-trial","trial_index":107,"time_elapsed":557321,"internal_node_id":"0.0-96.0","task_version":"test-retest-t2"},{"Rune":"rune_06_cweord","Hex":"#ffcc3399","Correct":-1,"Choice":-1,"RT":-1,"Accuracy":1,"Outcome":"+1","Keys":[],"TotalKeys":0,"Block":1,"Trial":91,"Robot":2,"Valence":"Win","Action":"No-Go","Sham":1,"Color":"yellow","trial_type":"pit-trial","trial_index":108,"time_elapsed":561328,"internal_node_id":"0.0-97.0","task_version":"test-retest-t2"},{"Rune":"rune_06_ehwaz","Hex":"#3366ff99","Correct":-1,"Choice":-1,"RT":-1,"Accuracy":1,"Outcome":"-1","Keys":[],"TotalKeys":0,"Block":1,"Trial":92,"Robot":4,"Valence":"Lose","Action":"No-Go","Sham":0,"Color":"blue","trial_type":"pit-trial","trial_index":109,"time_elapsed":565334,"internal_node_id":"0.0-98.0","task_version":"test-retest-t2"},{"Rune":"rune_06_berkanan","Hex":"#3366ff99","Correct":32,"Choice":32,"RT":606.5650000236928,"Accuracy":1,"Outcome":"-1","Keys":[2107.9199998639524],"TotalKeys":1,"Block":1,"Trial":93,"Robot":3,"Valence":"Lose","Action":"Go","Sham":0,"Color":"blue","trial_type":"pit-trial","trial_index":110,"time_elapsed":568447,"internal_node_id":"0.0-99.0","task_version":"test-retest-t2"},{"Rune":"rune_06_ehwaz","Hex":"#3366ff99","Correct":-1,"Choice":-1,"RT":-1,"Accuracy":1,"Outcome":"-1","Keys":[],"TotalKeys":0,"Block":1,"Trial":94,"Robot":4,"Valence":"Lose","Action":"No-Go","Sham":0,"Color":"blue","trial_type":"pit-trial","trial_index":111,"time_elapsed":572454,"internal_node_id":"0.0-100.0","task_version":"test-retest-t2"},{"Rune":"rune_06_ansuz","Hex":"#ffcc3399","Correct":32,"Choice":32,"RT":593.2850001845509,"Accuracy":1,"Outcome":"+10","Keys":[2093.85500010103],"TotalKeys":1,"Block":1,"Trial":95,"Robot":1,"Valence":"Win","Action":"Go","Sham":0,"Color":"yellow","trial_type":"pit-trial","trial_index":112,"time_elapsed":575552,"internal_node_id":"0.0-101.0","task_version":"test-retest-t2"},{"Rune":"rune_06_cweord","Hex":"#ffcc3399","Correct":-1,"Choice":-1,"RT":-1,"Accuracy":1,"Outcome":"+10","Keys":[],"TotalKeys":0,"Block":1,"Trial":96,"Robot":2,"Valence":"Win","Action":"No-Go","Sham":0,"Color":"yellow","trial_type":"pit-trial","trial_index":113,"time_elapsed":579557,"internal_node_id":"0.0-102.0","task_version":"test-retest-t2"},{"Rune":"rune_06_ehwaz","Hex":"#3366ff99","Correct":-1,"Choice":-1,"RT":-1,"Accuracy":1,"Outcome":"-1","Keys":[],"TotalKeys":0,"Block":1,"Trial":97,"Robot":4,"Valence":"Lose","Action":"No-Go","Sham":0,"Color":"blue","trial_type":"pit-trial","trial_index":114,"time_elapsed":583563,"internal_node_id":"0.0-103.0","task_version":"test-retest-t2"},{"Rune":"rune_06_cweord","Hex":"#ffcc3399","Correct":-1,"Choice":-1,"RT":-1,"Accuracy":1,"Outcome":"+10","Keys":[],"TotalKeys":0,"Block":1,"Trial":98,"Robot":2,"Valence":"Win","Action":"No-Go","Sham":0,"Color":"yellow","trial_type":"pit-trial","trial_index":115,"time_elapsed":587568,"internal_node_id":"0.0-104.0","task_version":"test-retest-t2"},{"Rune":"rune_06_ansuz","Hex":"#ffcc3399","Correct":32,"Choice":32,"RT":383.6050000973046,"Accuracy":1,"Outcome":"+10","Keys":[1885.194999864325],"TotalKeys":1,"Block":1,"Trial":99,"Robot":1,"Valence":"Win","Action":"Go","Sham":0,"Color":"yellow","trial_type":"pit-trial","trial_index":116,"time_elapsed":590459,"internal_node_id":"0.0-105.0","task_version":"test-retest-t2"},{"Rune":"rune_06_berkanan","Hex":"#3366ff99","Correct":32,"Choice":32,"RT":368.17000014707446,"Accuracy":1,"Outcome":"-1","Keys":[1869.3099999800324],"TotalKeys":1,"Block":1,"Trial":100,"Robot":3,"Valence":"Lose","Action":"Go","Sham":0,"Color":"blue","trial_type":"pit-trial","trial_index":117,"time_elapsed":593334,"internal_node_id":"0.0-106.0","task_version":"test-retest-t2"},{"Rune":"rune_06_cweord","Hex":"#ffcc3399","Correct":-1,"Choice":-1,"RT":-1,"Accuracy":1,"Outcome":"+1","Keys":[],"TotalKeys":0,"Block":1,"Trial":101,"Robot":2,"Valence":"Win","Action":"No-Go","Sham":1,"Color":"yellow","trial_type":"pit-trial","trial_index":118,"time_elapsed":597340,"internal_node_id":"0.0-107.0","task_version":"test-retest-t2"},{"Rune":"rune_06_ehwaz","Hex":"#3366ff99","Correct":-1,"Choice":-1,"RT":-1,"Accuracy":1,"Outcome":"-10","Keys":[],"TotalKeys":0,"Block":1,"Trial":102,"Robot":4,"Valence":"Lose","Action":"No-Go","Sham":1,"Color":"blue","trial_type":"pit-trial","trial_index":119,"time_elapsed":601347,"internal_node_id":"0.0-108.0","task_version":"test-retest-t2"},{"Rune":"rune_06_ansuz","Hex":"#ffcc3399","Correct":32,"Choice":32,"RT":507.3599999304861,"Accuracy":1,"Outcome":"+10","Keys":[2007.85499997437],"TotalKeys":1,"Block":1,"Trial":103,"Robot":1,"Valence":"Win","Action":"Go","Sham":0,"Color":"yellow","trial_type":"pit-trial","trial_index":120,"time_elapsed":604359,"internal_node_id":"0.0-109.0","task_version":"test-retest-t2"},{"Rune":"rune_06_berkanan","Hex":"#3366ff99","Correct":32,"Choice":32,"RT":525.4899999126792,"Accuracy":1,"Outcome":"-1","Keys":[2025.72499983944],"TotalKeys":1,"Block":1,"Trial":104,"Robot":3,"Valence":"Lose","Action":"Go","Sham":0,"Color":"blue","trial_type":"pit-trial","trial_index":121,"time_elapsed":607392,"internal_node_id":"0.0-110.0","task_version":"test-retest-t2"},{"Rune":"rune_06_ehwaz","Hex":"#3366ff99","Correct":-1,"Choice":-1,"RT":-1,"Accuracy":1,"Outcome":"-1","Keys":[],"TotalKeys":0,"Block":1,"Trial":105,"Robot":4,"Valence":"Lose","Action":"No-Go","Sham":0,"Color":"blue","trial_type":"pit-trial","trial_index":122,"time_elapsed":611398,"internal_node_id":"0.0-111.0","task_version":"test-retest-t2"},{"Rune":"rune_06_cweord","Hex":"#ffcc3399","Correct":-1,"Choice":-1,"RT":-1,"Accuracy":1,"Outcome":"+10","Keys":[],"TotalKeys":0,"Block":1,"Trial":106,"Robot":2,"Valence":"Win","Action":"No-Go","Sham":0,"Color":"yellow","trial_type":"pit-trial","trial_index":123,"time_elapsed":615405,"internal_node_id":"0.0-112.0","task_version":"test-retest-t2"},{"Rune":"rune_06_ansuz","Hex":"#ffcc3399","Correct":32,"Choice":32,"RT":465.13500018045306,"Accuracy":1,"Outcome":"+10","Keys":[1965.7749999314547],"TotalKeys":1,"Block":1,"Trial":107,"Robot":1,"Valence":"Win","Action":"Go","Sham":0,"Color":"yellow","trial_type":"pit-trial","trial_index":124,"time_elapsed":618376,"internal_node_id":"0.0-113.0","task_version":"test-retest-t2"},{"Rune":"rune_06_berkanan","Hex":"#3366ff99","Correct":32,"Choice":32,"RT":424.94499986059964,"Accuracy":1,"Outcome":"-1","Keys":[1927.1949999965727],"TotalKeys":1,"Block":1,"Trial":108,"Robot":3,"Valence":"Lose","Action":"Go","Sham":0,"Color":"blue","trial_type":"pit-trial","trial_index":125,"time_elapsed":621308,"internal_node_id":"0.0-114.0","task_version":"test-retest-t2"},{"Rune":"rune_06_berkanan","Hex":"#3366ff99","Correct":32,"Choice":32,"RT":517.3750000540167,"Accuracy":1,"Outcome":"-1","Keys":[2017.859999788925],"TotalKeys":1,"Block":1,"Trial":109,"Robot":3,"Valence":"Lose","Action":"Go","Sham":0,"Color":"blue","trial_type":"pit-trial","trial_index":126,"time_elapsed":624330,"internal_node_id":"0.0-115.0","task_version":"test-retest-t2"},{"Rune":"rune_06_cweord","Hex":"#ffcc3399","Correct":-1,"Choice":-1,"RT":-1,"Accuracy":1,"Outcome":"+10","Keys":[],"TotalKeys":0,"Block":1,"Trial":110,"Robot":2,"Valence":"Win","Action":"No-Go","Sham":0,"Color":"yellow","trial_type":"pit-trial","trial_index":127,"time_elapsed":628335,"internal_node_id":"0.0-116.0","task_version":"test-retest-t2"},{"Rune":"rune_06_ehwaz","Hex":"#3366ff99","Correct":-1,"Choice":-1,"RT":-1,"Accuracy":1,"Outcome":"-1","Keys":[],"TotalKeys":0,"Block":1,"Trial":111,"Robot":4,"Valence":"Lose","Action":"No-Go","Sham":0,"Color":"blue","trial_type":"pit-trial","trial_index":128,"time_elapsed":632339,"internal_node_id":"0.0-117.0","task_version":"test-retest-t2"},{"Rune":"rune_06_ansuz","Hex":"#ffcc3399","Correct":32,"Choice":32,"RT":465.2599999681115,"Accuracy":1,"Outcome":"+10","Keys":[1965.5400000046939],"TotalKeys":1,"Block":1,"Trial":112,"Robot":1,"Valence":"Win","Action":"Go","Sham":0,"Color":"yellow","trial_type":"pit-trial","trial_index":129,"time_elapsed":635308,"internal_node_id":"0.0-118.0","task_version":"test-retest-t2"},{"Rune":"rune_06_ehwaz","Hex":"#3366ff99","Correct":-1,"Choice":-1,"RT":-1,"Accuracy":1,"Outcome":"-1","Keys":[],"TotalKeys":0,"Block":1,"Trial":113,"Robot":4,"Valence":"Lose","Action":"No-Go","Sham":0,"Color":"blue","trial_type":"pit-trial","trial_index":130,"time_elapsed":639314,"internal_node_id":"0.0-119.0","task_version":"test-retest-t2"},{"Rune":"rune_06_cweord","Hex":"#ffcc3399","Correct":-1,"Choice":-1,"RT":-1,"Accuracy":1,"Outcome":"+10","Keys":[],"TotalKeys":0,"Block":1,"Trial":114,"Robot":2,"Valence":"Win","Action":"No-Go","Sham":0,"Color":"yellow","trial_type":"pit-trial","trial_index":131,"time_elapsed":643320,"internal_node_id":"0.0-120.0","task_version":"test-retest-t2"},{"Rune":"rune_06_berkanan","Hex":"#3366ff99","Correct":32,"Choice":32,"RT":576.2000000104308,"Accuracy":1,"Outcome":"-1","Keys":[2077.1749999839813],"TotalKeys":1,"Block":1,"Trial":115,"Robot":3,"Valence":"Lose","Action":"Go","Sham":0,"Color":"blue","trial_type":"pit-trial","trial_index":132,"time_elapsed":646402,"internal_node_id":"0.0-121.0","task_version":"test-retest-t2"},{"Rune":"rune_06_ansuz","Hex":"#ffcc3399","Correct":32,"Choice":32,"RT":501.91000010818243,"Accuracy":1,"Outcome":"+1","Keys":[2002.6949997991323],"TotalKeys":1,"Block":1,"Trial":116,"Robot":1,"Valence":"Win","Action":"Go","Sham":1,"Color":"yellow","trial_type":"pit-trial","trial_index":133,"time_elapsed":649411,"internal_node_id":"0.0-122.0","task_version":"test-retest-t2"},{"Rune":"rune_06_ansuz","Hex":"#ffcc3399","Correct":32,"Choice":32,"RT":623.2549999840558,"Accuracy":1,"Outcome":"+10","Keys":[2123.5800001304597],"TotalKeys":1,"Block":1,"Trial":117,"Robot":1,"Valence":"Win","Action":"Go","Sham":0,"Color":"yellow","trial_type":"pit-trial","trial_index":134,"time_elapsed":652540,"internal_node_id":"0.0-123.0","task_version":"test-retest-t2"},{"Rune":"rune_06_ehwaz","Hex":"#3366ff99","Correct":-1,"Choice":-1,"RT":-1,"Accuracy":1,"Outcome":"-1","Keys":[],"TotalKeys":0,"Block":1,"Trial":118,"Robot":4,"Valence":"Lose","Action":"No-Go","Sham":0,"Color":"blue","trial_type":"pit-trial","trial_index":135,"time_elapsed":656547,"internal_node_id":"0.0-124.0","task_version":"test-retest-t2"},{"Rune":"rune_06_cweord","Hex":"#ffcc3399","Correct":-1,"Choice":-1,"RT":-1,"Accuracy":1,"Outcome":"+10","Keys":[],"TotalKeys":0,"Block":1,"Trial":119,"Robot":2,"Valence":"Win","Action":"No-Go","Sham":0,"Color":"yellow","trial_type":"pit-trial","trial_index":136,"time_elapsed":660553,"internal_node_id":"0.0-125.0","task_version":"test-retest-t2"},{"Rune":"rune_06_berkanan","Hex":"#3366ff99","Correct":32,"Choice":32,"RT":546.0099999327213,"Accuracy":1,"Outcome":"-10","Keys":[2046.7199999839067],"TotalKeys":1,"Block":1,"Trial":120,"Robot":3,"Valence":"Lose","Action":"Go","Sham":1,"Color":"blue","trial_type":"pit-trial","trial_index":137,"time_elapsed":663606,"internal_node_id":"0.0-126.0","task_version":"test-retest-t2"},{"view_history":"[{\"page_index\":0,\"viewing_time\":4491.76499992609},{\"page_index\":1,\"viewing_time\":3143.7349999323487},{\"page_index\":2,\"viewing_time\":1810.9150000382215}]","rt":9446.804999839514,"trial_type":"pit-instructions","trial_index":138,"time_elapsed":673056,"internal_node_id":"0.0-127.0","task_version":"test-retest-t2"},{"Rune":"rune_05_jeran","Hex":"#3366ff99","Correct":-1,"Choice":32,"RT":280.63499997369945,"Accuracy":0,"Outcome":"-10","Keys":[1781.2100001610816],"TotalKeys":1,"Block":2,"Trial":121,"Robot":4,"Valence":"Lose","Action":"No-Go","Sham":0,"Color":"blue","trial_type":"pit-trial","trial_index":139,"time_elapsed":675843,"internal_node_id":"0.0-128.0","task_version":"test-retest-t2"},{"Rune":"rune_05_tiwaz","Hex":"#ffcc3399","Correct":32,"Choice":32,"RT":477.36000013537705,"Accuracy":1,"Outcome":"+10","Keys":[1977.869999827817],"TotalKeys":1,"Block":2,"Trial":122,"Robot":1,"Valence":"Win","Action":"Go","Sham":0,"Color":"yellow","trial_type":"pit-trial","trial_index":140,"time_elapsed":678827,"internal_node_id":"0.0-129.0","task_version":"test-retest-t2"},{"Rune":"rune_05_gebo","Hex":"#ffcc3399","Correct":-1,"Choice":32,"RT":359.69999991357327,"Accuracy":0,"Outcome":"+1","Keys":[1860.4749999940395],"TotalKeys":1,"Block":2,"Trial":123,"Robot":2,"Valence":"Win","Action":"No-Go","Sham":0,"Color":"yellow","trial_type":"pit-trial","trial_index":141,"time_elapsed":681693,"internal_node_id":"0.0-130.0","task_version":"test-retest-t2"},{"Rune":"rune_05_ior","Hex":"#3366ff99","Correct":32,"Choice":32,"RT":494.30999998003244,"Accuracy":1,"Outcome":"-10","Keys":[1994.5549999829382],"TotalKeys":1,"Block":2,"Trial":124,"Robot":3,"Valence":"Lose","Action":"Go","Sham":1,"Color":"blue","trial_type":"pit-trial","trial_index":142,"time_elapsed":684695,"internal_node_id":"0.0-131.0","task_version":"test-retest-t2"},{"Rune":"rune_05_tiwaz","Hex":"#ffcc3399","Correct":32,"Choice":32,"RT":806.1699999962002,"Accuracy":1,"Outcome":"+10","Keys":[2306.6100000869483],"TotalKeys":1,"Block":2,"Trial":125,"Robot":1,"Valence":"Win","Action":"Go","Sham":0,"Color":"yellow","trial_type":"pit-trial","trial_index":143,"time_elapsed":688004,"internal_node_id":"0.0-132.0","task_version":"test-retest-t2"},{"Rune":"rune_05_gebo","Hex":"#ffcc3399","Correct":-1,"Choice":-1,"RT":-1,"Accuracy":1,"Outcome":"+10","Keys":[],"TotalKeys":0,"Block":2,"Trial":126,"Robot":2,"Valence":"Win","Action":"No-Go","Sham":0,"Color":"yellow","trial_type":"pit-trial","trial_index":144,"time_elapsed":692012,"internal_node_id":"0.0-133.0","task_version":"test-retest-t2"},{"Rune":"rune_05_jeran","Hex":"#3366ff99","Correct":-1,"Choice":32,"RT":622.3150000441819,"Accuracy":0,"Outcome":"-10","Keys":[2123.2499999459833],"TotalKeys":1,"Block":2,"Trial":127,"Robot":4,"Valence":"Lose","Action":"No-Go","Sham":0,"Color":"blue","trial_type":"pit-trial","trial_index":145,"time_elapsed":695141,"internal_node_id":"0.0-134.0","task_version":"test-retest-t2"},{"Rune":"rune_05_ior","Hex":"#3366ff99","Correct":32,"Choice":32,"RT":357.97499981708825,"Accuracy":1,"Outcome":"-1","Keys":[1858.5250000469387],"TotalKeys":1,"Block":2,"Trial":128,"Robot":3,"Valence":"Lose","Action":"Go","Sham":0,"Color":"blue","trial_type":"pit-trial","trial_index":146,"time_elapsed":698005,"internal_node_id":"0.0-135.0","task_version":"test-retest-t2"},{"Rune":"rune_05_ior","Hex":"#3366ff99","Correct":32,"Choice":32,"RT":652.1949998568743,"Accuracy":1,"Outcome":"-1","Keys":[2152.2099999710917],"TotalKeys":1,"Block":2,"Trial":129,"Robot":3,"Valence":"Lose","Action":"Go","Sham":0,"Color":"blue","trial_type":"pit-trial","trial_index":147,"time_elapsed":701163,"internal_node_id":"0.0-136.0","task_version":"test-retest-t2"},{"Rune":"rune_05_jeran","Hex":"#3366ff99","Correct":-1,"Choice":-1,"RT":-1,"Accuracy":1,"Outcome":"-1","Keys":[],"TotalKeys":0,"Block":2,"Trial":130,"Robot":4,"Valence":"Lose","Action":"No-Go","Sham":0,"Color":"blue","trial_type":"pit-trial","trial_index":148,"time_elapsed":705168,"internal_node_id":"0.0-137.0","task_version":"test-retest-t2"},{"Rune":"rune_05_tiwaz","Hex":"#ffcc3399","Correct":32,"Choice":32,"RT":399.9550000298768,"Accuracy":1,"Outcome":"+1","Keys":[1900.5800001323223],"TotalKeys":1,"Block":2,"Trial":131,"Robot":1,"Valence":"Win","Action":"Go","Sham":1,"Color":"yellow","trial_type":"pit-trial","trial_index":149,"time_elapsed":708074,"internal_node_id":"0.0-138.0","task_version":"test-retest-t2"},{"Rune":"rune_05_gebo","Hex":"#ffcc3399","Correct":-1,"Choice":-1,"RT":-1,"Accuracy":1,"Outcome":"+1","Keys":[],"TotalKeys":0,"Block":2,"Trial":132,"Robot":2,"Valence":"Win","Action":"No-Go","Sham":1,"Color":"yellow","trial_type":"pit-trial","trial_index":150,"time_elapsed":712079,"internal_node_id":"0.0-139.0","task_version":"test-retest-t2"},{"Rune":"rune_05_tiwaz","Hex":"#ffcc3399","Correct":32,"Choice":32,"RT":481.4450000412762,"Accuracy":1,"Outcome":"+10","Keys":[1981.6199999768287],"TotalKeys":1,"Block":2,"Trial":133,"Robot":1,"Valence":"Win","Action":"Go","Sham":0,"Color":"yellow","trial_type":"pit-trial","trial_index":151,"time_elapsed":715066,"internal_node_id":"0.0-140.0","task_version":"test-retest-t2"},{"Rune":"rune_05_jeran","Hex":"#3366ff99","Correct":-1,"Choice":-1,"RT":-1,"Accuracy":1,"Outcome":"-1","Keys":[],"TotalKeys":0,"Block":2,"Trial":134,"Robot":4,"Valence":"Lose","Action":"No-Go","Sham":0,"Color":"blue","trial_type":"pit-trial","trial_index":152,"time_elapsed":719070,"internal_node_id":"0.0-141.0","task_version":"test-retest-t2"},{"Rune":"rune_05_gebo","Hex":"#ffcc3399","Correct":-1,"Choice":-1,"RT":-1,"Accuracy":1,"Outcome":"+10","Keys":[],"TotalKeys":0,"Block":2,"Trial":135,"Robot":2,"Valence":"Win","Action":"No-Go","Sham":0,"Color":"yellow","trial_type":"pit-trial","trial_index":153,"time_elapsed":723077,"internal_node_id":"0.0-142.0","task_version":"test-retest-t2"},{"Rune":"rune_05_ior","Hex":"#3366ff99","Correct":32,"Choice":32,"RT":519.2900002002716,"Accuracy":1,"Outcome":"-1","Keys":[2019.7499999776483],"TotalKeys":1,"Block":2,"Trial":136,"Robot":3,"Valence":"Lose","Action":"Go","Sham":0,"Color":"blue","trial_type":"pit-trial","trial_index":154,"time_elapsed":726102,"internal_node_id":"0.0-143.0","task_version":"test-retest-t2"},{"Rune":"rune_05_gebo","Hex":"#ffcc3399","Correct":-1,"Choice":-1,"RT":-1,"Accuracy":1,"Outcome":"+10","Keys":[],"TotalKeys":0,"Block":2,"Trial":137,"Robot":2,"Valence":"Win","Action":"No-Go","Sham":0,"Color":"yellow","trial_type":"pit-trial","trial_index":155,"time_elapsed":730109,"internal_node_id":"0.0-144.0","task_version":"test-retest-t2"},{"Rune":"rune_05_tiwaz","Hex":"#ffcc3399","Correct":32,"Choice":32,"RT":405.34499986097217,"Accuracy":1,"Outcome":"+10","Keys":[1905.6649999693036],"TotalKeys":1,"Block":2,"Trial":138,"Robot":1,"Valence":"Win","Action":"Go","Sham":0,"Color":"yellow","trial_type":"pit-trial","trial_index":156,"time_elapsed":733020,"internal_node_id":"0.0-145.0","task_version":"test-retest-t2"},{"Rune":"rune_05_jeran","Hex":"#3366ff99","Correct":-1,"Choice":-1,"RT":-1,"Accuracy":1,"Outcome":"-10","Keys":[],"TotalKeys":0,"Block":2,"Trial":139,"Robot":4,"Valence":"Lose","Action":"No-Go","Sham":1,"Color":"blue","trial_type":"pit-trial","trial_index":157,"time_elapsed":737027,"internal_node_id":"0.0-146.0","task_version":"test-retest-t2"},{"Rune":"rune_05_ior","Hex":"#3366ff99","Correct":32,"Choice":32,"RT":353.0649999156594,"Accuracy":1,"Outcome":"-1","Keys":[1854.340000078082],"TotalKeys":1,"Block":2,"Trial":140,"Robot":3,"Valence":"Lose","Action":"Go","Sham":0,"Color":"blue","trial_type":"pit-trial","trial_index":158,"time_elapsed":739886,"internal_node_id":"0.0-147.0","task_version":"test-retest-t2"},{"Rune":"rune_05_jeran","Hex":"#3366ff99","Correct":-1,"Choice":-1,"RT":-1,"Accuracy":1,"Outcome":"-1","Keys":[],"TotalKeys":0,"Block":2,"Trial":141,"Robot":4,"Valence":"Lose","Action":"No-Go","Sham":0,"Color":"blue","trial_type":"pit-trial","trial_index":159,"time_elapsed":743889,"internal_node_id":"0.0-148.0","task_version":"test-retest-t2"},{"Rune":"rune_05_gebo","Hex":"#ffcc3399","Correct":-1,"Choice":-1,"RT":-1,"Accuracy":1,"Outcome":"+10","Keys":[],"TotalKeys":0,"Block":2,"Trial":142,"Robot":2,"Valence":"Win","Action":"No-Go","Sham":0,"Color":"yellow","trial_type":"pit-trial","trial_index":160,"time_elapsed":747895,"internal_node_id":"0.0-149.0","task_version":"test-retest-t2"},{"Rune":"rune_05_ior","Hex":"#3366ff99","Correct":32,"Choice":32,"RT":399.40500003285706,"Accuracy":1,"Outcome":"-10","Keys":[1899.5899998117238],"TotalKeys":1,"Block":2,"Trial":143,"Robot":3,"Valence":"Lose","Action":"Go","Sham":1,"Color":"blue","trial_type":"pit-trial","trial_index":161,"time_elapsed":750798,"internal_node_id":"0.0-150.0","task_version":"test-retest-t2"},{"Rune":"rune_05_tiwaz","Hex":"#ffcc3399","Correct":32,"Choice":32,"RT":807.9549998510629,"Accuracy":1,"Outcome":"+1","Keys":[2309.0500000398606],"TotalKeys":1,"Block":2,"Trial":144,"Robot":1,"Valence":"Win","Action":"Go","Sham":1,"Color":"yellow","trial_type":"pit-trial","trial_index":162,"time_elapsed":754113,"internal_node_id":"0.0-151.0","task_version":"test-retest-t2"},{"Rune":"rune_05_gebo","Hex":"#ffcc3399","Correct":-1,"Choice":-1,"RT":-1,"Accuracy":1,"Outcome":"+10","Keys":[],"TotalKeys":0,"Block":2,"Trial":145,"Robot":2,"Valence":"Win","Action":"No-Go","Sham":0,"Color":"yellow","trial_type":"pit-trial","trial_index":163,"time_elapsed":758120,"internal_node_id":"0.0-152.0","task_version":"test-retest-t2"},{"Rune":"rune_05_jeran","Hex":"#3366ff99","Correct":-1,"Choice":-1,"RT":-1,"Accuracy":1,"Outcome":"-1","Keys":[],"TotalKeys":0,"Block":2,"Trial":146,"Robot":4,"Valence":"Lose","Action":"No-Go","Sham":0,"Color":"blue","trial_type":"pit-trial","trial_index":164,"time_elapsed":762127,"internal_node_id":"0.0-153.0","task_version":"test-retest-t2"},{"Rune":"rune_05_tiwaz","Hex":"#ffcc3399","Correct":32,"Choice":32,"RT":395.08000016212463,"Accuracy":1,"Outcome":"+10","Keys":[1895.9899998735636],"TotalKeys":1,"Block":2,"Trial":147,"Robot":1,"Valence":"Win","Action":"Go","Sham":0,"Color":"yellow","trial_type":"pit-trial","trial_index":165,"time_elapsed":765028,"internal_node_id":"0.0-154.0","task_version":"test-retest-t2"},{"Rune":"rune_05_ior","Hex":"#3366ff99","Correct":32,"Choice":32,"RT":349.845000077039,"Accuracy":1,"Outcome":"-1","Keys":[1850.770000135526],"TotalKeys":1,"Block":2,"Trial":148,"Robot":3,"Valence":"Lose","Action":"Go","Sham":0,"Color":"blue","trial_type":"pit-trial","trial_index":166,"time_elapsed":767884,"internal_node_id":"0.0-155.0","task_version":"test-retest-t2"},{"Rune":"rune_05_tiwaz","Hex":"#ffcc3399","Correct":32,"Choice":32,"RT":400.0099999830127,"Accuracy":1,"Outcome":"+10","Keys":[1901.2649999931455],"TotalKeys":1,"Block":2,"Trial":149,"Robot":1,"Valence":"Win","Action":"Go","Sham":0,"Color":"yellow","trial_type":"pit-trial","trial_index":167,"time_elapsed":770791,"internal_node_id":"0.0-156.0","task_version":"test-retest-t2"},{"Rune":"rune_05_ior","Hex":"#3366ff99","Correct":32,"Choice":32,"RT":473.3899999409914,"Accuracy":1,"Outcome":"-1","Keys":[1973.5000000800937],"TotalKeys":1,"Block":2,"Trial":150,"Robot":3,"Valence":"Lose","Action":"Go","Sham":0,"Color":"blue","trial_type":"pit-trial","trial_index":168,"time_elapsed":773770,"internal_node_id":"0.0-157.0","task_version":"test-retest-t2"},{"Rune":"rune_05_gebo","Hex":"#ffcc3399","Correct":-1,"Choice":-1,"RT":-1,"Accuracy":1,"Outcome":"+10","Keys":[],"TotalKeys":0,"Block":2,"Trial":151,"Robot":2,"Valence":"Win","Action":"No-Go","Sham":0,"Color":"yellow","trial_type":"pit-trial","trial_index":169,"time_elapsed":777776,"internal_node_id":"0.0-158.0","task_version":"test-retest-t2"},{"Rune":"rune_05_jeran","Hex":"#3366ff99","Correct":-1,"Choice":-1,"RT":-1,"Accuracy":1,"Outcome":"-1","Keys":[],"TotalKeys":0,"Block":2,"Trial":152,"Robot":4,"Valence":"Lose","Action":"No-Go","Sham":0,"Color":"blue","trial_type":"pit-trial","trial_index":170,"time_elapsed":781781,"internal_node_id":"0.0-159.0","task_version":"test-retest-t2"},{"Rune":"rune_05_jeran","Hex":"#3366ff99","Correct":-1,"Choice":-1,"RT":-1,"Accuracy":1,"Outcome":"-10","Keys":[],"TotalKeys":0,"Block":2,"Trial":153,"Robot":4,"Valence":"Lose","Action":"No-Go","Sham":1,"Color":"blue","trial_type":"pit-trial","trial_index":171,"time_elapsed":785788,"internal_node_id":"0.0-160.0","task_version":"test-retest-t2"},{"Rune":"rune_05_gebo","Hex":"#ffcc3399","Correct":-1,"Choice":-1,"RT":-1,"Accuracy":1,"Outcome":"+10","Keys":[],"TotalKeys":0,"Block":2,"Trial":154,"Robot":2,"Valence":"Win","Action":"No-Go","Sham":0,"Color":"yellow","trial_type":"pit-trial","trial_index":172,"time_elapsed":789793,"internal_node_id":"0.0-161.0","task_version":"test-retest-t2"},{"Rune":"rune_05_tiwaz","Hex":"#ffcc3399","Correct":32,"Choice":32,"RT":624.6599999722093,"Accuracy":1,"Outcome":"+10","Keys":[2124.850000021979],"TotalKeys":1,"Block":2,"Trial":155,"Robot":1,"Valence":"Win","Action":"Go","Sham":0,"Color":"yellow","trial_type":"pit-trial","trial_index":173,"time_elapsed":792921,"internal_node_id":"0.0-162.0","task_version":"test-retest-t2"},{"Rune":"rune_05_ior","Hex":"#3366ff99","Correct":32,"Choice":32,"RT":366.04500003159046,"Accuracy":1,"Outcome":"-1","Keys":[1866.3250000681728],"TotalKeys":1,"Block":2,"Trial":156,"Robot":3,"Valence":"Lose","Action":"Go","Sham":0,"Color":"blue","trial_type":"pit-trial","trial_index":174,"time_elapsed":795793,"internal_node_id":"0.0-163.0","task_version":"test-retest-t2"},{"Rune":"rune_05_jeran","Hex":"#3366ff99","Correct":-1,"Choice":-1,"RT":-1,"Accuracy":1,"Outcome":"-1","Keys":[],"TotalKeys":0,"Block":2,"Trial":157,"Robot":4,"Valence":"Lose","Action":"No-Go","Sham":0,"Color":"blue","trial_type":"pit-trial","trial_index":175,"time_elapsed":799798,"internal_node_id":"0.0-164.0","task_version":"test-retest-t2"},{"Rune":"rune_05_ior","Hex":"#3366ff99","Correct":32,"Choice":32,"RT":556.8600001279265,"Accuracy":1,"Outcome":"-1","Keys":[2057.9899998847395],"TotalKeys":1,"Block":2,"Trial":158,"Robot":3,"Valence":"Lose","Action":"Go","Sham":0,"Color":"blue","trial_type":"pit-trial","trial_index":176,"time_elapsed":802862,"internal_node_id":"0.0-165.0","task_version":"test-retest-t2"},{"Rune":"rune_05_gebo","Hex":"#ffcc3399","Correct":-1,"Choice":-1,"RT":-1,"Accuracy":1,"Outcome":"+1","Keys":[],"TotalKeys":0,"Block":2,"Trial":159,"Robot":2,"Valence":"Win","Action":"No-Go","Sham":1,"Color":"yellow","trial_type":"pit-trial","trial_index":177,"time_elapsed":806869,"internal_node_id":"0.0-166.0","task_version":"test-retest-t2"},{"Rune":"rune_05_tiwaz","Hex":"#ffcc3399","Correct":32,"Choice":32,"RT":519.1150000318885,"Accuracy":1,"Outcome":"+10","Keys":[2019.635000033304],"TotalKeys":1,"Block":2,"Trial":160,"Robot":1,"Valence":"Win","Action":"Go","Sham":0,"Color":"yellow","trial_type":"pit-trial","trial_index":178,"time_elapsed":809894,"internal_node_id":"0.0-167.0","task_version":"test-retest-t2"},{"Rune":"rune_05_jeran","Hex":"#3366ff99","Correct":-1,"Choice":-1,"RT":-1,"Accuracy":1,"Outcome":"-1","Keys":[],"TotalKeys":0,"Block":2,"Trial":161,"Robot":4,"Valence":"Lose","Action":"No-Go","Sham":0,"Color":"blue","trial_type":"pit-trial","trial_index":179,"time_elapsed":813898,"internal_node_id":"0.0-168.0","task_version":"test-retest-t2"},{"Rune":"rune_05_gebo","Hex":"#ffcc3399","Correct":-1,"Choice":-1,"RT":-1,"Accuracy":1,"Outcome":"+10","Keys":[],"TotalKeys":0,"Block":2,"Trial":162,"Robot":2,"Valence":"Win","Action":"No-Go","Sham":0,"Color":"yellow","trial_type":"pit-trial","trial_index":180,"time_elapsed":817902,"internal_node_id":"0.0-169.0","task_version":"test-retest-t2"},{"Rune":"rune_05_ior","Hex":"#3366ff99","Correct":32,"Choice":32,"RT":502.15999991633,"Accuracy":1,"Outcome":"-1","Keys":[2003.7400000728667],"TotalKeys":1,"Block":2,"Trial":163,"Robot":3,"Valence":"Lose","Action":"Go","Sham":0,"Color":"blue","trial_type":"pit-trial","trial_index":181,"time_elapsed":820909,"internal_node_id":"0.0-170.0","task_version":"test-retest-t2"},{"Rune":"rune_05_tiwaz","Hex":"#ffcc3399","Correct":32,"Choice":32,"RT":650.7550000678748,"Accuracy":1,"Outcome":"+10","Keys":[2151.795000070706],"TotalKeys":1,"Block":2,"Trial":164,"Robot":1,"Valence":"Win","Action":"Go","Sham":0,"Color":"yellow","trial_type":"pit-trial","trial_index":182,"time_elapsed":824065,"internal_node_id":"0.0-171.0","task_version":"test-retest-t2"},{"Rune":"rune_05_jeran","Hex":"#3366ff99","Correct":-1,"Choice":-1,"RT":-1,"Accuracy":1,"Outcome":"-10","Keys":[],"TotalKeys":0,"Block":2,"Trial":165,"Robot":4,"Valence":"Lose","Action":"No-Go","Sham":1,"Color":"blue","trial_type":"pit-trial","trial_index":183,"time_elapsed":828071,"internal_node_id":"0.0-172.0","task_version":"test-retest-t2"},{"Rune":"rune_05_ior","Hex":"#3366ff99","Correct":32,"Choice":32,"RT":524.3750000372529,"Accuracy":1,"Outcome":"-1","Keys":[2025.4200000781566],"TotalKeys":1,"Block":2,"Trial":166,"Robot":3,"Valence":"Lose","Action":"Go","Sham":0,"Color":"blue","trial_type":"pit-trial","trial_index":184,"time_elapsed":831102,"internal_node_id":"0.0-173.0","task_version":"test-retest-t2"},{"Rune":"rune_05_tiwaz","Hex":"#ffcc3399","Correct":32,"Choice":32,"RT":519.8650001548231,"Accuracy":1,"Outcome":"+1","Keys":[2020.8499999716878],"TotalKeys":1,"Block":2,"Trial":167,"Robot":1,"Valence":"Win","Action":"Go","Sham":1,"Color":"yellow","trial_type":"pit-trial","trial_index":185,"time_elapsed":834131,"internal_node_id":"0.0-174.0","task_version":"test-retest-t2"},{"Rune":"rune_05_gebo","Hex":"#ffcc3399","Correct":-1,"Choice":-1,"RT":-1,"Accuracy":1,"Outcome":"+10","Keys":[],"TotalKeys":0,"Block":2,"Trial":168,"Robot":2,"Valence":"Win","Action":"No-Go","Sham":0,"Color":"yellow","trial_type":"pit-trial","trial_index":186,"time_elapsed":838138,"internal_node_id":"0.0-175.0","task_version":"test-retest-t2"},{"Rune":"rune_05_gebo","Hex":"#ffcc3399","Correct":-1,"Choice":-1,"RT":-1,"Accuracy":1,"Outcome":"+10","Keys":[],"TotalKeys":0,"Block":2,"Trial":169,"Robot":2,"Valence":"Win","Action":"No-Go","Sham":0,"Color":"yellow","trial_type":"pit-trial","trial_index":187,"time_elapsed":842144,"internal_node_id":"0.0-176.0","task_version":"test-retest-t2"},{"Rune":"rune_05_ior","Hex":"#3366ff99","Correct":32,"Choice":32,"RT":530.8799999766052,"Accuracy":1,"Outcome":"-10","Keys":[2031.2699999194592],"TotalKeys":1,"Block":2,"Trial":170,"Robot":3,"Valence":"Lose","Action":"Go","Sham":1,"Color":"blue","trial_type":"pit-trial","trial_index":188,"time_elapsed":845182,"internal_node_id":"0.0-177.0","task_version":"test-retest-t2"},{"Rune":"rune_05_jeran","Hex":"#3366ff99","Correct":-1,"Choice":-1,"RT":-1,"Accuracy":1,"Outcome":"-1","Keys":[],"TotalKeys":0,"Block":2,"Trial":171,"Robot":4,"Valence":"Lose","Action":"No-Go","Sham":0,"Color":"blue","trial_type":"pit-trial","trial_index":189,"time_elapsed":849190,"internal_node_id":"0.0-178.0","task_version":"test-retest-t2"},{"Rune":"rune_05_tiwaz","Hex":"#ffcc3399","Correct":32,"Choice":32,"RT":502.3600000422448,"Accuracy":1,"Outcome":"+10","Keys":[2002.9299999587238],"TotalKeys":1,"Block":2,"Trial":172,"Robot":1,"Valence":"Win","Action":"Go","Sham":0,"Color":"yellow","trial_type":"pit-trial","trial_index":190,"time_elapsed":852199,"internal_node_id":"0.0-179.0","task_version":"test-retest-t2"},{"Rune":"rune_05_gebo","Hex":"#ffcc3399","Correct":-1,"Choice":-1,"RT":-1,"Accuracy":1,"Outcome":"+10","Keys":[],"TotalKeys":0,"Block":2,"Trial":173,"Robot":2,"Valence":"Win","Action":"No-Go","Sham":0,"Color":"yellow","trial_type":"pit-trial","trial_index":191,"time_elapsed":856204,"internal_node_id":"0.0-180.0","task_version":"test-retest-t2"},{"Rune":"rune_05_jeran","Hex":"#3366ff99","Correct":-1,"Choice":-1,"RT":-1,"Accuracy":1,"Outcome":"-1","Keys":[],"TotalKeys":0,"Block":2,"Trial":174,"Robot":4,"Valence":"Lose","Action":"No-Go","Sham":0,"Color":"blue","trial_type":"pit-trial","trial_index":192,"time_elapsed":860211,"internal_node_id":"0.0-181.0","task_version":"test-retest-t2"},{"Rune":"rune_05_tiwaz","Hex":"#ffcc3399","Correct":32,"Choice":32,"RT":552.4199998471886,"Accuracy":1,"Outcome":"+10","Keys":[2053.254999918863],"TotalKeys":1,"Block":2,"Trial":175,"Robot":1,"Valence":"Win","Action":"Go","Sham":0,"Color":"yellow","trial_type":"pit-trial","trial_index":193,"time_elapsed":863270,"internal_node_id":"0.0-182.0","task_version":"test-retest-t2"},{"Rune":"rune_05_ior","Hex":"#3366ff99","Correct":32,"Choice":32,"RT":647.2349998075515,"Accuracy":1,"Outcome":"-1","Keys":[2147.624999983236],"TotalKeys":1,"Block":2,"Trial":176,"Robot":3,"Valence":"Lose","Action":"Go","Sham":0,"Color":"blue","trial_type":"pit-trial","trial_index":194,"time_elapsed":866423,"internal_node_id":"0.0-183.0","task_version":"test-retest-t2"},{"Rune":"rune_05_jeran","Hex":"#3366ff99","Correct":-1,"Choice":-1,"RT":-1,"Accuracy":1,"Outcome":"-1","Keys":[],"TotalKeys":0,"Block":2,"Trial":177,"Robot":4,"Valence":"Lose","Action":"No-Go","Sham":0,"Color":"blue","trial_type":"pit-trial","trial_index":195,"time_elapsed":870429,"internal_node_id":"0.0-184.0","task_version":"test-retest-t2"},{"Rune":"rune_05_ior","Hex":"#3366ff99","Correct":32,"Choice":32,"RT":488.9349997974932,"Accuracy":1,"Outcome":"-1","Keys":[1989.5399999804795],"TotalKeys":1,"Block":2,"Trial":178,"Robot":3,"Valence":"Lose","Action":"Go","Sham":0,"Color":"blue","trial_type":"pit-trial","trial_index":196,"time_elapsed":873425,"internal_node_id":"0.0-185.0","task_version":"test-retest-t2"},{"Rune":"rune_05_gebo","Hex":"#ffcc3399","Correct":-1,"Choice":-1,"RT":-1,"Accuracy":1,"Outcome":"+1","Keys":[],"TotalKeys":0,"Block":2,"Trial":179,"Robot":2,"Valence":"Win","Action":"No-Go","Sham":1,"Color":"yellow","trial_type":"pit-trial","trial_index":197,"time_elapsed":877433,"internal_node_id":"0.0-186.0","task_version":"test-retest-t2"},{"Rune":"rune_05_tiwaz","Hex":"#ffcc3399","Correct":32,"Choice":32,"RT":385.8000000473112,"Accuracy":1,"Outcome":"+10","Keys":[1886.7949999403208],"TotalKeys":1,"Block":2,"Trial":180,"Robot":1,"Valence":"Win","Action":"Go","Sham":0,"Color":"yellow","trial_type":"pit-trial","trial_index":198,"time_elapsed":880325,"internal_node_id":"0.0-187.0","task_version":"test-retest-t2"},{"view_history":"[{\"page_index\":0,\"viewing_time\":1735.355000011623},{\"page_index\":1,\"viewing_time\":1161.019999999553}]","rt":2896.8249999452382,"trial_type":"pit-instructions","trial_index":199,"time_elapsed":883225,"internal_node_id":"0.0-188.0","task_version":"test-retest-t2"},{"Rune":"rune_05_tiwaz","Hex":"#ffcc3399","Correct":32,"Choice":32,"RT":457.4049999937415,"Accuracy":1,"Outcome":"+1","Keys":[1958.3149999380112],"TotalKeys":1,"Block":2,"Trial":181,"Robot":1,"Valence":"Win","Action":"Go","Sham":1,"Color":"yellow","trial_type":"pit-trial","trial_index":200,"time_elapsed":886189,"internal_node_id":"0.0-189.0","task_version":"test-retest-t2"},{"Rune":"rune_05_ior","Hex":"#3366ff99","Correct":32,"Choice":32,"RT":443.35999991744757,"Accuracy":1,"Outcome":"-10","Keys":[1944.1550001502037],"TotalKeys":1,"Block":2,"Trial":182,"Robot":3,"Valence":"Lose","Action":"Go","Sham":1,"Color":"blue","trial_type":"pit-trial","trial_index":201,"time_elapsed":889139,"internal_node_id":"0.0-190.0","task_version":"test-retest-t2"},{"Rune":"rune_05_gebo","Hex":"#ffcc3399","Correct":-1,"Choice":-1,"RT":-1,"Accuracy":1,"Outcome":"+10","Keys":[],"TotalKeys":0,"Block":2,"Trial":183,"Robot":2,"Valence":"Win","Action":"No-Go","Sham":0,"Color":"yellow","trial_type":"pit-trial","trial_index":202,"time_elapsed":893146,"internal_node_id":"0.0-191.0","task_version":"test-retest-t2"},{"Rune":"rune_05_jeran","Hex":"#3366ff99","Correct":-1,"Choice":-1,"RT":-1,"Accuracy":1,"Outcome":"-10","Keys":[],"TotalKeys":0,"Block":2,"Trial":184,"Robot":4,"Valence":"Lose","Action":"No-Go","Sham":1,"Color":"blue","trial_type":"pit-trial","trial_index":203,"time_elapsed":897153,"internal_node_id":"0.0-192.0","task_version":"test-retest-t2"},{"Rune":"rune_05_jeran","Hex":"#3366ff99","Correct":-1,"Choice":-1,"RT":-1,"Accuracy":1,"Outcome":"-1","Keys":[],"TotalKeys":0,"Block":2,"Trial":185,"Robot":4,"Valence":"Lose","Action":"No-Go","Sham":0,"Color":"blue","trial_type":"pit-trial","trial_index":204,"time_elapsed":901159,"internal_node_id":"0.0-193.0","task_version":"test-retest-t2"},{"Rune":"rune_05_ior","Hex":"#3366ff99","Correct":32,"Choice":32,"RT":629.9000000581145,"Accuracy":1,"Outcome":"-1","Keys":[2130.3950001019984],"TotalKeys":1,"Block":2,"Trial":186,"Robot":3,"Valence":"Lose","Action":"Go","Sham":0,"Color":"blue","trial_type":"pit-trial","trial_index":205,"time_elapsed":904295,"internal_node_id":"0.0-194.0","task_version":"test-retest-t2"},{"Rune":"rune_05_gebo","Hex":"#ffcc3399","Correct":-1,"Choice":-1,"RT":-1,"Accuracy":1,"Outcome":"+1","Keys":[],"TotalKeys":0,"Block":2,"Trial":187,"Robot":2,"Valence":"Win","Action":"No-Go","Sham":1,"Color":"yellow","trial_type":"pit-trial","trial_index":206,"time_elapsed":908301,"internal_node_id":"0.0-195.0","task_version":"test-retest-t2"},{"Rune":"rune_05_tiwaz","Hex":"#ffcc3399","Correct":32,"Choice":32,"RT":358.5200000088662,"Accuracy":1,"Outcome":"+10","Keys":[1858.8250000029802],"TotalKeys":1,"Block":2,"Trial":188,"Robot":1,"Valence":"Win","Action":"Go","Sham":0,"Color":"yellow","trial_type":"pit-trial","trial_index":207,"time_elapsed":911165,"internal_node_id":"0.0-196.0","task_version":"test-retest-t2"},{"Rune":"rune_05_gebo","Hex":"#ffcc3399","Correct":-1,"Choice":-1,"RT":-1,"Accuracy":1,"Outcome":"+10","Keys":[],"TotalKeys":0,"Block":2,"Trial":189,"Robot":2,"Valence":"Win","Action":"No-Go","Sham":0,"Color":"yellow","trial_type":"pit-trial","trial_index":208,"time_elapsed":915172,"internal_node_id":"0.0-197.0","task_version":"test-retest-t2"},{"Rune":"rune_05_tiwaz","Hex":"#ffcc3399","Correct":32,"Choice":32,"RT":573.1899999082088,"Accuracy":1,"Outcome":"+10","Keys":[2074.9099999666214],"TotalKeys":1,"Block":2,"Trial":190,"Robot":1,"Valence":"Win","Action":"Go","Sham":0,"Color":"yellow","trial_type":"pit-trial","trial_index":209,"time_elapsed":918253,"internal_node_id":"0.0-198.0","task_version":"test-retest-t2"},{"Rune":"rune_05_jeran","Hex":"#3366ff99","Correct":-1,"Choice":-1,"RT":-1,"Accuracy":1,"Outcome":"-1","Keys":[],"TotalKeys":0,"Block":2,"Trial":191,"Robot":4,"Valence":"Lose","Action":"No-Go","Sham":0,"Color":"blue","trial_type":"pit-trial","trial_index":210,"time_elapsed":922260,"internal_node_id":"0.0-199.0","task_version":"test-retest-t2"},{"Rune":"rune_05_ior","Hex":"#3366ff99","Correct":32,"Choice":32,"RT":512.0549998246133,"Accuracy":1,"Outcome":"-1","Keys":[2012.8150000236928],"TotalKeys":1,"Block":2,"Trial":192,"Robot":3,"Valence":"Lose","Action":"Go","Sham":0,"Color":"blue","trial_type":"pit-trial","trial_index":211,"time_elapsed":925280,"internal_node_id":"0.0-200.0","task_version":"test-retest-t2"},{"Rune":"rune_05_jeran","Hex":"#3366ff99","Correct":-1,"Choice":-1,"RT":-1,"Accuracy":1,"Outcome":"-1","Keys":[],"TotalKeys":0,"Block":2,"Trial":193,"Robot":4,"Valence":"Lose","Action":"No-Go","Sham":0,"Color":"blue","trial_type":"pit-trial","trial_index":212,"time_elapsed":929286,"internal_node_id":"0.0-201.0","task_version":"test-retest-t2"},{"Rune":"rune_05_tiwaz","Hex":"#ffcc3399","Correct":32,"Choice":32,"RT":481.24500014819205,"Accuracy":1,"Outcome":"+10","Keys":[1981.9350000470877],"TotalKeys":1,"Block":2,"Trial":194,"Robot":1,"Valence":"Win","Action":"Go","Sham":0,"Color":"yellow","trial_type":"pit-trial","trial_index":213,"time_elapsed":932271,"internal_node_id":"0.0-202.0","task_version":"test-retest-t2"},{"Rune":"rune_05_ior","Hex":"#3366ff99","Correct":32,"Choice":32,"RT":569.3800000008196,"Accuracy":1,"Outcome":"-1","Keys":[2069.7099999524653],"TotalKeys":1,"Block":2,"Trial":195,"Robot":3,"Valence":"Lose","Action":"Go","Sham":0,"Color":"blue","trial_type":"pit-trial","trial_index":214,"time_elapsed":935344,"internal_node_id":"0.0-203.0","task_version":"test-retest-t2"},{"Rune":"rune_05_gebo","Hex":"#ffcc3399","Correct":-1,"Choice":-1,"RT":-1,"Accuracy":1,"Outcome":"+10","Keys":[],"TotalKeys":0,"Block":2,"Trial":196,"Robot":2,"Valence":"Win","Action":"No-Go","Sham":0,"Color":"yellow","trial_type":"pit-trial","trial_index":215,"time_elapsed":939349,"internal_node_id":"0.0-204.0","task_version":"test-retest-t2"},{"Rune":"rune_05_ior","Hex":"#3366ff99","Correct":32,"Choice":32,"RT":499.50999999418855,"Accuracy":1,"Outcome":"-1","Keys":[2001.9000000320375],"TotalKeys":1,"Block":2,"Trial":197,"Robot":3,"Valence":"Lose","Action":"Go","Sham":0,"Color":"blue","trial_type":"pit-trial","trial_index":216,"time_elapsed":942355,"internal_node_id":"0.0-205.0","task_version":"test-retest-t2"},{"Rune":"rune_05_jeran","Hex":"#3366ff99","Correct":-1,"Choice":-1,"RT":-1,"Accuracy":1,"Outcome":"-1","Keys":[],"TotalKeys":0,"Block":2,"Trial":198,"Robot":4,"Valence":"Lose","Action":"No-Go","Sham":0,"Color":"blue","trial_type":"pit-trial","trial_index":217,"time_elapsed":946362,"internal_node_id":"0.0-206.0","task_version":"test-retest-t2"},{"Rune":"rune_05_tiwaz","Hex":"#ffcc3399","Correct":32,"Choice":32,"RT":555.6199999991804,"Accuracy":1,"Outcome":"+10","Keys":[2056.5899999346584],"TotalKeys":1,"Block":2,"Trial":199,"Robot":1,"Valence":"Win","Action":"Go","Sham":0,"Color":"yellow","trial_type":"pit-trial","trial_index":218,"time_elapsed":949423,"internal_node_id":"0.0-207.0","task_version":"test-retest-t2"},{"Rune":"rune_05_gebo","Hex":"#ffcc3399","Correct":-1,"Choice":-1,"RT":-1,"Accuracy":1,"Outcome":"+10","Keys":[],"TotalKeys":0,"Block":2,"Trial":200,"Robot":2,"Valence":"Win","Action":"No-Go","Sham":0,"Color":"yellow","trial_type":"pit-trial","trial_index":219,"time_elapsed":953430,"internal_node_id":"0.0-208.0","task_version":"test-retest-t2"},{"Rune":"rune_05_gebo","Hex":"#ffcc3399","Correct":-1,"Choice":-1,"RT":-1,"Accuracy":1,"Outcome":"+10","Keys":[],"TotalKeys":0,"Block":2,"Trial":201,"Robot":2,"Valence":"Win","Action":"No-Go","Sham":0,"Color":"yellow","trial_type":"pit-trial","trial_index":220,"time_elapsed":957437,"internal_node_id":"0.0-209.0","task_version":"test-retest-t2"},{"Rune":"rune_05_tiwaz","Hex":"#ffcc3399","Correct":32,"Choice":32,"RT":644.4700001738966,"Accuracy":1,"Outcome":"+1","Keys":[2145.405000075698],"TotalKeys":1,"Block":2,"Trial":202,"Robot":1,"Valence":"Win","Action":"Go","Sham":1,"Color":"yellow","trial_type":"pit-trial","trial_index":221,"time_elapsed":960587,"internal_node_id":"0.0-210.0","task_version":"test-retest-t2"},{"Rune":"rune_05_ior","Hex":"#3366ff99","Correct":32,"Choice":32,"RT":593.5249999165535,"Accuracy":1,"Outcome":"-10","Keys":[2094.340000068769],"TotalKeys":1,"Block":2,"Trial":203,"Robot":3,"Valence":"Lose","Action":"Go","Sham":1,"Color":"blue","trial_type":"pit-trial","trial_index":222,"time_elapsed":963689,"internal_node_id":"0.0-211.0","task_version":"test-retest-t2"},{"Rune":"rune_05_jeran","Hex":"#3366ff99","Correct":-1,"Choice":-1,"RT":-1,"Accuracy":1,"Outcome":"-10","Keys":[],"TotalKeys":0,"Block":2,"Trial":204,"Robot":4,"Valence":"Lose","Action":"No-Go","Sham":1,"Color":"blue","trial_type":"pit-trial","trial_index":223,"time_elapsed":967696,"internal_node_id":"0.0-212.0","task_version":"test-retest-t2"},{"Rune":"rune_05_tiwaz","Hex":"#ffcc3399","Correct":32,"Choice":32,"RT":418.70500007644296,"Accuracy":1,"Outcome":"+10","Keys":[1918.9349999651313],"TotalKeys":1,"Block":2,"Trial":205,"Robot":1,"Valence":"Win","Action":"Go","Sham":0,"Color":"yellow","trial_type":"pit-trial","trial_index":224,"time_elapsed":970619,"internal_node_id":"0.0-213.0","task_version":"test-retest-t2"},{"Rune":"rune_05_jeran","Hex":"#3366ff99","Correct":-1,"Choice":-1,"RT":-1,"Accuracy":1,"Outcome":"-1","Keys":[],"TotalKeys":0,"Block":2,"Trial":206,"Robot":4,"Valence":"Lose","Action":"No-Go","Sham":0,"Color":"blue","trial_type":"pit-trial","trial_index":225,"time_elapsed":974626,"internal_node_id":"0.0-214.0","task_version":"test-retest-t2"},{"Rune":"rune_05_ior","Hex":"#3366ff99","Correct":32,"Choice":32,"RT":586.1200001090765,"Accuracy":1,"Outcome":"-1","Keys":[2086.3850000314415],"TotalKeys":1,"Block":2,"Trial":207,"Robot":3,"Valence":"Lose","Action":"Go","Sham":0,"Color":"blue","trial_type":"pit-trial","trial_index":226,"time_elapsed":977718,"internal_node_id":"0.0-215.0","task_version":"test-retest-t2"},{"Rune":"rune_05_gebo","Hex":"#ffcc3399","Correct":-1,"Choice":-1,"RT":-1,"Accuracy":1,"Outcome":"+10","Keys":[],"TotalKeys":0,"Block":2,"Trial":208,"Robot":2,"Valence":"Win","Action":"No-Go","Sham":0,"Color":"yellow","trial_type":"pit-trial","trial_index":227,"time_elapsed":981724,"internal_node_id":"0.0-216.0","task_version":"test-retest-t2"},{"Rune":"rune_05_tiwaz","Hex":"#ffcc3399","Correct":32,"Choice":32,"RT":352.80500003136694,"Accuracy":1,"Outcome":"+10","Keys":[1852.9700001236051],"TotalKeys":1,"Block":2,"Trial":209,"Robot":1,"Valence":"Win","Action":"Go","Sham":0,"Color":"yellow","trial_type":"pit-trial","trial_index":228,"time_elapsed":984582,"internal_node_id":"0.0-217.0","task_version":"test-retest-t2"},{"Rune":"rune_05_jeran","Hex":"#3366ff99","Correct":-1,"Choice":-1,"RT":-1,"Accuracy":1,"Outcome":"-1","Keys":[],"TotalKeys":0,"Block":2,"Trial":210,"Robot":4,"Valence":"Lose","Action":"No-Go","Sham":0,"Color":"blue","trial_type":"pit-trial","trial_index":229,"time_elapsed":988589,"internal_node_id":"0.0-218.0","task_version":"test-retest-t2"},{"Rune":"rune_05_gebo","Hex":"#ffcc3399","Correct":-1,"Choice":-1,"RT":-1,"Accuracy":1,"Outcome":"+1","Keys":[],"TotalKeys":0,"Block":2,"Trial":211,"Robot":2,"Valence":"Win","Action":"No-Go","Sham":1,"Color":"yellow","trial_type":"pit-trial","trial_index":230,"time_elapsed":992594,"internal_node_id":"0.0-219.0","task_version":"test-retest-t2"},{"Rune":"rune_05_ior","Hex":"#3366ff99","Correct":32,"Choice":32,"RT":552.6099998969585,"Accuracy":1,"Outcome":"-1","Keys":[2053.5750000271946],"TotalKeys":1,"Block":2,"Trial":212,"Robot":3,"Valence":"Lose","Action":"Go","Sham":0,"Color":"blue","trial_type":"pit-trial","trial_index":231,"time_elapsed":995653,"internal_node_id":"0.0-220.0","task_version":"test-retest-t2"},{"Rune":"rune_05_gebo","Hex":"#ffcc3399","Correct":-1,"Choice":-1,"RT":-1,"Accuracy":1,"Outcome":"+10","Keys":[],"TotalKeys":0,"Block":2,"Trial":213,"Robot":2,"Valence":"Win","Action":"No-Go","Sham":0,"Color":"yellow","trial_type":"pit-trial","trial_index":232,"time_elapsed":999659,"internal_node_id":"0.0-221.0","task_version":"test-retest-t2"},{"Rune":"rune_05_ior","Hex":"#3366ff99","Correct":32,"Choice":32,"RT":518.0000001564622,"Accuracy":1,"Outcome":"-1","Keys":[2018.8250001519918],"TotalKeys":1,"Block":2,"Trial":214,"Robot":3,"Valence":"Lose","Action":"Go","Sham":0,"Color":"blue","trial_type":"pit-trial","trial_index":233,"time_elapsed":1002684,"internal_node_id":"0.0-222.0","task_version":"test-retest-t2"},{"Rune":"rune_05_jeran","Hex":"#3366ff99","Correct":-1,"Choice":-1,"RT":-1,"Accuracy":1,"Outcome":"-1","Keys":[],"TotalKeys":0,"Block":2,"Trial":215,"Robot":4,"Valence":"Lose","Action":"No-Go","Sham":0,"Color":"blue","trial_type":"pit-trial","trial_index":234,"time_elapsed":1006692,"internal_node_id":"0.0-223.0","task_version":"test-retest-t2"},{"Rune":"rune_05_tiwaz","Hex":"#ffcc3399","Correct":32,"Choice":32,"RT":324.2999999783933,"Accuracy":1,"Outcome":"+10","Keys":[1825.1300000119954],"TotalKeys":1,"Block":2,"Trial":216,"Robot":1,"Valence":"Win","Action":"Go","Sham":0,"Color":"yellow","trial_type":"pit-trial","trial_index":235,"time_elapsed":1009522,"internal_node_id":"0.0-224.0","task_version":"test-retest-t2"},{"Rune":"rune_05_ior","Hex":"#3366ff99","Correct":32,"Choice":32,"RT":466.14999999292195,"Accuracy":1,"Outcome":"-1","Keys":[1966.9650001451373],"TotalKeys":1,"Block":2,"Trial":217,"Robot":3,"Valence":"Lose","Action":"Go","Sham":0,"Color":"blue","trial_type":"pit-trial","trial_index":236,"time_elapsed":1012493,"internal_node_id":"0.0-225.0","task_version":"test-retest-t2"},{"Rune":"rune_05_gebo","Hex":"#ffcc3399","Correct":-1,"Choice":-1,"RT":-1,"Accuracy":1,"Outcome":"+10","Keys":[],"TotalKeys":0,"Block":2,"Trial":218,"Robot":2,"Valence":"Win","Action":"No-Go","Sham":0,"Color":"yellow","trial_type":"pit-trial","trial_index":237,"time_elapsed":1016500,"internal_node_id":"0.0-226.0","task_version":"test-retest-t2"},{"Rune":"rune_05_tiwaz","Hex":"#ffcc3399","Correct":32,"Choice":32,"RT":336.38500003144145,"Accuracy":1,"Outcome":"+10","Keys":[1837.2349999845028],"TotalKeys":1,"Block":2,"Trial":219,"Robot":1,"Valence":"Win","Action":"Go","Sham":0,"Color":"yellow","trial_type":"pit-trial","trial_index":238,"time_elapsed":1019342,"internal_node_id":"0.0-227.0","task_version":"test-retest-t2"},{"Rune":"rune_05_jeran","Hex":"#3366ff99","Correct":-1,"Choice":-1,"RT":-1,"Accuracy":1,"Outcome":"-1","Keys":[],"TotalKeys":0,"Block":2,"Trial":220,"Robot":4,"Valence":"Lose","Action":"No-Go","Sham":0,"Color":"blue","trial_type":"pit-trial","trial_index":239,"time_elapsed":1023348,"internal_node_id":"0.0-228.0","task_version":"test-retest-t2"},{"Rune":"rune_05_ior","Hex":"#3366ff99","Correct":32,"Choice":32,"RT":345.55500000715256,"Accuracy":1,"Outcome":"-1","Keys":[1845.7150000613183],"TotalKeys":1,"Block":2,"Trial":221,"Robot":3,"Valence":"Lose","Action":"Go","Sham":0,"Color":"blue","trial_type":"pit-trial","trial_index":240,"time_elapsed":1026200,"internal_node_id":"0.0-229.0","task_version":"test-retest-t2"},{"Rune":"rune_05_gebo","Hex":"#ffcc3399","Correct":-1,"Choice":-1,"RT":-1,"Accuracy":1,"Outcome":"+1","Keys":[],"TotalKeys":0,"Block":2,"Trial":222,"Robot":2,"Valence":"Win","Action":"No-Go","Sham":1,"Color":"yellow","trial_type":"pit-trial","trial_index":241,"time_elapsed":1030210,"internal_node_id":"0.0-230.0","task_version":"test-retest-t2"},{"Rune":"rune_05_jeran","Hex":"#3366ff99","Correct":-1,"Choice":-1,"RT":-1,"Accuracy":1,"Outcome":"-10","Keys":[],"TotalKeys":0,"Block":2,"Trial":223,"Robot":4,"Valence":"Lose","Action":"No-Go","Sham":1,"Color":"blue","trial_type":"pit-trial","trial_index":242,"time_elapsed":1034217,"internal_node_id":"0.0-231.0","task_version":"test-retest-t2"},{"Rune":"rune_05_tiwaz","Hex":"#ffcc3399","Correct":32,"Choice":32,"RT":393.49000016227365,"Accuracy":1,"Outcome":"+10","Keys":[1894.4099999498576],"TotalKeys":1,"Block":2,"Trial":224,"Robot":1,"Valence":"Win","Action":"Go","Sham":0,"Color":"yellow","trial_type":"pit-trial","trial_index":243,"time_elapsed":1037117,"internal_node_id":"0.0-232.0","task_version":"test-retest-t2"},{"Rune":"rune_05_jeran","Hex":"#3366ff99","Correct":-1,"Choice":-1,"RT":-1,"Accuracy":1,"Outcome":"-1","Keys":[],"TotalKeys":0,"Block":2,"Trial":225,"Robot":4,"Valence":"Lose","Action":"No-Go","Sham":0,"Color":"blue","trial_type":"pit-trial","trial_index":244,"time_elapsed":1041124,"internal_node_id":"0.0-233.0","task_version":"test-retest-t2"},{"Rune":"rune_05_gebo","Hex":"#ffcc3399","Correct":-1,"Choice":-1,"RT":-1,"Accuracy":1,"Outcome":"+10","Keys":[],"TotalKeys":0,"Block":2,"Trial":226,"Robot":2,"Valence":"Win","Action":"No-Go","Sham":0,"Color":"yellow","trial_type":"pit-trial","trial_index":245,"time_elapsed":1045130,"internal_node_id":"0.0-234.0","task_version":"test-retest-t2"},{"Rune":"rune_05_ior","Hex":"#3366ff99","Correct":32,"Choice":32,"RT":482.73000004701316,"Accuracy":1,"Outcome":"-1","Keys":[1985.1349999662489],"TotalKeys":1,"Block":2,"Trial":227,"Robot":3,"Valence":"Lose","Action":"Go","Sham":0,"Color":"blue","trial_type":"pit-trial","trial_index":246,"time_elapsed":1048120,"internal_node_id":"0.0-235.0","task_version":"test-retest-t2"},{"Rune":"rune_05_tiwaz","Hex":"#ffcc3399","Correct":32,"Choice":32,"RT":422.7749998681247,"Accuracy":1,"Outcome":"+10","Keys":[1922.8749999310821],"TotalKeys":1,"Block":2,"Trial":228,"Robot":1,"Valence":"Win","Action":"Go","Sham":0,"Color":"yellow","trial_type":"pit-trial","trial_index":247,"time_elapsed":1051046,"internal_node_id":"0.0-236.0","task_version":"test-retest-t2"},{"Rune":"rune_05_tiwaz","Hex":"#ffcc3399","Correct":32,"Choice":32,"RT":330.3600000217557,"Accuracy":1,"Outcome":"+10","Keys":[1830.809999955818],"TotalKeys":1,"Block":2,"Trial":229,"Robot":1,"Valence":"Win","Action":"Go","Sham":0,"Color":"yellow","trial_type":"pit-trial","trial_index":248,"time_elapsed":1053882,"internal_node_id":"0.0-237.0","task_version":"test-retest-t2"},{"Rune":"rune_05_jeran","Hex":"#3366ff99","Correct":-1,"Choice":-1,"RT":-1,"Accuracy":1,"Outcome":"-1","Keys":[],"TotalKeys":0,"Block":2,"Trial":230,"Robot":4,"Valence":"Lose","Action":"No-Go","Sham":0,"Color":"blue","trial_type":"pit-trial","trial_index":249,"time_elapsed":1057888,"internal_node_id":"0.0-238.0","task_version":"test-retest-t2"},{"Rune":"rune_05_ior","Hex":"#3366ff99","Correct":32,"Choice":32,"RT":447.70499994046986,"Accuracy":1,"Outcome":"-1","Keys":[1948.2350000180304],"TotalKeys":1,"Block":2,"Trial":231,"Robot":3,"Valence":"Lose","Action":"Go","Sham":0,"Color":"blue","trial_type":"pit-trial","trial_index":250,"time_elapsed":1060842,"internal_node_id":"0.0-239.0","task_version":"test-retest-t2"},{"Rune":"rune_05_gebo","Hex":"#ffcc3399","Correct":-1,"Choice":-1,"RT":-1,"Accuracy":1,"Outcome":"+10","Keys":[],"TotalKeys":0,"Block":2,"Trial":232,"Robot":2,"Valence":"Win","Action":"No-Go","Sham":0,"Color":"yellow","trial_type":"pit-trial","trial_index":251,"time_elapsed":1064848,"internal_node_id":"0.0-240.0","task_version":"test-retest-t2"},{"Rune":"rune_05_jeran","Hex":"#3366ff99","Correct":-1,"Choice":-1,"RT":-1,"Accuracy":1,"Outcome":"-1","Keys":[],"TotalKeys":0,"Block":2,"Trial":233,"Robot":4,"Valence":"Lose","Action":"No-Go","Sham":0,"Color":"blue","trial_type":"pit-trial","trial_index":252,"time_elapsed":1068854,"internal_node_id":"0.0-241.0","task_version":"test-retest-t2"},{"Rune":"rune_05_tiwaz","Hex":"#ffcc3399","Correct":32,"Choice":32,"RT":568.3399999979883,"Accuracy":1,"Outcome":"+1","Keys":[2068.63999995403],"TotalKeys":1,"Block":2,"Trial":234,"Robot":1,"Valence":"Win","Action":"Go","Sham":1,"Color":"yellow","trial_type":"pit-trial","trial_index":253,"time_elapsed":1071928,"internal_node_id":"0.0-242.0","task_version":"test-retest-t2"},{"Rune":"rune_05_ior","Hex":"#3366ff99","Correct":32,"Choice":32,"RT":613.8400000054389,"Accuracy":1,"Outcome":"-1","Keys":[2114.164999919012],"TotalKeys":1,"Block":2,"Trial":235,"Robot":3,"Valence":"Lose","Action":"Go","Sham":0,"Color":"blue","trial_type":"pit-trial","trial_index":254,"time_elapsed":1075047,"internal_node_id":"0.0-243.0","task_version":"test-retest-t2"},{"Rune":"rune_05_gebo","Hex":"#ffcc3399","Correct":-1,"Choice":-1,"RT":-1,"Accuracy":1,"Outcome":"+10","Keys":[],"TotalKeys":0,"Block":2,"Trial":236,"Robot":2,"Valence":"Win","Action":"No-Go","Sham":0,"Color":"yellow","trial_type":"pit-trial","trial_index":255,"time_elapsed":1079051,"internal_node_id":"0.0-244.0","task_version":"test-retest-t2"},{"Rune":"rune_05_gebo","Hex":"#ffcc3399","Correct":-1,"Choice":-1,"RT":-1,"Accuracy":1,"Outcome":"+10","Keys":[],"TotalKeys":0,"Block":2,"Trial":237,"Robot":2,"Valence":"Win","Action":"No-Go","Sham":0,"Color":"yellow","trial_type":"pit-trial","trial_index":256,"time_elapsed":1083056,"internal_node_id":"0.0-245.0","task_version":"test-retest-t2"},{"Rune":"rune_05_jeran","Hex":"#3366ff99","Correct":-1,"Choice":-1,"RT":-1,"Accuracy":1,"Outcome":"-1","Keys":[],"TotalKeys":0,"Block":2,"Trial":238,"Robot":4,"Valence":"Lose","Action":"No-Go","Sham":0,"Color":"blue","trial_type":"pit-trial","trial_index":257,"time_elapsed":1087062,"internal_node_id":"0.0-246.0","task_version":"test-retest-t2"},{"Rune":"rune_05_ior","Hex":"#3366ff99","Correct":32,"Choice":32,"RT":584.440000122413,"Accuracy":1,"Outcome":"-10","Keys":[2086.06499992311],"TotalKeys":1,"Block":2,"Trial":239,"Robot":3,"Valence":"Lose","Action":"Go","Sham":1,"Color":"blue","trial_type":"pit-trial","trial_index":258,"time_elapsed":1090153,"internal_node_id":"0.0-247.0","task_version":"test-retest-t2"},{"Rune":"rune_05_tiwaz","Hex":"#ffcc3399","Correct":32,"Choice":32,"RT":413.24500017799437,"Accuracy":1,"Outcome":"+10","Keys":[1913.979999953881],"TotalKeys":1,"Block":2,"Trial":240,"Robot":1,"Valence":"Win","Action":"Go","Sham":0,"Color":"yellow","trial_type":"pit-trial","trial_index":259,"time_elapsed":1093070,"internal_node_id":"0.0-248.0","task_version":"test-retest-t2"},{"view_history":"[{\"page_index\":0,\"viewing_time\":1610.564999980852}]","rt":1610.9849999193102,"trial_type":"pit-instructions","trial_index":260,"time_elapsed":1094684,"internal_node_id":"0.0-249.0","task_version":"test-retest-t2"},{"rt":67301.86999985017,"responses":{"difficulty":"3","fun":"5","clarity":"5","strategy":"I tested all of the symbold at the beginning and then went with the ones that showed correct the most amount of times","feedback":"I really like this task, its more fun than most!"},"survey":"debrief","trial_type":"survey-debrief","trial_index":261,"time_elapsed":1161991,"internal_node_id":"0.0-250.0","task_version":"test-retest-t2"},{"rt":4643.374999985099,"stimulus":"You earned a bonus of $1.46 out of $1.5.<br><br>Press any key to complete the experiment.","key_press":32,"trial_type":"html-keyboard-response","trial_index":262,"time_elapsed":1166642,"internal_node_id":"0.0-251.0","task_version":"test-retest-t2","accuracy":0.9708333333333333,"bonus":1.46,"interactions":"[]"}]