[{"slider_type":"valence","raw_loc":509,"loc":0.518,"trial_type":"affective-slider","trial_index":0,"time_elapsed":4614,"internal_node_id":"0.0-0.0","task_version":"test-retest-t2"},{"responses":{"Q06":"1","Q03":"3","Q07":"3","Q01":"3","Q02":"3","Q08":"0","Q04":"2","Q05":"1"},"rt":23086.65499999188,"survey":"gad7","trial_type":"survey-template","trial_index":1,"time_elapsed":27713,"internal_node_id":"0.0-1.0","task_version":"test-retest-t2"},{"view_history":"[{\"page_index\":0,\"viewing_time\":86444.98999998905},{\"page_index\":1,\"viewing_time\":4364.629999967292},{\"page_index\":2,\"viewing_time\":3291.28500004299},{\"page_index\":3,\"viewing_time\":8758.414999989327},{\"page_index\":4,\"viewing_time\":3034.9849999765866},{\"page_index\":5,\"viewing_time\":1946.3950000354089}]","rt":107843.92999997362,"trial_type":"pit-instructions","trial_index":2,"time_elapsed":135588,"internal_node_id":"0.0-2.0-0.0","task_version":"test-retest-t2"},{"Rune":"rune_00_ingz","Hex":"#FFFFF080","Correct":32,"Choice":32,"RT":443.8950000330806,"Accuracy":1,"Outcome":"+10","Keys":[1944.2849999759346],"TotalKeys":1,"Block":0,"Action":"Go","trial_type":"pit-trial","trial_index":3,"time_elapsed":138552,"internal_node_id":"0.0-2.0-1.0-0.0","task_version":"test-retest-t2"},{"Rune":"rune_00_ingz","Hex":"#FFFFF080","Correct":32,"Choice":32,"RT":371.3100000168197,"Accuracy":1,"Outcome":"+10","Keys":[1872.220000019297],"TotalKeys":1,"Block":0,"Action":"Go","trial_type":"pit-trial","trial_index":4,"time_elapsed":141442,"internal_node_id":"0.0-2.0-1.0-0.1","task_version":"test-retest-t2"},{"Rune":"rune_00_ingz","Hex":"#FFFFF080","Correct":32,"Choice":32,"RT":209.82499996898696,"Accuracy":1,"Outcome":"+10","Keys":[1711.7399999988265],"TotalKeys":1,"Block":0,"Action":"Go","trial_type":"pit-trial","trial_index":5,"time_elapsed":144170,"internal_node_id":"0.0-2.0-1.0-0.2","task_version":"test-retest-t2"},{"Rune":"rune_00_ingz","Hex":"#FFFFF080","Correct":32,"Choice":32,"RT":161.03499999735504,"Accuracy":1,"Outcome":"+10","Keys":[1663.0399999557994],"TotalKeys":1,"Block":0,"Action":"Go","trial_type":"pit-trial","trial_index":6,"time_elapsed":146858,"internal_node_id":"0.0-2.0-1.0-0.3","task_version":"test-retest-t2"},{"view_history":"[{\"page_index\":0,\"viewing_time\":3323.480000020936}]","rt":3323.9100000355393,"trial_type":"pit-instructions","trial_index":7,"time_elapsed":150194,"internal_node_id":"0.0-2.0-2.0","task_version":"test-retest-t2"},{"Rune":"rune_00_isaz","Hex":"#FFFFF080","Correct":-1,"Choice":-1,"RT":-1,"Accuracy":1,"Outcome":"+10","Keys":[],"TotalKeys":0,"Block":0,"Action":"No-Go","trial_type":"pit-trial","trial_index":8,"time_elapsed":154204,"internal_node_id":"0.0-2.0-3.0-0.0","task_version":"test-retest-t2"},{"Rune":"rune_00_isaz","Hex":"#FFFFF080","Correct":-1,"Choice":-1,"RT":-1,"Accuracy":1,"Outcome":"+10","Keys":[],"TotalKeys":0,"Block":0,"Action":"No-Go","trial_type":"pit-trial","trial_index":9,"time_elapsed":158220,"internal_node_id":"0.0-2.0-3.0-0.1","task_version":"test-retest-t2"},{"Rune":"rune_00_isaz","Hex":"#FFFFF080","Correct":-1,"Choice":-1,"RT":-1,"Accuracy":1,"Outcome":"+10","Keys":[],"TotalKeys":0,"Block":0,"Action":"No-Go","trial_type":"pit-trial","trial_index":10,"time_elapsed":162237,"internal_node_id":"0.0-2.0-3.0-0.2","task_version":"test-retest-t2"},{"Rune":"rune_00_isaz","Hex":"#FFFFF080","Correct":-1,"Choice":-1,"RT":-1,"Accuracy":1,"Outcome":"+10","Keys":[],"TotalKeys":0,"Block":0,"Action":"No-Go","trial_type":"pit-trial","trial_index":11,"time_elapsed":166253,"internal_node_id":"0.0-2.0-3.0-0.3","task_version":"test-retest-t2"},{"view_history":"[{\"page_index\":0,\"viewing_time\":2191.3649999769405},{\"page_index\":1,\"viewing_time\":5706.950000021607},{\"page_index\":2,\"viewing_time\":3891.665000002831},{\"page_index\":3,\"viewing_time\":3911.2549999845214},{\"page_index\":4,\"viewing_time\":2990.0350000243634},{\"page_index\":5,\"viewing_time\":7297.519999963697},{\"page_index\":6,\"viewing_time\":3300.790000008419},{\"page_index\":7,\"viewing_time\":2207.3100000270642}]","rt":31498.329999973066,"trial_type":"pit-instructions","trial_index":12,"time_elapsed":197764,"internal_node_id":"0.0-2.0-4.0","task_version":"test-retest-t2"},{"responses":["Do nothing","+10","-1","True","Yes"],"num_errors":0,"rt":12739.220000046771,"trial_type":"pit-comprehension","trial_index":13,"time_elapsed":210521,"internal_node_id":"0.0-2.0-5.0","task_version":"test-retest-t2"},{"trial_type":"call-function","trial_index":14,"time_elapsed":210529,"internal_node_id":"0.0-3.0","task_version":"test-retest-t2"},{"view_history":"[{\"page_index\":0,\"viewing_time\":1391.829999978654},{\"page_index\":1,\"viewing_time\":955.5900000268593},{\"page_index\":2,\"viewing_time\":1923.0199999874458}]","rt":4272.279999975581,"trial_type":"pit-instructions","trial_index":15,"time_elapsed":214802,"internal_node_id":"0.0-4.0","task_version":"test-retest-t2"},{"Rune":"rune_03_othalan","Hex":"#3366ff99","Correct":32,"Choice":32,"RT":539.8750000167638,"Accuracy":1,"Outcome":"-1","Keys":[2040.4599999892525],"TotalKeys":1,"Block":1,"Trial":1,"Robot":3,"Valence":"Lose","Action":"Go","Sham":0,"Color":"blue","trial_type":"pit-trial","trial_index":16,"time_elapsed":217873,"internal_node_id":"0.0-5.0","task_version":"test-retest-t2"},{"Rune":"rune_03_uruz","Hex":"#3366ff99","Correct":-1,"Choice":-1,"RT":-1,"Accuracy":1,"Outcome":"-1","Keys":[],"TotalKeys":0,"Block":1,"Trial":2,"Robot":4,"Valence":"Lose","Action":"No-Go","Sham":0,"Color":"blue","trial_type":"pit-trial","trial_index":17,"time_elapsed":221890,"internal_node_id":"0.0-6.0","task_version":"test-retest-t2"},{"Rune":"rune_03_algiz","Hex":"#ffcc3399","Correct":-1,"Choice":32,"RT":763.0549999885261,"Accuracy":0,"Outcome":"+10","Keys":[2264.6049999748357],"TotalKeys":1,"Block":1,"Trial":3,"Robot":2,"Valence":"Win","Action":"No-Go","Sham":1,"Color":"yellow","trial_type":"pit-trial","trial_index":18,"time_elapsed":225172,"internal_node_id":"0.0-7.0","task_version":"test-retest-t2"},{"Rune":"rune_03_naudiz","Hex":"#ffcc3399","Correct":32,"Choice":-1,"RT":-1,"Accuracy":0,"Outcome":"+10","Keys":[],"TotalKeys":0,"Block":1,"Trial":4,"Robot":1,"Valence":"Win","Action":"Go","Sham":1,"Color":"yellow","trial_type":"pit-trial","trial_index":19,"time_elapsed":229189,"internal_node_id":"0.0-8.0","task_version":"test-retest-t2"},{"Rune":"rune_03_uruz","Hex":"#3366ff99","Correct":-1,"Choice":-1,"RT":-1,"Accuracy":1,"Outcome":"-1","Keys":[],"TotalKeys":0,"Block":1,"Trial":5,"Robot":4,"Valence":"Lose","Action":"No-Go","Sham":0,"Color":"blue","trial_type":"pit-trial","trial_index":20,"time_elapsed":233207,"internal_node_id":"0.0-9.0","task_version":"test-retest-t2"},{"Rune":"rune_03_othalan","Hex":"#3366ff99","Correct":32,"Choice":32,"RT":618.0349999922328,"Accuracy":1,"Outcome":"-1","Keys":[2118.194999988191],"TotalKeys":1,"Block":1,"Trial":6,"Robot":3,"Valence":"Lose","Action":"Go","Sham":0,"Color":"blue","trial_type":"pit-trial","trial_index":21,"time_elapsed":236341,"internal_node_id":"0.0-10.0","task_version":"test-retest-t2"},{"Rune":"rune_03_algiz","Hex":"#ffcc3399","Correct":-1,"Choice":32,"RT":570.5650000018068,"Accuracy":0,"Outcome":"+1","Keys":[2070.899999991525],"TotalKeys":1,"Block":1,"Trial":7,"Robot":2,"Valence":"Win","Action":"No-Go","Sham":0,"Color":"yellow","trial_type":"pit-trial","trial_index":22,"time_elapsed":239430,"internal_node_id":"0.0-11.0","task_version":"test-retest-t2"},{"Rune":"rune_03_naudiz","Hex":"#ffcc3399","Correct":32,"Choice":-1,"RT":-1,"Accuracy":0,"Outcome":"+1","Keys":[],"TotalKeys":0,"Block":1,"Trial":8,"Robot":1,"Valence":"Win","Action":"Go","Sham":0,"Color":"yellow","trial_type":"pit-trial","trial_index":23,"time_elapsed":243447,"internal_node_id":"0.0-12.0","task_version":"test-retest-t2"},{"Rune":"rune_03_algiz","Hex":"#ffcc3399","Correct":-1,"Choice":-1,"RT":-1,"Accuracy":1,"Outcome":"+10","Keys":[],"TotalKeys":0,"Block":1,"Trial":9,"Robot":2,"Valence":"Win","Action":"No-Go","Sham":0,"Color":"yellow","trial_type":"pit-trial","trial_index":24,"time_elapsed":247463,"internal_node_id":"0.0-13.0","task_version":"test-retest-t2"},{"Rune":"rune_03_naudiz","Hex":"#ffcc3399","Correct":32,"Choice":-1,"RT":-1,"Accuracy":0,"Outcome":"+1","Keys":[],"TotalKeys":0,"Block":1,"Trial":10,"Robot":1,"Valence":"Win","Action":"Go","Sham":0,"Color":"yellow","trial_type":"pit-trial","trial_index":25,"time_elapsed":251480,"internal_node_id":"0.0-14.0","task_version":"test-retest-t2"},{"Rune":"rune_03_uruz","Hex":"#3366ff99","Correct":-1,"Choice":32,"RT":841.8899999815039,"Accuracy":0,"Outcome":"-1","Keys":[2343.6949999886565],"TotalKeys":1,"Block":1,"Trial":11,"Robot":4,"Valence":"Lose","Action":"No-Go","Sham":1,"Color":"blue","trial_type":"pit-trial","trial_index":26,"time_elapsed":254839,"internal_node_id":"0.0-15.0","task_version":"test-retest-t2"},{"Rune":"rune_03_othalan","Hex":"#3366ff99","Correct":32,"Choice":-1,"RT":-1,"Accuracy":0,"Outcome":"-10","Keys":[],"TotalKeys":0,"Block":1,"Trial":12,"Robot":3,"Valence":"Lose","Action":"Go","Sham":0,"Color":"blue","trial_type":"pit-trial","trial_index":27,"time_elapsed":258857,"internal_node_id":"0.0-16.0","task_version":"test-retest-t2"},{"Rune":"rune_03_uruz","Hex":"#3366ff99","Correct":-1,"Choice":32,"RT":1401.4399999869056,"Accuracy":0,"Outcome":"-10","Keys":[2903.0950000160374],"TotalKeys":1,"Block":1,"Trial":13,"Robot":4,"Valence":"Lose","Action":"No-Go","Sham":0,"Color":"blue","trial_type":"pit-trial","trial_index":28,"time_elapsed":262776,"internal_node_id":"0.0-17.0","task_version":"test-retest-t2"},{"Rune":"rune_03_algiz","Hex":"#ffcc3399","Correct":-1,"Choice":32,"RT":838.5199999902397,"Accuracy":0,"Outcome":"+1","Keys":[2339.1950000077486],"TotalKeys":1,"Block":1,"Trial":14,"Robot":2,"Valence":"Win","Action":"No-Go","Sham":0,"Color":"yellow","trial_type":"pit-trial","trial_index":29,"time_elapsed":266137,"internal_node_id":"0.0-18.0","task_version":"test-retest-t2"},{"Rune":"rune_03_othalan","Hex":"#3366ff99","Correct":32,"Choice":32,"RT":1002.634999982547,"Accuracy":1,"Outcome":"-1","Keys":[2503.5849999985658],"TotalKeys":1,"Block":1,"Trial":15,"Robot":3,"Valence":"Lose","Action":"Go","Sham":0,"Color":"blue","trial_type":"pit-trial","trial_index":30,"time_elapsed":269656,"internal_node_id":"0.0-19.0","task_version":"test-retest-t2"},{"Rune":"rune_03_naudiz","Hex":"#ffcc3399","Correct":32,"Choice":32,"RT":903.580000041984,"Accuracy":1,"Outcome":"+10","Keys":[2403.679999988526],"TotalKeys":1,"Block":1,"Trial":16,"Robot":1,"Valence":"Win","Action":"Go","Sham":0,"Color":"yellow","trial_type":"pit-trial","trial_index":31,"time_elapsed":273076,"internal_node_id":"0.0-20.0","task_version":"test-retest-t2"},{"Rune":"rune_03_uruz","Hex":"#3366ff99","Correct":-1,"Choice":-1,"RT":-1,"Accuracy":1,"Outcome":"-1","Keys":[],"TotalKeys":0,"Block":1,"Trial":17,"Robot":4,"Valence":"Lose","Action":"No-Go","Sham":0,"Color":"blue","trial_type":"pit-trial","trial_index":32,"time_elapsed":277092,"internal_node_id":"0.0-21.0","task_version":"test-retest-t2"},{"Rune":"rune_03_algiz","Hex":"#ffcc3399","Correct":-1,"Choice":-1,"RT":-1,"Accuracy":1,"Outcome":"+10","Keys":[],"TotalKeys":0,"Block":1,"Trial":18,"Robot":2,"Valence":"Win","Action":"No-Go","Sham":0,"Color":"yellow","trial_type":"pit-trial","trial_index":33,"time_elapsed":281107,"internal_node_id":"0.0-22.0","task_version":"test-retest-t2"},{"Rune":"rune_03_othalan","Hex":"#3366ff99","Correct":32,"Choice":32,"RT":933.5749999736436,"Accuracy":1,"Outcome":"-10","Keys":[2435.430000012275],"TotalKeys":1,"Block":1,"Trial":19,"Robot":3,"Valence":"Lose","Action":"Go","Sham":1,"Color":"blue","trial_type":"pit-trial","trial_index":34,"time_elapsed":284559,"internal_node_id":"0.0-23.0","task_version":"test-retest-t2"},{"Rune":"rune_03_naudiz","Hex":"#ffcc3399","Correct":32,"Choice":32,"RT":703.2049999688752,"Accuracy":1,"Outcome":"+10","Keys":[2203.724999970291],"TotalKeys":1,"Block":1,"Trial":20,"Robot":1,"Valence":"Win","Action":"Go","Sham":0,"Color":"yellow","trial_type":"pit-trial","trial_index":35,"time_elapsed":287779,"internal_node_id":"0.0-24.0","task_version":"test-retest-t2"},{"Rune":"rune_03_uruz","Hex":"#3366ff99","Correct":-1,"Choice":-1,"RT":-1,"Accuracy":1,"Outcome":"-1","Keys":[],"TotalKeys":0,"Block":1,"Trial":21,"Robot":4,"Valence":"Lose","Action":"No-Go","Sham":0,"Color":"blue","trial_type":"pit-trial","trial_index":36,"time_elapsed":291797,"internal_node_id":"0.0-25.0","task_version":"test-retest-t2"},{"Rune":"rune_03_othalan","Hex":"#3366ff99","Correct":32,"Choice":32,"RT":1257.6800000388175,"Accuracy":1,"Outcome":"-1","Keys":[2758.224999997765],"TotalKeys":1,"Block":1,"Trial":22,"Robot":3,"Valence":"Lose","Action":"Go","Sham":0,"Color":"blue","trial_type":"pit-trial","trial_index":37,"time_elapsed":295571,"internal_node_id":"0.0-26.0","task_version":"test-retest-t2"},{"Rune":"rune_03_algiz","Hex":"#ffcc3399","Correct":-1,"Choice":-1,"RT":-1,"Accuracy":1,"Outcome":"+10","Keys":[],"TotalKeys":0,"Block":1,"Trial":23,"Robot":2,"Valence":"Win","Action":"No-Go","Sham":0,"Color":"yellow","trial_type":"pit-trial","trial_index":38,"time_elapsed":299587,"internal_node_id":"0.0-27.0","task_version":"test-retest-t2"},{"Rune":"rune_03_naudiz","Hex":"#ffcc3399","Correct":32,"Choice":32,"RT":551.4850000035949,"Accuracy":1,"Outcome":"+10","Keys":[2052.384999988135],"TotalKeys":1,"Block":1,"Trial":24,"Robot":1,"Valence":"Win","Action":"Go","Sham":0,"Color":"yellow","trial_type":"pit-trial","trial_index":39,"time_elapsed":302656,"internal_node_id":"0.0-28.0","task_version":"test-retest-t2"},{"Rune":"rune_03_algiz","Hex":"#ffcc3399","Correct":-1,"Choice":-1,"RT":-1,"Accuracy":1,"Outcome":"+10","Keys":[],"TotalKeys":0,"Block":1,"Trial":25,"Robot":2,"Valence":"Win","Action":"No-Go","Sham":0,"Color":"yellow","trial_type":"pit-trial","trial_index":40,"time_elapsed":306672,"internal_node_id":"0.0-29.0","task_version":"test-retest-t2"},{"Rune":"rune_03_othalan","Hex":"#3366ff99","Correct":32,"Choice":32,"RT":908.7350000045262,"Accuracy":1,"Outcome":"-1","Keys":[2409.9050000077114],"TotalKeys":1,"Block":1,"Trial":26,"Robot":3,"Valence":"Lose","Action":"Go","Sham":0,"Color":"blue","trial_type":"pit-trial","trial_index":41,"time_elapsed":310098,"internal_node_id":"0.0-30.0","task_version":"test-retest-t2"},{"Rune":"rune_03_uruz","Hex":"#3366ff99","Correct":-1,"Choice":-1,"RT":-1,"Accuracy":1,"Outcome":"-1","Keys":[],"TotalKeys":0,"Block":1,"Trial":27,"Robot":4,"Valence":"Lose","Action":"No-Go","Sham":0,"Color":"blue","trial_type":"pit-trial","trial_index":42,"time_elapsed":314115,"internal_node_id":"0.0-31.0","task_version":"test-retest-t2"},{"Rune":"rune_03_naudiz","Hex":"#ffcc3399","Correct":32,"Choice":32,"RT":902.3949999827892,"Accuracy":1,"Outcome":"+10","Keys":[2403.1200000317767],"TotalKeys":1,"Block":1,"Trial":28,"Robot":1,"Valence":"Win","Action":"Go","Sham":0,"Color":"yellow","trial_type":"pit-trial","trial_index":43,"time_elapsed":317534,"internal_node_id":"0.0-32.0","task_version":"test-retest-t2"},{"Rune":"rune_03_uruz","Hex":"#3366ff99","Correct":-1,"Choice":-1,"RT":-1,"Accuracy":1,"Outcome":"-10","Keys":[],"TotalKeys":0,"Block":1,"Trial":29,"Robot":4,"Valence":"Lose","Action":"No-Go","Sham":1,"Color":"blue","trial_type":"pit-trial","trial_index":44,"time_elapsed":321552,"internal_node_id":"0.0-33.0","task_version":"test-retest-t2"},{"Rune":"rune_03_algiz","Hex":"#ffcc3399","Correct":-1,"Choice":-1,"RT":-1,"Accuracy":1,"Outcome":"+1","Keys":[],"TotalKeys":0,"Block":1,"Trial":30,"Robot":2,"Valence":"Win","Action":"No-Go","Sham":1,"Color":"yellow","trial_type":"pit-trial","trial_index":45,"time_elapsed":325569,"internal_node_id":"0.0-34.0","task_version":"test-retest-t2"},{"Rune":"rune_03_naudiz","Hex":"#ffcc3399","Correct":32,"Choice":32,"RT":843.5450000106357,"Accuracy":1,"Outcome":"+10","Keys":[2344.2550000036135],"TotalKeys":1,"Block":1,"Trial":31,"Robot":1,"Valence":"Win","Action":"Go","Sham":0,"Color":"yellow","trial_type":"pit-trial","trial_index":46,"time_elapsed":328928,"internal_node_id":"0.0-35.0","task_version":"test-retest-t2"},{"Rune":"rune_03_othalan","Hex":"#3366ff99","Correct":32,"Choice":-1,"RT":-1,"Accuracy":0,"Outcome":"-1","Keys":[],"TotalKeys":0,"Block":1,"Trial":32,"Robot":3,"Valence":"Lose","Action":"Go","Sham":1,"Color":"blue","trial_type":"pit-trial","trial_index":47,"time_elapsed":332945,"internal_node_id":"0.0-36.0","task_version":"test-retest-t2"},{"Rune":"rune_03_algiz","Hex":"#ffcc3399","Correct":-1,"Choice":-1,"RT":-1,"Accuracy":1,"Outcome":"+10","Keys":[],"TotalKeys":0,"Block":1,"Trial":33,"Robot":2,"Valence":"Win","Action":"No-Go","Sham":0,"Color":"yellow","trial_type":"pit-trial","trial_index":48,"time_elapsed":336961,"internal_node_id":"0.0-37.0","task_version":"test-retest-t2"},{"Rune":"rune_03_uruz","Hex":"#3366ff99","Correct":-1,"Choice":32,"RT":808.164999994915,"Accuracy":0,"Outcome":"-10","Keys":[2309.6699999878183],"TotalKeys":1,"Block":1,"Trial":34,"Robot":4,"Valence":"Lose","Action":"No-Go","Sham":0,"Color":"blue","trial_type":"pit-trial","trial_index":49,"time_elapsed":340282,"internal_node_id":"0.0-38.0","task_version":"test-retest-t2"},{"Rune":"rune_03_naudiz","Hex":"#ffcc3399","Correct":32,"Choice":32,"RT":678.1349999946542,"Accuracy":1,"Outcome":"+10","Keys":[2178.220000001602],"TotalKeys":1,"Block":1,"Trial":35,"Robot":1,"Valence":"Win","Action":"Go","Sham":0,"Color":"yellow","trial_type":"pit-trial","trial_index":50,"time_elapsed":343477,"internal_node_id":"0.0-39.0","task_version":"test-retest-t2"},{"Rune":"rune_03_othalan","Hex":"#3366ff99","Correct":32,"Choice":-1,"RT":-1,"Accuracy":0,"Outcome":"-10","Keys":[],"TotalKeys":0,"Block":1,"Trial":36,"Robot":3,"Valence":"Lose","Action":"Go","Sham":0,"Color":"blue","trial_type":"pit-trial","trial_index":51,"time_elapsed":347492,"internal_node_id":"0.0-40.0","task_version":"test-retest-t2"},{"Rune":"rune_03_naudiz","Hex":"#ffcc3399","Correct":32,"Choice":32,"RT":768.999999971129,"Accuracy":1,"Outcome":"+1","Keys":[2269.834999984596],"TotalKeys":1,"Block":1,"Trial":37,"Robot":1,"Valence":"Win","Action":"Go","Sham":1,"Color":"yellow","trial_type":"pit-trial","trial_index":52,"time_elapsed":350777,"internal_node_id":"0.0-41.0","task_version":"test-retest-t2"},{"Rune":"rune_03_othalan","Hex":"#3366ff99","Correct":32,"Choice":32,"RT":964.8900000029244,"Accuracy":1,"Outcome":"-1","Keys":[2466.7350000236183],"TotalKeys":1,"Block":1,"Trial":38,"Robot":3,"Valence":"Lose","Action":"Go","Sham":0,"Color":"blue","trial_type":"pit-trial","trial_index":53,"time_elapsed":354259,"internal_node_id":"0.0-42.0","task_version":"test-retest-t2"},{"Rune":"rune_03_uruz","Hex":"#3366ff99","Correct":-1,"Choice":-1,"RT":-1,"Accuracy":1,"Outcome":"-1","Keys":[],"TotalKeys":0,"Block":1,"Trial":39,"Robot":4,"Valence":"Lose","Action":"No-Go","Sham":0,"Color":"blue","trial_type":"pit-trial","trial_index":54,"time_elapsed":358275,"internal_node_id":"0.0-43.0","task_version":"test-retest-t2"},{"Rune":"rune_03_algiz","Hex":"#ffcc3399","Correct":-1,"Choice":-1,"RT":-1,"Accuracy":1,"Outcome":"+10","Keys":[],"TotalKeys":0,"Block":1,"Trial":40,"Robot":2,"Valence":"Win","Action":"No-Go","Sham":0,"Color":"yellow","trial_type":"pit-trial","trial_index":55,"time_elapsed":362291,"internal_node_id":"0.0-44.0","task_version":"test-retest-t2"},{"Rune":"rune_03_othalan","Hex":"#3366ff99","Correct":32,"Choice":32,"RT":1354.674999951385,"Accuracy":1,"Outcome":"-1","Keys":[2854.894999996759],"TotalKeys":1,"Block":1,"Trial":41,"Robot":3,"Valence":"Lose","Action":"Go","Sham":0,"Color":"blue","trial_type":"pit-trial","trial_index":56,"time_elapsed":366162,"internal_node_id":"0.0-45.0","task_version":"test-retest-t2"},{"Rune":"rune_03_uruz","Hex":"#3366ff99","Correct":-1,"Choice":-1,"RT":-1,"Accuracy":1,"Outcome":"-1","Keys":[],"TotalKeys":0,"Block":1,"Trial":42,"Robot":4,"Valence":"Lose","Action":"No-Go","Sham":0,"Color":"blue","trial_type":"pit-trial","trial_index":57,"time_elapsed":370180,"internal_node_id":"0.0-46.0","task_version":"test-retest-t2"},{"Rune":"rune_03_algiz","Hex":"#ffcc3399","Correct":-1,"Choice":-1,"RT":-1,"Accuracy":1,"Outcome":"+10","Keys":[],"TotalKeys":0,"Block":1,"Trial":43,"Robot":2,"Valence":"Win","Action":"No-Go","Sham":0,"Color":"yellow","trial_type":"pit-trial","trial_index":58,"time_elapsed":374199,"internal_node_id":"0.0-47.0","task_version":"test-retest-t2"},{"Rune":"rune_03_naudiz","Hex":"#ffcc3399","Correct":32,"Choice":32,"RT":366.47499998798594,"Accuracy":1,"Outcome":"+10","Keys":[1867.8100000252016],"TotalKeys":1,"Block":1,"Trial":44,"Robot":1,"Valence":"Win","Action":"Go","Sham":0,"Color":"yellow","trial_type":"pit-trial","trial_index":59,"time_elapsed":377083,"internal_node_id":"0.0-48.0","task_version":"test-retest-t2"},{"Rune":"rune_03_naudiz","Hex":"#ffcc3399","Correct":32,"Choice":32,"RT":941.9750000233762,"Accuracy":1,"Outcome":"+1","Keys":[2443.2099999976344],"TotalKeys":1,"Block":1,"Trial":45,"Robot":1,"Valence":"Win","Action":"Go","Sham":1,"Color":"yellow","trial_type":"pit-trial","trial_index":60,"time_elapsed":380545,"internal_node_id":"0.0-49.0","task_version":"test-retest-t2"},{"Rune":"rune_03_uruz","Hex":"#3366ff99","Correct":-1,"Choice":-1,"RT":-1,"Accuracy":1,"Outcome":"-1","Keys":[],"TotalKeys":0,"Block":1,"Trial":46,"Robot":4,"Valence":"Lose","Action":"No-Go","Sham":0,"Color":"blue","trial_type":"pit-trial","trial_index":61,"time_elapsed":384562,"internal_node_id":"0.0-50.0","task_version":"test-retest-t2"},{"Rune":"rune_03_algiz","Hex":"#ffcc3399","Correct":-1,"Choice":-1,"RT":-1,"Accuracy":1,"Outcome":"+10","Keys":[],"TotalKeys":0,"Block":1,"Trial":47,"Robot":2,"Valence":"Win","Action":"No-Go","Sham":0,"Color":"yellow","trial_type":"pit-trial","trial_index":62,"time_elapsed":388578,"internal_node_id":"0.0-51.0","task_version":"test-retest-t2"},{"Rune":"rune_03_othalan","Hex":"#3366ff99","Correct":32,"Choice":32,"RT":860.1299999863841,"Accuracy":1,"Outcome":"-1","Keys":[2361.0599999665283],"TotalKeys":1,"Block":1,"Trial":48,"Robot":3,"Valence":"Lose","Action":"Go","Sham":0,"Color":"blue","trial_type":"pit-trial","trial_index":63,"time_elapsed":391955,"internal_node_id":"0.0-52.0","task_version":"test-retest-t2"},{"Rune":"rune_03_othalan","Hex":"#3366ff99","Correct":32,"Choice":-1,"RT":-1,"Accuracy":0,"Outcome":"-10","Keys":[],"TotalKeys":0,"Block":1,"Trial":49,"Robot":3,"Valence":"Lose","Action":"Go","Sham":0,"Color":"blue","trial_type":"pit-trial","trial_index":64,"time_elapsed":395972,"internal_node_id":"0.0-53.0","task_version":"test-retest-t2"},{"Rune":"rune_03_algiz","Hex":"#ffcc3399","Correct":-1,"Choice":-1,"RT":-1,"Accuracy":1,"Outcome":"+10","Keys":[],"TotalKeys":0,"Block":1,"Trial":50,"Robot":2,"Valence":"Win","Action":"No-Go","Sham":0,"Color":"yellow","trial_type":"pit-trial","trial_index":65,"time_elapsed":399988,"internal_node_id":"0.0-54.0","task_version":"test-retest-t2"},{"Rune":"rune_03_naudiz","Hex":"#ffcc3399","Correct":32,"Choice":32,"RT":418.3150000171736,"Accuracy":1,"Outcome":"+10","Keys":[1919.5150000159629],"TotalKeys":1,"Block":1,"Trial":51,"Robot":1,"Valence":"Win","Action":"Go","Sham":0,"Color":"yellow","trial_type":"pit-trial","trial_index":66,"time_elapsed":402924,"internal_node_id":"0.0-55.0","task_version":"test-retest-t2"},{"Rune":"rune_03_uruz","Hex":"#3366ff99","Correct":-1,"Choice":-1,"RT":-1,"Accuracy":1,"Outcome":"-1","Keys":[],"TotalKeys":0,"Block":1,"Trial":52,"Robot":4,"Valence":"Lose","Action":"No-Go","Sham":0,"Color":"blue","trial_type":"pit-trial","trial_index":67,"time_elapsed":406940,"internal_node_id":"0.0-56.0","task_version":"test-retest-t2"},{"Rune":"rune_03_uruz","Hex":"#3366ff99","Correct":-1,"Choice":-1,"RT":-1,"Accuracy":1,"Outcome":"-1","Keys":[],"TotalKeys":0,"Block":1,"Trial":53,"Robot":4,"Valence":"Lose","Action":"No-Go","Sham":0,"Color":"blue","trial_type":"pit-trial","trial_index":68,"time_elapsed":410957,"internal_node_id":"0.0-57.0","task_version":"test-retest-t2"},{"Rune":"rune_03_naudiz","Hex":"#ffcc3399","Correct":32,"Choice":32,"RT":560.6850000331178,"Accuracy":1,"Outcome":"+10","Keys":[2061.7549999733455],"TotalKeys":1,"Block":1,"Trial":54,"Robot":1,"Valence":"Win","Action":"Go","Sham":0,"Color":"yellow","trial_type":"pit-trial","trial_index":69,"time_elapsed":414039,"internal_node_id":"0.0-58.0","task_version":"test-retest-t2"},{"Rune":"rune_03_othalan","Hex":"#3366ff99","Correct":32,"Choice":32,"RT":931.1650000163354,"Accuracy":1,"Outcome":"-1","Keys":[2431.63500004448],"TotalKeys":1,"Block":1,"Trial":55,"Robot":3,"Valence":"Lose","Action":"Go","Sham":0,"Color":"blue","trial_type":"pit-trial","trial_index":70,"time_elapsed":417487,"internal_node_id":"0.0-59.0","task_version":"test-retest-t2"},{"Rune":"rune_03_algiz","Hex":"#ffcc3399","Correct":-1,"Choice":-1,"RT":-1,"Accuracy":1,"Outcome":"+1","Keys":[],"TotalKeys":0,"Block":1,"Trial":56,"Robot":2,"Valence":"Win","Action":"No-Go","Sham":1,"Color":"yellow","trial_type":"pit-trial","trial_index":71,"time_elapsed":421502,"internal_node_id":"0.0-60.0","task_version":"test-retest-t2"},{"Rune":"rune_03_algiz","Hex":"#ffcc3399","Correct":-1,"Choice":-1,"RT":-1,"Accuracy":1,"Outcome":"+10","Keys":[],"TotalKeys":0,"Block":1,"Trial":57,"Robot":2,"Valence":"Win","Action":"No-Go","Sham":0,"Color":"yellow","trial_type":"pit-trial","trial_index":72,"time_elapsed":425528,"internal_node_id":"0.0-61.0","task_version":"test-retest-t2"},{"Rune":"rune_03_othalan","Hex":"#3366ff99","Correct":32,"Choice":-1,"RT":-1,"Accuracy":0,"Outcome":"-1","Keys":[],"TotalKeys":0,"Block":1,"Trial":58,"Robot":3,"Valence":"Lose","Action":"Go","Sham":1,"Color":"blue","trial_type":"pit-trial","trial_index":73,"time_elapsed":429543,"internal_node_id":"0.0-62.0","task_version":"test-retest-t2"},{"Rune":"rune_03_uruz","Hex":"#3366ff99","Correct":-1,"Choice":-1,"RT":-1,"Accuracy":1,"Outcome":"-10","Keys":[],"TotalKeys":0,"Block":1,"Trial":59,"Robot":4,"Valence":"Lose","Action":"No-Go","Sham":1,"Color":"blue","trial_type":"pit-trial","trial_index":74,"time_elapsed":433559,"internal_node_id":"0.0-63.0","task_version":"test-retest-t2"},{"Rune":"rune_03_naudiz","Hex":"#ffcc3399","Correct":32,"Choice":32,"RT":505.8699999935925,"Accuracy":1,"Outcome":"+10","Keys":[2006.299999949988],"TotalKeys":1,"Block":1,"Trial":60,"Robot":1,"Valence":"Win","Action":"Go","Sham":0,"Color":"yellow","trial_type":"pit-trial","trial_index":75,"time_elapsed":436581,"internal_node_id":"0.0-64.0","task_version":"test-retest-t2"},{"value":false,"trial_type":"call-function","trial_index":76,"time_elapsed":436597,"internal_node_id":"0.0-65.0","task_version":"test-retest-t2"},{"view_history":"[{\"page_index\":0,\"viewing_time\":42769.75500001572},{\"page_index\":1,\"viewing_time\":1818.440000002738}]","rt":44589.32999998797,"trial_type":"pit-instructions","trial_index":77,"time_elapsed":481189,"internal_node_id":"0.0-66.0","task_version":"test-retest-t2"},{"Rune":"rune_03_othalan","Hex":"#3366ff99","Correct":32,"Choice":32,"RT":637.0049999677576,"Accuracy":1,"Outcome":"-1","Keys":[2137.235000031069],"TotalKeys":1,"Block":1,"Trial":61,"Robot":3,"Valence":"Lose","Action":"Go","Sham":0,"Color":"blue","trial_type":"pit-trial","trial_index":78,"time_elapsed":484355,"internal_node_id":"0.0-67.0","task_version":"test-retest-t2"},{"Rune":"rune_03_naudiz","Hex":"#ffcc3399","Correct":32,"Choice":-1,"RT":-1,"Accuracy":0,"Outcome":"+1","Keys":[3216.714999987744],"TotalKeys":1,"Block":1,"Trial":62,"Robot":1,"Valence":"Win","Action":"Go","Sham":0,"Color":"yellow","trial_type":"pit-trial","trial_index":79,"time_elapsed":488372,"internal_node_id":"0.0-68.0","task_version":"test-retest-t2"},{"Rune":"rune_03_uruz","Hex":"#3366ff99","Correct":-1,"Choice":-1,"RT":-1,"Accuracy":1,"Outcome":"-1","Keys":[],"TotalKeys":0,"Block":1,"Trial":63,"Robot":4,"Valence":"Lose","Action":"No-Go","Sham":0,"Color":"blue","trial_type":"pit-trial","trial_index":80,"time_elapsed":492387,"internal_node_id":"0.0-69.0","task_version":"test-retest-t2"},{"Rune":"rune_03_algiz","Hex":"#ffcc3399","Correct":-1,"Choice":-1,"RT":-1,"Accuracy":1,"Outcome":"+10","Keys":[],"TotalKeys":0,"Block":1,"Trial":64,"Robot":2,"Valence":"Win","Action":"No-Go","Sham":0,"Color":"yellow","trial_type":"pit-trial","trial_index":81,"time_elapsed":496402,"internal_node_id":"0.0-70.0","task_version":"test-retest-t2"},{"Rune":"rune_03_algiz","Hex":"#ffcc3399","Correct":-1,"Choice":-1,"RT":-1,"Accuracy":1,"Outcome":"+10","Keys":[],"TotalKeys":0,"Block":1,"Trial":65,"Robot":2,"Valence":"Win","Action":"No-Go","Sham":0,"Color":"yellow","trial_type":"pit-trial","trial_index":82,"time_elapsed":500419,"internal_node_id":"0.0-71.0","task_version":"test-retest-t2"},{"Rune":"rune_03_othalan","Hex":"#3366ff99","Correct":32,"Choice":32,"RT":496.1100000073202,"Accuracy":1,"Outcome":"-1","Keys":[1996.8450000160374],"TotalKeys":1,"Block":1,"Trial":66,"Robot":3,"Valence":"Lose","Action":"Go","Sham":0,"Color":"blue","trial_type":"pit-trial","trial_index":83,"time_elapsed":503431,"internal_node_id":"0.0-72.0","task_version":"test-retest-t2"},{"Rune":"rune_03_uruz","Hex":"#3366ff99","Correct":-1,"Choice":-1,"RT":-1,"Accuracy":1,"Outcome":"-1","Keys":[],"TotalKeys":0,"Block":1,"Trial":67,"Robot":4,"Valence":"Lose","Action":"No-Go","Sham":0,"Color":"blue","trial_type":"pit-trial","trial_index":84,"time_elapsed":507448,"internal_node_id":"0.0-73.0","task_version":"test-retest-t2"},{"Rune":"rune_03_naudiz","Hex":"#ffcc3399","Correct":32,"Choice":32,"RT":530.1299999700859,"Accuracy":1,"Outcome":"+10","Keys":[2031.844999990426],"TotalKeys":1,"Block":1,"Trial":68,"Robot":1,"Valence":"Win","Action":"Go","Sham":0,"Color":"yellow","trial_type":"pit-trial","trial_index":85,"time_elapsed":510494,"internal_node_id":"0.0-74.0","task_version":"test-retest-t2"},{"Rune":"rune_03_naudiz","Hex":"#ffcc3399","Correct":32,"Choice":32,"RT":705.1549999741837,"Accuracy":1,"Outcome":"+1","Keys":[2206.9699999992736],"TotalKeys":1,"Block":1,"Trial":69,"Robot":1,"Valence":"Win","Action":"Go","Sham":1,"Color":"yellow","trial_type":"pit-trial","trial_index":86,"time_elapsed":513717,"internal_node_id":"0.0-75.0","task_version":"test-retest-t2"},{"Rune":"rune_03_uruz","Hex":"#3366ff99","Correct":-1,"Choice":-1,"RT":-1,"Accuracy":1,"Outcome":"-1","Keys":[],"TotalKeys":0,"Block":1,"Trial":70,"Robot":4,"Valence":"Lose","Action":"No-Go","Sham":0,"Color":"blue","trial_type":"pit-trial","trial_index":87,"time_elapsed":517734,"internal_node_id":"0.0-76.0","task_version":"test-retest-t2"},{"Rune":"rune_03_algiz","Hex":"#ffcc3399","Correct":-1,"Choice":-1,"RT":-1,"Accuracy":1,"Outcome":"+10","Keys":[],"TotalKeys":0,"Block":1,"Trial":71,"Robot":2,"Valence":"Win","Action":"No-Go","Sham":0,"Color":"yellow","trial_type":"pit-trial","trial_index":88,"time_elapsed":521750,"internal_node_id":"0.0-77.0","task_version":"test-retest-t2"},{"Rune":"rune_03_othalan","Hex":"#3366ff99","Correct":32,"Choice":32,"RT":652.7500000083819,"Accuracy":1,"Outcome":"-10","Keys":[2154.5599999953993],"TotalKeys":1,"Block":1,"Trial":72,"Robot":3,"Valence":"Lose","Action":"Go","Sham":1,"Color":"blue","trial_type":"pit-trial","trial_index":89,"time_elapsed":524920,"internal_node_id":"0.0-78.0","task_version":"test-retest-t2"},{"Rune":"rune_03_othalan","Hex":"#3366ff99","Correct":32,"Choice":32,"RT":629.7499999636784,"Accuracy":1,"Outcome":"-1","Keys":[2131.1749999877065],"TotalKeys":1,"Block":1,"Trial":73,"Robot":3,"Valence":"Lose","Action":"Go","Sham":0,"Color":"blue","trial_type":"pit-trial","trial_index":90,"time_elapsed":528069,"internal_node_id":"0.0-79.0","task_version":"test-retest-t2"},{"Rune":"rune_03_uruz","Hex":"#3366ff99","Correct":-1,"Choice":-1,"RT":-1,"Accuracy":1,"Outcome":"-1","Keys":[],"TotalKeys":0,"Block":1,"Trial":74,"Robot":4,"Valence":"Lose","Action":"No-Go","Sham":0,"Color":"blue","trial_type":"pit-trial","trial_index":91,"time_elapsed":532086,"internal_node_id":"0.0-80.0","task_version":"test-retest-t2"},{"Rune":"rune_03_naudiz","Hex":"#ffcc3399","Correct":32,"Choice":32,"RT":827.0299999858253,"Accuracy":1,"Outcome":"+10","Keys":[2328.559999994468],"TotalKeys":1,"Block":1,"Trial":75,"Robot":1,"Valence":"Win","Action":"Go","Sham":0,"Color":"yellow","trial_type":"pit-trial","trial_index":92,"time_elapsed":535430,"internal_node_id":"0.0-81.0","task_version":"test-retest-t2"},{"Rune":"rune_03_algiz","Hex":"#ffcc3399","Correct":-1,"Choice":-1,"RT":-1,"Accuracy":1,"Outcome":"+1","Keys":[],"TotalKeys":0,"Block":1,"Trial":76,"Robot":2,"Valence":"Win","Action":"No-Go","Sham":1,"Color":"yellow","trial_type":"pit-trial","trial_index":93,"time_elapsed":539445,"internal_node_id":"0.0-82.0","task_version":"test-retest-t2"},{"Rune":"rune_03_othalan","Hex":"#3366ff99","Correct":32,"Choice":32,"RT":871.1550000007264,"Accuracy":1,"Outcome":"-1","Keys":[2371.355000010226],"TotalKeys":1,"Block":1,"Trial":77,"Robot":3,"Valence":"Lose","Action":"Go","Sham":0,"Color":"blue","trial_type":"pit-trial","trial_index":94,"time_elapsed":542832,"internal_node_id":"0.0-83.0","task_version":"test-retest-t2"},{"Rune":"rune_03_algiz","Hex":"#ffcc3399","Correct":-1,"Choice":-1,"RT":-1,"Accuracy":1,"Outcome":"+10","Keys":[],"TotalKeys":0,"Block":1,"Trial":78,"Robot":2,"Valence":"Win","Action":"No-Go","Sham":0,"Color":"yellow","trial_type":"pit-trial","trial_index":95,"time_elapsed":546849,"internal_node_id":"0.0-84.0","task_version":"test-retest-t2"},{"Rune":"rune_03_uruz","Hex":"#3366ff99","Correct":-1,"Choice":-1,"RT":-1,"Accuracy":1,"Outcome":"-10","Keys":[],"TotalKeys":0,"Block":1,"Trial":79,"Robot":4,"Valence":"Lose","Action":"No-Go","Sham":1,"Color":"blue","trial_type":"pit-trial","trial_index":96,"time_elapsed":550865,"internal_node_id":"0.0-85.0","task_version":"test-retest-t2"},{"Rune":"rune_03_naudiz","Hex":"#ffcc3399","Correct":32,"Choice":32,"RT":582.8849999816157,"Accuracy":1,"Outcome":"+10","Keys":[2083.024999999907],"TotalKeys":1,"Block":1,"Trial":80,"Robot":1,"Valence":"Win","Action":"Go","Sham":0,"Color":"yellow","trial_type":"pit-trial","trial_index":97,"time_elapsed":553963,"internal_node_id":"0.0-86.0","task_version":"test-retest-t2"},{"Rune":"rune_03_naudiz","Hex":"#ffcc3399","Correct":32,"Choice":32,"RT":554.8699999926612,"Accuracy":1,"Outcome":"+10","Keys":[2055.755000037607],"TotalKeys":1,"Block":1,"Trial":81,"Robot":1,"Valence":"Win","Action":"Go","Sham":0,"Color":"yellow","trial_type":"pit-trial","trial_index":98,"time_elapsed":557035,"internal_node_id":"0.0-87.0","task_version":"test-retest-t2"},{"Rune":"rune_03_othalan","Hex":"#3366ff99","Correct":32,"Choice":32,"RT":478.20000001229346,"Accuracy":1,"Outcome":"-1","Keys":[1979.04499998549],"TotalKeys":1,"Block":1,"Trial":82,"Robot":3,"Valence":"Lose","Action":"Go","Sham":0,"Color":"blue","trial_type":"pit-trial","trial_index":99,"time_elapsed":560030,"internal_node_id":"0.0-88.0","task_version":"test-retest-t2"},{"Rune":"rune_03_algiz","Hex":"#ffcc3399","Correct":-1,"Choice":-1,"RT":-1,"Accuracy":1,"Outcome":"+10","Keys":[],"TotalKeys":0,"Block":1,"Trial":83,"Robot":2,"Valence":"Win","Action":"No-Go","Sham":0,"Color":"yellow","trial_type":"pit-trial","trial_index":100,"time_elapsed":564046,"internal_node_id":"0.0-89.0","task_version":"test-retest-t2"},{"Rune":"rune_03_uruz","Hex":"#3366ff99","Correct":-1,"Choice":-1,"RT":-1,"Accuracy":1,"Outcome":"-1","Keys":[],"TotalKeys":0,"Block":1,"Trial":84,"Robot":4,"Valence":"Lose","Action":"No-Go","Sham":0,"Color":"blue","trial_type":"pit-trial","trial_index":101,"time_elapsed":568067,"internal_node_id":"0.0-90.0","task_version":"test-retest-t2"},{"Rune":"rune_03_uruz","Hex":"#3366ff99","Correct":-1,"Choice":-1,"RT":-1,"Accuracy":1,"Outcome":"-10","Keys":[],"TotalKeys":0,"Block":1,"Trial":85,"Robot":4,"Valence":"Lose","Action":"No-Go","Sham":1,"Color":"blue","trial_type":"pit-trial","trial_index":102,"time_elapsed":572083,"internal_node_id":"0.0-91.0","task_version":"test-retest-t2"},{"Rune":"rune_03_othalan","Hex":"#3366ff99","Correct":32,"Choice":32,"RT":566.5250000311062,"Accuracy":1,"Outcome":"-1","Keys":[2068.420000025071],"TotalKeys":1,"Block":1,"Trial":86,"Robot":3,"Valence":"Lose","Action":"Go","Sham":0,"Color":"blue","trial_type":"pit-trial","trial_index":103,"time_elapsed":575167,"internal_node_id":"0.0-92.0","task_version":"test-retest-t2"},{"Rune":"rune_03_naudiz","Hex":"#ffcc3399","Correct":32,"Choice":32,"RT":609.7350000054576,"Accuracy":1,"Outcome":"+1","Keys":[2110.0050000241026],"TotalKeys":1,"Block":1,"Trial":87,"Robot":1,"Valence":"Win","Action":"Go","Sham":1,"Color":"yellow","trial_type":"pit-trial","trial_index":104,"time_elapsed":578294,"internal_node_id":"0.0-93.0","task_version":"test-retest-t2"},{"Rune":"rune_03_algiz","Hex":"#ffcc3399","Correct":-1,"Choice":-1,"RT":-1,"Accuracy":1,"Outcome":"+10","Keys":[],"TotalKeys":0,"Block":1,"Trial":88,"Robot":2,"Valence":"Win","Action":"No-Go","Sham":0,"Color":"yellow","trial_type":"pit-trial","trial_index":105,"time_elapsed":582311,"internal_node_id":"0.0-94.0","task_version":"test-retest-t2"},{"Rune":"rune_03_uruz","Hex":"#3366ff99","Correct":-1,"Choice":-1,"RT":-1,"Accuracy":1,"Outcome":"-1","Keys":[],"TotalKeys":0,"Block":1,"Trial":89,"Robot":4,"Valence":"Lose","Action":"No-Go","Sham":0,"Color":"blue","trial_type":"pit-trial","trial_index":106,"time_elapsed":586327,"internal_node_id":"0.0-95.0","task_version":"test-retest-t2"},{"Rune":"rune_03_naudiz","Hex":"#ffcc3399","Correct":32,"Choice":32,"RT":685.6100000441074,"Accuracy":1,"Outcome":"+10","Keys":[2185.7549999840558],"TotalKeys":1,"Block":1,"Trial":90,"Robot":1,"Valence":"Win","Action":"Go","Sham":0,"Color":"yellow","trial_type":"pit-trial","trial_index":107,"time_elapsed":589528,"internal_node_id":"0.0-96.0","task_version":"test-retest-t2"},{"Rune":"rune_03_othalan","Hex":"#3366ff99","Correct":32,"Choice":32,"RT":496.79000000469387,"Accuracy":1,"Outcome":"-1","Keys":[1997.7150000049733],"TotalKeys":1,"Block":1,"Trial":91,"Robot":3,"Valence":"Lose","Action":"Go","Sham":0,"Color":"blue","trial_type":"pit-trial","trial_index":108,"time_elapsed":592542,"internal_node_id":"0.0-97.0","task_version":"test-retest-t2"},{"Rune":"rune_03_algiz","Hex":"#ffcc3399","Correct":-1,"Choice":-1,"RT":-1,"Accuracy":1,"Outcome":"+10","Keys":[],"TotalKeys":0,"Block":1,"Trial":92,"Robot":2,"Valence":"Win","Action":"No-Go","Sham":0,"Color":"yellow","trial_type":"pit-trial","trial_index":109,"time_elapsed":596559,"internal_node_id":"0.0-98.0","task_version":"test-retest-t2"},{"Rune":"rune_03_othalan","Hex":"#3366ff99","Correct":32,"Choice":32,"RT":490.9099999931641,"Accuracy":1,"Outcome":"-10","Keys":[1991.1900000297464],"TotalKeys":1,"Block":1,"Trial":93,"Robot":3,"Valence":"Lose","Action":"Go","Sham":1,"Color":"blue","trial_type":"pit-trial","trial_index":110,"time_elapsed":599566,"internal_node_id":"0.0-99.0","task_version":"test-retest-t2"},{"Rune":"rune_03_naudiz","Hex":"#ffcc3399","Correct":32,"Choice":32,"RT":419.3199999863282,"Accuracy":1,"Outcome":"+10","Keys":[1919.6349999983795],"TotalKeys":1,"Block":1,"Trial":94,"Robot":1,"Valence":"Win","Action":"Go","Sham":0,"Color":"yellow","trial_type":"pit-trial","trial_index":111,"time_elapsed":602502,"internal_node_id":"0.0-100.0","task_version":"test-retest-t2"},{"Rune":"rune_03_uruz","Hex":"#3366ff99","Correct":-1,"Choice":-1,"RT":-1,"Accuracy":1,"Outcome":"-1","Keys":[],"TotalKeys":0,"Block":1,"Trial":95,"Robot":4,"Valence":"Lose","Action":"No-Go","Sham":0,"Color":"blue","trial_type":"pit-trial","trial_index":112,"time_elapsed":606850,"internal_node_id":"0.0-101.0","task_version":"test-retest-t2"},{"Rune":"rune_03_algiz","Hex":"#ffcc3399","Correct":-1,"Choice":-1,"RT":-1,"Accuracy":1,"Outcome":"+1","Keys":[],"TotalKeys":0,"Block":1,"Trial":96,"Robot":2,"Valence":"Win","Action":"No-Go","Sham":1,"Color":"yellow","trial_type":"pit-trial","trial_index":113,"time_elapsed":610871,"internal_node_id":"0.0-102.0","task_version":"test-retest-t2"},{"Rune":"rune_03_othalan","Hex":"#3366ff99","Correct":32,"Choice":32,"RT":466.565000009723,"Accuracy":1,"Outcome":"-1","Keys":[1967.0650000334717],"TotalKeys":1,"Block":1,"Trial":97,"Robot":3,"Valence":"Lose","Action":"Go","Sham":0,"Color":"blue","trial_type":"pit-trial","trial_index":114,"time_elapsed":613854,"internal_node_id":"0.0-103.0","task_version":"test-retest-t2"},{"Rune":"rune_03_algiz","Hex":"#ffcc3399","Correct":-1,"Choice":-1,"RT":-1,"Accuracy":1,"Outcome":"+10","Keys":[],"TotalKeys":0,"Block":1,"Trial":98,"Robot":2,"Valence":"Win","Action":"No-Go","Sham":0,"Color":"yellow","trial_type":"pit-trial","trial_index":115,"time_elapsed":617864,"internal_node_id":"0.0-104.0","task_version":"test-retest-t2"},{"Rune":"rune_03_naudiz","Hex":"#ffcc3399","Correct":32,"Choice":32,"RT":356.38000001199543,"Accuracy":1,"Outcome":"+10","Keys":[1857.770000002347],"TotalKeys":1,"Block":1,"Trial":99,"Robot":1,"Valence":"Win","Action":"Go","Sham":0,"Color":"yellow","trial_type":"pit-trial","trial_index":116,"time_elapsed":620737,"internal_node_id":"0.0-105.0","task_version":"test-retest-t2"},{"Rune":"rune_03_uruz","Hex":"#3366ff99","Correct":-1,"Choice":-1,"RT":-1,"Accuracy":1,"Outcome":"-1","Keys":[],"TotalKeys":0,"Block":1,"Trial":100,"Robot":4,"Valence":"Lose","Action":"No-Go","Sham":0,"Color":"blue","trial_type":"pit-trial","trial_index":117,"time_elapsed":624754,"internal_node_id":"0.0-106.0","task_version":"test-retest-t2"},{"Rune":"rune_03_naudiz","Hex":"#ffcc3399","Correct":32,"Choice":32,"RT":447.85500003490597,"Accuracy":1,"Outcome":"+10","Keys":[1948.740000021644],"TotalKeys":1,"Block":1,"Trial":101,"Robot":1,"Valence":"Win","Action":"Go","Sham":0,"Color":"yellow","trial_type":"pit-trial","trial_index":118,"time_elapsed":627718,"internal_node_id":"0.0-107.0","task_version":"test-retest-t2"},{"Rune":"rune_03_othalan","Hex":"#3366ff99","Correct":32,"Choice":32,"RT":416.94000002462417,"Accuracy":1,"Outcome":"-1","Keys":[1918.1100000278093],"TotalKeys":1,"Block":1,"Trial":102,"Robot":3,"Valence":"Lose","Action":"Go","Sham":0,"Color":"blue","trial_type":"pit-trial","trial_index":119,"time_elapsed":630652,"internal_node_id":"0.0-108.0","task_version":"test-retest-t2"},{"Rune":"rune_03_algiz","Hex":"#ffcc3399","Correct":-1,"Choice":-1,"RT":-1,"Accuracy":1,"Outcome":"+1","Keys":[],"TotalKeys":0,"Block":1,"Trial":103,"Robot":2,"Valence":"Win","Action":"No-Go","Sham":1,"Color":"yellow","trial_type":"pit-trial","trial_index":120,"time_elapsed":634669,"internal_node_id":"0.0-109.0","task_version":"test-retest-t2"},{"Rune":"rune_03_uruz","Hex":"#3366ff99","Correct":-1,"Choice":-1,"RT":-1,"Accuracy":1,"Outcome":"-1","Keys":[],"TotalKeys":0,"Block":1,"Trial":104,"Robot":4,"Valence":"Lose","Action":"No-Go","Sham":0,"Color":"blue","trial_type":"pit-trial","trial_index":121,"time_elapsed":638684,"internal_node_id":"0.0-110.0","task_version":"test-retest-t2"},{"Rune":"rune_03_uruz","Hex":"#3366ff99","Correct":-1,"Choice":-1,"RT":-1,"Accuracy":1,"Outcome":"-1","Keys":[],"TotalKeys":0,"Block":1,"Trial":105,"Robot":4,"Valence":"Lose","Action":"No-Go","Sham":0,"Color":"blue","trial_type":"pit-trial","trial_index":122,"time_elapsed":642700,"internal_node_id":"0.0-111.0","task_version":"test-retest-t2"},{"Rune":"rune_03_algiz","Hex":"#ffcc3399","Correct":-1,"Choice":-1,"RT":-1,"Accuracy":1,"Outcome":"+10","Keys":[],"TotalKeys":0,"Block":1,"Trial":106,"Robot":2,"Valence":"Win","Action":"No-Go","Sham":0,"Color":"yellow","trial_type":"pit-trial","trial_index":123,"time_elapsed":646717,"internal_node_id":"0.0-112.0","task_version":"test-retest-t2"},{"Rune":"rune_03_naudiz","Hex":"#ffcc3399","Correct":32,"Choice":32,"RT":408.79999997559935,"Accuracy":1,"Outcome":"+1","Keys":[1909.8499999963678],"TotalKeys":1,"Block":1,"Trial":107,"Robot":1,"Valence":"Win","Action":"Go","Sham":1,"Color":"yellow","trial_type":"pit-trial","trial_index":124,"time_elapsed":649642,"internal_node_id":"0.0-113.0","task_version":"test-retest-t2"},{"Rune":"rune_03_othalan","Hex":"#3366ff99","Correct":32,"Choice":32,"RT":295.5450000008568,"Accuracy":1,"Outcome":"-1","Keys":[1796.9300000113435],"TotalKeys":1,"Block":1,"Trial":108,"Robot":3,"Valence":"Lose","Action":"Go","Sham":0,"Color":"blue","trial_type":"pit-trial","trial_index":125,"time_elapsed":652456,"internal_node_id":"0.0-114.0","task_version":"test-retest-t2"},{"Rune":"rune_03_algiz","Hex":"#ffcc3399","Correct":-1,"Choice":-1,"RT":-1,"Accuracy":1,"Outcome":"+10","Keys":[],"TotalKeys":0,"Block":1,"Trial":109,"Robot":2,"Valence":"Win","Action":"No-Go","Sham":0,"Color":"yellow","trial_type":"pit-trial","trial_index":126,"time_elapsed":656474,"internal_node_id":"0.0-115.0","task_version":"test-retest-t2"},{"Rune":"rune_03_naudiz","Hex":"#ffcc3399","Correct":32,"Choice":32,"RT":630.1749999984168,"Accuracy":1,"Outcome":"+10","Keys":[2130.60500001302],"TotalKeys":1,"Block":1,"Trial":110,"Robot":1,"Valence":"Win","Action":"Go","Sham":0,"Color":"yellow","trial_type":"pit-trial","trial_index":127,"time_elapsed":659620,"internal_node_id":"0.0-116.0","task_version":"test-retest-t2"},{"Rune":"rune_03_othalan","Hex":"#3366ff99","Correct":32,"Choice":32,"RT":469.71999999368563,"Accuracy":1,"Outcome":"-1","Keys":[1969.905000005383],"TotalKeys":1,"Block":1,"Trial":111,"Robot":3,"Valence":"Lose","Action":"Go","Sham":0,"Color":"blue","trial_type":"pit-trial","trial_index":128,"time_elapsed":662607,"internal_node_id":"0.0-117.0","task_version":"test-retest-t2"},{"Rune":"rune_03_uruz","Hex":"#3366ff99","Correct":-1,"Choice":-1,"RT":-1,"Accuracy":1,"Outcome":"-10","Keys":[],"TotalKeys":0,"Block":1,"Trial":112,"Robot":4,"Valence":"Lose","Action":"No-Go","Sham":1,"Color":"blue","trial_type":"pit-trial","trial_index":129,"time_elapsed":666625,"internal_node_id":"0.0-118.0","task_version":"test-retest-t2"},{"Rune":"rune_03_uruz","Hex":"#3366ff99","Correct":-1,"Choice":-1,"RT":-1,"Accuracy":1,"Outcome":"-1","Keys":[],"TotalKeys":0,"Block":1,"Trial":113,"Robot":4,"Valence":"Lose","Action":"No-Go","Sham":0,"Color":"blue","trial_type":"pit-trial","trial_index":130,"time_elapsed":670641,"internal_node_id":"0.0-119.0","task_version":"test-retest-t2"},{"Rune":"rune_03_algiz","Hex":"#ffcc3399","Correct":-1,"Choice":-1,"RT":-1,"Accuracy":1,"Outcome":"+10","Keys":[],"TotalKeys":0,"Block":1,"Trial":114,"Robot":2,"Valence":"Win","Action":"No-Go","Sham":0,"Color":"yellow","trial_type":"pit-trial","trial_index":131,"time_elapsed":674652,"internal_node_id":"0.0-120.0","task_version":"test-retest-t2"},{"Rune":"rune_03_naudiz","Hex":"#ffcc3399","Correct":32,"Choice":32,"RT":461.1649999860674,"Accuracy":1,"Outcome":"+10","Keys":[1961.4399999845773],"TotalKeys":1,"Block":1,"Trial":115,"Robot":1,"Valence":"Win","Action":"Go","Sham":0,"Color":"yellow","trial_type":"pit-trial","trial_index":132,"time_elapsed":677621,"internal_node_id":"0.0-121.0","task_version":"test-retest-t2"},{"Rune":"rune_03_othalan","Hex":"#3366ff99","Correct":32,"Choice":32,"RT":443.6850000056438,"Accuracy":1,"Outcome":"-1","Keys":[1944.2099999869242],"TotalKeys":1,"Block":1,"Trial":116,"Robot":3,"Valence":"Lose","Action":"Go","Sham":0,"Color":"blue","trial_type":"pit-trial","trial_index":133,"time_elapsed":680573,"internal_node_id":"0.0-122.0","task_version":"test-retest-t2"},{"Rune":"rune_03_othalan","Hex":"#3366ff99","Correct":32,"Choice":32,"RT":654.1850000503473,"Accuracy":1,"Outcome":"-10","Keys":[2155.064999999013],"TotalKeys":1,"Block":1,"Trial":117,"Robot":3,"Valence":"Lose","Action":"Go","Sham":1,"Color":"blue","trial_type":"pit-trial","trial_index":134,"time_elapsed":683735,"internal_node_id":"0.0-123.0","task_version":"test-retest-t2"},{"Rune":"rune_03_uruz","Hex":"#3366ff99","Correct":-1,"Choice":-1,"RT":-1,"Accuracy":1,"Outcome":"-1","Keys":[],"TotalKeys":0,"Block":1,"Trial":118,"Robot":4,"Valence":"Lose","Action":"No-Go","Sham":0,"Color":"blue","trial_type":"pit-trial","trial_index":135,"time_elapsed":687751,"internal_node_id":"0.0-124.0","task_version":"test-retest-t2"},{"Rune":"rune_03_naudiz","Hex":"#ffcc3399","Correct":32,"Choice":32,"RT":315.0749999913387,"Accuracy":1,"Outcome":"+10","Keys":[1816.1749999853782],"TotalKeys":1,"Block":1,"Trial":119,"Robot":1,"Valence":"Win","Action":"Go","Sham":0,"Color":"yellow","trial_type":"pit-trial","trial_index":136,"time_elapsed":690582,"internal_node_id":"0.0-125.0","task_version":"test-retest-t2"},{"Rune":"rune_03_algiz","Hex":"#ffcc3399","Correct":-1,"Choice":-1,"RT":-1,"Accuracy":1,"Outcome":"+10","Keys":[],"TotalKeys":0,"Block":1,"Trial":120,"Robot":2,"Valence":"Win","Action":"No-Go","Sham":0,"Color":"yellow","trial_type":"pit-trial","trial_index":137,"time_elapsed":694599,"internal_node_id":"0.0-126.0","task_version":"test-retest-t2"},{"view_history":"[{\"page_index\":0,\"viewing_time\":39944.200000027195},{\"page_index\":1,\"viewing_time\":11941.285000008065},{\"page_index\":2,\"viewing_time\":1385.7999999891035}]","rt":53271.89500001259,"trial_type":"pit-instructions","trial_index":138,"time_elapsed":747884,"internal_node_id":"0.0-127.0","task_version":"test-retest-t2"},{"Rune":"rune_04_iwaz","Hex":"#3366ff99","Correct":32,"Choice":32,"RT":504.63500001933426,"Accuracy":1,"Outcome":"-1","Keys":[2006.359999999404],"TotalKeys":1,"Block":2,"Trial":121,"Robot":3,"Valence":"Lose","Action":"Go","Sham":0,"Color":"blue","trial_type":"pit-trial","trial_index":139,"time_elapsed":750904,"internal_node_id":"0.0-128.0","task_version":"test-retest-t2"},{"Rune":"rune_04_dagaz","Hex":"#ffcc3399","Correct":32,"Choice":-1,"RT":-1,"Accuracy":0,"Outcome":"+10","Keys":[],"TotalKeys":0,"Block":2,"Trial":122,"Robot":1,"Valence":"Win","Action":"Go","Sham":1,"Color":"yellow","trial_type":"pit-trial","trial_index":140,"time_elapsed":754920,"internal_node_id":"0.0-129.0","task_version":"test-retest-t2"},{"Rune":"rune_04_wunjo","Hex":"#ffcc3399","Correct":-1,"Choice":32,"RT":907.3400000343099,"Accuracy":0,"Outcome":"+10","Keys":[2408.174999989569],"TotalKeys":1,"Block":2,"Trial":123,"Robot":2,"Valence":"Win","Action":"No-Go","Sham":1,"Color":"yellow","trial_type":"pit-trial","trial_index":141,"time_elapsed":758345,"internal_node_id":"0.0-130.0","task_version":"test-retest-t2"},{"Rune":"rune_04_ac","Hex":"#3366ff99","Correct":-1,"Choice":-1,"RT":-1,"Accuracy":1,"Outcome":"-1","Keys":[],"TotalKeys":0,"Block":2,"Trial":124,"Robot":4,"Valence":"Lose","Action":"No-Go","Sham":0,"Color":"blue","trial_type":"pit-trial","trial_index":142,"time_elapsed":762360,"internal_node_id":"0.0-131.0","task_version":"test-retest-t2"},{"Rune":"rune_04_wunjo","Hex":"#ffcc3399","Correct":-1,"Choice":32,"RT":764.339999994263,"Accuracy":0,"Outcome":"+1","Keys":[2266.07499999227],"TotalKeys":1,"Block":2,"Trial":125,"Robot":2,"Valence":"Win","Action":"No-Go","Sham":0,"Color":"yellow","trial_type":"pit-trial","trial_index":143,"time_elapsed":765642,"internal_node_id":"0.0-132.0","task_version":"test-retest-t2"},{"Rune":"rune_04_iwaz","Hex":"#3366ff99","Correct":32,"Choice":32,"RT":367.45000001974404,"Accuracy":1,"Outcome":"-1","Keys":[1867.95499996515],"TotalKeys":1,"Block":2,"Trial":126,"Robot":3,"Valence":"Lose","Action":"Go","Sham":0,"Color":"blue","trial_type":"pit-trial","trial_index":144,"time_elapsed":768527,"internal_node_id":"0.0-133.0","task_version":"test-retest-t2"},{"Rune":"rune_04_ac","Hex":"#3366ff99","Correct":-1,"Choice":-1,"RT":-1,"Accuracy":1,"Outcome":"-1","Keys":[],"TotalKeys":0,"Block":2,"Trial":127,"Robot":4,"Valence":"Lose","Action":"No-Go","Sham":0,"Color":"blue","trial_type":"pit-trial","trial_index":145,"time_elapsed":772548,"internal_node_id":"0.0-134.0","task_version":"test-retest-t2"},{"Rune":"rune_04_dagaz","Hex":"#ffcc3399","Correct":32,"Choice":-1,"RT":-1,"Accuracy":0,"Outcome":"+1","Keys":[],"TotalKeys":0,"Block":2,"Trial":128,"Robot":1,"Valence":"Win","Action":"Go","Sham":0,"Color":"yellow","trial_type":"pit-trial","trial_index":146,"time_elapsed":776564,"internal_node_id":"0.0-135.0","task_version":"test-retest-t2"},{"Rune":"rune_04_iwaz","Hex":"#3366ff99","Correct":32,"Choice":32,"RT":770.2649999991991,"Accuracy":1,"Outcome":"-1","Keys":[2271.1550000240095],"TotalKeys":1,"Block":2,"Trial":129,"Robot":3,"Valence":"Lose","Action":"Go","Sham":0,"Color":"blue","trial_type":"pit-trial","trial_index":147,"time_elapsed":779851,"internal_node_id":"0.0-136.0","task_version":"test-retest-t2"},{"Rune":"rune_04_ac","Hex":"#3366ff99","Correct":-1,"Choice":-1,"RT":-1,"Accuracy":1,"Outcome":"-10","Keys":[],"TotalKeys":0,"Block":2,"Trial":130,"Robot":4,"Valence":"Lose","Action":"No-Go","Sham":1,"Color":"blue","trial_type":"pit-trial","trial_index":148,"time_elapsed":783868,"internal_node_id":"0.0-137.0","task_version":"test-retest-t2"},{"Rune":"rune_04_wunjo","Hex":"#ffcc3399","Correct":-1,"Choice":32,"RT":410.3200000245124,"Accuracy":0,"Outcome":"+1","Keys":[1912.354999978561],"TotalKeys":1,"Block":2,"Trial":131,"Robot":2,"Valence":"Win","Action":"No-Go","Sham":0,"Color":"yellow","trial_type":"pit-trial","trial_index":149,"time_elapsed":786796,"internal_node_id":"0.0-138.0","task_version":"test-retest-t2"},{"Rune":"rune_04_dagaz","Hex":"#ffcc3399","Correct":32,"Choice":-1,"RT":-1,"Accuracy":0,"Outcome":"+1","Keys":[],"TotalKeys":0,"Block":2,"Trial":132,"Robot":1,"Valence":"Win","Action":"Go","Sham":0,"Color":"yellow","trial_type":"pit-trial","trial_index":150,"time_elapsed":790812,"internal_node_id":"0.0-139.0","task_version":"test-retest-t2"},{"Rune":"rune_04_dagaz","Hex":"#ffcc3399","Correct":32,"Choice":-1,"RT":-1,"Accuracy":0,"Outcome":"+1","Keys":[],"TotalKeys":0,"Block":2,"Trial":133,"Robot":1,"Valence":"Win","Action":"Go","Sham":0,"Color":"yellow","trial_type":"pit-trial","trial_index":151,"time_elapsed":794828,"internal_node_id":"0.0-140.0","task_version":"test-retest-t2"},{"Rune":"rune_04_wunjo","Hex":"#ffcc3399","Correct":-1,"Choice":32,"RT":694.0150000154972,"Accuracy":0,"Outcome":"+1","Keys":[2195.110000029672],"TotalKeys":1,"Block":2,"Trial":134,"Robot":2,"Valence":"Win","Action":"No-Go","Sham":0,"Color":"yellow","trial_type":"pit-trial","trial_index":152,"time_elapsed":798039,"internal_node_id":"0.0-141.0","task_version":"test-retest-t2"},{"Rune":"rune_04_iwaz","Hex":"#3366ff99","Correct":32,"Choice":-1,"RT":-1,"Accuracy":0,"Outcome":"-10","Keys":[],"TotalKeys":0,"Block":2,"Trial":135,"Robot":3,"Valence":"Lose","Action":"Go","Sham":0,"Color":"blue","trial_type":"pit-trial","trial_index":153,"time_elapsed":802055,"internal_node_id":"0.0-142.0","task_version":"test-retest-t2"},{"Rune":"rune_04_ac","Hex":"#3366ff99","Correct":-1,"Choice":-1,"RT":-1,"Accuracy":1,"Outcome":"-1","Keys":[],"TotalKeys":0,"Block":2,"Trial":136,"Robot":4,"Valence":"Lose","Action":"No-Go","Sham":0,"Color":"blue","trial_type":"pit-trial","trial_index":154,"time_elapsed":806072,"internal_node_id":"0.0-143.0","task_version":"test-retest-t2"},{"Rune":"rune_04_wunjo","Hex":"#ffcc3399","Correct":-1,"Choice":-1,"RT":-1,"Accuracy":1,"Outcome":"+10","Keys":[],"TotalKeys":0,"Block":2,"Trial":137,"Robot":2,"Valence":"Win","Action":"No-Go","Sham":0,"Color":"yellow","trial_type":"pit-trial","trial_index":155,"time_elapsed":810090,"internal_node_id":"0.0-144.0","task_version":"test-retest-t2"},{"Rune":"rune_04_iwaz","Hex":"#3366ff99","Correct":32,"Choice":32,"RT":1360.2200000314042,"Accuracy":1,"Outcome":"-10","Keys":[2860.670000023674],"TotalKeys":1,"Block":2,"Trial":138,"Robot":3,"Valence":"Lose","Action":"Go","Sham":1,"Color":"blue","trial_type":"pit-trial","trial_index":156,"time_elapsed":813966,"internal_node_id":"0.0-145.0","task_version":"test-retest-t2"},{"Rune":"rune_04_ac","Hex":"#3366ff99","Correct":-1,"Choice":-1,"RT":-1,"Accuracy":1,"Outcome":"-1","Keys":[],"TotalKeys":0,"Block":2,"Trial":139,"Robot":4,"Valence":"Lose","Action":"No-Go","Sham":0,"Color":"blue","trial_type":"pit-trial","trial_index":157,"time_elapsed":817982,"internal_node_id":"0.0-146.0","task_version":"test-retest-t2"},{"Rune":"rune_04_dagaz","Hex":"#ffcc3399","Correct":32,"Choice":32,"RT":876.1199999717064,"Accuracy":1,"Outcome":"+10","Keys":[2376.864999998361],"TotalKeys":1,"Block":2,"Trial":140,"Robot":1,"Valence":"Win","Action":"Go","Sham":0,"Color":"yellow","trial_type":"pit-trial","trial_index":158,"time_elapsed":821374,"internal_node_id":"0.0-147.0","task_version":"test-retest-t2"},{"Rune":"rune_04_wunjo","Hex":"#ffcc3399","Correct":-1,"Choice":-1,"RT":-1,"Accuracy":1,"Outcome":"+10","Keys":[],"TotalKeys":0,"Block":2,"Trial":141,"Robot":2,"Valence":"Win","Action":"No-Go","Sham":0,"Color":"yellow","trial_type":"pit-trial","trial_index":159,"time_elapsed":825390,"internal_node_id":"0.0-148.0","task_version":"test-retest-t2"},{"Rune":"rune_04_ac","Hex":"#3366ff99","Correct":-1,"Choice":-1,"RT":-1,"Accuracy":1,"Outcome":"-1","Keys":[],"TotalKeys":0,"Block":2,"Trial":142,"Robot":4,"Valence":"Lose","Action":"No-Go","Sham":0,"Color":"blue","trial_type":"pit-trial","trial_index":160,"time_elapsed":829406,"internal_node_id":"0.0-149.0","task_version":"test-retest-t2"},{"Rune":"rune_04_dagaz","Hex":"#ffcc3399","Correct":32,"Choice":32,"RT":600.3400000045076,"Accuracy":1,"Outcome":"+10","Keys":[2100.4049999755807],"TotalKeys":1,"Block":2,"Trial":143,"Robot":1,"Valence":"Win","Action":"Go","Sham":0,"Color":"yellow","trial_type":"pit-trial","trial_index":161,"time_elapsed":832523,"internal_node_id":"0.0-150.0","task_version":"test-retest-t2"},{"Rune":"rune_04_iwaz","Hex":"#3366ff99","Correct":32,"Choice":32,"RT":885.3349999990314,"Accuracy":1,"Outcome":"-1","Keys":[2385.859999980312],"TotalKeys":1,"Block":2,"Trial":144,"Robot":3,"Valence":"Lose","Action":"Go","Sham":0,"Color":"blue","trial_type":"pit-trial","trial_index":162,"time_elapsed":835924,"internal_node_id":"0.0-151.0","task_version":"test-retest-t2"},{"Rune":"rune_04_iwaz","Hex":"#3366ff99","Correct":32,"Choice":32,"RT":485.73499999474734,"Accuracy":1,"Outcome":"-1","Keys":[1986.8450000067241],"TotalKeys":1,"Block":2,"Trial":145,"Robot":3,"Valence":"Lose","Action":"Go","Sham":0,"Color":"blue","trial_type":"pit-trial","trial_index":163,"time_elapsed":838926,"internal_node_id":"0.0-152.0","task_version":"test-retest-t2"},{"Rune":"rune_04_wunjo","Hex":"#ffcc3399","Correct":-1,"Choice":-1,"RT":-1,"Accuracy":1,"Outcome":"+10","Keys":[],"TotalKeys":0,"Block":2,"Trial":146,"Robot":2,"Valence":"Win","Action":"No-Go","Sham":0,"Color":"yellow","trial_type":"pit-trial","trial_index":164,"time_elapsed":842933,"internal_node_id":"0.0-153.0","task_version":"test-retest-t2"},{"Rune":"rune_04_dagaz","Hex":"#ffcc3399","Correct":32,"Choice":32,"RT":395.13000001898035,"Accuracy":1,"Outcome":"+10","Keys":[1895.7400000072084],"TotalKeys":1,"Block":2,"Trial":147,"Robot":1,"Valence":"Win","Action":"Go","Sham":0,"Color":"yellow","trial_type":"pit-trial","trial_index":165,"time_elapsed":845845,"internal_node_id":"0.0-154.0","task_version":"test-retest-t2"},{"Rune":"rune_04_ac","Hex":"#3366ff99","Correct":-1,"Choice":-1,"RT":-1,"Accuracy":1,"Outcome":"-1","Keys":[],"TotalKeys":0,"Block":2,"Trial":148,"Robot":4,"Valence":"Lose","Action":"No-Go","Sham":0,"Color":"blue","trial_type":"pit-trial","trial_index":166,"time_elapsed":849861,"internal_node_id":"0.0-155.0","task_version":"test-retest-t2"},{"Rune":"rune_04_dagaz","Hex":"#ffcc3399","Correct":32,"Choice":32,"RT":547.7700000046752,"Accuracy":1,"Outcome":"+10","Keys":[2048.384999972768],"TotalKeys":1,"Block":2,"Trial":149,"Robot":1,"Valence":"Win","Action":"Go","Sham":0,"Color":"yellow","trial_type":"pit-trial","trial_index":167,"time_elapsed":852925,"internal_node_id":"0.0-156.0","task_version":"test-retest-t2"},{"Rune":"rune_04_iwaz","Hex":"#3366ff99","Correct":32,"Choice":-1,"RT":-1,"Accuracy":0,"Outcome":"-1","Keys":[],"TotalKeys":0,"Block":2,"Trial":150,"Robot":3,"Valence":"Lose","Action":"Go","Sham":1,"Color":"blue","trial_type":"pit-trial","trial_index":168,"time_elapsed":856942,"internal_node_id":"0.0-157.0","task_version":"test-retest-t2"},{"Rune":"rune_04_ac","Hex":"#3366ff99","Correct":-1,"Choice":32,"RT":1195.7700000493787,"Accuracy":0,"Outcome":"-1","Keys":[2696.684999973513],"TotalKeys":1,"Block":2,"Trial":151,"Robot":4,"Valence":"Lose","Action":"No-Go","Sham":1,"Color":"blue","trial_type":"pit-trial","trial_index":169,"time_elapsed":860654,"internal_node_id":"0.0-158.0","task_version":"test-retest-t2"},{"Rune":"rune_04_wunjo","Hex":"#ffcc3399","Correct":-1,"Choice":-1,"RT":-1,"Accuracy":1,"Outcome":"+1","Keys":[],"TotalKeys":0,"Block":2,"Trial":152,"Robot":2,"Valence":"Win","Action":"No-Go","Sham":1,"Color":"yellow","trial_type":"pit-trial","trial_index":170,"time_elapsed":864671,"internal_node_id":"0.0-159.0","task_version":"test-retest-t2"},{"Rune":"rune_04_iwaz","Hex":"#3366ff99","Correct":32,"Choice":32,"RT":925.6949999835342,"Accuracy":1,"Outcome":"-1","Keys":[2426.8450000090525],"TotalKeys":1,"Block":2,"Trial":153,"Robot":3,"Valence":"Lose","Action":"Go","Sham":0,"Color":"blue","trial_type":"pit-trial","trial_index":171,"time_elapsed":868116,"internal_node_id":"0.0-160.0","task_version":"test-retest-t2"},{"Rune":"rune_04_wunjo","Hex":"#ffcc3399","Correct":-1,"Choice":-1,"RT":-1,"Accuracy":1,"Outcome":"+10","Keys":[],"TotalKeys":0,"Block":2,"Trial":154,"Robot":2,"Valence":"Win","Action":"No-Go","Sham":0,"Color":"yellow","trial_type":"pit-trial","trial_index":172,"time_elapsed":872133,"internal_node_id":"0.0-161.0","task_version":"test-retest-t2"},{"Rune":"rune_04_ac","Hex":"#3366ff99","Correct":-1,"Choice":-1,"RT":-1,"Accuracy":1,"Outcome":"-1","Keys":[],"TotalKeys":0,"Block":2,"Trial":155,"Robot":4,"Valence":"Lose","Action":"No-Go","Sham":0,"Color":"blue","trial_type":"pit-trial","trial_index":173,"time_elapsed":876149,"internal_node_id":"0.0-162.0","task_version":"test-retest-t2"},{"Rune":"rune_04_dagaz","Hex":"#ffcc3399","Correct":32,"Choice":32,"RT":376.67500000679865,"Accuracy":1,"Outcome":"+10","Keys":[1877.4800000246614],"TotalKeys":1,"Block":2,"Trial":156,"Robot":1,"Valence":"Win","Action":"Go","Sham":0,"Color":"yellow","trial_type":"pit-trial","trial_index":174,"time_elapsed":879042,"internal_node_id":"0.0-163.0","task_version":"test-retest-t2"},{"Rune":"rune_04_wunjo","Hex":"#ffcc3399","Correct":-1,"Choice":-1,"RT":-1,"Accuracy":1,"Outcome":"+10","Keys":[],"TotalKeys":0,"Block":2,"Trial":157,"Robot":2,"Valence":"Win","Action":"No-Go","Sham":0,"Color":"yellow","trial_type":"pit-trial","trial_index":175,"time_elapsed":883058,"internal_node_id":"0.0-164.0","task_version":"test-retest-t2"},{"Rune":"rune_04_ac","Hex":"#3366ff99","Correct":-1,"Choice":-1,"RT":-1,"Accuracy":1,"Outcome":"-1","Keys":[],"TotalKeys":0,"Block":2,"Trial":158,"Robot":4,"Valence":"Lose","Action":"No-Go","Sham":0,"Color":"blue","trial_type":"pit-trial","trial_index":176,"time_elapsed":887075,"internal_node_id":"0.0-165.0","task_version":"test-retest-t2"},{"Rune":"rune_04_dagaz","Hex":"#ffcc3399","Correct":32,"Choice":32,"RT":652.4249999783933,"Accuracy":1,"Outcome":"+1","Keys":[2153.524999972433],"TotalKeys":1,"Block":2,"Trial":159,"Robot":1,"Valence":"Win","Action":"Go","Sham":1,"Color":"yellow","trial_type":"pit-trial","trial_index":177,"time_elapsed":890244,"internal_node_id":"0.0-166.0","task_version":"test-retest-t2"},{"Rune":"rune_04_iwaz","Hex":"#3366ff99","Correct":32,"Choice":32,"RT":916.7149999993853,"Accuracy":1,"Outcome":"-1","Keys":[2417.7400000044145],"TotalKeys":1,"Block":2,"Trial":160,"Robot":3,"Valence":"Lose","Action":"Go","Sham":0,"Color":"blue","trial_type":"pit-trial","trial_index":178,"time_elapsed":893677,"internal_node_id":"0.0-167.0","task_version":"test-retest-t2"},{"Rune":"rune_04_wunjo","Hex":"#ffcc3399","Correct":-1,"Choice":-1,"RT":-1,"Accuracy":1,"Outcome":"+10","Keys":[],"TotalKeys":0,"Block":2,"Trial":161,"Robot":2,"Valence":"Win","Action":"No-Go","Sham":0,"Color":"yellow","trial_type":"pit-trial","trial_index":179,"time_elapsed":897692,"internal_node_id":"0.0-168.0","task_version":"test-retest-t2"},{"Rune":"rune_04_ac","Hex":"#3366ff99","Correct":-1,"Choice":-1,"RT":-1,"Accuracy":1,"Outcome":"-1","Keys":[],"TotalKeys":0,"Block":2,"Trial":162,"Robot":4,"Valence":"Lose","Action":"No-Go","Sham":0,"Color":"blue","trial_type":"pit-trial","trial_index":180,"time_elapsed":901707,"internal_node_id":"0.0-169.0","task_version":"test-retest-t2"},{"Rune":"rune_04_dagaz","Hex":"#ffcc3399","Correct":32,"Choice":32,"RT":488.5249999933876,"Accuracy":1,"Outcome":"+10","Keys":[1988.710000005085],"TotalKeys":1,"Block":2,"Trial":163,"Robot":1,"Valence":"Win","Action":"Go","Sham":0,"Color":"yellow","trial_type":"pit-trial","trial_index":181,"time_elapsed":904711,"internal_node_id":"0.0-170.0","task_version":"test-retest-t2"},{"Rune":"rune_04_iwaz","Hex":"#3366ff99","Correct":32,"Choice":32,"RT":1028.3550000167452,"Accuracy":1,"Outcome":"-1","Keys":[2530.3149999817833],"TotalKeys":1,"Block":2,"Trial":164,"Robot":3,"Valence":"Lose","Action":"Go","Sham":0,"Color":"blue","trial_type":"pit-trial","trial_index":182,"time_elapsed":908261,"internal_node_id":"0.0-171.0","task_version":"test-retest-t2"},{"Rune":"rune_04_dagaz","Hex":"#ffcc3399","Correct":32,"Choice":32,"RT":444.2399999825284,"Accuracy":1,"Outcome":"+1","Keys":[1946.0500000277534],"TotalKeys":1,"Block":2,"Trial":165,"Robot":1,"Valence":"Win","Action":"Go","Sham":1,"Color":"yellow","trial_type":"pit-trial","trial_index":183,"time_elapsed":911222,"internal_node_id":"0.0-172.0","task_version":"test-retest-t2"},{"Rune":"rune_04_iwaz","Hex":"#3366ff99","Correct":32,"Choice":32,"RT":679.1400000220165,"Accuracy":1,"Outcome":"-1","Keys":[2179.420000000391],"TotalKeys":1,"Block":2,"Trial":166,"Robot":3,"Valence":"Lose","Action":"Go","Sham":0,"Color":"blue","trial_type":"pit-trial","trial_index":184,"time_elapsed":914418,"internal_node_id":"0.0-173.0","task_version":"test-retest-t2"},{"Rune":"rune_04_ac","Hex":"#3366ff99","Correct":-1,"Choice":-1,"RT":-1,"Accuracy":1,"Outcome":"-1","Keys":[],"TotalKeys":0,"Block":2,"Trial":167,"Robot":4,"Valence":"Lose","Action":"No-Go","Sham":0,"Color":"blue","trial_type":"pit-trial","trial_index":185,"time_elapsed":918435,"internal_node_id":"0.0-174.0","task_version":"test-retest-t2"},{"Rune":"rune_04_wunjo","Hex":"#ffcc3399","Correct":-1,"Choice":-1,"RT":-1,"Accuracy":1,"Outcome":"+10","Keys":[],"TotalKeys":0,"Block":2,"Trial":168,"Robot":2,"Valence":"Win","Action":"No-Go","Sham":0,"Color":"yellow","trial_type":"pit-trial","trial_index":186,"time_elapsed":922451,"internal_node_id":"0.0-175.0","task_version":"test-retest-t2"},{"Rune":"rune_04_wunjo","Hex":"#ffcc3399","Correct":-1,"Choice":-1,"RT":-1,"Accuracy":1,"Outcome":"+10","Keys":[],"TotalKeys":0,"Block":2,"Trial":169,"Robot":2,"Valence":"Win","Action":"No-Go","Sham":0,"Color":"yellow","trial_type":"pit-trial","trial_index":187,"time_elapsed":926467,"internal_node_id":"0.0-176.0","task_version":"test-retest-t2"},{"Rune":"rune_04_iwaz","Hex":"#3366ff99","Correct":32,"Choice":32,"RT":919.9999999837019,"Accuracy":1,"Outcome":"-1","Keys":[2420.749999990221],"TotalKeys":1,"Block":2,"Trial":170,"Robot":3,"Valence":"Lose","Action":"Go","Sham":0,"Color":"blue","trial_type":"pit-trial","trial_index":188,"time_elapsed":929902,"internal_node_id":"0.0-177.0","task_version":"test-retest-t2"},{"Rune":"rune_04_dagaz","Hex":"#ffcc3399","Correct":32,"Choice":32,"RT":554.6350000076927,"Accuracy":1,"Outcome":"+10","Keys":[2055.5699999677017],"TotalKeys":1,"Block":2,"Trial":171,"Robot":1,"Valence":"Win","Action":"Go","Sham":0,"Color":"yellow","trial_type":"pit-trial","trial_index":189,"time_elapsed":932976,"internal_node_id":"0.0-178.0","task_version":"test-retest-t2"},{"Rune":"rune_04_ac","Hex":"#3366ff99","Correct":-1,"Choice":-1,"RT":-1,"Accuracy":1,"Outcome":"-1","Keys":[],"TotalKeys":0,"Block":2,"Trial":172,"Robot":4,"Valence":"Lose","Action":"No-Go","Sham":0,"Color":"blue","trial_type":"pit-trial","trial_index":190,"time_elapsed":936990,"internal_node_id":"0.0-179.0","task_version":"test-retest-t2"},{"Rune":"rune_04_dagaz","Hex":"#ffcc3399","Correct":32,"Choice":32,"RT":532.1650000405498,"Accuracy":1,"Outcome":"+10","Keys":[2033.5000000195578],"TotalKeys":1,"Block":2,"Trial":173,"Robot":1,"Valence":"Win","Action":"Go","Sham":0,"Color":"yellow","trial_type":"pit-trial","trial_index":191,"time_elapsed":940034,"internal_node_id":"0.0-180.0","task_version":"test-retest-t2"},{"Rune":"rune_04_iwaz","Hex":"#3366ff99","Correct":32,"Choice":32,"RT":591.614999982994,"Accuracy":1,"Outcome":"-1","Keys":[2092.8750000311993],"TotalKeys":1,"Block":2,"Trial":174,"Robot":3,"Valence":"Lose","Action":"Go","Sham":0,"Color":"blue","trial_type":"pit-trial","trial_index":192,"time_elapsed":943143,"internal_node_id":"0.0-181.0","task_version":"test-retest-t2"},{"Rune":"rune_04_wunjo","Hex":"#ffcc3399","Correct":-1,"Choice":-1,"RT":-1,"Accuracy":1,"Outcome":"+1","Keys":[],"TotalKeys":0,"Block":2,"Trial":175,"Robot":2,"Valence":"Win","Action":"No-Go","Sham":1,"Color":"yellow","trial_type":"pit-trial","trial_index":193,"time_elapsed":947160,"internal_node_id":"0.0-182.0","task_version":"test-retest-t2"},{"Rune":"rune_04_ac","Hex":"#3366ff99","Correct":-1,"Choice":-1,"RT":-1,"Accuracy":1,"Outcome":"-1","Keys":[],"TotalKeys":0,"Block":2,"Trial":176,"Robot":4,"Valence":"Lose","Action":"No-Go","Sham":0,"Color":"blue","trial_type":"pit-trial","trial_index":194,"time_elapsed":951177,"internal_node_id":"0.0-183.0","task_version":"test-retest-t2"},{"Rune":"rune_04_wunjo","Hex":"#ffcc3399","Correct":-1,"Choice":-1,"RT":-1,"Accuracy":1,"Outcome":"+10","Keys":[],"TotalKeys":0,"Block":2,"Trial":177,"Robot":2,"Valence":"Win","Action":"No-Go","Sham":0,"Color":"yellow","trial_type":"pit-trial","trial_index":195,"time_elapsed":955193,"internal_node_id":"0.0-184.0","task_version":"test-retest-t2"},{"Rune":"rune_04_dagaz","Hex":"#ffcc3399","Correct":32,"Choice":32,"RT":717.4249999807216,"Accuracy":1,"Outcome":"+10","Keys":[2217.7700000465848,2380.7549999910407],"TotalKeys":2,"Block":2,"Trial":178,"Robot":1,"Valence":"Win","Action":"Go","Sham":0,"Color":"yellow","trial_type":"pit-trial","trial_index":196,"time_elapsed":958426,"internal_node_id":"0.0-185.0","task_version":"test-retest-t2"},{"Rune":"rune_04_iwaz","Hex":"#3366ff99","Correct":32,"Choice":32,"RT":1036.9249999639578,"Accuracy":1,"Outcome":"-10","Keys":[2538.3149999543093],"TotalKeys":1,"Block":2,"Trial":179,"Robot":3,"Valence":"Lose","Action":"Go","Sham":1,"Color":"blue","trial_type":"pit-trial","trial_index":197,"time_elapsed":961980,"internal_node_id":"0.0-186.0","task_version":"test-retest-t2"},{"Rune":"rune_04_ac","Hex":"#3366ff99","Correct":-1,"Choice":-1,"RT":-1,"Accuracy":1,"Outcome":"-10","Keys":[],"TotalKeys":0,"Block":2,"Trial":180,"Robot":4,"Valence":"Lose","Action":"No-Go","Sham":1,"Color":"blue","trial_type":"pit-trial","trial_index":198,"time_elapsed":965996,"internal_node_id":"0.0-187.0","task_version":"test-retest-t2"},{"view_history":"[{\"page_index\":0,\"viewing_time\":24104.905000014696},{\"page_index\":1,\"viewing_time\":3568.8999999547377}]","rt":27674.920000019483,"trial_type":"pit-instructions","trial_index":199,"time_elapsed":993684,"internal_node_id":"0.0-188.0","task_version":"test-retest-t2"},{"Rune":"rune_04_dagaz","Hex":"#ffcc3399","Correct":32,"Choice":32,"RT":611.6250000195578,"Accuracy":1,"Outcome":"+10","Keys":[2112.3150000348687],"TotalKeys":1,"Block":2,"Trial":181,"Robot":1,"Valence":"Win","Action":"Go","Sham":0,"Color":"yellow","trial_type":"pit-trial","trial_index":200,"time_elapsed":996821,"internal_node_id":"0.0-189.0","task_version":"test-retest-t2"},{"Rune":"rune_04_wunjo","Hex":"#ffcc3399","Correct":-1,"Choice":-1,"RT":-1,"Accuracy":1,"Outcome":"+10","Keys":[],"TotalKeys":0,"Block":2,"Trial":182,"Robot":2,"Valence":"Win","Action":"No-Go","Sham":0,"Color":"yellow","trial_type":"pit-trial","trial_index":201,"time_elapsed":1000838,"internal_node_id":"0.0-190.0","task_version":"test-retest-t2"},{"Rune":"rune_04_ac","Hex":"#3366ff99","Correct":-1,"Choice":-1,"RT":-1,"Accuracy":1,"Outcome":"-1","Keys":[],"TotalKeys":0,"Block":2,"Trial":183,"Robot":4,"Valence":"Lose","Action":"No-Go","Sham":0,"Color":"blue","trial_type":"pit-trial","trial_index":202,"time_elapsed":1004855,"internal_node_id":"0.0-191.0","task_version":"test-retest-t2"},{"Rune":"rune_04_iwaz","Hex":"#3366ff99","Correct":32,"Choice":32,"RT":960.2750000194646,"Accuracy":1,"Outcome":"-1","Keys":[2461.349999997765],"TotalKeys":1,"Block":2,"Trial":184,"Robot":3,"Valence":"Lose","Action":"Go","Sham":0,"Color":"blue","trial_type":"pit-trial","trial_index":203,"time_elapsed":1008331,"internal_node_id":"0.0-192.0","task_version":"test-retest-t2"},{"Rune":"rune_04_dagaz","Hex":"#ffcc3399","Correct":32,"Choice":32,"RT":506.82499998947605,"Accuracy":1,"Outcome":"+10","Keys":[2007.065000012517],"TotalKeys":1,"Block":2,"Trial":185,"Robot":1,"Valence":"Win","Action":"Go","Sham":0,"Color":"yellow","trial_type":"pit-trial","trial_index":204,"time_elapsed":1011353,"internal_node_id":"0.0-193.0","task_version":"test-retest-t2"},{"Rune":"rune_04_wunjo","Hex":"#ffcc3399","Correct":-1,"Choice":-1,"RT":-1,"Accuracy":1,"Outcome":"+10","Keys":[],"TotalKeys":0,"Block":2,"Trial":186,"Robot":2,"Valence":"Win","Action":"No-Go","Sham":0,"Color":"yellow","trial_type":"pit-trial","trial_index":205,"time_elapsed":1015370,"internal_node_id":"0.0-194.0","task_version":"test-retest-t2"},{"Rune":"rune_04_iwaz","Hex":"#3366ff99","Correct":32,"Choice":32,"RT":784.6400000271387,"Accuracy":1,"Outcome":"-1","Keys":[2285.0350000080653],"TotalKeys":1,"Block":2,"Trial":187,"Robot":3,"Valence":"Lose","Action":"Go","Sham":0,"Color":"blue","trial_type":"pit-trial","trial_index":206,"time_elapsed":1018671,"internal_node_id":"0.0-195.0","task_version":"test-retest-t2"},{"Rune":"rune_04_ac","Hex":"#3366ff99","Correct":-1,"Choice":-1,"RT":-1,"Accuracy":1,"Outcome":"-1","Keys":[],"TotalKeys":0,"Block":2,"Trial":188,"Robot":4,"Valence":"Lose","Action":"No-Go","Sham":0,"Color":"blue","trial_type":"pit-trial","trial_index":207,"time_elapsed":1022687,"internal_node_id":"0.0-196.0","task_version":"test-retest-t2"},{"Rune":"rune_04_iwaz","Hex":"#3366ff99","Correct":32,"Choice":32,"RT":693.1099999928847,"Accuracy":1,"Outcome":"-10","Keys":[2193.1799999438226],"TotalKeys":1,"Block":2,"Trial":189,"Robot":3,"Valence":"Lose","Action":"Go","Sham":1,"Color":"blue","trial_type":"pit-trial","trial_index":208,"time_elapsed":1025895,"internal_node_id":"0.0-197.0","task_version":"test-retest-t2"},{"Rune":"rune_04_dagaz","Hex":"#ffcc3399","Correct":32,"Choice":32,"RT":397.52499997848645,"Accuracy":1,"Outcome":"+1","Keys":[1898.514999949839],"TotalKeys":1,"Block":2,"Trial":190,"Robot":1,"Valence":"Win","Action":"Go","Sham":1,"Color":"yellow","trial_type":"pit-trial","trial_index":209,"time_elapsed":1028809,"internal_node_id":"0.0-198.0","task_version":"test-retest-t2"},{"Rune":"rune_04_wunjo","Hex":"#ffcc3399","Correct":-1,"Choice":-1,"RT":-1,"Accuracy":1,"Outcome":"+10","Keys":[],"TotalKeys":0,"Block":2,"Trial":191,"Robot":2,"Valence":"Win","Action":"No-Go","Sham":0,"Color":"yellow","trial_type":"pit-trial","trial_index":210,"time_elapsed":1032827,"internal_node_id":"0.0-199.0","task_version":"test-retest-t2"},{"Rune":"rune_04_ac","Hex":"#3366ff99","Correct":-1,"Choice":-1,"RT":-1,"Accuracy":1,"Outcome":"-1","Keys":[],"TotalKeys":0,"Block":2,"Trial":192,"Robot":4,"Valence":"Lose","Action":"No-Go","Sham":0,"Color":"blue","trial_type":"pit-trial","trial_index":211,"time_elapsed":1036846,"internal_node_id":"0.0-200.0","task_version":"test-retest-t2"},{"Rune":"rune_04_wunjo","Hex":"#ffcc3399","Correct":-1,"Choice":-1,"RT":-1,"Accuracy":1,"Outcome":"+1","Keys":[],"TotalKeys":0,"Block":2,"Trial":193,"Robot":2,"Valence":"Win","Action":"No-Go","Sham":1,"Color":"yellow","trial_type":"pit-trial","trial_index":212,"time_elapsed":1040866,"internal_node_id":"0.0-201.0","task_version":"test-retest-t2"},{"Rune":"rune_04_ac","Hex":"#3366ff99","Correct":-1,"Choice":-1,"RT":-1,"Accuracy":1,"Outcome":"-1","Keys":[],"TotalKeys":0,"Block":2,"Trial":194,"Robot":4,"Valence":"Lose","Action":"No-Go","Sham":0,"Color":"blue","trial_type":"pit-trial","trial_index":213,"time_elapsed":1044883,"internal_node_id":"0.0-202.0","task_version":"test-retest-t2"},{"Rune":"rune_04_iwaz","Hex":"#3366ff99","Correct":32,"Choice":32,"RT":880.959999980405,"Accuracy":1,"Outcome":"-1","Keys":[2381.215000001248],"TotalKeys":1,"Block":2,"Trial":195,"Robot":3,"Valence":"Lose","Action":"Go","Sham":0,"Color":"blue","trial_type":"pit-trial","trial_index":214,"time_elapsed":1048278,"internal_node_id":"0.0-203.0","task_version":"test-retest-t2"},{"Rune":"rune_04_dagaz","Hex":"#ffcc3399","Correct":32,"Choice":32,"RT":547.4449999746867,"Accuracy":1,"Outcome":"+10","Keys":[2047.614999988582],"TotalKeys":1,"Block":2,"Trial":196,"Robot":1,"Valence":"Win","Action":"Go","Sham":0,"Color":"yellow","trial_type":"pit-trial","trial_index":215,"time_elapsed":1051342,"internal_node_id":"0.0-204.0","task_version":"test-retest-t2"},{"Rune":"rune_04_dagaz","Hex":"#ffcc3399","Correct":32,"Choice":32,"RT":444.4900000235066,"Accuracy":1,"Outcome":"+10","Keys":[1945.4449999611825],"TotalKeys":1,"Block":2,"Trial":197,"Robot":1,"Valence":"Win","Action":"Go","Sham":0,"Color":"yellow","trial_type":"pit-trial","trial_index":216,"time_elapsed":1054304,"internal_node_id":"0.0-205.0","task_version":"test-retest-t2"},{"Rune":"rune_04_ac","Hex":"#3366ff99","Correct":-1,"Choice":-1,"RT":-1,"Accuracy":1,"Outcome":"-10","Keys":[],"TotalKeys":0,"Block":2,"Trial":198,"Robot":4,"Valence":"Lose","Action":"No-Go","Sham":1,"Color":"blue","trial_type":"pit-trial","trial_index":217,"time_elapsed":1058320,"internal_node_id":"0.0-206.0","task_version":"test-retest-t2"},{"Rune":"rune_04_iwaz","Hex":"#3366ff99","Correct":32,"Choice":32,"RT":875.89999998454,"Accuracy":1,"Outcome":"-1","Keys":[2376.185000000987],"TotalKeys":1,"Block":2,"Trial":199,"Robot":3,"Valence":"Lose","Action":"Go","Sham":0,"Color":"blue","trial_type":"pit-trial","trial_index":218,"time_elapsed":1061712,"internal_node_id":"0.0-207.0","task_version":"test-retest-t2"},{"Rune":"rune_04_wunjo","Hex":"#ffcc3399","Correct":-1,"Choice":-1,"RT":-1,"Accuracy":1,"Outcome":"+10","Keys":[],"TotalKeys":0,"Block":2,"Trial":200,"Robot":2,"Valence":"Win","Action":"No-Go","Sham":0,"Color":"yellow","trial_type":"pit-trial","trial_index":219,"time_elapsed":1065729,"internal_node_id":"0.0-208.0","task_version":"test-retest-t2"},{"Rune":"rune_04_ac","Hex":"#3366ff99","Correct":-1,"Choice":-1,"RT":-1,"Accuracy":1,"Outcome":"-1","Keys":[],"TotalKeys":0,"Block":2,"Trial":201,"Robot":4,"Valence":"Lose","Action":"No-Go","Sham":0,"Color":"blue","trial_type":"pit-trial","trial_index":220,"time_elapsed":1069745,"internal_node_id":"0.0-209.0","task_version":"test-retest-t2"},{"Rune":"rune_04_iwaz","Hex":"#3366ff99","Correct":32,"Choice":32,"RT":1141.0150000010617,"Accuracy":1,"Outcome":"-1","Keys":[2641.360000008717],"TotalKeys":1,"Block":2,"Trial":202,"Robot":3,"Valence":"Lose","Action":"Go","Sham":0,"Color":"blue","trial_type":"pit-trial","trial_index":221,"time_elapsed":1073401,"internal_node_id":"0.0-210.0","task_version":"test-retest-t2"},{"Rune":"rune_04_dagaz","Hex":"#ffcc3399","Correct":32,"Choice":32,"RT":573.1450000312179,"Accuracy":1,"Outcome":"+10","Keys":[2074.2149999714456],"TotalKeys":1,"Block":2,"Trial":203,"Robot":1,"Valence":"Win","Action":"Go","Sham":0,"Color":"yellow","trial_type":"pit-trial","trial_index":222,"time_elapsed":1076493,"internal_node_id":"0.0-211.0","task_version":"test-retest-t2"},{"Rune":"rune_04_wunjo","Hex":"#ffcc3399","Correct":-1,"Choice":-1,"RT":-1,"Accuracy":1,"Outcome":"+10","Keys":[],"TotalKeys":0,"Block":2,"Trial":204,"Robot":2,"Valence":"Win","Action":"No-Go","Sham":0,"Color":"yellow","trial_type":"pit-trial","trial_index":223,"time_elapsed":1080510,"internal_node_id":"0.0-212.0","task_version":"test-retest-t2"},{"Rune":"rune_04_wunjo","Hex":"#ffcc3399","Correct":-1,"Choice":-1,"RT":-1,"Accuracy":1,"Outcome":"+10","Keys":[],"TotalKeys":0,"Block":2,"Trial":205,"Robot":2,"Valence":"Win","Action":"No-Go","Sham":0,"Color":"yellow","trial_type":"pit-trial","trial_index":224,"time_elapsed":1084526,"internal_node_id":"0.0-213.0","task_version":"test-retest-t2"},{"Rune":"rune_04_ac","Hex":"#3366ff99","Correct":-1,"Choice":-1,"RT":-1,"Accuracy":1,"Outcome":"-10","Keys":[],"TotalKeys":0,"Block":2,"Trial":206,"Robot":4,"Valence":"Lose","Action":"No-Go","Sham":1,"Color":"blue","trial_type":"pit-trial","trial_index":225,"time_elapsed":1088542,"internal_node_id":"0.0-214.0","task_version":"test-retest-t2"},{"Rune":"rune_04_iwaz","Hex":"#3366ff99","Correct":32,"Choice":32,"RT":968.7399999820627,"Accuracy":1,"Outcome":"-1","Keys":[2469.1749999765307],"TotalKeys":1,"Block":2,"Trial":207,"Robot":3,"Valence":"Lose","Action":"Go","Sham":0,"Color":"blue","trial_type":"pit-trial","trial_index":226,"time_elapsed":1092027,"internal_node_id":"0.0-215.0","task_version":"test-retest-t2"},{"Rune":"rune_04_dagaz","Hex":"#ffcc3399","Correct":32,"Choice":32,"RT":573.4400000073947,"Accuracy":1,"Outcome":"+1","Keys":[760.5700000422075,2074.945000000298],"TotalKeys":2,"Block":2,"Trial":208,"Robot":1,"Valence":"Win","Action":"Go","Sham":1,"Color":"yellow","trial_type":"pit-trial","trial_index":227,"time_elapsed":1095118,"internal_node_id":"0.0-216.0","task_version":"test-retest-t2"},{"Rune":"rune_04_iwaz","Hex":"#3366ff99","Correct":32,"Choice":32,"RT":539.2899999860674,"Accuracy":1,"Outcome":"-1","Keys":[2039.4599999999627],"TotalKeys":1,"Block":2,"Trial":209,"Robot":3,"Valence":"Lose","Action":"Go","Sham":0,"Color":"blue","trial_type":"pit-trial","trial_index":228,"time_elapsed":1098173,"internal_node_id":"0.0-217.0","task_version":"test-retest-t2"},{"Rune":"rune_04_dagaz","Hex":"#ffcc3399","Correct":32,"Choice":32,"RT":392.83500000601634,"Accuracy":1,"Outcome":"+10","Keys":[1893.0950000067241],"TotalKeys":1,"Block":2,"Trial":210,"Robot":1,"Valence":"Win","Action":"Go","Sham":0,"Color":"yellow","trial_type":"pit-trial","trial_index":229,"time_elapsed":1101083,"internal_node_id":"0.0-218.0","task_version":"test-retest-t2"},{"Rune":"rune_04_wunjo","Hex":"#ffcc3399","Correct":-1,"Choice":-1,"RT":-1,"Accuracy":1,"Outcome":"+10","Keys":[],"TotalKeys":0,"Block":2,"Trial":211,"Robot":2,"Valence":"Win","Action":"No-Go","Sham":0,"Color":"yellow","trial_type":"pit-trial","trial_index":230,"time_elapsed":1105100,"internal_node_id":"0.0-219.0","task_version":"test-retest-t2"},{"Rune":"rune_04_ac","Hex":"#3366ff99","Correct":-1,"Choice":-1,"RT":-1,"Accuracy":1,"Outcome":"-1","Keys":[],"TotalKeys":0,"Block":2,"Trial":212,"Robot":4,"Valence":"Lose","Action":"No-Go","Sham":0,"Color":"blue","trial_type":"pit-trial","trial_index":231,"time_elapsed":1109117,"internal_node_id":"0.0-220.0","task_version":"test-retest-t2"},{"Rune":"rune_04_ac","Hex":"#3366ff99","Correct":-1,"Choice":-1,"RT":-1,"Accuracy":1,"Outcome":"-1","Keys":[],"TotalKeys":0,"Block":2,"Trial":213,"Robot":4,"Valence":"Lose","Action":"No-Go","Sham":0,"Color":"blue","trial_type":"pit-trial","trial_index":232,"time_elapsed":1113133,"internal_node_id":"0.0-221.0","task_version":"test-retest-t2"},{"Rune":"rune_04_dagaz","Hex":"#ffcc3399","Correct":32,"Choice":32,"RT":685.6799999950454,"Accuracy":1,"Outcome":"+10","Keys":[2186.974999960512],"TotalKeys":1,"Block":2,"Trial":214,"Robot":1,"Valence":"Win","Action":"Go","Sham":0,"Color":"yellow","trial_type":"pit-trial","trial_index":233,"time_elapsed":1116336,"internal_node_id":"0.0-222.0","task_version":"test-retest-t2"},{"Rune":"rune_04_wunjo","Hex":"#ffcc3399","Correct":-1,"Choice":-1,"RT":-1,"Accuracy":1,"Outcome":"+1","Keys":[3474.5400000247173],"TotalKeys":1,"Block":2,"Trial":215,"Robot":2,"Valence":"Win","Action":"No-Go","Sham":1,"Color":"yellow","trial_type":"pit-trial","trial_index":234,"time_elapsed":1120352,"internal_node_id":"0.0-223.0","task_version":"test-retest-t2"},{"Rune":"rune_04_iwaz","Hex":"#3366ff99","Correct":32,"Choice":32,"RT":858.4099999861792,"Accuracy":1,"Outcome":"-10","Keys":[2359.794999996666],"TotalKeys":1,"Block":2,"Trial":216,"Robot":3,"Valence":"Lose","Action":"Go","Sham":1,"Color":"blue","trial_type":"pit-trial","trial_index":235,"time_elapsed":1123727,"internal_node_id":"0.0-224.0","task_version":"test-retest-t2"},{"Rune":"rune_04_ac","Hex":"#3366ff99","Correct":-1,"Choice":-1,"RT":-1,"Accuracy":1,"Outcome":"-1","Keys":[],"TotalKeys":0,"Block":2,"Trial":217,"Robot":4,"Valence":"Lose","Action":"No-Go","Sham":0,"Color":"blue","trial_type":"pit-trial","trial_index":236,"time_elapsed":1127742,"internal_node_id":"0.0-225.0","task_version":"test-retest-t2"},{"Rune":"rune_04_wunjo","Hex":"#ffcc3399","Correct":-1,"Choice":-1,"RT":-1,"Accuracy":1,"Outcome":"+10","Keys":[],"TotalKeys":0,"Block":2,"Trial":218,"Robot":2,"Valence":"Win","Action":"No-Go","Sham":0,"Color":"yellow","trial_type":"pit-trial","trial_index":237,"time_elapsed":1131759,"internal_node_id":"0.0-226.0","task_version":"test-retest-t2"},{"Rune":"rune_04_dagaz","Hex":"#ffcc3399","Correct":32,"Choice":32,"RT":722.2949999850243,"Accuracy":1,"Outcome":"+10","Keys":[2223.2899999944493],"TotalKeys":1,"Block":2,"Trial":219,"Robot":1,"Valence":"Win","Action":"Go","Sham":0,"Color":"yellow","trial_type":"pit-trial","trial_index":238,"time_elapsed":1134997,"internal_node_id":"0.0-227.0","task_version":"test-retest-t2"},{"Rune":"rune_04_iwaz","Hex":"#3366ff99","Correct":32,"Choice":32,"RT":838.1350000272505,"Accuracy":1,"Outcome":"-1","Keys":[2339.124999998603],"TotalKeys":1,"Block":2,"Trial":220,"Robot":3,"Valence":"Lose","Action":"Go","Sham":0,"Color":"blue","trial_type":"pit-trial","trial_index":239,"time_elapsed":1138353,"internal_node_id":"0.0-228.0","task_version":"test-retest-t2"},{"Rune":"rune_04_dagaz","Hex":"#ffcc3399","Correct":32,"Choice":32,"RT":509.15499997790903,"Accuracy":1,"Outcome":"+10","Keys":[2010.169999965001],"TotalKeys":1,"Block":2,"Trial":221,"Robot":1,"Valence":"Win","Action":"Go","Sham":0,"Color":"yellow","trial_type":"pit-trial","trial_index":240,"time_elapsed":1141380,"internal_node_id":"0.0-229.0","task_version":"test-retest-t2"},{"Rune":"rune_04_wunjo","Hex":"#ffcc3399","Correct":-1,"Choice":-1,"RT":-1,"Accuracy":1,"Outcome":"+1","Keys":[],"TotalKeys":0,"Block":2,"Trial":222,"Robot":2,"Valence":"Win","Action":"No-Go","Sham":1,"Color":"yellow","trial_type":"pit-trial","trial_index":241,"time_elapsed":1145397,"internal_node_id":"0.0-230.0","task_version":"test-retest-t2"},{"Rune":"rune_04_iwaz","Hex":"#3366ff99","Correct":32,"Choice":32,"RT":172.52999998163432,"Accuracy":1,"Outcome":"-1","Keys":[1673.194999981206],"TotalKeys":1,"Block":2,"Trial":223,"Robot":3,"Valence":"Lose","Action":"Go","Sham":0,"Color":"blue","trial_type":"pit-trial","trial_index":242,"time_elapsed":1148086,"internal_node_id":"0.0-231.0","task_version":"test-retest-t2"},{"Rune":"rune_04_ac","Hex":"#3366ff99","Correct":-1,"Choice":-1,"RT":-1,"Accuracy":1,"Outcome":"-1","Keys":[],"TotalKeys":0,"Block":2,"Trial":224,"Robot":4,"Valence":"Lose","Action":"No-Go","Sham":0,"Color":"blue","trial_type":"pit-trial","trial_index":243,"time_elapsed":1152103,"internal_node_id":"0.0-232.0","task_version":"test-retest-t2"},{"Rune":"rune_04_ac","Hex":"#3366ff99","Correct":-1,"Choice":-1,"RT":-1,"Accuracy":1,"Outcome":"-1","Keys":[],"TotalKeys":0,"Block":2,"Trial":225,"Robot":4,"Valence":"Lose","Action":"No-Go","Sham":0,"Color":"blue","trial_type":"pit-trial","trial_index":244,"time_elapsed":1156119,"internal_node_id":"0.0-233.0","task_version":"test-retest-t2"},{"Rune":"rune_04_dagaz","Hex":"#ffcc3399","Correct":32,"Choice":32,"RT":491.90000002272427,"Accuracy":1,"Outcome":"+1","Keys":[1992.8000000072643],"TotalKeys":1,"Block":2,"Trial":226,"Robot":1,"Valence":"Win","Action":"Go","Sham":1,"Color":"yellow","trial_type":"pit-trial","trial_index":245,"time_elapsed":1159127,"internal_node_id":"0.0-234.0","task_version":"test-retest-t2"},{"Rune":"rune_04_wunjo","Hex":"#ffcc3399","Correct":-1,"Choice":32,"RT":1201.1400000192225,"Accuracy":0,"Outcome":"+1","Keys":[2701.8950000056066],"TotalKeys":1,"Block":2,"Trial":227,"Robot":2,"Valence":"Win","Action":"No-Go","Sham":0,"Color":"yellow","trial_type":"pit-trial","trial_index":246,"time_elapsed":1162836,"internal_node_id":"0.0-235.0","task_version":"test-retest-t2"},{"Rune":"rune_04_iwaz","Hex":"#3366ff99","Correct":32,"Choice":32,"RT":1170.2550000045449,"Accuracy":1,"Outcome":"-1","Keys":[2670.665000041481],"TotalKeys":1,"Block":2,"Trial":228,"Robot":3,"Valence":"Lose","Action":"Go","Sham":0,"Color":"blue","trial_type":"pit-trial","trial_index":247,"time_elapsed":1166523,"internal_node_id":"0.0-236.0","task_version":"test-retest-t2"},{"Rune":"rune_04_iwaz","Hex":"#3366ff99","Correct":32,"Choice":32,"RT":970.5649999668822,"Accuracy":1,"Outcome":"-1","Keys":[2471.369999984745],"TotalKeys":1,"Block":2,"Trial":229,"Robot":3,"Valence":"Lose","Action":"Go","Sham":0,"Color":"blue","trial_type":"pit-trial","trial_index":248,"time_elapsed":1170011,"internal_node_id":"0.0-237.0","task_version":"test-retest-t2"},{"Rune":"rune_04_wunjo","Hex":"#ffcc3399","Correct":-1,"Choice":-1,"RT":-1,"Accuracy":1,"Outcome":"+10","Keys":[],"TotalKeys":0,"Block":2,"Trial":230,"Robot":2,"Valence":"Win","Action":"No-Go","Sham":0,"Color":"yellow","trial_type":"pit-trial","trial_index":249,"time_elapsed":1174028,"internal_node_id":"0.0-238.0","task_version":"test-retest-t2"},{"Rune":"rune_04_dagaz","Hex":"#ffcc3399","Correct":32,"Choice":32,"RT":599.8850000323728,"Accuracy":1,"Outcome":"+10","Keys":[2100.819999992382],"TotalKeys":1,"Block":2,"Trial":231,"Robot":1,"Valence":"Win","Action":"Go","Sham":0,"Color":"yellow","trial_type":"pit-trial","trial_index":250,"time_elapsed":1177145,"internal_node_id":"0.0-239.0","task_version":"test-retest-t2"},{"Rune":"rune_04_ac","Hex":"#3366ff99","Correct":-1,"Choice":-1,"RT":-1,"Accuracy":1,"Outcome":"-10","Keys":[],"TotalKeys":0,"Block":2,"Trial":232,"Robot":4,"Valence":"Lose","Action":"No-Go","Sham":1,"Color":"blue","trial_type":"pit-trial","trial_index":251,"time_elapsed":1181162,"internal_node_id":"0.0-240.0","task_version":"test-retest-t2"},{"Rune":"rune_04_dagaz","Hex":"#ffcc3399","Correct":32,"Choice":32,"RT":819.3949999986216,"Accuracy":1,"Outcome":"+10","Keys":[2320.4500000574626],"TotalKeys":1,"Block":2,"Trial":233,"Robot":1,"Valence":"Win","Action":"Go","Sham":0,"Color":"yellow","trial_type":"pit-trial","trial_index":252,"time_elapsed":1184499,"internal_node_id":"0.0-241.0","task_version":"test-retest-t2"},{"Rune":"rune_04_wunjo","Hex":"#ffcc3399","Correct":-1,"Choice":-1,"RT":-1,"Accuracy":1,"Outcome":"+10","Keys":[],"TotalKeys":0,"Block":2,"Trial":234,"Robot":2,"Valence":"Win","Action":"No-Go","Sham":0,"Color":"yellow","trial_type":"pit-trial","trial_index":253,"time_elapsed":1188515,"internal_node_id":"0.0-242.0","task_version":"test-retest-t2"},{"Rune":"rune_04_ac","Hex":"#3366ff99","Correct":-1,"Choice":-1,"RT":-1,"Accuracy":1,"Outcome":"-1","Keys":[],"TotalKeys":0,"Block":2,"Trial":235,"Robot":4,"Valence":"Lose","Action":"No-Go","Sham":0,"Color":"blue","trial_type":"pit-trial","trial_index":254,"time_elapsed":1192531,"internal_node_id":"0.0-243.0","task_version":"test-retest-t2"},{"Rune":"rune_04_iwaz","Hex":"#3366ff99","Correct":32,"Choice":32,"RT":983.1000000122003,"Accuracy":1,"Outcome":"-1","Keys":[2483.509999990929],"TotalKeys":1,"Block":2,"Trial":236,"Robot":3,"Valence":"Lose","Action":"Go","Sham":0,"Color":"blue","trial_type":"pit-trial","trial_index":255,"time_elapsed":1196030,"internal_node_id":"0.0-244.0","task_version":"test-retest-t2"},{"Rune":"rune_04_iwaz","Hex":"#3366ff99","Correct":32,"Choice":32,"RT":1414.82999996515,"Accuracy":1,"Outcome":"-10","Keys":[2915.0449999724515],"TotalKeys":1,"Block":2,"Trial":237,"Robot":3,"Valence":"Lose","Action":"Go","Sham":1,"Color":"blue","trial_type":"pit-trial","trial_index":256,"time_elapsed":1199960,"internal_node_id":"0.0-245.0","task_version":"test-retest-t2"},{"Rune":"rune_04_dagaz","Hex":"#ffcc3399","Correct":32,"Choice":32,"RT":450.11999999405816,"Accuracy":1,"Outcome":"+10","Keys":[1951.4199999975972],"TotalKeys":1,"Block":2,"Trial":238,"Robot":1,"Valence":"Win","Action":"Go","Sham":0,"Color":"yellow","trial_type":"pit-trial","trial_index":257,"time_elapsed":1202927,"internal_node_id":"0.0-246.0","task_version":"test-retest-t2"},{"Rune":"rune_04_wunjo","Hex":"#ffcc3399","Correct":-1,"Choice":-1,"RT":-1,"Accuracy":1,"Outcome":"+10","Keys":[],"TotalKeys":0,"Block":2,"Trial":239,"Robot":2,"Valence":"Win","Action":"No-Go","Sham":0,"Color":"yellow","trial_type":"pit-trial","trial_index":258,"time_elapsed":1206943,"internal_node_id":"0.0-247.0","task_version":"test-retest-t2"},{"Rune":"rune_04_ac","Hex":"#3366ff99","Correct":-1,"Choice":-1,"RT":-1,"Accuracy":1,"Outcome":"-1","Keys":[],"TotalKeys":0,"Block":2,"Trial":240,"Robot":4,"Valence":"Lose","Action":"No-Go","Sham":0,"Color":"blue","trial_type":"pit-trial","trial_index":259,"time_elapsed":1210955,"internal_node_id":"0.0-248.0","task_version":"test-retest-t2"},{"view_history":"[{\"page_index\":0,\"viewing_time\":1804.7549999901094}]","rt":1805.8949999976903,"trial_type":"pit-instructions","trial_index":260,"time_elapsed":1212773,"internal_node_id":"0.0-249.0","task_version":"test-retest-t2"},{"rt":7759.3549999874085,"responses":{"difficulty":"3","fun":"4","clarity":"5","strategy":"","feedback":""},"survey":"debrief","trial_type":"survey-debrief","trial_index":261,"time_elapsed":1220550,"internal_node_id":"0.0-250.0","task_version":"test-retest-t2"},{"rt":3874.6849999879487,"stimulus":"You earned a bonus of $1.34 out of $1.5.<br><br>Press any key to complete the experiment.","key_press":32,"trial_type":"html-keyboard-response","trial_index":262,"time_elapsed":1224446,"internal_node_id":"0.0-251.0","task_version":"test-retest-t2","accuracy":0.8875,"bonus":1.34,"interactions":"[{\"event\":\"blur\",\"trial\":112,\"time\":602526},{\"event\":\"focus\",\"trial\":112,\"time\":603594},{\"event\":\"blur\",\"trial\":112,\"time\":606419},{\"event\":\"focus\",\"trial\":113,\"time\":608232},{\"event\":\"blur\",\"trial\":138,\"time\":696325},{\"event\":\"focus\",\"trial\":138,\"time\":731301},{\"event\":\"blur\",\"trial\":199,\"time\":968428},{\"event\":\"focus\",\"trial\":199,\"time\":988860}]"}]