[{"slider_type":"valence","raw_loc":732,"loc":0.964,"trial_type":"affective-slider","trial_index":0,"time_elapsed":15859,"internal_node_id":"0.0-0.0","task_version":"test-retest"},{"view_history":"[{\"page_index\":0,\"viewing_time\":3824.955000076443},{\"page_index\":1,\"viewing_time\":15789.524999912828},{\"page_index\":2,\"viewing_time\":9600.194999948144},{\"page_index\":3,\"viewing_time\":3319.5700000505894},{\"page_index\":4,\"viewing_time\":870.5599999520928}]","rt":33405.945000005886,"trial_type":"pit-instructions","trial_index":1,"time_elapsed":49269,"internal_node_id":"0.0-1.0-0.0","task_version":"test-retest"},{"Rune":"rune_00_ingz","Hex":"#FFFFF080","Correct":32,"Choice":32,"RT":1001.939999870956,"Accuracy":1,"Outcome":"+10","Keys":[2506.410000147298],"TotalKeys":1,"Block":0,"Action":"Go","trial_type":"pit-trial","trial_index":2,"time_elapsed":52780,"internal_node_id":"0.0-1.0-1.0-0.0","task_version":"test-retest"},{"Rune":"rune_00_ingz","Hex":"#FFFFF080","Correct":32,"Choice":32,"RT":322.14000006206334,"Accuracy":1,"Outcome":"+10","Keys":[1824.849999975413],"TotalKeys":1,"Block":0,"Action":"Go","trial_type":"pit-trial","trial_index":3,"time_elapsed":55609,"internal_node_id":"0.0-1.0-1.0-0.1","task_version":"test-retest"},{"Rune":"rune_00_ingz","Hex":"#FFFFF080","Correct":32,"Choice":32,"RT":203.42499995604157,"Accuracy":1,"Outcome":"+10","Keys":[1716.4799999445677],"TotalKeys":1,"Block":0,"Action":"Go","trial_type":"pit-trial","trial_index":4,"time_elapsed":58329,"internal_node_id":"0.0-1.0-1.0-0.2","task_version":"test-retest"},{"Rune":"rune_00_ingz","Hex":"#FFFFF080","Correct":32,"Choice":32,"RT":144.41499998793006,"Accuracy":1,"Outcome":"+10","Keys":[1646.930000046268],"TotalKeys":1,"Block":0,"Action":"Go","trial_type":"pit-trial","trial_index":5,"time_elapsed":60981,"internal_node_id":"0.0-1.0-1.0-0.3","task_version":"test-retest"},{"view_history":"[{\"page_index\":0,\"viewing_time\":13094.784999964759}]","rt":13095.369999995455,"trial_type":"pit-instructions","trial_index":6,"time_elapsed":74078,"internal_node_id":"0.0-1.0-2.0","task_version":"test-retest"},{"Rune":"rune_00_isaz","Hex":"#FFFFF080","Correct":-1,"Choice":32,"RT":68.32499988377094,"Accuracy":0,"Outcome":"+0","Keys":[1581.3349999953061],"TotalKeys":1,"Block":0,"Action":"No-Go","trial_type":"pit-trial","trial_index":7,"time_elapsed":76664,"internal_node_id":"0.0-1.0-3.0-0.0","task_version":"test-retest"},{"Rune":"rune_00_isaz","Hex":"#FFFFF080","Correct":-1,"Choice":32,"RT":207.46499998494983,"Accuracy":0,"Outcome":"+0","Keys":[1711.7399999406189],"TotalKeys":1,"Block":0,"Action":"No-Go","trial_type":"pit-trial","trial_index":8,"time_elapsed":79379,"internal_node_id":"0.0-1.0-3.0-0.1","task_version":"test-retest"},{"Rune":"rune_00_isaz","Hex":"#FFFFF080","Correct":-1,"Choice":-1,"RT":-1,"Accuracy":1,"Outcome":"+10","Keys":[],"TotalKeys":0,"Block":0,"Action":"No-Go","trial_type":"pit-trial","trial_index":9,"time_elapsed":83384,"internal_node_id":"0.0-1.0-3.0-0.2","task_version":"test-retest"},{"Rune":"rune_00_isaz","Hex":"#FFFFF080","Correct":-1,"Choice":32,"RT":115.25499983690679,"Accuracy":0,"Outcome":"+0","Keys":[1631.4499999862164],"TotalKeys":1,"Block":0,"Action":"No-Go","trial_type":"pit-trial","trial_index":10,"time_elapsed":86018,"internal_node_id":"0.0-1.0-3.0-0.3","task_version":"test-retest"},{"view_history":"[{\"page_index\":0,\"viewing_time\":5347.120000049472},{\"page_index\":1,\"viewing_time\":12459.959999890998},{\"page_index\":2,\"viewing_time\":4199.999999953434},{\"page_index\":3,\"viewing_time\":8544.80000003241},{\"page_index\":4,\"viewing_time\":5736.855000024661},{\"page_index\":5,\"viewing_time\":5058.7049999739975},{\"page_index\":6,\"viewing_time\":2364.504999946803},{\"page_index\":7,\"viewing_time\":1044.8600000236183}]","rt":44757.41000007838,"trial_type":"pit-instructions","trial_index":11,"time_elapsed":130778,"internal_node_id":"0.0-1.0-4.0","task_version":"test-retest"},{"responses":["Do nothing","+10","-1","False","Yes"],"num_errors":1,"rt":31397.644999902695,"trial_type":"pit-comprehension","trial_index":12,"time_elapsed":162179,"internal_node_id":"0.0-1.0-5.0","task_version":"test-retest"},{"view_history":"[{\"page_index\":0,\"viewing_time\":6143.08000006713},{\"page_index\":1,\"viewing_time\":9919.775000074878}]","rt":16063.47499997355,"trial_type":"pit-instructions","trial_index":13,"time_elapsed":178248,"internal_node_id":"0.0-2.0","task_version":"test-retest"},{"Rune":"rune_02_cen","Hex":"#ffcc3399","Correct":32,"Choice":32,"RT":381.0149999335408,"Accuracy":1,"Outcome":"+10","Keys":[1882.8300000168383],"TotalKeys":1,"Block":1,"Trial":1,"Robot":1,"Valence":"Win","Action":"Go","Sham":0,"Color":"yellow","trial_type":"pit-trial","trial_index":14,"time_elapsed":181140,"internal_node_id":"0.0-3.0","task_version":"test-retest"},{"Rune":"rune_02_raido","Hex":"#3366ff99","Correct":-1,"Choice":32,"RT":384.3149999156594,"Accuracy":0,"Outcome":"-1","Keys":[1885.9349999111146],"TotalKeys":1,"Block":1,"Trial":2,"Robot":4,"Valence":"Lose","Action":"No-Go","Sham":1,"Color":"blue","trial_type":"pit-trial","trial_index":15,"time_elapsed":184029,"internal_node_id":"0.0-4.0","task_version":"test-retest"},{"Rune":"rune_02_os","Hex":"#3366ff99","Correct":32,"Choice":32,"RT":1055.3100001998246,"Accuracy":1,"Outcome":"-1","Keys":[2556.52999994345],"TotalKeys":1,"Block":1,"Trial":3,"Robot":3,"Valence":"Lose","Action":"Go","Sham":0,"Color":"blue","trial_type":"pit-trial","trial_index":16,"time_elapsed":187589,"internal_node_id":"0.0-5.0","task_version":"test-retest"},{"Rune":"rune_02_haglaz","Hex":"#ffcc3399","Correct":-1,"Choice":32,"RT":614.1899998765439,"Accuracy":0,"Outcome":"+1","Keys":[2116.2250000052154],"TotalKeys":1,"Block":1,"Trial":4,"Robot":2,"Valence":"Win","Action":"No-Go","Sham":0,"Color":"yellow","trial_type":"pit-trial","trial_index":17,"time_elapsed":190709,"internal_node_id":"0.0-6.0","task_version":"test-retest"},{"Rune":"rune_02_haglaz","Hex":"#ffcc3399","Correct":-1,"Choice":32,"RT":566.5349999908358,"Accuracy":0,"Outcome":"+1","Keys":[2067.3799999058247],"TotalKeys":1,"Block":1,"Trial":5,"Robot":2,"Valence":"Win","Action":"No-Go","Sham":0,"Color":"yellow","trial_type":"pit-trial","trial_index":18,"time_elapsed":193780,"internal_node_id":"0.0-7.0","task_version":"test-retest"},{"Rune":"rune_02_os","Hex":"#3366ff99","Correct":32,"Choice":32,"RT":676.7400000244379,"Accuracy":1,"Outcome":"-10","Keys":[2186.079999897629],"TotalKeys":1,"Block":1,"Trial":6,"Robot":3,"Valence":"Lose","Action":"Go","Sham":1,"Color":"blue","trial_type":"pit-trial","trial_index":19,"time_elapsed":196969,"internal_node_id":"0.0-8.0","task_version":"test-retest"},{"Rune":"rune_02_cen","Hex":"#ffcc3399","Correct":32,"Choice":32,"RT":729.8799999989569,"Accuracy":1,"Outcome":"+1","Keys":[2230.625000083819],"TotalKeys":1,"Block":1,"Trial":7,"Robot":1,"Valence":"Win","Action":"Go","Sham":1,"Color":"yellow","trial_type":"pit-trial","trial_index":20,"time_elapsed":200210,"internal_node_id":"0.0-9.0","task_version":"test-retest"},{"Rune":"rune_02_raido","Hex":"#3366ff99","Correct":-1,"Choice":-1,"RT":-1,"Accuracy":1,"Outcome":"-1","Keys":[],"TotalKeys":0,"Block":1,"Trial":8,"Robot":4,"Valence":"Lose","Action":"No-Go","Sham":0,"Color":"blue","trial_type":"pit-trial","trial_index":21,"time_elapsed":204216,"internal_node_id":"0.0-10.0","task_version":"test-retest"},{"Rune":"rune_02_haglaz","Hex":"#ffcc3399","Correct":-1,"Choice":32,"RT":897.4800000432879,"Accuracy":0,"Outcome":"+10","Keys":[2409.6150000113994],"TotalKeys":1,"Block":1,"Trial":9,"Robot":2,"Valence":"Win","Action":"No-Go","Sham":1,"Color":"yellow","trial_type":"pit-trial","trial_index":22,"time_elapsed":207629,"internal_node_id":"0.0-11.0","task_version":"test-retest"},{"Rune":"rune_02_cen","Hex":"#ffcc3399","Correct":32,"Choice":32,"RT":905.0900000147521,"Accuracy":1,"Outcome":"+10","Keys":[2406.1600000131875],"TotalKeys":1,"Block":1,"Trial":10,"Robot":1,"Valence":"Win","Action":"Go","Sham":0,"Color":"yellow","trial_type":"pit-trial","trial_index":23,"time_elapsed":211040,"internal_node_id":"0.0-12.0","task_version":"test-retest"},{"Rune":"rune_02_os","Hex":"#3366ff99","Correct":32,"Choice":-1,"RT":-1,"Accuracy":0,"Outcome":"-10","Keys":[],"TotalKeys":0,"Block":1,"Trial":11,"Robot":3,"Valence":"Lose","Action":"Go","Sham":0,"Color":"blue","trial_type":"pit-trial","trial_index":24,"time_elapsed":215044,"internal_node_id":"0.0-13.0","task_version":"test-retest"},{"Rune":"rune_02_raido","Hex":"#3366ff99","Correct":-1,"Choice":-1,"RT":-1,"Accuracy":1,"Outcome":"-1","Keys":[],"TotalKeys":0,"Block":1,"Trial":12,"Robot":4,"Valence":"Lose","Action":"No-Go","Sham":0,"Color":"blue","trial_type":"pit-trial","trial_index":25,"time_elapsed":219054,"internal_node_id":"0.0-14.0","task_version":"test-retest"},{"Rune":"rune_02_os","Hex":"#3366ff99","Correct":32,"Choice":32,"RT":970.3450000379235,"Accuracy":1,"Outcome":"-1","Keys":[2471.4699999894947],"TotalKeys":1,"Block":1,"Trial":13,"Robot":3,"Valence":"Lose","Action":"Go","Sham":0,"Color":"blue","trial_type":"pit-trial","trial_index":26,"time_elapsed":222529,"internal_node_id":"0.0-15.0","task_version":"test-retest"},{"Rune":"rune_02_cen","Hex":"#ffcc3399","Correct":32,"Choice":32,"RT":865.5199999921024,"Accuracy":1,"Outcome":"+10","Keys":[2366.844999836758],"TotalKeys":1,"Block":1,"Trial":14,"Robot":1,"Valence":"Win","Action":"Go","Sham":0,"Color":"yellow","trial_type":"pit-trial","trial_index":27,"time_elapsed":225899,"internal_node_id":"0.0-16.0","task_version":"test-retest"},{"Rune":"rune_02_raido","Hex":"#3366ff99","Correct":-1,"Choice":-1,"RT":-1,"Accuracy":1,"Outcome":"-1","Keys":[],"TotalKeys":0,"Block":1,"Trial":15,"Robot":4,"Valence":"Lose","Action":"No-Go","Sham":0,"Color":"blue","trial_type":"pit-trial","trial_index":28,"time_elapsed":229905,"internal_node_id":"0.0-17.0","task_version":"test-retest"},{"Rune":"rune_02_haglaz","Hex":"#ffcc3399","Correct":-1,"Choice":32,"RT":605.6349999271333,"Accuracy":0,"Outcome":"+1","Keys":[2110.6400000862777],"TotalKeys":1,"Block":1,"Trial":16,"Robot":2,"Valence":"Win","Action":"No-Go","Sham":0,"Color":"yellow","trial_type":"pit-trial","trial_index":29,"time_elapsed":233020,"internal_node_id":"0.0-18.0","task_version":"test-retest"},{"Rune":"rune_02_cen","Hex":"#ffcc3399","Correct":32,"Choice":32,"RT":785.2249999996275,"Accuracy":1,"Outcome":"+10","Keys":[2285.8649999834597],"TotalKeys":1,"Block":1,"Trial":17,"Robot":1,"Valence":"Win","Action":"Go","Sham":0,"Color":"yellow","trial_type":"pit-trial","trial_index":30,"time_elapsed":236310,"internal_node_id":"0.0-19.0","task_version":"test-retest"},{"Rune":"rune_02_os","Hex":"#3366ff99","Correct":32,"Choice":-1,"RT":-1,"Accuracy":0,"Outcome":"-10","Keys":[],"TotalKeys":0,"Block":1,"Trial":18,"Robot":3,"Valence":"Lose","Action":"Go","Sham":0,"Color":"blue","trial_type":"pit-trial","trial_index":31,"time_elapsed":240316,"internal_node_id":"0.0-20.0","task_version":"test-retest"},{"Rune":"rune_02_haglaz","Hex":"#ffcc3399","Correct":-1,"Choice":-1,"RT":-1,"Accuracy":1,"Outcome":"+10","Keys":[],"TotalKeys":0,"Block":1,"Trial":19,"Robot":2,"Valence":"Win","Action":"No-Go","Sham":0,"Color":"yellow","trial_type":"pit-trial","trial_index":32,"time_elapsed":244320,"internal_node_id":"0.0-21.0","task_version":"test-retest"},{"Rune":"rune_02_raido","Hex":"#3366ff99","Correct":-1,"Choice":-1,"RT":-1,"Accuracy":1,"Outcome":"-1","Keys":[208.79999990575016],"TotalKeys":1,"Block":1,"Trial":20,"Robot":4,"Valence":"Lose","Action":"No-Go","Sham":0,"Color":"blue","trial_type":"pit-trial","trial_index":33,"time_elapsed":248323,"internal_node_id":"0.0-22.0","task_version":"test-retest"},{"Rune":"rune_02_os","Hex":"#3366ff99","Correct":32,"Choice":-1,"RT":-1,"Accuracy":0,"Outcome":"-1","Keys":[],"TotalKeys":0,"Block":1,"Trial":21,"Robot":3,"Valence":"Lose","Action":"Go","Sham":1,"Color":"blue","trial_type":"pit-trial","trial_index":34,"time_elapsed":252328,"internal_node_id":"0.0-23.0","task_version":"test-retest"},{"Rune":"rune_02_raido","Hex":"#3366ff99","Correct":-1,"Choice":-1,"RT":-1,"Accuracy":1,"Outcome":"-1","Keys":[],"TotalKeys":0,"Block":1,"Trial":22,"Robot":4,"Valence":"Lose","Action":"No-Go","Sham":0,"Color":"blue","trial_type":"pit-trial","trial_index":35,"time_elapsed":256333,"internal_node_id":"0.0-24.0","task_version":"test-retest"},{"Rune":"rune_02_haglaz","Hex":"#ffcc3399","Correct":-1,"Choice":32,"RT":611.2999999895692,"Accuracy":0,"Outcome":"+1","Keys":[2112.6200000289828],"TotalKeys":1,"Block":1,"Trial":23,"Robot":2,"Valence":"Win","Action":"No-Go","Sham":0,"Color":"yellow","trial_type":"pit-trial","trial_index":36,"time_elapsed":259448,"internal_node_id":"0.0-25.0","task_version":"test-retest"},{"Rune":"rune_02_cen","Hex":"#ffcc3399","Correct":32,"Choice":32,"RT":671.5150000527501,"Accuracy":1,"Outcome":"+10","Keys":[2171.62000015378],"TotalKeys":1,"Block":1,"Trial":24,"Robot":1,"Valence":"Win","Action":"Go","Sham":0,"Color":"yellow","trial_type":"pit-trial","trial_index":37,"time_elapsed":262626,"internal_node_id":"0.0-26.0","task_version":"test-retest"},{"Rune":"rune_02_os","Hex":"#3366ff99","Correct":32,"Choice":-1,"RT":-1,"Accuracy":0,"Outcome":"-10","Keys":[],"TotalKeys":0,"Block":1,"Trial":25,"Robot":3,"Valence":"Lose","Action":"Go","Sham":0,"Color":"blue","trial_type":"pit-trial","trial_index":38,"time_elapsed":266631,"internal_node_id":"0.0-27.0","task_version":"test-retest"},{"Rune":"rune_02_raido","Hex":"#3366ff99","Correct":-1,"Choice":-1,"RT":-1,"Accuracy":1,"Outcome":"-10","Keys":[],"TotalKeys":0,"Block":1,"Trial":26,"Robot":4,"Valence":"Lose","Action":"No-Go","Sham":1,"Color":"blue","trial_type":"pit-trial","trial_index":39,"time_elapsed":270636,"internal_node_id":"0.0-28.0","task_version":"test-retest"},{"Rune":"rune_02_haglaz","Hex":"#ffcc3399","Correct":-1,"Choice":32,"RT":631.7849999759346,"Accuracy":0,"Outcome":"+1","Keys":[2149.5900000445545],"TotalKeys":1,"Block":1,"Trial":27,"Robot":2,"Valence":"Win","Action":"No-Go","Sham":0,"Color":"yellow","trial_type":"pit-trial","trial_index":40,"time_elapsed":273789,"internal_node_id":"0.0-29.0","task_version":"test-retest"},{"Rune":"rune_02_cen","Hex":"#ffcc3399","Correct":32,"Choice":32,"RT":625.4300000146031,"Accuracy":1,"Outcome":"+10","Keys":[2135.6699999887496],"TotalKeys":1,"Block":1,"Trial":28,"Robot":1,"Valence":"Win","Action":"Go","Sham":0,"Color":"yellow","trial_type":"pit-trial","trial_index":41,"time_elapsed":276929,"internal_node_id":"0.0-30.0","task_version":"test-retest"},{"Rune":"rune_02_haglaz","Hex":"#ffcc3399","Correct":-1,"Choice":-1,"RT":-1,"Accuracy":1,"Outcome":"+10","Keys":[],"TotalKeys":0,"Block":1,"Trial":29,"Robot":2,"Valence":"Win","Action":"No-Go","Sham":0,"Color":"yellow","trial_type":"pit-trial","trial_index":42,"time_elapsed":280933,"internal_node_id":"0.0-31.0","task_version":"test-retest"},{"Rune":"rune_02_raido","Hex":"#3366ff99","Correct":-1,"Choice":32,"RT":1213.7849999126047,"Accuracy":0,"Outcome":"-10","Keys":[2716.9200000353158],"TotalKeys":1,"Block":1,"Trial":30,"Robot":4,"Valence":"Lose","Action":"No-Go","Sham":0,"Color":"blue","trial_type":"pit-trial","trial_index":43,"time_elapsed":284653,"internal_node_id":"0.0-32.0","task_version":"test-retest"},{"Rune":"rune_02_cen","Hex":"#ffcc3399","Correct":32,"Choice":32,"RT":670.8150000777096,"Accuracy":1,"Outcome":"+1","Keys":[2171.875],"TotalKeys":1,"Block":1,"Trial":31,"Robot":1,"Valence":"Win","Action":"Go","Sham":1,"Color":"yellow","trial_type":"pit-trial","trial_index":44,"time_elapsed":287830,"internal_node_id":"0.0-33.0","task_version":"test-retest"},{"Rune":"rune_02_os","Hex":"#3366ff99","Correct":32,"Choice":-1,"RT":-1,"Accuracy":0,"Outcome":"-10","Keys":[],"TotalKeys":0,"Block":1,"Trial":32,"Robot":3,"Valence":"Lose","Action":"Go","Sham":0,"Color":"blue","trial_type":"pit-trial","trial_index":45,"time_elapsed":291835,"internal_node_id":"0.0-34.0","task_version":"test-retest"},{"Rune":"rune_02_raido","Hex":"#3366ff99","Correct":-1,"Choice":-1,"RT":-1,"Accuracy":1,"Outcome":"-1","Keys":[],"TotalKeys":0,"Block":1,"Trial":33,"Robot":4,"Valence":"Lose","Action":"No-Go","Sham":0,"Color":"blue","trial_type":"pit-trial","trial_index":46,"time_elapsed":295840,"internal_node_id":"0.0-35.0","task_version":"test-retest"},{"Rune":"rune_02_cen","Hex":"#ffcc3399","Correct":32,"Choice":32,"RT":873.1299999635667,"Accuracy":1,"Outcome":"+10","Keys":[2374.945000046864],"TotalKeys":1,"Block":1,"Trial":34,"Robot":1,"Valence":"Win","Action":"Go","Sham":0,"Color":"yellow","trial_type":"pit-trial","trial_index":47,"time_elapsed":299219,"internal_node_id":"0.0-36.0","task_version":"test-retest"},{"Rune":"rune_02_os","Hex":"#3366ff99","Correct":32,"Choice":-1,"RT":-1,"Accuracy":0,"Outcome":"-10","Keys":[],"TotalKeys":0,"Block":1,"Trial":35,"Robot":3,"Valence":"Lose","Action":"Go","Sham":0,"Color":"blue","trial_type":"pit-trial","trial_index":48,"time_elapsed":303242,"internal_node_id":"0.0-37.0","task_version":"test-retest"},{"Rune":"rune_02_haglaz","Hex":"#ffcc3399","Correct":-1,"Choice":32,"RT":961.5000002086163,"Accuracy":0,"Outcome":"+10","Keys":[2463.254999835044],"TotalKeys":1,"Block":1,"Trial":36,"Robot":2,"Valence":"Win","Action":"No-Go","Sham":1,"Color":"yellow","trial_type":"pit-trial","trial_index":49,"time_elapsed":306709,"internal_node_id":"0.0-38.0","task_version":"test-retest"},{"Rune":"rune_02_cen","Hex":"#ffcc3399","Correct":32,"Choice":32,"RT":797.495000064373,"Accuracy":1,"Outcome":"+10","Keys":[2306.895000161603],"TotalKeys":1,"Block":1,"Trial":37,"Robot":1,"Valence":"Win","Action":"Go","Sham":0,"Color":"yellow","trial_type":"pit-trial","trial_index":50,"time_elapsed":310020,"internal_node_id":"0.0-39.0","task_version":"test-retest"},{"Rune":"rune_02_os","Hex":"#3366ff99","Correct":32,"Choice":-1,"RT":-1,"Accuracy":0,"Outcome":"-10","Keys":[],"TotalKeys":0,"Block":1,"Trial":38,"Robot":3,"Valence":"Lose","Action":"Go","Sham":0,"Color":"blue","trial_type":"pit-trial","trial_index":51,"time_elapsed":314024,"internal_node_id":"0.0-40.0","task_version":"test-retest"},{"Rune":"rune_02_raido","Hex":"#3366ff99","Correct":-1,"Choice":-1,"RT":-1,"Accuracy":1,"Outcome":"-1","Keys":[],"TotalKeys":0,"Block":1,"Trial":39,"Robot":4,"Valence":"Lose","Action":"No-Go","Sham":0,"Color":"blue","trial_type":"pit-trial","trial_index":52,"time_elapsed":318029,"internal_node_id":"0.0-41.0","task_version":"test-retest"},{"Rune":"rune_02_haglaz","Hex":"#ffcc3399","Correct":-1,"Choice":32,"RT":576.569999800995,"Accuracy":0,"Outcome":"+1","Keys":[2076.8599999137223],"TotalKeys":1,"Block":1,"Trial":40,"Robot":2,"Valence":"Win","Action":"No-Go","Sham":0,"Color":"yellow","trial_type":"pit-trial","trial_index":53,"time_elapsed":321108,"internal_node_id":"0.0-42.0","task_version":"test-retest"},{"Rune":"rune_02_raido","Hex":"#3366ff99","Correct":-1,"Choice":-1,"RT":-1,"Accuracy":1,"Outcome":"-1","Keys":[],"TotalKeys":0,"Block":1,"Trial":41,"Robot":4,"Valence":"Lose","Action":"No-Go","Sham":0,"Color":"blue","trial_type":"pit-trial","trial_index":54,"time_elapsed":325115,"internal_node_id":"0.0-43.0","task_version":"test-retest"},{"Rune":"rune_02_haglaz","Hex":"#ffcc3399","Correct":-1,"Choice":32,"RT":734.4299999531358,"Accuracy":0,"Outcome":"+1","Keys":[2250.675000017509],"TotalKeys":1,"Block":1,"Trial":42,"Robot":2,"Valence":"Win","Action":"No-Go","Sham":0,"Color":"yellow","trial_type":"pit-trial","trial_index":55,"time_elapsed":328369,"internal_node_id":"0.0-44.0","task_version":"test-retest"},{"Rune":"rune_02_os","Hex":"#3366ff99","Correct":32,"Choice":-1,"RT":-1,"Accuracy":0,"Outcome":"-10","Keys":[],"TotalKeys":0,"Block":1,"Trial":43,"Robot":3,"Valence":"Lose","Action":"Go","Sham":0,"Color":"blue","trial_type":"pit-trial","trial_index":56,"time_elapsed":332375,"internal_node_id":"0.0-45.0","task_version":"test-retest"},{"Rune":"rune_02_cen","Hex":"#ffcc3399","Correct":32,"Choice":32,"RT":648.9699999801815,"Accuracy":1,"Outcome":"+10","Keys":[2152.585000032559],"TotalKeys":1,"Block":1,"Trial":44,"Robot":1,"Valence":"Win","Action":"Go","Sham":0,"Color":"yellow","trial_type":"pit-trial","trial_index":57,"time_elapsed":335531,"internal_node_id":"0.0-46.0","task_version":"test-retest"},{"Rune":"rune_02_os","Hex":"#3366ff99","Correct":32,"Choice":-1,"RT":-1,"Accuracy":0,"Outcome":"-10","Keys":[],"TotalKeys":0,"Block":1,"Trial":45,"Robot":3,"Valence":"Lose","Action":"Go","Sham":0,"Color":"blue","trial_type":"pit-trial","trial_index":58,"time_elapsed":339536,"internal_node_id":"0.0-47.0","task_version":"test-retest"},{"Rune":"rune_02_cen","Hex":"#ffcc3399","Correct":32,"Choice":32,"RT":878.6400000099093,"Accuracy":1,"Outcome":"+10","Keys":[2379.349999828264],"TotalKeys":1,"Block":1,"Trial":46,"Robot":1,"Valence":"Win","Action":"Go","Sham":0,"Color":"yellow","trial_type":"pit-trial","trial_index":59,"time_elapsed":342919,"internal_node_id":"0.0-48.0","task_version":"test-retest"},{"Rune":"rune_02_haglaz","Hex":"#ffcc3399","Correct":-1,"Choice":32,"RT":935.025000013411,"Accuracy":0,"Outcome":"+10","Keys":[2436.805000063032],"TotalKeys":1,"Block":1,"Trial":47,"Robot":2,"Valence":"Win","Action":"No-Go","Sham":1,"Color":"yellow","trial_type":"pit-trial","trial_index":60,"time_elapsed":346359,"internal_node_id":"0.0-49.0","task_version":"test-retest"},{"Rune":"rune_02_raido","Hex":"#3366ff99","Correct":-1,"Choice":-1,"RT":-1,"Accuracy":1,"Outcome":"-10","Keys":[],"TotalKeys":0,"Block":1,"Trial":48,"Robot":4,"Valence":"Lose","Action":"No-Go","Sham":1,"Color":"blue","trial_type":"pit-trial","trial_index":61,"time_elapsed":350362,"internal_node_id":"0.0-50.0","task_version":"test-retest"},{"Rune":"rune_02_os","Hex":"#3366ff99","Correct":32,"Choice":-1,"RT":-1,"Accuracy":0,"Outcome":"-1","Keys":[],"TotalKeys":0,"Block":1,"Trial":49,"Robot":3,"Valence":"Lose","Action":"Go","Sham":1,"Color":"blue","trial_type":"pit-trial","trial_index":62,"time_elapsed":354368,"internal_node_id":"0.0-51.0","task_version":"test-retest"},{"Rune":"rune_02_haglaz","Hex":"#ffcc3399","Correct":-1,"Choice":32,"RT":654.6350000426173,"Accuracy":0,"Outcome":"+1","Keys":[2155.4950000718236],"TotalKeys":1,"Block":1,"Trial":50,"Robot":2,"Valence":"Win","Action":"No-Go","Sham":0,"Color":"yellow","trial_type":"pit-trial","trial_index":63,"time_elapsed":357529,"internal_node_id":"0.0-52.0","task_version":"test-retest"},{"Rune":"rune_02_raido","Hex":"#3366ff99","Correct":-1,"Choice":-1,"RT":-1,"Accuracy":1,"Outcome":"-1","Keys":[],"TotalKeys":0,"Block":1,"Trial":51,"Robot":4,"Valence":"Lose","Action":"No-Go","Sham":0,"Color":"blue","trial_type":"pit-trial","trial_index":64,"time_elapsed":361535,"internal_node_id":"0.0-53.0","task_version":"test-retest"},{"Rune":"rune_02_cen","Hex":"#ffcc3399","Correct":32,"Choice":32,"RT":758.6049998644739,"Accuracy":1,"Outcome":"+10","Keys":[2260.7450000941753],"TotalKeys":1,"Block":1,"Trial":52,"Robot":1,"Valence":"Win","Action":"Go","Sham":0,"Color":"yellow","trial_type":"pit-trial","trial_index":65,"time_elapsed":364800,"internal_node_id":"0.0-54.0","task_version":"test-retest"},{"Rune":"rune_02_cen","Hex":"#ffcc3399","Correct":32,"Choice":32,"RT":788.5650000534952,"Accuracy":1,"Outcome":"+10","Keys":[2324.1449999623],"TotalKeys":1,"Block":1,"Trial":53,"Robot":1,"Valence":"Win","Action":"Go","Sham":0,"Color":"yellow","trial_type":"pit-trial","trial_index":66,"time_elapsed":368129,"internal_node_id":"0.0-55.0","task_version":"test-retest"},{"Rune":"rune_02_raido","Hex":"#3366ff99","Correct":-1,"Choice":-1,"RT":-1,"Accuracy":1,"Outcome":"-1","Keys":[],"TotalKeys":0,"Block":1,"Trial":54,"Robot":4,"Valence":"Lose","Action":"No-Go","Sham":0,"Color":"blue","trial_type":"pit-trial","trial_index":67,"time_elapsed":372134,"internal_node_id":"0.0-56.0","task_version":"test-retest"},{"Rune":"rune_02_os","Hex":"#3366ff99","Correct":32,"Choice":-1,"RT":-1,"Accuracy":0,"Outcome":"-10","Keys":[],"TotalKeys":0,"Block":1,"Trial":55,"Robot":3,"Valence":"Lose","Action":"Go","Sham":0,"Color":"blue","trial_type":"pit-trial","trial_index":68,"time_elapsed":376139,"internal_node_id":"0.0-57.0","task_version":"test-retest"},{"Rune":"rune_02_haglaz","Hex":"#ffcc3399","Correct":-1,"Choice":32,"RT":701.8949999473989,"Accuracy":0,"Outcome":"+1","Keys":[2221.4200000744313],"TotalKeys":1,"Block":1,"Trial":56,"Robot":2,"Valence":"Win","Action":"No-Go","Sham":0,"Color":"yellow","trial_type":"pit-trial","trial_index":69,"time_elapsed":379379,"internal_node_id":"0.0-58.0","task_version":"test-retest"},{"Rune":"rune_02_haglaz","Hex":"#ffcc3399","Correct":-1,"Choice":32,"RT":705.5699999909848,"Accuracy":0,"Outcome":"+1","Keys":[2206.4549999777228],"TotalKeys":1,"Block":1,"Trial":57,"Robot":2,"Valence":"Win","Action":"No-Go","Sham":0,"Color":"yellow","trial_type":"pit-trial","trial_index":70,"time_elapsed":382590,"internal_node_id":"0.0-59.0","task_version":"test-retest"},{"Rune":"rune_02_cen","Hex":"#ffcc3399","Correct":32,"Choice":32,"RT":602.6449999772012,"Accuracy":1,"Outcome":"+1","Keys":[2107.8200000338256],"TotalKeys":1,"Block":1,"Trial":58,"Robot":1,"Valence":"Win","Action":"Go","Sham":1,"Color":"yellow","trial_type":"pit-trial","trial_index":71,"time_elapsed":385702,"internal_node_id":"0.0-60.0","task_version":"test-retest"},{"Rune":"rune_02_raido","Hex":"#3366ff99","Correct":-1,"Choice":-1,"RT":-1,"Accuracy":1,"Outcome":"-1","Keys":[],"TotalKeys":0,"Block":1,"Trial":59,"Robot":4,"Valence":"Lose","Action":"No-Go","Sham":0,"Color":"blue","trial_type":"pit-trial","trial_index":72,"time_elapsed":389706,"internal_node_id":"0.0-61.0","task_version":"test-retest"},{"Rune":"rune_02_os","Hex":"#3366ff99","Correct":32,"Choice":32,"RT":1063.4949998930097,"Accuracy":1,"Outcome":"-1","Keys":[2569.270000094548],"TotalKeys":1,"Block":1,"Trial":60,"Robot":3,"Valence":"Lose","Action":"Go","Sham":0,"Color":"blue","trial_type":"pit-trial","trial_index":73,"time_elapsed":393279,"internal_node_id":"0.0-62.0","task_version":"test-retest"},{"value":false,"trial_type":"call-function","trial_index":74,"time_elapsed":393281,"internal_node_id":"0.0-63.0","task_version":"test-retest"},{"view_history":"[{\"page_index\":0,\"viewing_time\":8505.170000018552},{\"page_index\":1,\"viewing_time\":3391.0600000526756}]","rt":11896.835000021383,"trial_type":"pit-instructions","trial_index":75,"time_elapsed":405178,"internal_node_id":"0.0-64.0","task_version":"test-retest"},{"Rune":"rune_02_cen","Hex":"#ffcc3399","Correct":32,"Choice":32,"RT":677.2750001400709,"Accuracy":1,"Outcome":"+1","Keys":[2183.3699999842793],"TotalKeys":1,"Block":1,"Trial":61,"Robot":1,"Valence":"Win","Action":"Go","Sham":1,"Color":"yellow","trial_type":"pit-trial","trial_index":76,"time_elapsed":408369,"internal_node_id":"0.0-65.0","task_version":"test-retest"},{"Rune":"rune_02_raido","Hex":"#3366ff99","Correct":-1,"Choice":-1,"RT":-1,"Accuracy":1,"Outcome":"-1","Keys":[],"TotalKeys":0,"Block":1,"Trial":62,"Robot":4,"Valence":"Lose","Action":"No-Go","Sham":0,"Color":"blue","trial_type":"pit-trial","trial_index":77,"time_elapsed":412374,"internal_node_id":"0.0-66.0","task_version":"test-retest"},{"Rune":"rune_02_haglaz","Hex":"#ffcc3399","Correct":-1,"Choice":32,"RT":688.7499999720603,"Accuracy":0,"Outcome":"+10","Keys":[2190.4949999880046],"TotalKeys":1,"Block":1,"Trial":63,"Robot":2,"Valence":"Win","Action":"No-Go","Sham":1,"Color":"yellow","trial_type":"pit-trial","trial_index":78,"time_elapsed":415569,"internal_node_id":"0.0-67.0","task_version":"test-retest"},{"Rune":"rune_02_os","Hex":"#3366ff99","Correct":32,"Choice":-1,"RT":-1,"Accuracy":0,"Outcome":"-10","Keys":[],"TotalKeys":0,"Block":1,"Trial":64,"Robot":3,"Valence":"Lose","Action":"Go","Sham":0,"Color":"blue","trial_type":"pit-trial","trial_index":79,"time_elapsed":419573,"internal_node_id":"0.0-68.0","task_version":"test-retest"},{"Rune":"rune_02_cen","Hex":"#ffcc3399","Correct":32,"Choice":32,"RT":778.154999949038,"Accuracy":1,"Outcome":"+10","Keys":[2291.9400001410395],"TotalKeys":1,"Block":1,"Trial":65,"Robot":1,"Valence":"Win","Action":"Go","Sham":0,"Color":"yellow","trial_type":"pit-trial","trial_index":80,"time_elapsed":422871,"internal_node_id":"0.0-69.0","task_version":"test-retest"},{"Rune":"rune_02_os","Hex":"#3366ff99","Correct":32,"Choice":32,"RT":992.4200000241399,"Accuracy":1,"Outcome":"-1","Keys":[2505.3000000771135],"TotalKeys":1,"Block":1,"Trial":66,"Robot":3,"Valence":"Lose","Action":"Go","Sham":0,"Color":"blue","trial_type":"pit-trial","trial_index":81,"time_elapsed":426404,"internal_node_id":"0.0-70.0","task_version":"test-retest"},{"Rune":"rune_02_raido","Hex":"#3366ff99","Correct":-1,"Choice":-1,"RT":-1,"Accuracy":1,"Outcome":"-1","Keys":[],"TotalKeys":0,"Block":1,"Trial":67,"Robot":4,"Valence":"Lose","Action":"No-Go","Sham":0,"Color":"blue","trial_type":"pit-trial","trial_index":82,"time_elapsed":430410,"internal_node_id":"0.0-71.0","task_version":"test-retest"},{"Rune":"rune_02_haglaz","Hex":"#ffcc3399","Correct":-1,"Choice":32,"RT":615.2300001122057,"Accuracy":0,"Outcome":"+1","Keys":[2116.1950000096112],"TotalKeys":1,"Block":1,"Trial":68,"Robot":2,"Valence":"Win","Action":"No-Go","Sham":0,"Color":"yellow","trial_type":"pit-trial","trial_index":83,"time_elapsed":433530,"internal_node_id":"0.0-72.0","task_version":"test-retest"},{"Rune":"rune_02_haglaz","Hex":"#ffcc3399","Correct":-1,"Choice":32,"RT":803.8250000681728,"Accuracy":0,"Outcome":"+1","Keys":[2305.8599999640137],"TotalKeys":1,"Block":1,"Trial":69,"Robot":2,"Valence":"Win","Action":"No-Go","Sham":0,"Color":"yellow","trial_type":"pit-trial","trial_index":84,"time_elapsed":436840,"internal_node_id":"0.0-73.0","task_version":"test-retest"},{"Rune":"rune_02_os","Hex":"#3366ff99","Correct":32,"Choice":32,"RT":814.5600000862032,"Accuracy":1,"Outcome":"-1","Keys":[2316.4700001943856],"TotalKeys":1,"Block":1,"Trial":70,"Robot":3,"Valence":"Lose","Action":"Go","Sham":0,"Color":"blue","trial_type":"pit-trial","trial_index":85,"time_elapsed":440160,"internal_node_id":"0.0-74.0","task_version":"test-retest"},{"Rune":"rune_02_cen","Hex":"#ffcc3399","Correct":32,"Choice":32,"RT":745.094999903813,"Accuracy":1,"Outcome":"+10","Keys":[2246.3849999476224],"TotalKeys":1,"Block":1,"Trial":71,"Robot":1,"Valence":"Win","Action":"Go","Sham":0,"Color":"yellow","trial_type":"pit-trial","trial_index":86,"time_elapsed":443411,"internal_node_id":"0.0-75.0","task_version":"test-retest"},{"Rune":"rune_02_raido","Hex":"#3366ff99","Correct":-1,"Choice":-1,"RT":-1,"Accuracy":1,"Outcome":"-1","Keys":[],"TotalKeys":0,"Block":1,"Trial":72,"Robot":4,"Valence":"Lose","Action":"No-Go","Sham":0,"Color":"blue","trial_type":"pit-trial","trial_index":87,"time_elapsed":447416,"internal_node_id":"0.0-76.0","task_version":"test-retest"},{"Rune":"rune_02_os","Hex":"#3366ff99","Correct":32,"Choice":32,"RT":859.7899999003857,"Accuracy":1,"Outcome":"-1","Keys":[2359.8400000482798],"TotalKeys":1,"Block":1,"Trial":73,"Robot":3,"Valence":"Lose","Action":"Go","Sham":0,"Color":"blue","trial_type":"pit-trial","trial_index":88,"time_elapsed":450779,"internal_node_id":"0.0-77.0","task_version":"test-retest"},{"Rune":"rune_02_cen","Hex":"#ffcc3399","Correct":32,"Choice":32,"RT":806.9300001952797,"Accuracy":1,"Outcome":"+10","Keys":[2308.024999918416],"TotalKeys":1,"Block":1,"Trial":74,"Robot":1,"Valence":"Win","Action":"Go","Sham":0,"Color":"yellow","trial_type":"pit-trial","trial_index":89,"time_elapsed":454090,"internal_node_id":"0.0-78.0","task_version":"test-retest"},{"Rune":"rune_02_raido","Hex":"#3366ff99","Correct":-1,"Choice":-1,"RT":-1,"Accuracy":1,"Outcome":"-10","Keys":[],"TotalKeys":0,"Block":1,"Trial":75,"Robot":4,"Valence":"Lose","Action":"No-Go","Sham":1,"Color":"blue","trial_type":"pit-trial","trial_index":90,"time_elapsed":458095,"internal_node_id":"0.0-79.0","task_version":"test-retest"},{"Rune":"rune_02_haglaz","Hex":"#ffcc3399","Correct":-1,"Choice":32,"RT":1193.3250001166016,"Accuracy":0,"Outcome":"+1","Keys":[2696.185000007972],"TotalKeys":1,"Block":1,"Trial":76,"Robot":2,"Valence":"Win","Action":"No-Go","Sham":0,"Color":"yellow","trial_type":"pit-trial","trial_index":91,"time_elapsed":461796,"internal_node_id":"0.0-80.0","task_version":"test-retest"},{"Rune":"rune_02_cen","Hex":"#ffcc3399","Correct":32,"Choice":32,"RT":699.8000000603497,"Accuracy":1,"Outcome":"+10","Keys":[2199.894999852404],"TotalKeys":1,"Block":1,"Trial":77,"Robot":1,"Valence":"Win","Action":"Go","Sham":0,"Color":"yellow","trial_type":"pit-trial","trial_index":92,"time_elapsed":465000,"internal_node_id":"0.0-81.0","task_version":"test-retest"},{"Rune":"rune_02_haglaz","Hex":"#ffcc3399","Correct":-1,"Choice":32,"RT":674.2850001901388,"Accuracy":0,"Outcome":"+1","Keys":[2176.149999955669],"TotalKeys":1,"Block":1,"Trial":78,"Robot":2,"Valence":"Win","Action":"No-Go","Sham":0,"Color":"yellow","trial_type":"pit-trial","trial_index":93,"time_elapsed":468181,"internal_node_id":"0.0-82.0","task_version":"test-retest"},{"Rune":"rune_02_raido","Hex":"#3366ff99","Correct":-1,"Choice":-1,"RT":-1,"Accuracy":1,"Outcome":"-1","Keys":[],"TotalKeys":0,"Block":1,"Trial":79,"Robot":4,"Valence":"Lose","Action":"No-Go","Sham":0,"Color":"blue","trial_type":"pit-trial","trial_index":94,"time_elapsed":472186,"internal_node_id":"0.0-83.0","task_version":"test-retest"},{"Rune":"rune_02_os","Hex":"#3366ff99","Correct":32,"Choice":-1,"RT":-1,"Accuracy":0,"Outcome":"-1","Keys":[],"TotalKeys":0,"Block":1,"Trial":80,"Robot":3,"Valence":"Lose","Action":"Go","Sham":1,"Color":"blue","trial_type":"pit-trial","trial_index":95,"time_elapsed":476190,"internal_node_id":"0.0-84.0","task_version":"test-retest"},{"Rune":"rune_02_cen","Hex":"#ffcc3399","Correct":32,"Choice":32,"RT":832.6399999205023,"Accuracy":1,"Outcome":"+10","Keys":[2333.020000020042],"TotalKeys":1,"Block":1,"Trial":81,"Robot":1,"Valence":"Win","Action":"Go","Sham":0,"Color":"yellow","trial_type":"pit-trial","trial_index":96,"time_elapsed":479529,"internal_node_id":"0.0-85.0","task_version":"test-retest"},{"Rune":"rune_02_raido","Hex":"#3366ff99","Correct":-1,"Choice":-1,"RT":-1,"Accuracy":1,"Outcome":"-10","Keys":[],"TotalKeys":0,"Block":1,"Trial":82,"Robot":4,"Valence":"Lose","Action":"No-Go","Sham":1,"Color":"blue","trial_type":"pit-trial","trial_index":97,"time_elapsed":483535,"internal_node_id":"0.0-86.0","task_version":"test-retest"},{"Rune":"rune_02_haglaz","Hex":"#ffcc3399","Correct":-1,"Choice":32,"RT":650.3799997735769,"Accuracy":0,"Outcome":"+10","Keys":[2151.270000031218],"TotalKeys":1,"Block":1,"Trial":83,"Robot":2,"Valence":"Win","Action":"No-Go","Sham":1,"Color":"yellow","trial_type":"pit-trial","trial_index":98,"time_elapsed":486690,"internal_node_id":"0.0-87.0","task_version":"test-retest"},{"Rune":"rune_02_os","Hex":"#3366ff99","Correct":32,"Choice":-1,"RT":-1,"Accuracy":0,"Outcome":"-10","Keys":[],"TotalKeys":0,"Block":1,"Trial":84,"Robot":3,"Valence":"Lose","Action":"Go","Sham":0,"Color":"blue","trial_type":"pit-trial","trial_index":99,"time_elapsed":490694,"internal_node_id":"0.0-88.0","task_version":"test-retest"},{"Rune":"rune_02_os","Hex":"#3366ff99","Correct":32,"Choice":-1,"RT":-1,"Accuracy":0,"Outcome":"-1","Keys":[],"TotalKeys":0,"Block":1,"Trial":85,"Robot":3,"Valence":"Lose","Action":"Go","Sham":1,"Color":"blue","trial_type":"pit-trial","trial_index":100,"time_elapsed":494712,"internal_node_id":"0.0-89.0","task_version":"test-retest"},{"Rune":"rune_02_haglaz","Hex":"#ffcc3399","Correct":-1,"Choice":32,"RT":633.4849998820573,"Accuracy":0,"Outcome":"+1","Keys":[2134.4699999317527],"TotalKeys":1,"Block":1,"Trial":86,"Robot":2,"Valence":"Win","Action":"No-Go","Sham":0,"Color":"yellow","trial_type":"pit-trial","trial_index":101,"time_elapsed":497851,"internal_node_id":"0.0-90.0","task_version":"test-retest"},{"Rune":"rune_02_raido","Hex":"#3366ff99","Correct":-1,"Choice":-1,"RT":-1,"Accuracy":1,"Outcome":"-1","Keys":[],"TotalKeys":0,"Block":1,"Trial":87,"Robot":4,"Valence":"Lose","Action":"No-Go","Sham":0,"Color":"blue","trial_type":"pit-trial","trial_index":102,"time_elapsed":501855,"internal_node_id":"0.0-91.0","task_version":"test-retest"},{"Rune":"rune_02_cen","Hex":"#ffcc3399","Correct":32,"Choice":32,"RT":699.7200001496822,"Accuracy":1,"Outcome":"+10","Keys":[2200.639999937266],"TotalKeys":1,"Block":1,"Trial":88,"Robot":1,"Valence":"Win","Action":"Go","Sham":0,"Color":"yellow","trial_type":"pit-trial","trial_index":103,"time_elapsed":505060,"internal_node_id":"0.0-92.0","task_version":"test-retest"},{"Rune":"rune_02_cen","Hex":"#ffcc3399","Correct":32,"Choice":32,"RT":774.6550000738353,"Accuracy":1,"Outcome":"+1","Keys":[2276.4550000429153],"TotalKeys":1,"Block":1,"Trial":89,"Robot":1,"Valence":"Win","Action":"Go","Sham":1,"Color":"yellow","trial_type":"pit-trial","trial_index":104,"time_elapsed":508340,"internal_node_id":"0.0-93.0","task_version":"test-retest"},{"Rune":"rune_02_os","Hex":"#3366ff99","Correct":32,"Choice":-1,"RT":-1,"Accuracy":0,"Outcome":"-10","Keys":[],"TotalKeys":0,"Block":1,"Trial":90,"Robot":3,"Valence":"Lose","Action":"Go","Sham":0,"Color":"blue","trial_type":"pit-trial","trial_index":105,"time_elapsed":512343,"internal_node_id":"0.0-94.0","task_version":"test-retest"},{"Rune":"rune_02_haglaz","Hex":"#ffcc3399","Correct":-1,"Choice":-1,"RT":-1,"Accuracy":1,"Outcome":"+10","Keys":[],"TotalKeys":0,"Block":1,"Trial":91,"Robot":2,"Valence":"Win","Action":"No-Go","Sham":0,"Color":"yellow","trial_type":"pit-trial","trial_index":106,"time_elapsed":516348,"internal_node_id":"0.0-95.0","task_version":"test-retest"},{"Rune":"rune_02_raido","Hex":"#3366ff99","Correct":-1,"Choice":-1,"RT":-1,"Accuracy":1,"Outcome":"-1","Keys":[119.29499986581504],"TotalKeys":1,"Block":1,"Trial":92,"Robot":4,"Valence":"Lose","Action":"No-Go","Sham":0,"Color":"blue","trial_type":"pit-trial","trial_index":107,"time_elapsed":520370,"internal_node_id":"0.0-96.0","task_version":"test-retest"},{"Rune":"rune_02_raido","Hex":"#3366ff99","Correct":-1,"Choice":-1,"RT":-1,"Accuracy":1,"Outcome":"-1","Keys":[],"TotalKeys":0,"Block":1,"Trial":93,"Robot":4,"Valence":"Lose","Action":"No-Go","Sham":0,"Color":"blue","trial_type":"pit-trial","trial_index":108,"time_elapsed":524378,"internal_node_id":"0.0-97.0","task_version":"test-retest"},{"Rune":"rune_02_haglaz","Hex":"#ffcc3399","Correct":-1,"Choice":32,"RT":513.1900000851601,"Accuracy":0,"Outcome":"+1","Keys":[2027.9299998655915],"TotalKeys":1,"Block":1,"Trial":94,"Robot":2,"Valence":"Win","Action":"No-Go","Sham":0,"Color":"yellow","trial_type":"pit-trial","trial_index":109,"time_elapsed":527410,"internal_node_id":"0.0-98.0","task_version":"test-retest"},{"Rune":"rune_02_cen","Hex":"#ffcc3399","Correct":32,"Choice":32,"RT":574.8450001701713,"Accuracy":1,"Outcome":"+10","Keys":[2075.9199999738485],"TotalKeys":1,"Block":1,"Trial":95,"Robot":1,"Valence":"Win","Action":"Go","Sham":0,"Color":"yellow","trial_type":"pit-trial","trial_index":110,"time_elapsed":530489,"internal_node_id":"0.0-99.0","task_version":"test-retest"},{"Rune":"rune_02_os","Hex":"#3366ff99","Correct":32,"Choice":-1,"RT":-1,"Accuracy":0,"Outcome":"-10","Keys":[],"TotalKeys":0,"Block":1,"Trial":96,"Robot":3,"Valence":"Lose","Action":"Go","Sham":0,"Color":"blue","trial_type":"pit-trial","trial_index":111,"time_elapsed":534492,"internal_node_id":"0.0-100.0","task_version":"test-retest"},{"Rune":"rune_02_haglaz","Hex":"#ffcc3399","Correct":-1,"Choice":32,"RT":612.3049999587238,"Accuracy":0,"Outcome":"+1","Keys":[2113.469999982044],"TotalKeys":1,"Block":1,"Trial":97,"Robot":2,"Valence":"Win","Action":"No-Go","Sham":0,"Color":"yellow","trial_type":"pit-trial","trial_index":112,"time_elapsed":537610,"internal_node_id":"0.0-101.0","task_version":"test-retest"},{"Rune":"rune_02_raido","Hex":"#3366ff99","Correct":-1,"Choice":-1,"RT":-1,"Accuracy":1,"Outcome":"-1","Keys":[],"TotalKeys":0,"Block":1,"Trial":98,"Robot":4,"Valence":"Lose","Action":"No-Go","Sham":0,"Color":"blue","trial_type":"pit-trial","trial_index":113,"time_elapsed":541615,"internal_node_id":"0.0-102.0","task_version":"test-retest"},{"Rune":"rune_02_cen","Hex":"#ffcc3399","Correct":32,"Choice":32,"RT":786.8399999570101,"Accuracy":1,"Outcome":"+10","Keys":[2301.4749998692423],"TotalKeys":1,"Block":1,"Trial":99,"Robot":1,"Valence":"Win","Action":"Go","Sham":0,"Color":"yellow","trial_type":"pit-trial","trial_index":114,"time_elapsed":544920,"internal_node_id":"0.0-103.0","task_version":"test-retest"},{"Rune":"rune_02_os","Hex":"#3366ff99","Correct":32,"Choice":-1,"RT":-1,"Accuracy":0,"Outcome":"-10","Keys":[],"TotalKeys":0,"Block":1,"Trial":100,"Robot":3,"Valence":"Lose","Action":"Go","Sham":0,"Color":"blue","trial_type":"pit-trial","trial_index":115,"time_elapsed":548924,"internal_node_id":"0.0-104.0","task_version":"test-retest"},{"Rune":"rune_02_os","Hex":"#3366ff99","Correct":32,"Choice":-1,"RT":-1,"Accuracy":0,"Outcome":"-1","Keys":[],"TotalKeys":0,"Block":1,"Trial":101,"Robot":3,"Valence":"Lose","Action":"Go","Sham":1,"Color":"blue","trial_type":"pit-trial","trial_index":116,"time_elapsed":552930,"internal_node_id":"0.0-105.0","task_version":"test-retest"},{"Rune":"rune_02_raido","Hex":"#3366ff99","Correct":-1,"Choice":-1,"RT":-1,"Accuracy":1,"Outcome":"-1","Keys":[],"TotalKeys":0,"Block":1,"Trial":102,"Robot":4,"Valence":"Lose","Action":"No-Go","Sham":0,"Color":"blue","trial_type":"pit-trial","trial_index":117,"time_elapsed":556934,"internal_node_id":"0.0-106.0","task_version":"test-retest"},{"Rune":"rune_02_cen","Hex":"#ffcc3399","Correct":32,"Choice":32,"RT":543.3100000955164,"Accuracy":1,"Outcome":"+10","Keys":[2052.5450001005083],"TotalKeys":1,"Block":1,"Trial":103,"Robot":1,"Valence":"Win","Action":"Go","Sham":0,"Color":"yellow","trial_type":"pit-trial","trial_index":118,"time_elapsed":559989,"internal_node_id":"0.0-107.0","task_version":"test-retest"},{"Rune":"rune_02_haglaz","Hex":"#ffcc3399","Correct":-1,"Choice":32,"RT":739.6949999965727,"Accuracy":0,"Outcome":"+10","Keys":[2246.180000016466],"TotalKeys":1,"Block":1,"Trial":104,"Robot":2,"Valence":"Win","Action":"No-Go","Sham":1,"Color":"yellow","trial_type":"pit-trial","trial_index":119,"time_elapsed":563240,"internal_node_id":"0.0-108.0","task_version":"test-retest"},{"Rune":"rune_02_os","Hex":"#3366ff99","Correct":32,"Choice":-1,"RT":-1,"Accuracy":0,"Outcome":"-10","Keys":[],"TotalKeys":0,"Block":1,"Trial":105,"Robot":3,"Valence":"Lose","Action":"Go","Sham":0,"Color":"blue","trial_type":"pit-trial","trial_index":120,"time_elapsed":567245,"internal_node_id":"0.0-109.0","task_version":"test-retest"},{"Rune":"rune_02_cen","Hex":"#ffcc3399","Correct":32,"Choice":-1,"RT":-1,"Accuracy":0,"Outcome":"+10","Keys":[],"TotalKeys":0,"Block":1,"Trial":106,"Robot":1,"Valence":"Win","Action":"Go","Sham":1,"Color":"yellow","trial_type":"pit-trial","trial_index":121,"time_elapsed":571250,"internal_node_id":"0.0-110.0","task_version":"test-retest"},{"Rune":"rune_02_haglaz","Hex":"#ffcc3399","Correct":-1,"Choice":32,"RT":413.8799998909235,"Accuracy":0,"Outcome":"+1","Keys":[1915.6299999449402],"TotalKeys":1,"Block":1,"Trial":107,"Robot":2,"Valence":"Win","Action":"No-Go","Sham":0,"Color":"yellow","trial_type":"pit-trial","trial_index":122,"time_elapsed":574169,"internal_node_id":"0.0-111.0","task_version":"test-retest"},{"Rune":"rune_02_raido","Hex":"#3366ff99","Correct":-1,"Choice":-1,"RT":-1,"Accuracy":1,"Outcome":"-1","Keys":[865.4449998866767],"TotalKeys":1,"Block":1,"Trial":108,"Robot":4,"Valence":"Lose","Action":"No-Go","Sham":0,"Color":"blue","trial_type":"pit-trial","trial_index":123,"time_elapsed":578177,"internal_node_id":"0.0-112.0","task_version":"test-retest"},{"Rune":"rune_02_raido","Hex":"#3366ff99","Correct":-1,"Choice":-1,"RT":-1,"Accuracy":1,"Outcome":"-10","Keys":[],"TotalKeys":0,"Block":1,"Trial":109,"Robot":4,"Valence":"Lose","Action":"No-Go","Sham":1,"Color":"blue","trial_type":"pit-trial","trial_index":124,"time_elapsed":582183,"internal_node_id":"0.0-113.0","task_version":"test-retest"},{"Rune":"rune_02_os","Hex":"#3366ff99","Correct":32,"Choice":-1,"RT":-1,"Accuracy":0,"Outcome":"-10","Keys":[],"TotalKeys":0,"Block":1,"Trial":110,"Robot":3,"Valence":"Lose","Action":"Go","Sham":0,"Color":"blue","trial_type":"pit-trial","trial_index":125,"time_elapsed":586188,"internal_node_id":"0.0-114.0","task_version":"test-retest"},{"Rune":"rune_02_haglaz","Hex":"#ffcc3399","Correct":-1,"Choice":32,"RT":504.6050001401454,"Accuracy":0,"Outcome":"+1","Keys":[2005.8699999935925],"TotalKeys":1,"Block":1,"Trial":111,"Robot":2,"Valence":"Win","Action":"No-Go","Sham":0,"Color":"yellow","trial_type":"pit-trial","trial_index":126,"time_elapsed":589203,"internal_node_id":"0.0-115.0","task_version":"test-retest"},{"Rune":"rune_02_cen","Hex":"#ffcc3399","Correct":32,"Choice":32,"RT":655.1000000908971,"Accuracy":1,"Outcome":"+10","Keys":[2172.3350000102073],"TotalKeys":1,"Block":1,"Trial":112,"Robot":1,"Valence":"Win","Action":"Go","Sham":0,"Color":"yellow","trial_type":"pit-trial","trial_index":127,"time_elapsed":592378,"internal_node_id":"0.0-116.0","task_version":"test-retest"},{"Rune":"rune_02_os","Hex":"#3366ff99","Correct":32,"Choice":-1,"RT":-1,"Accuracy":0,"Outcome":"-10","Keys":[],"TotalKeys":0,"Block":1,"Trial":113,"Robot":3,"Valence":"Lose","Action":"Go","Sham":0,"Color":"blue","trial_type":"pit-trial","trial_index":128,"time_elapsed":596385,"internal_node_id":"0.0-117.0","task_version":"test-retest"},{"Rune":"rune_02_cen","Hex":"#ffcc3399","Correct":32,"Choice":32,"RT":720.2050001360476,"Accuracy":1,"Outcome":"+10","Keys":[2220.339999999851],"TotalKeys":1,"Block":1,"Trial":114,"Robot":1,"Valence":"Win","Action":"Go","Sham":0,"Color":"yellow","trial_type":"pit-trial","trial_index":129,"time_elapsed":599609,"internal_node_id":"0.0-118.0","task_version":"test-retest"},{"Rune":"rune_02_raido","Hex":"#3366ff99","Correct":-1,"Choice":-1,"RT":-1,"Accuracy":1,"Outcome":"-1","Keys":[],"TotalKeys":0,"Block":1,"Trial":115,"Robot":4,"Valence":"Lose","Action":"No-Go","Sham":0,"Color":"blue","trial_type":"pit-trial","trial_index":130,"time_elapsed":603617,"internal_node_id":"0.0-119.0","task_version":"test-retest"},{"Rune":"rune_02_haglaz","Hex":"#ffcc3399","Correct":-1,"Choice":32,"RT":658.4350001066923,"Accuracy":0,"Outcome":"+1","Keys":[2159.4899999909103],"TotalKeys":1,"Block":1,"Trial":116,"Robot":2,"Valence":"Win","Action":"No-Go","Sham":0,"Color":"yellow","trial_type":"pit-trial","trial_index":131,"time_elapsed":606781,"internal_node_id":"0.0-120.0","task_version":"test-retest"},{"Rune":"rune_02_cen","Hex":"#ffcc3399","Correct":32,"Choice":32,"RT":714.2849999945611,"Accuracy":1,"Outcome":"+10","Keys":[2215.7100001350045],"TotalKeys":1,"Block":1,"Trial":117,"Robot":1,"Valence":"Win","Action":"Go","Sham":0,"Color":"yellow","trial_type":"pit-trial","trial_index":132,"time_elapsed":610001,"internal_node_id":"0.0-121.0","task_version":"test-retest"},{"Rune":"rune_02_haglaz","Hex":"#ffcc3399","Correct":-1,"Choice":32,"RT":643.9150001388043,"Accuracy":0,"Outcome":"+1","Keys":[2186.6099999751896],"TotalKeys":1,"Block":1,"Trial":118,"Robot":2,"Valence":"Win","Action":"No-Go","Sham":0,"Color":"yellow","trial_type":"pit-trial","trial_index":133,"time_elapsed":613191,"internal_node_id":"0.0-122.0","task_version":"test-retest"},{"Rune":"rune_02_os","Hex":"#3366ff99","Correct":32,"Choice":32,"RT":625.484999967739,"Accuracy":1,"Outcome":"-1","Keys":[2125.5850000306964],"TotalKeys":1,"Block":1,"Trial":119,"Robot":3,"Valence":"Lose","Action":"Go","Sham":0,"Color":"blue","trial_type":"pit-trial","trial_index":134,"time_elapsed":616320,"internal_node_id":"0.0-123.0","task_version":"test-retest"},{"Rune":"rune_02_raido","Hex":"#3366ff99","Correct":-1,"Choice":-1,"RT":-1,"Accuracy":1,"Outcome":"-1","Keys":[],"TotalKeys":0,"Block":1,"Trial":120,"Robot":4,"Valence":"Lose","Action":"No-Go","Sham":0,"Color":"blue","trial_type":"pit-trial","trial_index":135,"time_elapsed":620324,"internal_node_id":"0.0-124.0","task_version":"test-retest"},{"view_history":"[{\"page_index\":0,\"viewing_time\":3991.704999934882},{\"page_index\":1,\"viewing_time\":6600.275000091642},{\"page_index\":2,\"viewing_time\":5049.759999848902}]","rt":15642.40499981679,"trial_type":"pit-instructions","trial_index":136,"time_elapsed":635968,"internal_node_id":"0.0-125.0","task_version":"test-retest"},{"Rune":"rune_01_ingwaz","Hex":"#3366ff99","Correct":-1,"Choice":-1,"RT":-1,"Accuracy":1,"Outcome":"-10","Keys":[],"TotalKeys":0,"Block":2,"Trial":121,"Robot":4,"Valence":"Lose","Action":"No-Go","Sham":1,"Color":"blue","trial_type":"pit-trial","trial_index":137,"time_elapsed":639976,"internal_node_id":"0.0-126.0","task_version":"test-retest"},{"Rune":"rune_01_ear","Hex":"#3366ff99","Correct":32,"Choice":-1,"RT":-1,"Accuracy":0,"Outcome":"-10","Keys":[],"TotalKeys":0,"Block":2,"Trial":122,"Robot":3,"Valence":"Lose","Action":"Go","Sham":0,"Color":"blue","trial_type":"pit-trial","trial_index":138,"time_elapsed":643980,"internal_node_id":"0.0-127.0","task_version":"test-retest"},{"Rune":"rune_01_yr","Hex":"#ffcc3399","Correct":32,"Choice":32,"RT":544.980000006035,"Accuracy":1,"Outcome":"+10","Keys":[2075.955000007525],"TotalKeys":1,"Block":2,"Trial":123,"Robot":1,"Valence":"Win","Action":"Go","Sham":0,"Color":"yellow","trial_type":"pit-trial","trial_index":139,"time_elapsed":647060,"internal_node_id":"0.0-128.0","task_version":"test-retest"},{"Rune":"rune_01_ger","Hex":"#ffcc3399","Correct":-1,"Choice":32,"RT":583.4550000727177,"Accuracy":0,"Outcome":"+1","Keys":[2085.285000037402],"TotalKeys":1,"Block":2,"Trial":124,"Robot":2,"Valence":"Win","Action":"No-Go","Sham":0,"Color":"yellow","trial_type":"pit-trial","trial_index":140,"time_elapsed":650150,"internal_node_id":"0.0-129.0","task_version":"test-retest"},{"Rune":"rune_01_ear","Hex":"#3366ff99","Correct":32,"Choice":-1,"RT":-1,"Accuracy":0,"Outcome":"-1","Keys":[],"TotalKeys":0,"Block":2,"Trial":125,"Robot":3,"Valence":"Lose","Action":"Go","Sham":1,"Color":"blue","trial_type":"pit-trial","trial_index":141,"time_elapsed":654156,"internal_node_id":"0.0-130.0","task_version":"test-retest"},{"Rune":"rune_01_yr","Hex":"#ffcc3399","Correct":32,"Choice":32,"RT":558.8849999476224,"Accuracy":1,"Outcome":"+1","Keys":[2059.8549998831004],"TotalKeys":1,"Block":2,"Trial":126,"Robot":1,"Valence":"Win","Action":"Go","Sham":1,"Color":"yellow","trial_type":"pit-trial","trial_index":142,"time_elapsed":657219,"internal_node_id":"0.0-131.0","task_version":"test-retest"},{"Rune":"rune_01_ger","Hex":"#ffcc3399","Correct":-1,"Choice":32,"RT":635.4400001000613,"Accuracy":0,"Outcome":"+1","Keys":[2136.4199998788536],"TotalKeys":1,"Block":2,"Trial":127,"Robot":2,"Valence":"Win","Action":"No-Go","Sham":0,"Color":"yellow","trial_type":"pit-trial","trial_index":143,"time_elapsed":660359,"internal_node_id":"0.0-132.0","task_version":"test-retest"},{"Rune":"rune_01_ingwaz","Hex":"#3366ff99","Correct":-1,"Choice":-1,"RT":-1,"Accuracy":1,"Outcome":"-1","Keys":[],"TotalKeys":0,"Block":2,"Trial":128,"Robot":4,"Valence":"Lose","Action":"No-Go","Sham":0,"Color":"blue","trial_type":"pit-trial","trial_index":144,"time_elapsed":664364,"internal_node_id":"0.0-133.0","task_version":"test-retest"},{"Rune":"rune_01_ear","Hex":"#3366ff99","Correct":32,"Choice":-1,"RT":-1,"Accuracy":0,"Outcome":"-10","Keys":[],"TotalKeys":0,"Block":2,"Trial":129,"Robot":3,"Valence":"Lose","Action":"Go","Sham":0,"Color":"blue","trial_type":"pit-trial","trial_index":145,"time_elapsed":668369,"internal_node_id":"0.0-134.0","task_version":"test-retest"},{"Rune":"rune_01_ger","Hex":"#ffcc3399","Correct":-1,"Choice":32,"RT":530.9099999722093,"Accuracy":0,"Outcome":"+10","Keys":[2036.4250000566244],"TotalKeys":1,"Block":2,"Trial":130,"Robot":2,"Valence":"Win","Action":"No-Go","Sham":1,"Color":"yellow","trial_type":"pit-trial","trial_index":146,"time_elapsed":671410,"internal_node_id":"0.0-135.0","task_version":"test-retest"},{"Rune":"rune_01_yr","Hex":"#ffcc3399","Correct":32,"Choice":32,"RT":624.91500005126,"Accuracy":1,"Outcome":"+10","Keys":[2125.7249999325722],"TotalKeys":1,"Block":2,"Trial":131,"Robot":1,"Valence":"Win","Action":"Go","Sham":0,"Color":"yellow","trial_type":"pit-trial","trial_index":147,"time_elapsed":674539,"internal_node_id":"0.0-136.0","task_version":"test-retest"},{"Rune":"rune_01_ingwaz","Hex":"#3366ff99","Correct":-1,"Choice":-1,"RT":-1,"Accuracy":1,"Outcome":"-1","Keys":[],"TotalKeys":0,"Block":2,"Trial":132,"Robot":4,"Valence":"Lose","Action":"No-Go","Sham":0,"Color":"blue","trial_type":"pit-trial","trial_index":148,"time_elapsed":678544,"internal_node_id":"0.0-137.0","task_version":"test-retest"},{"Rune":"rune_01_ingwaz","Hex":"#3366ff99","Correct":-1,"Choice":-1,"RT":-1,"Accuracy":1,"Outcome":"-1","Keys":[],"TotalKeys":0,"Block":2,"Trial":133,"Robot":4,"Valence":"Lose","Action":"No-Go","Sham":0,"Color":"blue","trial_type":"pit-trial","trial_index":149,"time_elapsed":682549,"internal_node_id":"0.0-138.0","task_version":"test-retest"},{"Rune":"rune_01_yr","Hex":"#ffcc3399","Correct":32,"Choice":32,"RT":620.2000000048429,"Accuracy":1,"Outcome":"+10","Keys":[2126.840000040829],"TotalKeys":1,"Block":2,"Trial":134,"Robot":1,"Valence":"Win","Action":"Go","Sham":0,"Color":"yellow","trial_type":"pit-trial","trial_index":150,"time_elapsed":685680,"internal_node_id":"0.0-139.0","task_version":"test-retest"},{"Rune":"rune_01_ger","Hex":"#ffcc3399","Correct":-1,"Choice":32,"RT":634.7599998116493,"Accuracy":0,"Outcome":"+1","Keys":[2135.370000032708],"TotalKeys":1,"Block":2,"Trial":135,"Robot":2,"Valence":"Win","Action":"No-Go","Sham":0,"Color":"yellow","trial_type":"pit-trial","trial_index":151,"time_elapsed":688818,"internal_node_id":"0.0-140.0","task_version":"test-retest"},{"Rune":"rune_01_ear","Hex":"#3366ff99","Correct":32,"Choice":-1,"RT":-1,"Accuracy":0,"Outcome":"-10","Keys":[],"TotalKeys":0,"Block":2,"Trial":136,"Robot":3,"Valence":"Lose","Action":"Go","Sham":0,"Color":"blue","trial_type":"pit-trial","trial_index":152,"time_elapsed":692823,"internal_node_id":"0.0-141.0","task_version":"test-retest"},{"Rune":"rune_01_ger","Hex":"#ffcc3399","Correct":-1,"Choice":32,"RT":557.1049998980016,"Accuracy":0,"Outcome":"+1","Keys":[2057.574999984354],"TotalKeys":1,"Block":2,"Trial":137,"Robot":2,"Valence":"Win","Action":"No-Go","Sham":0,"Color":"yellow","trial_type":"pit-trial","trial_index":153,"time_elapsed":695884,"internal_node_id":"0.0-142.0","task_version":"test-retest"},{"Rune":"rune_01_ear","Hex":"#3366ff99","Correct":32,"Choice":-1,"RT":-1,"Accuracy":0,"Outcome":"-10","Keys":[],"TotalKeys":0,"Block":2,"Trial":138,"Robot":3,"Valence":"Lose","Action":"Go","Sham":0,"Color":"blue","trial_type":"pit-trial","trial_index":154,"time_elapsed":699889,"internal_node_id":"0.0-143.0","task_version":"test-retest"},{"Rune":"rune_01_yr","Hex":"#ffcc3399","Correct":32,"Choice":32,"RT":576.5550001524389,"Accuracy":1,"Outcome":"+10","Keys":[2076.6449999064207],"TotalKeys":1,"Block":2,"Trial":139,"Robot":1,"Valence":"Win","Action":"Go","Sham":0,"Color":"yellow","trial_type":"pit-trial","trial_index":155,"time_elapsed":702969,"internal_node_id":"0.0-144.0","task_version":"test-retest"},{"Rune":"rune_01_ingwaz","Hex":"#3366ff99","Correct":-1,"Choice":-1,"RT":-1,"Accuracy":1,"Outcome":"-1","Keys":[],"TotalKeys":0,"Block":2,"Trial":140,"Robot":4,"Valence":"Lose","Action":"No-Go","Sham":0,"Color":"blue","trial_type":"pit-trial","trial_index":156,"time_elapsed":706974,"internal_node_id":"0.0-145.0","task_version":"test-retest"},{"Rune":"rune_01_yr","Hex":"#ffcc3399","Correct":32,"Choice":32,"RT":520.6950001884252,"Accuracy":1,"Outcome":"+10","Keys":[2021.2600000668317],"TotalKeys":1,"Block":2,"Trial":141,"Robot":1,"Valence":"Win","Action":"Go","Sham":0,"Color":"yellow","trial_type":"pit-trial","trial_index":157,"time_elapsed":710000,"internal_node_id":"0.0-146.0","task_version":"test-retest"},{"Rune":"rune_01_ger","Hex":"#ffcc3399","Correct":-1,"Choice":32,"RT":663.8950000051409,"Accuracy":0,"Outcome":"+1","Keys":[2164.600000018254],"TotalKeys":1,"Block":2,"Trial":142,"Robot":2,"Valence":"Win","Action":"No-Go","Sham":0,"Color":"yellow","trial_type":"pit-trial","trial_index":158,"time_elapsed":713169,"internal_node_id":"0.0-147.0","task_version":"test-retest"},{"Rune":"rune_01_ingwaz","Hex":"#3366ff99","Correct":-1,"Choice":-1,"RT":-1,"Accuracy":1,"Outcome":"-1","Keys":[],"TotalKeys":0,"Block":2,"Trial":143,"Robot":4,"Valence":"Lose","Action":"No-Go","Sham":0,"Color":"blue","trial_type":"pit-trial","trial_index":159,"time_elapsed":717178,"internal_node_id":"0.0-148.0","task_version":"test-retest"},{"Rune":"rune_01_ear","Hex":"#3366ff99","Correct":32,"Choice":-1,"RT":-1,"Accuracy":0,"Outcome":"-1","Keys":[],"TotalKeys":0,"Block":2,"Trial":144,"Robot":3,"Valence":"Lose","Action":"Go","Sham":1,"Color":"blue","trial_type":"pit-trial","trial_index":160,"time_elapsed":721184,"internal_node_id":"0.0-149.0","task_version":"test-retest"},{"Rune":"rune_01_ear","Hex":"#3366ff99","Correct":32,"Choice":-1,"RT":-1,"Accuracy":0,"Outcome":"-10","Keys":[],"TotalKeys":0,"Block":2,"Trial":145,"Robot":3,"Valence":"Lose","Action":"Go","Sham":0,"Color":"blue","trial_type":"pit-trial","trial_index":161,"time_elapsed":725191,"internal_node_id":"0.0-150.0","task_version":"test-retest"},{"Rune":"rune_01_ger","Hex":"#ffcc3399","Correct":-1,"Choice":32,"RT":1217.9849999956787,"Accuracy":0,"Outcome":"+1","Keys":[2725.80000013113],"TotalKeys":1,"Block":2,"Trial":146,"Robot":2,"Valence":"Win","Action":"No-Go","Sham":0,"Color":"yellow","trial_type":"pit-trial","trial_index":162,"time_elapsed":728921,"internal_node_id":"0.0-151.0","task_version":"test-retest"},{"Rune":"rune_01_yr","Hex":"#ffcc3399","Correct":32,"Choice":32,"RT":654.8949999269098,"Accuracy":1,"Outcome":"+10","Keys":[2155.640000011772],"TotalKeys":1,"Block":2,"Trial":147,"Robot":1,"Valence":"Win","Action":"Go","Sham":0,"Color":"yellow","trial_type":"pit-trial","trial_index":163,"time_elapsed":732081,"internal_node_id":"0.0-152.0","task_version":"test-retest"},{"Rune":"rune_01_ingwaz","Hex":"#3366ff99","Correct":-1,"Choice":-1,"RT":-1,"Accuracy":1,"Outcome":"-10","Keys":[],"TotalKeys":0,"Block":2,"Trial":148,"Robot":4,"Valence":"Lose","Action":"No-Go","Sham":1,"Color":"blue","trial_type":"pit-trial","trial_index":164,"time_elapsed":736086,"internal_node_id":"0.0-153.0","task_version":"test-retest"},{"Rune":"rune_01_ger","Hex":"#ffcc3399","Correct":-1,"Choice":32,"RT":530.3799998946488,"Accuracy":0,"Outcome":"+1","Keys":[2030.7000000029802],"TotalKeys":1,"Block":2,"Trial":149,"Robot":2,"Valence":"Win","Action":"No-Go","Sham":0,"Color":"yellow","trial_type":"pit-trial","trial_index":165,"time_elapsed":739120,"internal_node_id":"0.0-154.0","task_version":"test-retest"},{"Rune":"rune_01_ingwaz","Hex":"#3366ff99","Correct":-1,"Choice":-1,"RT":-1,"Accuracy":1,"Outcome":"-1","Keys":[],"TotalKeys":0,"Block":2,"Trial":150,"Robot":4,"Valence":"Lose","Action":"No-Go","Sham":0,"Color":"blue","trial_type":"pit-trial","trial_index":166,"time_elapsed":743124,"internal_node_id":"0.0-155.0","task_version":"test-retest"},{"Rune":"rune_01_yr","Hex":"#ffcc3399","Correct":32,"Choice":32,"RT":618.9000001177192,"Accuracy":1,"Outcome":"+1","Keys":[2119.4450000766665],"TotalKeys":1,"Block":2,"Trial":151,"Robot":1,"Valence":"Win","Action":"Go","Sham":1,"Color":"yellow","trial_type":"pit-trial","trial_index":167,"time_elapsed":746247,"internal_node_id":"0.0-156.0","task_version":"test-retest"},{"Rune":"rune_01_ear","Hex":"#3366ff99","Correct":32,"Choice":-1,"RT":-1,"Accuracy":0,"Outcome":"-10","Keys":[],"TotalKeys":0,"Block":2,"Trial":152,"Robot":3,"Valence":"Lose","Action":"Go","Sham":0,"Color":"blue","trial_type":"pit-trial","trial_index":168,"time_elapsed":750252,"internal_node_id":"0.0-157.0","task_version":"test-retest"},{"Rune":"rune_01_ger","Hex":"#ffcc3399","Correct":-1,"Choice":-1,"RT":-1,"Accuracy":1,"Outcome":"+1","Keys":[3725.639999844134],"TotalKeys":1,"Block":2,"Trial":153,"Robot":2,"Valence":"Win","Action":"No-Go","Sham":1,"Color":"yellow","trial_type":"pit-trial","trial_index":169,"time_elapsed":754275,"internal_node_id":"0.0-158.0","task_version":"test-retest"},{"Rune":"rune_01_ingwaz","Hex":"#3366ff99","Correct":-1,"Choice":-1,"RT":-1,"Accuracy":1,"Outcome":"-1","Keys":[],"TotalKeys":0,"Block":2,"Trial":154,"Robot":4,"Valence":"Lose","Action":"No-Go","Sham":0,"Color":"blue","trial_type":"pit-trial","trial_index":170,"time_elapsed":758280,"internal_node_id":"0.0-159.0","task_version":"test-retest"},{"Rune":"rune_01_ear","Hex":"#3366ff99","Correct":32,"Choice":-1,"RT":-1,"Accuracy":0,"Outcome":"-10","Keys":[],"TotalKeys":0,"Block":2,"Trial":155,"Robot":3,"Valence":"Lose","Action":"Go","Sham":0,"Color":"blue","trial_type":"pit-trial","trial_index":171,"time_elapsed":762284,"internal_node_id":"0.0-160.0","task_version":"test-retest"},{"Rune":"rune_01_yr","Hex":"#ffcc3399","Correct":32,"Choice":32,"RT":640.3999999165535,"Accuracy":1,"Outcome":"+10","Keys":[2140.6749999150634],"TotalKeys":1,"Block":2,"Trial":156,"Robot":1,"Valence":"Win","Action":"Go","Sham":0,"Color":"yellow","trial_type":"pit-trial","trial_index":172,"time_elapsed":765430,"internal_node_id":"0.0-161.0","task_version":"test-retest"},{"Rune":"rune_01_ger","Hex":"#ffcc3399","Correct":-1,"Choice":32,"RT":662.5449999701232,"Accuracy":0,"Outcome":"+1","Keys":[2170.9549999795854],"TotalKeys":1,"Block":2,"Trial":157,"Robot":2,"Valence":"Win","Action":"No-Go","Sham":0,"Color":"yellow","trial_type":"pit-trial","trial_index":173,"time_elapsed":768605,"internal_node_id":"0.0-162.0","task_version":"test-retest"},{"Rune":"rune_01_ingwaz","Hex":"#3366ff99","Correct":-1,"Choice":-1,"RT":-1,"Accuracy":1,"Outcome":"-1","Keys":[],"TotalKeys":0,"Block":2,"Trial":158,"Robot":4,"Valence":"Lose","Action":"No-Go","Sham":0,"Color":"blue","trial_type":"pit-trial","trial_index":174,"time_elapsed":772610,"internal_node_id":"0.0-163.0","task_version":"test-retest"},{"Rune":"rune_01_ear","Hex":"#3366ff99","Correct":32,"Choice":-1,"RT":-1,"Accuracy":0,"Outcome":"-10","Keys":[],"TotalKeys":0,"Block":2,"Trial":159,"Robot":3,"Valence":"Lose","Action":"Go","Sham":0,"Color":"blue","trial_type":"pit-trial","trial_index":175,"time_elapsed":776614,"internal_node_id":"0.0-164.0","task_version":"test-retest"},{"Rune":"rune_01_yr","Hex":"#ffcc3399","Correct":32,"Choice":-1,"RT":-1,"Accuracy":0,"Outcome":"+1","Keys":[3272.1450000535697],"TotalKeys":1,"Block":2,"Trial":160,"Robot":1,"Valence":"Win","Action":"Go","Sham":0,"Color":"yellow","trial_type":"pit-trial","trial_index":176,"time_elapsed":780618,"internal_node_id":"0.0-165.0","task_version":"test-retest"},{"Rune":"rune_01_yr","Hex":"#ffcc3399","Correct":32,"Choice":32,"RT":1397.2549999598414,"Accuracy":1,"Outcome":"+10","Keys":[2898.0149999260902],"TotalKeys":1,"Block":2,"Trial":161,"Robot":1,"Valence":"Win","Action":"Go","Sham":0,"Color":"yellow","trial_type":"pit-trial","trial_index":177,"time_elapsed":784519,"internal_node_id":"0.0-166.0","task_version":"test-retest"},{"Rune":"rune_01_ger","Hex":"#ffcc3399","Correct":-1,"Choice":32,"RT":975.2150001004338,"Accuracy":0,"Outcome":"+1","Keys":[2476.649999851361],"TotalKeys":1,"Block":2,"Trial":162,"Robot":2,"Valence":"Win","Action":"No-Go","Sham":0,"Color":"yellow","trial_type":"pit-trial","trial_index":178,"time_elapsed":787999,"internal_node_id":"0.0-167.0","task_version":"test-retest"},{"Rune":"rune_01_ear","Hex":"#3366ff99","Correct":32,"Choice":-1,"RT":-1,"Accuracy":0,"Outcome":"-10","Keys":[],"TotalKeys":0,"Block":2,"Trial":163,"Robot":3,"Valence":"Lose","Action":"Go","Sham":0,"Color":"blue","trial_type":"pit-trial","trial_index":179,"time_elapsed":792004,"internal_node_id":"0.0-168.0","task_version":"test-retest"},{"Rune":"rune_01_ingwaz","Hex":"#3366ff99","Correct":-1,"Choice":-1,"RT":-1,"Accuracy":1,"Outcome":"-1","Keys":[],"TotalKeys":0,"Block":2,"Trial":164,"Robot":4,"Valence":"Lose","Action":"No-Go","Sham":0,"Color":"blue","trial_type":"pit-trial","trial_index":180,"time_elapsed":796009,"internal_node_id":"0.0-169.0","task_version":"test-retest"},{"Rune":"rune_01_ear","Hex":"#3366ff99","Correct":32,"Choice":-1,"RT":-1,"Accuracy":0,"Outcome":"-10","Keys":[],"TotalKeys":0,"Block":2,"Trial":165,"Robot":3,"Valence":"Lose","Action":"Go","Sham":0,"Color":"blue","trial_type":"pit-trial","trial_index":181,"time_elapsed":800016,"internal_node_id":"0.0-170.0","task_version":"test-retest"},{"Rune":"rune_01_ingwaz","Hex":"#3366ff99","Correct":-1,"Choice":-1,"RT":-1,"Accuracy":1,"Outcome":"-10","Keys":[],"TotalKeys":0,"Block":2,"Trial":166,"Robot":4,"Valence":"Lose","Action":"No-Go","Sham":1,"Color":"blue","trial_type":"pit-trial","trial_index":182,"time_elapsed":804021,"internal_node_id":"0.0-171.0","task_version":"test-retest"},{"Rune":"rune_01_ger","Hex":"#ffcc3399","Correct":-1,"Choice":32,"RT":563.8049999251962,"Accuracy":0,"Outcome":"+10","Keys":[2065.2099999133497],"TotalKeys":1,"Block":2,"Trial":167,"Robot":2,"Valence":"Win","Action":"No-Go","Sham":1,"Color":"yellow","trial_type":"pit-trial","trial_index":183,"time_elapsed":807090,"internal_node_id":"0.0-172.0","task_version":"test-retest"},{"Rune":"rune_01_yr","Hex":"#ffcc3399","Correct":32,"Choice":-1,"RT":-1,"Accuracy":0,"Outcome":"+1","Keys":[3415.389999980107],"TotalKeys":1,"Block":2,"Trial":168,"Robot":1,"Valence":"Win","Action":"Go","Sham":0,"Color":"yellow","trial_type":"pit-trial","trial_index":184,"time_elapsed":811094,"internal_node_id":"0.0-173.0","task_version":"test-retest"},{"Rune":"rune_01_ger","Hex":"#ffcc3399","Correct":-1,"Choice":32,"RT":1021.100000012666,"Accuracy":0,"Outcome":"+1","Keys":[2521.485000150278],"TotalKeys":1,"Block":2,"Trial":169,"Robot":2,"Valence":"Win","Action":"No-Go","Sham":0,"Color":"yellow","trial_type":"pit-trial","trial_index":185,"time_elapsed":814618,"internal_node_id":"0.0-174.0","task_version":"test-retest"},{"Rune":"rune_01_ingwaz","Hex":"#3366ff99","Correct":-1,"Choice":-1,"RT":-1,"Accuracy":1,"Outcome":"-1","Keys":[],"TotalKeys":0,"Block":2,"Trial":170,"Robot":4,"Valence":"Lose","Action":"No-Go","Sham":0,"Color":"blue","trial_type":"pit-trial","trial_index":186,"time_elapsed":818624,"internal_node_id":"0.0-175.0","task_version":"test-retest"},{"Rune":"rune_01_yr","Hex":"#ffcc3399","Correct":32,"Choice":-1,"RT":-1,"Accuracy":0,"Outcome":"+1","Keys":[],"TotalKeys":0,"Block":2,"Trial":171,"Robot":1,"Valence":"Win","Action":"Go","Sham":0,"Color":"yellow","trial_type":"pit-trial","trial_index":187,"time_elapsed":822629,"internal_node_id":"0.0-176.0","task_version":"test-retest"},{"Rune":"rune_01_ear","Hex":"#3366ff99","Correct":32,"Choice":-1,"RT":-1,"Accuracy":0,"Outcome":"-1","Keys":[107.07999998703599],"TotalKeys":1,"Block":2,"Trial":172,"Robot":3,"Valence":"Lose","Action":"Go","Sham":1,"Color":"blue","trial_type":"pit-trial","trial_index":188,"time_elapsed":826638,"internal_node_id":"0.0-177.0","task_version":"test-retest"},{"Rune":"rune_01_ingwaz","Hex":"#3366ff99","Correct":-1,"Choice":-1,"RT":-1,"Accuracy":1,"Outcome":"-1","Keys":[],"TotalKeys":0,"Block":2,"Trial":173,"Robot":4,"Valence":"Lose","Action":"No-Go","Sham":0,"Color":"blue","trial_type":"pit-trial","trial_index":189,"time_elapsed":830643,"internal_node_id":"0.0-178.0","task_version":"test-retest"},{"Rune":"rune_01_ger","Hex":"#ffcc3399","Correct":-1,"Choice":32,"RT":480.97000014968216,"Accuracy":0,"Outcome":"+1","Keys":[1981.870000017807],"TotalKeys":1,"Block":2,"Trial":174,"Robot":2,"Valence":"Win","Action":"No-Go","Sham":0,"Color":"yellow","trial_type":"pit-trial","trial_index":190,"time_elapsed":833628,"internal_node_id":"0.0-179.0","task_version":"test-retest"},{"Rune":"rune_01_yr","Hex":"#ffcc3399","Correct":32,"Choice":32,"RT":767.4750001169741,"Accuracy":1,"Outcome":"+10","Keys":[2267.5900000613183],"TotalKeys":1,"Block":2,"Trial":175,"Robot":1,"Valence":"Win","Action":"Go","Sham":0,"Color":"yellow","trial_type":"pit-trial","trial_index":191,"time_elapsed":836898,"internal_node_id":"0.0-180.0","task_version":"test-retest"},{"Rune":"rune_01_ear","Hex":"#3366ff99","Correct":32,"Choice":-1,"RT":-1,"Accuracy":0,"Outcome":"-10","Keys":[],"TotalKeys":0,"Block":2,"Trial":176,"Robot":3,"Valence":"Lose","Action":"Go","Sham":0,"Color":"blue","trial_type":"pit-trial","trial_index":192,"time_elapsed":840904,"internal_node_id":"0.0-181.0","task_version":"test-retest"},{"Rune":"rune_01_ger","Hex":"#ffcc3399","Correct":-1,"Choice":32,"RT":644.9199998751283,"Accuracy":0,"Outcome":"+1","Keys":[2161.159999901429],"TotalKeys":1,"Block":2,"Trial":177,"Robot":2,"Valence":"Win","Action":"No-Go","Sham":0,"Color":"yellow","trial_type":"pit-trial","trial_index":193,"time_elapsed":844069,"internal_node_id":"0.0-182.0","task_version":"test-retest"},{"Rune":"rune_01_ear","Hex":"#3366ff99","Correct":32,"Choice":-1,"RT":-1,"Accuracy":0,"Outcome":"-10","Keys":[],"TotalKeys":0,"Block":2,"Trial":178,"Robot":3,"Valence":"Lose","Action":"Go","Sham":0,"Color":"blue","trial_type":"pit-trial","trial_index":194,"time_elapsed":848076,"internal_node_id":"0.0-183.0","task_version":"test-retest"},{"Rune":"rune_01_yr","Hex":"#ffcc3399","Correct":32,"Choice":-1,"RT":-1,"Accuracy":0,"Outcome":"+10","Keys":[],"TotalKeys":0,"Block":2,"Trial":179,"Robot":1,"Valence":"Win","Action":"Go","Sham":1,"Color":"yellow","trial_type":"pit-trial","trial_index":195,"time_elapsed":852083,"internal_node_id":"0.0-184.0","task_version":"test-retest"},{"Rune":"rune_01_ingwaz","Hex":"#3366ff99","Correct":-1,"Choice":-1,"RT":-1,"Accuracy":1,"Outcome":"-1","Keys":[583.1549998838454],"TotalKeys":1,"Block":2,"Trial":180,"Robot":4,"Valence":"Lose","Action":"No-Go","Sham":0,"Color":"blue","trial_type":"pit-trial","trial_index":196,"time_elapsed":856089,"internal_node_id":"0.0-185.0","task_version":"test-retest"},{"view_history":"[{\"page_index\":0,\"viewing_time\":5027.050000149757},{\"page_index\":1,\"viewing_time\":2529.924999922514}]","rt":7557.555000064895,"trial_type":"pit-instructions","trial_index":197,"time_elapsed":863648,"internal_node_id":"0.0-186.0","task_version":"test-retest"},{"Rune":"rune_01_ear","Hex":"#3366ff99","Correct":32,"Choice":-1,"RT":-1,"Accuracy":0,"Outcome":"-10","Keys":[],"TotalKeys":0,"Block":2,"Trial":181,"Robot":3,"Valence":"Lose","Action":"Go","Sham":0,"Color":"blue","trial_type":"pit-trial","trial_index":198,"time_elapsed":867657,"internal_node_id":"0.0-187.0","task_version":"test-retest"},{"Rune":"rune_01_yr","Hex":"#ffcc3399","Correct":32,"Choice":32,"RT":547.3450000863522,"Accuracy":1,"Outcome":"+1","Keys":[2048.5350000672042],"TotalKeys":1,"Block":2,"Trial":182,"Robot":1,"Valence":"Win","Action":"Go","Sham":1,"Color":"yellow","trial_type":"pit-trial","trial_index":199,"time_elapsed":870712,"internal_node_id":"0.0-188.0","task_version":"test-retest"},{"Rune":"rune_01_ger","Hex":"#ffcc3399","Correct":-1,"Choice":32,"RT":610.0400001741946,"Accuracy":0,"Outcome":"+10","Keys":[2113.840000005439],"TotalKeys":1,"Block":2,"Trial":183,"Robot":2,"Valence":"Win","Action":"No-Go","Sham":1,"Color":"yellow","trial_type":"pit-trial","trial_index":200,"time_elapsed":873829,"internal_node_id":"0.0-189.0","task_version":"test-retest"},{"Rune":"rune_01_ingwaz","Hex":"#3366ff99","Correct":-1,"Choice":-1,"RT":-1,"Accuracy":1,"Outcome":"-1","Keys":[],"TotalKeys":0,"Block":2,"Trial":184,"Robot":4,"Valence":"Lose","Action":"No-Go","Sham":0,"Color":"blue","trial_type":"pit-trial","trial_index":201,"time_elapsed":877835,"internal_node_id":"0.0-190.0","task_version":"test-retest"},{"Rune":"rune_01_ear","Hex":"#3366ff99","Correct":32,"Choice":-1,"RT":-1,"Accuracy":0,"Outcome":"-10","Keys":[],"TotalKeys":0,"Block":2,"Trial":185,"Robot":3,"Valence":"Lose","Action":"Go","Sham":0,"Color":"blue","trial_type":"pit-trial","trial_index":202,"time_elapsed":881840,"internal_node_id":"0.0-191.0","task_version":"test-retest"},{"Rune":"rune_01_yr","Hex":"#ffcc3399","Correct":32,"Choice":32,"RT":610.4349999222904,"Accuracy":1,"Outcome":"+10","Keys":[229.34500011615455,2111.299999989569],"TotalKeys":2,"Block":2,"Trial":186,"Robot":1,"Valence":"Win","Action":"Go","Sham":0,"Color":"yellow","trial_type":"pit-trial","trial_index":203,"time_elapsed":884953,"internal_node_id":"0.0-192.0","task_version":"test-retest"},{"Rune":"rune_01_ger","Hex":"#ffcc3399","Correct":-1,"Choice":32,"RT":538.4400000330061,"Accuracy":0,"Outcome":"+1","Keys":[2092.1100000850856],"TotalKeys":1,"Block":2,"Trial":187,"Robot":2,"Valence":"Win","Action":"No-Go","Sham":0,"Color":"yellow","trial_type":"pit-trial","trial_index":204,"time_elapsed":888050,"internal_node_id":"0.0-193.0","task_version":"test-retest"},{"Rune":"rune_01_ingwaz","Hex":"#3366ff99","Correct":-1,"Choice":-1,"RT":-1,"Accuracy":1,"Outcome":"-1","Keys":[],"TotalKeys":0,"Block":2,"Trial":188,"Robot":4,"Valence":"Lose","Action":"No-Go","Sham":0,"Color":"blue","trial_type":"pit-trial","trial_index":205,"time_elapsed":892054,"internal_node_id":"0.0-194.0","task_version":"test-retest"},{"Rune":"rune_01_yr","Hex":"#ffcc3399","Correct":32,"Choice":32,"RT":599.9849999789149,"Accuracy":1,"Outcome":"+10","Keys":[2102.5249999947846],"TotalKeys":1,"Block":2,"Trial":189,"Robot":1,"Valence":"Win","Action":"Go","Sham":0,"Color":"yellow","trial_type":"pit-trial","trial_index":206,"time_elapsed":895160,"internal_node_id":"0.0-195.0","task_version":"test-retest"},{"Rune":"rune_01_ingwaz","Hex":"#3366ff99","Correct":-1,"Choice":-1,"RT":-1,"Accuracy":1,"Outcome":"-1","Keys":[],"TotalKeys":0,"Block":2,"Trial":190,"Robot":4,"Valence":"Lose","Action":"No-Go","Sham":0,"Color":"blue","trial_type":"pit-trial","trial_index":207,"time_elapsed":899163,"internal_node_id":"0.0-196.0","task_version":"test-retest"},{"Rune":"rune_01_ear","Hex":"#3366ff99","Correct":32,"Choice":-1,"RT":-1,"Accuracy":0,"Outcome":"-10","Keys":[],"TotalKeys":0,"Block":2,"Trial":191,"Robot":3,"Valence":"Lose","Action":"Go","Sham":0,"Color":"blue","trial_type":"pit-trial","trial_index":208,"time_elapsed":903167,"internal_node_id":"0.0-197.0","task_version":"test-retest"},{"Rune":"rune_01_ger","Hex":"#ffcc3399","Correct":-1,"Choice":32,"RT":517.5999999046326,"Accuracy":0,"Outcome":"+1","Keys":[2018.5800001490861],"TotalKeys":1,"Block":2,"Trial":192,"Robot":2,"Valence":"Win","Action":"No-Go","Sham":0,"Color":"yellow","trial_type":"pit-trial","trial_index":209,"time_elapsed":906191,"internal_node_id":"0.0-198.0","task_version":"test-retest"},{"Rune":"rune_01_ger","Hex":"#ffcc3399","Correct":-1,"Choice":32,"RT":1145.035000052303,"Accuracy":0,"Outcome":"+1","Keys":[2645.1650001108646],"TotalKeys":1,"Block":2,"Trial":193,"Robot":2,"Valence":"Win","Action":"No-Go","Sham":0,"Color":"yellow","trial_type":"pit-trial","trial_index":210,"time_elapsed":909839,"internal_node_id":"0.0-199.0","task_version":"test-retest"},{"Rune":"rune_01_ingwaz","Hex":"#3366ff99","Correct":-1,"Choice":-1,"RT":-1,"Accuracy":1,"Outcome":"-10","Keys":[],"TotalKeys":0,"Block":2,"Trial":194,"Robot":4,"Valence":"Lose","Action":"No-Go","Sham":1,"Color":"blue","trial_type":"pit-trial","trial_index":211,"time_elapsed":913846,"internal_node_id":"0.0-200.0","task_version":"test-retest"},{"Rune":"rune_01_ear","Hex":"#3366ff99","Correct":32,"Choice":-1,"RT":-1,"Accuracy":0,"Outcome":"-10","Keys":[],"TotalKeys":0,"Block":2,"Trial":195,"Robot":3,"Valence":"Lose","Action":"Go","Sham":0,"Color":"blue","trial_type":"pit-trial","trial_index":212,"time_elapsed":917851,"internal_node_id":"0.0-201.0","task_version":"test-retest"},{"Rune":"rune_01_yr","Hex":"#ffcc3399","Correct":32,"Choice":32,"RT":623.7900000996888,"Accuracy":1,"Outcome":"+10","Keys":[2125.440000090748],"TotalKeys":1,"Block":2,"Trial":196,"Robot":1,"Valence":"Win","Action":"Go","Sham":0,"Color":"yellow","trial_type":"pit-trial","trial_index":213,"time_elapsed":920979,"internal_node_id":"0.0-202.0","task_version":"test-retest"},{"Rune":"rune_01_ger","Hex":"#ffcc3399","Correct":-1,"Choice":32,"RT":720.8350000437349,"Accuracy":0,"Outcome":"+1","Keys":[2227.4600001983345],"TotalKeys":1,"Block":2,"Trial":197,"Robot":2,"Valence":"Win","Action":"No-Go","Sham":0,"Color":"yellow","trial_type":"pit-trial","trial_index":214,"time_elapsed":924209,"internal_node_id":"0.0-203.0","task_version":"test-retest"},{"Rune":"rune_01_ear","Hex":"#3366ff99","Correct":32,"Choice":-1,"RT":-1,"Accuracy":0,"Outcome":"-1","Keys":[],"TotalKeys":0,"Block":2,"Trial":198,"Robot":3,"Valence":"Lose","Action":"Go","Sham":1,"Color":"blue","trial_type":"pit-trial","trial_index":215,"time_elapsed":928212,"internal_node_id":"0.0-204.0","task_version":"test-retest"},{"Rune":"rune_01_yr","Hex":"#ffcc3399","Correct":32,"Choice":32,"RT":1360.5349999852479,"Accuracy":1,"Outcome":"+10","Keys":[2863.8249998912215],"TotalKeys":1,"Block":2,"Trial":199,"Robot":1,"Valence":"Win","Action":"Go","Sham":0,"Color":"yellow","trial_type":"pit-trial","trial_index":216,"time_elapsed":932079,"internal_node_id":"0.0-205.0","task_version":"test-retest"},{"Rune":"rune_01_ingwaz","Hex":"#3366ff99","Correct":-1,"Choice":-1,"RT":-1,"Accuracy":1,"Outcome":"-1","Keys":[],"TotalKeys":0,"Block":2,"Trial":200,"Robot":4,"Valence":"Lose","Action":"No-Go","Sham":0,"Color":"blue","trial_type":"pit-trial","trial_index":217,"time_elapsed":936083,"internal_node_id":"0.0-206.0","task_version":"test-retest"},{"Rune":"rune_01_ger","Hex":"#ffcc3399","Correct":-1,"Choice":32,"RT":541.3699999917299,"Accuracy":0,"Outcome":"+10","Keys":[2042.409999994561],"TotalKeys":1,"Block":2,"Trial":201,"Robot":2,"Valence":"Win","Action":"No-Go","Sham":1,"Color":"yellow","trial_type":"pit-trial","trial_index":218,"time_elapsed":939129,"internal_node_id":"0.0-207.0","task_version":"test-retest"},{"Rune":"rune_01_ingwaz","Hex":"#3366ff99","Correct":-1,"Choice":-1,"RT":-1,"Accuracy":1,"Outcome":"-10","Keys":[],"TotalKeys":0,"Block":2,"Trial":202,"Robot":4,"Valence":"Lose","Action":"No-Go","Sham":1,"Color":"blue","trial_type":"pit-trial","trial_index":219,"time_elapsed":943134,"internal_node_id":"0.0-208.0","task_version":"test-retest"},{"Rune":"rune_01_ear","Hex":"#3366ff99","Correct":32,"Choice":-1,"RT":-1,"Accuracy":0,"Outcome":"-10","Keys":[],"TotalKeys":0,"Block":2,"Trial":203,"Robot":3,"Valence":"Lose","Action":"Go","Sham":0,"Color":"blue","trial_type":"pit-trial","trial_index":220,"time_elapsed":947138,"internal_node_id":"0.0-209.0","task_version":"test-retest"},{"Rune":"rune_01_yr","Hex":"#ffcc3399","Correct":32,"Choice":32,"RT":516.865000128746,"Accuracy":1,"Outcome":"+10","Keys":[2017.8399998694658],"TotalKeys":1,"Block":2,"Trial":204,"Robot":1,"Valence":"Win","Action":"Go","Sham":0,"Color":"yellow","trial_type":"pit-trial","trial_index":221,"time_elapsed":950160,"internal_node_id":"0.0-210.0","task_version":"test-retest"},{"Rune":"rune_01_ingwaz","Hex":"#3366ff99","Correct":-1,"Choice":-1,"RT":-1,"Accuracy":1,"Outcome":"-1","Keys":[],"TotalKeys":0,"Block":2,"Trial":205,"Robot":4,"Valence":"Lose","Action":"No-Go","Sham":0,"Color":"blue","trial_type":"pit-trial","trial_index":222,"time_elapsed":954169,"internal_node_id":"0.0-211.0","task_version":"test-retest"},{"Rune":"rune_01_ger","Hex":"#ffcc3399","Correct":-1,"Choice":32,"RT":634.5450000371784,"Accuracy":0,"Outcome":"+1","Keys":[2136.5699998568743],"TotalKeys":1,"Block":2,"Trial":206,"Robot":2,"Valence":"Win","Action":"No-Go","Sham":0,"Color":"yellow","trial_type":"pit-trial","trial_index":223,"time_elapsed":957310,"internal_node_id":"0.0-212.0","task_version":"test-retest"},{"Rune":"rune_01_ear","Hex":"#3366ff99","Correct":32,"Choice":-1,"RT":-1,"Accuracy":0,"Outcome":"-1","Keys":[],"TotalKeys":0,"Block":2,"Trial":207,"Robot":3,"Valence":"Lose","Action":"Go","Sham":1,"Color":"blue","trial_type":"pit-trial","trial_index":224,"time_elapsed":961315,"internal_node_id":"0.0-213.0","task_version":"test-retest"},{"Rune":"rune_01_yr","Hex":"#ffcc3399","Correct":32,"Choice":32,"RT":509.98500012792647,"Accuracy":1,"Outcome":"+10","Keys":[2020.090000005439],"TotalKeys":1,"Block":2,"Trial":208,"Robot":1,"Valence":"Win","Action":"Go","Sham":0,"Color":"yellow","trial_type":"pit-trial","trial_index":225,"time_elapsed":964339,"internal_node_id":"0.0-214.0","task_version":"test-retest"},{"Rune":"rune_01_ger","Hex":"#ffcc3399","Correct":-1,"Choice":32,"RT":718.9350000116974,"Accuracy":0,"Outcome":"+1","Keys":[2219.859999837354],"TotalKeys":1,"Block":2,"Trial":209,"Robot":2,"Valence":"Win","Action":"No-Go","Sham":0,"Color":"yellow","trial_type":"pit-trial","trial_index":226,"time_elapsed":967563,"internal_node_id":"0.0-215.0","task_version":"test-retest"},{"Rune":"rune_01_ingwaz","Hex":"#3366ff99","Correct":-1,"Choice":-1,"RT":-1,"Accuracy":1,"Outcome":"-1","Keys":[],"TotalKeys":0,"Block":2,"Trial":210,"Robot":4,"Valence":"Lose","Action":"No-Go","Sham":0,"Color":"blue","trial_type":"pit-trial","trial_index":227,"time_elapsed":971568,"internal_node_id":"0.0-216.0","task_version":"test-retest"},{"Rune":"rune_01_yr","Hex":"#ffcc3399","Correct":32,"Choice":32,"RT":498.7400001846254,"Accuracy":1,"Outcome":"+1","Keys":[1998.7899998668581],"TotalKeys":1,"Block":2,"Trial":211,"Robot":1,"Valence":"Win","Action":"Go","Sham":1,"Color":"yellow","trial_type":"pit-trial","trial_index":228,"time_elapsed":974570,"internal_node_id":"0.0-217.0","task_version":"test-retest"},{"Rune":"rune_01_ear","Hex":"#3366ff99","Correct":32,"Choice":-1,"RT":-1,"Accuracy":0,"Outcome":"-10","Keys":[],"TotalKeys":0,"Block":2,"Trial":212,"Robot":3,"Valence":"Lose","Action":"Go","Sham":0,"Color":"blue","trial_type":"pit-trial","trial_index":229,"time_elapsed":978574,"internal_node_id":"0.0-218.0","task_version":"test-retest"},{"Rune":"rune_01_ger","Hex":"#ffcc3399","Correct":-1,"Choice":32,"RT":541.7850001249462,"Accuracy":0,"Outcome":"+1","Keys":[2041.9050001073629],"TotalKeys":1,"Block":2,"Trial":213,"Robot":2,"Valence":"Win","Action":"No-Go","Sham":0,"Color":"yellow","trial_type":"pit-trial","trial_index":230,"time_elapsed":981619,"internal_node_id":"0.0-219.0","task_version":"test-retest"},{"Rune":"rune_01_ear","Hex":"#3366ff99","Correct":32,"Choice":-1,"RT":-1,"Accuracy":0,"Outcome":"-10","Keys":[],"TotalKeys":0,"Block":2,"Trial":214,"Robot":3,"Valence":"Lose","Action":"Go","Sham":0,"Color":"blue","trial_type":"pit-trial","trial_index":231,"time_elapsed":985623,"internal_node_id":"0.0-220.0","task_version":"test-retest"},{"Rune":"rune_01_yr","Hex":"#ffcc3399","Correct":32,"Choice":32,"RT":551.5850000083447,"Accuracy":1,"Outcome":"+10","Keys":[2053.455000044778],"TotalKeys":1,"Block":2,"Trial":215,"Robot":1,"Valence":"Win","Action":"Go","Sham":0,"Color":"yellow","trial_type":"pit-trial","trial_index":232,"time_elapsed":988680,"internal_node_id":"0.0-221.0","task_version":"test-retest"},{"Rune":"rune_01_ingwaz","Hex":"#3366ff99","Correct":-1,"Choice":-1,"RT":-1,"Accuracy":1,"Outcome":"-1","Keys":[],"TotalKeys":0,"Block":2,"Trial":216,"Robot":4,"Valence":"Lose","Action":"No-Go","Sham":0,"Color":"blue","trial_type":"pit-trial","trial_index":233,"time_elapsed":992684,"internal_node_id":"0.0-222.0","task_version":"test-retest"},{"Rune":"rune_01_yr","Hex":"#ffcc3399","Correct":32,"Choice":32,"RT":529.890000121668,"Accuracy":1,"Outcome":"+10","Keys":[2030.849999981001],"TotalKeys":1,"Block":2,"Trial":217,"Robot":1,"Valence":"Win","Action":"Go","Sham":0,"Color":"yellow","trial_type":"pit-trial","trial_index":234,"time_elapsed":995725,"internal_node_id":"0.0-223.0","task_version":"test-retest"},{"Rune":"rune_01_ger","Hex":"#ffcc3399","Correct":-1,"Choice":32,"RT":779.2299999855459,"Accuracy":0,"Outcome":"+1","Keys":[2281.0899999458343],"TotalKeys":1,"Block":2,"Trial":218,"Robot":2,"Valence":"Win","Action":"No-Go","Sham":0,"Color":"yellow","trial_type":"pit-trial","trial_index":235,"time_elapsed":999010,"internal_node_id":"0.0-224.0","task_version":"test-retest"},{"Rune":"rune_01_ingwaz","Hex":"#3366ff99","Correct":-1,"Choice":-1,"RT":-1,"Accuracy":1,"Outcome":"-1","Keys":[],"TotalKeys":0,"Block":2,"Trial":219,"Robot":4,"Valence":"Lose","Action":"No-Go","Sham":0,"Color":"blue","trial_type":"pit-trial","trial_index":236,"time_elapsed":1003015,"internal_node_id":"0.0-225.0","task_version":"test-retest"},{"Rune":"rune_01_ear","Hex":"#3366ff99","Correct":32,"Choice":32,"RT":485.6650000438094,"Accuracy":1,"Outcome":"-1","Keys":[1990.9200000111014],"TotalKeys":1,"Block":2,"Trial":220,"Robot":3,"Valence":"Lose","Action":"Go","Sham":0,"Color":"blue","trial_type":"pit-trial","trial_index":237,"time_elapsed":1006009,"internal_node_id":"0.0-226.0","task_version":"test-retest"},{"Rune":"rune_01_yr","Hex":"#ffcc3399","Correct":32,"Choice":32,"RT":516.6599999647588,"Accuracy":1,"Outcome":"+10","Keys":[2017.225000075996],"TotalKeys":1,"Block":2,"Trial":221,"Robot":1,"Valence":"Win","Action":"Go","Sham":0,"Color":"yellow","trial_type":"pit-trial","trial_index":238,"time_elapsed":1009030,"internal_node_id":"0.0-227.0","task_version":"test-retest"},{"Rune":"rune_01_ingwaz","Hex":"#3366ff99","Correct":-1,"Choice":-1,"RT":-1,"Accuracy":1,"Outcome":"-1","Keys":[],"TotalKeys":0,"Block":2,"Trial":222,"Robot":4,"Valence":"Lose","Action":"No-Go","Sham":0,"Color":"blue","trial_type":"pit-trial","trial_index":239,"time_elapsed":1013034,"internal_node_id":"0.0-228.0","task_version":"test-retest"},{"Rune":"rune_01_ear","Hex":"#3366ff99","Correct":32,"Choice":-1,"RT":-1,"Accuracy":0,"Outcome":"-1","Keys":[3616.7399999685585],"TotalKeys":1,"Block":2,"Trial":223,"Robot":3,"Valence":"Lose","Action":"Go","Sham":1,"Color":"blue","trial_type":"pit-trial","trial_index":240,"time_elapsed":1017038,"internal_node_id":"0.0-229.0","task_version":"test-retest"},{"Rune":"rune_01_ger","Hex":"#ffcc3399","Correct":-1,"Choice":32,"RT":649.2749999742955,"Accuracy":0,"Outcome":"+10","Keys":[2149.9399999156594],"TotalKeys":1,"Block":2,"Trial":224,"Robot":2,"Valence":"Win","Action":"No-Go","Sham":1,"Color":"yellow","trial_type":"pit-trial","trial_index":241,"time_elapsed":1020193,"internal_node_id":"0.0-230.0","task_version":"test-retest"},{"Rune":"rune_01_ingwaz","Hex":"#3366ff99","Correct":-1,"Choice":-1,"RT":-1,"Accuracy":1,"Outcome":"-1","Keys":[],"TotalKeys":0,"Block":2,"Trial":225,"Robot":4,"Valence":"Lose","Action":"No-Go","Sham":0,"Color":"blue","trial_type":"pit-trial","trial_index":242,"time_elapsed":1024198,"internal_node_id":"0.0-231.0","task_version":"test-retest"},{"Rune":"rune_01_ger","Hex":"#ffcc3399","Correct":-1,"Choice":32,"RT":667.2199999447912,"Accuracy":0,"Outcome":"+1","Keys":[2167.8700000047684],"TotalKeys":1,"Block":2,"Trial":226,"Robot":2,"Valence":"Win","Action":"No-Go","Sham":0,"Color":"yellow","trial_type":"pit-trial","trial_index":243,"time_elapsed":1027370,"internal_node_id":"0.0-232.0","task_version":"test-retest"},{"Rune":"rune_01_ear","Hex":"#3366ff99","Correct":32,"Choice":-1,"RT":-1,"Accuracy":0,"Outcome":"-10","Keys":[],"TotalKeys":0,"Block":2,"Trial":227,"Robot":3,"Valence":"Lose","Action":"Go","Sham":0,"Color":"blue","trial_type":"pit-trial","trial_index":244,"time_elapsed":1031375,"internal_node_id":"0.0-233.0","task_version":"test-retest"},{"Rune":"rune_01_yr","Hex":"#ffcc3399","Correct":32,"Choice":32,"RT":739.7450001444668,"Accuracy":1,"Outcome":"+1","Keys":[2242.3399998806417],"TotalKeys":1,"Block":2,"Trial":228,"Robot":1,"Valence":"Win","Action":"Go","Sham":1,"Color":"yellow","trial_type":"pit-trial","trial_index":245,"time_elapsed":1034620,"internal_node_id":"0.0-234.0","task_version":"test-retest"},{"Rune":"rune_01_yr","Hex":"#ffcc3399","Correct":32,"Choice":32,"RT":665.0549999903888,"Accuracy":1,"Outcome":"+10","Keys":[2166.969999903813],"TotalKeys":1,"Block":2,"Trial":229,"Robot":1,"Valence":"Win","Action":"Go","Sham":0,"Color":"yellow","trial_type":"pit-trial","trial_index":246,"time_elapsed":1037795,"internal_node_id":"0.0-235.0","task_version":"test-retest"},{"Rune":"rune_01_ingwaz","Hex":"#3366ff99","Correct":-1,"Choice":-1,"RT":-1,"Accuracy":1,"Outcome":"-10","Keys":[],"TotalKeys":0,"Block":2,"Trial":230,"Robot":4,"Valence":"Lose","Action":"No-Go","Sham":1,"Color":"blue","trial_type":"pit-trial","trial_index":247,"time_elapsed":1041801,"internal_node_id":"0.0-236.0","task_version":"test-retest"},{"Rune":"rune_01_ger","Hex":"#ffcc3399","Correct":-1,"Choice":32,"RT":559.4099999871105,"Accuracy":0,"Outcome":"+1","Keys":[2077.049999963492],"TotalKeys":1,"Block":2,"Trial":231,"Robot":2,"Valence":"Win","Action":"No-Go","Sham":0,"Color":"yellow","trial_type":"pit-trial","trial_index":248,"time_elapsed":1044882,"internal_node_id":"0.0-237.0","task_version":"test-retest"},{"Rune":"rune_01_ear","Hex":"#3366ff99","Correct":32,"Choice":-1,"RT":-1,"Accuracy":0,"Outcome":"-10","Keys":[],"TotalKeys":0,"Block":2,"Trial":232,"Robot":3,"Valence":"Lose","Action":"Go","Sham":0,"Color":"blue","trial_type":"pit-trial","trial_index":249,"time_elapsed":1048886,"internal_node_id":"0.0-238.0","task_version":"test-retest"},{"Rune":"rune_01_yr","Hex":"#ffcc3399","Correct":32,"Choice":32,"RT":580.3700000979006,"Accuracy":1,"Outcome":"+10","Keys":[2080.620000138879],"TotalKeys":1,"Block":2,"Trial":233,"Robot":1,"Valence":"Win","Action":"Go","Sham":0,"Color":"yellow","trial_type":"pit-trial","trial_index":250,"time_elapsed":1051970,"internal_node_id":"0.0-239.0","task_version":"test-retest"},{"Rune":"rune_01_ger","Hex":"#ffcc3399","Correct":-1,"Choice":32,"RT":635.6599999126047,"Accuracy":0,"Outcome":"+1","Keys":[2156.935000093654],"TotalKeys":1,"Block":2,"Trial":234,"Robot":2,"Valence":"Win","Action":"No-Go","Sham":0,"Color":"yellow","trial_type":"pit-trial","trial_index":251,"time_elapsed":1055130,"internal_node_id":"0.0-240.0","task_version":"test-retest"},{"Rune":"rune_01_ingwaz","Hex":"#3366ff99","Correct":-1,"Choice":-1,"RT":-1,"Accuracy":1,"Outcome":"-1","Keys":[],"TotalKeys":0,"Block":2,"Trial":235,"Robot":4,"Valence":"Lose","Action":"No-Go","Sham":0,"Color":"blue","trial_type":"pit-trial","trial_index":252,"time_elapsed":1059135,"internal_node_id":"0.0-241.0","task_version":"test-retest"},{"Rune":"rune_01_ear","Hex":"#3366ff99","Correct":32,"Choice":-1,"RT":-1,"Accuracy":0,"Outcome":"-10","Keys":[],"TotalKeys":0,"Block":2,"Trial":236,"Robot":3,"Valence":"Lose","Action":"Go","Sham":0,"Color":"blue","trial_type":"pit-trial","trial_index":253,"time_elapsed":1063139,"internal_node_id":"0.0-242.0","task_version":"test-retest"},{"Rune":"rune_01_ear","Hex":"#3366ff99","Correct":32,"Choice":-1,"RT":-1,"Accuracy":0,"Outcome":"-10","Keys":[],"TotalKeys":0,"Block":2,"Trial":237,"Robot":3,"Valence":"Lose","Action":"Go","Sham":0,"Color":"blue","trial_type":"pit-trial","trial_index":254,"time_elapsed":1067143,"internal_node_id":"0.0-243.0","task_version":"test-retest"},{"Rune":"rune_01_yr","Hex":"#ffcc3399","Correct":32,"Choice":32,"RT":553.4599998500198,"Accuracy":1,"Outcome":"+10","Keys":[2053.865000139922],"TotalKeys":1,"Block":2,"Trial":238,"Robot":1,"Valence":"Win","Action":"Go","Sham":0,"Color":"yellow","trial_type":"pit-trial","trial_index":255,"time_elapsed":1070201,"internal_node_id":"0.0-244.0","task_version":"test-retest"},{"Rune":"rune_01_ingwaz","Hex":"#3366ff99","Correct":-1,"Choice":-1,"RT":-1,"Accuracy":1,"Outcome":"-1","Keys":[],"TotalKeys":0,"Block":2,"Trial":239,"Robot":4,"Valence":"Lose","Action":"No-Go","Sham":0,"Color":"blue","trial_type":"pit-trial","trial_index":256,"time_elapsed":1074206,"internal_node_id":"0.0-245.0","task_version":"test-retest"},{"Rune":"rune_01_ger","Hex":"#ffcc3399","Correct":-1,"Choice":32,"RT":549.6900000143796,"Accuracy":0,"Outcome":"+1","Keys":[2050.370000069961],"TotalKeys":1,"Block":2,"Trial":240,"Robot":2,"Valence":"Win","Action":"No-Go","Sham":0,"Color":"yellow","trial_type":"pit-trial","trial_index":257,"time_elapsed":1077261,"internal_node_id":"0.0-246.0","task_version":"test-retest"},{"view_history":"[{\"page_index\":0,\"viewing_time\":6696.044999873266}]","rt":6696.684999857098,"trial_type":"pit-instructions","trial_index":258,"time_elapsed":1083959,"internal_node_id":"0.0-247.0","task_version":"test-retest"},{"responses":{"Q13":"2","Q05":"2","Q04":"3","Q03":"2","Q11":"2","Q08":"3","Q12":"1","Q07":"3","Q10":"2","Q01":"1","Q09":"1","Q06":"1","Q02":"2","Q15":"2","Q14":"3"},"rt":48993.43999987468,"survey":"7up7down","trial_type":"survey-template","trial_index":259,"time_elapsed":1132961,"internal_node_id":"0.0-248.0","task_version":"test-retest"},{"responses":{"Q03":"2","Q04":"2","Q06":"3","Q07":"2","Q01":"1","Q08":"1","Q05":"2","Q02":"3"},"rt":16134.450000012293,"survey":"gad7","trial_type":"survey-template","trial_index":260,"time_elapsed":1149099,"internal_node_id":"0.0-249.0","task_version":"test-retest"},{"responses":{"Q11":"2","Q08":"1","Q03":"3","Q09":"2","Q01":"2","Q02":"1","Q05":"2","Q13":"2","Q07":"1","Q12":"2","Q10":"1","Q04":"2","Q06":"3"},"rt":48856.58499994315,"survey":"bisbas","trial_type":"survey-template","trial_index":261,"time_elapsed":1197960,"internal_node_id":"0.0-250.0","task_version":"test-retest"},{"rt":30265.679999953136,"responses":{"age":"27","gender-categorical":"Female","gender-free-response":"","ethnicity":"Hispanic or Latino","race":"White","language":"Yes","fluency":"Very well"},"survey":"demographics","trial_type":"survey-demo","trial_index":262,"time_elapsed":1228234,"internal_node_id":"0.0-251.0","task_version":"test-retest"},{"rt":52943.100000033155,"responses":{"difficulty":"4","fun":"5","clarity":"5","strategy":"nothing","feedback":"good  nice"},"survey":"debrief","trial_type":"survey-debrief","trial_index":263,"time_elapsed":1281180,"internal_node_id":"0.0-252.0","task_version":"test-retest"},{"rt":14122.619999805465,"stimulus":"You earned a bonus of $0.79 out of $1.5.<br><br>Press any key to complete the experiment.","key_press":13,"trial_type":"html-keyboard-response","trial_index":264,"time_elapsed":1295308,"internal_node_id":"0.0-253.0","task_version":"test-retest","accuracy":0.525,"bonus":0.79,"interactions":"[]"}]