[{"slider_type":"valence","raw_loc":591,"loc":0.682,"trial_type":"affective-slider","trial_index":0,"time_elapsed":4636,"internal_node_id":"0.0-0.0","task_version":"test-retest-t2"},{"responses":{"Q08":"0","Q07":"0","Q06":"1","Q02":"0","Q04":"0","Q01":"1","Q05":"0","Q03":"1"},"rt":10301.394999958575,"survey":"gad7","trial_type":"survey-template","trial_index":1,"time_elapsed":14942,"internal_node_id":"0.0-1.0","task_version":"test-retest-t2"},{"view_history":"[{\"page_index\":0,\"viewing_time\":1979.7149999067187},{\"page_index\":1,\"viewing_time\":844.7550004348159},{\"page_index\":2,\"viewing_time\":608.9399997144938},{\"page_index\":3,\"viewing_time\":999.5299996808171},{\"page_index\":4,\"viewing_time\":872.1300000324845},{\"page_index\":5,\"viewing_time\":703.8350002840161}]","rt":6010.040000081062,"trial_type":"pit-instructions","trial_index":2,"time_elapsed":20957,"internal_node_id":"0.0-2.0-0.0","task_version":"test-retest-t2"},{"Rune":"rune_00_ingz","Hex":"#FFFFF080","Correct":32,"Choice":-1,"RT":-1,"Accuracy":0,"Outcome":"+0","Keys":[],"TotalKeys":0,"Block":0,"Action":"Go","trial_type":"pit-trial","trial_index":3,"time_elapsed":24966,"internal_node_id":"0.0-2.0-1.0-0.0","task_version":"test-retest-t2"},{"Rune":"rune_00_ingz","Hex":"#FFFFF080","Correct":32,"Choice":-1,"RT":-1,"Accuracy":0,"Outcome":"+0","Keys":[],"TotalKeys":0,"Block":0,"Action":"Go","trial_type":"pit-trial","trial_index":4,"time_elapsed":28976,"internal_node_id":"0.0-2.0-1.0-0.1","task_version":"test-retest-t2"},{"Rune":"rune_00_ingz","Hex":"#FFFFF080","Correct":32,"Choice":32,"RT":175.49999989569187,"Accuracy":1,"Outcome":"+10","Keys":[1676.570000126958],"TotalKeys":1,"Block":0,"Action":"Go","trial_type":"pit-trial","trial_index":5,"time_elapsed":31657,"internal_node_id":"0.0-2.0-1.0-0.2","task_version":"test-retest-t2"},{"Rune":"rune_00_ingz","Hex":"#FFFFF080","Correct":32,"Choice":32,"RT":354.22000009566545,"Accuracy":1,"Outcome":"+10","Keys":[1856.1999993398786],"TotalKeys":1,"Block":0,"Action":"Go","trial_type":"pit-trial","trial_index":6,"time_elapsed":34521,"internal_node_id":"0.0-2.0-1.0-0.3","task_version":"test-retest-t2"},{"view_history":"[{\"page_index\":0,\"viewing_time\":2962.4500004574656}]","rt":2962.965000420809,"trial_type":"pit-instructions","trial_index":7,"time_elapsed":37486,"internal_node_id":"0.0-2.0-2.0","task_version":"test-retest-t2"},{"Rune":"rune_00_isaz","Hex":"#FFFFF080","Correct":-1,"Choice":-1,"RT":-1,"Accuracy":1,"Outcome":"+10","Keys":[],"TotalKeys":0,"Block":0,"Action":"No-Go","trial_type":"pit-trial","trial_index":8,"time_elapsed":41494,"internal_node_id":"0.0-2.0-3.0-0.0","task_version":"test-retest-t2"},{"Rune":"rune_00_isaz","Hex":"#FFFFF080","Correct":-1,"Choice":-1,"RT":-1,"Accuracy":1,"Outcome":"+10","Keys":[],"TotalKeys":0,"Block":0,"Action":"No-Go","trial_type":"pit-trial","trial_index":9,"time_elapsed":45505,"internal_node_id":"0.0-2.0-3.0-0.1","task_version":"test-retest-t2"},{"Rune":"rune_00_isaz","Hex":"#FFFFF080","Correct":-1,"Choice":-1,"RT":-1,"Accuracy":1,"Outcome":"+10","Keys":[],"TotalKeys":0,"Block":0,"Action":"No-Go","trial_type":"pit-trial","trial_index":10,"time_elapsed":49511,"internal_node_id":"0.0-2.0-3.0-0.2","task_version":"test-retest-t2"},{"Rune":"rune_00_isaz","Hex":"#FFFFF080","Correct":-1,"Choice":-1,"RT":-1,"Accuracy":1,"Outcome":"+10","Keys":[],"TotalKeys":0,"Block":0,"Action":"No-Go","trial_type":"pit-trial","trial_index":11,"time_elapsed":53517,"internal_node_id":"0.0-2.0-3.0-0.3","task_version":"test-retest-t2"},{"view_history":"[{\"page_index\":0,\"viewing_time\":4062.3700004070997},{\"page_index\":1,\"viewing_time\":3033.5649996995926},{\"page_index\":2,\"viewing_time\":8887.190000154078},{\"page_index\":3,\"viewing_time\":1465.0550000369549},{\"page_index\":4,\"viewing_time\":1369.7800002992153},{\"page_index\":5,\"viewing_time\":1156.1099998652935},{\"page_index\":6,\"viewing_time\":2344.2299999296665},{\"page_index\":7,\"viewing_time\":6968.724999576807}]","rt":29287.574999965727,"trial_type":"pit-instructions","trial_index":12,"time_elapsed":82805,"internal_node_id":"0.0-2.0-4.0","task_version":"test-retest-t2"},{"responses":["Do nothing","+10","-1","True","Yes"],"num_errors":0,"rt":16179.45499997586,"trial_type":"pit-comprehension","trial_index":13,"time_elapsed":98988,"internal_node_id":"0.0-2.0-5.0","task_version":"test-retest-t2"},{"trial_type":"call-function","trial_index":14,"time_elapsed":98992,"internal_node_id":"0.0-3.0","task_version":"test-retest-t2"},{"view_history":"[{\"page_index\":0,\"viewing_time\":1027.169999666512},{\"page_index\":1,\"viewing_time\":1241.9699998572469},{\"page_index\":2,\"viewing_time\":984.8899999633431}]","rt":3254.5400001108646,"trial_type":"pit-instructions","trial_index":15,"time_elapsed":102248,"internal_node_id":"0.0-4.0","task_version":"test-retest-t2"},{"Rune":"rune_05_tiwaz","Hex":"#3366ff99","Correct":32,"Choice":-1,"RT":-1,"Accuracy":0,"Outcome":"-10","Keys":[],"TotalKeys":0,"Block":1,"Trial":1,"Robot":3,"Valence":"Lose","Action":"Go","Sham":0,"Color":"blue","trial_type":"pit-trial","trial_index":16,"time_elapsed":106261,"internal_node_id":"0.0-5.0","task_version":"test-retest-t2"},{"Rune":"rune_05_gebo","Hex":"#ffcc3399","Correct":-1,"Choice":32,"RT":910.2399991825223,"Accuracy":0,"Outcome":"+1","Keys":[2411.910000257194],"TotalKeys":1,"Block":1,"Trial":2,"Robot":2,"Valence":"Win","Action":"No-Go","Sham":0,"Color":"yellow","trial_type":"pit-trial","trial_index":17,"time_elapsed":109676,"internal_node_id":"0.0-6.0","task_version":"test-retest-t2"},{"Rune":"rune_05_jeran","Hex":"#ffcc3399","Correct":32,"Choice":32,"RT":590.3399996459484,"Accuracy":1,"Outcome":"+10","Keys":[2092.4749998375773],"TotalKeys":1,"Block":1,"Trial":3,"Robot":1,"Valence":"Win","Action":"Go","Sham":0,"Color":"yellow","trial_type":"pit-trial","trial_index":18,"time_elapsed":112772,"internal_node_id":"0.0-7.0","task_version":"test-retest-t2"},{"Rune":"rune_05_ior","Hex":"#3366ff99","Correct":-1,"Choice":32,"RT":820.0850002467632,"Accuracy":0,"Outcome":"-1","Keys":[2323.6649995669723],"TotalKeys":1,"Block":1,"Trial":4,"Robot":4,"Valence":"Lose","Action":"No-Go","Sham":1,"Color":"blue","trial_type":"pit-trial","trial_index":19,"time_elapsed":116101,"internal_node_id":"0.0-8.0","task_version":"test-retest-t2"},{"Rune":"rune_05_gebo","Hex":"#ffcc3399","Correct":-1,"Choice":32,"RT":1340.145000256598,"Accuracy":0,"Outcome":"+1","Keys":[2841.1499997600913],"TotalKeys":1,"Block":1,"Trial":5,"Robot":2,"Valence":"Win","Action":"No-Go","Sham":0,"Color":"yellow","trial_type":"pit-trial","trial_index":20,"time_elapsed":119945,"internal_node_id":"0.0-9.0","task_version":"test-retest-t2"},{"Rune":"rune_05_ior","Hex":"#3366ff99","Correct":-1,"Choice":32,"RT":800.3449998795986,"Accuracy":0,"Outcome":"-10","Keys":[2300.5149997770786],"TotalKeys":1,"Block":1,"Trial":6,"Robot":4,"Valence":"Lose","Action":"No-Go","Sham":0,"Color":"blue","trial_type":"pit-trial","trial_index":21,"time_elapsed":123252,"internal_node_id":"0.0-10.0","task_version":"test-retest-t2"},{"Rune":"rune_05_tiwaz","Hex":"#3366ff99","Correct":32,"Choice":32,"RT":733.134999871254,"Accuracy":1,"Outcome":"-1","Keys":[2233.649999834597],"TotalKeys":1,"Block":1,"Trial":7,"Robot":3,"Valence":"Lose","Action":"Go","Sham":0,"Color":"blue","trial_type":"pit-trial","trial_index":22,"time_elapsed":126491,"internal_node_id":"0.0-11.0","task_version":"test-retest-t2"},{"Rune":"rune_05_jeran","Hex":"#ffcc3399","Correct":32,"Choice":32,"RT":674.7200004756451,"Accuracy":1,"Outcome":"+10","Keys":[2178.6249997094274],"TotalKeys":1,"Block":1,"Trial":8,"Robot":1,"Valence":"Win","Action":"Go","Sham":0,"Color":"yellow","trial_type":"pit-trial","trial_index":23,"time_elapsed":129675,"internal_node_id":"0.0-12.0","task_version":"test-retest-t2"},{"Rune":"rune_05_jeran","Hex":"#ffcc3399","Correct":32,"Choice":32,"RT":925.9599996730685,"Accuracy":1,"Outcome":"+10","Keys":[2426.5050003305078],"TotalKeys":1,"Block":1,"Trial":9,"Robot":1,"Valence":"Win","Action":"Go","Sham":0,"Color":"yellow","trial_type":"pit-trial","trial_index":24,"time_elapsed":133109,"internal_node_id":"0.0-13.0","task_version":"test-retest-t2"},{"Rune":"rune_05_ior","Hex":"#3366ff99","Correct":-1,"Choice":-1,"RT":-1,"Accuracy":1,"Outcome":"-1","Keys":[],"TotalKeys":0,"Block":1,"Trial":10,"Robot":4,"Valence":"Lose","Action":"No-Go","Sham":0,"Color":"blue","trial_type":"pit-trial","trial_index":25,"time_elapsed":137120,"internal_node_id":"0.0-14.0","task_version":"test-retest-t2"},{"Rune":"rune_05_tiwaz","Hex":"#3366ff99","Correct":32,"Choice":32,"RT":1494.370000436902,"Accuracy":1,"Outcome":"-1","Keys":[2995.165000669658],"TotalKeys":1,"Block":1,"Trial":11,"Robot":3,"Valence":"Lose","Action":"Go","Sham":0,"Color":"blue","trial_type":"pit-trial","trial_index":26,"time_elapsed":141123,"internal_node_id":"0.0-15.0","task_version":"test-retest-t2"},{"Rune":"rune_05_gebo","Hex":"#ffcc3399","Correct":-1,"Choice":-1,"RT":-1,"Accuracy":1,"Outcome":"+10","Keys":[],"TotalKeys":0,"Block":1,"Trial":12,"Robot":2,"Valence":"Win","Action":"No-Go","Sham":0,"Color":"yellow","trial_type":"pit-trial","trial_index":27,"time_elapsed":145132,"internal_node_id":"0.0-16.0","task_version":"test-retest-t2"},{"Rune":"rune_05_jeran","Hex":"#ffcc3399","Correct":32,"Choice":32,"RT":1390.9999998286366,"Accuracy":1,"Outcome":"+1","Keys":[2891.57999958843],"TotalKeys":1,"Block":1,"Trial":13,"Robot":1,"Valence":"Win","Action":"Go","Sham":1,"Color":"yellow","trial_type":"pit-trial","trial_index":28,"time_elapsed":149030,"internal_node_id":"0.0-17.0","task_version":"test-retest-t2"},{"Rune":"rune_05_ior","Hex":"#3366ff99","Correct":-1,"Choice":-1,"RT":-1,"Accuracy":1,"Outcome":"-1","Keys":[],"TotalKeys":0,"Block":1,"Trial":14,"Robot":4,"Valence":"Lose","Action":"No-Go","Sham":0,"Color":"blue","trial_type":"pit-trial","trial_index":29,"time_elapsed":153039,"internal_node_id":"0.0-18.0","task_version":"test-retest-t2"},{"Rune":"rune_05_gebo","Hex":"#ffcc3399","Correct":-1,"Choice":-1,"RT":-1,"Accuracy":1,"Outcome":"+1","Keys":[],"TotalKeys":0,"Block":1,"Trial":15,"Robot":2,"Valence":"Win","Action":"No-Go","Sham":1,"Color":"yellow","trial_type":"pit-trial","trial_index":30,"time_elapsed":157048,"internal_node_id":"0.0-19.0","task_version":"test-retest-t2"},{"Rune":"rune_05_tiwaz","Hex":"#3366ff99","Correct":32,"Choice":-1,"RT":-1,"Accuracy":0,"Outcome":"-10","Keys":[3773.5800007358193],"TotalKeys":1,"Block":1,"Trial":16,"Robot":3,"Valence":"Lose","Action":"Go","Sham":0,"Color":"blue","trial_type":"pit-trial","trial_index":31,"time_elapsed":161058,"internal_node_id":"0.0-20.0","task_version":"test-retest-t2"},{"Rune":"rune_05_gebo","Hex":"#ffcc3399","Correct":-1,"Choice":32,"RT":733.9749997481704,"Accuracy":0,"Outcome":"+1","Keys":[2234.8800003528595],"TotalKeys":1,"Block":1,"Trial":17,"Robot":2,"Valence":"Win","Action":"No-Go","Sham":0,"Color":"yellow","trial_type":"pit-trial","trial_index":32,"time_elapsed":164300,"internal_node_id":"0.0-21.0","task_version":"test-retest-t2"},{"Rune":"rune_05_ior","Hex":"#3366ff99","Correct":-1,"Choice":-1,"RT":-1,"Accuracy":1,"Outcome":"-1","Keys":[],"TotalKeys":0,"Block":1,"Trial":18,"Robot":4,"Valence":"Lose","Action":"No-Go","Sham":0,"Color":"blue","trial_type":"pit-trial","trial_index":33,"time_elapsed":168308,"internal_node_id":"0.0-22.0","task_version":"test-retest-t2"},{"Rune":"rune_05_tiwaz","Hex":"#3366ff99","Correct":32,"Choice":32,"RT":600.2349993214011,"Accuracy":1,"Outcome":"-10","Keys":[2101.615000516176],"TotalKeys":1,"Block":1,"Trial":19,"Robot":3,"Valence":"Lose","Action":"Go","Sham":1,"Color":"blue","trial_type":"pit-trial","trial_index":34,"time_elapsed":171416,"internal_node_id":"0.0-23.0","task_version":"test-retest-t2"},{"Rune":"rune_05_jeran","Hex":"#ffcc3399","Correct":32,"Choice":-1,"RT":-1,"Accuracy":0,"Outcome":"+1","Keys":[3162.375000305474],"TotalKeys":1,"Block":1,"Trial":20,"Robot":1,"Valence":"Win","Action":"Go","Sham":0,"Color":"yellow","trial_type":"pit-trial","trial_index":35,"time_elapsed":175425,"internal_node_id":"0.0-24.0","task_version":"test-retest-t2"},{"Rune":"rune_05_jeran","Hex":"#ffcc3399","Correct":32,"Choice":-1,"RT":-1,"Accuracy":0,"Outcome":"+10","Keys":[],"TotalKeys":0,"Block":1,"Trial":21,"Robot":1,"Valence":"Win","Action":"Go","Sham":1,"Color":"yellow","trial_type":"pit-trial","trial_index":36,"time_elapsed":179430,"internal_node_id":"0.0-25.0","task_version":"test-retest-t2"},{"Rune":"rune_05_gebo","Hex":"#ffcc3399","Correct":-1,"Choice":32,"RT":1249.7499994933605,"Accuracy":0,"Outcome":"+10","Keys":[2752.9400000348687],"TotalKeys":1,"Block":1,"Trial":22,"Robot":2,"Valence":"Win","Action":"No-Go","Sham":1,"Color":"yellow","trial_type":"pit-trial","trial_index":37,"time_elapsed":183187,"internal_node_id":"0.0-26.0","task_version":"test-retest-t2"},{"Rune":"rune_05_tiwaz","Hex":"#3366ff99","Correct":32,"Choice":-1,"RT":-1,"Accuracy":0,"Outcome":"-10","Keys":[],"TotalKeys":0,"Block":1,"Trial":23,"Robot":3,"Valence":"Lose","Action":"Go","Sham":0,"Color":"blue","trial_type":"pit-trial","trial_index":38,"time_elapsed":187199,"internal_node_id":"0.0-27.0","task_version":"test-retest-t2"},{"Rune":"rune_05_ior","Hex":"#3366ff99","Correct":-1,"Choice":-1,"RT":-1,"Accuracy":1,"Outcome":"-1","Keys":[147.4449997767806],"TotalKeys":1,"Block":1,"Trial":24,"Robot":4,"Valence":"Lose","Action":"No-Go","Sham":0,"Color":"blue","trial_type":"pit-trial","trial_index":39,"time_elapsed":191208,"internal_node_id":"0.0-28.0","task_version":"test-retest-t2"},{"Rune":"rune_05_gebo","Hex":"#ffcc3399","Correct":-1,"Choice":32,"RT":862.4600004404783,"Accuracy":0,"Outcome":"+1","Keys":[2362.7449991181493],"TotalKeys":1,"Block":1,"Trial":25,"Robot":2,"Valence":"Win","Action":"No-Go","Sham":0,"Color":"yellow","trial_type":"pit-trial","trial_index":40,"time_elapsed":194577,"internal_node_id":"0.0-29.0","task_version":"test-retest-t2"},{"Rune":"rune_05_tiwaz","Hex":"#3366ff99","Correct":32,"Choice":32,"RT":1311.319999396801,"Accuracy":1,"Outcome":"-1","Keys":[2812.4349992722273],"TotalKeys":1,"Block":1,"Trial":26,"Robot":3,"Valence":"Lose","Action":"Go","Sham":0,"Color":"blue","trial_type":"pit-trial","trial_index":41,"time_elapsed":198397,"internal_node_id":"0.0-30.0","task_version":"test-retest-t2"},{"Rune":"rune_05_jeran","Hex":"#ffcc3399","Correct":32,"Choice":-1,"RT":-1,"Accuracy":0,"Outcome":"+1","Keys":[],"TotalKeys":0,"Block":1,"Trial":27,"Robot":1,"Valence":"Win","Action":"Go","Sham":0,"Color":"yellow","trial_type":"pit-trial","trial_index":42,"time_elapsed":202401,"internal_node_id":"0.0-31.0","task_version":"test-retest-t2"},{"Rune":"rune_05_ior","Hex":"#3366ff99","Correct":-1,"Choice":-1,"RT":-1,"Accuracy":1,"Outcome":"-1","Keys":[],"TotalKeys":0,"Block":1,"Trial":28,"Robot":4,"Valence":"Lose","Action":"No-Go","Sham":0,"Color":"blue","trial_type":"pit-trial","trial_index":43,"time_elapsed":206411,"internal_node_id":"0.0-32.0","task_version":"test-retest-t2"},{"Rune":"rune_05_tiwaz","Hex":"#3366ff99","Correct":32,"Choice":32,"RT":1018.099999986589,"Accuracy":1,"Outcome":"-1","Keys":[2518.790000118315],"TotalKeys":1,"Block":1,"Trial":29,"Robot":3,"Valence":"Lose","Action":"Go","Sham":0,"Color":"blue","trial_type":"pit-trial","trial_index":44,"time_elapsed":209936,"internal_node_id":"0.0-33.0","task_version":"test-retest-t2"},{"Rune":"rune_05_ior","Hex":"#3366ff99","Correct":-1,"Choice":-1,"RT":-1,"Accuracy":1,"Outcome":"-1","Keys":[],"TotalKeys":0,"Block":1,"Trial":30,"Robot":4,"Valence":"Lose","Action":"No-Go","Sham":0,"Color":"blue","trial_type":"pit-trial","trial_index":45,"time_elapsed":213947,"internal_node_id":"0.0-34.0","task_version":"test-retest-t2"},{"Rune":"rune_05_jeran","Hex":"#ffcc3399","Correct":32,"Choice":32,"RT":1155.8699999004602,"Accuracy":1,"Outcome":"+10","Keys":[2656.360000371933],"TotalKeys":1,"Block":1,"Trial":31,"Robot":1,"Valence":"Win","Action":"Go","Sham":0,"Color":"yellow","trial_type":"pit-trial","trial_index":46,"time_elapsed":217606,"internal_node_id":"0.0-35.0","task_version":"test-retest-t2"},{"Rune":"rune_05_gebo","Hex":"#ffcc3399","Correct":-1,"Choice":32,"RT":1045.5900002270937,"Accuracy":0,"Outcome":"+1","Keys":[2546.8250000849366],"TotalKeys":1,"Block":1,"Trial":32,"Robot":2,"Valence":"Win","Action":"No-Go","Sham":0,"Color":"yellow","trial_type":"pit-trial","trial_index":47,"time_elapsed":221156,"internal_node_id":"0.0-36.0","task_version":"test-retest-t2"},{"Rune":"rune_05_ior","Hex":"#3366ff99","Correct":-1,"Choice":-1,"RT":-1,"Accuracy":1,"Outcome":"-10","Keys":[],"TotalKeys":0,"Block":1,"Trial":33,"Robot":4,"Valence":"Lose","Action":"No-Go","Sham":1,"Color":"blue","trial_type":"pit-trial","trial_index":48,"time_elapsed":225168,"internal_node_id":"0.0-37.0","task_version":"test-retest-t2"},{"Rune":"rune_05_gebo","Hex":"#ffcc3399","Correct":-1,"Choice":32,"RT":1378.3949995413423,"Accuracy":0,"Outcome":"+1","Keys":[2882.09000043571],"TotalKeys":1,"Block":1,"Trial":34,"Robot":2,"Valence":"Win","Action":"No-Go","Sham":0,"Color":"yellow","trial_type":"pit-trial","trial_index":49,"time_elapsed":229053,"internal_node_id":"0.0-38.0","task_version":"test-retest-t2"},{"Rune":"rune_05_jeran","Hex":"#ffcc3399","Correct":32,"Choice":32,"RT":1150.6049996241927,"Accuracy":1,"Outcome":"+10","Keys":[2653.455000370741],"TotalKeys":1,"Block":1,"Trial":35,"Robot":1,"Valence":"Win","Action":"Go","Sham":0,"Color":"yellow","trial_type":"pit-trial","trial_index":50,"time_elapsed":232713,"internal_node_id":"0.0-39.0","task_version":"test-retest-t2"},{"Rune":"rune_05_tiwaz","Hex":"#3366ff99","Correct":32,"Choice":32,"RT":1472.184999845922,"Accuracy":1,"Outcome":"-1","Keys":[2973.4549997374415],"TotalKeys":1,"Block":1,"Trial":36,"Robot":3,"Valence":"Lose","Action":"Go","Sham":0,"Color":"blue","trial_type":"pit-trial","trial_index":51,"time_elapsed":236695,"internal_node_id":"0.0-40.0","task_version":"test-retest-t2"},{"Rune":"rune_05_tiwaz","Hex":"#3366ff99","Correct":32,"Choice":-1,"RT":-1,"Accuracy":0,"Outcome":"-1","Keys":[],"TotalKeys":0,"Block":1,"Trial":37,"Robot":3,"Valence":"Lose","Action":"Go","Sham":1,"Color":"blue","trial_type":"pit-trial","trial_index":52,"time_elapsed":240705,"internal_node_id":"0.0-41.0","task_version":"test-retest-t2"},{"Rune":"rune_05_gebo","Hex":"#ffcc3399","Correct":-1,"Choice":32,"RT":1024.0799998864532,"Accuracy":0,"Outcome":"+1","Keys":[2527.949999086559],"TotalKeys":1,"Block":1,"Trial":38,"Robot":2,"Valence":"Win","Action":"No-Go","Sham":0,"Color":"yellow","trial_type":"pit-trial","trial_index":53,"time_elapsed":244240,"internal_node_id":"0.0-42.0","task_version":"test-retest-t2"},{"Rune":"rune_05_ior","Hex":"#3366ff99","Correct":-1,"Choice":-1,"RT":-1,"Accuracy":1,"Outcome":"-1","Keys":[],"TotalKeys":0,"Block":1,"Trial":39,"Robot":4,"Valence":"Lose","Action":"No-Go","Sham":0,"Color":"blue","trial_type":"pit-trial","trial_index":54,"time_elapsed":248248,"internal_node_id":"0.0-43.0","task_version":"test-retest-t2"},{"Rune":"rune_05_jeran","Hex":"#ffcc3399","Correct":32,"Choice":32,"RT":1083.5149995982647,"Accuracy":1,"Outcome":"+10","Keys":[2584.7899997606874],"TotalKeys":1,"Block":1,"Trial":40,"Robot":1,"Valence":"Win","Action":"Go","Sham":0,"Color":"yellow","trial_type":"pit-trial","trial_index":55,"time_elapsed":251839,"internal_node_id":"0.0-44.0","task_version":"test-retest-t2"},{"Rune":"rune_05_tiwaz","Hex":"#3366ff99","Correct":32,"Choice":-1,"RT":-1,"Accuracy":0,"Outcome":"-10","Keys":[],"TotalKeys":0,"Block":1,"Trial":41,"Robot":3,"Valence":"Lose","Action":"Go","Sham":0,"Color":"blue","trial_type":"pit-trial","trial_index":56,"time_elapsed":255847,"internal_node_id":"0.0-45.0","task_version":"test-retest-t2"},{"Rune":"rune_05_jeran","Hex":"#ffcc3399","Correct":32,"Choice":-1,"RT":-1,"Accuracy":0,"Outcome":"+1","Keys":[3368.3049995452166],"TotalKeys":1,"Block":1,"Trial":42,"Robot":1,"Valence":"Win","Action":"Go","Sham":0,"Color":"yellow","trial_type":"pit-trial","trial_index":57,"time_elapsed":259855,"internal_node_id":"0.0-46.0","task_version":"test-retest-t2"},{"Rune":"rune_05_ior","Hex":"#3366ff99","Correct":-1,"Choice":-1,"RT":-1,"Accuracy":1,"Outcome":"-1","Keys":[],"TotalKeys":0,"Block":1,"Trial":43,"Robot":4,"Valence":"Lose","Action":"No-Go","Sham":0,"Color":"blue","trial_type":"pit-trial","trial_index":58,"time_elapsed":263864,"internal_node_id":"0.0-47.0","task_version":"test-retest-t2"},{"Rune":"rune_05_gebo","Hex":"#ffcc3399","Correct":-1,"Choice":-1,"RT":-1,"Accuracy":1,"Outcome":"+10","Keys":[],"TotalKeys":0,"Block":1,"Trial":44,"Robot":2,"Valence":"Win","Action":"No-Go","Sham":0,"Color":"yellow","trial_type":"pit-trial","trial_index":59,"time_elapsed":267875,"internal_node_id":"0.0-48.0","task_version":"test-retest-t2"},{"Rune":"rune_05_tiwaz","Hex":"#3366ff99","Correct":32,"Choice":-1,"RT":-1,"Accuracy":0,"Outcome":"-10","Keys":[],"TotalKeys":0,"Block":1,"Trial":45,"Robot":3,"Valence":"Lose","Action":"Go","Sham":0,"Color":"blue","trial_type":"pit-trial","trial_index":60,"time_elapsed":271882,"internal_node_id":"0.0-49.0","task_version":"test-retest-t2"},{"Rune":"rune_05_ior","Hex":"#3366ff99","Correct":-1,"Choice":-1,"RT":-1,"Accuracy":1,"Outcome":"-1","Keys":[],"TotalKeys":0,"Block":1,"Trial":46,"Robot":4,"Valence":"Lose","Action":"No-Go","Sham":0,"Color":"blue","trial_type":"pit-trial","trial_index":61,"time_elapsed":275894,"internal_node_id":"0.0-50.0","task_version":"test-retest-t2"},{"Rune":"rune_05_gebo","Hex":"#ffcc3399","Correct":-1,"Choice":32,"RT":821.1599998176098,"Accuracy":0,"Outcome":"+1","Keys":[2325.7599994540215],"TotalKeys":1,"Block":1,"Trial":47,"Robot":2,"Valence":"Win","Action":"No-Go","Sham":0,"Color":"yellow","trial_type":"pit-trial","trial_index":62,"time_elapsed":279225,"internal_node_id":"0.0-51.0","task_version":"test-retest-t2"},{"Rune":"rune_05_jeran","Hex":"#ffcc3399","Correct":32,"Choice":32,"RT":894.3549999967217,"Accuracy":1,"Outcome":"+10","Keys":[2395.1150001958013],"TotalKeys":1,"Block":1,"Trial":48,"Robot":1,"Valence":"Win","Action":"Go","Sham":0,"Color":"yellow","trial_type":"pit-trial","trial_index":63,"time_elapsed":282626,"internal_node_id":"0.0-52.0","task_version":"test-retest-t2"},{"Rune":"rune_05_jeran","Hex":"#ffcc3399","Correct":32,"Choice":32,"RT":635.8050005510449,"Accuracy":1,"Outcome":"+1","Keys":[2137.7550000324845],"TotalKeys":1,"Block":1,"Trial":49,"Robot":1,"Valence":"Win","Action":"Go","Sham":1,"Color":"yellow","trial_type":"pit-trial","trial_index":64,"time_elapsed":285771,"internal_node_id":"0.0-53.0","task_version":"test-retest-t2"},{"Rune":"rune_05_tiwaz","Hex":"#3366ff99","Correct":32,"Choice":32,"RT":1079.8349995166063,"Accuracy":1,"Outcome":"-1","Keys":[2580.500000156462],"TotalKeys":1,"Block":1,"Trial":50,"Robot":3,"Valence":"Lose","Action":"Go","Sham":0,"Color":"blue","trial_type":"pit-trial","trial_index":65,"time_elapsed":289359,"internal_node_id":"0.0-54.0","task_version":"test-retest-t2"},{"Rune":"rune_05_ior","Hex":"#3366ff99","Correct":-1,"Choice":-1,"RT":-1,"Accuracy":1,"Outcome":"-1","Keys":[],"TotalKeys":0,"Block":1,"Trial":51,"Robot":4,"Valence":"Lose","Action":"No-Go","Sham":0,"Color":"blue","trial_type":"pit-trial","trial_index":66,"time_elapsed":293371,"internal_node_id":"0.0-55.0","task_version":"test-retest-t2"},{"Rune":"rune_05_gebo","Hex":"#ffcc3399","Correct":-1,"Choice":-1,"RT":-1,"Accuracy":1,"Outcome":"+1","Keys":[],"TotalKeys":0,"Block":1,"Trial":52,"Robot":2,"Valence":"Win","Action":"No-Go","Sham":1,"Color":"yellow","trial_type":"pit-trial","trial_index":67,"time_elapsed":297379,"internal_node_id":"0.0-56.0","task_version":"test-retest-t2"},{"Rune":"rune_05_ior","Hex":"#3366ff99","Correct":-1,"Choice":-1,"RT":-1,"Accuracy":1,"Outcome":"-10","Keys":[],"TotalKeys":0,"Block":1,"Trial":53,"Robot":4,"Valence":"Lose","Action":"No-Go","Sham":1,"Color":"blue","trial_type":"pit-trial","trial_index":68,"time_elapsed":301385,"internal_node_id":"0.0-57.0","task_version":"test-retest-t2"},{"Rune":"rune_05_jeran","Hex":"#ffcc3399","Correct":32,"Choice":32,"RT":637.0850000530481,"Accuracy":1,"Outcome":"+10","Keys":[2138.2250003516674],"TotalKeys":1,"Block":1,"Trial":54,"Robot":1,"Valence":"Win","Action":"Go","Sham":0,"Color":"yellow","trial_type":"pit-trial","trial_index":69,"time_elapsed":304529,"internal_node_id":"0.0-58.0","task_version":"test-retest-t2"},{"Rune":"rune_05_tiwaz","Hex":"#3366ff99","Correct":32,"Choice":-1,"RT":-1,"Accuracy":0,"Outcome":"-10","Keys":[],"TotalKeys":0,"Block":1,"Trial":55,"Robot":3,"Valence":"Lose","Action":"Go","Sham":0,"Color":"blue","trial_type":"pit-trial","trial_index":70,"time_elapsed":308540,"internal_node_id":"0.0-59.0","task_version":"test-retest-t2"},{"Rune":"rune_05_gebo","Hex":"#ffcc3399","Correct":-1,"Choice":-1,"RT":-1,"Accuracy":1,"Outcome":"+10","Keys":[],"TotalKeys":0,"Block":1,"Trial":56,"Robot":2,"Valence":"Win","Action":"No-Go","Sham":0,"Color":"yellow","trial_type":"pit-trial","trial_index":71,"time_elapsed":312552,"internal_node_id":"0.0-60.0","task_version":"test-retest-t2"},{"Rune":"rune_05_jeran","Hex":"#ffcc3399","Correct":32,"Choice":32,"RT":1073.2349995523691,"Accuracy":1,"Outcome":"+10","Keys":[2575.9850004687905],"TotalKeys":1,"Block":1,"Trial":57,"Robot":1,"Valence":"Win","Action":"Go","Sham":0,"Color":"yellow","trial_type":"pit-trial","trial_index":72,"time_elapsed":316135,"internal_node_id":"0.0-61.0","task_version":"test-retest-t2"},{"Rune":"rune_05_gebo","Hex":"#ffcc3399","Correct":-1,"Choice":-1,"RT":-1,"Accuracy":1,"Outcome":"+10","Keys":[],"TotalKeys":0,"Block":1,"Trial":58,"Robot":2,"Valence":"Win","Action":"No-Go","Sham":0,"Color":"yellow","trial_type":"pit-trial","trial_index":73,"time_elapsed":320145,"internal_node_id":"0.0-62.0","task_version":"test-retest-t2"},{"Rune":"rune_05_tiwaz","Hex":"#3366ff99","Correct":32,"Choice":-1,"RT":-1,"Accuracy":0,"Outcome":"-1","Keys":[],"TotalKeys":0,"Block":1,"Trial":59,"Robot":3,"Valence":"Lose","Action":"Go","Sham":1,"Color":"blue","trial_type":"pit-trial","trial_index":74,"time_elapsed":324153,"internal_node_id":"0.0-63.0","task_version":"test-retest-t2"},{"Rune":"rune_05_ior","Hex":"#3366ff99","Correct":-1,"Choice":-1,"RT":-1,"Accuracy":1,"Outcome":"-1","Keys":[],"TotalKeys":0,"Block":1,"Trial":60,"Robot":4,"Valence":"Lose","Action":"No-Go","Sham":0,"Color":"blue","trial_type":"pit-trial","trial_index":75,"time_elapsed":328158,"internal_node_id":"0.0-64.0","task_version":"test-retest-t2"},{"value":false,"trial_type":"call-function","trial_index":76,"time_elapsed":328160,"internal_node_id":"0.0-65.0","task_version":"test-retest-t2"},{"view_history":"[{\"page_index\":0,\"viewing_time\":9937.025000341237},{\"page_index\":1,\"viewing_time\":6907.0699997246265}]","rt":16844.535000622272,"trial_type":"pit-instructions","trial_index":77,"time_elapsed":345005,"internal_node_id":"0.0-66.0","task_version":"test-retest-t2"},{"Rune":"rune_05_gebo","Hex":"#ffcc3399","Correct":-1,"Choice":32,"RT":857.1899998933077,"Accuracy":0,"Outcome":"+1","Keys":[2357.6999995857477],"TotalKeys":1,"Block":1,"Trial":61,"Robot":2,"Valence":"Win","Action":"No-Go","Sham":0,"Color":"yellow","trial_type":"pit-trial","trial_index":78,"time_elapsed":348370,"internal_node_id":"0.0-67.0","task_version":"test-retest-t2"},{"Rune":"rune_05_ior","Hex":"#3366ff99","Correct":-1,"Choice":-1,"RT":-1,"Accuracy":1,"Outcome":"-10","Keys":[],"TotalKeys":0,"Block":1,"Trial":62,"Robot":4,"Valence":"Lose","Action":"No-Go","Sham":1,"Color":"blue","trial_type":"pit-trial","trial_index":79,"time_elapsed":352379,"internal_node_id":"0.0-68.0","task_version":"test-retest-t2"},{"Rune":"rune_05_jeran","Hex":"#ffcc3399","Correct":32,"Choice":32,"RT":661.3999996334314,"Accuracy":1,"Outcome":"+10","Keys":[2161.5749998018146],"TotalKeys":1,"Block":1,"Trial":63,"Robot":1,"Valence":"Win","Action":"Go","Sham":0,"Color":"yellow","trial_type":"pit-trial","trial_index":80,"time_elapsed":355543,"internal_node_id":"0.0-69.0","task_version":"test-retest-t2"},{"Rune":"rune_05_tiwaz","Hex":"#3366ff99","Correct":32,"Choice":-1,"RT":-1,"Accuracy":0,"Outcome":"-10","Keys":[],"TotalKeys":0,"Block":1,"Trial":64,"Robot":3,"Valence":"Lose","Action":"Go","Sham":0,"Color":"blue","trial_type":"pit-trial","trial_index":81,"time_elapsed":359554,"internal_node_id":"0.0-70.0","task_version":"test-retest-t2"},{"Rune":"rune_05_ior","Hex":"#3366ff99","Correct":-1,"Choice":-1,"RT":-1,"Accuracy":1,"Outcome":"-1","Keys":[],"TotalKeys":0,"Block":1,"Trial":65,"Robot":4,"Valence":"Lose","Action":"No-Go","Sham":0,"Color":"blue","trial_type":"pit-trial","trial_index":82,"time_elapsed":363565,"internal_node_id":"0.0-71.0","task_version":"test-retest-t2"},{"Rune":"rune_05_jeran","Hex":"#ffcc3399","Correct":32,"Choice":32,"RT":567.565000616014,"Accuracy":1,"Outcome":"+10","Keys":[2068.2749999687076],"TotalKeys":1,"Block":1,"Trial":66,"Robot":1,"Valence":"Win","Action":"Go","Sham":0,"Color":"yellow","trial_type":"pit-trial","trial_index":83,"time_elapsed":366640,"internal_node_id":"0.0-72.0","task_version":"test-retest-t2"},{"Rune":"rune_05_tiwaz","Hex":"#3366ff99","Correct":32,"Choice":-1,"RT":-1,"Accuracy":0,"Outcome":"-10","Keys":[],"TotalKeys":0,"Block":1,"Trial":67,"Robot":3,"Valence":"Lose","Action":"Go","Sham":0,"Color":"blue","trial_type":"pit-trial","trial_index":84,"time_elapsed":370649,"internal_node_id":"0.0-73.0","task_version":"test-retest-t2"},{"Rune":"rune_05_gebo","Hex":"#ffcc3399","Correct":-1,"Choice":32,"RT":389.639999717474,"Accuracy":0,"Outcome":"+10","Keys":[1890.0699997320771],"TotalKeys":1,"Block":1,"Trial":68,"Robot":2,"Valence":"Win","Action":"No-Go","Sham":1,"Color":"yellow","trial_type":"pit-trial","trial_index":85,"time_elapsed":373546,"internal_node_id":"0.0-74.0","task_version":"test-retest-t2"},{"Rune":"rune_05_tiwaz","Hex":"#3366ff99","Correct":32,"Choice":-1,"RT":-1,"Accuracy":0,"Outcome":"-1","Keys":[],"TotalKeys":0,"Block":1,"Trial":69,"Robot":3,"Valence":"Lose","Action":"Go","Sham":1,"Color":"blue","trial_type":"pit-trial","trial_index":86,"time_elapsed":377555,"internal_node_id":"0.0-75.0","task_version":"test-retest-t2"},{"Rune":"rune_05_ior","Hex":"#3366ff99","Correct":-1,"Choice":-1,"RT":-1,"Accuracy":1,"Outcome":"-1","Keys":[3079.285000450909],"TotalKeys":1,"Block":1,"Trial":70,"Robot":4,"Valence":"Lose","Action":"No-Go","Sham":0,"Color":"blue","trial_type":"pit-trial","trial_index":87,"time_elapsed":381568,"internal_node_id":"0.0-76.0","task_version":"test-retest-t2"},{"Rune":"rune_05_jeran","Hex":"#ffcc3399","Correct":32,"Choice":32,"RT":404.7699999064207,"Accuracy":1,"Outcome":"+10","Keys":[1905.120000243187],"TotalKeys":1,"Block":1,"Trial":71,"Robot":1,"Valence":"Win","Action":"Go","Sham":0,"Color":"yellow","trial_type":"pit-trial","trial_index":88,"time_elapsed":384480,"internal_node_id":"0.0-77.0","task_version":"test-retest-t2"},{"Rune":"rune_05_gebo","Hex":"#ffcc3399","Correct":-1,"Choice":32,"RT":1321.5849995613098,"Accuracy":0,"Outcome":"+1","Keys":[2823.4349992126226],"TotalKeys":1,"Block":1,"Trial":72,"Robot":2,"Valence":"Win","Action":"No-Go","Sham":0,"Color":"yellow","trial_type":"pit-trial","trial_index":89,"time_elapsed":388306,"internal_node_id":"0.0-78.0","task_version":"test-retest-t2"},{"Rune":"rune_05_ior","Hex":"#3366ff99","Correct":-1,"Choice":-1,"RT":-1,"Accuracy":1,"Outcome":"-1","Keys":[3251.6400003805757],"TotalKeys":1,"Block":1,"Trial":73,"Robot":4,"Valence":"Lose","Action":"No-Go","Sham":0,"Color":"blue","trial_type":"pit-trial","trial_index":90,"time_elapsed":392315,"internal_node_id":"0.0-79.0","task_version":"test-retest-t2"},{"Rune":"rune_05_jeran","Hex":"#ffcc3399","Correct":32,"Choice":-1,"RT":-1,"Accuracy":0,"Outcome":"+10","Keys":[],"TotalKeys":0,"Block":1,"Trial":74,"Robot":1,"Valence":"Win","Action":"Go","Sham":1,"Color":"yellow","trial_type":"pit-trial","trial_index":91,"time_elapsed":396326,"internal_node_id":"0.0-80.0","task_version":"test-retest-t2"},{"Rune":"rune_05_tiwaz","Hex":"#3366ff99","Correct":32,"Choice":32,"RT":750.3249999135733,"Accuracy":1,"Outcome":"-1","Keys":[2252.780000679195],"TotalKeys":1,"Block":1,"Trial":75,"Robot":3,"Valence":"Lose","Action":"Go","Sham":0,"Color":"blue","trial_type":"pit-trial","trial_index":92,"time_elapsed":399586,"internal_node_id":"0.0-81.0","task_version":"test-retest-t2"},{"Rune":"rune_05_gebo","Hex":"#ffcc3399","Correct":-1,"Choice":32,"RT":595.9550002589822,"Accuracy":0,"Outcome":"+1","Keys":[2096.8800000846386],"TotalKeys":1,"Block":1,"Trial":76,"Robot":2,"Valence":"Win","Action":"No-Go","Sham":0,"Color":"yellow","trial_type":"pit-trial","trial_index":93,"time_elapsed":402691,"internal_node_id":"0.0-82.0","task_version":"test-retest-t2"},{"Rune":"rune_05_ior","Hex":"#3366ff99","Correct":-1,"Choice":32,"RT":954.0999997407198,"Accuracy":0,"Outcome":"-10","Keys":[2455.809999257326],"TotalKeys":1,"Block":1,"Trial":77,"Robot":4,"Valence":"Lose","Action":"No-Go","Sham":0,"Color":"blue","trial_type":"pit-trial","trial_index":94,"time_elapsed":406153,"internal_node_id":"0.0-83.0","task_version":"test-retest-t2"},{"Rune":"rune_05_jeran","Hex":"#ffcc3399","Correct":32,"Choice":32,"RT":413.27999997884035,"Accuracy":1,"Outcome":"+10","Keys":[1913.369999267161],"TotalKeys":1,"Block":1,"Trial":78,"Robot":1,"Valence":"Win","Action":"Go","Sham":0,"Color":"yellow","trial_type":"pit-trial","trial_index":95,"time_elapsed":409074,"internal_node_id":"0.0-84.0","task_version":"test-retest-t2"},{"Rune":"rune_05_gebo","Hex":"#ffcc3399","Correct":-1,"Choice":-1,"RT":-1,"Accuracy":1,"Outcome":"+10","Keys":[],"TotalKeys":0,"Block":1,"Trial":79,"Robot":2,"Valence":"Win","Action":"No-Go","Sham":0,"Color":"yellow","trial_type":"pit-trial","trial_index":96,"time_elapsed":413082,"internal_node_id":"0.0-85.0","task_version":"test-retest-t2"},{"Rune":"rune_05_tiwaz","Hex":"#3366ff99","Correct":32,"Choice":-1,"RT":-1,"Accuracy":0,"Outcome":"-10","Keys":[],"TotalKeys":0,"Block":1,"Trial":80,"Robot":3,"Valence":"Lose","Action":"Go","Sham":0,"Color":"blue","trial_type":"pit-trial","trial_index":97,"time_elapsed":417092,"internal_node_id":"0.0-86.0","task_version":"test-retest-t2"},{"Rune":"rune_05_gebo","Hex":"#ffcc3399","Correct":-1,"Choice":32,"RT":620.6750003620982,"Accuracy":0,"Outcome":"+1","Keys":[2122.0650002360344],"TotalKeys":1,"Block":1,"Trial":81,"Robot":2,"Valence":"Win","Action":"No-Go","Sham":0,"Color":"yellow","trial_type":"pit-trial","trial_index":98,"time_elapsed":420216,"internal_node_id":"0.0-87.0","task_version":"test-retest-t2"},{"Rune":"rune_05_ior","Hex":"#3366ff99","Correct":-1,"Choice":32,"RT":928.515000268817,"Accuracy":0,"Outcome":"-10","Keys":[2429.3550001457334],"TotalKeys":1,"Block":1,"Trial":82,"Robot":4,"Valence":"Lose","Action":"No-Go","Sham":0,"Color":"blue","trial_type":"pit-trial","trial_index":99,"time_elapsed":423650,"internal_node_id":"0.0-88.0","task_version":"test-retest-t2"},{"Rune":"rune_05_jeran","Hex":"#ffcc3399","Correct":32,"Choice":32,"RT":382.73000065237284,"Accuracy":1,"Outcome":"+10","Keys":[1882.93999992311],"TotalKeys":1,"Block":1,"Trial":83,"Robot":1,"Valence":"Win","Action":"Go","Sham":0,"Color":"yellow","trial_type":"pit-trial","trial_index":100,"time_elapsed":426535,"internal_node_id":"0.0-89.0","task_version":"test-retest-t2"},{"Rune":"rune_05_tiwaz","Hex":"#3366ff99","Correct":32,"Choice":32,"RT":1179.1300000622869,"Accuracy":1,"Outcome":"-1","Keys":[2680.0850005820394],"TotalKeys":1,"Block":1,"Trial":84,"Robot":3,"Valence":"Lose","Action":"Go","Sham":0,"Color":"blue","trial_type":"pit-trial","trial_index":101,"time_elapsed":430222,"internal_node_id":"0.0-90.0","task_version":"test-retest-t2"},{"Rune":"rune_05_jeran","Hex":"#ffcc3399","Correct":32,"Choice":32,"RT":516.805000603199,"Accuracy":1,"Outcome":"+10","Keys":[2017.8399998694658],"TotalKeys":1,"Block":1,"Trial":85,"Robot":1,"Valence":"Win","Action":"Go","Sham":0,"Color":"yellow","trial_type":"pit-trial","trial_index":102,"time_elapsed":433246,"internal_node_id":"0.0-91.0","task_version":"test-retest-t2"},{"Rune":"rune_05_gebo","Hex":"#ffcc3399","Correct":-1,"Choice":32,"RT":804.2900003492832,"Accuracy":0,"Outcome":"+1","Keys":[2306.1649994924664],"TotalKeys":1,"Block":1,"Trial":86,"Robot":2,"Valence":"Win","Action":"No-Go","Sham":0,"Color":"yellow","trial_type":"pit-trial","trial_index":103,"time_elapsed":436558,"internal_node_id":"0.0-92.0","task_version":"test-retest-t2"},{"Rune":"rune_05_tiwaz","Hex":"#3366ff99","Correct":32,"Choice":-1,"RT":-1,"Accuracy":0,"Outcome":"-1","Keys":[],"TotalKeys":0,"Block":1,"Trial":87,"Robot":3,"Valence":"Lose","Action":"Go","Sham":1,"Color":"blue","trial_type":"pit-trial","trial_index":104,"time_elapsed":440569,"internal_node_id":"0.0-93.0","task_version":"test-retest-t2"},{"Rune":"rune_05_ior","Hex":"#3366ff99","Correct":-1,"Choice":32,"RT":447.4550001323223,"Accuracy":0,"Outcome":"-10","Keys":[1949.520000256598],"TotalKeys":1,"Block":1,"Trial":88,"Robot":4,"Valence":"Lose","Action":"No-Go","Sham":0,"Color":"blue","trial_type":"pit-trial","trial_index":105,"time_elapsed":443525,"internal_node_id":"0.0-94.0","task_version":"test-retest-t2"},{"Rune":"rune_05_tiwaz","Hex":"#3366ff99","Correct":32,"Choice":32,"RT":868.5950003564358,"Accuracy":1,"Outcome":"-1","Keys":[2369.045000523329],"TotalKeys":1,"Block":1,"Trial":89,"Robot":3,"Valence":"Lose","Action":"Go","Sham":0,"Color":"blue","trial_type":"pit-trial","trial_index":106,"time_elapsed":446900,"internal_node_id":"0.0-95.0","task_version":"test-retest-t2"},{"Rune":"rune_05_jeran","Hex":"#ffcc3399","Correct":32,"Choice":32,"RT":508.6650000885129,"Accuracy":1,"Outcome":"+10","Keys":[2010.675000026822],"TotalKeys":1,"Block":1,"Trial":90,"Robot":1,"Valence":"Win","Action":"Go","Sham":0,"Color":"yellow","trial_type":"pit-trial","trial_index":107,"time_elapsed":449915,"internal_node_id":"0.0-96.0","task_version":"test-retest-t2"},{"Rune":"rune_05_ior","Hex":"#3366ff99","Correct":-1,"Choice":32,"RT":725.194999948144,"Accuracy":0,"Outcome":"-10","Keys":[2226.62500012666],"TotalKeys":1,"Block":1,"Trial":91,"Robot":4,"Valence":"Lose","Action":"No-Go","Sham":0,"Color":"blue","trial_type":"pit-trial","trial_index":108,"time_elapsed":453144,"internal_node_id":"0.0-97.0","task_version":"test-retest-t2"},{"Rune":"rune_05_gebo","Hex":"#ffcc3399","Correct":-1,"Choice":-1,"RT":-1,"Accuracy":1,"Outcome":"+1","Keys":[],"TotalKeys":0,"Block":1,"Trial":92,"Robot":2,"Valence":"Win","Action":"No-Go","Sham":1,"Color":"yellow","trial_type":"pit-trial","trial_index":109,"time_elapsed":457155,"internal_node_id":"0.0-98.0","task_version":"test-retest-t2"},{"Rune":"rune_05_ior","Hex":"#3366ff99","Correct":-1,"Choice":-1,"RT":-1,"Accuracy":1,"Outcome":"-10","Keys":[],"TotalKeys":0,"Block":1,"Trial":93,"Robot":4,"Valence":"Lose","Action":"No-Go","Sham":1,"Color":"blue","trial_type":"pit-trial","trial_index":110,"time_elapsed":461162,"internal_node_id":"0.0-99.0","task_version":"test-retest-t2"},{"Rune":"rune_05_tiwaz","Hex":"#3366ff99","Correct":32,"Choice":-1,"RT":-1,"Accuracy":0,"Outcome":"-10","Keys":[],"TotalKeys":0,"Block":1,"Trial":94,"Robot":3,"Valence":"Lose","Action":"Go","Sham":0,"Color":"blue","trial_type":"pit-trial","trial_index":111,"time_elapsed":465174,"internal_node_id":"0.0-100.0","task_version":"test-retest-t2"},{"Rune":"rune_05_jeran","Hex":"#ffcc3399","Correct":32,"Choice":32,"RT":596.0849998518825,"Accuracy":1,"Outcome":"+10","Keys":[2096.729999408126],"TotalKeys":1,"Block":1,"Trial":95,"Robot":1,"Valence":"Win","Action":"Go","Sham":0,"Color":"yellow","trial_type":"pit-trial","trial_index":112,"time_elapsed":468277,"internal_node_id":"0.0-101.0","task_version":"test-retest-t2"},{"Rune":"rune_05_gebo","Hex":"#ffcc3399","Correct":-1,"Choice":-1,"RT":-1,"Accuracy":1,"Outcome":"+10","Keys":[],"TotalKeys":0,"Block":1,"Trial":96,"Robot":2,"Valence":"Win","Action":"No-Go","Sham":0,"Color":"yellow","trial_type":"pit-trial","trial_index":113,"time_elapsed":472288,"internal_node_id":"0.0-102.0","task_version":"test-retest-t2"},{"Rune":"rune_05_gebo","Hex":"#ffcc3399","Correct":-1,"Choice":-1,"RT":-1,"Accuracy":1,"Outcome":"+10","Keys":[],"TotalKeys":0,"Block":1,"Trial":97,"Robot":2,"Valence":"Win","Action":"No-Go","Sham":0,"Color":"yellow","trial_type":"pit-trial","trial_index":114,"time_elapsed":476295,"internal_node_id":"0.0-103.0","task_version":"test-retest-t2"},{"Rune":"rune_05_jeran","Hex":"#ffcc3399","Correct":32,"Choice":32,"RT":458.9450005441904,"Accuracy":1,"Outcome":"+1","Keys":[1959.1499995440245],"TotalKeys":1,"Block":1,"Trial":98,"Robot":1,"Valence":"Win","Action":"Go","Sham":1,"Color":"yellow","trial_type":"pit-trial","trial_index":115,"time_elapsed":479257,"internal_node_id":"0.0-104.0","task_version":"test-retest-t2"},{"Rune":"rune_05_tiwaz","Hex":"#3366ff99","Correct":32,"Choice":32,"RT":1244.175000116229,"Accuracy":1,"Outcome":"-1","Keys":[2747.344999574125],"TotalKeys":1,"Block":1,"Trial":99,"Robot":3,"Valence":"Lose","Action":"Go","Sham":0,"Color":"blue","trial_type":"pit-trial","trial_index":116,"time_elapsed":483009,"internal_node_id":"0.0-105.0","task_version":"test-retest-t2"},{"Rune":"rune_05_ior","Hex":"#3366ff99","Correct":-1,"Choice":-1,"RT":-1,"Accuracy":1,"Outcome":"-1","Keys":[],"TotalKeys":0,"Block":1,"Trial":100,"Robot":4,"Valence":"Lose","Action":"No-Go","Sham":0,"Color":"blue","trial_type":"pit-trial","trial_index":117,"time_elapsed":487018,"internal_node_id":"0.0-106.0","task_version":"test-retest-t2"},{"Rune":"rune_05_ior","Hex":"#3366ff99","Correct":-1,"Choice":-1,"RT":-1,"Accuracy":1,"Outcome":"-10","Keys":[],"TotalKeys":0,"Block":1,"Trial":101,"Robot":4,"Valence":"Lose","Action":"No-Go","Sham":1,"Color":"blue","trial_type":"pit-trial","trial_index":118,"time_elapsed":491030,"internal_node_id":"0.0-107.0","task_version":"test-retest-t2"},{"Rune":"rune_05_jeran","Hex":"#ffcc3399","Correct":32,"Choice":32,"RT":578.8199994713068,"Accuracy":1,"Outcome":"+10","Keys":[2078.8700003176928],"TotalKeys":1,"Block":1,"Trial":102,"Robot":1,"Valence":"Win","Action":"Go","Sham":0,"Color":"yellow","trial_type":"pit-trial","trial_index":119,"time_elapsed":494115,"internal_node_id":"0.0-108.0","task_version":"test-retest-t2"},{"Rune":"rune_05_tiwaz","Hex":"#3366ff99","Correct":32,"Choice":32,"RT":1356.3199993222952,"Accuracy":1,"Outcome":"-1","Keys":[2858.1599993631244],"TotalKeys":1,"Block":1,"Trial":103,"Robot":3,"Valence":"Lose","Action":"Go","Sham":0,"Color":"blue","trial_type":"pit-trial","trial_index":120,"time_elapsed":497980,"internal_node_id":"0.0-109.0","task_version":"test-retest-t2"},{"Rune":"rune_05_gebo","Hex":"#ffcc3399","Correct":-1,"Choice":-1,"RT":-1,"Accuracy":1,"Outcome":"+10","Keys":[],"TotalKeys":0,"Block":1,"Trial":104,"Robot":2,"Valence":"Win","Action":"No-Go","Sham":0,"Color":"yellow","trial_type":"pit-trial","trial_index":121,"time_elapsed":501989,"internal_node_id":"0.0-110.0","task_version":"test-retest-t2"},{"Rune":"rune_05_tiwaz","Hex":"#3366ff99","Correct":32,"Choice":32,"RT":737.300000153482,"Accuracy":1,"Outcome":"-1","Keys":[2239.8049999028444],"TotalKeys":1,"Block":1,"Trial":105,"Robot":3,"Valence":"Lose","Action":"Go","Sham":0,"Color":"blue","trial_type":"pit-trial","trial_index":122,"time_elapsed":505231,"internal_node_id":"0.0-111.0","task_version":"test-retest-t2"},{"Rune":"rune_05_jeran","Hex":"#ffcc3399","Correct":32,"Choice":32,"RT":440.8799996599555,"Accuracy":1,"Outcome":"+10","Keys":[1941.3749994710088],"TotalKeys":1,"Block":1,"Trial":106,"Robot":1,"Valence":"Win","Action":"Go","Sham":0,"Color":"yellow","trial_type":"pit-trial","trial_index":123,"time_elapsed":508176,"internal_node_id":"0.0-112.0","task_version":"test-retest-t2"},{"Rune":"rune_05_gebo","Hex":"#ffcc3399","Correct":-1,"Choice":-1,"RT":-1,"Accuracy":1,"Outcome":"+10","Keys":[],"TotalKeys":0,"Block":1,"Trial":107,"Robot":2,"Valence":"Win","Action":"No-Go","Sham":0,"Color":"yellow","trial_type":"pit-trial","trial_index":124,"time_elapsed":512185,"internal_node_id":"0.0-113.0","task_version":"test-retest-t2"},{"Rune":"rune_05_ior","Hex":"#3366ff99","Correct":-1,"Choice":-1,"RT":-1,"Accuracy":1,"Outcome":"-1","Keys":[],"TotalKeys":0,"Block":1,"Trial":108,"Robot":4,"Valence":"Lose","Action":"No-Go","Sham":0,"Color":"blue","trial_type":"pit-trial","trial_index":125,"time_elapsed":516194,"internal_node_id":"0.0-114.0","task_version":"test-retest-t2"},{"Rune":"rune_05_ior","Hex":"#3366ff99","Correct":-1,"Choice":32,"RT":572.3000001162291,"Accuracy":0,"Outcome":"-10","Keys":[2073.9449998363853],"TotalKeys":1,"Block":1,"Trial":109,"Robot":4,"Valence":"Lose","Action":"No-Go","Sham":0,"Color":"blue","trial_type":"pit-trial","trial_index":126,"time_elapsed":519273,"internal_node_id":"0.0-115.0","task_version":"test-retest-t2"},{"Rune":"rune_05_jeran","Hex":"#ffcc3399","Correct":32,"Choice":32,"RT":406.3550001010299,"Accuracy":1,"Outcome":"+1","Keys":[1906.8250004202127],"TotalKeys":1,"Block":1,"Trial":110,"Robot":1,"Valence":"Win","Action":"Go","Sham":1,"Color":"yellow","trial_type":"pit-trial","trial_index":127,"time_elapsed":522187,"internal_node_id":"0.0-116.0","task_version":"test-retest-t2"},{"Rune":"rune_05_tiwaz","Hex":"#3366ff99","Correct":32,"Choice":32,"RT":1017.8950000554323,"Accuracy":1,"Outcome":"-10","Keys":[2519.0099999308586],"TotalKeys":1,"Block":1,"Trial":111,"Robot":3,"Valence":"Lose","Action":"Go","Sham":1,"Color":"blue","trial_type":"pit-trial","trial_index":128,"time_elapsed":525711,"internal_node_id":"0.0-117.0","task_version":"test-retest-t2"},{"Rune":"rune_05_gebo","Hex":"#ffcc3399","Correct":-1,"Choice":32,"RT":473.87500014156103,"Accuracy":0,"Outcome":"+1","Keys":[1977.7300003916025],"TotalKeys":1,"Block":1,"Trial":112,"Robot":2,"Valence":"Win","Action":"No-Go","Sham":0,"Color":"yellow","trial_type":"pit-trial","trial_index":129,"time_elapsed":528694,"internal_node_id":"0.0-118.0","task_version":"test-retest-t2"},{"Rune":"rune_05_gebo","Hex":"#ffcc3399","Correct":-1,"Choice":-1,"RT":-1,"Accuracy":1,"Outcome":"+10","Keys":[],"TotalKeys":0,"Block":1,"Trial":113,"Robot":2,"Valence":"Win","Action":"No-Go","Sham":0,"Color":"yellow","trial_type":"pit-trial","trial_index":130,"time_elapsed":532700,"internal_node_id":"0.0-119.0","task_version":"test-retest-t2"},{"Rune":"rune_05_tiwaz","Hex":"#3366ff99","Correct":32,"Choice":32,"RT":795.6900000572205,"Accuracy":1,"Outcome":"-1","Keys":[2295.894999988377],"TotalKeys":1,"Block":1,"Trial":114,"Robot":3,"Valence":"Lose","Action":"Go","Sham":0,"Color":"blue","trial_type":"pit-trial","trial_index":131,"time_elapsed":536002,"internal_node_id":"0.0-120.0","task_version":"test-retest-t2"},{"Rune":"rune_05_ior","Hex":"#3366ff99","Correct":-1,"Choice":-1,"RT":-1,"Accuracy":1,"Outcome":"-1","Keys":[],"TotalKeys":0,"Block":1,"Trial":115,"Robot":4,"Valence":"Lose","Action":"No-Go","Sham":0,"Color":"blue","trial_type":"pit-trial","trial_index":132,"time_elapsed":540008,"internal_node_id":"0.0-121.0","task_version":"test-retest-t2"},{"Rune":"rune_05_jeran","Hex":"#ffcc3399","Correct":32,"Choice":32,"RT":769.5650001987815,"Accuracy":1,"Outcome":"+10","Keys":[2269.9250001460314],"TotalKeys":1,"Block":1,"Trial":116,"Robot":1,"Valence":"Win","Action":"Go","Sham":0,"Color":"yellow","trial_type":"pit-trial","trial_index":133,"time_elapsed":543283,"internal_node_id":"0.0-122.0","task_version":"test-retest-t2"},{"Rune":"rune_05_tiwaz","Hex":"#3366ff99","Correct":32,"Choice":-1,"RT":-1,"Accuracy":0,"Outcome":"-10","Keys":[],"TotalKeys":0,"Block":1,"Trial":117,"Robot":3,"Valence":"Lose","Action":"Go","Sham":0,"Color":"blue","trial_type":"pit-trial","trial_index":134,"time_elapsed":547290,"internal_node_id":"0.0-123.0","task_version":"test-retest-t2"},{"Rune":"rune_05_ior","Hex":"#3366ff99","Correct":-1,"Choice":-1,"RT":-1,"Accuracy":1,"Outcome":"-1","Keys":[],"TotalKeys":0,"Block":1,"Trial":118,"Robot":4,"Valence":"Lose","Action":"No-Go","Sham":0,"Color":"blue","trial_type":"pit-trial","trial_index":135,"time_elapsed":551301,"internal_node_id":"0.0-124.0","task_version":"test-retest-t2"},{"Rune":"rune_05_jeran","Hex":"#ffcc3399","Correct":32,"Choice":32,"RT":571.1350003257394,"Accuracy":1,"Outcome":"+10","Keys":[2072.9599995538592],"TotalKeys":1,"Block":1,"Trial":119,"Robot":1,"Valence":"Win","Action":"Go","Sham":0,"Color":"yellow","trial_type":"pit-trial","trial_index":136,"time_elapsed":554380,"internal_node_id":"0.0-125.0","task_version":"test-retest-t2"},{"Rune":"rune_05_gebo","Hex":"#ffcc3399","Correct":-1,"Choice":-1,"RT":-1,"Accuracy":1,"Outcome":"+1","Keys":[],"TotalKeys":0,"Block":1,"Trial":120,"Robot":2,"Valence":"Win","Action":"No-Go","Sham":1,"Color":"yellow","trial_type":"pit-trial","trial_index":137,"time_elapsed":558390,"internal_node_id":"0.0-126.0","task_version":"test-retest-t2"},{"view_history":"[{\"page_index\":0,\"viewing_time\":29115.844999440014},{\"page_index\":1,\"viewing_time\":1729.000000283122},{\"page_index\":2,\"viewing_time\":736.0500004142523}]","rt":31581.42499998212,"trial_type":"pit-instructions","trial_index":138,"time_elapsed":589973,"internal_node_id":"0.0-127.0","task_version":"test-retest-t2"},{"Rune":"rune_06_berkanan","Hex":"#ffcc3399","Correct":-1,"Choice":32,"RT":1050.3749996423721,"Accuracy":0,"Outcome":"+1","Keys":[2551.9900005310774],"TotalKeys":1,"Block":2,"Trial":121,"Robot":2,"Valence":"Win","Action":"No-Go","Sham":0,"Color":"yellow","trial_type":"pit-trial","trial_index":139,"time_elapsed":593531,"internal_node_id":"0.0-128.0","task_version":"test-retest-t2"},{"Rune":"rune_06_cweord","Hex":"#ffcc3399","Correct":32,"Choice":32,"RT":374.1600001230836,"Accuracy":1,"Outcome":"+10","Keys":[1874.6100002899766],"TotalKeys":1,"Block":2,"Trial":122,"Robot":1,"Valence":"Win","Action":"Go","Sham":0,"Color":"yellow","trial_type":"pit-trial","trial_index":140,"time_elapsed":596409,"internal_node_id":"0.0-129.0","task_version":"test-retest-t2"},{"Rune":"rune_06_ansuz","Hex":"#3366ff99","Correct":-1,"Choice":32,"RT":527.9799997806549,"Accuracy":0,"Outcome":"-1","Keys":[2029.3800001963973],"TotalKeys":1,"Block":2,"Trial":123,"Robot":4,"Valence":"Lose","Action":"No-Go","Sham":1,"Color":"blue","trial_type":"pit-trial","trial_index":141,"time_elapsed":599445,"internal_node_id":"0.0-130.0","task_version":"test-retest-t2"},{"Rune":"rune_06_ehwaz","Hex":"#3366ff99","Correct":32,"Choice":-1,"RT":-1,"Accuracy":0,"Outcome":"-10","Keys":[],"TotalKeys":0,"Block":2,"Trial":124,"Robot":3,"Valence":"Lose","Action":"Go","Sham":0,"Color":"blue","trial_type":"pit-trial","trial_index":142,"time_elapsed":603458,"internal_node_id":"0.0-131.0","task_version":"test-retest-t2"},{"Rune":"rune_06_cweord","Hex":"#ffcc3399","Correct":32,"Choice":32,"RT":476.8749997019768,"Accuracy":1,"Outcome":"+10","Keys":[1978.0850000679493],"TotalKeys":1,"Block":2,"Trial":125,"Robot":1,"Valence":"Win","Action":"Go","Sham":0,"Color":"yellow","trial_type":"pit-trial","trial_index":143,"time_elapsed":606441,"internal_node_id":"0.0-132.0","task_version":"test-retest-t2"},{"Rune":"rune_06_berkanan","Hex":"#ffcc3399","Correct":-1,"Choice":-1,"RT":-1,"Accuracy":1,"Outcome":"+10","Keys":[],"TotalKeys":0,"Block":2,"Trial":126,"Robot":2,"Valence":"Win","Action":"No-Go","Sham":0,"Color":"yellow","trial_type":"pit-trial","trial_index":144,"time_elapsed":610451,"internal_node_id":"0.0-133.0","task_version":"test-retest-t2"},{"Rune":"rune_06_ansuz","Hex":"#3366ff99","Correct":-1,"Choice":32,"RT":701.7649998888373,"Accuracy":0,"Outcome":"-10","Keys":[2204.9049995839596],"TotalKeys":1,"Block":2,"Trial":127,"Robot":4,"Valence":"Lose","Action":"No-Go","Sham":0,"Color":"blue","trial_type":"pit-trial","trial_index":145,"time_elapsed":613662,"internal_node_id":"0.0-134.0","task_version":"test-retest-t2"},{"Rune":"rune_06_ehwaz","Hex":"#3366ff99","Correct":32,"Choice":32,"RT":1097.2849996760488,"Accuracy":1,"Outcome":"-1","Keys":[2597.3450001329184],"TotalKeys":1,"Block":2,"Trial":128,"Robot":3,"Valence":"Lose","Action":"Go","Sham":0,"Color":"blue","trial_type":"pit-trial","trial_index":146,"time_elapsed":617266,"internal_node_id":"0.0-135.0","task_version":"test-retest-t2"},{"Rune":"rune_06_cweord","Hex":"#ffcc3399","Correct":32,"Choice":-1,"RT":-1,"Accuracy":0,"Outcome":"+1","Keys":[],"TotalKeys":0,"Block":2,"Trial":129,"Robot":1,"Valence":"Win","Action":"Go","Sham":0,"Color":"yellow","trial_type":"pit-trial","trial_index":147,"time_elapsed":621272,"internal_node_id":"0.0-136.0","task_version":"test-retest-t2"},{"Rune":"rune_06_berkanan","Hex":"#ffcc3399","Correct":-1,"Choice":-1,"RT":-1,"Accuracy":1,"Outcome":"+10","Keys":[],"TotalKeys":0,"Block":2,"Trial":130,"Robot":2,"Valence":"Win","Action":"No-Go","Sham":0,"Color":"yellow","trial_type":"pit-trial","trial_index":148,"time_elapsed":625282,"internal_node_id":"0.0-137.0","task_version":"test-retest-t2"},{"Rune":"rune_06_ehwaz","Hex":"#3366ff99","Correct":32,"Choice":32,"RT":1262.6049993559718,"Accuracy":1,"Outcome":"-1","Keys":[2762.929999269545],"TotalKeys":1,"Block":2,"Trial":131,"Robot":3,"Valence":"Lose","Action":"Go","Sham":0,"Color":"blue","trial_type":"pit-trial","trial_index":149,"time_elapsed":629049,"internal_node_id":"0.0-138.0","task_version":"test-retest-t2"},{"Rune":"rune_06_ansuz","Hex":"#3366ff99","Correct":-1,"Choice":-1,"RT":-1,"Accuracy":1,"Outcome":"-1","Keys":[],"TotalKeys":0,"Block":2,"Trial":132,"Robot":4,"Valence":"Lose","Action":"No-Go","Sham":0,"Color":"blue","trial_type":"pit-trial","trial_index":150,"time_elapsed":633058,"internal_node_id":"0.0-139.0","task_version":"test-retest-t2"},{"Rune":"rune_06_berkanan","Hex":"#ffcc3399","Correct":-1,"Choice":-1,"RT":-1,"Accuracy":1,"Outcome":"+1","Keys":[],"TotalKeys":0,"Block":2,"Trial":133,"Robot":2,"Valence":"Win","Action":"No-Go","Sham":1,"Color":"yellow","trial_type":"pit-trial","trial_index":151,"time_elapsed":637069,"internal_node_id":"0.0-140.0","task_version":"test-retest-t2"},{"Rune":"rune_06_ansuz","Hex":"#3366ff99","Correct":-1,"Choice":-1,"RT":-1,"Accuracy":1,"Outcome":"-1","Keys":[],"TotalKeys":0,"Block":2,"Trial":134,"Robot":4,"Valence":"Lose","Action":"No-Go","Sham":0,"Color":"blue","trial_type":"pit-trial","trial_index":152,"time_elapsed":641078,"internal_node_id":"0.0-141.0","task_version":"test-retest-t2"},{"Rune":"rune_06_cweord","Hex":"#ffcc3399","Correct":32,"Choice":32,"RT":488.01499977707863,"Accuracy":1,"Outcome":"+1","Keys":[1988.6999996379018],"TotalKeys":1,"Block":2,"Trial":135,"Robot":1,"Valence":"Win","Action":"Go","Sham":1,"Color":"yellow","trial_type":"pit-trial","trial_index":153,"time_elapsed":644069,"internal_node_id":"0.0-142.0","task_version":"test-retest-t2"},{"Rune":"rune_06_ehwaz","Hex":"#3366ff99","Correct":32,"Choice":32,"RT":607.4100006371737,"Accuracy":1,"Outcome":"-1","Keys":[2108.425000682473],"TotalKeys":1,"Block":2,"Trial":136,"Robot":3,"Valence":"Lose","Action":"Go","Sham":0,"Color":"blue","trial_type":"pit-trial","trial_index":154,"time_elapsed":647183,"internal_node_id":"0.0-143.0","task_version":"test-retest-t2"},{"Rune":"rune_06_ansuz","Hex":"#3366ff99","Correct":-1,"Choice":-1,"RT":-1,"Accuracy":1,"Outcome":"-1","Keys":[],"TotalKeys":0,"Block":2,"Trial":137,"Robot":4,"Valence":"Lose","Action":"No-Go","Sham":0,"Color":"blue","trial_type":"pit-trial","trial_index":155,"time_elapsed":651193,"internal_node_id":"0.0-144.0","task_version":"test-retest-t2"},{"Rune":"rune_06_berkanan","Hex":"#ffcc3399","Correct":-1,"Choice":-1,"RT":-1,"Accuracy":1,"Outcome":"+10","Keys":[],"TotalKeys":0,"Block":2,"Trial":138,"Robot":2,"Valence":"Win","Action":"No-Go","Sham":0,"Color":"yellow","trial_type":"pit-trial","trial_index":156,"time_elapsed":655198,"internal_node_id":"0.0-145.0","task_version":"test-retest-t2"},{"Rune":"rune_06_ehwaz","Hex":"#3366ff99","Correct":32,"Choice":-1,"RT":-1,"Accuracy":0,"Outcome":"-1","Keys":[],"TotalKeys":0,"Block":2,"Trial":139,"Robot":3,"Valence":"Lose","Action":"Go","Sham":1,"Color":"blue","trial_type":"pit-trial","trial_index":157,"time_elapsed":659205,"internal_node_id":"0.0-146.0","task_version":"test-retest-t2"},{"Rune":"rune_06_cweord","Hex":"#ffcc3399","Correct":32,"Choice":32,"RT":492.43499990552664,"Accuracy":1,"Outcome":"+10","Keys":[1992.6649993285537],"TotalKeys":1,"Block":2,"Trial":140,"Robot":1,"Valence":"Win","Action":"Go","Sham":0,"Color":"yellow","trial_type":"pit-trial","trial_index":158,"time_elapsed":662203,"internal_node_id":"0.0-147.0","task_version":"test-retest-t2"},{"Rune":"rune_06_berkanan","Hex":"#ffcc3399","Correct":-1,"Choice":-1,"RT":-1,"Accuracy":1,"Outcome":"+1","Keys":[],"TotalKeys":0,"Block":2,"Trial":141,"Robot":2,"Valence":"Win","Action":"No-Go","Sham":1,"Color":"yellow","trial_type":"pit-trial","trial_index":159,"time_elapsed":666209,"internal_node_id":"0.0-148.0","task_version":"test-retest-t2"},{"Rune":"rune_06_cweord","Hex":"#ffcc3399","Correct":32,"Choice":32,"RT":686.6800002753735,"Accuracy":1,"Outcome":"+1","Keys":[2188.4300000965595],"TotalKeys":1,"Block":2,"Trial":142,"Robot":1,"Valence":"Win","Action":"Go","Sham":1,"Color":"yellow","trial_type":"pit-trial","trial_index":160,"time_elapsed":669400,"internal_node_id":"0.0-149.0","task_version":"test-retest-t2"},{"Rune":"rune_06_ansuz","Hex":"#3366ff99","Correct":-1,"Choice":-1,"RT":-1,"Accuracy":1,"Outcome":"-1","Keys":[],"TotalKeys":0,"Block":2,"Trial":143,"Robot":4,"Valence":"Lose","Action":"No-Go","Sham":0,"Color":"blue","trial_type":"pit-trial","trial_index":161,"time_elapsed":673411,"internal_node_id":"0.0-150.0","task_version":"test-retest-t2"},{"Rune":"rune_06_ehwaz","Hex":"#3366ff99","Correct":32,"Choice":32,"RT":717.6350001245737,"Accuracy":1,"Outcome":"-1","Keys":[2218.7099996954203],"TotalKeys":1,"Block":2,"Trial":144,"Robot":3,"Valence":"Lose","Action":"Go","Sham":0,"Color":"blue","trial_type":"pit-trial","trial_index":162,"time_elapsed":676633,"internal_node_id":"0.0-151.0","task_version":"test-retest-t2"},{"Rune":"rune_06_cweord","Hex":"#ffcc3399","Correct":32,"Choice":32,"RT":1125.4799999296665,"Accuracy":1,"Outcome":"+10","Keys":[2625.6050001829863],"TotalKeys":1,"Block":2,"Trial":145,"Robot":1,"Valence":"Win","Action":"Go","Sham":0,"Color":"yellow","trial_type":"pit-trial","trial_index":163,"time_elapsed":680265,"internal_node_id":"0.0-152.0","task_version":"test-retest-t2"},{"Rune":"rune_06_ehwaz","Hex":"#3366ff99","Correct":32,"Choice":32,"RT":838.0950000137091,"Accuracy":1,"Outcome":"-1","Keys":[2341.804999858141],"TotalKeys":1,"Block":2,"Trial":146,"Robot":3,"Valence":"Lose","Action":"Go","Sham":0,"Color":"blue","trial_type":"pit-trial","trial_index":164,"time_elapsed":683614,"internal_node_id":"0.0-153.0","task_version":"test-retest-t2"},{"Rune":"rune_06_berkanan","Hex":"#ffcc3399","Correct":-1,"Choice":-1,"RT":-1,"Accuracy":1,"Outcome":"+10","Keys":[],"TotalKeys":0,"Block":2,"Trial":147,"Robot":2,"Valence":"Win","Action":"No-Go","Sham":0,"Color":"yellow","trial_type":"pit-trial","trial_index":165,"time_elapsed":687618,"internal_node_id":"0.0-154.0","task_version":"test-retest-t2"},{"Rune":"rune_06_ansuz","Hex":"#3366ff99","Correct":-1,"Choice":-1,"RT":-1,"Accuracy":1,"Outcome":"-1","Keys":[],"TotalKeys":0,"Block":2,"Trial":148,"Robot":4,"Valence":"Lose","Action":"No-Go","Sham":0,"Color":"blue","trial_type":"pit-trial","trial_index":166,"time_elapsed":691628,"internal_node_id":"0.0-155.0","task_version":"test-retest-t2"},{"Rune":"rune_06_ehwaz","Hex":"#3366ff99","Correct":32,"Choice":-1,"RT":-1,"Accuracy":0,"Outcome":"-10","Keys":[3331.809999421239],"TotalKeys":1,"Block":2,"Trial":149,"Robot":3,"Valence":"Lose","Action":"Go","Sham":0,"Color":"blue","trial_type":"pit-trial","trial_index":167,"time_elapsed":695638,"internal_node_id":"0.0-156.0","task_version":"test-retest-t2"},{"Rune":"rune_06_cweord","Hex":"#ffcc3399","Correct":32,"Choice":32,"RT":1013.7099996209145,"Accuracy":1,"Outcome":"+10","Keys":[2514.7949997335672],"TotalKeys":1,"Block":2,"Trial":150,"Robot":1,"Valence":"Win","Action":"Go","Sham":0,"Color":"yellow","trial_type":"pit-trial","trial_index":168,"time_elapsed":699159,"internal_node_id":"0.0-157.0","task_version":"test-retest-t2"},{"Rune":"rune_06_ansuz","Hex":"#3366ff99","Correct":-1,"Choice":-1,"RT":-1,"Accuracy":1,"Outcome":"-1","Keys":[],"TotalKeys":0,"Block":2,"Trial":151,"Robot":4,"Valence":"Lose","Action":"No-Go","Sham":0,"Color":"blue","trial_type":"pit-trial","trial_index":169,"time_elapsed":703169,"internal_node_id":"0.0-158.0","task_version":"test-retest-t2"},{"Rune":"rune_06_berkanan","Hex":"#ffcc3399","Correct":-1,"Choice":-1,"RT":-1,"Accuracy":1,"Outcome":"+10","Keys":[],"TotalKeys":0,"Block":2,"Trial":152,"Robot":2,"Valence":"Win","Action":"No-Go","Sham":0,"Color":"yellow","trial_type":"pit-trial","trial_index":170,"time_elapsed":707179,"internal_node_id":"0.0-159.0","task_version":"test-retest-t2"},{"Rune":"rune_06_berkanan","Hex":"#ffcc3399","Correct":-1,"Choice":-1,"RT":-1,"Accuracy":1,"Outcome":"+10","Keys":[],"TotalKeys":0,"Block":2,"Trial":153,"Robot":2,"Valence":"Win","Action":"No-Go","Sham":0,"Color":"yellow","trial_type":"pit-trial","trial_index":171,"time_elapsed":711188,"internal_node_id":"0.0-160.0","task_version":"test-retest-t2"},{"Rune":"rune_06_ansuz","Hex":"#3366ff99","Correct":-1,"Choice":-1,"RT":-1,"Accuracy":1,"Outcome":"-10","Keys":[],"TotalKeys":0,"Block":2,"Trial":154,"Robot":4,"Valence":"Lose","Action":"No-Go","Sham":1,"Color":"blue","trial_type":"pit-trial","trial_index":172,"time_elapsed":715197,"internal_node_id":"0.0-161.0","task_version":"test-retest-t2"},{"Rune":"rune_06_ehwaz","Hex":"#3366ff99","Correct":32,"Choice":-1,"RT":-1,"Accuracy":0,"Outcome":"-10","Keys":[],"TotalKeys":0,"Block":2,"Trial":155,"Robot":3,"Valence":"Lose","Action":"Go","Sham":0,"Color":"blue","trial_type":"pit-trial","trial_index":173,"time_elapsed":719205,"internal_node_id":"0.0-162.0","task_version":"test-retest-t2"},{"Rune":"rune_06_cweord","Hex":"#ffcc3399","Correct":32,"Choice":32,"RT":695.1799998059869,"Accuracy":1,"Outcome":"+10","Keys":[2196.4949993416667],"TotalKeys":1,"Block":2,"Trial":156,"Robot":1,"Valence":"Win","Action":"Go","Sham":0,"Color":"yellow","trial_type":"pit-trial","trial_index":174,"time_elapsed":722405,"internal_node_id":"0.0-163.0","task_version":"test-retest-t2"},{"Rune":"rune_06_cweord","Hex":"#ffcc3399","Correct":32,"Choice":32,"RT":702.3700000718236,"Accuracy":1,"Outcome":"+10","Keys":[2203.71999964118],"TotalKeys":1,"Block":2,"Trial":157,"Robot":1,"Valence":"Win","Action":"Go","Sham":0,"Color":"yellow","trial_type":"pit-trial","trial_index":175,"time_elapsed":725615,"internal_node_id":"0.0-164.0","task_version":"test-retest-t2"},{"Rune":"rune_06_berkanan","Hex":"#ffcc3399","Correct":-1,"Choice":-1,"RT":-1,"Accuracy":1,"Outcome":"+10","Keys":[],"TotalKeys":0,"Block":2,"Trial":158,"Robot":2,"Valence":"Win","Action":"No-Go","Sham":0,"Color":"yellow","trial_type":"pit-trial","trial_index":176,"time_elapsed":729620,"internal_node_id":"0.0-165.0","task_version":"test-retest-t2"},{"Rune":"rune_06_ehwaz","Hex":"#3366ff99","Correct":32,"Choice":32,"RT":543.3050002902746,"Accuracy":1,"Outcome":"-10","Keys":[2045.5300007015467],"TotalKeys":1,"Block":2,"Trial":159,"Robot":3,"Valence":"Lose","Action":"Go","Sham":1,"Color":"blue","trial_type":"pit-trial","trial_index":177,"time_elapsed":732670,"internal_node_id":"0.0-166.0","task_version":"test-retest-t2"},{"Rune":"rune_06_ansuz","Hex":"#3366ff99","Correct":-1,"Choice":-1,"RT":-1,"Accuracy":1,"Outcome":"-1","Keys":[],"TotalKeys":0,"Block":2,"Trial":160,"Robot":4,"Valence":"Lose","Action":"No-Go","Sham":0,"Color":"blue","trial_type":"pit-trial","trial_index":178,"time_elapsed":736677,"internal_node_id":"0.0-167.0","task_version":"test-retest-t2"},{"Rune":"rune_06_ansuz","Hex":"#3366ff99","Correct":-1,"Choice":-1,"RT":-1,"Accuracy":1,"Outcome":"-1","Keys":[],"TotalKeys":0,"Block":2,"Trial":161,"Robot":4,"Valence":"Lose","Action":"No-Go","Sham":0,"Color":"blue","trial_type":"pit-trial","trial_index":179,"time_elapsed":740682,"internal_node_id":"0.0-168.0","task_version":"test-retest-t2"},{"Rune":"rune_06_ehwaz","Hex":"#3366ff99","Correct":32,"Choice":32,"RT":511.85999996960163,"Accuracy":1,"Outcome":"-1","Keys":[2012.354999780655],"TotalKeys":1,"Block":2,"Trial":162,"Robot":3,"Valence":"Lose","Action":"Go","Sham":0,"Color":"blue","trial_type":"pit-trial","trial_index":180,"time_elapsed":743696,"internal_node_id":"0.0-169.0","task_version":"test-retest-t2"},{"Rune":"rune_06_cweord","Hex":"#ffcc3399","Correct":32,"Choice":32,"RT":384.71500016748905,"Accuracy":1,"Outcome":"+10","Keys":[1884.8999999463558],"TotalKeys":1,"Block":2,"Trial":163,"Robot":1,"Valence":"Win","Action":"Go","Sham":0,"Color":"yellow","trial_type":"pit-trial","trial_index":181,"time_elapsed":746589,"internal_node_id":"0.0-170.0","task_version":"test-retest-t2"},{"Rune":"rune_06_berkanan","Hex":"#ffcc3399","Correct":-1,"Choice":-1,"RT":-1,"Accuracy":1,"Outcome":"+10","Keys":[],"TotalKeys":0,"Block":2,"Trial":164,"Robot":2,"Valence":"Win","Action":"No-Go","Sham":0,"Color":"yellow","trial_type":"pit-trial","trial_index":182,"time_elapsed":750599,"internal_node_id":"0.0-171.0","task_version":"test-retest-t2"},{"Rune":"rune_06_ehwaz","Hex":"#3366ff99","Correct":32,"Choice":32,"RT":496.9499995931983,"Accuracy":1,"Outcome":"-1","Keys":[1997.1949998289347],"TotalKeys":1,"Block":2,"Trial":165,"Robot":3,"Valence":"Lose","Action":"Go","Sham":0,"Color":"blue","trial_type":"pit-trial","trial_index":183,"time_elapsed":753603,"internal_node_id":"0.0-172.0","task_version":"test-retest-t2"},{"Rune":"rune_06_ansuz","Hex":"#3366ff99","Correct":-1,"Choice":-1,"RT":-1,"Accuracy":1,"Outcome":"-1","Keys":[],"TotalKeys":0,"Block":2,"Trial":166,"Robot":4,"Valence":"Lose","Action":"No-Go","Sham":0,"Color":"blue","trial_type":"pit-trial","trial_index":184,"time_elapsed":757611,"internal_node_id":"0.0-173.0","task_version":"test-retest-t2"},{"Rune":"rune_06_berkanan","Hex":"#ffcc3399","Correct":-1,"Choice":32,"RT":709.1749999672174,"Accuracy":0,"Outcome":"+1","Keys":[2210.084999911487],"TotalKeys":1,"Block":2,"Trial":167,"Robot":2,"Valence":"Win","Action":"No-Go","Sham":0,"Color":"yellow","trial_type":"pit-trial","trial_index":185,"time_elapsed":760826,"internal_node_id":"0.0-174.0","task_version":"test-retest-t2"},{"Rune":"rune_06_cweord","Hex":"#ffcc3399","Correct":32,"Choice":32,"RT":295.12500017881393,"Accuracy":1,"Outcome":"+10","Keys":[1795.3199995681643],"TotalKeys":1,"Block":2,"Trial":168,"Robot":1,"Valence":"Win","Action":"Go","Sham":0,"Color":"yellow","trial_type":"pit-trial","trial_index":186,"time_elapsed":763627,"internal_node_id":"0.0-175.0","task_version":"test-retest-t2"},{"Rune":"rune_06_ansuz","Hex":"#3366ff99","Correct":-1,"Choice":-1,"RT":-1,"Accuracy":1,"Outcome":"-1","Keys":[],"TotalKeys":0,"Block":2,"Trial":169,"Robot":4,"Valence":"Lose","Action":"No-Go","Sham":0,"Color":"blue","trial_type":"pit-trial","trial_index":187,"time_elapsed":767632,"internal_node_id":"0.0-176.0","task_version":"test-retest-t2"},{"Rune":"rune_06_cweord","Hex":"#ffcc3399","Correct":32,"Choice":32,"RT":469.27500050514936,"Accuracy":1,"Outcome":"+1","Keys":[1969.3499999120831],"TotalKeys":1,"Block":2,"Trial":170,"Robot":1,"Valence":"Win","Action":"Go","Sham":1,"Color":"yellow","trial_type":"pit-trial","trial_index":188,"time_elapsed":770606,"internal_node_id":"0.0-177.0","task_version":"test-retest-t2"},{"Rune":"rune_06_berkanan","Hex":"#ffcc3399","Correct":-1,"Choice":-1,"RT":-1,"Accuracy":1,"Outcome":"+1","Keys":[],"TotalKeys":0,"Block":2,"Trial":171,"Robot":2,"Valence":"Win","Action":"No-Go","Sham":1,"Color":"yellow","trial_type":"pit-trial","trial_index":189,"time_elapsed":774618,"internal_node_id":"0.0-178.0","task_version":"test-retest-t2"},{"Rune":"rune_06_ehwaz","Hex":"#3366ff99","Correct":32,"Choice":32,"RT":639.5649993792176,"Accuracy":1,"Outcome":"-1","Keys":[2139.8249994963408],"TotalKeys":1,"Block":2,"Trial":172,"Robot":3,"Valence":"Lose","Action":"Go","Sham":0,"Color":"blue","trial_type":"pit-trial","trial_index":190,"time_elapsed":777762,"internal_node_id":"0.0-179.0","task_version":"test-retest-t2"},{"Rune":"rune_06_cweord","Hex":"#ffcc3399","Correct":32,"Choice":32,"RT":517.4350002780557,"Accuracy":1,"Outcome":"+10","Keys":[2019.4950001314282],"TotalKeys":1,"Block":2,"Trial":173,"Robot":1,"Valence":"Win","Action":"Go","Sham":0,"Color":"yellow","trial_type":"pit-trial","trial_index":191,"time_elapsed":780788,"internal_node_id":"0.0-180.0","task_version":"test-retest-t2"},{"Rune":"rune_06_ansuz","Hex":"#3366ff99","Correct":-1,"Choice":-1,"RT":-1,"Accuracy":1,"Outcome":"-10","Keys":[],"TotalKeys":0,"Block":2,"Trial":174,"Robot":4,"Valence":"Lose","Action":"No-Go","Sham":1,"Color":"blue","trial_type":"pit-trial","trial_index":192,"time_elapsed":784798,"internal_node_id":"0.0-181.0","task_version":"test-retest-t2"},{"Rune":"rune_06_ehwaz","Hex":"#3366ff99","Correct":32,"Choice":32,"RT":384.46000032126904,"Accuracy":1,"Outcome":"-1","Keys":[1886.734999716282],"TotalKeys":1,"Block":2,"Trial":175,"Robot":3,"Valence":"Lose","Action":"Go","Sham":0,"Color":"blue","trial_type":"pit-trial","trial_index":193,"time_elapsed":787692,"internal_node_id":"0.0-182.0","task_version":"test-retest-t2"},{"Rune":"rune_06_berkanan","Hex":"#ffcc3399","Correct":-1,"Choice":-1,"RT":-1,"Accuracy":1,"Outcome":"+10","Keys":[],"TotalKeys":0,"Block":2,"Trial":176,"Robot":2,"Valence":"Win","Action":"No-Go","Sham":0,"Color":"yellow","trial_type":"pit-trial","trial_index":194,"time_elapsed":791696,"internal_node_id":"0.0-183.0","task_version":"test-retest-t2"},{"Rune":"rune_06_ansuz","Hex":"#3366ff99","Correct":-1,"Choice":-1,"RT":-1,"Accuracy":1,"Outcome":"-1","Keys":[],"TotalKeys":0,"Block":2,"Trial":177,"Robot":4,"Valence":"Lose","Action":"No-Go","Sham":0,"Color":"blue","trial_type":"pit-trial","trial_index":195,"time_elapsed":795704,"internal_node_id":"0.0-184.0","task_version":"test-retest-t2"},{"Rune":"rune_06_berkanan","Hex":"#ffcc3399","Correct":-1,"Choice":-1,"RT":-1,"Accuracy":1,"Outcome":"+10","Keys":[],"TotalKeys":0,"Block":2,"Trial":178,"Robot":2,"Valence":"Win","Action":"No-Go","Sham":0,"Color":"yellow","trial_type":"pit-trial","trial_index":196,"time_elapsed":799710,"internal_node_id":"0.0-185.0","task_version":"test-retest-t2"},{"Rune":"rune_06_ehwaz","Hex":"#3366ff99","Correct":32,"Choice":32,"RT":1206.5949998795986,"Accuracy":1,"Outcome":"-10","Keys":[2706.9399999454618],"TotalKeys":1,"Block":2,"Trial":179,"Robot":3,"Valence":"Lose","Action":"Go","Sham":1,"Color":"blue","trial_type":"pit-trial","trial_index":197,"time_elapsed":803422,"internal_node_id":"0.0-186.0","task_version":"test-retest-t2"},{"Rune":"rune_06_cweord","Hex":"#ffcc3399","Correct":32,"Choice":32,"RT":515.1100000366569,"Accuracy":1,"Outcome":"+10","Keys":[2017.1599993482232],"TotalKeys":1,"Block":2,"Trial":180,"Robot":1,"Valence":"Win","Action":"Go","Sham":0,"Color":"yellow","trial_type":"pit-trial","trial_index":198,"time_elapsed":806443,"internal_node_id":"0.0-187.0","task_version":"test-retest-t2"},{"view_history":"[{\"page_index\":0,\"viewing_time\":1418.2049995288253},{\"page_index\":1,\"viewing_time\":762.0400004088879}]","rt":2180.774999782443,"trial_type":"pit-instructions","trial_index":199,"time_elapsed":808625,"internal_node_id":"0.0-188.0","task_version":"test-retest-t2"},{"Rune":"rune_06_berkanan","Hex":"#ffcc3399","Correct":-1,"Choice":-1,"RT":-1,"Accuracy":1,"Outcome":"+10","Keys":[],"TotalKeys":0,"Block":2,"Trial":181,"Robot":2,"Valence":"Win","Action":"No-Go","Sham":0,"Color":"yellow","trial_type":"pit-trial","trial_index":200,"time_elapsed":812632,"internal_node_id":"0.0-189.0","task_version":"test-retest-t2"},{"Rune":"rune_06_ansuz","Hex":"#3366ff99","Correct":-1,"Choice":-1,"RT":-1,"Accuracy":1,"Outcome":"-10","Keys":[],"TotalKeys":0,"Block":2,"Trial":182,"Robot":4,"Valence":"Lose","Action":"No-Go","Sham":1,"Color":"blue","trial_type":"pit-trial","trial_index":201,"time_elapsed":816644,"internal_node_id":"0.0-190.0","task_version":"test-retest-t2"},{"Rune":"rune_06_ehwaz","Hex":"#3366ff99","Correct":32,"Choice":32,"RT":509.34999994933605,"Accuracy":1,"Outcome":"-1","Keys":[2009.6399998292327],"TotalKeys":1,"Block":2,"Trial":183,"Robot":3,"Valence":"Lose","Action":"Go","Sham":0,"Color":"blue","trial_type":"pit-trial","trial_index":202,"time_elapsed":819657,"internal_node_id":"0.0-191.0","task_version":"test-retest-t2"},{"Rune":"rune_06_cweord","Hex":"#ffcc3399","Correct":32,"Choice":32,"RT":367.3449996858835,"Accuracy":1,"Outcome":"+10","Keys":[1867.5600001588464],"TotalKeys":1,"Block":2,"Trial":184,"Robot":1,"Valence":"Win","Action":"Go","Sham":0,"Color":"yellow","trial_type":"pit-trial","trial_index":203,"time_elapsed":822530,"internal_node_id":"0.0-192.0","task_version":"test-retest-t2"},{"Rune":"rune_06_cweord","Hex":"#ffcc3399","Correct":32,"Choice":32,"RT":380.9299999848008,"Accuracy":1,"Outcome":"+10","Keys":[1882.3000006377697],"TotalKeys":1,"Block":2,"Trial":185,"Robot":1,"Valence":"Win","Action":"Go","Sham":0,"Color":"yellow","trial_type":"pit-trial","trial_index":204,"time_elapsed":825418,"internal_node_id":"0.0-193.0","task_version":"test-retest-t2"},{"Rune":"rune_06_ansuz","Hex":"#3366ff99","Correct":-1,"Choice":-1,"RT":-1,"Accuracy":1,"Outcome":"-1","Keys":[],"TotalKeys":0,"Block":2,"Trial":186,"Robot":4,"Valence":"Lose","Action":"No-Go","Sham":0,"Color":"blue","trial_type":"pit-trial","trial_index":205,"time_elapsed":829429,"internal_node_id":"0.0-194.0","task_version":"test-retest-t2"},{"Rune":"rune_06_berkanan","Hex":"#ffcc3399","Correct":-1,"Choice":-1,"RT":-1,"Accuracy":1,"Outcome":"+1","Keys":[],"TotalKeys":0,"Block":2,"Trial":187,"Robot":2,"Valence":"Win","Action":"No-Go","Sham":1,"Color":"yellow","trial_type":"pit-trial","trial_index":206,"time_elapsed":833437,"internal_node_id":"0.0-195.0","task_version":"test-retest-t2"},{"Rune":"rune_06_ehwaz","Hex":"#3366ff99","Correct":32,"Choice":32,"RT":693.2850005105138,"Accuracy":1,"Outcome":"-1","Keys":[2195.1449997723103],"TotalKeys":1,"Block":2,"Trial":188,"Robot":3,"Valence":"Lose","Action":"Go","Sham":0,"Color":"blue","trial_type":"pit-trial","trial_index":207,"time_elapsed":836638,"internal_node_id":"0.0-196.0","task_version":"test-retest-t2"},{"Rune":"rune_06_ehwaz","Hex":"#3366ff99","Correct":32,"Choice":32,"RT":420.08000053465366,"Accuracy":1,"Outcome":"-10","Keys":[1921.9100000336766],"TotalKeys":1,"Block":2,"Trial":189,"Robot":3,"Valence":"Lose","Action":"Go","Sham":1,"Color":"blue","trial_type":"pit-trial","trial_index":208,"time_elapsed":839565,"internal_node_id":"0.0-197.0","task_version":"test-retest-t2"},{"Rune":"rune_06_berkanan","Hex":"#ffcc3399","Correct":-1,"Choice":-1,"RT":-1,"Accuracy":1,"Outcome":"+10","Keys":[],"TotalKeys":0,"Block":2,"Trial":190,"Robot":2,"Valence":"Win","Action":"No-Go","Sham":0,"Color":"yellow","trial_type":"pit-trial","trial_index":209,"time_elapsed":843575,"internal_node_id":"0.0-198.0","task_version":"test-retest-t2"},{"Rune":"rune_06_ansuz","Hex":"#3366ff99","Correct":-1,"Choice":-1,"RT":-1,"Accuracy":1,"Outcome":"-1","Keys":[],"TotalKeys":0,"Block":2,"Trial":191,"Robot":4,"Valence":"Lose","Action":"No-Go","Sham":0,"Color":"blue","trial_type":"pit-trial","trial_index":210,"time_elapsed":847581,"internal_node_id":"0.0-199.0","task_version":"test-retest-t2"},{"Rune":"rune_06_cweord","Hex":"#ffcc3399","Correct":32,"Choice":32,"RT":604.2599994689226,"Accuracy":1,"Outcome":"+10","Keys":[2104.674999602139],"TotalKeys":1,"Block":2,"Trial":192,"Robot":1,"Valence":"Win","Action":"Go","Sham":0,"Color":"yellow","trial_type":"pit-trial","trial_index":211,"time_elapsed":850690,"internal_node_id":"0.0-200.0","task_version":"test-retest-t2"},{"Rune":"rune_06_ansuz","Hex":"#3366ff99","Correct":-1,"Choice":-1,"RT":-1,"Accuracy":1,"Outcome":"-1","Keys":[],"TotalKeys":0,"Block":2,"Trial":193,"Robot":4,"Valence":"Lose","Action":"No-Go","Sham":0,"Color":"blue","trial_type":"pit-trial","trial_index":212,"time_elapsed":854695,"internal_node_id":"0.0-201.0","task_version":"test-retest-t2"},{"Rune":"rune_06_cweord","Hex":"#ffcc3399","Correct":32,"Choice":32,"RT":457.7899994328618,"Accuracy":1,"Outcome":"+1","Keys":[1957.8249994665384],"TotalKeys":1,"Block":2,"Trial":194,"Robot":1,"Valence":"Win","Action":"Go","Sham":1,"Color":"yellow","trial_type":"pit-trial","trial_index":213,"time_elapsed":857660,"internal_node_id":"0.0-202.0","task_version":"test-retest-t2"},{"Rune":"rune_06_berkanan","Hex":"#ffcc3399","Correct":-1,"Choice":-1,"RT":-1,"Accuracy":1,"Outcome":"+10","Keys":[],"TotalKeys":0,"Block":2,"Trial":195,"Robot":2,"Valence":"Win","Action":"No-Go","Sham":0,"Color":"yellow","trial_type":"pit-trial","trial_index":214,"time_elapsed":861670,"internal_node_id":"0.0-203.0","task_version":"test-retest-t2"},{"Rune":"rune_06_ehwaz","Hex":"#3366ff99","Correct":32,"Choice":-1,"RT":-1,"Accuracy":0,"Outcome":"-10","Keys":[],"TotalKeys":0,"Block":2,"Trial":196,"Robot":3,"Valence":"Lose","Action":"Go","Sham":0,"Color":"blue","trial_type":"pit-trial","trial_index":215,"time_elapsed":865681,"internal_node_id":"0.0-204.0","task_version":"test-retest-t2"},{"Rune":"rune_06_cweord","Hex":"#ffcc3399","Correct":32,"Choice":32,"RT":513.6150000616908,"Accuracy":1,"Outcome":"+10","Keys":[2013.9549998566508],"TotalKeys":1,"Block":2,"Trial":197,"Robot":1,"Valence":"Win","Action":"Go","Sham":0,"Color":"yellow","trial_type":"pit-trial","trial_index":216,"time_elapsed":868701,"internal_node_id":"0.0-205.0","task_version":"test-retest-t2"},{"Rune":"rune_06_berkanan","Hex":"#ffcc3399","Correct":-1,"Choice":-1,"RT":-1,"Accuracy":1,"Outcome":"+10","Keys":[],"TotalKeys":0,"Block":2,"Trial":198,"Robot":2,"Valence":"Win","Action":"No-Go","Sham":0,"Color":"yellow","trial_type":"pit-trial","trial_index":217,"time_elapsed":872711,"internal_node_id":"0.0-206.0","task_version":"test-retest-t2"},{"Rune":"rune_06_ansuz","Hex":"#3366ff99","Correct":-1,"Choice":-1,"RT":-1,"Accuracy":1,"Outcome":"-1","Keys":[],"TotalKeys":0,"Block":2,"Trial":199,"Robot":4,"Valence":"Lose","Action":"No-Go","Sham":0,"Color":"blue","trial_type":"pit-trial","trial_index":218,"time_elapsed":876720,"internal_node_id":"0.0-207.0","task_version":"test-retest-t2"},{"Rune":"rune_06_ehwaz","Hex":"#3366ff99","Correct":32,"Choice":32,"RT":654.4249998405576,"Accuracy":1,"Outcome":"-1","Keys":[2155.2799995988607],"TotalKeys":1,"Block":2,"Trial":200,"Robot":3,"Valence":"Lose","Action":"Go","Sham":0,"Color":"blue","trial_type":"pit-trial","trial_index":219,"time_elapsed":879877,"internal_node_id":"0.0-208.0","task_version":"test-retest-t2"},{"Rune":"rune_06_ansuz","Hex":"#3366ff99","Correct":-1,"Choice":-1,"RT":-1,"Accuracy":1,"Outcome":"-1","Keys":[],"TotalKeys":0,"Block":2,"Trial":201,"Robot":4,"Valence":"Lose","Action":"No-Go","Sham":0,"Color":"blue","trial_type":"pit-trial","trial_index":220,"time_elapsed":883886,"internal_node_id":"0.0-209.0","task_version":"test-retest-t2"},{"Rune":"rune_06_cweord","Hex":"#ffcc3399","Correct":32,"Choice":32,"RT":444.94500011205673,"Accuracy":1,"Outcome":"+10","Keys":[1946.4299995452166],"TotalKeys":1,"Block":2,"Trial":202,"Robot":1,"Valence":"Win","Action":"Go","Sham":0,"Color":"yellow","trial_type":"pit-trial","trial_index":221,"time_elapsed":886839,"internal_node_id":"0.0-210.0","task_version":"test-retest-t2"},{"Rune":"rune_06_berkanan","Hex":"#ffcc3399","Correct":-1,"Choice":-1,"RT":-1,"Accuracy":1,"Outcome":"+10","Keys":[],"TotalKeys":0,"Block":2,"Trial":203,"Robot":2,"Valence":"Win","Action":"No-Go","Sham":0,"Color":"yellow","trial_type":"pit-trial","trial_index":222,"time_elapsed":890847,"internal_node_id":"0.0-211.0","task_version":"test-retest-t2"},{"Rune":"rune_06_ehwaz","Hex":"#3366ff99","Correct":32,"Choice":32,"RT":585.1400000974536,"Accuracy":1,"Outcome":"-1","Keys":[2085.3350004181266],"TotalKeys":1,"Block":2,"Trial":204,"Robot":3,"Valence":"Lose","Action":"Go","Sham":0,"Color":"blue","trial_type":"pit-trial","trial_index":223,"time_elapsed":893936,"internal_node_id":"0.0-212.0","task_version":"test-retest-t2"},{"Rune":"rune_06_ehwaz","Hex":"#3366ff99","Correct":32,"Choice":32,"RT":519.144999794662,"Accuracy":1,"Outcome":"-10","Keys":[2019.4600000977516],"TotalKeys":1,"Block":2,"Trial":205,"Robot":3,"Valence":"Lose","Action":"Go","Sham":1,"Color":"blue","trial_type":"pit-trial","trial_index":224,"time_elapsed":896959,"internal_node_id":"0.0-213.0","task_version":"test-retest-t2"},{"Rune":"rune_06_ansuz","Hex":"#3366ff99","Correct":-1,"Choice":-1,"RT":-1,"Accuracy":1,"Outcome":"-1","Keys":[],"TotalKeys":0,"Block":2,"Trial":206,"Robot":4,"Valence":"Lose","Action":"No-Go","Sham":0,"Color":"blue","trial_type":"pit-trial","trial_index":225,"time_elapsed":900969,"internal_node_id":"0.0-214.0","task_version":"test-retest-t2"},{"Rune":"rune_06_berkanan","Hex":"#ffcc3399","Correct":-1,"Choice":-1,"RT":-1,"Accuracy":1,"Outcome":"+10","Keys":[],"TotalKeys":0,"Block":2,"Trial":207,"Robot":2,"Valence":"Win","Action":"No-Go","Sham":0,"Color":"yellow","trial_type":"pit-trial","trial_index":226,"time_elapsed":904980,"internal_node_id":"0.0-215.0","task_version":"test-retest-t2"},{"Rune":"rune_06_cweord","Hex":"#ffcc3399","Correct":32,"Choice":32,"RT":445.4299993813038,"Accuracy":1,"Outcome":"+10","Keys":[1948.6699998378754],"TotalKeys":1,"Block":2,"Trial":208,"Robot":1,"Valence":"Win","Action":"Go","Sham":0,"Color":"yellow","trial_type":"pit-trial","trial_index":227,"time_elapsed":907936,"internal_node_id":"0.0-216.0","task_version":"test-retest-t2"},{"Rune":"rune_06_berkanan","Hex":"#ffcc3399","Correct":-1,"Choice":-1,"RT":-1,"Accuracy":1,"Outcome":"+1","Keys":[],"TotalKeys":0,"Block":2,"Trial":209,"Robot":2,"Valence":"Win","Action":"No-Go","Sham":1,"Color":"yellow","trial_type":"pit-trial","trial_index":228,"time_elapsed":911944,"internal_node_id":"0.0-217.0","task_version":"test-retest-t2"},{"Rune":"rune_06_ansuz","Hex":"#3366ff99","Correct":-1,"Choice":-1,"RT":-1,"Accuracy":1,"Outcome":"-1","Keys":[],"TotalKeys":0,"Block":2,"Trial":210,"Robot":4,"Valence":"Lose","Action":"No-Go","Sham":0,"Color":"blue","trial_type":"pit-trial","trial_index":229,"time_elapsed":915955,"internal_node_id":"0.0-218.0","task_version":"test-retest-t2"},{"Rune":"rune_06_cweord","Hex":"#ffcc3399","Correct":32,"Choice":32,"RT":502.39000003784895,"Accuracy":1,"Outcome":"+10","Keys":[2002.6899995282292],"TotalKeys":1,"Block":2,"Trial":211,"Robot":1,"Valence":"Win","Action":"Go","Sham":0,"Color":"yellow","trial_type":"pit-trial","trial_index":230,"time_elapsed":918962,"internal_node_id":"0.0-219.0","task_version":"test-retest-t2"},{"Rune":"rune_06_ehwaz","Hex":"#3366ff99","Correct":32,"Choice":-1,"RT":-1,"Accuracy":0,"Outcome":"-10","Keys":[],"TotalKeys":0,"Block":2,"Trial":212,"Robot":3,"Valence":"Lose","Action":"Go","Sham":0,"Color":"blue","trial_type":"pit-trial","trial_index":231,"time_elapsed":922972,"internal_node_id":"0.0-220.0","task_version":"test-retest-t2"},{"Rune":"rune_06_ehwaz","Hex":"#3366ff99","Correct":32,"Choice":32,"RT":520.0050007551908,"Accuracy":1,"Outcome":"-1","Keys":[2021.3599996641278],"TotalKeys":1,"Block":2,"Trial":213,"Robot":3,"Valence":"Lose","Action":"Go","Sham":0,"Color":"blue","trial_type":"pit-trial","trial_index":232,"time_elapsed":925999,"internal_node_id":"0.0-221.0","task_version":"test-retest-t2"},{"Rune":"rune_06_berkanan","Hex":"#ffcc3399","Correct":-1,"Choice":-1,"RT":-1,"Accuracy":1,"Outcome":"+10","Keys":[],"TotalKeys":0,"Block":2,"Trial":214,"Robot":2,"Valence":"Win","Action":"No-Go","Sham":0,"Color":"yellow","trial_type":"pit-trial","trial_index":233,"time_elapsed":930005,"internal_node_id":"0.0-222.0","task_version":"test-retest-t2"},{"Rune":"rune_06_cweord","Hex":"#ffcc3399","Correct":32,"Choice":32,"RT":560.8399994671345,"Accuracy":1,"Outcome":"+10","Keys":[2061.084999702871],"TotalKeys":1,"Block":2,"Trial":215,"Robot":1,"Valence":"Win","Action":"Go","Sham":0,"Color":"yellow","trial_type":"pit-trial","trial_index":234,"time_elapsed":933071,"internal_node_id":"0.0-223.0","task_version":"test-retest-t2"},{"Rune":"rune_06_ansuz","Hex":"#3366ff99","Correct":-1,"Choice":-1,"RT":-1,"Accuracy":1,"Outcome":"-10","Keys":[],"TotalKeys":0,"Block":2,"Trial":216,"Robot":4,"Valence":"Lose","Action":"No-Go","Sham":1,"Color":"blue","trial_type":"pit-trial","trial_index":235,"time_elapsed":937082,"internal_node_id":"0.0-224.0","task_version":"test-retest-t2"},{"Rune":"rune_06_ehwaz","Hex":"#3366ff99","Correct":32,"Choice":32,"RT":523.5999999567866,"Accuracy":1,"Outcome":"-1","Keys":[2027.6049999520183],"TotalKeys":1,"Block":2,"Trial":217,"Robot":3,"Valence":"Lose","Action":"Go","Sham":0,"Color":"blue","trial_type":"pit-trial","trial_index":236,"time_elapsed":940114,"internal_node_id":"0.0-225.0","task_version":"test-retest-t2"},{"Rune":"rune_06_ansuz","Hex":"#3366ff99","Correct":-1,"Choice":-1,"RT":-1,"Accuracy":1,"Outcome":"-1","Keys":[],"TotalKeys":0,"Block":2,"Trial":218,"Robot":4,"Valence":"Lose","Action":"No-Go","Sham":0,"Color":"blue","trial_type":"pit-trial","trial_index":237,"time_elapsed":944122,"internal_node_id":"0.0-226.0","task_version":"test-retest-t2"},{"Rune":"rune_06_berkanan","Hex":"#ffcc3399","Correct":-1,"Choice":-1,"RT":-1,"Accuracy":1,"Outcome":"+10","Keys":[],"TotalKeys":0,"Block":2,"Trial":219,"Robot":2,"Valence":"Win","Action":"No-Go","Sham":0,"Color":"yellow","trial_type":"pit-trial","trial_index":238,"time_elapsed":948131,"internal_node_id":"0.0-227.0","task_version":"test-retest-t2"},{"Rune":"rune_06_cweord","Hex":"#ffcc3399","Correct":32,"Choice":32,"RT":399.4599999859929,"Accuracy":1,"Outcome":"+1","Keys":[1900.4350006580353],"TotalKeys":1,"Block":2,"Trial":220,"Robot":1,"Valence":"Win","Action":"Go","Sham":1,"Color":"yellow","trial_type":"pit-trial","trial_index":239,"time_elapsed":951034,"internal_node_id":"0.0-228.0","task_version":"test-retest-t2"},{"Rune":"rune_06_cweord","Hex":"#ffcc3399","Correct":32,"Choice":32,"RT":342.960000038147,"Accuracy":1,"Outcome":"+10","Keys":[1844.8049994185567],"TotalKeys":1,"Block":2,"Trial":221,"Robot":1,"Valence":"Win","Action":"Go","Sham":0,"Color":"yellow","trial_type":"pit-trial","trial_index":240,"time_elapsed":953884,"internal_node_id":"0.0-229.0","task_version":"test-retest-t2"},{"Rune":"rune_06_ansuz","Hex":"#3366ff99","Correct":-1,"Choice":-1,"RT":-1,"Accuracy":1,"Outcome":"-10","Keys":[],"TotalKeys":0,"Block":2,"Trial":222,"Robot":4,"Valence":"Lose","Action":"No-Go","Sham":1,"Color":"blue","trial_type":"pit-trial","trial_index":241,"time_elapsed":957893,"internal_node_id":"0.0-230.0","task_version":"test-retest-t2"},{"Rune":"rune_06_berkanan","Hex":"#ffcc3399","Correct":-1,"Choice":32,"RT":308.7749993428588,"Accuracy":0,"Outcome":"+1","Keys":[1809.4499995931983],"TotalKeys":1,"Block":2,"Trial":223,"Robot":2,"Valence":"Win","Action":"No-Go","Sham":0,"Color":"yellow","trial_type":"pit-trial","trial_index":242,"time_elapsed":960706,"internal_node_id":"0.0-231.0","task_version":"test-retest-t2"},{"Rune":"rune_06_ehwaz","Hex":"#3366ff99","Correct":32,"Choice":32,"RT":600.1400006935,"Accuracy":1,"Outcome":"-1","Keys":[2100.7199995219707],"TotalKeys":1,"Block":2,"Trial":224,"Robot":3,"Valence":"Lose","Action":"Go","Sham":0,"Color":"blue","trial_type":"pit-trial","trial_index":243,"time_elapsed":963813,"internal_node_id":"0.0-232.0","task_version":"test-retest-t2"},{"Rune":"rune_06_ehwaz","Hex":"#3366ff99","Correct":32,"Choice":32,"RT":515.7449999824166,"Accuracy":1,"Outcome":"-1","Keys":[2017.2149995341897],"TotalKeys":1,"Block":2,"Trial":225,"Robot":3,"Valence":"Lose","Action":"Go","Sham":0,"Color":"blue","trial_type":"pit-trial","trial_index":244,"time_elapsed":966835,"internal_node_id":"0.0-233.0","task_version":"test-retest-t2"},{"Rune":"rune_06_ansuz","Hex":"#3366ff99","Correct":-1,"Choice":-1,"RT":-1,"Accuracy":1,"Outcome":"-1","Keys":[],"TotalKeys":0,"Block":2,"Trial":226,"Robot":4,"Valence":"Lose","Action":"No-Go","Sham":0,"Color":"blue","trial_type":"pit-trial","trial_index":245,"time_elapsed":970842,"internal_node_id":"0.0-234.0","task_version":"test-retest-t2"},{"Rune":"rune_06_berkanan","Hex":"#ffcc3399","Correct":-1,"Choice":-1,"RT":-1,"Accuracy":1,"Outcome":"+10","Keys":[],"TotalKeys":0,"Block":2,"Trial":227,"Robot":2,"Valence":"Win","Action":"No-Go","Sham":0,"Color":"yellow","trial_type":"pit-trial","trial_index":246,"time_elapsed":974850,"internal_node_id":"0.0-235.0","task_version":"test-retest-t2"},{"Rune":"rune_06_cweord","Hex":"#ffcc3399","Correct":32,"Choice":32,"RT":400.9349998086691,"Accuracy":1,"Outcome":"+10","Keys":[1901.2449998408556],"TotalKeys":1,"Block":2,"Trial":228,"Robot":1,"Valence":"Win","Action":"Go","Sham":0,"Color":"yellow","trial_type":"pit-trial","trial_index":247,"time_elapsed":977756,"internal_node_id":"0.0-236.0","task_version":"test-retest-t2"},{"Rune":"rune_06_berkanan","Hex":"#ffcc3399","Correct":-1,"Choice":-1,"RT":-1,"Accuracy":1,"Outcome":"+10","Keys":[],"TotalKeys":0,"Block":2,"Trial":229,"Robot":2,"Valence":"Win","Action":"No-Go","Sham":0,"Color":"yellow","trial_type":"pit-trial","trial_index":248,"time_elapsed":981767,"internal_node_id":"0.0-237.0","task_version":"test-retest-t2"},{"Rune":"rune_06_cweord","Hex":"#ffcc3399","Correct":32,"Choice":32,"RT":441.0800002515316,"Accuracy":1,"Outcome":"+1","Keys":[1942.4400003626943],"TotalKeys":1,"Block":2,"Trial":230,"Robot":1,"Valence":"Win","Action":"Go","Sham":1,"Color":"yellow","trial_type":"pit-trial","trial_index":249,"time_elapsed":984716,"internal_node_id":"0.0-238.0","task_version":"test-retest-t2"},{"Rune":"rune_06_ehwaz","Hex":"#3366ff99","Correct":32,"Choice":32,"RT":484.1999998316169,"Accuracy":1,"Outcome":"-10","Keys":[1985.5850003659725],"TotalKeys":1,"Block":2,"Trial":231,"Robot":3,"Valence":"Lose","Action":"Go","Sham":1,"Color":"blue","trial_type":"pit-trial","trial_index":250,"time_elapsed":987704,"internal_node_id":"0.0-239.0","task_version":"test-retest-t2"},{"Rune":"rune_06_ansuz","Hex":"#3366ff99","Correct":-1,"Choice":-1,"RT":-1,"Accuracy":1,"Outcome":"-1","Keys":[],"TotalKeys":0,"Block":2,"Trial":232,"Robot":4,"Valence":"Lose","Action":"No-Go","Sham":0,"Color":"blue","trial_type":"pit-trial","trial_index":251,"time_elapsed":991706,"internal_node_id":"0.0-240.0","task_version":"test-retest-t2"},{"Rune":"rune_06_cweord","Hex":"#ffcc3399","Correct":32,"Choice":32,"RT":379.71500027924776,"Accuracy":1,"Outcome":"+10","Keys":[1882.7050002291799],"TotalKeys":1,"Block":2,"Trial":233,"Robot":1,"Valence":"Win","Action":"Go","Sham":0,"Color":"yellow","trial_type":"pit-trial","trial_index":252,"time_elapsed":994596,"internal_node_id":"0.0-241.0","task_version":"test-retest-t2"},{"Rune":"rune_06_berkanan","Hex":"#ffcc3399","Correct":-1,"Choice":-1,"RT":-1,"Accuracy":1,"Outcome":"+10","Keys":[],"TotalKeys":0,"Block":2,"Trial":234,"Robot":2,"Valence":"Win","Action":"No-Go","Sham":0,"Color":"yellow","trial_type":"pit-trial","trial_index":253,"time_elapsed":998607,"internal_node_id":"0.0-242.0","task_version":"test-retest-t2"},{"Rune":"rune_06_ansuz","Hex":"#3366ff99","Correct":-1,"Choice":-1,"RT":-1,"Accuracy":1,"Outcome":"-1","Keys":[],"TotalKeys":0,"Block":2,"Trial":235,"Robot":4,"Valence":"Lose","Action":"No-Go","Sham":0,"Color":"blue","trial_type":"pit-trial","trial_index":254,"time_elapsed":1002612,"internal_node_id":"0.0-243.0","task_version":"test-retest-t2"},{"Rune":"rune_06_ehwaz","Hex":"#3366ff99","Correct":32,"Choice":32,"RT":566.9600004330277,"Accuracy":1,"Outcome":"-1","Keys":[2067.534999921918],"TotalKeys":1,"Block":2,"Trial":236,"Robot":3,"Valence":"Lose","Action":"Go","Sham":0,"Color":"blue","trial_type":"pit-trial","trial_index":255,"time_elapsed":1005686,"internal_node_id":"0.0-244.0","task_version":"test-retest-t2"},{"Rune":"rune_06_cweord","Hex":"#ffcc3399","Correct":32,"Choice":32,"RT":428.2499998807907,"Accuracy":1,"Outcome":"+10","Keys":[1929.81499992311],"TotalKeys":1,"Block":2,"Trial":237,"Robot":1,"Valence":"Win","Action":"Go","Sham":0,"Color":"yellow","trial_type":"pit-trial","trial_index":256,"time_elapsed":1008624,"internal_node_id":"0.0-245.0","task_version":"test-retest-t2"},{"Rune":"rune_06_berkanan","Hex":"#ffcc3399","Correct":-1,"Choice":-1,"RT":-1,"Accuracy":1,"Outcome":"+1","Keys":[],"TotalKeys":0,"Block":2,"Trial":238,"Robot":2,"Valence":"Win","Action":"No-Go","Sham":1,"Color":"yellow","trial_type":"pit-trial","trial_index":257,"time_elapsed":1012632,"internal_node_id":"0.0-246.0","task_version":"test-retest-t2"},{"Rune":"rune_06_ehwaz","Hex":"#3366ff99","Correct":32,"Choice":32,"RT":670.7300003618002,"Accuracy":1,"Outcome":"-1","Keys":[2170.8599999547005],"TotalKeys":1,"Block":2,"Trial":239,"Robot":3,"Valence":"Lose","Action":"Go","Sham":0,"Color":"blue","trial_type":"pit-trial","trial_index":258,"time_elapsed":1015806,"internal_node_id":"0.0-247.0","task_version":"test-retest-t2"},{"Rune":"rune_06_ansuz","Hex":"#3366ff99","Correct":-1,"Choice":-1,"RT":-1,"Accuracy":1,"Outcome":"-1","Keys":[],"TotalKeys":0,"Block":2,"Trial":240,"Robot":4,"Valence":"Lose","Action":"No-Go","Sham":0,"Color":"blue","trial_type":"pit-trial","trial_index":259,"time_elapsed":1019815,"internal_node_id":"0.0-248.0","task_version":"test-retest-t2"},{"view_history":"[{\"page_index\":0,\"viewing_time\":1244.254999794066}]","rt":1244.7549998760223,"trial_type":"pit-instructions","trial_index":260,"time_elapsed":1021061,"internal_node_id":"0.0-249.0","task_version":"test-retest-t2"},{"rt":20646.26499917358,"responses":{"difficulty":"4","fun":"3","clarity":"4","strategy":"pay attention to the patterns","feedback":"none"},"survey":"debrief","trial_type":"survey-debrief","trial_index":261,"time_elapsed":1041710,"internal_node_id":"0.0-250.0","task_version":"test-retest-t2"},{"rt":3054.1650000959635,"stimulus":"You earned a bonus of $1.16 out of $1.5.<br><br>Press any key to complete the experiment.","key_press":32,"trial_type":"html-keyboard-response","trial_index":262,"time_elapsed":1044767,"internal_node_id":"0.0-251.0","task_version":"test-retest-t2","accuracy":0.7708333333333334,"bonus":1.16,"interactions":"[]"}]