[{"slider_type":"valence","raw_loc":574.1818187366832,"loc":0.6483636374733664,"trial_type":"affective-slider","trial_index":0,"time_elapsed":2932,"internal_node_id":"0.0-0.0","task_version":"test-retest-t2"},{"responses":{"Q02":"0","Q04":"0","Q08":"0","Q07":"0","Q01":"0","Q03":"0","Q05":"0","Q06":"1"},"rt":19587.76000002399,"survey":"gad7","trial_type":"survey-template","trial_index":1,"time_elapsed":22524,"internal_node_id":"0.0-1.0","task_version":"test-retest-t2"},{"view_history":"[{\"page_index\":0,\"viewing_time\":5032.004999986384},{\"page_index\":1,\"viewing_time\":1110.3100000182167},{\"page_index\":2,\"viewing_time\":999.965000024531},{\"page_index\":3,\"viewing_time\":3951.989999972284},{\"page_index\":4,\"viewing_time\":1588.1800000206567},{\"page_index\":5,\"viewing_time\":1572.504999989178}]","rt":14256.415000010747,"trial_type":"pit-instructions","trial_index":2,"time_elapsed":36788,"internal_node_id":"0.0-2.0-0.0","task_version":"test-retest-t2"},{"Rune":"rune_00_ingz","Hex":"#FFFFF080","Correct":32,"Choice":32,"RT":886.7249999893829,"Accuracy":1,"Outcome":"+10","Keys":[2387.2250000131316],"TotalKeys":1,"Block":0,"Action":"Go","trial_type":"pit-trial","trial_index":3,"time_elapsed":40182,"internal_node_id":"0.0-2.0-1.0-0.0","task_version":"test-retest-t2"},{"Rune":"rune_00_ingz","Hex":"#FFFFF080","Correct":32,"Choice":32,"RT":1086.5099999937229,"Accuracy":1,"Outcome":"+10","Keys":[2588.1850000005215],"TotalKeys":1,"Block":0,"Action":"Go","trial_type":"pit-trial","trial_index":4,"time_elapsed":43777,"internal_node_id":"0.0-2.0-1.0-0.1","task_version":"test-retest-t2"},{"Rune":"rune_00_ingz","Hex":"#FFFFF080","Correct":32,"Choice":32,"RT":1003.3650000113994,"Accuracy":1,"Outcome":"+10","Keys":[2503.595000016503],"TotalKeys":1,"Block":0,"Action":"Go","trial_type":"pit-trial","trial_index":5,"time_elapsed":47286,"internal_node_id":"0.0-2.0-1.0-0.2","task_version":"test-retest-t2"},{"Rune":"rune_00_ingz","Hex":"#FFFFF080","Correct":32,"Choice":32,"RT":1226.6250000102445,"Accuracy":1,"Outcome":"+10","Keys":[2727.5249999947846],"TotalKeys":1,"Block":0,"Action":"Go","trial_type":"pit-trial","trial_index":6,"time_elapsed":51020,"internal_node_id":"0.0-2.0-1.0-0.3","task_version":"test-retest-t2"},{"view_history":"[{\"page_index\":0,\"viewing_time\":4402.149999979883}]","rt":4402.609999990091,"trial_type":"pit-instructions","trial_index":7,"time_elapsed":55426,"internal_node_id":"0.0-2.0-2.0","task_version":"test-retest-t2"},{"Rune":"rune_00_isaz","Hex":"#FFFFF080","Correct":-1,"Choice":-1,"RT":-1,"Accuracy":1,"Outcome":"+10","Keys":[],"TotalKeys":0,"Block":0,"Action":"No-Go","trial_type":"pit-trial","trial_index":8,"time_elapsed":59430,"internal_node_id":"0.0-2.0-3.0-0.0","task_version":"test-retest-t2"},{"Rune":"rune_00_isaz","Hex":"#FFFFF080","Correct":-1,"Choice":-1,"RT":-1,"Accuracy":1,"Outcome":"+10","Keys":[],"TotalKeys":0,"Block":0,"Action":"No-Go","trial_type":"pit-trial","trial_index":9,"time_elapsed":63435,"internal_node_id":"0.0-2.0-3.0-0.1","task_version":"test-retest-t2"},{"Rune":"rune_00_isaz","Hex":"#FFFFF080","Correct":-1,"Choice":-1,"RT":-1,"Accuracy":1,"Outcome":"+10","Keys":[],"TotalKeys":0,"Block":0,"Action":"No-Go","trial_type":"pit-trial","trial_index":10,"time_elapsed":67439,"internal_node_id":"0.0-2.0-3.0-0.2","task_version":"test-retest-t2"},{"Rune":"rune_00_isaz","Hex":"#FFFFF080","Correct":-1,"Choice":-1,"RT":-1,"Accuracy":1,"Outcome":"+10","Keys":[],"TotalKeys":0,"Block":0,"Action":"No-Go","trial_type":"pit-trial","trial_index":11,"time_elapsed":71443,"internal_node_id":"0.0-2.0-3.0-0.3","task_version":"test-retest-t2"},{"view_history":"[{\"page_index\":0,\"viewing_time\":4607.519999961369},{\"page_index\":1,\"viewing_time\":15922.025000036228},{\"page_index\":2,\"viewing_time\":4427.809999964666},{\"page_index\":3,\"viewing_time\":2648.0800000135787},{\"page_index\":4,\"viewing_time\":2875.8900000248104},{\"page_index\":5,\"viewing_time\":1864.354999968782},{\"page_index\":6,\"viewing_time\":1175.2100000157952},{\"page_index\":7,\"viewing_time\":726.6749999835156}]","rt":34248.3099999954,"trial_type":"pit-instructions","trial_index":12,"time_elapsed":105695,"internal_node_id":"0.0-2.0-4.0","task_version":"test-retest-t2"},{"responses":["Do nothing","+10","-1","True","Yes"],"num_errors":0,"rt":23496.66000000434,"trial_type":"pit-comprehension","trial_index":13,"time_elapsed":129197,"internal_node_id":"0.0-2.0-5.0","task_version":"test-retest-t2"},{"trial_type":"call-function","trial_index":14,"time_elapsed":129199,"internal_node_id":"0.0-3.0","task_version":"test-retest-t2"},{"view_history":"[{\"page_index\":0,\"viewing_time\":1451.7200000118464},{\"page_index\":1,\"viewing_time\":1183.919999981299},{\"page_index\":2,\"viewing_time\":1723.984999989625}]","rt":4360.214999993332,"trial_type":"pit-instructions","trial_index":15,"time_elapsed":133561,"internal_node_id":"0.0-4.0","task_version":"test-retest-t2"},{"Rune":"rune_05_tiwaz","Hex":"#3366ff99","Correct":-1,"Choice":32,"RT":682.2350000147708,"Accuracy":0,"Outcome":"+1","Keys":[2183.390000020154],"TotalKeys":1,"Block":1,"Trial":1,"Robot":2,"Valence":"Win","Action":"No-Go","Sham":0,"Color":"blue","trial_type":"pit-trial","trial_index":16,"time_elapsed":136750,"internal_node_id":"0.0-5.0","task_version":"test-retest-t2"},{"Rune":"rune_05_gebo","Hex":"#3366ff99","Correct":32,"Choice":32,"RT":748.699999996461,"Accuracy":1,"Outcome":"+10","Keys":[2249.6050000190735],"TotalKeys":1,"Block":1,"Trial":2,"Robot":1,"Valence":"Win","Action":"Go","Sham":0,"Color":"blue","trial_type":"pit-trial","trial_index":17,"time_elapsed":140005,"internal_node_id":"0.0-6.0","task_version":"test-retest-t2"},{"Rune":"rune_05_jeran","Hex":"#ffcc3399","Correct":-1,"Choice":32,"RT":990.7900000107475,"Accuracy":0,"Outcome":"-10","Keys":[2491.5950000286102],"TotalKeys":1,"Block":1,"Trial":3,"Robot":4,"Valence":"Lose","Action":"No-Go","Sham":0,"Color":"yellow","trial_type":"pit-trial","trial_index":18,"time_elapsed":143501,"internal_node_id":"0.0-7.0","task_version":"test-retest-t2"},{"Rune":"rune_05_ior","Hex":"#ffcc3399","Correct":32,"Choice":-1,"RT":-1,"Accuracy":0,"Outcome":"-10","Keys":[],"TotalKeys":0,"Block":1,"Trial":4,"Robot":3,"Valence":"Lose","Action":"Go","Sham":0,"Color":"yellow","trial_type":"pit-trial","trial_index":19,"time_elapsed":147507,"internal_node_id":"0.0-8.0","task_version":"test-retest-t2"},{"Rune":"rune_05_ior","Hex":"#ffcc3399","Correct":32,"Choice":32,"RT":687.0499999495223,"Accuracy":1,"Outcome":"-1","Keys":[2187.709999969229],"TotalKeys":1,"Block":1,"Trial":5,"Robot":3,"Valence":"Lose","Action":"Go","Sham":0,"Color":"yellow","trial_type":"pit-trial","trial_index":20,"time_elapsed":150698,"internal_node_id":"0.0-9.0","task_version":"test-retest-t2"},{"Rune":"rune_05_gebo","Hex":"#3366ff99","Correct":32,"Choice":32,"RT":825.6149999797344,"Accuracy":1,"Outcome":"+10","Keys":[2326.744999969378],"TotalKeys":1,"Block":1,"Trial":6,"Robot":1,"Valence":"Win","Action":"Go","Sham":0,"Color":"blue","trial_type":"pit-trial","trial_index":21,"time_elapsed":154031,"internal_node_id":"0.0-10.0","task_version":"test-retest-t2"},{"Rune":"rune_05_tiwaz","Hex":"#3366ff99","Correct":-1,"Choice":-1,"RT":-1,"Accuracy":1,"Outcome":"+1","Keys":[],"TotalKeys":0,"Block":1,"Trial":7,"Robot":2,"Valence":"Win","Action":"No-Go","Sham":1,"Color":"blue","trial_type":"pit-trial","trial_index":22,"time_elapsed":158039,"internal_node_id":"0.0-11.0","task_version":"test-retest-t2"},{"Rune":"rune_05_jeran","Hex":"#ffcc3399","Correct":-1,"Choice":-1,"RT":-1,"Accuracy":1,"Outcome":"-10","Keys":[],"TotalKeys":0,"Block":1,"Trial":8,"Robot":4,"Valence":"Lose","Action":"No-Go","Sham":1,"Color":"yellow","trial_type":"pit-trial","trial_index":23,"time_elapsed":162046,"internal_node_id":"0.0-12.0","task_version":"test-retest-t2"},{"Rune":"rune_05_gebo","Hex":"#3366ff99","Correct":32,"Choice":32,"RT":951.2299999478273,"Accuracy":1,"Outcome":"+1","Keys":[2452.7300000190735],"TotalKeys":1,"Block":1,"Trial":9,"Robot":1,"Valence":"Win","Action":"Go","Sham":1,"Color":"blue","trial_type":"pit-trial","trial_index":24,"time_elapsed":165502,"internal_node_id":"0.0-13.0","task_version":"test-retest-t2"},{"Rune":"rune_05_jeran","Hex":"#ffcc3399","Correct":-1,"Choice":32,"RT":844.2449999856763,"Accuracy":0,"Outcome":"-10","Keys":[2345.335000019986],"TotalKeys":1,"Block":1,"Trial":10,"Robot":4,"Valence":"Lose","Action":"No-Go","Sham":0,"Color":"yellow","trial_type":"pit-trial","trial_index":25,"time_elapsed":168853,"internal_node_id":"0.0-14.0","task_version":"test-retest-t2"},{"Rune":"rune_05_ior","Hex":"#ffcc3399","Correct":32,"Choice":32,"RT":776.4050000114366,"Accuracy":1,"Outcome":"-1","Keys":[2276.435000007041],"TotalKeys":1,"Block":1,"Trial":11,"Robot":3,"Valence":"Lose","Action":"Go","Sham":0,"Color":"yellow","trial_type":"pit-trial","trial_index":26,"time_elapsed":172136,"internal_node_id":"0.0-15.0","task_version":"test-retest-t2"},{"Rune":"rune_05_tiwaz","Hex":"#3366ff99","Correct":-1,"Choice":-1,"RT":-1,"Accuracy":1,"Outcome":"+10","Keys":[],"TotalKeys":0,"Block":1,"Trial":12,"Robot":2,"Valence":"Win","Action":"No-Go","Sham":0,"Color":"blue","trial_type":"pit-trial","trial_index":27,"time_elapsed":176142,"internal_node_id":"0.0-16.0","task_version":"test-retest-t2"},{"Rune":"rune_05_tiwaz","Hex":"#3366ff99","Correct":-1,"Choice":-1,"RT":-1,"Accuracy":1,"Outcome":"+10","Keys":[],"TotalKeys":0,"Block":1,"Trial":13,"Robot":2,"Valence":"Win","Action":"No-Go","Sham":0,"Color":"blue","trial_type":"pit-trial","trial_index":28,"time_elapsed":180150,"internal_node_id":"0.0-17.0","task_version":"test-retest-t2"},{"Rune":"rune_05_gebo","Hex":"#3366ff99","Correct":32,"Choice":-1,"RT":-1,"Accuracy":0,"Outcome":"+1","Keys":[3114.960000035353],"TotalKeys":1,"Block":1,"Trial":14,"Robot":1,"Valence":"Win","Action":"Go","Sham":0,"Color":"blue","trial_type":"pit-trial","trial_index":29,"time_elapsed":184157,"internal_node_id":"0.0-18.0","task_version":"test-retest-t2"},{"Rune":"rune_05_jeran","Hex":"#ffcc3399","Correct":-1,"Choice":32,"RT":1480.710000032559,"Accuracy":0,"Outcome":"-10","Keys":[201.10499998554587,2981.3950000097975],"TotalKeys":2,"Block":1,"Trial":15,"Robot":4,"Valence":"Lose","Action":"No-Go","Sham":0,"Color":"yellow","trial_type":"pit-trial","trial_index":30,"time_elapsed":188141,"internal_node_id":"0.0-19.0","task_version":"test-retest-t2"},{"Rune":"rune_05_ior","Hex":"#ffcc3399","Correct":32,"Choice":32,"RT":1018.2950000162236,"Accuracy":1,"Outcome":"-1","Keys":[2518.824999977369],"TotalKeys":1,"Block":1,"Trial":16,"Robot":3,"Valence":"Lose","Action":"Go","Sham":0,"Color":"yellow","trial_type":"pit-trial","trial_index":31,"time_elapsed":191666,"internal_node_id":"0.0-20.0","task_version":"test-retest-t2"},{"Rune":"rune_05_tiwaz","Hex":"#3366ff99","Correct":-1,"Choice":-1,"RT":-1,"Accuracy":1,"Outcome":"+10","Keys":[],"TotalKeys":0,"Block":1,"Trial":17,"Robot":2,"Valence":"Win","Action":"No-Go","Sham":0,"Color":"blue","trial_type":"pit-trial","trial_index":32,"time_elapsed":195672,"internal_node_id":"0.0-21.0","task_version":"test-retest-t2"},{"Rune":"rune_05_jeran","Hex":"#ffcc3399","Correct":-1,"Choice":-1,"RT":-1,"Accuracy":1,"Outcome":"-1","Keys":[],"TotalKeys":0,"Block":1,"Trial":18,"Robot":4,"Valence":"Lose","Action":"No-Go","Sham":0,"Color":"yellow","trial_type":"pit-trial","trial_index":33,"time_elapsed":199679,"internal_node_id":"0.0-22.0","task_version":"test-retest-t2"},{"Rune":"rune_05_ior","Hex":"#ffcc3399","Correct":32,"Choice":32,"RT":912.1649999869987,"Accuracy":1,"Outcome":"-10","Keys":[2412.884999997914],"TotalKeys":1,"Block":1,"Trial":19,"Robot":3,"Valence":"Lose","Action":"Go","Sham":1,"Color":"yellow","trial_type":"pit-trial","trial_index":34,"time_elapsed":203097,"internal_node_id":"0.0-23.0","task_version":"test-retest-t2"},{"Rune":"rune_05_gebo","Hex":"#3366ff99","Correct":32,"Choice":-1,"RT":-1,"Accuracy":0,"Outcome":"+1","Keys":[],"TotalKeys":0,"Block":1,"Trial":20,"Robot":1,"Valence":"Win","Action":"Go","Sham":0,"Color":"blue","trial_type":"pit-trial","trial_index":35,"time_elapsed":207104,"internal_node_id":"0.0-24.0","task_version":"test-retest-t2"},{"Rune":"rune_05_gebo","Hex":"#3366ff99","Correct":32,"Choice":32,"RT":580.0799999851733,"Accuracy":1,"Outcome":"+10","Keys":[2081.7900000256486],"TotalKeys":1,"Block":1,"Trial":21,"Robot":1,"Valence":"Win","Action":"Go","Sham":0,"Color":"blue","trial_type":"pit-trial","trial_index":36,"time_elapsed":210192,"internal_node_id":"0.0-25.0","task_version":"test-retest-t2"},{"Rune":"rune_05_ior","Hex":"#ffcc3399","Correct":32,"Choice":-1,"RT":-1,"Accuracy":0,"Outcome":"-1","Keys":[],"TotalKeys":0,"Block":1,"Trial":22,"Robot":3,"Valence":"Lose","Action":"Go","Sham":1,"Color":"yellow","trial_type":"pit-trial","trial_index":37,"time_elapsed":214199,"internal_node_id":"0.0-26.0","task_version":"test-retest-t2"},{"Rune":"rune_05_tiwaz","Hex":"#3366ff99","Correct":-1,"Choice":-1,"RT":-1,"Accuracy":1,"Outcome":"+1","Keys":[],"TotalKeys":0,"Block":1,"Trial":23,"Robot":2,"Valence":"Win","Action":"No-Go","Sham":1,"Color":"blue","trial_type":"pit-trial","trial_index":38,"time_elapsed":218206,"internal_node_id":"0.0-27.0","task_version":"test-retest-t2"},{"Rune":"rune_05_jeran","Hex":"#ffcc3399","Correct":-1,"Choice":-1,"RT":-1,"Accuracy":1,"Outcome":"-1","Keys":[],"TotalKeys":0,"Block":1,"Trial":24,"Robot":4,"Valence":"Lose","Action":"No-Go","Sham":0,"Color":"yellow","trial_type":"pit-trial","trial_index":39,"time_elapsed":222214,"internal_node_id":"0.0-28.0","task_version":"test-retest-t2"},{"Rune":"rune_05_gebo","Hex":"#3366ff99","Correct":32,"Choice":32,"RT":800.470000016503,"Accuracy":1,"Outcome":"+10","Keys":[2301.0449999710545],"TotalKeys":1,"Block":1,"Trial":25,"Robot":1,"Valence":"Win","Action":"Go","Sham":0,"Color":"blue","trial_type":"pit-trial","trial_index":40,"time_elapsed":225520,"internal_node_id":"0.0-29.0","task_version":"test-retest-t2"},{"Rune":"rune_05_tiwaz","Hex":"#3366ff99","Correct":-1,"Choice":-1,"RT":-1,"Accuracy":1,"Outcome":"+10","Keys":[],"TotalKeys":0,"Block":1,"Trial":26,"Robot":2,"Valence":"Win","Action":"No-Go","Sham":0,"Color":"blue","trial_type":"pit-trial","trial_index":41,"time_elapsed":229525,"internal_node_id":"0.0-30.0","task_version":"test-retest-t2"},{"Rune":"rune_05_jeran","Hex":"#ffcc3399","Correct":-1,"Choice":-1,"RT":-1,"Accuracy":1,"Outcome":"-1","Keys":[],"TotalKeys":0,"Block":1,"Trial":27,"Robot":4,"Valence":"Lose","Action":"No-Go","Sham":0,"Color":"yellow","trial_type":"pit-trial","trial_index":42,"time_elapsed":233529,"internal_node_id":"0.0-31.0","task_version":"test-retest-t2"},{"Rune":"rune_05_ior","Hex":"#ffcc3399","Correct":32,"Choice":32,"RT":1095.629999996163,"Accuracy":1,"Outcome":"-1","Keys":[2596.4299999759533],"TotalKeys":1,"Block":1,"Trial":28,"Robot":3,"Valence":"Lose","Action":"Go","Sham":0,"Color":"yellow","trial_type":"pit-trial","trial_index":43,"time_elapsed":237132,"internal_node_id":"0.0-32.0","task_version":"test-retest-t2"},{"Rune":"rune_05_tiwaz","Hex":"#3366ff99","Correct":-1,"Choice":-1,"RT":-1,"Accuracy":1,"Outcome":"+10","Keys":[],"TotalKeys":0,"Block":1,"Trial":29,"Robot":2,"Valence":"Win","Action":"No-Go","Sham":0,"Color":"blue","trial_type":"pit-trial","trial_index":44,"time_elapsed":241139,"internal_node_id":"0.0-33.0","task_version":"test-retest-t2"},{"Rune":"rune_05_ior","Hex":"#ffcc3399","Correct":32,"Choice":-1,"RT":-1,"Accuracy":0,"Outcome":"-10","Keys":[],"TotalKeys":0,"Block":1,"Trial":30,"Robot":3,"Valence":"Lose","Action":"Go","Sham":0,"Color":"yellow","trial_type":"pit-trial","trial_index":45,"time_elapsed":245146,"internal_node_id":"0.0-34.0","task_version":"test-retest-t2"},{"Rune":"rune_05_jeran","Hex":"#ffcc3399","Correct":-1,"Choice":-1,"RT":-1,"Accuracy":1,"Outcome":"-1","Keys":[193.7599999946542],"TotalKeys":1,"Block":1,"Trial":31,"Robot":4,"Valence":"Lose","Action":"No-Go","Sham":0,"Color":"yellow","trial_type":"pit-trial","trial_index":46,"time_elapsed":249152,"internal_node_id":"0.0-35.0","task_version":"test-retest-t2"},{"Rune":"rune_05_gebo","Hex":"#3366ff99","Correct":32,"Choice":32,"RT":1419.6099999826401,"Accuracy":1,"Outcome":"+10","Keys":[2919.6699999738485],"TotalKeys":1,"Block":1,"Trial":32,"Robot":1,"Valence":"Win","Action":"Go","Sham":0,"Color":"blue","trial_type":"pit-trial","trial_index":47,"time_elapsed":253077,"internal_node_id":"0.0-36.0","task_version":"test-retest-t2"},{"Rune":"rune_05_ior","Hex":"#ffcc3399","Correct":32,"Choice":-1,"RT":-1,"Accuracy":0,"Outcome":"-10","Keys":[3660.7199999853037],"TotalKeys":1,"Block":1,"Trial":33,"Robot":3,"Valence":"Lose","Action":"Go","Sham":0,"Color":"yellow","trial_type":"pit-trial","trial_index":48,"time_elapsed":257082,"internal_node_id":"0.0-37.0","task_version":"test-retest-t2"},{"Rune":"rune_05_gebo","Hex":"#3366ff99","Correct":32,"Choice":-1,"RT":-1,"Accuracy":0,"Outcome":"+10","Keys":[3165.1849999907427],"TotalKeys":1,"Block":1,"Trial":34,"Robot":1,"Valence":"Win","Action":"Go","Sham":1,"Color":"blue","trial_type":"pit-trial","trial_index":49,"time_elapsed":261089,"internal_node_id":"0.0-38.0","task_version":"test-retest-t2"},{"Rune":"rune_05_jeran","Hex":"#ffcc3399","Correct":-1,"Choice":-1,"RT":-1,"Accuracy":1,"Outcome":"-1","Keys":[],"TotalKeys":0,"Block":1,"Trial":35,"Robot":4,"Valence":"Lose","Action":"No-Go","Sham":0,"Color":"yellow","trial_type":"pit-trial","trial_index":50,"time_elapsed":265095,"internal_node_id":"0.0-39.0","task_version":"test-retest-t2"},{"Rune":"rune_05_tiwaz","Hex":"#3366ff99","Correct":-1,"Choice":-1,"RT":-1,"Accuracy":1,"Outcome":"+10","Keys":[],"TotalKeys":0,"Block":1,"Trial":36,"Robot":2,"Valence":"Win","Action":"No-Go","Sham":0,"Color":"blue","trial_type":"pit-trial","trial_index":51,"time_elapsed":269102,"internal_node_id":"0.0-40.0","task_version":"test-retest-t2"},{"Rune":"rune_05_gebo","Hex":"#3366ff99","Correct":32,"Choice":32,"RT":999.9950000201352,"Accuracy":1,"Outcome":"+10","Keys":[2500.5349999992177],"TotalKeys":1,"Block":1,"Trial":37,"Robot":1,"Valence":"Win","Action":"Go","Sham":0,"Color":"blue","trial_type":"pit-trial","trial_index":52,"time_elapsed":272608,"internal_node_id":"0.0-41.0","task_version":"test-retest-t2"},{"Rune":"rune_05_jeran","Hex":"#ffcc3399","Correct":-1,"Choice":-1,"RT":-1,"Accuracy":1,"Outcome":"-10","Keys":[],"TotalKeys":0,"Block":1,"Trial":38,"Robot":4,"Valence":"Lose","Action":"No-Go","Sham":1,"Color":"yellow","trial_type":"pit-trial","trial_index":53,"time_elapsed":276615,"internal_node_id":"0.0-42.0","task_version":"test-retest-t2"},{"Rune":"rune_05_ior","Hex":"#ffcc3399","Correct":32,"Choice":32,"RT":520.3450000262819,"Accuracy":1,"Outcome":"-1","Keys":[2021.439999982249],"TotalKeys":1,"Block":1,"Trial":39,"Robot":3,"Valence":"Lose","Action":"Go","Sham":0,"Color":"yellow","trial_type":"pit-trial","trial_index":54,"time_elapsed":279642,"internal_node_id":"0.0-43.0","task_version":"test-retest-t2"},{"Rune":"rune_05_tiwaz","Hex":"#3366ff99","Correct":-1,"Choice":-1,"RT":-1,"Accuracy":1,"Outcome":"+10","Keys":[],"TotalKeys":0,"Block":1,"Trial":40,"Robot":2,"Valence":"Win","Action":"No-Go","Sham":0,"Color":"blue","trial_type":"pit-trial","trial_index":55,"time_elapsed":283648,"internal_node_id":"0.0-44.0","task_version":"test-retest-t2"},{"Rune":"rune_05_gebo","Hex":"#3366ff99","Correct":32,"Choice":32,"RT":869.2750000045635,"Accuracy":1,"Outcome":"+10","Keys":[2370.439999969676],"TotalKeys":1,"Block":1,"Trial":41,"Robot":1,"Valence":"Win","Action":"Go","Sham":0,"Color":"blue","trial_type":"pit-trial","trial_index":56,"time_elapsed":287022,"internal_node_id":"0.0-45.0","task_version":"test-retest-t2"},{"Rune":"rune_05_jeran","Hex":"#ffcc3399","Correct":-1,"Choice":-1,"RT":-1,"Accuracy":1,"Outcome":"-10","Keys":[],"TotalKeys":0,"Block":1,"Trial":42,"Robot":4,"Valence":"Lose","Action":"No-Go","Sham":1,"Color":"yellow","trial_type":"pit-trial","trial_index":57,"time_elapsed":291028,"internal_node_id":"0.0-46.0","task_version":"test-retest-t2"},{"Rune":"rune_05_ior","Hex":"#ffcc3399","Correct":32,"Choice":32,"RT":806.1500000185333,"Accuracy":1,"Outcome":"-10","Keys":[2308.100000023842],"TotalKeys":1,"Block":1,"Trial":43,"Robot":3,"Valence":"Lose","Action":"Go","Sham":1,"Color":"yellow","trial_type":"pit-trial","trial_index":58,"time_elapsed":294339,"internal_node_id":"0.0-47.0","task_version":"test-retest-t2"},{"Rune":"rune_05_tiwaz","Hex":"#3366ff99","Correct":-1,"Choice":-1,"RT":-1,"Accuracy":1,"Outcome":"+10","Keys":[],"TotalKeys":0,"Block":1,"Trial":44,"Robot":2,"Valence":"Win","Action":"No-Go","Sham":0,"Color":"blue","trial_type":"pit-trial","trial_index":59,"time_elapsed":298343,"internal_node_id":"0.0-48.0","task_version":"test-retest-t2"},{"Rune":"rune_05_gebo","Hex":"#3366ff99","Correct":32,"Choice":32,"RT":636.8099999963306,"Accuracy":1,"Outcome":"+10","Keys":[2137.4349999823608],"TotalKeys":1,"Block":1,"Trial":45,"Robot":1,"Valence":"Win","Action":"Go","Sham":0,"Color":"blue","trial_type":"pit-trial","trial_index":60,"time_elapsed":301484,"internal_node_id":"0.0-49.0","task_version":"test-retest-t2"},{"Rune":"rune_05_jeran","Hex":"#ffcc3399","Correct":-1,"Choice":-1,"RT":-1,"Accuracy":1,"Outcome":"-1","Keys":[],"TotalKeys":0,"Block":1,"Trial":46,"Robot":4,"Valence":"Lose","Action":"No-Go","Sham":0,"Color":"yellow","trial_type":"pit-trial","trial_index":61,"time_elapsed":305492,"internal_node_id":"0.0-50.0","task_version":"test-retest-t2"},{"Rune":"rune_05_ior","Hex":"#ffcc3399","Correct":32,"Choice":32,"RT":774.2549999966286,"Accuracy":1,"Outcome":"-1","Keys":[2274.990000005346],"TotalKeys":1,"Block":1,"Trial":47,"Robot":3,"Valence":"Lose","Action":"Go","Sham":0,"Color":"yellow","trial_type":"pit-trial","trial_index":62,"time_elapsed":308772,"internal_node_id":"0.0-51.0","task_version":"test-retest-t2"},{"Rune":"rune_05_tiwaz","Hex":"#3366ff99","Correct":-1,"Choice":-1,"RT":-1,"Accuracy":1,"Outcome":"+1","Keys":[],"TotalKeys":0,"Block":1,"Trial":48,"Robot":2,"Valence":"Win","Action":"No-Go","Sham":1,"Color":"blue","trial_type":"pit-trial","trial_index":63,"time_elapsed":312777,"internal_node_id":"0.0-52.0","task_version":"test-retest-t2"},{"Rune":"rune_05_jeran","Hex":"#ffcc3399","Correct":-1,"Choice":-1,"RT":-1,"Accuracy":1,"Outcome":"-1","Keys":[],"TotalKeys":0,"Block":1,"Trial":49,"Robot":4,"Valence":"Lose","Action":"No-Go","Sham":0,"Color":"yellow","trial_type":"pit-trial","trial_index":64,"time_elapsed":316783,"internal_node_id":"0.0-53.0","task_version":"test-retest-t2"},{"Rune":"rune_05_tiwaz","Hex":"#3366ff99","Correct":-1,"Choice":-1,"RT":-1,"Accuracy":1,"Outcome":"+10","Keys":[],"TotalKeys":0,"Block":1,"Trial":50,"Robot":2,"Valence":"Win","Action":"No-Go","Sham":0,"Color":"blue","trial_type":"pit-trial","trial_index":65,"time_elapsed":320792,"internal_node_id":"0.0-54.0","task_version":"test-retest-t2"},{"Rune":"rune_05_ior","Hex":"#ffcc3399","Correct":32,"Choice":-1,"RT":-1,"Accuracy":0,"Outcome":"-10","Keys":[3038.784999982454,3577.389999991283],"TotalKeys":2,"Block":1,"Trial":51,"Robot":3,"Valence":"Lose","Action":"Go","Sham":0,"Color":"yellow","trial_type":"pit-trial","trial_index":66,"time_elapsed":324799,"internal_node_id":"0.0-55.0","task_version":"test-retest-t2"},{"Rune":"rune_05_gebo","Hex":"#3366ff99","Correct":32,"Choice":32,"RT":770.4200000152923,"Accuracy":1,"Outcome":"+1","Keys":[19.544999988283962,2271.439999982249],"TotalKeys":2,"Block":1,"Trial":52,"Robot":1,"Valence":"Win","Action":"Go","Sham":1,"Color":"blue","trial_type":"pit-trial","trial_index":67,"time_elapsed":328075,"internal_node_id":"0.0-56.0","task_version":"test-retest-t2"},{"Rune":"rune_05_gebo","Hex":"#3366ff99","Correct":32,"Choice":32,"RT":1099.3749999906868,"Accuracy":1,"Outcome":"+10","Keys":[2599.594999977853],"TotalKeys":1,"Block":1,"Trial":53,"Robot":1,"Valence":"Win","Action":"Go","Sham":0,"Color":"blue","trial_type":"pit-trial","trial_index":68,"time_elapsed":331678,"internal_node_id":"0.0-57.0","task_version":"test-retest-t2"},{"Rune":"rune_05_ior","Hex":"#ffcc3399","Correct":32,"Choice":32,"RT":915.0699999881908,"Accuracy":1,"Outcome":"-1","Keys":[2416.5500000235625],"TotalKeys":1,"Block":1,"Trial":54,"Robot":3,"Valence":"Lose","Action":"Go","Sham":0,"Color":"yellow","trial_type":"pit-trial","trial_index":69,"time_elapsed":335099,"internal_node_id":"0.0-58.0","task_version":"test-retest-t2"},{"Rune":"rune_05_jeran","Hex":"#ffcc3399","Correct":-1,"Choice":-1,"RT":-1,"Accuracy":1,"Outcome":"-1","Keys":[],"TotalKeys":0,"Block":1,"Trial":55,"Robot":4,"Valence":"Lose","Action":"No-Go","Sham":0,"Color":"yellow","trial_type":"pit-trial","trial_index":70,"time_elapsed":339105,"internal_node_id":"0.0-59.0","task_version":"test-retest-t2"},{"Rune":"rune_05_tiwaz","Hex":"#3366ff99","Correct":-1,"Choice":-1,"RT":-1,"Accuracy":1,"Outcome":"+10","Keys":[],"TotalKeys":0,"Block":1,"Trial":56,"Robot":2,"Valence":"Win","Action":"No-Go","Sham":0,"Color":"blue","trial_type":"pit-trial","trial_index":71,"time_elapsed":343112,"internal_node_id":"0.0-60.0","task_version":"test-retest-t2"},{"Rune":"rune_05_ior","Hex":"#ffcc3399","Correct":32,"Choice":-1,"RT":-1,"Accuracy":0,"Outcome":"-10","Keys":[3774.135000014212],"TotalKeys":1,"Block":1,"Trial":57,"Robot":3,"Valence":"Lose","Action":"Go","Sham":0,"Color":"yellow","trial_type":"pit-trial","trial_index":72,"time_elapsed":347118,"internal_node_id":"0.0-61.0","task_version":"test-retest-t2"},{"Rune":"rune_05_gebo","Hex":"#3366ff99","Correct":32,"Choice":32,"RT":775.02000000095,"Accuracy":1,"Outcome":"+10","Keys":[2275.324999995064],"TotalKeys":1,"Block":1,"Trial":58,"Robot":1,"Valence":"Win","Action":"Go","Sham":0,"Color":"blue","trial_type":"pit-trial","trial_index":73,"time_elapsed":350396,"internal_node_id":"0.0-62.0","task_version":"test-retest-t2"},{"Rune":"rune_05_tiwaz","Hex":"#3366ff99","Correct":-1,"Choice":32,"RT":993.0349999922328,"Accuracy":0,"Outcome":"+1","Keys":[2493.239999981597],"TotalKeys":1,"Block":1,"Trial":59,"Robot":2,"Valence":"Win","Action":"No-Go","Sham":0,"Color":"blue","trial_type":"pit-trial","trial_index":74,"time_elapsed":353893,"internal_node_id":"0.0-63.0","task_version":"test-retest-t2"},{"Rune":"rune_05_jeran","Hex":"#ffcc3399","Correct":-1,"Choice":-1,"RT":-1,"Accuracy":1,"Outcome":"-1","Keys":[],"TotalKeys":0,"Block":1,"Trial":60,"Robot":4,"Valence":"Lose","Action":"No-Go","Sham":0,"Color":"yellow","trial_type":"pit-trial","trial_index":75,"time_elapsed":357900,"internal_node_id":"0.0-64.0","task_version":"test-retest-t2"},{"value":false,"trial_type":"call-function","trial_index":76,"time_elapsed":357903,"internal_node_id":"0.0-65.0","task_version":"test-retest-t2"},{"view_history":"[{\"page_index\":0,\"viewing_time\":3643.849999993108},{\"page_index\":1,\"viewing_time\":1095.659999991767}]","rt":4740.014999988489,"trial_type":"pit-instructions","trial_index":77,"time_elapsed":362644,"internal_node_id":"0.0-66.0","task_version":"test-retest-t2"},{"Rune":"rune_05_ior","Hex":"#ffcc3399","Correct":32,"Choice":32,"RT":1267.8000000305474,"Accuracy":1,"Outcome":"-10","Keys":[2769.105000013951],"TotalKeys":1,"Block":1,"Trial":61,"Robot":3,"Valence":"Lose","Action":"Go","Sham":1,"Color":"yellow","trial_type":"pit-trial","trial_index":78,"time_elapsed":366417,"internal_node_id":"0.0-67.0","task_version":"test-retest-t2"},{"Rune":"rune_05_jeran","Hex":"#ffcc3399","Correct":-1,"Choice":-1,"RT":-1,"Accuracy":1,"Outcome":"-1","Keys":[],"TotalKeys":0,"Block":1,"Trial":62,"Robot":4,"Valence":"Lose","Action":"No-Go","Sham":0,"Color":"yellow","trial_type":"pit-trial","trial_index":79,"time_elapsed":370422,"internal_node_id":"0.0-68.0","task_version":"test-retest-t2"},{"Rune":"rune_05_gebo","Hex":"#3366ff99","Correct":32,"Choice":32,"RT":690.5549999792129,"Accuracy":1,"Outcome":"+1","Keys":[2192.429999995511],"TotalKeys":1,"Block":1,"Trial":63,"Robot":1,"Valence":"Win","Action":"Go","Sham":1,"Color":"blue","trial_type":"pit-trial","trial_index":80,"time_elapsed":373620,"internal_node_id":"0.0-69.0","task_version":"test-retest-t2"},{"Rune":"rune_05_tiwaz","Hex":"#3366ff99","Correct":-1,"Choice":-1,"RT":-1,"Accuracy":1,"Outcome":"+1","Keys":[],"TotalKeys":0,"Block":1,"Trial":64,"Robot":2,"Valence":"Win","Action":"No-Go","Sham":1,"Color":"blue","trial_type":"pit-trial","trial_index":81,"time_elapsed":377627,"internal_node_id":"0.0-70.0","task_version":"test-retest-t2"},{"Rune":"rune_05_gebo","Hex":"#3366ff99","Correct":32,"Choice":32,"RT":1061.829999962356,"Accuracy":1,"Outcome":"+10","Keys":[2562.22500000149],"TotalKeys":1,"Block":1,"Trial":65,"Robot":1,"Valence":"Win","Action":"Go","Sham":0,"Color":"blue","trial_type":"pit-trial","trial_index":82,"time_elapsed":381195,"internal_node_id":"0.0-71.0","task_version":"test-retest-t2"},{"Rune":"rune_05_ior","Hex":"#ffcc3399","Correct":32,"Choice":32,"RT":430.4850000189617,"Accuracy":1,"Outcome":"-1","Keys":[1932.4650000198744],"TotalKeys":1,"Block":1,"Trial":66,"Robot":3,"Valence":"Lose","Action":"Go","Sham":0,"Color":"yellow","trial_type":"pit-trial","trial_index":83,"time_elapsed":384133,"internal_node_id":"0.0-72.0","task_version":"test-retest-t2"},{"Rune":"rune_05_tiwaz","Hex":"#3366ff99","Correct":-1,"Choice":-1,"RT":-1,"Accuracy":1,"Outcome":"+10","Keys":[],"TotalKeys":0,"Block":1,"Trial":67,"Robot":2,"Valence":"Win","Action":"No-Go","Sham":0,"Color":"blue","trial_type":"pit-trial","trial_index":84,"time_elapsed":388141,"internal_node_id":"0.0-73.0","task_version":"test-retest-t2"},{"Rune":"rune_05_jeran","Hex":"#ffcc3399","Correct":-1,"Choice":-1,"RT":-1,"Accuracy":1,"Outcome":"-1","Keys":[],"TotalKeys":0,"Block":1,"Trial":68,"Robot":4,"Valence":"Lose","Action":"No-Go","Sham":0,"Color":"yellow","trial_type":"pit-trial","trial_index":85,"time_elapsed":392147,"internal_node_id":"0.0-74.0","task_version":"test-retest-t2"},{"Rune":"rune_05_jeran","Hex":"#ffcc3399","Correct":-1,"Choice":-1,"RT":-1,"Accuracy":1,"Outcome":"-1","Keys":[],"TotalKeys":0,"Block":1,"Trial":69,"Robot":4,"Valence":"Lose","Action":"No-Go","Sham":0,"Color":"yellow","trial_type":"pit-trial","trial_index":86,"time_elapsed":396154,"internal_node_id":"0.0-75.0","task_version":"test-retest-t2"},{"Rune":"rune_05_gebo","Hex":"#3366ff99","Correct":32,"Choice":32,"RT":670.9250000421889,"Accuracy":1,"Outcome":"+10","Keys":[2171.2449999758974],"TotalKeys":1,"Block":1,"Trial":70,"Robot":1,"Valence":"Win","Action":"Go","Sham":0,"Color":"blue","trial_type":"pit-trial","trial_index":87,"time_elapsed":399331,"internal_node_id":"0.0-76.0","task_version":"test-retest-t2"},{"Rune":"rune_05_tiwaz","Hex":"#3366ff99","Correct":-1,"Choice":-1,"RT":-1,"Accuracy":1,"Outcome":"+10","Keys":[],"TotalKeys":0,"Block":1,"Trial":71,"Robot":2,"Valence":"Win","Action":"No-Go","Sham":0,"Color":"blue","trial_type":"pit-trial","trial_index":88,"time_elapsed":403337,"internal_node_id":"0.0-77.0","task_version":"test-retest-t2"},{"Rune":"rune_05_ior","Hex":"#ffcc3399","Correct":32,"Choice":32,"RT":1168.195000034757,"Accuracy":1,"Outcome":"-1","Keys":[2668.7050000182353],"TotalKeys":1,"Block":1,"Trial":72,"Robot":3,"Valence":"Lose","Action":"Go","Sham":0,"Color":"yellow","trial_type":"pit-trial","trial_index":89,"time_elapsed":407009,"internal_node_id":"0.0-78.0","task_version":"test-retest-t2"},{"Rune":"rune_05_gebo","Hex":"#3366ff99","Correct":32,"Choice":32,"RT":913.059999991674,"Accuracy":1,"Outcome":"+10","Keys":[2414.130000048317],"TotalKeys":1,"Block":1,"Trial":73,"Robot":1,"Valence":"Win","Action":"Go","Sham":0,"Color":"blue","trial_type":"pit-trial","trial_index":90,"time_elapsed":410428,"internal_node_id":"0.0-79.0","task_version":"test-retest-t2"},{"Rune":"rune_05_jeran","Hex":"#ffcc3399","Correct":-1,"Choice":-1,"RT":-1,"Accuracy":1,"Outcome":"-10","Keys":[],"TotalKeys":0,"Block":1,"Trial":74,"Robot":4,"Valence":"Lose","Action":"No-Go","Sham":1,"Color":"yellow","trial_type":"pit-trial","trial_index":91,"time_elapsed":414434,"internal_node_id":"0.0-80.0","task_version":"test-retest-t2"},{"Rune":"rune_05_ior","Hex":"#ffcc3399","Correct":32,"Choice":32,"RT":1066.6699999710545,"Accuracy":1,"Outcome":"-1","Keys":[2566.815000027418],"TotalKeys":1,"Block":1,"Trial":75,"Robot":3,"Valence":"Lose","Action":"Go","Sham":0,"Color":"yellow","trial_type":"pit-trial","trial_index":92,"time_elapsed":418005,"internal_node_id":"0.0-81.0","task_version":"test-retest-t2"},{"Rune":"rune_05_tiwaz","Hex":"#3366ff99","Correct":-1,"Choice":32,"RT":1425.035000022035,"Accuracy":0,"Outcome":"+1","Keys":[2925.244999991264],"TotalKeys":1,"Block":1,"Trial":76,"Robot":2,"Valence":"Win","Action":"No-Go","Sham":0,"Color":"blue","trial_type":"pit-trial","trial_index":93,"time_elapsed":421934,"internal_node_id":"0.0-82.0","task_version":"test-retest-t2"},{"Rune":"rune_05_tiwaz","Hex":"#3366ff99","Correct":-1,"Choice":-1,"RT":-1,"Accuracy":1,"Outcome":"+10","Keys":[],"TotalKeys":0,"Block":1,"Trial":77,"Robot":2,"Valence":"Win","Action":"No-Go","Sham":0,"Color":"blue","trial_type":"pit-trial","trial_index":94,"time_elapsed":425940,"internal_node_id":"0.0-83.0","task_version":"test-retest-t2"},{"Rune":"rune_05_ior","Hex":"#ffcc3399","Correct":32,"Choice":32,"RT":791.6250000125729,"Accuracy":1,"Outcome":"-1","Keys":[2292.1499999938533],"TotalKeys":1,"Block":1,"Trial":78,"Robot":3,"Valence":"Lose","Action":"Go","Sham":0,"Color":"yellow","trial_type":"pit-trial","trial_index":95,"time_elapsed":429238,"internal_node_id":"0.0-84.0","task_version":"test-retest-t2"},{"Rune":"rune_05_gebo","Hex":"#3366ff99","Correct":32,"Choice":32,"RT":766.3850000244565,"Accuracy":1,"Outcome":"+10","Keys":[2266.925000003539],"TotalKeys":1,"Block":1,"Trial":79,"Robot":1,"Valence":"Win","Action":"Go","Sham":0,"Color":"blue","trial_type":"pit-trial","trial_index":96,"time_elapsed":432511,"internal_node_id":"0.0-85.0","task_version":"test-retest-t2"},{"Rune":"rune_05_jeran","Hex":"#ffcc3399","Correct":-1,"Choice":-1,"RT":-1,"Accuracy":1,"Outcome":"-1","Keys":[],"TotalKeys":0,"Block":1,"Trial":80,"Robot":4,"Valence":"Lose","Action":"No-Go","Sham":0,"Color":"yellow","trial_type":"pit-trial","trial_index":97,"time_elapsed":436521,"internal_node_id":"0.0-86.0","task_version":"test-retest-t2"},{"Rune":"rune_05_tiwaz","Hex":"#3366ff99","Correct":-1,"Choice":-1,"RT":-1,"Accuracy":1,"Outcome":"+10","Keys":[],"TotalKeys":0,"Block":1,"Trial":81,"Robot":2,"Valence":"Win","Action":"No-Go","Sham":0,"Color":"blue","trial_type":"pit-trial","trial_index":98,"time_elapsed":440526,"internal_node_id":"0.0-87.0","task_version":"test-retest-t2"},{"Rune":"rune_05_ior","Hex":"#ffcc3399","Correct":32,"Choice":32,"RT":907.0050000445917,"Accuracy":1,"Outcome":"-1","Keys":[2407.520000007935],"TotalKeys":1,"Block":1,"Trial":82,"Robot":3,"Valence":"Lose","Action":"Go","Sham":0,"Color":"yellow","trial_type":"pit-trial","trial_index":99,"time_elapsed":443937,"internal_node_id":"0.0-88.0","task_version":"test-retest-t2"},{"Rune":"rune_05_gebo","Hex":"#3366ff99","Correct":32,"Choice":32,"RT":689.7800000151619,"Accuracy":1,"Outcome":"+10","Keys":[2191.0200000274926],"TotalKeys":1,"Block":1,"Trial":83,"Robot":1,"Valence":"Win","Action":"Go","Sham":0,"Color":"blue","trial_type":"pit-trial","trial_index":100,"time_elapsed":447134,"internal_node_id":"0.0-89.0","task_version":"test-retest-t2"},{"Rune":"rune_05_jeran","Hex":"#ffcc3399","Correct":-1,"Choice":-1,"RT":-1,"Accuracy":1,"Outcome":"-1","Keys":[],"TotalKeys":0,"Block":1,"Trial":84,"Robot":4,"Valence":"Lose","Action":"No-Go","Sham":0,"Color":"yellow","trial_type":"pit-trial","trial_index":101,"time_elapsed":451138,"internal_node_id":"0.0-90.0","task_version":"test-retest-t2"},{"Rune":"rune_05_jeran","Hex":"#ffcc3399","Correct":-1,"Choice":-1,"RT":-1,"Accuracy":1,"Outcome":"-10","Keys":[],"TotalKeys":0,"Block":1,"Trial":85,"Robot":4,"Valence":"Lose","Action":"No-Go","Sham":1,"Color":"yellow","trial_type":"pit-trial","trial_index":102,"time_elapsed":455146,"internal_node_id":"0.0-91.0","task_version":"test-retest-t2"},{"Rune":"rune_05_ior","Hex":"#ffcc3399","Correct":32,"Choice":32,"RT":869.4649999961257,"Accuracy":1,"Outcome":"-1","Keys":[2370.9149999776855],"TotalKeys":1,"Block":1,"Trial":86,"Robot":3,"Valence":"Lose","Action":"Go","Sham":0,"Color":"yellow","trial_type":"pit-trial","trial_index":103,"time_elapsed":458523,"internal_node_id":"0.0-92.0","task_version":"test-retest-t2"},{"Rune":"rune_05_tiwaz","Hex":"#3366ff99","Correct":-1,"Choice":-1,"RT":-1,"Accuracy":1,"Outcome":"+10","Keys":[],"TotalKeys":0,"Block":1,"Trial":87,"Robot":2,"Valence":"Win","Action":"No-Go","Sham":0,"Color":"blue","trial_type":"pit-trial","trial_index":104,"time_elapsed":462531,"internal_node_id":"0.0-93.0","task_version":"test-retest-t2"},{"Rune":"rune_05_gebo","Hex":"#3366ff99","Correct":32,"Choice":32,"RT":680.3549999604002,"Accuracy":1,"Outcome":"+10","Keys":[2181.7550000268966],"TotalKeys":1,"Block":1,"Trial":88,"Robot":1,"Valence":"Win","Action":"Go","Sham":0,"Color":"blue","trial_type":"pit-trial","trial_index":105,"time_elapsed":465719,"internal_node_id":"0.0-94.0","task_version":"test-retest-t2"},{"Rune":"rune_05_jeran","Hex":"#ffcc3399","Correct":-1,"Choice":-1,"RT":-1,"Accuracy":1,"Outcome":"-1","Keys":[],"TotalKeys":0,"Block":1,"Trial":89,"Robot":4,"Valence":"Lose","Action":"No-Go","Sham":0,"Color":"yellow","trial_type":"pit-trial","trial_index":106,"time_elapsed":469724,"internal_node_id":"0.0-95.0","task_version":"test-retest-t2"},{"Rune":"rune_05_gebo","Hex":"#3366ff99","Correct":32,"Choice":32,"RT":616.8449999531731,"Accuracy":1,"Outcome":"+10","Keys":[2117.549999966286],"TotalKeys":1,"Block":1,"Trial":90,"Robot":1,"Valence":"Win","Action":"Go","Sham":0,"Color":"blue","trial_type":"pit-trial","trial_index":107,"time_elapsed":472847,"internal_node_id":"0.0-96.0","task_version":"test-retest-t2"},{"Rune":"rune_05_ior","Hex":"#ffcc3399","Correct":32,"Choice":32,"RT":822.2800000221469,"Accuracy":1,"Outcome":"-10","Keys":[2323.015000030864],"TotalKeys":1,"Block":1,"Trial":91,"Robot":3,"Valence":"Lose","Action":"Go","Sham":1,"Color":"yellow","trial_type":"pit-trial","trial_index":108,"time_elapsed":476175,"internal_node_id":"0.0-97.0","task_version":"test-retest-t2"},{"Rune":"rune_05_tiwaz","Hex":"#3366ff99","Correct":-1,"Choice":-1,"RT":-1,"Accuracy":1,"Outcome":"+10","Keys":[],"TotalKeys":0,"Block":1,"Trial":92,"Robot":2,"Valence":"Win","Action":"No-Go","Sham":0,"Color":"blue","trial_type":"pit-trial","trial_index":109,"time_elapsed":480180,"internal_node_id":"0.0-98.0","task_version":"test-retest-t2"},{"Rune":"rune_05_ior","Hex":"#ffcc3399","Correct":32,"Choice":32,"RT":688.7049999786541,"Accuracy":1,"Outcome":"-1","Keys":[2189.825000008568],"TotalKeys":1,"Block":1,"Trial":93,"Robot":3,"Valence":"Lose","Action":"Go","Sham":0,"Color":"yellow","trial_type":"pit-trial","trial_index":110,"time_elapsed":483374,"internal_node_id":"0.0-99.0","task_version":"test-retest-t2"},{"Rune":"rune_05_gebo","Hex":"#3366ff99","Correct":32,"Choice":32,"RT":695.2850000234321,"Accuracy":1,"Outcome":"+10","Keys":[2195.495000050869],"TotalKeys":1,"Block":1,"Trial":94,"Robot":1,"Valence":"Win","Action":"Go","Sham":0,"Color":"blue","trial_type":"pit-trial","trial_index":111,"time_elapsed":486573,"internal_node_id":"0.0-100.0","task_version":"test-retest-t2"},{"Rune":"rune_05_jeran","Hex":"#ffcc3399","Correct":-1,"Choice":-1,"RT":-1,"Accuracy":1,"Outcome":"-1","Keys":[],"TotalKeys":0,"Block":1,"Trial":95,"Robot":4,"Valence":"Lose","Action":"No-Go","Sham":0,"Color":"yellow","trial_type":"pit-trial","trial_index":112,"time_elapsed":490580,"internal_node_id":"0.0-101.0","task_version":"test-retest-t2"},{"Rune":"rune_05_tiwaz","Hex":"#3366ff99","Correct":-1,"Choice":-1,"RT":-1,"Accuracy":1,"Outcome":"+1","Keys":[],"TotalKeys":0,"Block":1,"Trial":96,"Robot":2,"Valence":"Win","Action":"No-Go","Sham":1,"Color":"blue","trial_type":"pit-trial","trial_index":113,"time_elapsed":494586,"internal_node_id":"0.0-102.0","task_version":"test-retest-t2"},{"Rune":"rune_05_gebo","Hex":"#3366ff99","Correct":32,"Choice":32,"RT":475.2349999616854,"Accuracy":1,"Outcome":"+1","Keys":[1975.9049999993294],"TotalKeys":1,"Block":1,"Trial":97,"Robot":1,"Valence":"Win","Action":"Go","Sham":1,"Color":"blue","trial_type":"pit-trial","trial_index":114,"time_elapsed":497565,"internal_node_id":"0.0-103.0","task_version":"test-retest-t2"},{"Rune":"rune_05_ior","Hex":"#ffcc3399","Correct":32,"Choice":32,"RT":571.0300000500865,"Accuracy":1,"Outcome":"-1","Keys":[2071.975000028033],"TotalKeys":1,"Block":1,"Trial":98,"Robot":3,"Valence":"Lose","Action":"Go","Sham":0,"Color":"yellow","trial_type":"pit-trial","trial_index":115,"time_elapsed":500640,"internal_node_id":"0.0-104.0","task_version":"test-retest-t2"},{"Rune":"rune_05_jeran","Hex":"#ffcc3399","Correct":-1,"Choice":-1,"RT":-1,"Accuracy":1,"Outcome":"-1","Keys":[],"TotalKeys":0,"Block":1,"Trial":99,"Robot":4,"Valence":"Lose","Action":"No-Go","Sham":0,"Color":"yellow","trial_type":"pit-trial","trial_index":116,"time_elapsed":504645,"internal_node_id":"0.0-105.0","task_version":"test-retest-t2"},{"Rune":"rune_05_tiwaz","Hex":"#3366ff99","Correct":-1,"Choice":-1,"RT":-1,"Accuracy":1,"Outcome":"+10","Keys":[],"TotalKeys":0,"Block":1,"Trial":100,"Robot":2,"Valence":"Win","Action":"No-Go","Sham":0,"Color":"blue","trial_type":"pit-trial","trial_index":117,"time_elapsed":508651,"internal_node_id":"0.0-106.0","task_version":"test-retest-t2"},{"Rune":"rune_05_jeran","Hex":"#ffcc3399","Correct":-1,"Choice":-1,"RT":-1,"Accuracy":1,"Outcome":"-10","Keys":[],"TotalKeys":0,"Block":1,"Trial":101,"Robot":4,"Valence":"Lose","Action":"No-Go","Sham":1,"Color":"yellow","trial_type":"pit-trial","trial_index":118,"time_elapsed":512658,"internal_node_id":"0.0-107.0","task_version":"test-retest-t2"},{"Rune":"rune_05_gebo","Hex":"#3366ff99","Correct":32,"Choice":32,"RT":718.2000000029802,"Accuracy":1,"Outcome":"+10","Keys":[2219.4199999794364],"TotalKeys":1,"Block":1,"Trial":102,"Robot":1,"Valence":"Win","Action":"Go","Sham":0,"Color":"blue","trial_type":"pit-trial","trial_index":119,"time_elapsed":515883,"internal_node_id":"0.0-108.0","task_version":"test-retest-t2"},{"Rune":"rune_05_tiwaz","Hex":"#3366ff99","Correct":-1,"Choice":-1,"RT":-1,"Accuracy":1,"Outcome":"+1","Keys":[],"TotalKeys":0,"Block":1,"Trial":103,"Robot":2,"Valence":"Win","Action":"No-Go","Sham":1,"Color":"blue","trial_type":"pit-trial","trial_index":120,"time_elapsed":519889,"internal_node_id":"0.0-109.0","task_version":"test-retest-t2"},{"Rune":"rune_05_ior","Hex":"#ffcc3399","Correct":32,"Choice":32,"RT":673.2349999947473,"Accuracy":1,"Outcome":"-1","Keys":[2173.2649999903515],"TotalKeys":1,"Block":1,"Trial":104,"Robot":3,"Valence":"Lose","Action":"Go","Sham":0,"Color":"yellow","trial_type":"pit-trial","trial_index":121,"time_elapsed":523068,"internal_node_id":"0.0-110.0","task_version":"test-retest-t2"},{"Rune":"rune_05_jeran","Hex":"#ffcc3399","Correct":-1,"Choice":-1,"RT":-1,"Accuracy":1,"Outcome":"-1","Keys":[],"TotalKeys":0,"Block":1,"Trial":105,"Robot":4,"Valence":"Lose","Action":"No-Go","Sham":0,"Color":"yellow","trial_type":"pit-trial","trial_index":122,"time_elapsed":527075,"internal_node_id":"0.0-111.0","task_version":"test-retest-t2"},{"Rune":"rune_05_gebo","Hex":"#3366ff99","Correct":32,"Choice":32,"RT":502.94999999459833,"Accuracy":1,"Outcome":"+10","Keys":[2003.7499999743886],"TotalKeys":1,"Block":1,"Trial":106,"Robot":1,"Valence":"Win","Action":"Go","Sham":0,"Color":"blue","trial_type":"pit-trial","trial_index":123,"time_elapsed":530085,"internal_node_id":"0.0-112.0","task_version":"test-retest-t2"},{"Rune":"rune_05_tiwaz","Hex":"#3366ff99","Correct":-1,"Choice":-1,"RT":-1,"Accuracy":1,"Outcome":"+10","Keys":[],"TotalKeys":0,"Block":1,"Trial":107,"Robot":2,"Valence":"Win","Action":"No-Go","Sham":0,"Color":"blue","trial_type":"pit-trial","trial_index":124,"time_elapsed":534091,"internal_node_id":"0.0-113.0","task_version":"test-retest-t2"},{"Rune":"rune_05_ior","Hex":"#ffcc3399","Correct":32,"Choice":32,"RT":927.2249999921769,"Accuracy":1,"Outcome":"-1","Keys":[2428.220000001602],"TotalKeys":1,"Block":1,"Trial":108,"Robot":3,"Valence":"Lose","Action":"Go","Sham":0,"Color":"yellow","trial_type":"pit-trial","trial_index":125,"time_elapsed":537524,"internal_node_id":"0.0-114.0","task_version":"test-retest-t2"},{"Rune":"rune_05_gebo","Hex":"#3366ff99","Correct":32,"Choice":32,"RT":582.8399999882095,"Accuracy":1,"Outcome":"+10","Keys":[2084.930000011809],"TotalKeys":1,"Block":1,"Trial":109,"Robot":1,"Valence":"Win","Action":"Go","Sham":0,"Color":"blue","trial_type":"pit-trial","trial_index":126,"time_elapsed":540616,"internal_node_id":"0.0-115.0","task_version":"test-retest-t2"},{"Rune":"rune_05_jeran","Hex":"#ffcc3399","Correct":-1,"Choice":-1,"RT":-1,"Accuracy":1,"Outcome":"-1","Keys":[],"TotalKeys":0,"Block":1,"Trial":110,"Robot":4,"Valence":"Lose","Action":"No-Go","Sham":0,"Color":"yellow","trial_type":"pit-trial","trial_index":127,"time_elapsed":544622,"internal_node_id":"0.0-116.0","task_version":"test-retest-t2"},{"Rune":"rune_05_ior","Hex":"#ffcc3399","Correct":32,"Choice":32,"RT":539.7549999761395,"Accuracy":1,"Outcome":"-1","Keys":[2040.2349999640137],"TotalKeys":1,"Block":1,"Trial":111,"Robot":3,"Valence":"Lose","Action":"Go","Sham":0,"Color":"yellow","trial_type":"pit-trial","trial_index":128,"time_elapsed":547665,"internal_node_id":"0.0-117.0","task_version":"test-retest-t2"},{"Rune":"rune_05_tiwaz","Hex":"#3366ff99","Correct":-1,"Choice":-1,"RT":-1,"Accuracy":1,"Outcome":"+10","Keys":[],"TotalKeys":0,"Block":1,"Trial":112,"Robot":2,"Valence":"Win","Action":"No-Go","Sham":0,"Color":"blue","trial_type":"pit-trial","trial_index":129,"time_elapsed":551671,"internal_node_id":"0.0-118.0","task_version":"test-retest-t2"},{"Rune":"rune_05_gebo","Hex":"#3366ff99","Correct":32,"Choice":32,"RT":570.125000027474,"Accuracy":1,"Outcome":"+1","Keys":[2071.349999983795],"TotalKeys":1,"Block":1,"Trial":113,"Robot":1,"Valence":"Win","Action":"Go","Sham":1,"Color":"blue","trial_type":"pit-trial","trial_index":130,"time_elapsed":554747,"internal_node_id":"0.0-119.0","task_version":"test-retest-t2"},{"Rune":"rune_05_jeran","Hex":"#ffcc3399","Correct":-1,"Choice":-1,"RT":-1,"Accuracy":1,"Outcome":"-1","Keys":[],"TotalKeys":0,"Block":1,"Trial":114,"Robot":4,"Valence":"Lose","Action":"No-Go","Sham":0,"Color":"yellow","trial_type":"pit-trial","trial_index":131,"time_elapsed":558754,"internal_node_id":"0.0-120.0","task_version":"test-retest-t2"},{"Rune":"rune_05_tiwaz","Hex":"#3366ff99","Correct":-1,"Choice":-1,"RT":-1,"Accuracy":1,"Outcome":"+10","Keys":[],"TotalKeys":0,"Block":1,"Trial":115,"Robot":2,"Valence":"Win","Action":"No-Go","Sham":0,"Color":"blue","trial_type":"pit-trial","trial_index":132,"time_elapsed":562759,"internal_node_id":"0.0-121.0","task_version":"test-retest-t2"},{"Rune":"rune_05_ior","Hex":"#ffcc3399","Correct":32,"Choice":32,"RT":585.5449999799021,"Accuracy":1,"Outcome":"-1","Keys":[2085.80499998061],"TotalKeys":1,"Block":1,"Trial":116,"Robot":3,"Valence":"Lose","Action":"Go","Sham":0,"Color":"yellow","trial_type":"pit-trial","trial_index":133,"time_elapsed":565848,"internal_node_id":"0.0-122.0","task_version":"test-retest-t2"},{"Rune":"rune_05_ior","Hex":"#ffcc3399","Correct":32,"Choice":32,"RT":628.4949999535456,"Accuracy":1,"Outcome":"-10","Keys":[2128.6850000033155],"TotalKeys":1,"Block":1,"Trial":117,"Robot":3,"Valence":"Lose","Action":"Go","Sham":1,"Color":"yellow","trial_type":"pit-trial","trial_index":134,"time_elapsed":568983,"internal_node_id":"0.0-123.0","task_version":"test-retest-t2"},{"Rune":"rune_05_gebo","Hex":"#3366ff99","Correct":32,"Choice":32,"RT":586.4050000091083,"Accuracy":1,"Outcome":"+10","Keys":[2086.7549999966286],"TotalKeys":1,"Block":1,"Trial":118,"Robot":1,"Valence":"Win","Action":"Go","Sham":0,"Color":"blue","trial_type":"pit-trial","trial_index":135,"time_elapsed":572075,"internal_node_id":"0.0-124.0","task_version":"test-retest-t2"},{"Rune":"rune_05_jeran","Hex":"#ffcc3399","Correct":-1,"Choice":-1,"RT":-1,"Accuracy":1,"Outcome":"-1","Keys":[],"TotalKeys":0,"Block":1,"Trial":119,"Robot":4,"Valence":"Lose","Action":"No-Go","Sham":0,"Color":"yellow","trial_type":"pit-trial","trial_index":136,"time_elapsed":576081,"internal_node_id":"0.0-125.0","task_version":"test-retest-t2"},{"Rune":"rune_05_tiwaz","Hex":"#3366ff99","Correct":-1,"Choice":-1,"RT":-1,"Accuracy":1,"Outcome":"+10","Keys":[],"TotalKeys":0,"Block":1,"Trial":120,"Robot":2,"Valence":"Win","Action":"No-Go","Sham":0,"Color":"blue","trial_type":"pit-trial","trial_index":137,"time_elapsed":580089,"internal_node_id":"0.0-126.0","task_version":"test-retest-t2"},{"view_history":"[{\"page_index\":0,\"viewing_time\":3254.60500002373},{\"page_index\":1,\"viewing_time\":872.9049999965355},{\"page_index\":2,\"viewing_time\":1243.5599999735132}]","rt":5371.830000018235,"trial_type":"pit-instructions","trial_index":138,"time_elapsed":585464,"internal_node_id":"0.0-127.0","task_version":"test-retest-t2"},{"Rune":"rune_06_berkanan","Hex":"#ffcc3399","Correct":-1,"Choice":32,"RT":1380.059999995865,"Accuracy":0,"Outcome":"-10","Keys":[2880.520000006072],"TotalKeys":1,"Block":2,"Trial":121,"Robot":4,"Valence":"Lose","Action":"No-Go","Sham":0,"Color":"yellow","trial_type":"pit-trial","trial_index":139,"time_elapsed":589350,"internal_node_id":"0.0-128.0","task_version":"test-retest-t2"},{"Rune":"rune_06_ansuz","Hex":"#ffcc3399","Correct":32,"Choice":32,"RT":691.2099999608472,"Accuracy":1,"Outcome":"-1","Keys":[2191.5900000021793],"TotalKeys":1,"Block":2,"Trial":122,"Robot":3,"Valence":"Lose","Action":"Go","Sham":0,"Color":"yellow","trial_type":"pit-trial","trial_index":140,"time_elapsed":592545,"internal_node_id":"0.0-129.0","task_version":"test-retest-t2"},{"Rune":"rune_06_cweord","Hex":"#3366ff99","Correct":32,"Choice":32,"RT":766.185000014957,"Accuracy":1,"Outcome":"+10","Keys":[2267.259999993257],"TotalKeys":1,"Block":2,"Trial":123,"Robot":1,"Valence":"Win","Action":"Go","Sham":0,"Color":"blue","trial_type":"pit-trial","trial_index":141,"time_elapsed":595817,"internal_node_id":"0.0-130.0","task_version":"test-retest-t2"},{"Rune":"rune_06_ehwaz","Hex":"#3366ff99","Correct":-1,"Choice":32,"RT":706.3250000355765,"Accuracy":0,"Outcome":"+1","Keys":[2206.56500000041],"TotalKeys":1,"Block":2,"Trial":124,"Robot":2,"Valence":"Win","Action":"No-Go","Sham":0,"Color":"blue","trial_type":"pit-trial","trial_index":142,"time_elapsed":599030,"internal_node_id":"0.0-131.0","task_version":"test-retest-t2"},{"Rune":"rune_06_cweord","Hex":"#3366ff99","Correct":32,"Choice":32,"RT":1166.5950000169687,"Accuracy":1,"Outcome":"+10","Keys":[2667.219999944791],"TotalKeys":1,"Block":2,"Trial":125,"Robot":1,"Valence":"Win","Action":"Go","Sham":0,"Color":"blue","trial_type":"pit-trial","trial_index":143,"time_elapsed":602703,"internal_node_id":"0.0-132.0","task_version":"test-retest-t2"},{"Rune":"rune_06_ansuz","Hex":"#ffcc3399","Correct":32,"Choice":32,"RT":780.0300000235438,"Accuracy":1,"Outcome":"-1","Keys":[2281.5900000277907],"TotalKeys":1,"Block":2,"Trial":126,"Robot":3,"Valence":"Lose","Action":"Go","Sham":0,"Color":"yellow","trial_type":"pit-trial","trial_index":144,"time_elapsed":605988,"internal_node_id":"0.0-133.0","task_version":"test-retest-t2"},{"Rune":"rune_06_ehwaz","Hex":"#3366ff99","Correct":-1,"Choice":-1,"RT":-1,"Accuracy":1,"Outcome":"+1","Keys":[],"TotalKeys":0,"Block":2,"Trial":127,"Robot":2,"Valence":"Win","Action":"No-Go","Sham":1,"Color":"blue","trial_type":"pit-trial","trial_index":145,"time_elapsed":609993,"internal_node_id":"0.0-134.0","task_version":"test-retest-t2"},{"Rune":"rune_06_berkanan","Hex":"#ffcc3399","Correct":-1,"Choice":-1,"RT":-1,"Accuracy":1,"Outcome":"-10","Keys":[707.3850000160746],"TotalKeys":1,"Block":2,"Trial":128,"Robot":4,"Valence":"Lose","Action":"No-Go","Sham":1,"Color":"yellow","trial_type":"pit-trial","trial_index":146,"time_elapsed":613997,"internal_node_id":"0.0-135.0","task_version":"test-retest-t2"},{"Rune":"rune_06_cweord","Hex":"#3366ff99","Correct":32,"Choice":32,"RT":1022.0749999862164,"Accuracy":1,"Outcome":"+1","Keys":[2524.059999966994],"TotalKeys":1,"Block":2,"Trial":129,"Robot":1,"Valence":"Win","Action":"Go","Sham":1,"Color":"blue","trial_type":"pit-trial","trial_index":147,"time_elapsed":617524,"internal_node_id":"0.0-136.0","task_version":"test-retest-t2"},{"Rune":"rune_06_ehwaz","Hex":"#3366ff99","Correct":-1,"Choice":-1,"RT":-1,"Accuracy":1,"Outcome":"+10","Keys":[],"TotalKeys":0,"Block":2,"Trial":130,"Robot":2,"Valence":"Win","Action":"No-Go","Sham":0,"Color":"blue","trial_type":"pit-trial","trial_index":148,"time_elapsed":621530,"internal_node_id":"0.0-137.0","task_version":"test-retest-t2"},{"Rune":"rune_06_berkanan","Hex":"#ffcc3399","Correct":-1,"Choice":-1,"RT":-1,"Accuracy":1,"Outcome":"-1","Keys":[],"TotalKeys":0,"Block":2,"Trial":131,"Robot":4,"Valence":"Lose","Action":"No-Go","Sham":0,"Color":"yellow","trial_type":"pit-trial","trial_index":149,"time_elapsed":625535,"internal_node_id":"0.0-138.0","task_version":"test-retest-t2"},{"Rune":"rune_06_ansuz","Hex":"#ffcc3399","Correct":32,"Choice":32,"RT":476.49000003002584,"Accuracy":1,"Outcome":"-1","Keys":[1977.065000042785],"TotalKeys":1,"Block":2,"Trial":132,"Robot":3,"Valence":"Lose","Action":"Go","Sham":0,"Color":"yellow","trial_type":"pit-trial","trial_index":150,"time_elapsed":628519,"internal_node_id":"0.0-139.0","task_version":"test-retest-t2"},{"Rune":"rune_06_ehwaz","Hex":"#3366ff99","Correct":-1,"Choice":-1,"RT":-1,"Accuracy":1,"Outcome":"+10","Keys":[],"TotalKeys":0,"Block":2,"Trial":133,"Robot":2,"Valence":"Win","Action":"No-Go","Sham":0,"Color":"blue","trial_type":"pit-trial","trial_index":151,"time_elapsed":632525,"internal_node_id":"0.0-140.0","task_version":"test-retest-t2"},{"Rune":"rune_06_cweord","Hex":"#3366ff99","Correct":32,"Choice":32,"RT":626.2499999720603,"Accuracy":1,"Outcome":"+10","Keys":[2128.465000016149],"TotalKeys":1,"Block":2,"Trial":134,"Robot":1,"Valence":"Win","Action":"Go","Sham":0,"Color":"blue","trial_type":"pit-trial","trial_index":152,"time_elapsed":635660,"internal_node_id":"0.0-141.0","task_version":"test-retest-t2"},{"Rune":"rune_06_ansuz","Hex":"#ffcc3399","Correct":32,"Choice":32,"RT":764.7050000377931,"Accuracy":1,"Outcome":"-1","Keys":[2265.4299999703653],"TotalKeys":1,"Block":2,"Trial":135,"Robot":3,"Valence":"Lose","Action":"Go","Sham":0,"Color":"yellow","trial_type":"pit-trial","trial_index":153,"time_elapsed":638932,"internal_node_id":"0.0-142.0","task_version":"test-retest-t2"},{"Rune":"rune_06_berkanan","Hex":"#ffcc3399","Correct":-1,"Choice":-1,"RT":-1,"Accuracy":1,"Outcome":"-1","Keys":[],"TotalKeys":0,"Block":2,"Trial":136,"Robot":4,"Valence":"Lose","Action":"No-Go","Sham":0,"Color":"yellow","trial_type":"pit-trial","trial_index":154,"time_elapsed":642938,"internal_node_id":"0.0-143.0","task_version":"test-retest-t2"},{"Rune":"rune_06_ansuz","Hex":"#ffcc3399","Correct":32,"Choice":32,"RT":667.6200000219978,"Accuracy":1,"Outcome":"-10","Keys":[2168.5900000156835],"TotalKeys":1,"Block":2,"Trial":137,"Robot":3,"Valence":"Lose","Action":"Go","Sham":1,"Color":"yellow","trial_type":"pit-trial","trial_index":155,"time_elapsed":646113,"internal_node_id":"0.0-144.0","task_version":"test-retest-t2"},{"Rune":"rune_06_ehwaz","Hex":"#3366ff99","Correct":-1,"Choice":32,"RT":479.1199999745004,"Accuracy":0,"Outcome":"+1","Keys":[1980.0999999861233],"TotalKeys":1,"Block":2,"Trial":138,"Robot":2,"Valence":"Win","Action":"No-Go","Sham":0,"Color":"blue","trial_type":"pit-trial","trial_index":156,"time_elapsed":649099,"internal_node_id":"0.0-145.0","task_version":"test-retest-t2"},{"Rune":"rune_06_berkanan","Hex":"#ffcc3399","Correct":-1,"Choice":-1,"RT":-1,"Accuracy":1,"Outcome":"-1","Keys":[],"TotalKeys":0,"Block":2,"Trial":139,"Robot":4,"Valence":"Lose","Action":"No-Go","Sham":0,"Color":"yellow","trial_type":"pit-trial","trial_index":157,"time_elapsed":653105,"internal_node_id":"0.0-146.0","task_version":"test-retest-t2"},{"Rune":"rune_06_cweord","Hex":"#3366ff99","Correct":32,"Choice":32,"RT":670.6700000213459,"Accuracy":1,"Outcome":"+10","Keys":[2171.985000022687],"TotalKeys":1,"Block":2,"Trial":140,"Robot":1,"Valence":"Win","Action":"Go","Sham":0,"Color":"blue","trial_type":"pit-trial","trial_index":158,"time_elapsed":656283,"internal_node_id":"0.0-147.0","task_version":"test-retest-t2"},{"Rune":"rune_06_ansuz","Hex":"#ffcc3399","Correct":32,"Choice":32,"RT":807.8200000454672,"Accuracy":1,"Outcome":"-10","Keys":[2309.1349999886006],"TotalKeys":1,"Block":2,"Trial":141,"Robot":3,"Valence":"Lose","Action":"Go","Sham":1,"Color":"yellow","trial_type":"pit-trial","trial_index":159,"time_elapsed":659596,"internal_node_id":"0.0-148.0","task_version":"test-retest-t2"},{"Rune":"rune_06_ehwaz","Hex":"#3366ff99","Correct":-1,"Choice":-1,"RT":-1,"Accuracy":1,"Outcome":"+1","Keys":[],"TotalKeys":0,"Block":2,"Trial":142,"Robot":2,"Valence":"Win","Action":"No-Go","Sham":1,"Color":"blue","trial_type":"pit-trial","trial_index":160,"time_elapsed":663601,"internal_node_id":"0.0-149.0","task_version":"test-retest-t2"},{"Rune":"rune_06_berkanan","Hex":"#ffcc3399","Correct":-1,"Choice":-1,"RT":-1,"Accuracy":1,"Outcome":"-1","Keys":[],"TotalKeys":0,"Block":2,"Trial":143,"Robot":4,"Valence":"Lose","Action":"No-Go","Sham":0,"Color":"yellow","trial_type":"pit-trial","trial_index":161,"time_elapsed":667606,"internal_node_id":"0.0-150.0","task_version":"test-retest-t2"},{"Rune":"rune_06_cweord","Hex":"#3366ff99","Correct":32,"Choice":32,"RT":903.4999999566935,"Accuracy":1,"Outcome":"+10","Keys":[2403.5450000083074],"TotalKeys":1,"Block":2,"Trial":144,"Robot":1,"Valence":"Win","Action":"Go","Sham":0,"Color":"blue","trial_type":"pit-trial","trial_index":162,"time_elapsed":671015,"internal_node_id":"0.0-151.0","task_version":"test-retest-t2"},{"Rune":"rune_06_ansuz","Hex":"#ffcc3399","Correct":32,"Choice":-1,"RT":-1,"Accuracy":0,"Outcome":"-10","Keys":[3702.0350000238977],"TotalKeys":1,"Block":2,"Trial":145,"Robot":3,"Valence":"Lose","Action":"Go","Sham":0,"Color":"yellow","trial_type":"pit-trial","trial_index":163,"time_elapsed":675021,"internal_node_id":"0.0-152.0","task_version":"test-retest-t2"},{"Rune":"rune_06_ehwaz","Hex":"#3366ff99","Correct":-1,"Choice":-1,"RT":-1,"Accuracy":1,"Outcome":"+10","Keys":[],"TotalKeys":0,"Block":2,"Trial":146,"Robot":2,"Valence":"Win","Action":"No-Go","Sham":0,"Color":"blue","trial_type":"pit-trial","trial_index":164,"time_elapsed":679029,"internal_node_id":"0.0-153.0","task_version":"test-retest-t2"},{"Rune":"rune_06_berkanan","Hex":"#ffcc3399","Correct":-1,"Choice":-1,"RT":-1,"Accuracy":1,"Outcome":"-1","Keys":[],"TotalKeys":0,"Block":2,"Trial":147,"Robot":4,"Valence":"Lose","Action":"No-Go","Sham":0,"Color":"yellow","trial_type":"pit-trial","trial_index":165,"time_elapsed":683035,"internal_node_id":"0.0-154.0","task_version":"test-retest-t2"},{"Rune":"rune_06_cweord","Hex":"#3366ff99","Correct":32,"Choice":32,"RT":393.1950000114739,"Accuracy":1,"Outcome":"+10","Keys":[1895.8700000075623],"TotalKeys":1,"Block":2,"Trial":148,"Robot":1,"Valence":"Win","Action":"Go","Sham":0,"Color":"blue","trial_type":"pit-trial","trial_index":166,"time_elapsed":685940,"internal_node_id":"0.0-155.0","task_version":"test-retest-t2"},{"Rune":"rune_06_cweord","Hex":"#3366ff99","Correct":32,"Choice":32,"RT":976.0050000040792,"Accuracy":1,"Outcome":"+10","Keys":[2476.375000027474],"TotalKeys":1,"Block":2,"Trial":149,"Robot":1,"Valence":"Win","Action":"Go","Sham":0,"Color":"blue","trial_type":"pit-trial","trial_index":167,"time_elapsed":689419,"internal_node_id":"0.0-156.0","task_version":"test-retest-t2"},{"Rune":"rune_06_berkanan","Hex":"#ffcc3399","Correct":-1,"Choice":-1,"RT":-1,"Accuracy":1,"Outcome":"-1","Keys":[],"TotalKeys":0,"Block":2,"Trial":150,"Robot":4,"Valence":"Lose","Action":"No-Go","Sham":0,"Color":"yellow","trial_type":"pit-trial","trial_index":168,"time_elapsed":693427,"internal_node_id":"0.0-157.0","task_version":"test-retest-t2"},{"Rune":"rune_06_ansuz","Hex":"#ffcc3399","Correct":32,"Choice":32,"RT":1301.999999966938,"Accuracy":1,"Outcome":"-1","Keys":[2802.5500000221655],"TotalKeys":1,"Block":2,"Trial":151,"Robot":3,"Valence":"Lose","Action":"Go","Sham":0,"Color":"yellow","trial_type":"pit-trial","trial_index":169,"time_elapsed":697236,"internal_node_id":"0.0-158.0","task_version":"test-retest-t2"},{"Rune":"rune_06_ehwaz","Hex":"#3366ff99","Correct":-1,"Choice":-1,"RT":-1,"Accuracy":1,"Outcome":"+10","Keys":[],"TotalKeys":0,"Block":2,"Trial":152,"Robot":2,"Valence":"Win","Action":"No-Go","Sham":0,"Color":"blue","trial_type":"pit-trial","trial_index":170,"time_elapsed":701242,"internal_node_id":"0.0-159.0","task_version":"test-retest-t2"},{"Rune":"rune_06_ehwaz","Hex":"#3366ff99","Correct":-1,"Choice":-1,"RT":-1,"Accuracy":1,"Outcome":"+10","Keys":[],"TotalKeys":0,"Block":2,"Trial":153,"Robot":2,"Valence":"Win","Action":"No-Go","Sham":0,"Color":"blue","trial_type":"pit-trial","trial_index":171,"time_elapsed":705246,"internal_node_id":"0.0-160.0","task_version":"test-retest-t2"},{"Rune":"rune_06_cweord","Hex":"#3366ff99","Correct":32,"Choice":32,"RT":853.2649999833666,"Accuracy":1,"Outcome":"+1","Keys":[2353.934999962803],"TotalKeys":1,"Block":2,"Trial":154,"Robot":1,"Valence":"Win","Action":"Go","Sham":1,"Color":"blue","trial_type":"pit-trial","trial_index":172,"time_elapsed":708605,"internal_node_id":"0.0-161.0","task_version":"test-retest-t2"},{"Rune":"rune_06_berkanan","Hex":"#ffcc3399","Correct":-1,"Choice":-1,"RT":-1,"Accuracy":1,"Outcome":"-1","Keys":[],"TotalKeys":0,"Block":2,"Trial":155,"Robot":4,"Valence":"Lose","Action":"No-Go","Sham":0,"Color":"yellow","trial_type":"pit-trial","trial_index":173,"time_elapsed":712612,"internal_node_id":"0.0-162.0","task_version":"test-retest-t2"},{"Rune":"rune_06_ansuz","Hex":"#ffcc3399","Correct":32,"Choice":32,"RT":1031.8700000061654,"Accuracy":1,"Outcome":"-1","Keys":[2532.469999976456],"TotalKeys":1,"Block":2,"Trial":156,"Robot":3,"Valence":"Lose","Action":"Go","Sham":0,"Color":"yellow","trial_type":"pit-trial","trial_index":174,"time_elapsed":716150,"internal_node_id":"0.0-163.0","task_version":"test-retest-t2"},{"Rune":"rune_06_ehwaz","Hex":"#3366ff99","Correct":-1,"Choice":-1,"RT":-1,"Accuracy":1,"Outcome":"+10","Keys":[],"TotalKeys":0,"Block":2,"Trial":157,"Robot":2,"Valence":"Win","Action":"No-Go","Sham":0,"Color":"blue","trial_type":"pit-trial","trial_index":175,"time_elapsed":720157,"internal_node_id":"0.0-164.0","task_version":"test-retest-t2"},{"Rune":"rune_06_cweord","Hex":"#3366ff99","Correct":32,"Choice":32,"RT":552.605000033509,"Accuracy":1,"Outcome":"+10","Keys":[2053.604999964591],"TotalKeys":1,"Block":2,"Trial":158,"Robot":1,"Valence":"Win","Action":"Go","Sham":0,"Color":"blue","trial_type":"pit-trial","trial_index":176,"time_elapsed":723215,"internal_node_id":"0.0-165.0","task_version":"test-retest-t2"},{"Rune":"rune_06_ansuz","Hex":"#ffcc3399","Correct":32,"Choice":32,"RT":613.0949999787845,"Accuracy":1,"Outcome":"-1","Keys":[2114.6350000053644],"TotalKeys":1,"Block":2,"Trial":159,"Robot":3,"Valence":"Lose","Action":"Go","Sham":0,"Color":"yellow","trial_type":"pit-trial","trial_index":177,"time_elapsed":726332,"internal_node_id":"0.0-166.0","task_version":"test-retest-t2"},{"Rune":"rune_06_berkanan","Hex":"#ffcc3399","Correct":-1,"Choice":-1,"RT":-1,"Accuracy":1,"Outcome":"-10","Keys":[],"TotalKeys":0,"Block":2,"Trial":160,"Robot":4,"Valence":"Lose","Action":"No-Go","Sham":1,"Color":"yellow","trial_type":"pit-trial","trial_index":178,"time_elapsed":730337,"internal_node_id":"0.0-167.0","task_version":"test-retest-t2"},{"Rune":"rune_06_berkanan","Hex":"#ffcc3399","Correct":-1,"Choice":-1,"RT":-1,"Accuracy":1,"Outcome":"-10","Keys":[],"TotalKeys":0,"Block":2,"Trial":161,"Robot":4,"Valence":"Lose","Action":"No-Go","Sham":1,"Color":"yellow","trial_type":"pit-trial","trial_index":179,"time_elapsed":734339,"internal_node_id":"0.0-168.0","task_version":"test-retest-t2"},{"Rune":"rune_06_cweord","Hex":"#3366ff99","Correct":32,"Choice":32,"RT":471.03499999502674,"Accuracy":1,"Outcome":"+10","Keys":[1972.6850000442937],"TotalKeys":1,"Block":2,"Trial":162,"Robot":1,"Valence":"Win","Action":"Go","Sham":0,"Color":"blue","trial_type":"pit-trial","trial_index":180,"time_elapsed":737315,"internal_node_id":"0.0-169.0","task_version":"test-retest-t2"},{"Rune":"rune_06_ehwaz","Hex":"#3366ff99","Correct":-1,"Choice":-1,"RT":-1,"Accuracy":1,"Outcome":"+10","Keys":[],"TotalKeys":0,"Block":2,"Trial":163,"Robot":2,"Valence":"Win","Action":"No-Go","Sham":0,"Color":"blue","trial_type":"pit-trial","trial_index":181,"time_elapsed":741323,"internal_node_id":"0.0-170.0","task_version":"test-retest-t2"},{"Rune":"rune_06_ansuz","Hex":"#ffcc3399","Correct":32,"Choice":32,"RT":518.5449999989942,"Accuracy":1,"Outcome":"-10","Keys":[2019.4500000216067],"TotalKeys":1,"Block":2,"Trial":164,"Robot":3,"Valence":"Lose","Action":"Go","Sham":1,"Color":"yellow","trial_type":"pit-trial","trial_index":182,"time_elapsed":744348,"internal_node_id":"0.0-171.0","task_version":"test-retest-t2"},{"Rune":"rune_06_ehwaz","Hex":"#3366ff99","Correct":-1,"Choice":-1,"RT":-1,"Accuracy":1,"Outcome":"+1","Keys":[],"TotalKeys":0,"Block":2,"Trial":165,"Robot":2,"Valence":"Win","Action":"No-Go","Sham":1,"Color":"blue","trial_type":"pit-trial","trial_index":183,"time_elapsed":748351,"internal_node_id":"0.0-172.0","task_version":"test-retest-t2"},{"Rune":"rune_06_cweord","Hex":"#3366ff99","Correct":32,"Choice":32,"RT":665.7999999588355,"Accuracy":1,"Outcome":"+10","Keys":[2166.7899999883957],"TotalKeys":1,"Block":2,"Trial":166,"Robot":1,"Valence":"Win","Action":"Go","Sham":0,"Color":"blue","trial_type":"pit-trial","trial_index":184,"time_elapsed":751521,"internal_node_id":"0.0-173.0","task_version":"test-retest-t2"},{"Rune":"rune_06_berkanan","Hex":"#ffcc3399","Correct":-1,"Choice":-1,"RT":-1,"Accuracy":1,"Outcome":"-1","Keys":[],"TotalKeys":0,"Block":2,"Trial":167,"Robot":4,"Valence":"Lose","Action":"No-Go","Sham":0,"Color":"yellow","trial_type":"pit-trial","trial_index":185,"time_elapsed":755528,"internal_node_id":"0.0-174.0","task_version":"test-retest-t2"},{"Rune":"rune_06_ansuz","Hex":"#ffcc3399","Correct":32,"Choice":32,"RT":551.38999997871,"Accuracy":1,"Outcome":"-1","Keys":[2052.3249999969266],"TotalKeys":1,"Block":2,"Trial":168,"Robot":3,"Valence":"Lose","Action":"Go","Sham":0,"Color":"yellow","trial_type":"pit-trial","trial_index":186,"time_elapsed":758584,"internal_node_id":"0.0-175.0","task_version":"test-retest-t2"},{"Rune":"rune_06_cweord","Hex":"#3366ff99","Correct":32,"Choice":32,"RT":737.4900000286289,"Accuracy":1,"Outcome":"+1","Keys":[2238.3699999772944],"TotalKeys":1,"Block":2,"Trial":169,"Robot":1,"Valence":"Win","Action":"Go","Sham":1,"Color":"blue","trial_type":"pit-trial","trial_index":187,"time_elapsed":761828,"internal_node_id":"0.0-176.0","task_version":"test-retest-t2"},{"Rune":"rune_06_ehwaz","Hex":"#3366ff99","Correct":-1,"Choice":-1,"RT":-1,"Accuracy":1,"Outcome":"+10","Keys":[],"TotalKeys":0,"Block":2,"Trial":170,"Robot":2,"Valence":"Win","Action":"No-Go","Sham":0,"Color":"blue","trial_type":"pit-trial","trial_index":188,"time_elapsed":765835,"internal_node_id":"0.0-177.0","task_version":"test-retest-t2"},{"Rune":"rune_06_berkanan","Hex":"#ffcc3399","Correct":-1,"Choice":-1,"RT":-1,"Accuracy":1,"Outcome":"-1","Keys":[],"TotalKeys":0,"Block":2,"Trial":171,"Robot":4,"Valence":"Lose","Action":"No-Go","Sham":0,"Color":"yellow","trial_type":"pit-trial","trial_index":189,"time_elapsed":769842,"internal_node_id":"0.0-178.0","task_version":"test-retest-t2"},{"Rune":"rune_06_ansuz","Hex":"#ffcc3399","Correct":32,"Choice":32,"RT":486.9699999690056,"Accuracy":1,"Outcome":"-1","Keys":[1988.3000000263564],"TotalKeys":1,"Block":2,"Trial":172,"Robot":3,"Valence":"Lose","Action":"Go","Sham":0,"Color":"yellow","trial_type":"pit-trial","trial_index":190,"time_elapsed":772836,"internal_node_id":"0.0-179.0","task_version":"test-retest-t2"},{"Rune":"rune_06_berkanan","Hex":"#ffcc3399","Correct":-1,"Choice":-1,"RT":-1,"Accuracy":1,"Outcome":"-1","Keys":[],"TotalKeys":0,"Block":2,"Trial":173,"Robot":4,"Valence":"Lose","Action":"No-Go","Sham":0,"Color":"yellow","trial_type":"pit-trial","trial_index":191,"time_elapsed":776843,"internal_node_id":"0.0-180.0","task_version":"test-retest-t2"},{"Rune":"rune_06_cweord","Hex":"#3366ff99","Correct":32,"Choice":32,"RT":553.165000048466,"Accuracy":1,"Outcome":"+10","Keys":[2053.2900000107475],"TotalKeys":1,"Block":2,"Trial":174,"Robot":1,"Valence":"Win","Action":"Go","Sham":0,"Color":"blue","trial_type":"pit-trial","trial_index":192,"time_elapsed":779902,"internal_node_id":"0.0-181.0","task_version":"test-retest-t2"},{"Rune":"rune_06_ansuz","Hex":"#ffcc3399","Correct":32,"Choice":32,"RT":583.9500000001863,"Accuracy":1,"Outcome":"-1","Keys":[2084.6199999796227],"TotalKeys":1,"Block":2,"Trial":175,"Robot":3,"Valence":"Lose","Action":"Go","Sham":0,"Color":"yellow","trial_type":"pit-trial","trial_index":193,"time_elapsed":782992,"internal_node_id":"0.0-182.0","task_version":"test-retest-t2"},{"Rune":"rune_06_ehwaz","Hex":"#3366ff99","Correct":-1,"Choice":-1,"RT":-1,"Accuracy":1,"Outcome":"+10","Keys":[],"TotalKeys":0,"Block":2,"Trial":176,"Robot":2,"Valence":"Win","Action":"No-Go","Sham":0,"Color":"blue","trial_type":"pit-trial","trial_index":194,"time_elapsed":786999,"internal_node_id":"0.0-183.0","task_version":"test-retest-t2"},{"Rune":"rune_06_ehwaz","Hex":"#3366ff99","Correct":-1,"Choice":-1,"RT":-1,"Accuracy":1,"Outcome":"+10","Keys":[],"TotalKeys":0,"Block":2,"Trial":177,"Robot":2,"Valence":"Win","Action":"No-Go","Sham":0,"Color":"blue","trial_type":"pit-trial","trial_index":195,"time_elapsed":791004,"internal_node_id":"0.0-184.0","task_version":"test-retest-t2"},{"Rune":"rune_06_ansuz","Hex":"#ffcc3399","Correct":32,"Choice":32,"RT":492.37500003073364,"Accuracy":1,"Outcome":"-1","Keys":[1992.7850000094622],"TotalKeys":1,"Block":2,"Trial":178,"Robot":3,"Valence":"Lose","Action":"Go","Sham":0,"Color":"yellow","trial_type":"pit-trial","trial_index":196,"time_elapsed":794002,"internal_node_id":"0.0-185.0","task_version":"test-retest-t2"},{"Rune":"rune_06_cweord","Hex":"#3366ff99","Correct":32,"Choice":32,"RT":585.2000000304542,"Accuracy":1,"Outcome":"+10","Keys":[2085.490000026766],"TotalKeys":1,"Block":2,"Trial":179,"Robot":1,"Valence":"Win","Action":"Go","Sham":0,"Color":"blue","trial_type":"pit-trial","trial_index":197,"time_elapsed":797091,"internal_node_id":"0.0-186.0","task_version":"test-retest-t2"},{"Rune":"rune_06_berkanan","Hex":"#ffcc3399","Correct":-1,"Choice":-1,"RT":-1,"Accuracy":1,"Outcome":"-1","Keys":[],"TotalKeys":0,"Block":2,"Trial":180,"Robot":4,"Valence":"Lose","Action":"No-Go","Sham":0,"Color":"yellow","trial_type":"pit-trial","trial_index":198,"time_elapsed":801097,"internal_node_id":"0.0-187.0","task_version":"test-retest-t2"},{"view_history":"[{\"page_index\":0,\"viewing_time\":2986.81500001112},{\"page_index\":1,\"viewing_time\":1477.4650000035763}]","rt":4464.819999993779,"trial_type":"pit-instructions","trial_index":199,"time_elapsed":805566,"internal_node_id":"0.0-188.0","task_version":"test-retest-t2"},{"Rune":"rune_06_cweord","Hex":"#3366ff99","Correct":32,"Choice":32,"RT":597.5699999835342,"Accuracy":1,"Outcome":"+1","Keys":[2099.0549999987707],"TotalKeys":1,"Block":2,"Trial":181,"Robot":1,"Valence":"Win","Action":"Go","Sham":1,"Color":"blue","trial_type":"pit-trial","trial_index":200,"time_elapsed":808669,"internal_node_id":"0.0-189.0","task_version":"test-retest-t2"},{"Rune":"rune_06_ansuz","Hex":"#ffcc3399","Correct":32,"Choice":32,"RT":496.99499999405816,"Accuracy":1,"Outcome":"-10","Keys":[1997.2800000105053],"TotalKeys":1,"Block":2,"Trial":182,"Robot":3,"Valence":"Lose","Action":"Go","Sham":1,"Color":"yellow","trial_type":"pit-trial","trial_index":201,"time_elapsed":811671,"internal_node_id":"0.0-190.0","task_version":"test-retest-t2"},{"Rune":"rune_06_berkanan","Hex":"#ffcc3399","Correct":-1,"Choice":-1,"RT":-1,"Accuracy":1,"Outcome":"-1","Keys":[],"TotalKeys":0,"Block":2,"Trial":183,"Robot":4,"Valence":"Lose","Action":"No-Go","Sham":0,"Color":"yellow","trial_type":"pit-trial","trial_index":202,"time_elapsed":815678,"internal_node_id":"0.0-191.0","task_version":"test-retest-t2"},{"Rune":"rune_06_ehwaz","Hex":"#3366ff99","Correct":-1,"Choice":-1,"RT":-1,"Accuracy":1,"Outcome":"+1","Keys":[],"TotalKeys":0,"Block":2,"Trial":184,"Robot":2,"Valence":"Win","Action":"No-Go","Sham":1,"Color":"blue","trial_type":"pit-trial","trial_index":203,"time_elapsed":819682,"internal_node_id":"0.0-192.0","task_version":"test-retest-t2"},{"Rune":"rune_06_berkanan","Hex":"#ffcc3399","Correct":-1,"Choice":-1,"RT":-1,"Accuracy":1,"Outcome":"-1","Keys":[],"TotalKeys":0,"Block":2,"Trial":185,"Robot":4,"Valence":"Lose","Action":"No-Go","Sham":0,"Color":"yellow","trial_type":"pit-trial","trial_index":204,"time_elapsed":823688,"internal_node_id":"0.0-193.0","task_version":"test-retest-t2"},{"Rune":"rune_06_ansuz","Hex":"#ffcc3399","Correct":32,"Choice":32,"RT":660.3100000065751,"Accuracy":1,"Outcome":"-1","Keys":[2160.600000002887],"TotalKeys":1,"Block":2,"Trial":186,"Robot":3,"Valence":"Lose","Action":"Go","Sham":0,"Color":"yellow","trial_type":"pit-trial","trial_index":205,"time_elapsed":826854,"internal_node_id":"0.0-194.0","task_version":"test-retest-t2"},{"Rune":"rune_06_ehwaz","Hex":"#3366ff99","Correct":-1,"Choice":32,"RT":641.4699999731965,"Accuracy":0,"Outcome":"+1","Keys":[2142.5949999829754],"TotalKeys":1,"Block":2,"Trial":187,"Robot":2,"Valence":"Win","Action":"No-Go","Sham":0,"Color":"blue","trial_type":"pit-trial","trial_index":206,"time_elapsed":830002,"internal_node_id":"0.0-195.0","task_version":"test-retest-t2"},{"Rune":"rune_06_cweord","Hex":"#3366ff99","Correct":32,"Choice":32,"RT":597.9900000384077,"Accuracy":1,"Outcome":"+10","Keys":[2098.6399999819696],"TotalKeys":1,"Block":2,"Trial":188,"Robot":1,"Valence":"Win","Action":"Go","Sham":0,"Color":"blue","trial_type":"pit-trial","trial_index":207,"time_elapsed":833105,"internal_node_id":"0.0-196.0","task_version":"test-retest-t2"},{"Rune":"rune_06_berkanan","Hex":"#ffcc3399","Correct":-1,"Choice":-1,"RT":-1,"Accuracy":1,"Outcome":"-1","Keys":[],"TotalKeys":0,"Block":2,"Trial":189,"Robot":4,"Valence":"Lose","Action":"No-Go","Sham":0,"Color":"yellow","trial_type":"pit-trial","trial_index":208,"time_elapsed":837110,"internal_node_id":"0.0-197.0","task_version":"test-retest-t2"},{"Rune":"rune_06_cweord","Hex":"#3366ff99","Correct":32,"Choice":32,"RT":690.5099999858066,"Accuracy":1,"Outcome":"+10","Keys":[2192.2749999794178],"TotalKeys":1,"Block":2,"Trial":190,"Robot":1,"Valence":"Win","Action":"Go","Sham":0,"Color":"blue","trial_type":"pit-trial","trial_index":209,"time_elapsed":840308,"internal_node_id":"0.0-198.0","task_version":"test-retest-t2"},{"Rune":"rune_06_ansuz","Hex":"#ffcc3399","Correct":32,"Choice":32,"RT":477.5149999768473,"Accuracy":1,"Outcome":"-1","Keys":[1977.6500000152737],"TotalKeys":1,"Block":2,"Trial":191,"Robot":3,"Valence":"Lose","Action":"Go","Sham":0,"Color":"yellow","trial_type":"pit-trial","trial_index":210,"time_elapsed":843291,"internal_node_id":"0.0-199.0","task_version":"test-retest-t2"},{"Rune":"rune_06_ehwaz","Hex":"#3366ff99","Correct":-1,"Choice":-1,"RT":-1,"Accuracy":1,"Outcome":"+10","Keys":[],"TotalKeys":0,"Block":2,"Trial":192,"Robot":2,"Valence":"Win","Action":"No-Go","Sham":0,"Color":"blue","trial_type":"pit-trial","trial_index":211,"time_elapsed":847298,"internal_node_id":"0.0-200.0","task_version":"test-retest-t2"},{"Rune":"rune_06_cweord","Hex":"#3366ff99","Correct":32,"Choice":32,"RT":508.6499999742955,"Accuracy":1,"Outcome":"+10","Keys":[2010.275000007823],"TotalKeys":1,"Block":2,"Trial":193,"Robot":1,"Valence":"Win","Action":"Go","Sham":0,"Color":"blue","trial_type":"pit-trial","trial_index":212,"time_elapsed":850314,"internal_node_id":"0.0-201.0","task_version":"test-retest-t2"},{"Rune":"rune_06_ehwaz","Hex":"#3366ff99","Correct":-1,"Choice":-1,"RT":-1,"Accuracy":1,"Outcome":"+10","Keys":[],"TotalKeys":0,"Block":2,"Trial":194,"Robot":2,"Valence":"Win","Action":"No-Go","Sham":0,"Color":"blue","trial_type":"pit-trial","trial_index":213,"time_elapsed":854321,"internal_node_id":"0.0-202.0","task_version":"test-retest-t2"},{"Rune":"rune_06_ansuz","Hex":"#ffcc3399","Correct":32,"Choice":-1,"RT":-1,"Accuracy":0,"Outcome":"-10","Keys":[3099.545000004582],"TotalKeys":1,"Block":2,"Trial":195,"Robot":3,"Valence":"Lose","Action":"Go","Sham":0,"Color":"yellow","trial_type":"pit-trial","trial_index":214,"time_elapsed":858329,"internal_node_id":"0.0-203.0","task_version":"test-retest-t2"},{"Rune":"rune_06_berkanan","Hex":"#ffcc3399","Correct":-1,"Choice":-1,"RT":-1,"Accuracy":1,"Outcome":"-10","Keys":[],"TotalKeys":0,"Block":2,"Trial":196,"Robot":4,"Valence":"Lose","Action":"No-Go","Sham":1,"Color":"yellow","trial_type":"pit-trial","trial_index":215,"time_elapsed":862333,"internal_node_id":"0.0-204.0","task_version":"test-retest-t2"},{"Rune":"rune_06_berkanan","Hex":"#ffcc3399","Correct":-1,"Choice":-1,"RT":-1,"Accuracy":1,"Outcome":"-1","Keys":[],"TotalKeys":0,"Block":2,"Trial":197,"Robot":4,"Valence":"Lose","Action":"No-Go","Sham":0,"Color":"yellow","trial_type":"pit-trial","trial_index":216,"time_elapsed":866337,"internal_node_id":"0.0-205.0","task_version":"test-retest-t2"},{"Rune":"rune_06_ansuz","Hex":"#ffcc3399","Correct":32,"Choice":32,"RT":867.7100000204518,"Accuracy":1,"Outcome":"-1","Keys":[2368.1499999947846],"TotalKeys":1,"Block":2,"Trial":198,"Robot":3,"Valence":"Lose","Action":"Go","Sham":0,"Color":"yellow","trial_type":"pit-trial","trial_index":217,"time_elapsed":869710,"internal_node_id":"0.0-206.0","task_version":"test-retest-t2"},{"Rune":"rune_06_cweord","Hex":"#3366ff99","Correct":32,"Choice":32,"RT":653.6550000309944,"Accuracy":1,"Outcome":"+10","Keys":[2154.5599999953993],"TotalKeys":1,"Block":2,"Trial":199,"Robot":1,"Valence":"Win","Action":"Go","Sham":0,"Color":"blue","trial_type":"pit-trial","trial_index":218,"time_elapsed":872870,"internal_node_id":"0.0-207.0","task_version":"test-retest-t2"},{"Rune":"rune_06_ehwaz","Hex":"#3366ff99","Correct":-1,"Choice":-1,"RT":-1,"Accuracy":1,"Outcome":"+10","Keys":[],"TotalKeys":0,"Block":2,"Trial":200,"Robot":2,"Valence":"Win","Action":"No-Go","Sham":0,"Color":"blue","trial_type":"pit-trial","trial_index":219,"time_elapsed":876875,"internal_node_id":"0.0-208.0","task_version":"test-retest-t2"},{"Rune":"rune_06_ansuz","Hex":"#ffcc3399","Correct":32,"Choice":32,"RT":960.0849999696948,"Accuracy":1,"Outcome":"-1","Keys":[2460.865000030026],"TotalKeys":1,"Block":2,"Trial":201,"Robot":3,"Valence":"Lose","Action":"Go","Sham":0,"Color":"yellow","trial_type":"pit-trial","trial_index":220,"time_elapsed":880340,"internal_node_id":"0.0-209.0","task_version":"test-retest-t2"},{"Rune":"rune_06_berkanan","Hex":"#ffcc3399","Correct":-1,"Choice":-1,"RT":-1,"Accuracy":1,"Outcome":"-1","Keys":[],"TotalKeys":0,"Block":2,"Trial":202,"Robot":4,"Valence":"Lose","Action":"No-Go","Sham":0,"Color":"yellow","trial_type":"pit-trial","trial_index":221,"time_elapsed":884344,"internal_node_id":"0.0-210.0","task_version":"test-retest-t2"},{"Rune":"rune_06_cweord","Hex":"#3366ff99","Correct":32,"Choice":32,"RT":645.8899999852292,"Accuracy":1,"Outcome":"+10","Keys":[2147.995000006631],"TotalKeys":1,"Block":2,"Trial":203,"Robot":1,"Valence":"Win","Action":"Go","Sham":0,"Color":"blue","trial_type":"pit-trial","trial_index":222,"time_elapsed":887495,"internal_node_id":"0.0-211.0","task_version":"test-retest-t2"},{"Rune":"rune_06_ehwaz","Hex":"#3366ff99","Correct":-1,"Choice":-1,"RT":-1,"Accuracy":1,"Outcome":"+10","Keys":[],"TotalKeys":0,"Block":2,"Trial":204,"Robot":2,"Valence":"Win","Action":"No-Go","Sham":0,"Color":"blue","trial_type":"pit-trial","trial_index":223,"time_elapsed":891501,"internal_node_id":"0.0-212.0","task_version":"test-retest-t2"},{"Rune":"rune_06_cweord","Hex":"#3366ff99","Correct":32,"Choice":32,"RT":614.3750000046566,"Accuracy":1,"Outcome":"+10","Keys":[2116.425000014715],"TotalKeys":1,"Block":2,"Trial":205,"Robot":1,"Valence":"Win","Action":"Go","Sham":0,"Color":"blue","trial_type":"pit-trial","trial_index":224,"time_elapsed":894622,"internal_node_id":"0.0-213.0","task_version":"test-retest-t2"},{"Rune":"rune_06_ansuz","Hex":"#ffcc3399","Correct":32,"Choice":32,"RT":602.5099999969825,"Accuracy":1,"Outcome":"-1","Keys":[2103.990000032354],"TotalKeys":1,"Block":2,"Trial":206,"Robot":3,"Valence":"Lose","Action":"Go","Sham":0,"Color":"yellow","trial_type":"pit-trial","trial_index":225,"time_elapsed":897730,"internal_node_id":"0.0-214.0","task_version":"test-retest-t2"},{"Rune":"rune_06_ehwaz","Hex":"#3366ff99","Correct":-1,"Choice":-1,"RT":-1,"Accuracy":1,"Outcome":"+10","Keys":[],"TotalKeys":0,"Block":2,"Trial":207,"Robot":2,"Valence":"Win","Action":"No-Go","Sham":0,"Color":"blue","trial_type":"pit-trial","trial_index":226,"time_elapsed":901736,"internal_node_id":"0.0-215.0","task_version":"test-retest-t2"},{"Rune":"rune_06_berkanan","Hex":"#ffcc3399","Correct":-1,"Choice":-1,"RT":-1,"Accuracy":1,"Outcome":"-10","Keys":[],"TotalKeys":0,"Block":2,"Trial":208,"Robot":4,"Valence":"Lose","Action":"No-Go","Sham":1,"Color":"yellow","trial_type":"pit-trial","trial_index":227,"time_elapsed":905740,"internal_node_id":"0.0-216.0","task_version":"test-retest-t2"},{"Rune":"rune_06_cweord","Hex":"#3366ff99","Correct":32,"Choice":32,"RT":536.9150000042282,"Accuracy":1,"Outcome":"+10","Keys":[2037.4600000213832],"TotalKeys":1,"Block":2,"Trial":209,"Robot":1,"Valence":"Win","Action":"Go","Sham":0,"Color":"blue","trial_type":"pit-trial","trial_index":228,"time_elapsed":908780,"internal_node_id":"0.0-217.0","task_version":"test-retest-t2"},{"Rune":"rune_06_ansuz","Hex":"#ffcc3399","Correct":32,"Choice":32,"RT":438.7350000324659,"Accuracy":1,"Outcome":"-10","Keys":[1940.0250000180677],"TotalKeys":1,"Block":2,"Trial":210,"Robot":3,"Valence":"Lose","Action":"Go","Sham":1,"Color":"yellow","trial_type":"pit-trial","trial_index":229,"time_elapsed":911723,"internal_node_id":"0.0-218.0","task_version":"test-retest-t2"},{"Rune":"rune_06_ehwaz","Hex":"#3366ff99","Correct":-1,"Choice":-1,"RT":-1,"Accuracy":1,"Outcome":"+10","Keys":[],"TotalKeys":0,"Block":2,"Trial":211,"Robot":2,"Valence":"Win","Action":"No-Go","Sham":0,"Color":"blue","trial_type":"pit-trial","trial_index":230,"time_elapsed":915727,"internal_node_id":"0.0-219.0","task_version":"test-retest-t2"},{"Rune":"rune_06_berkanan","Hex":"#ffcc3399","Correct":-1,"Choice":-1,"RT":-1,"Accuracy":1,"Outcome":"-1","Keys":[],"TotalKeys":0,"Block":2,"Trial":212,"Robot":4,"Valence":"Lose","Action":"No-Go","Sham":0,"Color":"yellow","trial_type":"pit-trial","trial_index":231,"time_elapsed":919732,"internal_node_id":"0.0-220.0","task_version":"test-retest-t2"},{"Rune":"rune_06_ansuz","Hex":"#ffcc3399","Correct":32,"Choice":32,"RT":689.8350000265054,"Accuracy":1,"Outcome":"-1","Keys":[2191.9249999918975],"TotalKeys":1,"Block":2,"Trial":213,"Robot":3,"Valence":"Lose","Action":"Go","Sham":0,"Color":"yellow","trial_type":"pit-trial","trial_index":232,"time_elapsed":922929,"internal_node_id":"0.0-221.0","task_version":"test-retest-t2"},{"Rune":"rune_06_berkanan","Hex":"#ffcc3399","Correct":-1,"Choice":-1,"RT":-1,"Accuracy":1,"Outcome":"-1","Keys":[],"TotalKeys":0,"Block":2,"Trial":214,"Robot":4,"Valence":"Lose","Action":"No-Go","Sham":0,"Color":"yellow","trial_type":"pit-trial","trial_index":233,"time_elapsed":926935,"internal_node_id":"0.0-222.0","task_version":"test-retest-t2"},{"Rune":"rune_06_cweord","Hex":"#3366ff99","Correct":32,"Choice":32,"RT":537.9100000136532,"Accuracy":1,"Outcome":"+10","Keys":[2039.3050000420772],"TotalKeys":1,"Block":2,"Trial":215,"Robot":1,"Valence":"Win","Action":"Go","Sham":0,"Color":"blue","trial_type":"pit-trial","trial_index":234,"time_elapsed":929977,"internal_node_id":"0.0-223.0","task_version":"test-retest-t2"},{"Rune":"rune_06_ehwaz","Hex":"#3366ff99","Correct":-1,"Choice":-1,"RT":-1,"Accuracy":1,"Outcome":"+1","Keys":[],"TotalKeys":0,"Block":2,"Trial":216,"Robot":2,"Valence":"Win","Action":"No-Go","Sham":1,"Color":"blue","trial_type":"pit-trial","trial_index":235,"time_elapsed":933982,"internal_node_id":"0.0-224.0","task_version":"test-retest-t2"},{"Rune":"rune_06_ansuz","Hex":"#ffcc3399","Correct":32,"Choice":32,"RT":598.4399999724701,"Accuracy":1,"Outcome":"-1","Keys":[2100.3649999620393],"TotalKeys":1,"Block":2,"Trial":217,"Robot":3,"Valence":"Lose","Action":"Go","Sham":0,"Color":"yellow","trial_type":"pit-trial","trial_index":236,"time_elapsed":937087,"internal_node_id":"0.0-225.0","task_version":"test-retest-t2"},{"Rune":"rune_06_berkanan","Hex":"#ffcc3399","Correct":-1,"Choice":-1,"RT":-1,"Accuracy":1,"Outcome":"-1","Keys":[],"TotalKeys":0,"Block":2,"Trial":218,"Robot":4,"Valence":"Lose","Action":"No-Go","Sham":0,"Color":"yellow","trial_type":"pit-trial","trial_index":237,"time_elapsed":941091,"internal_node_id":"0.0-226.0","task_version":"test-retest-t2"},{"Rune":"rune_06_ehwaz","Hex":"#3366ff99","Correct":-1,"Choice":-1,"RT":-1,"Accuracy":1,"Outcome":"+10","Keys":[],"TotalKeys":0,"Block":2,"Trial":219,"Robot":2,"Valence":"Win","Action":"No-Go","Sham":0,"Color":"blue","trial_type":"pit-trial","trial_index":238,"time_elapsed":945098,"internal_node_id":"0.0-227.0","task_version":"test-retest-t2"},{"Rune":"rune_06_cweord","Hex":"#3366ff99","Correct":32,"Choice":32,"RT":433.4149999776855,"Accuracy":1,"Outcome":"+1","Keys":[1935.2100000251085],"TotalKeys":1,"Block":2,"Trial":220,"Robot":1,"Valence":"Win","Action":"Go","Sham":1,"Color":"blue","trial_type":"pit-trial","trial_index":239,"time_elapsed":948038,"internal_node_id":"0.0-228.0","task_version":"test-retest-t2"},{"Rune":"rune_06_ehwaz","Hex":"#3366ff99","Correct":-1,"Choice":-1,"RT":-1,"Accuracy":1,"Outcome":"+1","Keys":[],"TotalKeys":0,"Block":2,"Trial":221,"Robot":2,"Valence":"Win","Action":"No-Go","Sham":1,"Color":"blue","trial_type":"pit-trial","trial_index":240,"time_elapsed":952043,"internal_node_id":"0.0-229.0","task_version":"test-retest-t2"},{"Rune":"rune_06_ansuz","Hex":"#ffcc3399","Correct":32,"Choice":32,"RT":523.3099999604747,"Accuracy":1,"Outcome":"-1","Keys":[2023.4550000168383],"TotalKeys":1,"Block":2,"Trial":222,"Robot":3,"Valence":"Lose","Action":"Go","Sham":0,"Color":"yellow","trial_type":"pit-trial","trial_index":241,"time_elapsed":955071,"internal_node_id":"0.0-230.0","task_version":"test-retest-t2"},{"Rune":"rune_06_cweord","Hex":"#3366ff99","Correct":32,"Choice":32,"RT":498.91999998362735,"Accuracy":1,"Outcome":"+10","Keys":[1999.5950000011362],"TotalKeys":1,"Block":2,"Trial":223,"Robot":1,"Valence":"Win","Action":"Go","Sham":0,"Color":"blue","trial_type":"pit-trial","trial_index":242,"time_elapsed":958075,"internal_node_id":"0.0-231.0","task_version":"test-retest-t2"},{"Rune":"rune_06_berkanan","Hex":"#ffcc3399","Correct":-1,"Choice":-1,"RT":-1,"Accuracy":1,"Outcome":"-10","Keys":[],"TotalKeys":0,"Block":2,"Trial":224,"Robot":4,"Valence":"Lose","Action":"No-Go","Sham":1,"Color":"yellow","trial_type":"pit-trial","trial_index":243,"time_elapsed":962079,"internal_node_id":"0.0-232.0","task_version":"test-retest-t2"},{"Rune":"rune_06_ehwaz","Hex":"#3366ff99","Correct":-1,"Choice":-1,"RT":-1,"Accuracy":1,"Outcome":"+10","Keys":[],"TotalKeys":0,"Block":2,"Trial":225,"Robot":2,"Valence":"Win","Action":"No-Go","Sham":0,"Color":"blue","trial_type":"pit-trial","trial_index":244,"time_elapsed":966093,"internal_node_id":"0.0-233.0","task_version":"test-retest-t2"},{"Rune":"rune_06_berkanan","Hex":"#ffcc3399","Correct":-1,"Choice":-1,"RT":-1,"Accuracy":1,"Outcome":"-1","Keys":[],"TotalKeys":0,"Block":2,"Trial":226,"Robot":4,"Valence":"Lose","Action":"No-Go","Sham":0,"Color":"yellow","trial_type":"pit-trial","trial_index":245,"time_elapsed":970100,"internal_node_id":"0.0-234.0","task_version":"test-retest-t2"},{"Rune":"rune_06_ansuz","Hex":"#ffcc3399","Correct":32,"Choice":32,"RT":409.05000001657754,"Accuracy":1,"Outcome":"-1","Keys":[1909.4650000333786],"TotalKeys":1,"Block":2,"Trial":227,"Robot":3,"Valence":"Lose","Action":"Go","Sham":0,"Color":"yellow","trial_type":"pit-trial","trial_index":246,"time_elapsed":973015,"internal_node_id":"0.0-235.0","task_version":"test-retest-t2"},{"Rune":"rune_06_cweord","Hex":"#3366ff99","Correct":32,"Choice":32,"RT":418.13500004354864,"Accuracy":1,"Outcome":"+10","Keys":[1918.8500000163913],"TotalKeys":1,"Block":2,"Trial":228,"Robot":1,"Valence":"Win","Action":"Go","Sham":0,"Color":"blue","trial_type":"pit-trial","trial_index":247,"time_elapsed":975939,"internal_node_id":"0.0-236.0","task_version":"test-retest-t2"},{"Rune":"rune_06_cweord","Hex":"#3366ff99","Correct":32,"Choice":32,"RT":406.2600000179373,"Accuracy":1,"Outcome":"+10","Keys":[1907.1400000248104],"TotalKeys":1,"Block":2,"Trial":229,"Robot":1,"Valence":"Win","Action":"Go","Sham":0,"Color":"blue","trial_type":"pit-trial","trial_index":248,"time_elapsed":978851,"internal_node_id":"0.0-237.0","task_version":"test-retest-t2"},{"Rune":"rune_06_ehwaz","Hex":"#3366ff99","Correct":-1,"Choice":-1,"RT":-1,"Accuracy":1,"Outcome":"+10","Keys":[],"TotalKeys":0,"Block":2,"Trial":230,"Robot":2,"Valence":"Win","Action":"No-Go","Sham":0,"Color":"blue","trial_type":"pit-trial","trial_index":249,"time_elapsed":982858,"internal_node_id":"0.0-238.0","task_version":"test-retest-t2"},{"Rune":"rune_06_berkanan","Hex":"#ffcc3399","Correct":-1,"Choice":-1,"RT":-1,"Accuracy":1,"Outcome":"-1","Keys":[],"TotalKeys":0,"Block":2,"Trial":231,"Robot":4,"Valence":"Lose","Action":"No-Go","Sham":0,"Color":"yellow","trial_type":"pit-trial","trial_index":250,"time_elapsed":986865,"internal_node_id":"0.0-239.0","task_version":"test-retest-t2"},{"Rune":"rune_06_ansuz","Hex":"#ffcc3399","Correct":32,"Choice":32,"RT":561.5899999975227,"Accuracy":1,"Outcome":"-1","Keys":[2062.0850000414066],"TotalKeys":1,"Block":2,"Trial":232,"Robot":3,"Valence":"Lose","Action":"Go","Sham":0,"Color":"yellow","trial_type":"pit-trial","trial_index":251,"time_elapsed":989932,"internal_node_id":"0.0-240.0","task_version":"test-retest-t2"},{"Rune":"rune_06_ansuz","Hex":"#ffcc3399","Correct":32,"Choice":32,"RT":467.66500000376254,"Accuracy":1,"Outcome":"-1","Keys":[1968.6600000131875],"TotalKeys":1,"Block":2,"Trial":233,"Robot":3,"Valence":"Lose","Action":"Go","Sham":0,"Color":"yellow","trial_type":"pit-trial","trial_index":252,"time_elapsed":992906,"internal_node_id":"0.0-241.0","task_version":"test-retest-t2"},{"Rune":"rune_06_ehwaz","Hex":"#3366ff99","Correct":-1,"Choice":-1,"RT":-1,"Accuracy":1,"Outcome":"+10","Keys":[],"TotalKeys":0,"Block":2,"Trial":234,"Robot":2,"Valence":"Win","Action":"No-Go","Sham":0,"Color":"blue","trial_type":"pit-trial","trial_index":253,"time_elapsed":996913,"internal_node_id":"0.0-242.0","task_version":"test-retest-t2"},{"Rune":"rune_06_berkanan","Hex":"#ffcc3399","Correct":-1,"Choice":-1,"RT":-1,"Accuracy":1,"Outcome":"-1","Keys":[],"TotalKeys":0,"Block":2,"Trial":235,"Robot":4,"Valence":"Lose","Action":"No-Go","Sham":0,"Color":"yellow","trial_type":"pit-trial","trial_index":254,"time_elapsed":1000919,"internal_node_id":"0.0-243.0","task_version":"test-retest-t2"},{"Rune":"rune_06_cweord","Hex":"#3366ff99","Correct":32,"Choice":32,"RT":518.5799999744631,"Accuracy":1,"Outcome":"+1","Keys":[2018.7600000062957],"TotalKeys":1,"Block":2,"Trial":236,"Robot":1,"Valence":"Win","Action":"Go","Sham":1,"Color":"blue","trial_type":"pit-trial","trial_index":255,"time_elapsed":1003943,"internal_node_id":"0.0-244.0","task_version":"test-retest-t2"},{"Rune":"rune_06_ansuz","Hex":"#ffcc3399","Correct":32,"Choice":32,"RT":496.4299999992363,"Accuracy":1,"Outcome":"-10","Keys":[1998.395000002347],"TotalKeys":1,"Block":2,"Trial":237,"Robot":3,"Valence":"Lose","Action":"Go","Sham":1,"Color":"yellow","trial_type":"pit-trial","trial_index":256,"time_elapsed":1006947,"internal_node_id":"0.0-245.0","task_version":"test-retest-t2"},{"Rune":"rune_06_cweord","Hex":"#3366ff99","Correct":32,"Choice":32,"RT":790.0950000039302,"Accuracy":1,"Outcome":"+10","Keys":[2292.0049999956973],"TotalKeys":1,"Block":2,"Trial":238,"Robot":1,"Valence":"Win","Action":"Go","Sham":0,"Color":"blue","trial_type":"pit-trial","trial_index":257,"time_elapsed":1010244,"internal_node_id":"0.0-246.0","task_version":"test-retest-t2"},{"Rune":"rune_06_ehwaz","Hex":"#3366ff99","Correct":-1,"Choice":-1,"RT":-1,"Accuracy":1,"Outcome":"+10","Keys":[],"TotalKeys":0,"Block":2,"Trial":239,"Robot":2,"Valence":"Win","Action":"No-Go","Sham":0,"Color":"blue","trial_type":"pit-trial","trial_index":258,"time_elapsed":1014251,"internal_node_id":"0.0-247.0","task_version":"test-retest-t2"},{"Rune":"rune_06_berkanan","Hex":"#ffcc3399","Correct":-1,"Choice":-1,"RT":-1,"Accuracy":1,"Outcome":"-1","Keys":[],"TotalKeys":0,"Block":2,"Trial":240,"Robot":4,"Valence":"Lose","Action":"No-Go","Sham":0,"Color":"yellow","trial_type":"pit-trial","trial_index":259,"time_elapsed":1018259,"internal_node_id":"0.0-248.0","task_version":"test-retest-t2"},{"view_history":"[{\"page_index\":0,\"viewing_time\":2632.1300000417978}]","rt":2632.5550000183284,"trial_type":"pit-instructions","trial_index":260,"time_elapsed":1020894,"internal_node_id":"0.0-249.0","task_version":"test-retest-t2"},{"rt":13595.659999991767,"responses":{"difficulty":"5","fun":"4","clarity":"5","strategy":"remember the symbols","feedback":"none"},"survey":"debrief","trial_type":"survey-debrief","trial_index":261,"time_elapsed":1034493,"internal_node_id":"0.0-250.0","task_version":"test-retest-t2"},{"rt":2975.7799999788404,"stimulus":"You earned a bonus of $1.37 out of $1.5.<br><br>Press any key to complete the experiment.","key_press":32,"trial_type":"html-keyboard-response","trial_index":262,"time_elapsed":1037471,"internal_node_id":"0.0-251.0","task_version":"test-retest-t2","accuracy":0.9125,"bonus":1.37,"interactions":"[]"}]