[{"slider_type":"valence","raw_loc":484,"loc":0.468,"trial_type":"affective-slider","trial_index":0,"time_elapsed":3725,"internal_node_id":"0.0-0.0","task_version":"test-retest-t4"},{"responses":{"Q02":"3","Q12":"2","Q15":"0","Q13":"0","Q09":"2","Q04":"0","Q10":"2","Q07":"0","Q03":"0","Q05":"2","Q08":"0","Q01":"0","Q06":"0","Q11":"2","Q14":"2"},"rt":80288.17000007257,"survey":"7up7down","trial_type":"survey-template","trial_index":1,"time_elapsed":84017,"internal_node_id":"0.0-1.0","task_version":"test-retest-t4"},{"responses":{"Q02":"2","Q04":"2","Q07":"2","Q06":"3","Q08":"1","Q10":"1","Q05":"1","Q01":"2","Q03":"3","Q11":"1","Q09":"0","Q12":"0","Q13":"0"},"rt":37105.109999887645,"survey":"bisbas","trial_type":"survey-template","trial_index":2,"time_elapsed":121126,"internal_node_id":"0.0-2.0","task_version":"test-retest-t4"},{"responses":{"Q06":"3","Q08":"0","Q01":"3","Q02":"3","Q05":"2","Q07":"2","Q03":"3","Q04":"1"},"rt":16840.855000074953,"survey":"gad7","trial_type":"survey-template","trial_index":3,"time_elapsed":137970,"internal_node_id":"0.0-3.0","task_version":"test-retest-t4"},{"view_history":"[{\"page_index\":0,\"viewing_time\":1694.809999782592},{\"page_index\":1,\"viewing_time\":1065.7350001856685},{\"page_index\":2,\"viewing_time\":1944.0349997021258},{\"page_index\":3,\"viewing_time\":3376.085000112653},{\"page_index\":4,\"viewing_time\":993.9250000752509},{\"page_index\":5,\"viewing_time\":737.9350000992417}]","rt":9813.30499984324,"trial_type":"pit-instructions","trial_index":4,"time_elapsed":147788,"internal_node_id":"0.0-4.0-0.0","task_version":"test-retest-t4"},{"Rune":"rune_00_ingz","Hex":"#FFFFF080","Correct":32,"Choice":32,"RT":519.8849998414516,"Accuracy":1,"Outcome":"+10","Keys":[2021.015000063926],"TotalKeys":1,"Block":0,"Action":"Go","trial_type":"pit-trial","trial_index":5,"time_elapsed":150814,"internal_node_id":"0.0-4.0-1.0-0.0","task_version":"test-retest-t4"},{"Rune":"rune_00_ingz","Hex":"#FFFFF080","Correct":32,"Choice":32,"RT":233.56999969109893,"Accuracy":1,"Outcome":"+10","Keys":[1734.4899997115135],"TotalKeys":1,"Block":0,"Action":"Go","trial_type":"pit-trial","trial_index":6,"time_elapsed":153550,"internal_node_id":"0.0-4.0-1.0-0.1","task_version":"test-retest-t4"},{"Rune":"rune_00_ingz","Hex":"#FFFFF080","Correct":32,"Choice":32,"RT":249.1100002080202,"Accuracy":1,"Outcome":"+10","Keys":[1749.9700002372265],"TotalKeys":1,"Block":0,"Action":"Go","trial_type":"pit-trial","trial_index":7,"time_elapsed":156303,"internal_node_id":"0.0-4.0-1.0-0.2","task_version":"test-retest-t4"},{"Rune":"rune_00_ingz","Hex":"#FFFFF080","Correct":32,"Choice":32,"RT":199.33500001206994,"Accuracy":1,"Outcome":"+10","Keys":[1701.0550000704825],"TotalKeys":1,"Block":0,"Action":"Go","trial_type":"pit-trial","trial_index":8,"time_elapsed":159007,"internal_node_id":"0.0-4.0-1.0-0.3","task_version":"test-retest-t4"},{"view_history":"[{\"page_index\":0,\"viewing_time\":1898.114999756217}]","rt":1898.5299998894334,"trial_type":"pit-instructions","trial_index":9,"time_elapsed":160907,"internal_node_id":"0.0-4.0-2.0","task_version":"test-retest-t4"},{"Rune":"rune_00_isaz","Hex":"#FFFFF080","Correct":-1,"Choice":-1,"RT":-1,"Accuracy":1,"Outcome":"+10","Keys":[],"TotalKeys":0,"Block":0,"Action":"No-Go","trial_type":"pit-trial","trial_index":10,"time_elapsed":164911,"internal_node_id":"0.0-4.0-3.0-0.0","task_version":"test-retest-t4"},{"Rune":"rune_00_isaz","Hex":"#FFFFF080","Correct":-1,"Choice":-1,"RT":-1,"Accuracy":1,"Outcome":"+10","Keys":[],"TotalKeys":0,"Block":0,"Action":"No-Go","trial_type":"pit-trial","trial_index":11,"time_elapsed":168916,"internal_node_id":"0.0-4.0-3.0-0.1","task_version":"test-retest-t4"},{"Rune":"rune_00_isaz","Hex":"#FFFFF080","Correct":-1,"Choice":-1,"RT":-1,"Accuracy":1,"Outcome":"+10","Keys":[],"TotalKeys":0,"Block":0,"Action":"No-Go","trial_type":"pit-trial","trial_index":12,"time_elapsed":172919,"internal_node_id":"0.0-4.0-3.0-0.2","task_version":"test-retest-t4"},{"Rune":"rune_00_isaz","Hex":"#FFFFF080","Correct":-1,"Choice":-1,"RT":-1,"Accuracy":1,"Outcome":"+10","Keys":[],"TotalKeys":0,"Block":0,"Action":"No-Go","trial_type":"pit-trial","trial_index":13,"time_elapsed":176938,"internal_node_id":"0.0-4.0-3.0-0.3","task_version":"test-retest-t4"},{"view_history":"[{\"page_index\":0,\"viewing_time\":1621.5099999681115},{\"page_index\":1,\"viewing_time\":1275.8900001645088},{\"page_index\":2,\"viewing_time\":1090.0900000706315},{\"page_index\":3,\"viewing_time\":1145.9599998779595},{\"page_index\":4,\"viewing_time\":927.1949999965727},{\"page_index\":5,\"viewing_time\":1158.799999859184},{\"page_index\":6,\"viewing_time\":774.0000002086163},{\"page_index\":7,\"viewing_time\":803.9750000461936}]","rt":8797.82500024885,"trial_type":"pit-instructions","trial_index":14,"time_elapsed":185737,"internal_node_id":"0.0-4.0-4.0","task_version":"test-retest-t4"},{"responses":["Do nothing","+10","-1","True","Yes"],"num_errors":0,"rt":19599.370000418276,"trial_type":"pit-comprehension","trial_index":15,"time_elapsed":205340,"internal_node_id":"0.0-4.0-5.0","task_version":"test-retest-t4"},{"trial_type":"call-function","trial_index":16,"time_elapsed":205344,"internal_node_id":"0.0-5.0","task_version":"test-retest-t4"},{"view_history":"[{\"page_index\":0,\"viewing_time\":1674.0450002253056},{\"page_index\":1,\"viewing_time\":737.1000000275671},{\"page_index\":2,\"viewing_time\":778.8049997761846}]","rt":3190.345000009984,"trial_type":"pit-instructions","trial_index":17,"time_elapsed":208535,"internal_node_id":"0.0-6.0","task_version":"test-retest-t4"},{"Rune":"rune_08_mannaz","Hex":"#3366ff99","Correct":32,"Choice":32,"RT":719.0450001507998,"Accuracy":1,"Outcome":"-1","Keys":[2220.334999728948],"TotalKeys":1,"Block":1,"Trial":1,"Robot":3,"Valence":"Lose","Action":"Go","Sham":0,"Color":"blue","trial_type":"pit-trial","trial_index":18,"time_elapsed":211762,"internal_node_id":"0.0-7.0","task_version":"test-retest-t4"},{"Rune":"rune_08_sigel","Hex":"#3366ff99","Correct":-1,"Choice":32,"RT":821.5999999083579,"Accuracy":0,"Outcome":"-10","Keys":[2321.855000220239],"TotalKeys":1,"Block":1,"Trial":2,"Robot":4,"Valence":"Lose","Action":"No-Go","Sham":0,"Color":"blue","trial_type":"pit-trial","trial_index":19,"time_elapsed":215087,"internal_node_id":"0.0-8.0","task_version":"test-retest-t4"},{"Rune":"rune_08_fehu","Hex":"#ffcc3399","Correct":-1,"Choice":32,"RT":571.8649998307228,"Accuracy":0,"Outcome":"+1","Keys":[2072.0850001089275],"TotalKeys":1,"Block":1,"Trial":3,"Robot":2,"Valence":"Win","Action":"No-Go","Sham":0,"Color":"yellow","trial_type":"pit-trial","trial_index":20,"time_elapsed":218163,"internal_node_id":"0.0-9.0","task_version":"test-retest-t4"},{"Rune":"rune_08_pertho","Hex":"#ffcc3399","Correct":32,"Choice":32,"RT":470.5999996513128,"Accuracy":1,"Outcome":"+10","Keys":[1971.4399999938905],"TotalKeys":1,"Block":1,"Trial":4,"Robot":1,"Valence":"Win","Action":"Go","Sham":0,"Color":"yellow","trial_type":"pit-trial","trial_index":21,"time_elapsed":221137,"internal_node_id":"0.0-10.0","task_version":"test-retest-t4"},{"Rune":"rune_08_fehu","Hex":"#ffcc3399","Correct":-1,"Choice":32,"RT":628.8399999029934,"Accuracy":0,"Outcome":"+1","Keys":[2129.975000396371],"TotalKeys":1,"Block":1,"Trial":5,"Robot":2,"Valence":"Win","Action":"No-Go","Sham":0,"Color":"yellow","trial_type":"pit-trial","trial_index":22,"time_elapsed":224269,"internal_node_id":"0.0-11.0","task_version":"test-retest-t4"},{"Rune":"rune_08_sigel","Hex":"#3366ff99","Correct":-1,"Choice":32,"RT":784.3949999660254,"Accuracy":0,"Outcome":"-1","Keys":[2285.1950000040233],"TotalKeys":1,"Block":1,"Trial":6,"Robot":4,"Valence":"Lose","Action":"No-Go","Sham":1,"Color":"blue","trial_type":"pit-trial","trial_index":23,"time_elapsed":227557,"internal_node_id":"0.0-12.0","task_version":"test-retest-t4"},{"Rune":"rune_08_mannaz","Hex":"#3366ff99","Correct":32,"Choice":32,"RT":987.2950003482401,"Accuracy":1,"Outcome":"-1","Keys":[2488.280000165105],"TotalKeys":1,"Block":1,"Trial":7,"Robot":3,"Valence":"Lose","Action":"Go","Sham":0,"Color":"blue","trial_type":"pit-trial","trial_index":24,"time_elapsed":231048,"internal_node_id":"0.0-13.0","task_version":"test-retest-t4"},{"Rune":"rune_08_pertho","Hex":"#ffcc3399","Correct":32,"Choice":-1,"RT":-1,"Accuracy":0,"Outcome":"+1","Keys":[],"TotalKeys":0,"Block":1,"Trial":8,"Robot":1,"Valence":"Win","Action":"Go","Sham":0,"Color":"yellow","trial_type":"pit-trial","trial_index":25,"time_elapsed":235052,"internal_node_id":"0.0-14.0","task_version":"test-retest-t4"},{"Rune":"rune_08_fehu","Hex":"#ffcc3399","Correct":-1,"Choice":-1,"RT":-1,"Accuracy":1,"Outcome":"+10","Keys":[],"TotalKeys":0,"Block":1,"Trial":9,"Robot":2,"Valence":"Win","Action":"No-Go","Sham":0,"Color":"yellow","trial_type":"pit-trial","trial_index":26,"time_elapsed":239056,"internal_node_id":"0.0-15.0","task_version":"test-retest-t4"},{"Rune":"rune_08_mannaz","Hex":"#3366ff99","Correct":32,"Choice":-1,"RT":-1,"Accuracy":0,"Outcome":"-1","Keys":[],"TotalKeys":0,"Block":1,"Trial":10,"Robot":3,"Valence":"Lose","Action":"Go","Sham":1,"Color":"blue","trial_type":"pit-trial","trial_index":27,"time_elapsed":243060,"internal_node_id":"0.0-16.0","task_version":"test-retest-t4"},{"Rune":"rune_08_sigel","Hex":"#3366ff99","Correct":-1,"Choice":-1,"RT":-1,"Accuracy":1,"Outcome":"-1","Keys":[],"TotalKeys":0,"Block":1,"Trial":11,"Robot":4,"Valence":"Lose","Action":"No-Go","Sham":0,"Color":"blue","trial_type":"pit-trial","trial_index":28,"time_elapsed":247064,"internal_node_id":"0.0-17.0","task_version":"test-retest-t4"},{"Rune":"rune_08_pertho","Hex":"#ffcc3399","Correct":32,"Choice":-1,"RT":-1,"Accuracy":0,"Outcome":"+1","Keys":[],"TotalKeys":0,"Block":1,"Trial":12,"Robot":1,"Valence":"Win","Action":"Go","Sham":0,"Color":"yellow","trial_type":"pit-trial","trial_index":29,"time_elapsed":251067,"internal_node_id":"0.0-18.0","task_version":"test-retest-t4"},{"Rune":"rune_08_sigel","Hex":"#3366ff99","Correct":-1,"Choice":-1,"RT":-1,"Accuracy":1,"Outcome":"-1","Keys":[],"TotalKeys":0,"Block":1,"Trial":13,"Robot":4,"Valence":"Lose","Action":"No-Go","Sham":0,"Color":"blue","trial_type":"pit-trial","trial_index":30,"time_elapsed":255070,"internal_node_id":"0.0-19.0","task_version":"test-retest-t4"},{"Rune":"rune_08_pertho","Hex":"#ffcc3399","Correct":32,"Choice":32,"RT":569.7449999861419,"Accuracy":1,"Outcome":"+1","Keys":[2070.9999999962747],"TotalKeys":1,"Block":1,"Trial":14,"Robot":1,"Valence":"Win","Action":"Go","Sham":1,"Color":"yellow","trial_type":"pit-trial","trial_index":31,"time_elapsed":258143,"internal_node_id":"0.0-20.0","task_version":"test-retest-t4"},{"Rune":"rune_08_mannaz","Hex":"#3366ff99","Correct":32,"Choice":-1,"RT":-1,"Accuracy":0,"Outcome":"-10","Keys":[],"TotalKeys":0,"Block":1,"Trial":15,"Robot":3,"Valence":"Lose","Action":"Go","Sham":0,"Color":"blue","trial_type":"pit-trial","trial_index":32,"time_elapsed":262147,"internal_node_id":"0.0-21.0","task_version":"test-retest-t4"},{"Rune":"rune_08_fehu","Hex":"#ffcc3399","Correct":-1,"Choice":-1,"RT":-1,"Accuracy":1,"Outcome":"+10","Keys":[],"TotalKeys":0,"Block":1,"Trial":16,"Robot":2,"Valence":"Win","Action":"No-Go","Sham":0,"Color":"yellow","trial_type":"pit-trial","trial_index":33,"time_elapsed":266151,"internal_node_id":"0.0-22.0","task_version":"test-retest-t4"},{"Rune":"rune_08_sigel","Hex":"#3366ff99","Correct":-1,"Choice":-1,"RT":-1,"Accuracy":1,"Outcome":"-1","Keys":[],"TotalKeys":0,"Block":1,"Trial":17,"Robot":4,"Valence":"Lose","Action":"No-Go","Sham":0,"Color":"blue","trial_type":"pit-trial","trial_index":34,"time_elapsed":270156,"internal_node_id":"0.0-23.0","task_version":"test-retest-t4"},{"Rune":"rune_08_pertho","Hex":"#ffcc3399","Correct":32,"Choice":32,"RT":388.8849997892976,"Accuracy":1,"Outcome":"+10","Keys":[1889.6950003691018],"TotalKeys":1,"Block":1,"Trial":18,"Robot":1,"Valence":"Win","Action":"Go","Sham":0,"Color":"yellow","trial_type":"pit-trial","trial_index":35,"time_elapsed":273048,"internal_node_id":"0.0-24.0","task_version":"test-retest-t4"},{"Rune":"rune_08_mannaz","Hex":"#3366ff99","Correct":32,"Choice":32,"RT":516.9049999676645,"Accuracy":1,"Outcome":"-1","Keys":[2017.6000003702939],"TotalKeys":1,"Block":1,"Trial":19,"Robot":3,"Valence":"Lose","Action":"Go","Sham":0,"Color":"blue","trial_type":"pit-trial","trial_index":36,"time_elapsed":276068,"internal_node_id":"0.0-25.0","task_version":"test-retest-t4"},{"Rune":"rune_08_fehu","Hex":"#ffcc3399","Correct":-1,"Choice":-1,"RT":-1,"Accuracy":1,"Outcome":"+1","Keys":[],"TotalKeys":0,"Block":1,"Trial":20,"Robot":2,"Valence":"Win","Action":"No-Go","Sham":1,"Color":"yellow","trial_type":"pit-trial","trial_index":37,"time_elapsed":280071,"internal_node_id":"0.0-26.0","task_version":"test-retest-t4"},{"Rune":"rune_08_fehu","Hex":"#ffcc3399","Correct":-1,"Choice":32,"RT":386.0100000165403,"Accuracy":0,"Outcome":"+10","Keys":[1886.7250001057982],"TotalKeys":1,"Block":1,"Trial":21,"Robot":2,"Valence":"Win","Action":"No-Go","Sham":1,"Color":"yellow","trial_type":"pit-trial","trial_index":38,"time_elapsed":282960,"internal_node_id":"0.0-27.0","task_version":"test-retest-t4"},{"Rune":"rune_08_pertho","Hex":"#ffcc3399","Correct":32,"Choice":32,"RT":527.0699998363853,"Accuracy":1,"Outcome":"+10","Keys":[2028.1150001101196],"TotalKeys":1,"Block":1,"Trial":22,"Robot":1,"Valence":"Win","Action":"Go","Sham":0,"Color":"yellow","trial_type":"pit-trial","trial_index":39,"time_elapsed":285990,"internal_node_id":"0.0-28.0","task_version":"test-retest-t4"},{"Rune":"rune_08_sigel","Hex":"#3366ff99","Correct":-1,"Choice":-1,"RT":-1,"Accuracy":1,"Outcome":"-10","Keys":[],"TotalKeys":0,"Block":1,"Trial":23,"Robot":4,"Valence":"Lose","Action":"No-Go","Sham":1,"Color":"blue","trial_type":"pit-trial","trial_index":40,"time_elapsed":289995,"internal_node_id":"0.0-29.0","task_version":"test-retest-t4"},{"Rune":"rune_08_mannaz","Hex":"#3366ff99","Correct":32,"Choice":-1,"RT":-1,"Accuracy":0,"Outcome":"-10","Keys":[],"TotalKeys":0,"Block":1,"Trial":24,"Robot":3,"Valence":"Lose","Action":"Go","Sham":0,"Color":"blue","trial_type":"pit-trial","trial_index":41,"time_elapsed":293999,"internal_node_id":"0.0-30.0","task_version":"test-retest-t4"},{"Rune":"rune_08_sigel","Hex":"#3366ff99","Correct":-1,"Choice":32,"RT":1067.0950002968311,"Accuracy":0,"Outcome":"-10","Keys":[2568.6449999921024],"TotalKeys":1,"Block":1,"Trial":25,"Robot":4,"Valence":"Lose","Action":"No-Go","Sham":0,"Color":"blue","trial_type":"pit-trial","trial_index":42,"time_elapsed":297571,"internal_node_id":"0.0-31.0","task_version":"test-retest-t4"},{"Rune":"rune_08_mannaz","Hex":"#3366ff99","Correct":32,"Choice":32,"RT":588.810000102967,"Accuracy":1,"Outcome":"-1","Keys":[2090.5100000090897],"TotalKeys":1,"Block":1,"Trial":26,"Robot":3,"Valence":"Lose","Action":"Go","Sham":0,"Color":"blue","trial_type":"pit-trial","trial_index":43,"time_elapsed":300666,"internal_node_id":"0.0-32.0","task_version":"test-retest-t4"},{"Rune":"rune_08_fehu","Hex":"#ffcc3399","Correct":-1,"Choice":32,"RT":956.40500029549,"Accuracy":0,"Outcome":"+1","Keys":[2457.3849998414516],"TotalKeys":1,"Block":1,"Trial":27,"Robot":2,"Valence":"Win","Action":"No-Go","Sham":0,"Color":"yellow","trial_type":"pit-trial","trial_index":44,"time_elapsed":304127,"internal_node_id":"0.0-33.0","task_version":"test-retest-t4"},{"Rune":"rune_08_pertho","Hex":"#ffcc3399","Correct":32,"Choice":32,"RT":466.7700002901256,"Accuracy":1,"Outcome":"+10","Keys":[1967.885000165552],"TotalKeys":1,"Block":1,"Trial":28,"Robot":1,"Valence":"Win","Action":"Go","Sham":0,"Color":"yellow","trial_type":"pit-trial","trial_index":45,"time_elapsed":307096,"internal_node_id":"0.0-34.0","task_version":"test-retest-t4"},{"Rune":"rune_08_sigel","Hex":"#3366ff99","Correct":-1,"Choice":-1,"RT":-1,"Accuracy":1,"Outcome":"-1","Keys":[],"TotalKeys":0,"Block":1,"Trial":29,"Robot":4,"Valence":"Lose","Action":"No-Go","Sham":0,"Color":"blue","trial_type":"pit-trial","trial_index":46,"time_elapsed":311100,"internal_node_id":"0.0-35.0","task_version":"test-retest-t4"},{"Rune":"rune_08_pertho","Hex":"#ffcc3399","Correct":32,"Choice":32,"RT":428.139999974519,"Accuracy":1,"Outcome":"+1","Keys":[1929.2900003492832],"TotalKeys":1,"Block":1,"Trial":30,"Robot":1,"Valence":"Win","Action":"Go","Sham":1,"Color":"yellow","trial_type":"pit-trial","trial_index":47,"time_elapsed":314032,"internal_node_id":"0.0-36.0","task_version":"test-retest-t4"},{"Rune":"rune_08_mannaz","Hex":"#3366ff99","Correct":32,"Choice":32,"RT":473.059999756515,"Accuracy":1,"Outcome":"-1","Keys":[1973.3250001445413],"TotalKeys":1,"Block":1,"Trial":31,"Robot":3,"Valence":"Lose","Action":"Go","Sham":0,"Color":"blue","trial_type":"pit-trial","trial_index":48,"time_elapsed":317008,"internal_node_id":"0.0-37.0","task_version":"test-retest-t4"},{"Rune":"rune_08_fehu","Hex":"#ffcc3399","Correct":-1,"Choice":32,"RT":481.459999922663,"Accuracy":0,"Outcome":"+1","Keys":[1982.5849998742342],"TotalKeys":1,"Block":1,"Trial":32,"Robot":2,"Valence":"Win","Action":"No-Go","Sham":0,"Color":"yellow","trial_type":"pit-trial","trial_index":49,"time_elapsed":319992,"internal_node_id":"0.0-38.0","task_version":"test-retest-t4"},{"Rune":"rune_08_mannaz","Hex":"#3366ff99","Correct":32,"Choice":32,"RT":546.3250000029802,"Accuracy":1,"Outcome":"-10","Keys":[2046.7350003309548],"TotalKeys":1,"Block":1,"Trial":33,"Robot":3,"Valence":"Lose","Action":"Go","Sham":1,"Color":"blue","trial_type":"pit-trial","trial_index":50,"time_elapsed":323042,"internal_node_id":"0.0-39.0","task_version":"test-retest-t4"},{"Rune":"rune_08_fehu","Hex":"#ffcc3399","Correct":-1,"Choice":-1,"RT":-1,"Accuracy":1,"Outcome":"+10","Keys":[],"TotalKeys":0,"Block":1,"Trial":34,"Robot":2,"Valence":"Win","Action":"No-Go","Sham":0,"Color":"yellow","trial_type":"pit-trial","trial_index":51,"time_elapsed":327046,"internal_node_id":"0.0-40.0","task_version":"test-retest-t4"},{"Rune":"rune_08_pertho","Hex":"#ffcc3399","Correct":32,"Choice":32,"RT":459.92999989539385,"Accuracy":1,"Outcome":"+10","Keys":[1960.2449997328222],"TotalKeys":1,"Block":1,"Trial":35,"Robot":1,"Valence":"Win","Action":"Go","Sham":0,"Color":"yellow","trial_type":"pit-trial","trial_index":52,"time_elapsed":330008,"internal_node_id":"0.0-41.0","task_version":"test-retest-t4"},{"Rune":"rune_08_sigel","Hex":"#3366ff99","Correct":-1,"Choice":-1,"RT":-1,"Accuracy":1,"Outcome":"-1","Keys":[],"TotalKeys":0,"Block":1,"Trial":36,"Robot":4,"Valence":"Lose","Action":"No-Go","Sham":0,"Color":"blue","trial_type":"pit-trial","trial_index":53,"time_elapsed":334011,"internal_node_id":"0.0-42.0","task_version":"test-retest-t4"},{"Rune":"rune_08_mannaz","Hex":"#3366ff99","Correct":32,"Choice":32,"RT":606.2549999915063,"Accuracy":1,"Outcome":"-1","Keys":[2106.7050001583993],"TotalKeys":1,"Block":1,"Trial":37,"Robot":3,"Valence":"Lose","Action":"Go","Sham":0,"Color":"blue","trial_type":"pit-trial","trial_index":54,"time_elapsed":337121,"internal_node_id":"0.0-43.0","task_version":"test-retest-t4"},{"Rune":"rune_08_pertho","Hex":"#ffcc3399","Correct":32,"Choice":32,"RT":496.46000005304813,"Accuracy":1,"Outcome":"+10","Keys":[1996.8699999153614],"TotalKeys":1,"Block":1,"Trial":38,"Robot":1,"Valence":"Win","Action":"Go","Sham":0,"Color":"yellow","trial_type":"pit-trial","trial_index":55,"time_elapsed":340120,"internal_node_id":"0.0-44.0","task_version":"test-retest-t4"},{"Rune":"rune_08_fehu","Hex":"#ffcc3399","Correct":-1,"Choice":-1,"RT":-1,"Accuracy":1,"Outcome":"+10","Keys":[],"TotalKeys":0,"Block":1,"Trial":39,"Robot":2,"Valence":"Win","Action":"No-Go","Sham":0,"Color":"yellow","trial_type":"pit-trial","trial_index":56,"time_elapsed":344124,"internal_node_id":"0.0-45.0","task_version":"test-retest-t4"},{"Rune":"rune_08_sigel","Hex":"#3366ff99","Correct":-1,"Choice":-1,"RT":-1,"Accuracy":1,"Outcome":"-1","Keys":[],"TotalKeys":0,"Block":1,"Trial":40,"Robot":4,"Valence":"Lose","Action":"No-Go","Sham":0,"Color":"blue","trial_type":"pit-trial","trial_index":57,"time_elapsed":348127,"internal_node_id":"0.0-46.0","task_version":"test-retest-t4"},{"Rune":"rune_08_sigel","Hex":"#3366ff99","Correct":-1,"Choice":-1,"RT":-1,"Accuracy":1,"Outcome":"-1","Keys":[],"TotalKeys":0,"Block":1,"Trial":41,"Robot":4,"Valence":"Lose","Action":"No-Go","Sham":0,"Color":"blue","trial_type":"pit-trial","trial_index":58,"time_elapsed":352129,"internal_node_id":"0.0-47.0","task_version":"test-retest-t4"},{"Rune":"rune_08_fehu","Hex":"#ffcc3399","Correct":-1,"Choice":-1,"RT":-1,"Accuracy":1,"Outcome":"+10","Keys":[],"TotalKeys":0,"Block":1,"Trial":42,"Robot":2,"Valence":"Win","Action":"No-Go","Sham":0,"Color":"yellow","trial_type":"pit-trial","trial_index":59,"time_elapsed":356133,"internal_node_id":"0.0-48.0","task_version":"test-retest-t4"},{"Rune":"rune_08_pertho","Hex":"#ffcc3399","Correct":32,"Choice":32,"RT":385.66000014543533,"Accuracy":1,"Outcome":"+10","Keys":[1886.6249998100102],"TotalKeys":1,"Block":1,"Trial":43,"Robot":1,"Valence":"Win","Action":"Go","Sham":0,"Color":"yellow","trial_type":"pit-trial","trial_index":60,"time_elapsed":359021,"internal_node_id":"0.0-49.0","task_version":"test-retest-t4"},{"Rune":"rune_08_mannaz","Hex":"#3366ff99","Correct":32,"Choice":32,"RT":695.3449998982251,"Accuracy":1,"Outcome":"-1","Keys":[2195.7800001837313],"TotalKeys":1,"Block":1,"Trial":44,"Robot":3,"Valence":"Lose","Action":"Go","Sham":0,"Color":"blue","trial_type":"pit-trial","trial_index":61,"time_elapsed":362220,"internal_node_id":"0.0-50.0","task_version":"test-retest-t4"},{"Rune":"rune_08_fehu","Hex":"#ffcc3399","Correct":-1,"Choice":-1,"RT":-1,"Accuracy":1,"Outcome":"+1","Keys":[],"TotalKeys":0,"Block":1,"Trial":45,"Robot":2,"Valence":"Win","Action":"No-Go","Sham":1,"Color":"yellow","trial_type":"pit-trial","trial_index":62,"time_elapsed":366225,"internal_node_id":"0.0-51.0","task_version":"test-retest-t4"},{"Rune":"rune_08_pertho","Hex":"#ffcc3399","Correct":32,"Choice":32,"RT":440.6300000846386,"Accuracy":1,"Outcome":"+10","Keys":[1942.1350001357496],"TotalKeys":1,"Block":1,"Trial":46,"Robot":1,"Valence":"Win","Action":"Go","Sham":0,"Color":"yellow","trial_type":"pit-trial","trial_index":63,"time_elapsed":369169,"internal_node_id":"0.0-52.0","task_version":"test-retest-t4"},{"Rune":"rune_08_mannaz","Hex":"#3366ff99","Correct":32,"Choice":32,"RT":555.7900001294911,"Accuracy":1,"Outcome":"-1","Keys":[2057.215000037104],"TotalKeys":1,"Block":1,"Trial":47,"Robot":3,"Valence":"Lose","Action":"Go","Sham":0,"Color":"blue","trial_type":"pit-trial","trial_index":64,"time_elapsed":372230,"internal_node_id":"0.0-53.0","task_version":"test-retest-t4"},{"Rune":"rune_08_sigel","Hex":"#3366ff99","Correct":-1,"Choice":-1,"RT":-1,"Accuracy":1,"Outcome":"-1","Keys":[],"TotalKeys":0,"Block":1,"Trial":48,"Robot":4,"Valence":"Lose","Action":"No-Go","Sham":0,"Color":"blue","trial_type":"pit-trial","trial_index":65,"time_elapsed":376236,"internal_node_id":"0.0-54.0","task_version":"test-retest-t4"},{"Rune":"rune_08_fehu","Hex":"#ffcc3399","Correct":-1,"Choice":-1,"RT":-1,"Accuracy":1,"Outcome":"+10","Keys":[],"TotalKeys":0,"Block":1,"Trial":49,"Robot":2,"Valence":"Win","Action":"No-Go","Sham":0,"Color":"yellow","trial_type":"pit-trial","trial_index":66,"time_elapsed":380240,"internal_node_id":"0.0-55.0","task_version":"test-retest-t4"},{"Rune":"rune_08_sigel","Hex":"#3366ff99","Correct":-1,"Choice":-1,"RT":-1,"Accuracy":1,"Outcome":"-1","Keys":[],"TotalKeys":0,"Block":1,"Trial":50,"Robot":4,"Valence":"Lose","Action":"No-Go","Sham":0,"Color":"blue","trial_type":"pit-trial","trial_index":67,"time_elapsed":384244,"internal_node_id":"0.0-56.0","task_version":"test-retest-t4"},{"Rune":"rune_08_pertho","Hex":"#ffcc3399","Correct":32,"Choice":32,"RT":671.7199999839067,"Accuracy":1,"Outcome":"+1","Keys":[2172.7500003762543],"TotalKeys":1,"Block":1,"Trial":51,"Robot":1,"Valence":"Win","Action":"Go","Sham":1,"Color":"yellow","trial_type":"pit-trial","trial_index":68,"time_elapsed":387420,"internal_node_id":"0.0-57.0","task_version":"test-retest-t4"},{"Rune":"rune_08_mannaz","Hex":"#3366ff99","Correct":32,"Choice":32,"RT":351.3750000856817,"Accuracy":1,"Outcome":"-1","Keys":[1852.4750000797212],"TotalKeys":1,"Block":1,"Trial":52,"Robot":3,"Valence":"Lose","Action":"Go","Sham":0,"Color":"blue","trial_type":"pit-trial","trial_index":69,"time_elapsed":390277,"internal_node_id":"0.0-58.0","task_version":"test-retest-t4"},{"Rune":"rune_08_mannaz","Hex":"#3366ff99","Correct":32,"Choice":32,"RT":366.2499999627471,"Accuracy":1,"Outcome":"-10","Keys":[1867.0550002716482],"TotalKeys":1,"Block":1,"Trial":53,"Robot":3,"Valence":"Lose","Action":"Go","Sham":1,"Color":"blue","trial_type":"pit-trial","trial_index":70,"time_elapsed":393146,"internal_node_id":"0.0-59.0","task_version":"test-retest-t4"},{"Rune":"rune_08_sigel","Hex":"#3366ff99","Correct":-1,"Choice":-1,"RT":-1,"Accuracy":1,"Outcome":"-10","Keys":[],"TotalKeys":0,"Block":1,"Trial":54,"Robot":4,"Valence":"Lose","Action":"No-Go","Sham":1,"Color":"blue","trial_type":"pit-trial","trial_index":71,"time_elapsed":397149,"internal_node_id":"0.0-60.0","task_version":"test-retest-t4"},{"Rune":"rune_08_pertho","Hex":"#ffcc3399","Correct":32,"Choice":32,"RT":414.7800002247095,"Accuracy":1,"Outcome":"+10","Keys":[1916.119999717921],"TotalKeys":1,"Block":1,"Trial":55,"Robot":1,"Valence":"Win","Action":"Go","Sham":0,"Color":"yellow","trial_type":"pit-trial","trial_index":72,"time_elapsed":400067,"internal_node_id":"0.0-61.0","task_version":"test-retest-t4"},{"Rune":"rune_08_fehu","Hex":"#ffcc3399","Correct":-1,"Choice":-1,"RT":-1,"Accuracy":1,"Outcome":"+10","Keys":[],"TotalKeys":0,"Block":1,"Trial":56,"Robot":2,"Valence":"Win","Action":"No-Go","Sham":0,"Color":"yellow","trial_type":"pit-trial","trial_index":73,"time_elapsed":404071,"internal_node_id":"0.0-62.0","task_version":"test-retest-t4"},{"Rune":"rune_08_pertho","Hex":"#ffcc3399","Correct":32,"Choice":32,"RT":474.3449999950826,"Accuracy":1,"Outcome":"+10","Keys":[1974.9700003303587],"TotalKeys":1,"Block":1,"Trial":57,"Robot":1,"Valence":"Win","Action":"Go","Sham":0,"Color":"yellow","trial_type":"pit-trial","trial_index":74,"time_elapsed":407048,"internal_node_id":"0.0-63.0","task_version":"test-retest-t4"},{"Rune":"rune_08_fehu","Hex":"#ffcc3399","Correct":-1,"Choice":-1,"RT":-1,"Accuracy":1,"Outcome":"+10","Keys":[],"TotalKeys":0,"Block":1,"Trial":58,"Robot":2,"Valence":"Win","Action":"No-Go","Sham":0,"Color":"yellow","trial_type":"pit-trial","trial_index":75,"time_elapsed":411051,"internal_node_id":"0.0-64.0","task_version":"test-retest-t4"},{"Rune":"rune_08_sigel","Hex":"#3366ff99","Correct":-1,"Choice":-1,"RT":-1,"Accuracy":1,"Outcome":"-1","Keys":[],"TotalKeys":0,"Block":1,"Trial":59,"Robot":4,"Valence":"Lose","Action":"No-Go","Sham":0,"Color":"blue","trial_type":"pit-trial","trial_index":76,"time_elapsed":415055,"internal_node_id":"0.0-65.0","task_version":"test-retest-t4"},{"Rune":"rune_08_mannaz","Hex":"#3366ff99","Correct":32,"Choice":32,"RT":420.9799999371171,"Accuracy":1,"Outcome":"-1","Keys":[1922.1900003030896],"TotalKeys":1,"Block":1,"Trial":60,"Robot":3,"Valence":"Lose","Action":"Go","Sham":0,"Color":"blue","trial_type":"pit-trial","trial_index":77,"time_elapsed":417981,"internal_node_id":"0.0-66.0","task_version":"test-retest-t4"},{"value":false,"trial_type":"call-function","trial_index":78,"time_elapsed":417983,"internal_node_id":"0.0-67.0","task_version":"test-retest-t4"},{"view_history":"[{\"page_index\":0,\"viewing_time\":1981.5550004132092},{\"page_index\":1,\"viewing_time\":1204.3349999003112}]","rt":3186.375000048429,"trial_type":"pit-instructions","trial_index":79,"time_elapsed":421171,"internal_node_id":"0.0-68.0","task_version":"test-retest-t4"},{"Rune":"rune_08_mannaz","Hex":"#3366ff99","Correct":32,"Choice":32,"RT":365.14999996870756,"Accuracy":1,"Outcome":"-1","Keys":[1865.4499999247491],"TotalKeys":1,"Block":1,"Trial":61,"Robot":3,"Valence":"Lose","Action":"Go","Sham":0,"Color":"blue","trial_type":"pit-trial","trial_index":80,"time_elapsed":424041,"internal_node_id":"0.0-69.0","task_version":"test-retest-t4"},{"Rune":"rune_08_pertho","Hex":"#ffcc3399","Correct":32,"Choice":32,"RT":425.2800000831485,"Accuracy":1,"Outcome":"+10","Keys":[1927.265000063926],"TotalKeys":1,"Block":1,"Trial":62,"Robot":1,"Valence":"Win","Action":"Go","Sham":0,"Color":"yellow","trial_type":"pit-trial","trial_index":81,"time_elapsed":426972,"internal_node_id":"0.0-70.0","task_version":"test-retest-t4"},{"Rune":"rune_08_sigel","Hex":"#3366ff99","Correct":-1,"Choice":-1,"RT":-1,"Accuracy":1,"Outcome":"-1","Keys":[],"TotalKeys":0,"Block":1,"Trial":63,"Robot":4,"Valence":"Lose","Action":"No-Go","Sham":0,"Color":"blue","trial_type":"pit-trial","trial_index":82,"time_elapsed":430976,"internal_node_id":"0.0-71.0","task_version":"test-retest-t4"},{"Rune":"rune_08_fehu","Hex":"#ffcc3399","Correct":-1,"Choice":-1,"RT":-1,"Accuracy":1,"Outcome":"+10","Keys":[],"TotalKeys":0,"Block":1,"Trial":64,"Robot":2,"Valence":"Win","Action":"No-Go","Sham":0,"Color":"yellow","trial_type":"pit-trial","trial_index":83,"time_elapsed":434980,"internal_node_id":"0.0-72.0","task_version":"test-retest-t4"},{"Rune":"rune_08_sigel","Hex":"#3366ff99","Correct":-1,"Choice":-1,"RT":-1,"Accuracy":1,"Outcome":"-1","Keys":[],"TotalKeys":0,"Block":1,"Trial":65,"Robot":4,"Valence":"Lose","Action":"No-Go","Sham":0,"Color":"blue","trial_type":"pit-trial","trial_index":84,"time_elapsed":438984,"internal_node_id":"0.0-73.0","task_version":"test-retest-t4"},{"Rune":"rune_08_fehu","Hex":"#ffcc3399","Correct":-1,"Choice":-1,"RT":-1,"Accuracy":1,"Outcome":"+1","Keys":[],"TotalKeys":0,"Block":1,"Trial":66,"Robot":2,"Valence":"Win","Action":"No-Go","Sham":1,"Color":"yellow","trial_type":"pit-trial","trial_index":85,"time_elapsed":442988,"internal_node_id":"0.0-74.0","task_version":"test-retest-t4"},{"Rune":"rune_08_pertho","Hex":"#ffcc3399","Correct":32,"Choice":32,"RT":453.32999993115664,"Accuracy":1,"Outcome":"+10","Keys":[1954.9449998885393],"TotalKeys":1,"Block":1,"Trial":67,"Robot":1,"Valence":"Win","Action":"Go","Sham":0,"Color":"yellow","trial_type":"pit-trial","trial_index":86,"time_elapsed":445946,"internal_node_id":"0.0-75.0","task_version":"test-retest-t4"},{"Rune":"rune_08_mannaz","Hex":"#3366ff99","Correct":32,"Choice":32,"RT":367.3200001940131,"Accuracy":1,"Outcome":"-1","Keys":[1869.1650000400841],"TotalKeys":1,"Block":1,"Trial":68,"Robot":3,"Valence":"Lose","Action":"Go","Sham":0,"Color":"blue","trial_type":"pit-trial","trial_index":87,"time_elapsed":448819,"internal_node_id":"0.0-76.0","task_version":"test-retest-t4"},{"Rune":"rune_08_pertho","Hex":"#ffcc3399","Correct":32,"Choice":32,"RT":421.6249999590218,"Accuracy":1,"Outcome":"+1","Keys":[1921.8450002372265],"TotalKeys":1,"Block":1,"Trial":69,"Robot":1,"Valence":"Win","Action":"Go","Sham":1,"Color":"yellow","trial_type":"pit-trial","trial_index":88,"time_elapsed":451742,"internal_node_id":"0.0-77.0","task_version":"test-retest-t4"},{"Rune":"rune_08_sigel","Hex":"#3366ff99","Correct":-1,"Choice":-1,"RT":-1,"Accuracy":1,"Outcome":"-1","Keys":[],"TotalKeys":0,"Block":1,"Trial":70,"Robot":4,"Valence":"Lose","Action":"No-Go","Sham":0,"Color":"blue","trial_type":"pit-trial","trial_index":89,"time_elapsed":455746,"internal_node_id":"0.0-78.0","task_version":"test-retest-t4"},{"Rune":"rune_08_fehu","Hex":"#ffcc3399","Correct":-1,"Choice":-1,"RT":-1,"Accuracy":1,"Outcome":"+10","Keys":[],"TotalKeys":0,"Block":1,"Trial":71,"Robot":2,"Valence":"Win","Action":"No-Go","Sham":0,"Color":"yellow","trial_type":"pit-trial","trial_index":90,"time_elapsed":459749,"internal_node_id":"0.0-79.0","task_version":"test-retest-t4"},{"Rune":"rune_08_mannaz","Hex":"#3366ff99","Correct":32,"Choice":32,"RT":450.5999996326864,"Accuracy":1,"Outcome":"-10","Keys":[1952.0250000059605],"TotalKeys":1,"Block":1,"Trial":72,"Robot":3,"Valence":"Lose","Action":"Go","Sham":1,"Color":"blue","trial_type":"pit-trial","trial_index":91,"time_elapsed":462704,"internal_node_id":"0.0-80.0","task_version":"test-retest-t4"},{"Rune":"rune_08_fehu","Hex":"#ffcc3399","Correct":-1,"Choice":-1,"RT":-1,"Accuracy":1,"Outcome":"+10","Keys":[],"TotalKeys":0,"Block":1,"Trial":73,"Robot":2,"Valence":"Win","Action":"No-Go","Sham":0,"Color":"yellow","trial_type":"pit-trial","trial_index":92,"time_elapsed":466708,"internal_node_id":"0.0-81.0","task_version":"test-retest-t4"},{"Rune":"rune_08_sigel","Hex":"#3366ff99","Correct":-1,"Choice":-1,"RT":-1,"Accuracy":1,"Outcome":"-1","Keys":[],"TotalKeys":0,"Block":1,"Trial":74,"Robot":4,"Valence":"Lose","Action":"No-Go","Sham":0,"Color":"blue","trial_type":"pit-trial","trial_index":93,"time_elapsed":470712,"internal_node_id":"0.0-82.0","task_version":"test-retest-t4"},{"Rune":"rune_08_mannaz","Hex":"#3366ff99","Correct":32,"Choice":32,"RT":448.43999994918704,"Accuracy":1,"Outcome":"-1","Keys":[1949.605000205338],"TotalKeys":1,"Block":1,"Trial":75,"Robot":3,"Valence":"Lose","Action":"Go","Sham":0,"Color":"blue","trial_type":"pit-trial","trial_index":94,"time_elapsed":473665,"internal_node_id":"0.0-83.0","task_version":"test-retest-t4"},{"Rune":"rune_08_pertho","Hex":"#ffcc3399","Correct":32,"Choice":32,"RT":435.50000013783574,"Accuracy":1,"Outcome":"+10","Keys":[1936.4549997262657],"TotalKeys":1,"Block":1,"Trial":76,"Robot":1,"Valence":"Win","Action":"Go","Sham":0,"Color":"yellow","trial_type":"pit-trial","trial_index":95,"time_elapsed":476604,"internal_node_id":"0.0-84.0","task_version":"test-retest-t4"},{"Rune":"rune_08_fehu","Hex":"#ffcc3399","Correct":-1,"Choice":32,"RT":1120.6450001336634,"Accuracy":0,"Outcome":"+1","Keys":[2621.40000006184],"TotalKeys":1,"Block":1,"Trial":77,"Robot":2,"Valence":"Win","Action":"No-Go","Sham":0,"Color":"yellow","trial_type":"pit-trial","trial_index":96,"time_elapsed":480228,"internal_node_id":"0.0-85.0","task_version":"test-retest-t4"},{"Rune":"rune_08_pertho","Hex":"#ffcc3399","Correct":32,"Choice":32,"RT":323.36500007659197,"Accuracy":1,"Outcome":"+10","Keys":[1823.8899996504188],"TotalKeys":1,"Block":1,"Trial":78,"Robot":1,"Valence":"Win","Action":"Go","Sham":0,"Color":"yellow","trial_type":"pit-trial","trial_index":97,"time_elapsed":483055,"internal_node_id":"0.0-86.0","task_version":"test-retest-t4"},{"Rune":"rune_08_sigel","Hex":"#3366ff99","Correct":-1,"Choice":-1,"RT":-1,"Accuracy":1,"Outcome":"-10","Keys":[],"TotalKeys":0,"Block":1,"Trial":79,"Robot":4,"Valence":"Lose","Action":"No-Go","Sham":1,"Color":"blue","trial_type":"pit-trial","trial_index":98,"time_elapsed":487060,"internal_node_id":"0.0-87.0","task_version":"test-retest-t4"},{"Rune":"rune_08_mannaz","Hex":"#3366ff99","Correct":32,"Choice":32,"RT":425.7050002925098,"Accuracy":1,"Outcome":"-1","Keys":[1927.159999962896],"TotalKeys":1,"Block":1,"Trial":80,"Robot":3,"Valence":"Lose","Action":"Go","Sham":0,"Color":"blue","trial_type":"pit-trial","trial_index":99,"time_elapsed":489990,"internal_node_id":"0.0-88.0","task_version":"test-retest-t4"},{"Rune":"rune_08_mannaz","Hex":"#3366ff99","Correct":32,"Choice":32,"RT":436.64500024169683,"Accuracy":1,"Outcome":"-10","Keys":[1937.7000001259148],"TotalKeys":1,"Block":1,"Trial":81,"Robot":3,"Valence":"Lose","Action":"Go","Sham":1,"Color":"blue","trial_type":"pit-trial","trial_index":100,"time_elapsed":492930,"internal_node_id":"0.0-89.0","task_version":"test-retest-t4"},{"Rune":"rune_08_sigel","Hex":"#3366ff99","Correct":-1,"Choice":-1,"RT":-1,"Accuracy":1,"Outcome":"-1","Keys":[],"TotalKeys":0,"Block":1,"Trial":82,"Robot":4,"Valence":"Lose","Action":"No-Go","Sham":0,"Color":"blue","trial_type":"pit-trial","trial_index":101,"time_elapsed":496934,"internal_node_id":"0.0-90.0","task_version":"test-retest-t4"},{"Rune":"rune_08_fehu","Hex":"#ffcc3399","Correct":-1,"Choice":-1,"RT":-1,"Accuracy":1,"Outcome":"+10","Keys":[],"TotalKeys":0,"Block":1,"Trial":83,"Robot":2,"Valence":"Win","Action":"No-Go","Sham":0,"Color":"yellow","trial_type":"pit-trial","trial_index":102,"time_elapsed":500939,"internal_node_id":"0.0-91.0","task_version":"test-retest-t4"},{"Rune":"rune_08_pertho","Hex":"#ffcc3399","Correct":32,"Choice":32,"RT":655.2249998785555,"Accuracy":1,"Outcome":"+10","Keys":[2156.25],"TotalKeys":1,"Block":1,"Trial":84,"Robot":1,"Valence":"Win","Action":"Go","Sham":0,"Color":"yellow","trial_type":"pit-trial","trial_index":103,"time_elapsed":504100,"internal_node_id":"0.0-92.0","task_version":"test-retest-t4"},{"Rune":"rune_08_sigel","Hex":"#3366ff99","Correct":-1,"Choice":-1,"RT":-1,"Accuracy":1,"Outcome":"-10","Keys":[],"TotalKeys":0,"Block":1,"Trial":85,"Robot":4,"Valence":"Lose","Action":"No-Go","Sham":1,"Color":"blue","trial_type":"pit-trial","trial_index":104,"time_elapsed":508104,"internal_node_id":"0.0-93.0","task_version":"test-retest-t4"},{"Rune":"rune_08_fehu","Hex":"#ffcc3399","Correct":-1,"Choice":-1,"RT":-1,"Accuracy":1,"Outcome":"+10","Keys":[],"TotalKeys":0,"Block":1,"Trial":86,"Robot":2,"Valence":"Win","Action":"No-Go","Sham":0,"Color":"yellow","trial_type":"pit-trial","trial_index":105,"time_elapsed":512108,"internal_node_id":"0.0-94.0","task_version":"test-retest-t4"},{"Rune":"rune_08_pertho","Hex":"#ffcc3399","Correct":32,"Choice":32,"RT":464.134999550879,"Accuracy":1,"Outcome":"+10","Keys":[1965.2700000442564],"TotalKeys":1,"Block":1,"Trial":87,"Robot":1,"Valence":"Win","Action":"Go","Sham":0,"Color":"yellow","trial_type":"pit-trial","trial_index":106,"time_elapsed":515075,"internal_node_id":"0.0-95.0","task_version":"test-retest-t4"},{"Rune":"rune_08_mannaz","Hex":"#3366ff99","Correct":32,"Choice":32,"RT":525.8150002919137,"Accuracy":1,"Outcome":"-1","Keys":[2026.3450001366436],"TotalKeys":1,"Block":1,"Trial":88,"Robot":3,"Valence":"Lose","Action":"Go","Sham":0,"Color":"blue","trial_type":"pit-trial","trial_index":107,"time_elapsed":518104,"internal_node_id":"0.0-96.0","task_version":"test-retest-t4"},{"Rune":"rune_08_mannaz","Hex":"#3366ff99","Correct":32,"Choice":32,"RT":451.4999999664724,"Accuracy":1,"Outcome":"-1","Keys":[1952.3849999532104],"TotalKeys":1,"Block":1,"Trial":89,"Robot":3,"Valence":"Lose","Action":"Go","Sham":0,"Color":"blue","trial_type":"pit-trial","trial_index":108,"time_elapsed":521060,"internal_node_id":"0.0-97.0","task_version":"test-retest-t4"},{"Rune":"rune_08_fehu","Hex":"#ffcc3399","Correct":-1,"Choice":-1,"RT":-1,"Accuracy":1,"Outcome":"+10","Keys":[],"TotalKeys":0,"Block":1,"Trial":90,"Robot":2,"Valence":"Win","Action":"No-Go","Sham":0,"Color":"yellow","trial_type":"pit-trial","trial_index":109,"time_elapsed":525064,"internal_node_id":"0.0-98.0","task_version":"test-retest-t4"},{"Rune":"rune_08_sigel","Hex":"#3366ff99","Correct":-1,"Choice":-1,"RT":-1,"Accuracy":1,"Outcome":"-1","Keys":[],"TotalKeys":0,"Block":1,"Trial":91,"Robot":4,"Valence":"Lose","Action":"No-Go","Sham":0,"Color":"blue","trial_type":"pit-trial","trial_index":110,"time_elapsed":529067,"internal_node_id":"0.0-99.0","task_version":"test-retest-t4"},{"Rune":"rune_08_pertho","Hex":"#ffcc3399","Correct":32,"Choice":32,"RT":462.8849998116493,"Accuracy":1,"Outcome":"+1","Keys":[1963.8649998232722],"TotalKeys":1,"Block":1,"Trial":92,"Robot":1,"Valence":"Win","Action":"Go","Sham":1,"Color":"yellow","trial_type":"pit-trial","trial_index":111,"time_elapsed":532034,"internal_node_id":"0.0-100.0","task_version":"test-retest-t4"},{"Rune":"rune_08_mannaz","Hex":"#3366ff99","Correct":32,"Choice":32,"RT":440.9650000743568,"Accuracy":1,"Outcome":"-1","Keys":[1942.1450002118945],"TotalKeys":1,"Block":1,"Trial":93,"Robot":3,"Valence":"Lose","Action":"Go","Sham":0,"Color":"blue","trial_type":"pit-trial","trial_index":112,"time_elapsed":534979,"internal_node_id":"0.0-101.0","task_version":"test-retest-t4"},{"Rune":"rune_08_sigel","Hex":"#3366ff99","Correct":-1,"Choice":-1,"RT":-1,"Accuracy":1,"Outcome":"-1","Keys":[],"TotalKeys":0,"Block":1,"Trial":94,"Robot":4,"Valence":"Lose","Action":"No-Go","Sham":0,"Color":"blue","trial_type":"pit-trial","trial_index":113,"time_elapsed":538982,"internal_node_id":"0.0-102.0","task_version":"test-retest-t4"},{"Rune":"rune_08_pertho","Hex":"#ffcc3399","Correct":32,"Choice":32,"RT":370.43499993160367,"Accuracy":1,"Outcome":"+10","Keys":[1870.670000091195],"TotalKeys":1,"Block":1,"Trial":95,"Robot":1,"Valence":"Win","Action":"Go","Sham":0,"Color":"yellow","trial_type":"pit-trial","trial_index":114,"time_elapsed":541855,"internal_node_id":"0.0-103.0","task_version":"test-retest-t4"},{"Rune":"rune_08_fehu","Hex":"#ffcc3399","Correct":-1,"Choice":-1,"RT":-1,"Accuracy":1,"Outcome":"+10","Keys":[],"TotalKeys":0,"Block":1,"Trial":96,"Robot":2,"Valence":"Win","Action":"No-Go","Sham":0,"Color":"yellow","trial_type":"pit-trial","trial_index":115,"time_elapsed":545859,"internal_node_id":"0.0-104.0","task_version":"test-retest-t4"},{"Rune":"rune_08_pertho","Hex":"#ffcc3399","Correct":32,"Choice":32,"RT":339.31499999016523,"Accuracy":1,"Outcome":"+10","Keys":[1841.1049996502697],"TotalKeys":1,"Block":1,"Trial":97,"Robot":1,"Valence":"Win","Action":"Go","Sham":0,"Color":"yellow","trial_type":"pit-trial","trial_index":116,"time_elapsed":548702,"internal_node_id":"0.0-105.0","task_version":"test-retest-t4"},{"Rune":"rune_08_sigel","Hex":"#3366ff99","Correct":-1,"Choice":-1,"RT":-1,"Accuracy":1,"Outcome":"-1","Keys":[],"TotalKeys":0,"Block":1,"Trial":98,"Robot":4,"Valence":"Lose","Action":"No-Go","Sham":0,"Color":"blue","trial_type":"pit-trial","trial_index":117,"time_elapsed":552706,"internal_node_id":"0.0-106.0","task_version":"test-retest-t4"},{"Rune":"rune_08_fehu","Hex":"#ffcc3399","Correct":-1,"Choice":-1,"RT":-1,"Accuracy":1,"Outcome":"+1","Keys":[],"TotalKeys":0,"Block":1,"Trial":99,"Robot":2,"Valence":"Win","Action":"No-Go","Sham":1,"Color":"yellow","trial_type":"pit-trial","trial_index":118,"time_elapsed":556711,"internal_node_id":"0.0-107.0","task_version":"test-retest-t4"},{"Rune":"rune_08_mannaz","Hex":"#3366ff99","Correct":32,"Choice":32,"RT":420.69500032812357,"Accuracy":1,"Outcome":"-1","Keys":[1921.265000011772],"TotalKeys":1,"Block":1,"Trial":100,"Robot":3,"Valence":"Lose","Action":"Go","Sham":0,"Color":"blue","trial_type":"pit-trial","trial_index":119,"time_elapsed":559635,"internal_node_id":"0.0-108.0","task_version":"test-retest-t4"},{"Rune":"rune_08_fehu","Hex":"#ffcc3399","Correct":-1,"Choice":-1,"RT":-1,"Accuracy":1,"Outcome":"+10","Keys":[],"TotalKeys":0,"Block":1,"Trial":101,"Robot":2,"Valence":"Win","Action":"No-Go","Sham":0,"Color":"yellow","trial_type":"pit-trial","trial_index":120,"time_elapsed":563642,"internal_node_id":"0.0-109.0","task_version":"test-retest-t4"},{"Rune":"rune_08_sigel","Hex":"#3366ff99","Correct":-1,"Choice":-1,"RT":-1,"Accuracy":1,"Outcome":"-1","Keys":[],"TotalKeys":0,"Block":1,"Trial":102,"Robot":4,"Valence":"Lose","Action":"No-Go","Sham":0,"Color":"blue","trial_type":"pit-trial","trial_index":121,"time_elapsed":567646,"internal_node_id":"0.0-110.0","task_version":"test-retest-t4"},{"Rune":"rune_08_mannaz","Hex":"#3366ff99","Correct":32,"Choice":32,"RT":401.68499993160367,"Accuracy":1,"Outcome":"-1","Keys":[1902.5050001218915],"TotalKeys":1,"Block":1,"Trial":103,"Robot":3,"Valence":"Lose","Action":"Go","Sham":0,"Color":"blue","trial_type":"pit-trial","trial_index":122,"time_elapsed":570551,"internal_node_id":"0.0-111.0","task_version":"test-retest-t4"},{"Rune":"rune_08_pertho","Hex":"#ffcc3399","Correct":32,"Choice":32,"RT":437.04000022262335,"Accuracy":1,"Outcome":"+10","Keys":[1937.9250002093613],"TotalKeys":1,"Block":1,"Trial":104,"Robot":1,"Valence":"Win","Action":"Go","Sham":0,"Color":"yellow","trial_type":"pit-trial","trial_index":123,"time_elapsed":573491,"internal_node_id":"0.0-112.0","task_version":"test-retest-t4"},{"Rune":"rune_08_mannaz","Hex":"#3366ff99","Correct":32,"Choice":32,"RT":427.7999997138977,"Accuracy":1,"Outcome":"-1","Keys":[1928.5400002263486],"TotalKeys":1,"Block":1,"Trial":105,"Robot":3,"Valence":"Lose","Action":"Go","Sham":0,"Color":"blue","trial_type":"pit-trial","trial_index":124,"time_elapsed":576423,"internal_node_id":"0.0-113.0","task_version":"test-retest-t4"},{"Rune":"rune_08_pertho","Hex":"#ffcc3399","Correct":32,"Choice":32,"RT":303.7849999964237,"Accuracy":1,"Outcome":"+10","Keys":[1804.7549999319017],"TotalKeys":1,"Block":1,"Trial":106,"Robot":1,"Valence":"Win","Action":"Go","Sham":0,"Color":"yellow","trial_type":"pit-trial","trial_index":125,"time_elapsed":579231,"internal_node_id":"0.0-114.0","task_version":"test-retest-t4"},{"Rune":"rune_08_fehu","Hex":"#ffcc3399","Correct":-1,"Choice":-1,"RT":-1,"Accuracy":1,"Outcome":"+10","Keys":[],"TotalKeys":0,"Block":1,"Trial":107,"Robot":2,"Valence":"Win","Action":"No-Go","Sham":0,"Color":"yellow","trial_type":"pit-trial","trial_index":126,"time_elapsed":583237,"internal_node_id":"0.0-115.0","task_version":"test-retest-t4"},{"Rune":"rune_08_sigel","Hex":"#3366ff99","Correct":-1,"Choice":-1,"RT":-1,"Accuracy":1,"Outcome":"-1","Keys":[],"TotalKeys":0,"Block":1,"Trial":108,"Robot":4,"Valence":"Lose","Action":"No-Go","Sham":0,"Color":"blue","trial_type":"pit-trial","trial_index":127,"time_elapsed":587240,"internal_node_id":"0.0-116.0","task_version":"test-retest-t4"},{"Rune":"rune_08_fehu","Hex":"#ffcc3399","Correct":-1,"Choice":-1,"RT":-1,"Accuracy":1,"Outcome":"+1","Keys":[],"TotalKeys":0,"Block":1,"Trial":109,"Robot":2,"Valence":"Win","Action":"No-Go","Sham":1,"Color":"yellow","trial_type":"pit-trial","trial_index":128,"time_elapsed":591244,"internal_node_id":"0.0-117.0","task_version":"test-retest-t4"},{"Rune":"rune_08_sigel","Hex":"#3366ff99","Correct":-1,"Choice":-1,"RT":-1,"Accuracy":1,"Outcome":"-1","Keys":[],"TotalKeys":0,"Block":1,"Trial":110,"Robot":4,"Valence":"Lose","Action":"No-Go","Sham":0,"Color":"blue","trial_type":"pit-trial","trial_index":129,"time_elapsed":595247,"internal_node_id":"0.0-118.0","task_version":"test-retest-t4"},{"Rune":"rune_08_mannaz","Hex":"#3366ff99","Correct":32,"Choice":32,"RT":380.5900001898408,"Accuracy":1,"Outcome":"-1","Keys":[1881.709999870509],"TotalKeys":1,"Block":1,"Trial":111,"Robot":3,"Valence":"Lose","Action":"Go","Sham":0,"Color":"blue","trial_type":"pit-trial","trial_index":130,"time_elapsed":598132,"internal_node_id":"0.0-119.0","task_version":"test-retest-t4"},{"Rune":"rune_08_pertho","Hex":"#ffcc3399","Correct":32,"Choice":32,"RT":336.88499964773655,"Accuracy":1,"Outcome":"+10","Keys":[1837.8849998116493],"TotalKeys":1,"Block":1,"Trial":112,"Robot":1,"Valence":"Win","Action":"Go","Sham":0,"Color":"yellow","trial_type":"pit-trial","trial_index":131,"time_elapsed":600973,"internal_node_id":"0.0-120.0","task_version":"test-retest-t4"},{"Rune":"rune_08_pertho","Hex":"#ffcc3399","Correct":32,"Choice":32,"RT":351.86500009149313,"Accuracy":1,"Outcome":"+10","Keys":[1852.5300002656877],"TotalKeys":1,"Block":1,"Trial":113,"Robot":1,"Valence":"Win","Action":"Go","Sham":0,"Color":"yellow","trial_type":"pit-trial","trial_index":132,"time_elapsed":603830,"internal_node_id":"0.0-121.0","task_version":"test-retest-t4"},{"Rune":"rune_08_fehu","Hex":"#ffcc3399","Correct":-1,"Choice":-1,"RT":-1,"Accuracy":1,"Outcome":"+10","Keys":[],"TotalKeys":0,"Block":1,"Trial":114,"Robot":2,"Valence":"Win","Action":"No-Go","Sham":0,"Color":"yellow","trial_type":"pit-trial","trial_index":133,"time_elapsed":607833,"internal_node_id":"0.0-122.0","task_version":"test-retest-t4"},{"Rune":"rune_08_sigel","Hex":"#3366ff99","Correct":-1,"Choice":-1,"RT":-1,"Accuracy":1,"Outcome":"-10","Keys":[],"TotalKeys":0,"Block":1,"Trial":115,"Robot":4,"Valence":"Lose","Action":"No-Go","Sham":1,"Color":"blue","trial_type":"pit-trial","trial_index":134,"time_elapsed":611836,"internal_node_id":"0.0-123.0","task_version":"test-retest-t4"},{"Rune":"rune_08_mannaz","Hex":"#3366ff99","Correct":32,"Choice":32,"RT":459.8900000564754,"Accuracy":1,"Outcome":"-1","Keys":[1960.9750001691282],"TotalKeys":1,"Block":1,"Trial":116,"Robot":3,"Valence":"Lose","Action":"Go","Sham":0,"Color":"blue","trial_type":"pit-trial","trial_index":135,"time_elapsed":614801,"internal_node_id":"0.0-124.0","task_version":"test-retest-t4"},{"Rune":"rune_08_mannaz","Hex":"#3366ff99","Correct":32,"Choice":32,"RT":515.7900000922382,"Accuracy":1,"Outcome":"-10","Keys":[2016.6550003923476],"TotalKeys":1,"Block":1,"Trial":117,"Robot":3,"Valence":"Lose","Action":"Go","Sham":1,"Color":"blue","trial_type":"pit-trial","trial_index":136,"time_elapsed":617821,"internal_node_id":"0.0-125.0","task_version":"test-retest-t4"},{"Rune":"rune_08_pertho","Hex":"#ffcc3399","Correct":32,"Choice":32,"RT":361.3249999471009,"Accuracy":1,"Outcome":"+1","Keys":[1862.5850002281368],"TotalKeys":1,"Block":1,"Trial":118,"Robot":1,"Valence":"Win","Action":"Go","Sham":1,"Color":"yellow","trial_type":"pit-trial","trial_index":137,"time_elapsed":620686,"internal_node_id":"0.0-126.0","task_version":"test-retest-t4"},{"Rune":"rune_08_sigel","Hex":"#3366ff99","Correct":-1,"Choice":-1,"RT":-1,"Accuracy":1,"Outcome":"-1","Keys":[],"TotalKeys":0,"Block":1,"Trial":119,"Robot":4,"Valence":"Lose","Action":"No-Go","Sham":0,"Color":"blue","trial_type":"pit-trial","trial_index":138,"time_elapsed":624690,"internal_node_id":"0.0-127.0","task_version":"test-retest-t4"},{"Rune":"rune_08_fehu","Hex":"#ffcc3399","Correct":-1,"Choice":-1,"RT":-1,"Accuracy":1,"Outcome":"+10","Keys":[],"TotalKeys":0,"Block":1,"Trial":120,"Robot":2,"Valence":"Win","Action":"No-Go","Sham":0,"Color":"yellow","trial_type":"pit-trial","trial_index":139,"time_elapsed":628694,"internal_node_id":"0.0-128.0","task_version":"test-retest-t4"},{"view_history":"[{\"page_index\":0,\"viewing_time\":19083.25000014156},{\"page_index\":1,\"viewing_time\":2256.0450001619756},{\"page_index\":2,\"viewing_time\":1137.0299998670816}]","rt":22476.73500003293,"trial_type":"pit-instructions","trial_index":140,"time_elapsed":651172,"internal_node_id":"0.0-129.0","task_version":"test-retest-t4"},{"Rune":"rune_07_thurisaz","Hex":"#3366ff99","Correct":32,"Choice":-1,"RT":-1,"Accuracy":0,"Outcome":"-10","Keys":[],"TotalKeys":0,"Block":2,"Trial":121,"Robot":3,"Valence":"Lose","Action":"Go","Sham":0,"Color":"blue","trial_type":"pit-trial","trial_index":141,"time_elapsed":655178,"internal_node_id":"0.0-130.0","task_version":"test-retest-t4"},{"Rune":"rune_07_gar","Hex":"#ffcc3399","Correct":32,"Choice":-1,"RT":-1,"Accuracy":0,"Outcome":"+1","Keys":[],"TotalKeys":0,"Block":2,"Trial":122,"Robot":1,"Valence":"Win","Action":"Go","Sham":0,"Color":"yellow","trial_type":"pit-trial","trial_index":142,"time_elapsed":659181,"internal_node_id":"0.0-131.0","task_version":"test-retest-t4"},{"Rune":"rune_07_laukaz","Hex":"#ffcc3399","Correct":-1,"Choice":-1,"RT":-1,"Accuracy":1,"Outcome":"+10","Keys":[],"TotalKeys":0,"Block":2,"Trial":123,"Robot":2,"Valence":"Win","Action":"No-Go","Sham":0,"Color":"yellow","trial_type":"pit-trial","trial_index":143,"time_elapsed":663185,"internal_node_id":"0.0-132.0","task_version":"test-retest-t4"},{"Rune":"rune_07_kauna","Hex":"#3366ff99","Correct":-1,"Choice":-1,"RT":-1,"Accuracy":1,"Outcome":"-1","Keys":[],"TotalKeys":0,"Block":2,"Trial":124,"Robot":4,"Valence":"Lose","Action":"No-Go","Sham":0,"Color":"blue","trial_type":"pit-trial","trial_index":144,"time_elapsed":667189,"internal_node_id":"0.0-133.0","task_version":"test-retest-t4"},{"Rune":"rune_07_laukaz","Hex":"#ffcc3399","Correct":-1,"Choice":-1,"RT":-1,"Accuracy":1,"Outcome":"+10","Keys":[],"TotalKeys":0,"Block":2,"Trial":125,"Robot":2,"Valence":"Win","Action":"No-Go","Sham":0,"Color":"yellow","trial_type":"pit-trial","trial_index":145,"time_elapsed":671193,"internal_node_id":"0.0-134.0","task_version":"test-retest-t4"},{"Rune":"rune_07_kauna","Hex":"#3366ff99","Correct":-1,"Choice":-1,"RT":-1,"Accuracy":1,"Outcome":"-10","Keys":[],"TotalKeys":0,"Block":2,"Trial":126,"Robot":4,"Valence":"Lose","Action":"No-Go","Sham":1,"Color":"blue","trial_type":"pit-trial","trial_index":146,"time_elapsed":675196,"internal_node_id":"0.0-135.0","task_version":"test-retest-t4"},{"Rune":"rune_07_thurisaz","Hex":"#3366ff99","Correct":32,"Choice":32,"RT":488.2300002500415,"Accuracy":1,"Outcome":"-1","Keys":[1989.2850001342595],"TotalKeys":1,"Block":2,"Trial":127,"Robot":3,"Valence":"Lose","Action":"Go","Sham":0,"Color":"blue","trial_type":"pit-trial","trial_index":147,"time_elapsed":678187,"internal_node_id":"0.0-136.0","task_version":"test-retest-t4"},{"Rune":"rune_07_gar","Hex":"#ffcc3399","Correct":32,"Choice":32,"RT":378.5250000655651,"Accuracy":1,"Outcome":"+10","Keys":[1878.969999961555],"TotalKeys":1,"Block":2,"Trial":128,"Robot":1,"Valence":"Win","Action":"Go","Sham":0,"Color":"yellow","trial_type":"pit-trial","trial_index":148,"time_elapsed":681069,"internal_node_id":"0.0-137.0","task_version":"test-retest-t4"},{"Rune":"rune_07_laukaz","Hex":"#ffcc3399","Correct":-1,"Choice":-1,"RT":-1,"Accuracy":1,"Outcome":"+10","Keys":[],"TotalKeys":0,"Block":2,"Trial":129,"Robot":2,"Valence":"Win","Action":"No-Go","Sham":0,"Color":"yellow","trial_type":"pit-trial","trial_index":149,"time_elapsed":685073,"internal_node_id":"0.0-138.0","task_version":"test-retest-t4"},{"Rune":"rune_07_thurisaz","Hex":"#3366ff99","Correct":32,"Choice":32,"RT":397.04499999061227,"Accuracy":1,"Outcome":"-10","Keys":[1897.8099999949336],"TotalKeys":1,"Block":2,"Trial":130,"Robot":3,"Valence":"Lose","Action":"Go","Sham":1,"Color":"blue","trial_type":"pit-trial","trial_index":150,"time_elapsed":687974,"internal_node_id":"0.0-139.0","task_version":"test-retest-t4"},{"Rune":"rune_07_kauna","Hex":"#3366ff99","Correct":-1,"Choice":-1,"RT":-1,"Accuracy":1,"Outcome":"-1","Keys":[],"TotalKeys":0,"Block":2,"Trial":131,"Robot":4,"Valence":"Lose","Action":"No-Go","Sham":0,"Color":"blue","trial_type":"pit-trial","trial_index":151,"time_elapsed":691978,"internal_node_id":"0.0-140.0","task_version":"test-retest-t4"},{"Rune":"rune_07_gar","Hex":"#ffcc3399","Correct":32,"Choice":32,"RT":431.0949998907745,"Accuracy":1,"Outcome":"+10","Keys":[1931.3650000840425],"TotalKeys":1,"Block":2,"Trial":132,"Robot":1,"Valence":"Win","Action":"Go","Sham":0,"Color":"yellow","trial_type":"pit-trial","trial_index":152,"time_elapsed":694912,"internal_node_id":"0.0-141.0","task_version":"test-retest-t4"},{"Rune":"rune_07_thurisaz","Hex":"#3366ff99","Correct":32,"Choice":32,"RT":615.1800001971424,"Accuracy":1,"Outcome":"-1","Keys":[2116.094999946654],"TotalKeys":1,"Block":2,"Trial":133,"Robot":3,"Valence":"Lose","Action":"Go","Sham":0,"Color":"blue","trial_type":"pit-trial","trial_index":153,"time_elapsed":698030,"internal_node_id":"0.0-142.0","task_version":"test-retest-t4"},{"Rune":"rune_07_gar","Hex":"#ffcc3399","Correct":32,"Choice":32,"RT":406.96500008925796,"Accuracy":1,"Outcome":"+1","Keys":[1907.8150000423193],"TotalKeys":1,"Block":2,"Trial":134,"Robot":1,"Valence":"Win","Action":"Go","Sham":1,"Color":"yellow","trial_type":"pit-trial","trial_index":154,"time_elapsed":700941,"internal_node_id":"0.0-143.0","task_version":"test-retest-t4"},{"Rune":"rune_07_kauna","Hex":"#3366ff99","Correct":-1,"Choice":-1,"RT":-1,"Accuracy":1,"Outcome":"-1","Keys":[],"TotalKeys":0,"Block":2,"Trial":135,"Robot":4,"Valence":"Lose","Action":"No-Go","Sham":0,"Color":"blue","trial_type":"pit-trial","trial_index":155,"time_elapsed":704945,"internal_node_id":"0.0-144.0","task_version":"test-retest-t4"},{"Rune":"rune_07_laukaz","Hex":"#ffcc3399","Correct":-1,"Choice":-1,"RT":-1,"Accuracy":1,"Outcome":"+10","Keys":[],"TotalKeys":0,"Block":2,"Trial":136,"Robot":2,"Valence":"Win","Action":"No-Go","Sham":0,"Color":"yellow","trial_type":"pit-trial","trial_index":156,"time_elapsed":708948,"internal_node_id":"0.0-145.0","task_version":"test-retest-t4"},{"Rune":"rune_07_thurisaz","Hex":"#3366ff99","Correct":32,"Choice":32,"RT":417.61500015854836,"Accuracy":1,"Outcome":"-1","Keys":[1918.7300000339746],"TotalKeys":1,"Block":2,"Trial":137,"Robot":3,"Valence":"Lose","Action":"Go","Sham":0,"Color":"blue","trial_type":"pit-trial","trial_index":157,"time_elapsed":711869,"internal_node_id":"0.0-146.0","task_version":"test-retest-t4"},{"Rune":"rune_07_kauna","Hex":"#3366ff99","Correct":-1,"Choice":-1,"RT":-1,"Accuracy":1,"Outcome":"-1","Keys":[],"TotalKeys":0,"Block":2,"Trial":138,"Robot":4,"Valence":"Lose","Action":"No-Go","Sham":0,"Color":"blue","trial_type":"pit-trial","trial_index":158,"time_elapsed":715874,"internal_node_id":"0.0-147.0","task_version":"test-retest-t4"},{"Rune":"rune_07_laukaz","Hex":"#ffcc3399","Correct":-1,"Choice":-1,"RT":-1,"Accuracy":1,"Outcome":"+1","Keys":[],"TotalKeys":0,"Block":2,"Trial":139,"Robot":2,"Valence":"Win","Action":"No-Go","Sham":1,"Color":"yellow","trial_type":"pit-trial","trial_index":159,"time_elapsed":719879,"internal_node_id":"0.0-148.0","task_version":"test-retest-t4"},{"Rune":"rune_07_gar","Hex":"#ffcc3399","Correct":32,"Choice":32,"RT":416.83500027284026,"Accuracy":1,"Outcome":"+10","Keys":[1917.1449998393655],"TotalKeys":1,"Block":2,"Trial":140,"Robot":1,"Valence":"Win","Action":"Go","Sham":0,"Color":"yellow","trial_type":"pit-trial","trial_index":160,"time_elapsed":722799,"internal_node_id":"0.0-149.0","task_version":"test-retest-t4"},{"Rune":"rune_07_kauna","Hex":"#3366ff99","Correct":-1,"Choice":-1,"RT":-1,"Accuracy":1,"Outcome":"-10","Keys":[],"TotalKeys":0,"Block":2,"Trial":141,"Robot":4,"Valence":"Lose","Action":"No-Go","Sham":1,"Color":"blue","trial_type":"pit-trial","trial_index":161,"time_elapsed":726803,"internal_node_id":"0.0-150.0","task_version":"test-retest-t4"},{"Rune":"rune_07_thurisaz","Hex":"#3366ff99","Correct":32,"Choice":32,"RT":369.13999961689115,"Accuracy":1,"Outcome":"-1","Keys":[1869.7549998760223],"TotalKeys":1,"Block":2,"Trial":142,"Robot":3,"Valence":"Lose","Action":"Go","Sham":0,"Color":"blue","trial_type":"pit-trial","trial_index":162,"time_elapsed":729675,"internal_node_id":"0.0-151.0","task_version":"test-retest-t4"},{"Rune":"rune_07_gar","Hex":"#ffcc3399","Correct":32,"Choice":32,"RT":397.59499998763204,"Accuracy":1,"Outcome":"+10","Keys":[1898.2850001193583],"TotalKeys":1,"Block":2,"Trial":143,"Robot":1,"Valence":"Win","Action":"Go","Sham":0,"Color":"yellow","trial_type":"pit-trial","trial_index":163,"time_elapsed":732577,"internal_node_id":"0.0-152.0","task_version":"test-retest-t4"},{"Rune":"rune_07_laukaz","Hex":"#ffcc3399","Correct":-1,"Choice":-1,"RT":-1,"Accuracy":1,"Outcome":"+1","Keys":[],"TotalKeys":0,"Block":2,"Trial":144,"Robot":2,"Valence":"Win","Action":"No-Go","Sham":1,"Color":"yellow","trial_type":"pit-trial","trial_index":164,"time_elapsed":736581,"internal_node_id":"0.0-153.0","task_version":"test-retest-t4"},{"Rune":"rune_07_kauna","Hex":"#3366ff99","Correct":-1,"Choice":-1,"RT":-1,"Accuracy":1,"Outcome":"-1","Keys":[],"TotalKeys":0,"Block":2,"Trial":145,"Robot":4,"Valence":"Lose","Action":"No-Go","Sham":0,"Color":"blue","trial_type":"pit-trial","trial_index":165,"time_elapsed":740585,"internal_node_id":"0.0-154.0","task_version":"test-retest-t4"},{"Rune":"rune_07_thurisaz","Hex":"#3366ff99","Correct":32,"Choice":32,"RT":385.43999986723065,"Accuracy":1,"Outcome":"-1","Keys":[1886.1249997280538],"TotalKeys":1,"Block":2,"Trial":146,"Robot":3,"Valence":"Lose","Action":"Go","Sham":0,"Color":"blue","trial_type":"pit-trial","trial_index":166,"time_elapsed":743474,"internal_node_id":"0.0-155.0","task_version":"test-retest-t4"},{"Rune":"rune_07_gar","Hex":"#ffcc3399","Correct":32,"Choice":32,"RT":411.5650001913309,"Accuracy":1,"Outcome":"+10","Keys":[1912.674999795854],"TotalKeys":1,"Block":2,"Trial":147,"Robot":1,"Valence":"Win","Action":"Go","Sham":0,"Color":"yellow","trial_type":"pit-trial","trial_index":167,"time_elapsed":746390,"internal_node_id":"0.0-156.0","task_version":"test-retest-t4"},{"Rune":"rune_07_laukaz","Hex":"#ffcc3399","Correct":-1,"Choice":-1,"RT":-1,"Accuracy":1,"Outcome":"+10","Keys":[],"TotalKeys":0,"Block":2,"Trial":148,"Robot":2,"Valence":"Win","Action":"No-Go","Sham":0,"Color":"yellow","trial_type":"pit-trial","trial_index":168,"time_elapsed":750394,"internal_node_id":"0.0-157.0","task_version":"test-retest-t4"},{"Rune":"rune_07_laukaz","Hex":"#ffcc3399","Correct":-1,"Choice":-1,"RT":-1,"Accuracy":1,"Outcome":"+10","Keys":[],"TotalKeys":0,"Block":2,"Trial":149,"Robot":2,"Valence":"Win","Action":"No-Go","Sham":0,"Color":"yellow","trial_type":"pit-trial","trial_index":169,"time_elapsed":754397,"internal_node_id":"0.0-158.0","task_version":"test-retest-t4"},{"Rune":"rune_07_gar","Hex":"#ffcc3399","Correct":32,"Choice":32,"RT":448.91500007361174,"Accuracy":1,"Outcome":"+1","Keys":[1949.849999975413],"TotalKeys":1,"Block":2,"Trial":150,"Robot":1,"Valence":"Win","Action":"Go","Sham":1,"Color":"yellow","trial_type":"pit-trial","trial_index":170,"time_elapsed":757349,"internal_node_id":"0.0-159.0","task_version":"test-retest-t4"},{"Rune":"rune_07_kauna","Hex":"#3366ff99","Correct":-1,"Choice":-1,"RT":-1,"Accuracy":1,"Outcome":"-1","Keys":[],"TotalKeys":0,"Block":2,"Trial":151,"Robot":4,"Valence":"Lose","Action":"No-Go","Sham":0,"Color":"blue","trial_type":"pit-trial","trial_index":171,"time_elapsed":761353,"internal_node_id":"0.0-160.0","task_version":"test-retest-t4"},{"Rune":"rune_07_thurisaz","Hex":"#3366ff99","Correct":32,"Choice":32,"RT":426.66999995708466,"Accuracy":1,"Outcome":"-1","Keys":[1927.9299997724593],"TotalKeys":1,"Block":2,"Trial":152,"Robot":3,"Valence":"Lose","Action":"Go","Sham":0,"Color":"blue","trial_type":"pit-trial","trial_index":172,"time_elapsed":764283,"internal_node_id":"0.0-161.0","task_version":"test-retest-t4"},{"Rune":"rune_07_laukaz","Hex":"#ffcc3399","Correct":-1,"Choice":-1,"RT":-1,"Accuracy":1,"Outcome":"+10","Keys":[],"TotalKeys":0,"Block":2,"Trial":153,"Robot":2,"Valence":"Win","Action":"No-Go","Sham":0,"Color":"yellow","trial_type":"pit-trial","trial_index":173,"time_elapsed":768287,"internal_node_id":"0.0-162.0","task_version":"test-retest-t4"},{"Rune":"rune_07_gar","Hex":"#ffcc3399","Correct":32,"Choice":32,"RT":384.21500008553267,"Accuracy":1,"Outcome":"+10","Keys":[1885.1749999448657],"TotalKeys":1,"Block":2,"Trial":154,"Robot":1,"Valence":"Win","Action":"Go","Sham":0,"Color":"yellow","trial_type":"pit-trial","trial_index":174,"time_elapsed":771175,"internal_node_id":"0.0-163.0","task_version":"test-retest-t4"},{"Rune":"rune_07_thurisaz","Hex":"#3366ff99","Correct":32,"Choice":32,"RT":485.51500029861927,"Accuracy":1,"Outcome":"-10","Keys":[1986.5649999119341],"TotalKeys":1,"Block":2,"Trial":155,"Robot":3,"Valence":"Lose","Action":"Go","Sham":1,"Color":"blue","trial_type":"pit-trial","trial_index":175,"time_elapsed":774165,"internal_node_id":"0.0-164.0","task_version":"test-retest-t4"},{"Rune":"rune_07_kauna","Hex":"#3366ff99","Correct":-1,"Choice":-1,"RT":-1,"Accuracy":1,"Outcome":"-1","Keys":[],"TotalKeys":0,"Block":2,"Trial":156,"Robot":4,"Valence":"Lose","Action":"No-Go","Sham":0,"Color":"blue","trial_type":"pit-trial","trial_index":176,"time_elapsed":778169,"internal_node_id":"0.0-165.0","task_version":"test-retest-t4"},{"Rune":"rune_07_kauna","Hex":"#3366ff99","Correct":-1,"Choice":-1,"RT":-1,"Accuracy":1,"Outcome":"-1","Keys":[],"TotalKeys":0,"Block":2,"Trial":157,"Robot":4,"Valence":"Lose","Action":"No-Go","Sham":0,"Color":"blue","trial_type":"pit-trial","trial_index":177,"time_elapsed":782172,"internal_node_id":"0.0-166.0","task_version":"test-retest-t4"},{"Rune":"rune_07_gar","Hex":"#ffcc3399","Correct":32,"Choice":32,"RT":339.4700000062585,"Accuracy":1,"Outcome":"+10","Keys":[1841.380000114441],"TotalKeys":1,"Block":2,"Trial":158,"Robot":1,"Valence":"Win","Action":"Go","Sham":0,"Color":"yellow","trial_type":"pit-trial","trial_index":178,"time_elapsed":785016,"internal_node_id":"0.0-167.0","task_version":"test-retest-t4"},{"Rune":"rune_07_thurisaz","Hex":"#3366ff99","Correct":32,"Choice":32,"RT":366.6449999436736,"Accuracy":1,"Outcome":"-1","Keys":[1868.0449998937547],"TotalKeys":1,"Block":2,"Trial":159,"Robot":3,"Valence":"Lose","Action":"Go","Sham":0,"Color":"blue","trial_type":"pit-trial","trial_index":179,"time_elapsed":787888,"internal_node_id":"0.0-168.0","task_version":"test-retest-t4"},{"Rune":"rune_07_laukaz","Hex":"#ffcc3399","Correct":-1,"Choice":-1,"RT":-1,"Accuracy":1,"Outcome":"+10","Keys":[],"TotalKeys":0,"Block":2,"Trial":160,"Robot":2,"Valence":"Win","Action":"No-Go","Sham":0,"Color":"yellow","trial_type":"pit-trial","trial_index":180,"time_elapsed":791891,"internal_node_id":"0.0-169.0","task_version":"test-retest-t4"},{"Rune":"rune_07_kauna","Hex":"#3366ff99","Correct":-1,"Choice":-1,"RT":-1,"Accuracy":1,"Outcome":"-1","Keys":[],"TotalKeys":0,"Block":2,"Trial":161,"Robot":4,"Valence":"Lose","Action":"No-Go","Sham":0,"Color":"blue","trial_type":"pit-trial","trial_index":181,"time_elapsed":795895,"internal_node_id":"0.0-170.0","task_version":"test-retest-t4"},{"Rune":"rune_07_gar","Hex":"#ffcc3399","Correct":32,"Choice":32,"RT":404.6550001949072,"Accuracy":1,"Outcome":"+10","Keys":[1905.7399998418987],"TotalKeys":1,"Block":2,"Trial":162,"Robot":1,"Valence":"Win","Action":"Go","Sham":0,"Color":"yellow","trial_type":"pit-trial","trial_index":182,"time_elapsed":798804,"internal_node_id":"0.0-171.0","task_version":"test-retest-t4"},{"Rune":"rune_07_laukaz","Hex":"#ffcc3399","Correct":-1,"Choice":-1,"RT":-1,"Accuracy":1,"Outcome":"+10","Keys":[],"TotalKeys":0,"Block":2,"Trial":163,"Robot":2,"Valence":"Win","Action":"No-Go","Sham":0,"Color":"yellow","trial_type":"pit-trial","trial_index":183,"time_elapsed":802807,"internal_node_id":"0.0-172.0","task_version":"test-retest-t4"},{"Rune":"rune_07_thurisaz","Hex":"#3366ff99","Correct":32,"Choice":32,"RT":428.8300001062453,"Accuracy":1,"Outcome":"-1","Keys":[1929.0299997664988],"TotalKeys":1,"Block":2,"Trial":164,"Robot":3,"Valence":"Lose","Action":"Go","Sham":0,"Color":"blue","trial_type":"pit-trial","trial_index":184,"time_elapsed":805739,"internal_node_id":"0.0-173.0","task_version":"test-retest-t4"},{"Rune":"rune_07_laukaz","Hex":"#ffcc3399","Correct":-1,"Choice":-1,"RT":-1,"Accuracy":1,"Outcome":"+1","Keys":[],"TotalKeys":0,"Block":2,"Trial":165,"Robot":2,"Valence":"Win","Action":"No-Go","Sham":1,"Color":"yellow","trial_type":"pit-trial","trial_index":185,"time_elapsed":809743,"internal_node_id":"0.0-174.0","task_version":"test-retest-t4"},{"Rune":"rune_07_gar","Hex":"#ffcc3399","Correct":32,"Choice":32,"RT":339.7200000472367,"Accuracy":1,"Outcome":"+10","Keys":[1840.1349997147918],"TotalKeys":1,"Block":2,"Trial":166,"Robot":1,"Valence":"Win","Action":"Go","Sham":0,"Color":"yellow","trial_type":"pit-trial","trial_index":186,"time_elapsed":812586,"internal_node_id":"0.0-175.0","task_version":"test-retest-t4"},{"Rune":"rune_07_thurisaz","Hex":"#3366ff99","Correct":32,"Choice":32,"RT":354.01499969884753,"Accuracy":1,"Outcome":"-1","Keys":[1854.5249998569489],"TotalKeys":1,"Block":2,"Trial":167,"Robot":3,"Valence":"Lose","Action":"Go","Sham":0,"Color":"blue","trial_type":"pit-trial","trial_index":187,"time_elapsed":815443,"internal_node_id":"0.0-176.0","task_version":"test-retest-t4"},{"Rune":"rune_07_kauna","Hex":"#3366ff99","Correct":-1,"Choice":-1,"RT":-1,"Accuracy":1,"Outcome":"-1","Keys":[],"TotalKeys":0,"Block":2,"Trial":168,"Robot":4,"Valence":"Lose","Action":"No-Go","Sham":0,"Color":"blue","trial_type":"pit-trial","trial_index":188,"time_elapsed":819446,"internal_node_id":"0.0-177.0","task_version":"test-retest-t4"},{"Rune":"rune_07_kauna","Hex":"#3366ff99","Correct":-1,"Choice":-1,"RT":-1,"Accuracy":1,"Outcome":"-1","Keys":[],"TotalKeys":0,"Block":2,"Trial":169,"Robot":4,"Valence":"Lose","Action":"No-Go","Sham":0,"Color":"blue","trial_type":"pit-trial","trial_index":189,"time_elapsed":823450,"internal_node_id":"0.0-178.0","task_version":"test-retest-t4"},{"Rune":"rune_07_thurisaz","Hex":"#3366ff99","Correct":32,"Choice":32,"RT":475.52999993786216,"Accuracy":1,"Outcome":"-1","Keys":[1976.6699997708201],"TotalKeys":1,"Block":2,"Trial":170,"Robot":3,"Valence":"Lose","Action":"Go","Sham":0,"Color":"blue","trial_type":"pit-trial","trial_index":190,"time_elapsed":826429,"internal_node_id":"0.0-179.0","task_version":"test-retest-t4"},{"Rune":"rune_07_gar","Hex":"#ffcc3399","Correct":32,"Choice":32,"RT":335.2299998514354,"Accuracy":1,"Outcome":"+1","Keys":[1836.8400000035763],"TotalKeys":1,"Block":2,"Trial":171,"Robot":1,"Valence":"Win","Action":"Go","Sham":1,"Color":"yellow","trial_type":"pit-trial","trial_index":191,"time_elapsed":829271,"internal_node_id":"0.0-180.0","task_version":"test-retest-t4"},{"Rune":"rune_07_laukaz","Hex":"#ffcc3399","Correct":-1,"Choice":-1,"RT":-1,"Accuracy":1,"Outcome":"+10","Keys":[],"TotalKeys":0,"Block":2,"Trial":172,"Robot":2,"Valence":"Win","Action":"No-Go","Sham":0,"Color":"yellow","trial_type":"pit-trial","trial_index":192,"time_elapsed":833274,"internal_node_id":"0.0-181.0","task_version":"test-retest-t4"},{"Rune":"rune_07_laukaz","Hex":"#ffcc3399","Correct":-1,"Choice":-1,"RT":-1,"Accuracy":1,"Outcome":"+10","Keys":[],"TotalKeys":0,"Block":2,"Trial":173,"Robot":2,"Valence":"Win","Action":"No-Go","Sham":0,"Color":"yellow","trial_type":"pit-trial","trial_index":193,"time_elapsed":837278,"internal_node_id":"0.0-182.0","task_version":"test-retest-t4"},{"Rune":"rune_07_kauna","Hex":"#3366ff99","Correct":-1,"Choice":-1,"RT":-1,"Accuracy":1,"Outcome":"-10","Keys":[],"TotalKeys":0,"Block":2,"Trial":174,"Robot":4,"Valence":"Lose","Action":"No-Go","Sham":1,"Color":"blue","trial_type":"pit-trial","trial_index":194,"time_elapsed":841282,"internal_node_id":"0.0-183.0","task_version":"test-retest-t4"},{"Rune":"rune_07_gar","Hex":"#ffcc3399","Correct":32,"Choice":32,"RT":406.0500003397465,"Accuracy":1,"Outcome":"+10","Keys":[1906.1599997803569],"TotalKeys":1,"Block":2,"Trial":175,"Robot":1,"Valence":"Win","Action":"Go","Sham":0,"Color":"yellow","trial_type":"pit-trial","trial_index":195,"time_elapsed":844191,"internal_node_id":"0.0-184.0","task_version":"test-retest-t4"},{"Rune":"rune_07_thurisaz","Hex":"#3366ff99","Correct":32,"Choice":32,"RT":457.40999979898334,"Accuracy":1,"Outcome":"-10","Keys":[1957.630000077188],"TotalKeys":1,"Block":2,"Trial":176,"Robot":3,"Valence":"Lose","Action":"Go","Sham":1,"Color":"blue","trial_type":"pit-trial","trial_index":196,"time_elapsed":847152,"internal_node_id":"0.0-185.0","task_version":"test-retest-t4"},{"Rune":"rune_07_gar","Hex":"#ffcc3399","Correct":32,"Choice":32,"RT":348.3549999073148,"Accuracy":1,"Outcome":"+10","Keys":[1848.8300000317395],"TotalKeys":1,"Block":2,"Trial":177,"Robot":1,"Valence":"Win","Action":"Go","Sham":0,"Color":"yellow","trial_type":"pit-trial","trial_index":197,"time_elapsed":850004,"internal_node_id":"0.0-186.0","task_version":"test-retest-t4"},{"Rune":"rune_07_kauna","Hex":"#3366ff99","Correct":-1,"Choice":-1,"RT":-1,"Accuracy":1,"Outcome":"-1","Keys":[],"TotalKeys":0,"Block":2,"Trial":178,"Robot":4,"Valence":"Lose","Action":"No-Go","Sham":0,"Color":"blue","trial_type":"pit-trial","trial_index":198,"time_elapsed":854008,"internal_node_id":"0.0-187.0","task_version":"test-retest-t4"},{"Rune":"rune_07_laukaz","Hex":"#ffcc3399","Correct":-1,"Choice":-1,"RT":-1,"Accuracy":1,"Outcome":"+10","Keys":[],"TotalKeys":0,"Block":2,"Trial":179,"Robot":2,"Valence":"Win","Action":"No-Go","Sham":0,"Color":"yellow","trial_type":"pit-trial","trial_index":199,"time_elapsed":858011,"internal_node_id":"0.0-188.0","task_version":"test-retest-t4"},{"Rune":"rune_07_thurisaz","Hex":"#3366ff99","Correct":32,"Choice":32,"RT":523.0999998748302,"Accuracy":1,"Outcome":"-1","Keys":[2024.0850001573563],"TotalKeys":1,"Block":2,"Trial":180,"Robot":3,"Valence":"Lose","Action":"Go","Sham":0,"Color":"blue","trial_type":"pit-trial","trial_index":200,"time_elapsed":861038,"internal_node_id":"0.0-189.0","task_version":"test-retest-t4"},{"view_history":"[{\"page_index\":0,\"viewing_time\":1548.6750002019107},{\"page_index\":1,\"viewing_time\":1186.0249997116625}]","rt":2735.1350001990795,"trial_type":"pit-instructions","trial_index":201,"time_elapsed":863775,"internal_node_id":"0.0-190.0","task_version":"test-retest-t4"},{"Rune":"rune_07_gar","Hex":"#ffcc3399","Correct":32,"Choice":32,"RT":317.90499994531274,"Accuracy":1,"Outcome":"+10","Keys":[1819.0500000491738],"TotalKeys":1,"Block":2,"Trial":181,"Robot":1,"Valence":"Win","Action":"Go","Sham":0,"Color":"yellow","trial_type":"pit-trial","trial_index":202,"time_elapsed":866597,"internal_node_id":"0.0-191.0","task_version":"test-retest-t4"},{"Rune":"rune_07_laukaz","Hex":"#ffcc3399","Correct":-1,"Choice":-1,"RT":-1,"Accuracy":1,"Outcome":"+10","Keys":[],"TotalKeys":0,"Block":2,"Trial":182,"Robot":2,"Valence":"Win","Action":"No-Go","Sham":0,"Color":"yellow","trial_type":"pit-trial","trial_index":203,"time_elapsed":870602,"internal_node_id":"0.0-192.0","task_version":"test-retest-t4"},{"Rune":"rune_07_kauna","Hex":"#3366ff99","Correct":-1,"Choice":-1,"RT":-1,"Accuracy":1,"Outcome":"-1","Keys":[],"TotalKeys":0,"Block":2,"Trial":183,"Robot":4,"Valence":"Lose","Action":"No-Go","Sham":0,"Color":"blue","trial_type":"pit-trial","trial_index":204,"time_elapsed":874605,"internal_node_id":"0.0-193.0","task_version":"test-retest-t4"},{"Rune":"rune_07_thurisaz","Hex":"#3366ff99","Correct":32,"Choice":32,"RT":344.57000019028783,"Accuracy":1,"Outcome":"-1","Keys":[1845.5850002355874],"TotalKeys":1,"Block":2,"Trial":184,"Robot":3,"Valence":"Lose","Action":"Go","Sham":0,"Color":"blue","trial_type":"pit-trial","trial_index":205,"time_elapsed":877454,"internal_node_id":"0.0-194.0","task_version":"test-retest-t4"},{"Rune":"rune_07_laukaz","Hex":"#ffcc3399","Correct":-1,"Choice":-1,"RT":-1,"Accuracy":1,"Outcome":"+1","Keys":[],"TotalKeys":0,"Block":2,"Trial":185,"Robot":2,"Valence":"Win","Action":"No-Go","Sham":1,"Color":"yellow","trial_type":"pit-trial","trial_index":206,"time_elapsed":881458,"internal_node_id":"0.0-195.0","task_version":"test-retest-t4"},{"Rune":"rune_07_kauna","Hex":"#3366ff99","Correct":-1,"Choice":-1,"RT":-1,"Accuracy":1,"Outcome":"-1","Keys":[],"TotalKeys":0,"Block":2,"Trial":186,"Robot":4,"Valence":"Lose","Action":"No-Go","Sham":0,"Color":"blue","trial_type":"pit-trial","trial_index":207,"time_elapsed":885462,"internal_node_id":"0.0-196.0","task_version":"test-retest-t4"},{"Rune":"rune_07_gar","Hex":"#ffcc3399","Correct":32,"Choice":32,"RT":345.9649998694658,"Accuracy":1,"Outcome":"+10","Keys":[1846.6900000348687],"TotalKeys":1,"Block":2,"Trial":187,"Robot":1,"Valence":"Win","Action":"Go","Sham":0,"Color":"yellow","trial_type":"pit-trial","trial_index":208,"time_elapsed":888312,"internal_node_id":"0.0-197.0","task_version":"test-retest-t4"},{"Rune":"rune_07_thurisaz","Hex":"#3366ff99","Correct":32,"Choice":32,"RT":337.7150003798306,"Accuracy":1,"Outcome":"-1","Keys":[1837.7749999053776],"TotalKeys":1,"Block":2,"Trial":188,"Robot":3,"Valence":"Lose","Action":"Go","Sham":0,"Color":"blue","trial_type":"pit-trial","trial_index":209,"time_elapsed":891153,"internal_node_id":"0.0-198.0","task_version":"test-retest-t4"},{"Rune":"rune_07_laukaz","Hex":"#ffcc3399","Correct":-1,"Choice":-1,"RT":-1,"Accuracy":1,"Outcome":"+10","Keys":[],"TotalKeys":0,"Block":2,"Trial":189,"Robot":2,"Valence":"Win","Action":"No-Go","Sham":0,"Color":"yellow","trial_type":"pit-trial","trial_index":210,"time_elapsed":895157,"internal_node_id":"0.0-199.0","task_version":"test-retest-t4"},{"Rune":"rune_07_gar","Hex":"#ffcc3399","Correct":32,"Choice":32,"RT":351.6549998894334,"Accuracy":1,"Outcome":"+1","Keys":[1853.015000000596],"TotalKeys":1,"Block":2,"Trial":190,"Robot":1,"Valence":"Win","Action":"Go","Sham":1,"Color":"yellow","trial_type":"pit-trial","trial_index":211,"time_elapsed":898013,"internal_node_id":"0.0-200.0","task_version":"test-retest-t4"},{"Rune":"rune_07_thurisaz","Hex":"#3366ff99","Correct":32,"Choice":32,"RT":347.46000031009316,"Accuracy":1,"Outcome":"-10","Keys":[1849.4600001722574],"TotalKeys":1,"Block":2,"Trial":191,"Robot":3,"Valence":"Lose","Action":"Go","Sham":1,"Color":"blue","trial_type":"pit-trial","trial_index":212,"time_elapsed":900866,"internal_node_id":"0.0-201.0","task_version":"test-retest-t4"},{"Rune":"rune_07_kauna","Hex":"#3366ff99","Correct":-1,"Choice":-1,"RT":-1,"Accuracy":1,"Outcome":"-1","Keys":[],"TotalKeys":0,"Block":2,"Trial":192,"Robot":4,"Valence":"Lose","Action":"No-Go","Sham":0,"Color":"blue","trial_type":"pit-trial","trial_index":213,"time_elapsed":904869,"internal_node_id":"0.0-202.0","task_version":"test-retest-t4"},{"Rune":"rune_07_laukaz","Hex":"#ffcc3399","Correct":-1,"Choice":-1,"RT":-1,"Accuracy":1,"Outcome":"+10","Keys":[],"TotalKeys":0,"Block":2,"Trial":193,"Robot":2,"Valence":"Win","Action":"No-Go","Sham":0,"Color":"yellow","trial_type":"pit-trial","trial_index":214,"time_elapsed":908874,"internal_node_id":"0.0-203.0","task_version":"test-retest-t4"},{"Rune":"rune_07_kauna","Hex":"#3366ff99","Correct":-1,"Choice":-1,"RT":-1,"Accuracy":1,"Outcome":"-1","Keys":[],"TotalKeys":0,"Block":2,"Trial":194,"Robot":4,"Valence":"Lose","Action":"No-Go","Sham":0,"Color":"blue","trial_type":"pit-trial","trial_index":215,"time_elapsed":912877,"internal_node_id":"0.0-204.0","task_version":"test-retest-t4"},{"Rune":"rune_07_gar","Hex":"#ffcc3399","Correct":32,"Choice":32,"RT":380.3149997256696,"Accuracy":1,"Outcome":"+10","Keys":[1881.5799998119473],"TotalKeys":1,"Block":2,"Trial":195,"Robot":1,"Valence":"Win","Action":"Go","Sham":0,"Color":"yellow","trial_type":"pit-trial","trial_index":216,"time_elapsed":915761,"internal_node_id":"0.0-205.0","task_version":"test-retest-t4"},{"Rune":"rune_07_thurisaz","Hex":"#3366ff99","Correct":32,"Choice":32,"RT":349.2299998179078,"Accuracy":1,"Outcome":"-1","Keys":[1849.4949997402728],"TotalKeys":1,"Block":2,"Trial":196,"Robot":3,"Valence":"Lose","Action":"Go","Sham":0,"Color":"blue","trial_type":"pit-trial","trial_index":217,"time_elapsed":918614,"internal_node_id":"0.0-206.0","task_version":"test-retest-t4"},{"Rune":"rune_07_kauna","Hex":"#3366ff99","Correct":-1,"Choice":-1,"RT":-1,"Accuracy":1,"Outcome":"-10","Keys":[],"TotalKeys":0,"Block":2,"Trial":197,"Robot":4,"Valence":"Lose","Action":"No-Go","Sham":1,"Color":"blue","trial_type":"pit-trial","trial_index":218,"time_elapsed":922617,"internal_node_id":"0.0-207.0","task_version":"test-retest-t4"},{"Rune":"rune_07_gar","Hex":"#ffcc3399","Correct":32,"Choice":32,"RT":403.3150002360344,"Accuracy":1,"Outcome":"+10","Keys":[1904.0999999269843],"TotalKeys":1,"Block":2,"Trial":198,"Robot":1,"Valence":"Win","Action":"Go","Sham":0,"Color":"yellow","trial_type":"pit-trial","trial_index":219,"time_elapsed":925523,"internal_node_id":"0.0-208.0","task_version":"test-retest-t4"},{"Rune":"rune_07_thurisaz","Hex":"#3366ff99","Correct":32,"Choice":32,"RT":453.64499976858497,"Accuracy":1,"Outcome":"-1","Keys":[1954.7449997626245],"TotalKeys":1,"Block":2,"Trial":199,"Robot":3,"Valence":"Lose","Action":"Go","Sham":0,"Color":"blue","trial_type":"pit-trial","trial_index":220,"time_elapsed":928480,"internal_node_id":"0.0-209.0","task_version":"test-retest-t4"},{"Rune":"rune_07_laukaz","Hex":"#ffcc3399","Correct":-1,"Choice":-1,"RT":-1,"Accuracy":1,"Outcome":"+10","Keys":[],"TotalKeys":0,"Block":2,"Trial":200,"Robot":2,"Valence":"Win","Action":"No-Go","Sham":0,"Color":"yellow","trial_type":"pit-trial","trial_index":221,"time_elapsed":932484,"internal_node_id":"0.0-210.0","task_version":"test-retest-t4"},{"Rune":"rune_07_thurisaz","Hex":"#3366ff99","Correct":32,"Choice":32,"RT":458.7150001898408,"Accuracy":1,"Outcome":"-10","Keys":[1958.7450004182756],"TotalKeys":1,"Block":2,"Trial":201,"Robot":3,"Valence":"Lose","Action":"Go","Sham":1,"Color":"blue","trial_type":"pit-trial","trial_index":222,"time_elapsed":935445,"internal_node_id":"0.0-211.0","task_version":"test-retest-t4"},{"Rune":"rune_07_kauna","Hex":"#3366ff99","Correct":-1,"Choice":-1,"RT":-1,"Accuracy":1,"Outcome":"-1","Keys":[],"TotalKeys":0,"Block":2,"Trial":202,"Robot":4,"Valence":"Lose","Action":"No-Go","Sham":0,"Color":"blue","trial_type":"pit-trial","trial_index":223,"time_elapsed":939449,"internal_node_id":"0.0-212.0","task_version":"test-retest-t4"},{"Rune":"rune_07_laukaz","Hex":"#ffcc3399","Correct":-1,"Choice":-1,"RT":-1,"Accuracy":1,"Outcome":"+10","Keys":[],"TotalKeys":0,"Block":2,"Trial":203,"Robot":2,"Valence":"Win","Action":"No-Go","Sham":0,"Color":"yellow","trial_type":"pit-trial","trial_index":224,"time_elapsed":943452,"internal_node_id":"0.0-213.0","task_version":"test-retest-t4"},{"Rune":"rune_07_gar","Hex":"#ffcc3399","Correct":32,"Choice":32,"RT":421.27500008791685,"Accuracy":1,"Outcome":"+10","Keys":[1921.3799997232854],"TotalKeys":1,"Block":2,"Trial":204,"Robot":1,"Valence":"Win","Action":"Go","Sham":0,"Color":"yellow","trial_type":"pit-trial","trial_index":225,"time_elapsed":946377,"internal_node_id":"0.0-214.0","task_version":"test-retest-t4"},{"Rune":"rune_07_gar","Hex":"#ffcc3399","Correct":32,"Choice":32,"RT":367.3350000753999,"Accuracy":1,"Outcome":"+10","Keys":[1867.5299999304116],"TotalKeys":1,"Block":2,"Trial":205,"Robot":1,"Valence":"Win","Action":"Go","Sham":0,"Color":"yellow","trial_type":"pit-trial","trial_index":226,"time_elapsed":949248,"internal_node_id":"0.0-215.0","task_version":"test-retest-t4"},{"Rune":"rune_07_kauna","Hex":"#3366ff99","Correct":-1,"Choice":-1,"RT":-1,"Accuracy":1,"Outcome":"-10","Keys":[],"TotalKeys":0,"Block":2,"Trial":206,"Robot":4,"Valence":"Lose","Action":"No-Go","Sham":1,"Color":"blue","trial_type":"pit-trial","trial_index":227,"time_elapsed":953251,"internal_node_id":"0.0-216.0","task_version":"test-retest-t4"},{"Rune":"rune_07_thurisaz","Hex":"#3366ff99","Correct":32,"Choice":32,"RT":460.09499998763204,"Accuracy":1,"Outcome":"-1","Keys":[1961.0199998132885],"TotalKeys":1,"Block":2,"Trial":207,"Robot":3,"Valence":"Lose","Action":"Go","Sham":0,"Color":"blue","trial_type":"pit-trial","trial_index":228,"time_elapsed":956215,"internal_node_id":"0.0-217.0","task_version":"test-retest-t4"},{"Rune":"rune_07_laukaz","Hex":"#ffcc3399","Correct":-1,"Choice":-1,"RT":-1,"Accuracy":1,"Outcome":"+10","Keys":[],"TotalKeys":0,"Block":2,"Trial":208,"Robot":2,"Valence":"Win","Action":"No-Go","Sham":0,"Color":"yellow","trial_type":"pit-trial","trial_index":229,"time_elapsed":960220,"internal_node_id":"0.0-218.0","task_version":"test-retest-t4"},{"Rune":"rune_07_kauna","Hex":"#3366ff99","Correct":-1,"Choice":-1,"RT":-1,"Accuracy":1,"Outcome":"-1","Keys":[],"TotalKeys":0,"Block":2,"Trial":209,"Robot":4,"Valence":"Lose","Action":"No-Go","Sham":0,"Color":"blue","trial_type":"pit-trial","trial_index":230,"time_elapsed":964224,"internal_node_id":"0.0-219.0","task_version":"test-retest-t4"},{"Rune":"rune_07_gar","Hex":"#ffcc3399","Correct":32,"Choice":32,"RT":352.70499996840954,"Accuracy":1,"Outcome":"+1","Keys":[1853.5750000737607],"TotalKeys":1,"Block":2,"Trial":210,"Robot":1,"Valence":"Win","Action":"Go","Sham":1,"Color":"yellow","trial_type":"pit-trial","trial_index":231,"time_elapsed":967080,"internal_node_id":"0.0-220.0","task_version":"test-retest-t4"},{"Rune":"rune_07_laukaz","Hex":"#ffcc3399","Correct":-1,"Choice":-1,"RT":-1,"Accuracy":1,"Outcome":"+10","Keys":[],"TotalKeys":0,"Block":2,"Trial":211,"Robot":2,"Valence":"Win","Action":"No-Go","Sham":0,"Color":"yellow","trial_type":"pit-trial","trial_index":232,"time_elapsed":971084,"internal_node_id":"0.0-221.0","task_version":"test-retest-t4"},{"Rune":"rune_07_thurisaz","Hex":"#3366ff99","Correct":32,"Choice":32,"RT":418.14500000327826,"Accuracy":1,"Outcome":"-1","Keys":[1919.1100001335144],"TotalKeys":1,"Block":2,"Trial":212,"Robot":3,"Valence":"Lose","Action":"Go","Sham":0,"Color":"blue","trial_type":"pit-trial","trial_index":233,"time_elapsed":974006,"internal_node_id":"0.0-222.0","task_version":"test-retest-t4"},{"Rune":"rune_07_gar","Hex":"#ffcc3399","Correct":32,"Choice":32,"RT":333.1599999219179,"Accuracy":1,"Outcome":"+10","Keys":[1833.8399999774992],"TotalKeys":1,"Block":2,"Trial":213,"Robot":1,"Valence":"Win","Action":"Go","Sham":0,"Color":"yellow","trial_type":"pit-trial","trial_index":234,"time_elapsed":976842,"internal_node_id":"0.0-223.0","task_version":"test-retest-t4"},{"Rune":"rune_07_laukaz","Hex":"#ffcc3399","Correct":-1,"Choice":-1,"RT":-1,"Accuracy":1,"Outcome":"+10","Keys":[],"TotalKeys":0,"Block":2,"Trial":214,"Robot":2,"Valence":"Win","Action":"No-Go","Sham":0,"Color":"yellow","trial_type":"pit-trial","trial_index":235,"time_elapsed":980845,"internal_node_id":"0.0-224.0","task_version":"test-retest-t4"},{"Rune":"rune_07_kauna","Hex":"#3366ff99","Correct":-1,"Choice":-1,"RT":-1,"Accuracy":1,"Outcome":"-1","Keys":[],"TotalKeys":0,"Block":2,"Trial":215,"Robot":4,"Valence":"Lose","Action":"No-Go","Sham":0,"Color":"blue","trial_type":"pit-trial","trial_index":236,"time_elapsed":984849,"internal_node_id":"0.0-225.0","task_version":"test-retest-t4"},{"Rune":"rune_07_thurisaz","Hex":"#3366ff99","Correct":32,"Choice":32,"RT":507.8300000168383,"Accuracy":1,"Outcome":"-1","Keys":[2008.8849999010563],"TotalKeys":1,"Block":2,"Trial":216,"Robot":3,"Valence":"Lose","Action":"Go","Sham":0,"Color":"blue","trial_type":"pit-trial","trial_index":237,"time_elapsed":987861,"internal_node_id":"0.0-226.0","task_version":"test-retest-t4"},{"Rune":"rune_07_kauna","Hex":"#3366ff99","Correct":-1,"Choice":-1,"RT":-1,"Accuracy":1,"Outcome":"-1","Keys":[],"TotalKeys":0,"Block":2,"Trial":217,"Robot":4,"Valence":"Lose","Action":"No-Go","Sham":0,"Color":"blue","trial_type":"pit-trial","trial_index":238,"time_elapsed":991865,"internal_node_id":"0.0-227.0","task_version":"test-retest-t4"},{"Rune":"rune_07_thurisaz","Hex":"#3366ff99","Correct":32,"Choice":32,"RT":443.71500005945563,"Accuracy":1,"Outcome":"-1","Keys":[1944.8150000534952],"TotalKeys":1,"Block":2,"Trial":218,"Robot":3,"Valence":"Lose","Action":"Go","Sham":0,"Color":"blue","trial_type":"pit-trial","trial_index":239,"time_elapsed":994812,"internal_node_id":"0.0-228.0","task_version":"test-retest-t4"},{"Rune":"rune_07_laukaz","Hex":"#ffcc3399","Correct":-1,"Choice":-1,"RT":-1,"Accuracy":1,"Outcome":"+1","Keys":[],"TotalKeys":0,"Block":2,"Trial":219,"Robot":2,"Valence":"Win","Action":"No-Go","Sham":1,"Color":"yellow","trial_type":"pit-trial","trial_index":240,"time_elapsed":998817,"internal_node_id":"0.0-229.0","task_version":"test-retest-t4"},{"Rune":"rune_07_gar","Hex":"#ffcc3399","Correct":32,"Choice":32,"RT":368.85999981313944,"Accuracy":1,"Outcome":"+10","Keys":[1870.6000000238419],"TotalKeys":1,"Block":2,"Trial":220,"Robot":1,"Valence":"Win","Action":"Go","Sham":0,"Color":"yellow","trial_type":"pit-trial","trial_index":241,"time_elapsed":1001690,"internal_node_id":"0.0-230.0","task_version":"test-retest-t4"},{"Rune":"rune_07_kauna","Hex":"#3366ff99","Correct":-1,"Choice":-1,"RT":-1,"Accuracy":1,"Outcome":"-1","Keys":[],"TotalKeys":0,"Block":2,"Trial":221,"Robot":4,"Valence":"Lose","Action":"No-Go","Sham":0,"Color":"blue","trial_type":"pit-trial","trial_index":242,"time_elapsed":1005694,"internal_node_id":"0.0-231.0","task_version":"test-retest-t4"},{"Rune":"rune_07_laukaz","Hex":"#ffcc3399","Correct":-1,"Choice":-1,"RT":-1,"Accuracy":1,"Outcome":"+10","Keys":[],"TotalKeys":0,"Block":2,"Trial":222,"Robot":2,"Valence":"Win","Action":"No-Go","Sham":0,"Color":"yellow","trial_type":"pit-trial","trial_index":243,"time_elapsed":1009698,"internal_node_id":"0.0-232.0","task_version":"test-retest-t4"},{"Rune":"rune_07_gar","Hex":"#ffcc3399","Correct":32,"Choice":32,"RT":344.17999954894185,"Accuracy":1,"Outcome":"+10","Keys":[1845.149999950081],"TotalKeys":1,"Block":2,"Trial":223,"Robot":1,"Valence":"Win","Action":"Go","Sham":0,"Color":"yellow","trial_type":"pit-trial","trial_index":244,"time_elapsed":1012546,"internal_node_id":"0.0-233.0","task_version":"test-retest-t4"},{"Rune":"rune_07_thurisaz","Hex":"#3366ff99","Correct":32,"Choice":32,"RT":396.17499988526106,"Accuracy":1,"Outcome":"-1","Keys":[1897.6500001735985],"TotalKeys":1,"Block":2,"Trial":224,"Robot":3,"Valence":"Lose","Action":"Go","Sham":0,"Color":"blue","trial_type":"pit-trial","trial_index":245,"time_elapsed":1015447,"internal_node_id":"0.0-234.0","task_version":"test-retest-t4"},{"Rune":"rune_07_thurisaz","Hex":"#3366ff99","Correct":32,"Choice":32,"RT":392.8650002926588,"Accuracy":1,"Outcome":"-1","Keys":[1892.999999690801],"TotalKeys":1,"Block":2,"Trial":225,"Robot":3,"Valence":"Lose","Action":"Go","Sham":0,"Color":"blue","trial_type":"pit-trial","trial_index":246,"time_elapsed":1018342,"internal_node_id":"0.0-235.0","task_version":"test-retest-t4"},{"Rune":"rune_07_kauna","Hex":"#3366ff99","Correct":-1,"Choice":-1,"RT":-1,"Accuracy":1,"Outcome":"-1","Keys":[],"TotalKeys":0,"Block":2,"Trial":226,"Robot":4,"Valence":"Lose","Action":"No-Go","Sham":0,"Color":"blue","trial_type":"pit-trial","trial_index":247,"time_elapsed":1022345,"internal_node_id":"0.0-236.0","task_version":"test-retest-t4"},{"Rune":"rune_07_laukaz","Hex":"#ffcc3399","Correct":-1,"Choice":-1,"RT":-1,"Accuracy":1,"Outcome":"+10","Keys":[],"TotalKeys":0,"Block":2,"Trial":227,"Robot":2,"Valence":"Win","Action":"No-Go","Sham":0,"Color":"yellow","trial_type":"pit-trial","trial_index":248,"time_elapsed":1026349,"internal_node_id":"0.0-237.0","task_version":"test-retest-t4"},{"Rune":"rune_07_gar","Hex":"#ffcc3399","Correct":32,"Choice":32,"RT":450.1649998128414,"Accuracy":1,"Outcome":"+10","Keys":[1950.7699999958277],"TotalKeys":1,"Block":2,"Trial":228,"Robot":1,"Valence":"Win","Action":"Go","Sham":0,"Color":"yellow","trial_type":"pit-trial","trial_index":249,"time_elapsed":1029304,"internal_node_id":"0.0-238.0","task_version":"test-retest-t4"},{"Rune":"rune_07_laukaz","Hex":"#ffcc3399","Correct":-1,"Choice":-1,"RT":-1,"Accuracy":1,"Outcome":"+1","Keys":[],"TotalKeys":0,"Block":2,"Trial":229,"Robot":2,"Valence":"Win","Action":"No-Go","Sham":1,"Color":"yellow","trial_type":"pit-trial","trial_index":250,"time_elapsed":1033308,"internal_node_id":"0.0-239.0","task_version":"test-retest-t4"},{"Rune":"rune_07_kauna","Hex":"#3366ff99","Correct":-1,"Choice":-1,"RT":-1,"Accuracy":1,"Outcome":"-1","Keys":[],"TotalKeys":0,"Block":2,"Trial":230,"Robot":4,"Valence":"Lose","Action":"No-Go","Sham":0,"Color":"blue","trial_type":"pit-trial","trial_index":251,"time_elapsed":1037312,"internal_node_id":"0.0-240.0","task_version":"test-retest-t4"},{"Rune":"rune_07_thurisaz","Hex":"#3366ff99","Correct":32,"Choice":32,"RT":493.6299999244511,"Accuracy":1,"Outcome":"-1","Keys":[1994.2300003021955],"TotalKeys":1,"Block":2,"Trial":231,"Robot":3,"Valence":"Lose","Action":"Go","Sham":0,"Color":"blue","trial_type":"pit-trial","trial_index":252,"time_elapsed":1040309,"internal_node_id":"0.0-241.0","task_version":"test-retest-t4"},{"Rune":"rune_07_gar","Hex":"#ffcc3399","Correct":32,"Choice":32,"RT":364.4400001503527,"Accuracy":1,"Outcome":"+10","Keys":[1865.0799999013543],"TotalKeys":1,"Block":2,"Trial":232,"Robot":1,"Valence":"Win","Action":"Go","Sham":0,"Color":"yellow","trial_type":"pit-trial","trial_index":253,"time_elapsed":1043176,"internal_node_id":"0.0-242.0","task_version":"test-retest-t4"},{"Rune":"rune_07_laukaz","Hex":"#ffcc3399","Correct":-1,"Choice":-1,"RT":-1,"Accuracy":1,"Outcome":"+10","Keys":[],"TotalKeys":0,"Block":2,"Trial":233,"Robot":2,"Valence":"Win","Action":"No-Go","Sham":0,"Color":"yellow","trial_type":"pit-trial","trial_index":254,"time_elapsed":1047180,"internal_node_id":"0.0-243.0","task_version":"test-retest-t4"},{"Rune":"rune_07_gar","Hex":"#ffcc3399","Correct":32,"Choice":32,"RT":398.79499981179833,"Accuracy":1,"Outcome":"+10","Keys":[1899.0349997766316],"TotalKeys":1,"Block":2,"Trial":234,"Robot":1,"Valence":"Win","Action":"Go","Sham":0,"Color":"yellow","trial_type":"pit-trial","trial_index":255,"time_elapsed":1050081,"internal_node_id":"0.0-244.0","task_version":"test-retest-t4"},{"Rune":"rune_07_thurisaz","Hex":"#3366ff99","Correct":32,"Choice":32,"RT":619.7950001806021,"Accuracy":1,"Outcome":"-1","Keys":[2120.4349999316037],"TotalKeys":1,"Block":2,"Trial":235,"Robot":3,"Valence":"Lose","Action":"Go","Sham":0,"Color":"blue","trial_type":"pit-trial","trial_index":256,"time_elapsed":1053205,"internal_node_id":"0.0-245.0","task_version":"test-retest-t4"},{"Rune":"rune_07_kauna","Hex":"#3366ff99","Correct":-1,"Choice":-1,"RT":-1,"Accuracy":1,"Outcome":"-10","Keys":[],"TotalKeys":0,"Block":2,"Trial":236,"Robot":4,"Valence":"Lose","Action":"No-Go","Sham":1,"Color":"blue","trial_type":"pit-trial","trial_index":257,"time_elapsed":1057210,"internal_node_id":"0.0-246.0","task_version":"test-retest-t4"},{"Rune":"rune_07_laukaz","Hex":"#ffcc3399","Correct":-1,"Choice":-1,"RT":-1,"Accuracy":1,"Outcome":"+10","Keys":[],"TotalKeys":0,"Block":2,"Trial":237,"Robot":2,"Valence":"Win","Action":"No-Go","Sham":0,"Color":"yellow","trial_type":"pit-trial","trial_index":258,"time_elapsed":1061214,"internal_node_id":"0.0-247.0","task_version":"test-retest-t4"},{"Rune":"rune_07_gar","Hex":"#ffcc3399","Correct":32,"Choice":32,"RT":395.58500004932284,"Accuracy":1,"Outcome":"+1","Keys":[1897.1099997870624],"TotalKeys":1,"Block":2,"Trial":238,"Robot":1,"Valence":"Win","Action":"Go","Sham":1,"Color":"yellow","trial_type":"pit-trial","trial_index":259,"time_elapsed":1064114,"internal_node_id":"0.0-248.0","task_version":"test-retest-t4"},{"Rune":"rune_07_kauna","Hex":"#3366ff99","Correct":-1,"Choice":-1,"RT":-1,"Accuracy":1,"Outcome":"-1","Keys":[],"TotalKeys":0,"Block":2,"Trial":239,"Robot":4,"Valence":"Lose","Action":"No-Go","Sham":0,"Color":"blue","trial_type":"pit-trial","trial_index":260,"time_elapsed":1068118,"internal_node_id":"0.0-249.0","task_version":"test-retest-t4"},{"Rune":"rune_07_thurisaz","Hex":"#3366ff99","Correct":32,"Choice":32,"RT":489.3849999643862,"Accuracy":1,"Outcome":"-10","Keys":[1990.969999693334],"TotalKeys":1,"Block":2,"Trial":240,"Robot":3,"Valence":"Lose","Action":"Go","Sham":1,"Color":"blue","trial_type":"pit-trial","trial_index":261,"time_elapsed":1071112,"internal_node_id":"0.0-250.0","task_version":"test-retest-t4"},{"view_history":"[{\"page_index\":0,\"viewing_time\":2183.0199998803437}]","rt":2183.4100000560284,"trial_type":"pit-instructions","trial_index":262,"time_elapsed":1073296,"internal_node_id":"0.0-251.0","task_version":"test-retest-t4"},{"rt":14701.640000101179,"responses":{"age":"40","gender-categorical":"Male","gender-free-response":"","ethnicity":"Not Hispanic or Latino","race":"White","language":"Yes","fluency":"Very well"},"survey":"demographics","trial_type":"survey-demo","trial_index":263,"time_elapsed":1088002,"internal_node_id":"0.0-252.0","task_version":"test-retest-t4"},{"rt":21565.150000154972,"responses":{"difficulty":"5","fun":"4","clarity":"5","strategy":"none","feedback":"no"},"survey":"debrief","trial_type":"survey-debrief","trial_index":264,"time_elapsed":1109569,"internal_node_id":"0.0-253.0","task_version":"test-retest-t4"},{"rt":2525.584999937564,"stimulus":"You earned a bonus of $1.4 out of $1.5.<br><br>Press any key to complete the experiment.","key_press":32,"trial_type":"html-keyboard-response","trial_index":265,"time_elapsed":1112097,"internal_node_id":"0.0-254.0","task_version":"test-retest-t4","accuracy":0.9333333333333333,"bonus":1.4,"interactions":"[{\"event\":\"blur\",\"trial\":1,\"time\":13367},{\"event\":\"focus\",\"trial\":1,\"time\":24027},{\"event\":\"blur\",\"trial\":140,\"time\":633220},{\"event\":\"focus\",\"trial\":140,\"time\":646661}]"}]