[{"slider_type":"valence","raw_loc":735,"loc":0.97,"trial_type":"affective-slider","trial_index":0,"time_elapsed":10176,"internal_node_id":"0.0-0.0","task_version":"test-retest-t2"},{"responses":{"Q06":"0","Q08":"0","Q03":"1","Q02":"0","Q07":"0","Q05":"0","Q01":"1","Q04":"0"},"rt":34565.83000000683,"survey":"gad7","trial_type":"survey-template","trial_index":1,"time_elapsed":44754,"internal_node_id":"0.0-1.0","task_version":"test-retest-t2"},{"view_history":"[{\"page_index\":0,\"viewing_time\":10562.335000009625},{\"page_index\":1,\"viewing_time\":1371.2549999909243},{\"page_index\":2,\"viewing_time\":3624.615000007907},{\"page_index\":3,\"viewing_time\":6190.124999993714},{\"page_index\":4,\"viewing_time\":5021.489999999176},{\"page_index\":5,\"viewing_time\":3164.6100000070874}]","rt":29937.03000000096,"trial_type":"pit-instructions","trial_index":2,"time_elapsed":74704,"internal_node_id":"0.0-2.0-0.0","task_version":"test-retest-t2"},{"Rune":"rune_00_ingz","Hex":"#FFFFF080","Correct":32,"Choice":-1,"RT":-1,"Accuracy":0,"Outcome":"+0","Keys":[3556.4050000102725],"TotalKeys":1,"Block":0,"Action":"Go","trial_type":"pit-trial","trial_index":3,"time_elapsed":78718,"internal_node_id":"0.0-2.0-1.0-0.0","task_version":"test-retest-t2"},{"Rune":"rune_00_ingz","Hex":"#FFFFF080","Correct":32,"Choice":32,"RT":825.0499999994645,"Accuracy":1,"Outcome":"+10","Keys":[2326.6550000116695],"TotalKeys":1,"Block":0,"Action":"Go","trial_type":"pit-trial","trial_index":4,"time_elapsed":82060,"internal_node_id":"0.0-2.0-1.0-0.1","task_version":"test-retest-t2"},{"Rune":"rune_00_ingz","Hex":"#FFFFF080","Correct":32,"Choice":32,"RT":1409.8599999997532,"Accuracy":1,"Outcome":"+10","Keys":[2910.470000002533],"TotalKeys":1,"Block":0,"Action":"Go","trial_type":"pit-trial","trial_index":5,"time_elapsed":85980,"internal_node_id":"0.0-2.0-1.0-0.2","task_version":"test-retest-t2"},{"Rune":"rune_00_ingz","Hex":"#FFFFF080","Correct":32,"Choice":32,"RT":1464.5450000098208,"Accuracy":1,"Outcome":"+10","Keys":[2965.939999994589],"TotalKeys":1,"Block":0,"Action":"Go","trial_type":"pit-trial","trial_index":6,"time_elapsed":89959,"internal_node_id":"0.0-2.0-1.0-0.3","task_version":"test-retest-t2"},{"view_history":"[{\"page_index\":0,\"viewing_time\":40437.14999999793}]","rt":40438.22500000533,"trial_type":"pit-instructions","trial_index":7,"time_elapsed":130402,"internal_node_id":"0.0-2.0-2.0","task_version":"test-retest-t2"},{"Rune":"rune_00_isaz","Hex":"#FFFFF080","Correct":-1,"Choice":-1,"RT":-1,"Accuracy":1,"Outcome":"+10","Keys":[],"TotalKeys":0,"Block":0,"Action":"No-Go","trial_type":"pit-trial","trial_index":8,"time_elapsed":134413,"internal_node_id":"0.0-2.0-3.0-0.0","task_version":"test-retest-t2"},{"Rune":"rune_00_isaz","Hex":"#FFFFF080","Correct":-1,"Choice":-1,"RT":-1,"Accuracy":1,"Outcome":"+10","Keys":[],"TotalKeys":0,"Block":0,"Action":"No-Go","trial_type":"pit-trial","trial_index":9,"time_elapsed":138429,"internal_node_id":"0.0-2.0-3.0-0.1","task_version":"test-retest-t2"},{"Rune":"rune_00_isaz","Hex":"#FFFFF080","Correct":-1,"Choice":-1,"RT":-1,"Accuracy":1,"Outcome":"+10","Keys":[],"TotalKeys":0,"Block":0,"Action":"No-Go","trial_type":"pit-trial","trial_index":10,"time_elapsed":142448,"internal_node_id":"0.0-2.0-3.0-0.2","task_version":"test-retest-t2"},{"Rune":"rune_00_isaz","Hex":"#FFFFF080","Correct":-1,"Choice":-1,"RT":-1,"Accuracy":1,"Outcome":"+10","Keys":[],"TotalKeys":0,"Block":0,"Action":"No-Go","trial_type":"pit-trial","trial_index":11,"time_elapsed":146460,"internal_node_id":"0.0-2.0-3.0-0.3","task_version":"test-retest-t2"},{"view_history":"[{\"page_index\":0,\"viewing_time\":20575.04000001063},{\"page_index\":1,\"viewing_time\":7851.844999997411},{\"page_index\":2,\"viewing_time\":13355.954999991809},{\"page_index\":3,\"viewing_time\":14094.50000000652},{\"page_index\":4,\"viewing_time\":18881.580000001122},{\"page_index\":5,\"viewing_time\":10890.434999993886},{\"page_index\":6,\"viewing_time\":5438.034999999218},{\"page_index\":7,\"viewing_time\":4381.715000010445}]","rt":95470.14500001387,"trial_type":"pit-instructions","trial_index":12,"time_elapsed":241932,"internal_node_id":"0.0-2.0-4.0","task_version":"test-retest-t2"},{"responses":["Do nothing","+10","-1","True","Yes"],"num_errors":0,"rt":44905.48500001023,"trial_type":"pit-comprehension","trial_index":13,"time_elapsed":286848,"internal_node_id":"0.0-2.0-5.0","task_version":"test-retest-t2"},{"trial_type":"call-function","trial_index":14,"time_elapsed":286859,"internal_node_id":"0.0-3.0","task_version":"test-retest-t2"},{"view_history":"[{\"page_index\":0,\"viewing_time\":8044.450000001234},{\"page_index\":1,\"viewing_time\":19695.709999999963},{\"page_index\":2,\"viewing_time\":24375.499999994645}]","rt":52116.754999995464,"trial_type":"pit-instructions","trial_index":15,"time_elapsed":338979,"internal_node_id":"0.0-4.0","task_version":"test-retest-t2"},{"Rune":"rune_04_ac","Hex":"#3366ff99","Correct":32,"Choice":-1,"RT":-1,"Accuracy":0,"Outcome":"+1","Keys":[],"TotalKeys":0,"Block":1,"Trial":1,"Robot":1,"Valence":"Win","Action":"Go","Sham":0,"Color":"blue","trial_type":"pit-trial","trial_index":16,"time_elapsed":342994,"internal_node_id":"0.0-5.0","task_version":"test-retest-t2"},{"Rune":"rune_04_wunjo","Hex":"#ffcc3399","Correct":32,"Choice":-1,"RT":-1,"Accuracy":0,"Outcome":"-1","Keys":[],"TotalKeys":0,"Block":1,"Trial":2,"Robot":3,"Valence":"Lose","Action":"Go","Sham":1,"Color":"yellow","trial_type":"pit-trial","trial_index":17,"time_elapsed":347005,"internal_node_id":"0.0-6.0","task_version":"test-retest-t2"},{"Rune":"rune_04_iwaz","Hex":"#ffcc3399","Correct":-1,"Choice":-1,"RT":-1,"Accuracy":1,"Outcome":"-1","Keys":[],"TotalKeys":0,"Block":1,"Trial":3,"Robot":4,"Valence":"Lose","Action":"No-Go","Sham":0,"Color":"yellow","trial_type":"pit-trial","trial_index":18,"time_elapsed":351016,"internal_node_id":"0.0-7.0","task_version":"test-retest-t2"},{"Rune":"rune_04_dagaz","Hex":"#3366ff99","Correct":-1,"Choice":32,"RT":850.1300000061747,"Accuracy":0,"Outcome":"+1","Keys":[2353.450000009616],"TotalKeys":1,"Block":1,"Trial":4,"Robot":2,"Valence":"Win","Action":"No-Go","Sham":0,"Color":"blue","trial_type":"pit-trial","trial_index":19,"time_elapsed":354375,"internal_node_id":"0.0-8.0","task_version":"test-retest-t2"},{"Rune":"rune_04_ac","Hex":"#3366ff99","Correct":32,"Choice":32,"RT":547.6699999999255,"Accuracy":1,"Outcome":"+10","Keys":[2049.509999997099],"TotalKeys":1,"Block":1,"Trial":5,"Robot":1,"Valence":"Win","Action":"Go","Sham":0,"Color":"blue","trial_type":"pit-trial","trial_index":20,"time_elapsed":357432,"internal_node_id":"0.0-9.0","task_version":"test-retest-t2"},{"Rune":"rune_04_dagaz","Hex":"#3366ff99","Correct":-1,"Choice":-1,"RT":-1,"Accuracy":1,"Outcome":"+10","Keys":[],"TotalKeys":0,"Block":1,"Trial":6,"Robot":2,"Valence":"Win","Action":"No-Go","Sham":0,"Color":"blue","trial_type":"pit-trial","trial_index":21,"time_elapsed":361441,"internal_node_id":"0.0-10.0","task_version":"test-retest-t2"},{"Rune":"rune_04_iwaz","Hex":"#ffcc3399","Correct":-1,"Choice":-1,"RT":-1,"Accuracy":1,"Outcome":"-10","Keys":[],"TotalKeys":0,"Block":1,"Trial":7,"Robot":4,"Valence":"Lose","Action":"No-Go","Sham":1,"Color":"yellow","trial_type":"pit-trial","trial_index":22,"time_elapsed":365451,"internal_node_id":"0.0-11.0","task_version":"test-retest-t2"},{"Rune":"rune_04_wunjo","Hex":"#ffcc3399","Correct":32,"Choice":-1,"RT":-1,"Accuracy":0,"Outcome":"-10","Keys":[],"TotalKeys":0,"Block":1,"Trial":8,"Robot":3,"Valence":"Lose","Action":"Go","Sham":0,"Color":"yellow","trial_type":"pit-trial","trial_index":23,"time_elapsed":369460,"internal_node_id":"0.0-12.0","task_version":"test-retest-t2"},{"Rune":"rune_04_dagaz","Hex":"#3366ff99","Correct":-1,"Choice":32,"RT":1156.7050000012387,"Accuracy":0,"Outcome":"+1","Keys":[2660.134999998263],"TotalKeys":1,"Block":1,"Trial":9,"Robot":2,"Valence":"Win","Action":"No-Go","Sham":0,"Color":"blue","trial_type":"pit-trial","trial_index":24,"time_elapsed":373128,"internal_node_id":"0.0-13.0","task_version":"test-retest-t2"},{"Rune":"rune_04_wunjo","Hex":"#ffcc3399","Correct":32,"Choice":32,"RT":898.4550000022864,"Accuracy":1,"Outcome":"-1","Keys":[2398.849999997765],"TotalKeys":1,"Block":1,"Trial":10,"Robot":3,"Valence":"Lose","Action":"Go","Sham":0,"Color":"yellow","trial_type":"pit-trial","trial_index":25,"time_elapsed":376534,"internal_node_id":"0.0-14.0","task_version":"test-retest-t2"},{"Rune":"rune_04_ac","Hex":"#3366ff99","Correct":32,"Choice":32,"RT":1078.059999999823,"Accuracy":1,"Outcome":"+1","Keys":[2582.2100000077626],"TotalKeys":1,"Block":1,"Trial":11,"Robot":1,"Valence":"Win","Action":"Go","Sham":1,"Color":"blue","trial_type":"pit-trial","trial_index":26,"time_elapsed":380125,"internal_node_id":"0.0-15.0","task_version":"test-retest-t2"},{"Rune":"rune_04_iwaz","Hex":"#ffcc3399","Correct":-1,"Choice":-1,"RT":-1,"Accuracy":1,"Outcome":"-1","Keys":[],"TotalKeys":0,"Block":1,"Trial":12,"Robot":4,"Valence":"Lose","Action":"No-Go","Sham":0,"Color":"yellow","trial_type":"pit-trial","trial_index":27,"time_elapsed":384137,"internal_node_id":"0.0-16.0","task_version":"test-retest-t2"},{"Rune":"rune_04_ac","Hex":"#3366ff99","Correct":32,"Choice":32,"RT":985.5099999986123,"Accuracy":1,"Outcome":"+10","Keys":[2488.4900000033667],"TotalKeys":1,"Block":1,"Trial":13,"Robot":1,"Valence":"Win","Action":"Go","Sham":0,"Color":"blue","trial_type":"pit-trial","trial_index":28,"time_elapsed":387632,"internal_node_id":"0.0-17.0","task_version":"test-retest-t2"},{"Rune":"rune_04_iwaz","Hex":"#ffcc3399","Correct":-1,"Choice":32,"RT":916.5899999934481,"Accuracy":0,"Outcome":"-10","Keys":[2419.6150000061607,3207.2100000077626],"TotalKeys":2,"Block":1,"Trial":14,"Robot":4,"Valence":"Lose","Action":"No-Go","Sham":0,"Color":"yellow","trial_type":"pit-trial","trial_index":29,"time_elapsed":391057,"internal_node_id":"0.0-18.0","task_version":"test-retest-t2"},{"Rune":"rune_04_wunjo","Hex":"#ffcc3399","Correct":32,"Choice":-1,"RT":-1,"Accuracy":0,"Outcome":"-10","Keys":[],"TotalKeys":0,"Block":1,"Trial":15,"Robot":3,"Valence":"Lose","Action":"Go","Sham":0,"Color":"yellow","trial_type":"pit-trial","trial_index":30,"time_elapsed":395066,"internal_node_id":"0.0-19.0","task_version":"test-retest-t2"},{"Rune":"rune_04_dagaz","Hex":"#3366ff99","Correct":-1,"Choice":32,"RT":834.644999995362,"Accuracy":0,"Outcome":"+10","Keys":[2335.735000000568],"TotalKeys":1,"Block":1,"Trial":16,"Robot":2,"Valence":"Win","Action":"No-Go","Sham":1,"Color":"blue","trial_type":"pit-trial","trial_index":31,"time_elapsed":398410,"internal_node_id":"0.0-20.0","task_version":"test-retest-t2"},{"Rune":"rune_04_iwaz","Hex":"#ffcc3399","Correct":-1,"Choice":32,"RT":1154.6200000011595,"Accuracy":0,"Outcome":"-10","Keys":[2657.1699999913108],"TotalKeys":1,"Block":1,"Trial":17,"Robot":4,"Valence":"Lose","Action":"No-Go","Sham":0,"Color":"yellow","trial_type":"pit-trial","trial_index":32,"time_elapsed":402076,"internal_node_id":"0.0-21.0","task_version":"test-retest-t2"},{"Rune":"rune_04_wunjo","Hex":"#ffcc3399","Correct":32,"Choice":-1,"RT":-1,"Accuracy":0,"Outcome":"-10","Keys":[3572.489999991376],"TotalKeys":1,"Block":1,"Trial":18,"Robot":3,"Valence":"Lose","Action":"Go","Sham":0,"Color":"yellow","trial_type":"pit-trial","trial_index":33,"time_elapsed":406087,"internal_node_id":"0.0-22.0","task_version":"test-retest-t2"},{"Rune":"rune_04_ac","Hex":"#3366ff99","Correct":32,"Choice":32,"RT":679.1949999897042,"Accuracy":1,"Outcome":"+10","Keys":[2180.1350000023376],"TotalKeys":1,"Block":1,"Trial":19,"Robot":1,"Valence":"Win","Action":"Go","Sham":0,"Color":"blue","trial_type":"pit-trial","trial_index":34,"time_elapsed":409273,"internal_node_id":"0.0-23.0","task_version":"test-retest-t2"},{"Rune":"rune_04_dagaz","Hex":"#3366ff99","Correct":-1,"Choice":32,"RT":696.2150000035763,"Accuracy":0,"Outcome":"+1","Keys":[2198.7500000104774],"TotalKeys":1,"Block":1,"Trial":20,"Robot":2,"Valence":"Win","Action":"No-Go","Sham":0,"Color":"blue","trial_type":"pit-trial","trial_index":35,"time_elapsed":412477,"internal_node_id":"0.0-24.0","task_version":"test-retest-t2"},{"Rune":"rune_04_iwaz","Hex":"#ffcc3399","Correct":-1,"Choice":-1,"RT":-1,"Accuracy":1,"Outcome":"-10","Keys":[3703.240000002552],"TotalKeys":1,"Block":1,"Trial":21,"Robot":4,"Valence":"Lose","Action":"No-Go","Sham":1,"Color":"yellow","trial_type":"pit-trial","trial_index":36,"time_elapsed":416485,"internal_node_id":"0.0-25.0","task_version":"test-retest-t2"},{"Rune":"rune_04_dagaz","Hex":"#3366ff99","Correct":-1,"Choice":32,"RT":671.3000000017928,"Accuracy":0,"Outcome":"+1","Keys":[2175.1400000066496,2755.730000004405],"TotalKeys":2,"Block":1,"Trial":22,"Robot":2,"Valence":"Win","Action":"No-Go","Sham":0,"Color":"blue","trial_type":"pit-trial","trial_index":37,"time_elapsed":419668,"internal_node_id":"0.0-26.0","task_version":"test-retest-t2"},{"Rune":"rune_04_ac","Hex":"#3366ff99","Correct":32,"Choice":32,"RT":681.3899999979185,"Accuracy":1,"Outcome":"+10","Keys":[2184.0550000051735],"TotalKeys":1,"Block":1,"Trial":23,"Robot":1,"Valence":"Win","Action":"Go","Sham":0,"Color":"blue","trial_type":"pit-trial","trial_index":38,"time_elapsed":422858,"internal_node_id":"0.0-27.0","task_version":"test-retest-t2"},{"Rune":"rune_04_wunjo","Hex":"#ffcc3399","Correct":32,"Choice":-1,"RT":-1,"Accuracy":0,"Outcome":"-1","Keys":[],"TotalKeys":0,"Block":1,"Trial":24,"Robot":3,"Valence":"Lose","Action":"Go","Sham":1,"Color":"yellow","trial_type":"pit-trial","trial_index":39,"time_elapsed":426867,"internal_node_id":"0.0-28.0","task_version":"test-retest-t2"},{"Rune":"rune_04_ac","Hex":"#3366ff99","Correct":32,"Choice":32,"RT":860.4449999984354,"Accuracy":1,"Outcome":"+10","Keys":[2361.2950000097044],"TotalKeys":1,"Block":1,"Trial":25,"Robot":1,"Valence":"Win","Action":"Go","Sham":0,"Color":"blue","trial_type":"pit-trial","trial_index":40,"time_elapsed":430235,"internal_node_id":"0.0-29.0","task_version":"test-retest-t2"},{"Rune":"rune_04_wunjo","Hex":"#ffcc3399","Correct":32,"Choice":-1,"RT":-1,"Accuracy":0,"Outcome":"-10","Keys":[],"TotalKeys":0,"Block":1,"Trial":26,"Robot":3,"Valence":"Lose","Action":"Go","Sham":0,"Color":"yellow","trial_type":"pit-trial","trial_index":41,"time_elapsed":434245,"internal_node_id":"0.0-30.0","task_version":"test-retest-t2"},{"Rune":"rune_04_iwaz","Hex":"#ffcc3399","Correct":-1,"Choice":-1,"RT":-1,"Accuracy":1,"Outcome":"-1","Keys":[3097.494999994524],"TotalKeys":1,"Block":1,"Trial":27,"Robot":4,"Valence":"Lose","Action":"No-Go","Sham":0,"Color":"yellow","trial_type":"pit-trial","trial_index":42,"time_elapsed":438275,"internal_node_id":"0.0-31.0","task_version":"test-retest-t2"},{"Rune":"rune_04_dagaz","Hex":"#3366ff99","Correct":-1,"Choice":-1,"RT":-1,"Accuracy":1,"Outcome":"+10","Keys":[],"TotalKeys":0,"Block":1,"Trial":28,"Robot":2,"Valence":"Win","Action":"No-Go","Sham":0,"Color":"blue","trial_type":"pit-trial","trial_index":43,"time_elapsed":442284,"internal_node_id":"0.0-32.0","task_version":"test-retest-t2"},{"Rune":"rune_04_iwaz","Hex":"#ffcc3399","Correct":-1,"Choice":-1,"RT":-1,"Accuracy":1,"Outcome":"-1","Keys":[],"TotalKeys":0,"Block":1,"Trial":29,"Robot":4,"Valence":"Lose","Action":"No-Go","Sham":0,"Color":"yellow","trial_type":"pit-trial","trial_index":44,"time_elapsed":446293,"internal_node_id":"0.0-33.0","task_version":"test-retest-t2"},{"Rune":"rune_04_ac","Hex":"#3366ff99","Correct":32,"Choice":32,"RT":607.8149999957532,"Accuracy":1,"Outcome":"+10","Keys":[2108.76499999722],"TotalKeys":1,"Block":1,"Trial":30,"Robot":1,"Valence":"Win","Action":"Go","Sham":0,"Color":"blue","trial_type":"pit-trial","trial_index":45,"time_elapsed":449407,"internal_node_id":"0.0-34.0","task_version":"test-retest-t2"},{"Rune":"rune_04_wunjo","Hex":"#ffcc3399","Correct":32,"Choice":-1,"RT":-1,"Accuracy":0,"Outcome":"-10","Keys":[],"TotalKeys":0,"Block":1,"Trial":31,"Robot":3,"Valence":"Lose","Action":"Go","Sham":0,"Color":"yellow","trial_type":"pit-trial","trial_index":46,"time_elapsed":453419,"internal_node_id":"0.0-35.0","task_version":"test-retest-t2"},{"Rune":"rune_04_dagaz","Hex":"#3366ff99","Correct":-1,"Choice":32,"RT":1025.5049999977928,"Accuracy":0,"Outcome":"+1","Keys":[2526.2649999931455],"TotalKeys":1,"Block":1,"Trial":32,"Robot":2,"Valence":"Win","Action":"No-Go","Sham":0,"Color":"blue","trial_type":"pit-trial","trial_index":47,"time_elapsed":456952,"internal_node_id":"0.0-36.0","task_version":"test-retest-t2"},{"Rune":"rune_04_wunjo","Hex":"#ffcc3399","Correct":32,"Choice":-1,"RT":-1,"Accuracy":0,"Outcome":"-10","Keys":[3160.6250000040745],"TotalKeys":1,"Block":1,"Trial":33,"Robot":3,"Valence":"Lose","Action":"Go","Sham":0,"Color":"yellow","trial_type":"pit-trial","trial_index":48,"time_elapsed":460966,"internal_node_id":"0.0-37.0","task_version":"test-retest-t2"},{"Rune":"rune_04_iwaz","Hex":"#ffcc3399","Correct":-1,"Choice":-1,"RT":-1,"Accuracy":1,"Outcome":"-1","Keys":[],"TotalKeys":0,"Block":1,"Trial":34,"Robot":4,"Valence":"Lose","Action":"No-Go","Sham":0,"Color":"yellow","trial_type":"pit-trial","trial_index":49,"time_elapsed":464976,"internal_node_id":"0.0-38.0","task_version":"test-retest-t2"},{"Rune":"rune_04_dagaz","Hex":"#3366ff99","Correct":-1,"Choice":-1,"RT":-1,"Accuracy":1,"Outcome":"+10","Keys":[],"TotalKeys":0,"Block":1,"Trial":35,"Robot":2,"Valence":"Win","Action":"No-Go","Sham":0,"Color":"blue","trial_type":"pit-trial","trial_index":50,"time_elapsed":468988,"internal_node_id":"0.0-39.0","task_version":"test-retest-t2"},{"Rune":"rune_04_ac","Hex":"#3366ff99","Correct":32,"Choice":32,"RT":720.725000006496,"Accuracy":1,"Outcome":"+10","Keys":[2222.215000001597],"TotalKeys":1,"Block":1,"Trial":36,"Robot":1,"Valence":"Win","Action":"Go","Sham":0,"Color":"blue","trial_type":"pit-trial","trial_index":51,"time_elapsed":472220,"internal_node_id":"0.0-40.0","task_version":"test-retest-t2"},{"Rune":"rune_04_dagaz","Hex":"#3366ff99","Correct":-1,"Choice":-1,"RT":-1,"Accuracy":1,"Outcome":"+1","Keys":[3737.9999999975553],"TotalKeys":1,"Block":1,"Trial":37,"Robot":2,"Valence":"Win","Action":"No-Go","Sham":1,"Color":"blue","trial_type":"pit-trial","trial_index":52,"time_elapsed":476241,"internal_node_id":"0.0-41.0","task_version":"test-retest-t2"},{"Rune":"rune_04_iwaz","Hex":"#ffcc3399","Correct":-1,"Choice":-1,"RT":-1,"Accuracy":1,"Outcome":"-1","Keys":[],"TotalKeys":0,"Block":1,"Trial":38,"Robot":4,"Valence":"Lose","Action":"No-Go","Sham":0,"Color":"yellow","trial_type":"pit-trial","trial_index":53,"time_elapsed":480253,"internal_node_id":"0.0-42.0","task_version":"test-retest-t2"},{"Rune":"rune_04_ac","Hex":"#3366ff99","Correct":32,"Choice":32,"RT":789.5250000001397,"Accuracy":1,"Outcome":"+1","Keys":[2290.594999998575],"TotalKeys":1,"Block":1,"Trial":39,"Robot":1,"Valence":"Win","Action":"Go","Sham":1,"Color":"blue","trial_type":"pit-trial","trial_index":54,"time_elapsed":483552,"internal_node_id":"0.0-43.0","task_version":"test-retest-t2"},{"Rune":"rune_04_wunjo","Hex":"#ffcc3399","Correct":32,"Choice":32,"RT":951.2850000028266,"Accuracy":1,"Outcome":"-1","Keys":[2452.694999999949],"TotalKeys":1,"Block":1,"Trial":40,"Robot":3,"Valence":"Lose","Action":"Go","Sham":0,"Color":"yellow","trial_type":"pit-trial","trial_index":55,"time_elapsed":487014,"internal_node_id":"0.0-44.0","task_version":"test-retest-t2"},{"Rune":"rune_04_wunjo","Hex":"#ffcc3399","Correct":32,"Choice":-1,"RT":-1,"Accuracy":0,"Outcome":"-10","Keys":[],"TotalKeys":0,"Block":1,"Trial":41,"Robot":3,"Valence":"Lose","Action":"Go","Sham":0,"Color":"yellow","trial_type":"pit-trial","trial_index":56,"time_elapsed":491024,"internal_node_id":"0.0-45.0","task_version":"test-retest-t2"},{"Rune":"rune_04_iwaz","Hex":"#ffcc3399","Correct":-1,"Choice":-1,"RT":-1,"Accuracy":1,"Outcome":"-1","Keys":[],"TotalKeys":0,"Block":1,"Trial":42,"Robot":4,"Valence":"Lose","Action":"No-Go","Sham":0,"Color":"yellow","trial_type":"pit-trial","trial_index":57,"time_elapsed":495037,"internal_node_id":"0.0-46.0","task_version":"test-retest-t2"},{"Rune":"rune_04_dagaz","Hex":"#3366ff99","Correct":-1,"Choice":-1,"RT":-1,"Accuracy":1,"Outcome":"+10","Keys":[],"TotalKeys":0,"Block":1,"Trial":43,"Robot":2,"Valence":"Win","Action":"No-Go","Sham":0,"Color":"blue","trial_type":"pit-trial","trial_index":58,"time_elapsed":499046,"internal_node_id":"0.0-47.0","task_version":"test-retest-t2"},{"Rune":"rune_04_ac","Hex":"#3366ff99","Correct":32,"Choice":32,"RT":854.1549999936251,"Accuracy":1,"Outcome":"+10","Keys":[2354.285000008531],"TotalKeys":1,"Block":1,"Trial":44,"Robot":1,"Valence":"Win","Action":"Go","Sham":0,"Color":"blue","trial_type":"pit-trial","trial_index":59,"time_elapsed":502408,"internal_node_id":"0.0-48.0","task_version":"test-retest-t2"},{"Rune":"rune_04_iwaz","Hex":"#ffcc3399","Correct":-1,"Choice":-1,"RT":-1,"Accuracy":1,"Outcome":"-1","Keys":[],"TotalKeys":0,"Block":1,"Trial":45,"Robot":4,"Valence":"Lose","Action":"No-Go","Sham":0,"Color":"yellow","trial_type":"pit-trial","trial_index":60,"time_elapsed":506420,"internal_node_id":"0.0-49.0","task_version":"test-retest-t2"},{"Rune":"rune_04_wunjo","Hex":"#ffcc3399","Correct":32,"Choice":-1,"RT":-1,"Accuracy":0,"Outcome":"-1","Keys":[],"TotalKeys":0,"Block":1,"Trial":46,"Robot":3,"Valence":"Lose","Action":"Go","Sham":1,"Color":"yellow","trial_type":"pit-trial","trial_index":61,"time_elapsed":510435,"internal_node_id":"0.0-50.0","task_version":"test-retest-t2"},{"Rune":"rune_04_dagaz","Hex":"#3366ff99","Correct":-1,"Choice":-1,"RT":-1,"Accuracy":1,"Outcome":"+10","Keys":[],"TotalKeys":0,"Block":1,"Trial":47,"Robot":2,"Valence":"Win","Action":"No-Go","Sham":0,"Color":"blue","trial_type":"pit-trial","trial_index":62,"time_elapsed":514450,"internal_node_id":"0.0-51.0","task_version":"test-retest-t2"},{"Rune":"rune_04_ac","Hex":"#3366ff99","Correct":32,"Choice":32,"RT":1156.5150000096764,"Accuracy":1,"Outcome":"+10","Keys":[2658.609999998589],"TotalKeys":1,"Block":1,"Trial":48,"Robot":1,"Valence":"Win","Action":"Go","Sham":0,"Color":"blue","trial_type":"pit-trial","trial_index":63,"time_elapsed":518117,"internal_node_id":"0.0-52.0","task_version":"test-retest-t2"},{"Rune":"rune_04_iwaz","Hex":"#ffcc3399","Correct":-1,"Choice":-1,"RT":-1,"Accuracy":1,"Outcome":"-1","Keys":[],"TotalKeys":0,"Block":1,"Trial":49,"Robot":4,"Valence":"Lose","Action":"No-Go","Sham":0,"Color":"yellow","trial_type":"pit-trial","trial_index":64,"time_elapsed":522129,"internal_node_id":"0.0-53.0","task_version":"test-retest-t2"},{"Rune":"rune_04_dagaz","Hex":"#3366ff99","Correct":-1,"Choice":-1,"RT":-1,"Accuracy":1,"Outcome":"+1","Keys":[3114.1000000061467,3292.8550000069663],"TotalKeys":2,"Block":1,"Trial":50,"Robot":2,"Valence":"Win","Action":"No-Go","Sham":1,"Color":"blue","trial_type":"pit-trial","trial_index":65,"time_elapsed":526141,"internal_node_id":"0.0-54.0","task_version":"test-retest-t2"},{"Rune":"rune_04_wunjo","Hex":"#ffcc3399","Correct":32,"Choice":-1,"RT":-1,"Accuracy":0,"Outcome":"-10","Keys":[],"TotalKeys":0,"Block":1,"Trial":51,"Robot":3,"Valence":"Lose","Action":"Go","Sham":0,"Color":"yellow","trial_type":"pit-trial","trial_index":66,"time_elapsed":530153,"internal_node_id":"0.0-55.0","task_version":"test-retest-t2"},{"Rune":"rune_04_ac","Hex":"#3366ff99","Correct":32,"Choice":32,"RT":1373.5749999905238,"Accuracy":1,"Outcome":"+10","Keys":[2876.5849999908824],"TotalKeys":1,"Block":1,"Trial":52,"Robot":1,"Valence":"Win","Action":"Go","Sham":0,"Color":"blue","trial_type":"pit-trial","trial_index":67,"time_elapsed":534038,"internal_node_id":"0.0-56.0","task_version":"test-retest-t2"},{"Rune":"rune_04_wunjo","Hex":"#ffcc3399","Correct":32,"Choice":32,"RT":1487.250000005588,"Accuracy":1,"Outcome":"-1","Keys":[2987.504999997327],"TotalKeys":1,"Block":1,"Trial":53,"Robot":3,"Valence":"Lose","Action":"Go","Sham":0,"Color":"yellow","trial_type":"pit-trial","trial_index":68,"time_elapsed":538032,"internal_node_id":"0.0-57.0","task_version":"test-retest-t2"},{"Rune":"rune_04_dagaz","Hex":"#3366ff99","Correct":-1,"Choice":-1,"RT":-1,"Accuracy":1,"Outcome":"+10","Keys":[],"TotalKeys":0,"Block":1,"Trial":54,"Robot":2,"Valence":"Win","Action":"No-Go","Sham":0,"Color":"blue","trial_type":"pit-trial","trial_index":69,"time_elapsed":542044,"internal_node_id":"0.0-58.0","task_version":"test-retest-t2"},{"Rune":"rune_04_ac","Hex":"#3366ff99","Correct":32,"Choice":-1,"RT":-1,"Accuracy":0,"Outcome":"+1","Keys":[3415.0450000015553],"TotalKeys":1,"Block":1,"Trial":55,"Robot":1,"Valence":"Win","Action":"Go","Sham":0,"Color":"blue","trial_type":"pit-trial","trial_index":70,"time_elapsed":546052,"internal_node_id":"0.0-59.0","task_version":"test-retest-t2"},{"Rune":"rune_04_iwaz","Hex":"#ffcc3399","Correct":-1,"Choice":-1,"RT":-1,"Accuracy":1,"Outcome":"-1","Keys":[],"TotalKeys":0,"Block":1,"Trial":56,"Robot":4,"Valence":"Lose","Action":"No-Go","Sham":0,"Color":"yellow","trial_type":"pit-trial","trial_index":71,"time_elapsed":550060,"internal_node_id":"0.0-60.0","task_version":"test-retest-t2"},{"Rune":"rune_04_dagaz","Hex":"#3366ff99","Correct":-1,"Choice":32,"RT":402.4500000086846,"Accuracy":0,"Outcome":"+1","Keys":[1902.5799999944866],"TotalKeys":1,"Block":1,"Trial":57,"Robot":2,"Valence":"Win","Action":"No-Go","Sham":0,"Color":"blue","trial_type":"pit-trial","trial_index":72,"time_elapsed":552971,"internal_node_id":"0.0-61.0","task_version":"test-retest-t2"},{"Rune":"rune_04_ac","Hex":"#3366ff99","Correct":32,"Choice":32,"RT":1004.8450000031153,"Accuracy":1,"Outcome":"+1","Keys":[2506.905000002007],"TotalKeys":1,"Block":1,"Trial":58,"Robot":1,"Valence":"Win","Action":"Go","Sham":1,"Color":"blue","trial_type":"pit-trial","trial_index":73,"time_elapsed":556484,"internal_node_id":"0.0-62.0","task_version":"test-retest-t2"},{"Rune":"rune_04_iwaz","Hex":"#ffcc3399","Correct":-1,"Choice":-1,"RT":-1,"Accuracy":1,"Outcome":"-10","Keys":[3056.4999999915017,3761.899999997695],"TotalKeys":2,"Block":1,"Trial":59,"Robot":4,"Valence":"Lose","Action":"No-Go","Sham":1,"Color":"yellow","trial_type":"pit-trial","trial_index":74,"time_elapsed":560492,"internal_node_id":"0.0-63.0","task_version":"test-retest-t2"},{"Rune":"rune_04_wunjo","Hex":"#ffcc3399","Correct":32,"Choice":32,"RT":597.5149999867426,"Accuracy":1,"Outcome":"-1","Keys":[2098.565000007511],"TotalKeys":1,"Block":1,"Trial":60,"Robot":3,"Valence":"Lose","Action":"Go","Sham":0,"Color":"yellow","trial_type":"pit-trial","trial_index":75,"time_elapsed":563596,"internal_node_id":"0.0-64.0","task_version":"test-retest-t2"},{"value":false,"trial_type":"call-function","trial_index":76,"time_elapsed":563602,"internal_node_id":"0.0-65.0","task_version":"test-retest-t2"},{"view_history":"[{\"page_index\":0,\"viewing_time\":261612.96499999298},{\"page_index\":1,\"viewing_time\":1653.8650000002235}]","rt":263268.10000000114,"trial_type":"pit-instructions","trial_index":77,"time_elapsed":826872,"internal_node_id":"0.0-66.0","task_version":"test-retest-t2"},{"Rune":"rune_04_dagaz","Hex":"#3366ff99","Correct":-1,"Choice":-1,"RT":-1,"Accuracy":1,"Outcome":"+10","Keys":[],"TotalKeys":0,"Block":1,"Trial":61,"Robot":2,"Valence":"Win","Action":"No-Go","Sham":0,"Color":"blue","trial_type":"pit-trial","trial_index":78,"time_elapsed":830889,"internal_node_id":"0.0-67.0","task_version":"test-retest-t2"},{"Rune":"rune_04_ac","Hex":"#3366ff99","Correct":32,"Choice":32,"RT":805.8450000098674,"Accuracy":1,"Outcome":"+10","Keys":[2306.60500000522],"TotalKeys":1,"Block":1,"Trial":62,"Robot":1,"Valence":"Win","Action":"Go","Sham":0,"Color":"blue","trial_type":"pit-trial","trial_index":79,"time_elapsed":834203,"internal_node_id":"0.0-68.0","task_version":"test-retest-t2"},{"Rune":"rune_04_wunjo","Hex":"#ffcc3399","Correct":32,"Choice":32,"RT":1103.094999998575,"Accuracy":1,"Outcome":"-1","Keys":[2604.03000000224],"TotalKeys":1,"Block":1,"Trial":63,"Robot":3,"Valence":"Lose","Action":"Go","Sham":0,"Color":"yellow","trial_type":"pit-trial","trial_index":80,"time_elapsed":837815,"internal_node_id":"0.0-69.0","task_version":"test-retest-t2"},{"Rune":"rune_04_iwaz","Hex":"#ffcc3399","Correct":-1,"Choice":32,"RT":516.4450000011129,"Accuracy":0,"Outcome":"-10","Keys":[2021.2100000062492],"TotalKeys":1,"Block":1,"Trial":64,"Robot":4,"Valence":"Lose","Action":"No-Go","Sham":0,"Color":"yellow","trial_type":"pit-trial","trial_index":81,"time_elapsed":840844,"internal_node_id":"0.0-70.0","task_version":"test-retest-t2"},{"Rune":"rune_04_ac","Hex":"#3366ff99","Correct":32,"Choice":32,"RT":944.4750000111526,"Accuracy":1,"Outcome":"+10","Keys":[2444.629999998142],"TotalKeys":1,"Block":1,"Trial":65,"Robot":1,"Valence":"Win","Action":"Go","Sham":0,"Color":"blue","trial_type":"pit-trial","trial_index":82,"time_elapsed":844297,"internal_node_id":"0.0-71.0","task_version":"test-retest-t2"},{"Rune":"rune_04_dagaz","Hex":"#3366ff99","Correct":-1,"Choice":-1,"RT":-1,"Accuracy":1,"Outcome":"+10","Keys":[],"TotalKeys":0,"Block":1,"Trial":66,"Robot":2,"Valence":"Win","Action":"No-Go","Sham":0,"Color":"blue","trial_type":"pit-trial","trial_index":83,"time_elapsed":848307,"internal_node_id":"0.0-72.0","task_version":"test-retest-t2"},{"Rune":"rune_04_iwaz","Hex":"#ffcc3399","Correct":-1,"Choice":32,"RT":1208.3200000051875,"Accuracy":0,"Outcome":"-10","Keys":[2708.5300000035204],"TotalKeys":1,"Block":1,"Trial":67,"Robot":4,"Valence":"Lose","Action":"No-Go","Sham":0,"Color":"yellow","trial_type":"pit-trial","trial_index":84,"time_elapsed":852021,"internal_node_id":"0.0-73.0","task_version":"test-retest-t2"},{"Rune":"rune_04_wunjo","Hex":"#ffcc3399","Correct":32,"Choice":-1,"RT":-1,"Accuracy":0,"Outcome":"-10","Keys":[],"TotalKeys":0,"Block":1,"Trial":68,"Robot":3,"Valence":"Lose","Action":"Go","Sham":0,"Color":"yellow","trial_type":"pit-trial","trial_index":85,"time_elapsed":856031,"internal_node_id":"0.0-74.0","task_version":"test-retest-t2"},{"Rune":"rune_04_iwaz","Hex":"#ffcc3399","Correct":-1,"Choice":-1,"RT":-1,"Accuracy":1,"Outcome":"-1","Keys":[3162.8750000090804],"TotalKeys":1,"Block":1,"Trial":69,"Robot":4,"Valence":"Lose","Action":"No-Go","Sham":0,"Color":"yellow","trial_type":"pit-trial","trial_index":86,"time_elapsed":860040,"internal_node_id":"0.0-75.0","task_version":"test-retest-t2"},{"Rune":"rune_04_ac","Hex":"#3366ff99","Correct":32,"Choice":32,"RT":1105.360000001383,"Accuracy":1,"Outcome":"+10","Keys":[2609.3950000067707],"TotalKeys":1,"Block":1,"Trial":70,"Robot":1,"Valence":"Win","Action":"Go","Sham":0,"Color":"blue","trial_type":"pit-trial","trial_index":87,"time_elapsed":863656,"internal_node_id":"0.0-76.0","task_version":"test-retest-t2"},{"Rune":"rune_04_dagaz","Hex":"#3366ff99","Correct":-1,"Choice":-1,"RT":-1,"Accuracy":1,"Outcome":"+10","Keys":[],"TotalKeys":0,"Block":1,"Trial":71,"Robot":2,"Valence":"Win","Action":"No-Go","Sham":0,"Color":"blue","trial_type":"pit-trial","trial_index":88,"time_elapsed":867669,"internal_node_id":"0.0-77.0","task_version":"test-retest-t2"},{"Rune":"rune_04_wunjo","Hex":"#ffcc3399","Correct":32,"Choice":-1,"RT":-1,"Accuracy":0,"Outcome":"-10","Keys":[],"TotalKeys":0,"Block":1,"Trial":72,"Robot":3,"Valence":"Lose","Action":"Go","Sham":0,"Color":"yellow","trial_type":"pit-trial","trial_index":89,"time_elapsed":871690,"internal_node_id":"0.0-78.0","task_version":"test-retest-t2"},{"Rune":"rune_04_iwaz","Hex":"#ffcc3399","Correct":-1,"Choice":-1,"RT":-1,"Accuracy":1,"Outcome":"-10","Keys":[],"TotalKeys":0,"Block":1,"Trial":73,"Robot":4,"Valence":"Lose","Action":"No-Go","Sham":1,"Color":"yellow","trial_type":"pit-trial","trial_index":90,"time_elapsed":875709,"internal_node_id":"0.0-79.0","task_version":"test-retest-t2"},{"Rune":"rune_04_ac","Hex":"#3366ff99","Correct":32,"Choice":-1,"RT":-1,"Accuracy":0,"Outcome":"+10","Keys":[3413.379999998142],"TotalKeys":1,"Block":1,"Trial":74,"Robot":1,"Valence":"Win","Action":"Go","Sham":1,"Color":"blue","trial_type":"pit-trial","trial_index":91,"time_elapsed":879723,"internal_node_id":"0.0-80.0","task_version":"test-retest-t2"},{"Rune":"rune_04_wunjo","Hex":"#ffcc3399","Correct":32,"Choice":-1,"RT":-1,"Accuracy":0,"Outcome":"-10","Keys":[],"TotalKeys":0,"Block":1,"Trial":75,"Robot":3,"Valence":"Lose","Action":"Go","Sham":0,"Color":"yellow","trial_type":"pit-trial","trial_index":92,"time_elapsed":883737,"internal_node_id":"0.0-81.0","task_version":"test-retest-t2"},{"Rune":"rune_04_dagaz","Hex":"#3366ff99","Correct":-1,"Choice":-1,"RT":-1,"Accuracy":1,"Outcome":"+10","Keys":[],"TotalKeys":0,"Block":1,"Trial":76,"Robot":2,"Valence":"Win","Action":"No-Go","Sham":0,"Color":"blue","trial_type":"pit-trial","trial_index":93,"time_elapsed":887750,"internal_node_id":"0.0-82.0","task_version":"test-retest-t2"},{"Rune":"rune_04_ac","Hex":"#3366ff99","Correct":32,"Choice":32,"RT":808.679999987362,"Accuracy":1,"Outcome":"+10","Keys":[2309.9249999941094],"TotalKeys":1,"Block":1,"Trial":77,"Robot":1,"Valence":"Win","Action":"Go","Sham":0,"Color":"blue","trial_type":"pit-trial","trial_index":94,"time_elapsed":891073,"internal_node_id":"0.0-83.0","task_version":"test-retest-t2"},{"Rune":"rune_04_wunjo","Hex":"#ffcc3399","Correct":32,"Choice":-1,"RT":-1,"Accuracy":0,"Outcome":"-1","Keys":[],"TotalKeys":0,"Block":1,"Trial":78,"Robot":3,"Valence":"Lose","Action":"Go","Sham":1,"Color":"yellow","trial_type":"pit-trial","trial_index":95,"time_elapsed":895094,"internal_node_id":"0.0-84.0","task_version":"test-retest-t2"},{"Rune":"rune_04_dagaz","Hex":"#3366ff99","Correct":-1,"Choice":-1,"RT":-1,"Accuracy":1,"Outcome":"+1","Keys":[],"TotalKeys":0,"Block":1,"Trial":79,"Robot":2,"Valence":"Win","Action":"No-Go","Sham":1,"Color":"blue","trial_type":"pit-trial","trial_index":96,"time_elapsed":899116,"internal_node_id":"0.0-85.0","task_version":"test-retest-t2"},{"Rune":"rune_04_iwaz","Hex":"#ffcc3399","Correct":-1,"Choice":-1,"RT":-1,"Accuracy":1,"Outcome":"-1","Keys":[],"TotalKeys":0,"Block":1,"Trial":80,"Robot":4,"Valence":"Lose","Action":"No-Go","Sham":0,"Color":"yellow","trial_type":"pit-trial","trial_index":97,"time_elapsed":903139,"internal_node_id":"0.0-86.0","task_version":"test-retest-t2"},{"Rune":"rune_04_dagaz","Hex":"#3366ff99","Correct":-1,"Choice":-1,"RT":-1,"Accuracy":1,"Outcome":"+10","Keys":[],"TotalKeys":0,"Block":1,"Trial":81,"Robot":2,"Valence":"Win","Action":"No-Go","Sham":0,"Color":"blue","trial_type":"pit-trial","trial_index":98,"time_elapsed":907157,"internal_node_id":"0.0-87.0","task_version":"test-retest-t2"},{"Rune":"rune_04_wunjo","Hex":"#ffcc3399","Correct":32,"Choice":-1,"RT":-1,"Accuracy":0,"Outcome":"-1","Keys":[],"TotalKeys":0,"Block":1,"Trial":82,"Robot":3,"Valence":"Lose","Action":"Go","Sham":1,"Color":"yellow","trial_type":"pit-trial","trial_index":99,"time_elapsed":911176,"internal_node_id":"0.0-88.0","task_version":"test-retest-t2"},{"Rune":"rune_04_iwaz","Hex":"#ffcc3399","Correct":-1,"Choice":-1,"RT":-1,"Accuracy":1,"Outcome":"-1","Keys":[],"TotalKeys":0,"Block":1,"Trial":83,"Robot":4,"Valence":"Lose","Action":"No-Go","Sham":0,"Color":"yellow","trial_type":"pit-trial","trial_index":100,"time_elapsed":915199,"internal_node_id":"0.0-89.0","task_version":"test-retest-t2"},{"Rune":"rune_04_ac","Hex":"#3366ff99","Correct":32,"Choice":32,"RT":876.5050000074552,"Accuracy":1,"Outcome":"+10","Keys":[2380.0200000114273],"TotalKeys":1,"Block":1,"Trial":84,"Robot":1,"Valence":"Win","Action":"Go","Sham":0,"Color":"blue","trial_type":"pit-trial","trial_index":101,"time_elapsed":918604,"internal_node_id":"0.0-90.0","task_version":"test-retest-t2"},{"Rune":"rune_04_dagaz","Hex":"#3366ff99","Correct":-1,"Choice":-1,"RT":-1,"Accuracy":1,"Outcome":"+10","Keys":[],"TotalKeys":0,"Block":1,"Trial":85,"Robot":2,"Valence":"Win","Action":"No-Go","Sham":0,"Color":"blue","trial_type":"pit-trial","trial_index":102,"time_elapsed":922628,"internal_node_id":"0.0-91.0","task_version":"test-retest-t2"},{"Rune":"rune_04_iwaz","Hex":"#ffcc3399","Correct":-1,"Choice":32,"RT":899.4349999993574,"Accuracy":0,"Outcome":"-10","Keys":[2402.6949999970384],"TotalKeys":1,"Block":1,"Trial":86,"Robot":4,"Valence":"Lose","Action":"No-Go","Sham":0,"Color":"yellow","trial_type":"pit-trial","trial_index":103,"time_elapsed":926054,"internal_node_id":"0.0-92.0","task_version":"test-retest-t2"},{"Rune":"rune_04_wunjo","Hex":"#ffcc3399","Correct":32,"Choice":-1,"RT":-1,"Accuracy":0,"Outcome":"-10","Keys":[],"TotalKeys":0,"Block":1,"Trial":87,"Robot":3,"Valence":"Lose","Action":"Go","Sham":0,"Color":"yellow","trial_type":"pit-trial","trial_index":104,"time_elapsed":930079,"internal_node_id":"0.0-93.0","task_version":"test-retest-t2"},{"Rune":"rune_04_ac","Hex":"#3366ff99","Correct":32,"Choice":-1,"RT":-1,"Accuracy":0,"Outcome":"+10","Keys":[3021.659999998519],"TotalKeys":1,"Block":1,"Trial":88,"Robot":1,"Valence":"Win","Action":"Go","Sham":1,"Color":"blue","trial_type":"pit-trial","trial_index":105,"time_elapsed":934102,"internal_node_id":"0.0-94.0","task_version":"test-retest-t2"},{"Rune":"rune_04_ac","Hex":"#3366ff99","Correct":32,"Choice":32,"RT":1077.980000001844,"Accuracy":1,"Outcome":"+10","Keys":[2581.575000003795],"TotalKeys":1,"Block":1,"Trial":89,"Robot":1,"Valence":"Win","Action":"Go","Sham":0,"Color":"blue","trial_type":"pit-trial","trial_index":106,"time_elapsed":937701,"internal_node_id":"0.0-95.0","task_version":"test-retest-t2"},{"Rune":"rune_04_dagaz","Hex":"#3366ff99","Correct":-1,"Choice":-1,"RT":-1,"Accuracy":1,"Outcome":"+10","Keys":[],"TotalKeys":0,"Block":1,"Trial":90,"Robot":2,"Valence":"Win","Action":"No-Go","Sham":0,"Color":"blue","trial_type":"pit-trial","trial_index":107,"time_elapsed":941717,"internal_node_id":"0.0-96.0","task_version":"test-retest-t2"},{"Rune":"rune_04_wunjo","Hex":"#ffcc3399","Correct":32,"Choice":32,"RT":1459.1999999975087,"Accuracy":1,"Outcome":"-1","Keys":[2961.4200000069104],"TotalKeys":1,"Block":1,"Trial":91,"Robot":3,"Valence":"Lose","Action":"Go","Sham":0,"Color":"yellow","trial_type":"pit-trial","trial_index":108,"time_elapsed":945693,"internal_node_id":"0.0-97.0","task_version":"test-retest-t2"},{"Rune":"rune_04_iwaz","Hex":"#ffcc3399","Correct":-1,"Choice":-1,"RT":-1,"Accuracy":1,"Outcome":"-1","Keys":[3039.9100000067847],"TotalKeys":1,"Block":1,"Trial":92,"Robot":4,"Valence":"Lose","Action":"No-Go","Sham":0,"Color":"yellow","trial_type":"pit-trial","trial_index":109,"time_elapsed":949713,"internal_node_id":"0.0-98.0","task_version":"test-retest-t2"},{"Rune":"rune_04_ac","Hex":"#3366ff99","Correct":32,"Choice":32,"RT":977.4750000069616,"Accuracy":1,"Outcome":"+10","Keys":[2481.260000000475],"TotalKeys":1,"Block":1,"Trial":93,"Robot":1,"Valence":"Win","Action":"Go","Sham":0,"Color":"blue","trial_type":"pit-trial","trial_index":110,"time_elapsed":953207,"internal_node_id":"0.0-99.0","task_version":"test-retest-t2"},{"Rune":"rune_04_wunjo","Hex":"#ffcc3399","Correct":32,"Choice":-1,"RT":-1,"Accuracy":0,"Outcome":"-10","Keys":[3509.0199999976903,3761.110000006738],"TotalKeys":2,"Block":1,"Trial":94,"Robot":3,"Valence":"Lose","Action":"Go","Sham":0,"Color":"yellow","trial_type":"pit-trial","trial_index":111,"time_elapsed":957228,"internal_node_id":"0.0-100.0","task_version":"test-retest-t2"},{"Rune":"rune_04_iwaz","Hex":"#ffcc3399","Correct":-1,"Choice":-1,"RT":-1,"Accuracy":1,"Outcome":"-10","Keys":[],"TotalKeys":0,"Block":1,"Trial":95,"Robot":4,"Valence":"Lose","Action":"No-Go","Sham":1,"Color":"yellow","trial_type":"pit-trial","trial_index":112,"time_elapsed":961247,"internal_node_id":"0.0-101.0","task_version":"test-retest-t2"},{"Rune":"rune_04_dagaz","Hex":"#3366ff99","Correct":-1,"Choice":-1,"RT":-1,"Accuracy":1,"Outcome":"+10","Keys":[],"TotalKeys":0,"Block":1,"Trial":96,"Robot":2,"Valence":"Win","Action":"No-Go","Sham":0,"Color":"blue","trial_type":"pit-trial","trial_index":113,"time_elapsed":965270,"internal_node_id":"0.0-102.0","task_version":"test-retest-t2"},{"Rune":"rune_04_dagaz","Hex":"#3366ff99","Correct":-1,"Choice":-1,"RT":-1,"Accuracy":1,"Outcome":"+1","Keys":[],"TotalKeys":0,"Block":1,"Trial":97,"Robot":2,"Valence":"Win","Action":"No-Go","Sham":1,"Color":"blue","trial_type":"pit-trial","trial_index":114,"time_elapsed":969292,"internal_node_id":"0.0-103.0","task_version":"test-retest-t2"},{"Rune":"rune_04_wunjo","Hex":"#ffcc3399","Correct":32,"Choice":-1,"RT":-1,"Accuracy":0,"Outcome":"-10","Keys":[],"TotalKeys":0,"Block":1,"Trial":98,"Robot":3,"Valence":"Lose","Action":"Go","Sham":0,"Color":"yellow","trial_type":"pit-trial","trial_index":115,"time_elapsed":973310,"internal_node_id":"0.0-104.0","task_version":"test-retest-t2"},{"Rune":"rune_04_ac","Hex":"#3366ff99","Correct":32,"Choice":32,"RT":1062.7699999895412,"Accuracy":1,"Outcome":"+10","Keys":[2564.3750000017462],"TotalKeys":1,"Block":1,"Trial":99,"Robot":1,"Valence":"Win","Action":"Go","Sham":0,"Color":"blue","trial_type":"pit-trial","trial_index":116,"time_elapsed":976892,"internal_node_id":"0.0-105.0","task_version":"test-retest-t2"},{"Rune":"rune_04_iwaz","Hex":"#ffcc3399","Correct":-1,"Choice":32,"RT":1116.5000000037253,"Accuracy":0,"Outcome":"-10","Keys":[2616.8699999980163],"TotalKeys":1,"Block":1,"Trial":100,"Robot":4,"Valence":"Lose","Action":"No-Go","Sham":0,"Color":"yellow","trial_type":"pit-trial","trial_index":117,"time_elapsed":980531,"internal_node_id":"0.0-106.0","task_version":"test-retest-t2"},{"Rune":"rune_04_wunjo","Hex":"#ffcc3399","Correct":32,"Choice":-1,"RT":-1,"Accuracy":0,"Outcome":"-10","Keys":[3599.770000000717],"TotalKeys":1,"Block":1,"Trial":101,"Robot":3,"Valence":"Lose","Action":"Go","Sham":0,"Color":"yellow","trial_type":"pit-trial","trial_index":118,"time_elapsed":984551,"internal_node_id":"0.0-107.0","task_version":"test-retest-t2"},{"Rune":"rune_04_iwaz","Hex":"#ffcc3399","Correct":-1,"Choice":32,"RT":439.4949999987148,"Accuracy":0,"Outcome":"-10","Keys":[1941.8750000040745],"TotalKeys":1,"Block":1,"Trial":102,"Robot":4,"Valence":"Lose","Action":"No-Go","Sham":0,"Color":"yellow","trial_type":"pit-trial","trial_index":119,"time_elapsed":987500,"internal_node_id":"0.0-108.0","task_version":"test-retest-t2"},{"Rune":"rune_04_ac","Hex":"#3366ff99","Correct":32,"Choice":32,"RT":734.0600000025006,"Accuracy":1,"Outcome":"+10","Keys":[2236.9650000036927],"TotalKeys":1,"Block":1,"Trial":103,"Robot":1,"Valence":"Win","Action":"Go","Sham":0,"Color":"blue","trial_type":"pit-trial","trial_index":120,"time_elapsed":990750,"internal_node_id":"0.0-109.0","task_version":"test-retest-t2"},{"Rune":"rune_04_dagaz","Hex":"#3366ff99","Correct":-1,"Choice":-1,"RT":-1,"Accuracy":1,"Outcome":"+10","Keys":[],"TotalKeys":0,"Block":1,"Trial":104,"Robot":2,"Valence":"Win","Action":"No-Go","Sham":0,"Color":"blue","trial_type":"pit-trial","trial_index":121,"time_elapsed":994766,"internal_node_id":"0.0-110.0","task_version":"test-retest-t2"},{"Rune":"rune_04_iwaz","Hex":"#ffcc3399","Correct":-1,"Choice":32,"RT":1015.4949999996461,"Accuracy":0,"Outcome":"-1","Keys":[2517.340000005788],"TotalKeys":1,"Block":1,"Trial":105,"Robot":4,"Valence":"Lose","Action":"No-Go","Sham":1,"Color":"yellow","trial_type":"pit-trial","trial_index":122,"time_elapsed":998304,"internal_node_id":"0.0-111.0","task_version":"test-retest-t2"},{"Rune":"rune_04_wunjo","Hex":"#ffcc3399","Correct":32,"Choice":-1,"RT":-1,"Accuracy":0,"Outcome":"-10","Keys":[],"TotalKeys":0,"Block":1,"Trial":106,"Robot":3,"Valence":"Lose","Action":"Go","Sham":0,"Color":"yellow","trial_type":"pit-trial","trial_index":123,"time_elapsed":1002324,"internal_node_id":"0.0-112.0","task_version":"test-retest-t2"},{"Rune":"rune_04_ac","Hex":"#3366ff99","Correct":32,"Choice":32,"RT":866.7549999954645,"Accuracy":1,"Outcome":"+10","Keys":[2368.2199999893783],"TotalKeys":1,"Block":1,"Trial":107,"Robot":1,"Valence":"Win","Action":"Go","Sham":0,"Color":"blue","trial_type":"pit-trial","trial_index":124,"time_elapsed":1005704,"internal_node_id":"0.0-113.0","task_version":"test-retest-t2"},{"Rune":"rune_04_dagaz","Hex":"#3366ff99","Correct":-1,"Choice":-1,"RT":-1,"Accuracy":1,"Outcome":"+1","Keys":[],"TotalKeys":0,"Block":1,"Trial":108,"Robot":2,"Valence":"Win","Action":"No-Go","Sham":1,"Color":"blue","trial_type":"pit-trial","trial_index":125,"time_elapsed":1009728,"internal_node_id":"0.0-114.0","task_version":"test-retest-t2"},{"Rune":"rune_04_wunjo","Hex":"#ffcc3399","Correct":32,"Choice":-1,"RT":-1,"Accuracy":0,"Outcome":"-10","Keys":[],"TotalKeys":0,"Block":1,"Trial":109,"Robot":3,"Valence":"Lose","Action":"Go","Sham":0,"Color":"yellow","trial_type":"pit-trial","trial_index":126,"time_elapsed":1013746,"internal_node_id":"0.0-115.0","task_version":"test-retest-t2"},{"Rune":"rune_04_dagaz","Hex":"#3366ff99","Correct":-1,"Choice":-1,"RT":-1,"Accuracy":1,"Outcome":"+10","Keys":[3090.7699999952456],"TotalKeys":1,"Block":1,"Trial":110,"Robot":2,"Valence":"Win","Action":"No-Go","Sham":0,"Color":"blue","trial_type":"pit-trial","trial_index":127,"time_elapsed":1017761,"internal_node_id":"0.0-116.0","task_version":"test-retest-t2"},{"Rune":"rune_04_iwaz","Hex":"#ffcc3399","Correct":-1,"Choice":-1,"RT":-1,"Accuracy":1,"Outcome":"-1","Keys":[],"TotalKeys":0,"Block":1,"Trial":111,"Robot":4,"Valence":"Lose","Action":"No-Go","Sham":0,"Color":"yellow","trial_type":"pit-trial","trial_index":128,"time_elapsed":1021776,"internal_node_id":"0.0-117.0","task_version":"test-retest-t2"},{"Rune":"rune_04_ac","Hex":"#3366ff99","Correct":32,"Choice":32,"RT":805.0450000009732,"Accuracy":1,"Outcome":"+10","Keys":[2306.094999992638],"TotalKeys":1,"Block":1,"Trial":112,"Robot":1,"Valence":"Win","Action":"Go","Sham":0,"Color":"blue","trial_type":"pit-trial","trial_index":129,"time_elapsed":1025094,"internal_node_id":"0.0-118.0","task_version":"test-retest-t2"},{"Rune":"rune_04_wunjo","Hex":"#ffcc3399","Correct":32,"Choice":32,"RT":737.6450000010664,"Accuracy":1,"Outcome":"-1","Keys":[2238.2999999972526],"TotalKeys":1,"Block":1,"Trial":113,"Robot":3,"Valence":"Lose","Action":"Go","Sham":0,"Color":"yellow","trial_type":"pit-trial","trial_index":130,"time_elapsed":1028347,"internal_node_id":"0.0-119.0","task_version":"test-retest-t2"},{"Rune":"rune_04_iwaz","Hex":"#ffcc3399","Correct":-1,"Choice":32,"RT":921.569999991334,"Accuracy":0,"Outcome":"-10","Keys":[2422.7149999933317],"TotalKeys":1,"Block":1,"Trial":114,"Robot":4,"Valence":"Lose","Action":"No-Go","Sham":0,"Color":"yellow","trial_type":"pit-trial","trial_index":131,"time_elapsed":1031790,"internal_node_id":"0.0-120.0","task_version":"test-retest-t2"},{"Rune":"rune_04_dagaz","Hex":"#3366ff99","Correct":-1,"Choice":-1,"RT":-1,"Accuracy":1,"Outcome":"+10","Keys":[],"TotalKeys":0,"Block":1,"Trial":115,"Robot":2,"Valence":"Win","Action":"No-Go","Sham":0,"Color":"blue","trial_type":"pit-trial","trial_index":132,"time_elapsed":1035797,"internal_node_id":"0.0-121.0","task_version":"test-retest-t2"},{"Rune":"rune_04_ac","Hex":"#3366ff99","Correct":32,"Choice":32,"RT":748.9950000017416,"Accuracy":1,"Outcome":"+10","Keys":[2249.100000000908],"TotalKeys":1,"Block":1,"Trial":116,"Robot":1,"Valence":"Win","Action":"Go","Sham":0,"Color":"blue","trial_type":"pit-trial","trial_index":133,"time_elapsed":1039057,"internal_node_id":"0.0-122.0","task_version":"test-retest-t2"},{"Rune":"rune_04_iwaz","Hex":"#ffcc3399","Correct":-1,"Choice":32,"RT":1064.7449999961536,"Accuracy":0,"Outcome":"-10","Keys":[2567.555000001332],"TotalKeys":1,"Block":1,"Trial":117,"Robot":4,"Valence":"Lose","Action":"No-Go","Sham":0,"Color":"yellow","trial_type":"pit-trial","trial_index":134,"time_elapsed":1042644,"internal_node_id":"0.0-123.0","task_version":"test-retest-t2"},{"Rune":"rune_04_dagaz","Hex":"#3366ff99","Correct":-1,"Choice":-1,"RT":-1,"Accuracy":1,"Outcome":"+10","Keys":[],"TotalKeys":0,"Block":1,"Trial":118,"Robot":2,"Valence":"Win","Action":"No-Go","Sham":0,"Color":"blue","trial_type":"pit-trial","trial_index":135,"time_elapsed":1046663,"internal_node_id":"0.0-124.0","task_version":"test-retest-t2"},{"Rune":"rune_04_wunjo","Hex":"#ffcc3399","Correct":32,"Choice":32,"RT":1153.6400000043213,"Accuracy":1,"Outcome":"-10","Keys":[2654.784999991767],"TotalKeys":1,"Block":1,"Trial":119,"Robot":3,"Valence":"Lose","Action":"Go","Sham":1,"Color":"yellow","trial_type":"pit-trial","trial_index":136,"time_elapsed":1050336,"internal_node_id":"0.0-125.0","task_version":"test-retest-t2"},{"Rune":"rune_04_ac","Hex":"#3366ff99","Correct":32,"Choice":32,"RT":703.9850000001024,"Accuracy":1,"Outcome":"+1","Keys":[2204.0899999993853],"TotalKeys":1,"Block":1,"Trial":120,"Robot":1,"Valence":"Win","Action":"Go","Sham":1,"Color":"blue","trial_type":"pit-trial","trial_index":137,"time_elapsed":1053560,"internal_node_id":"0.0-126.0","task_version":"test-retest-t2"},{"view_history":"[{\"page_index\":0,\"viewing_time\":2404.1399999987334},{\"page_index\":1,\"viewing_time\":1216.6750000033062},{\"page_index\":2,\"viewing_time\":944.2700000072364}]","rt":4566.23500000569,"trial_type":"pit-instructions","trial_index":138,"time_elapsed":1058141,"internal_node_id":"0.0-127.0","task_version":"test-retest-t2"},{"Rune":"rune_03_algiz","Hex":"#ffcc3399","Correct":-1,"Choice":-1,"RT":-1,"Accuracy":1,"Outcome":"-1","Keys":[],"TotalKeys":0,"Block":2,"Trial":121,"Robot":4,"Valence":"Lose","Action":"No-Go","Sham":0,"Color":"yellow","trial_type":"pit-trial","trial_index":139,"time_elapsed":1062156,"internal_node_id":"0.0-128.0","task_version":"test-retest-t2"},{"Rune":"rune_03_othalan","Hex":"#ffcc3399","Correct":32,"Choice":32,"RT":616.890000004787,"Accuracy":1,"Outcome":"-10","Keys":[2117.77000001166],"TotalKeys":1,"Block":2,"Trial":122,"Robot":3,"Valence":"Lose","Action":"Go","Sham":1,"Color":"yellow","trial_type":"pit-trial","trial_index":140,"time_elapsed":1065292,"internal_node_id":"0.0-129.0","task_version":"test-retest-t2"},{"Rune":"rune_03_uruz","Hex":"#3366ff99","Correct":-1,"Choice":-1,"RT":-1,"Accuracy":1,"Outcome":"+10","Keys":[],"TotalKeys":0,"Block":2,"Trial":123,"Robot":2,"Valence":"Win","Action":"No-Go","Sham":0,"Color":"blue","trial_type":"pit-trial","trial_index":141,"time_elapsed":1069314,"internal_node_id":"0.0-130.0","task_version":"test-retest-t2"},{"Rune":"rune_03_naudiz","Hex":"#3366ff99","Correct":32,"Choice":32,"RT":546.385000008624,"Accuracy":1,"Outcome":"+10","Keys":[2046.914999998873],"TotalKeys":1,"Block":2,"Trial":124,"Robot":1,"Valence":"Win","Action":"Go","Sham":0,"Color":"blue","trial_type":"pit-trial","trial_index":142,"time_elapsed":1072382,"internal_node_id":"0.0-131.0","task_version":"test-retest-t2"},{"Rune":"rune_03_algiz","Hex":"#ffcc3399","Correct":-1,"Choice":32,"RT":504.37999999849126,"Accuracy":0,"Outcome":"-1","Keys":[2007.5299999879207],"TotalKeys":1,"Block":2,"Trial":125,"Robot":4,"Valence":"Lose","Action":"No-Go","Sham":1,"Color":"yellow","trial_type":"pit-trial","trial_index":143,"time_elapsed":1075410,"internal_node_id":"0.0-132.0","task_version":"test-retest-t2"},{"Rune":"rune_03_naudiz","Hex":"#3366ff99","Correct":32,"Choice":-1,"RT":-1,"Accuracy":0,"Outcome":"+1","Keys":[],"TotalKeys":0,"Block":2,"Trial":126,"Robot":1,"Valence":"Win","Action":"Go","Sham":0,"Color":"blue","trial_type":"pit-trial","trial_index":144,"time_elapsed":1079427,"internal_node_id":"0.0-133.0","task_version":"test-retest-t2"},{"Rune":"rune_03_othalan","Hex":"#ffcc3399","Correct":32,"Choice":-1,"RT":-1,"Accuracy":0,"Outcome":"-10","Keys":[],"TotalKeys":0,"Block":2,"Trial":127,"Robot":3,"Valence":"Lose","Action":"Go","Sham":0,"Color":"yellow","trial_type":"pit-trial","trial_index":145,"time_elapsed":1083446,"internal_node_id":"0.0-134.0","task_version":"test-retest-t2"},{"Rune":"rune_03_uruz","Hex":"#3366ff99","Correct":-1,"Choice":32,"RT":1223.7000000022817,"Accuracy":0,"Outcome":"+1","Keys":[2724.009999990929,3185.1900000036694,3669.630000004079],"TotalKeys":3,"Block":2,"Trial":128,"Robot":2,"Valence":"Win","Action":"No-Go","Sham":0,"Color":"blue","trial_type":"pit-trial","trial_index":146,"time_elapsed":1087183,"internal_node_id":"0.0-135.0","task_version":"test-retest-t2"},{"Rune":"rune_03_uruz","Hex":"#3366ff99","Correct":-1,"Choice":32,"RT":640.794999999227,"Accuracy":0,"Outcome":"+1","Keys":[2142.2500000046566],"TotalKeys":1,"Block":2,"Trial":129,"Robot":2,"Valence":"Win","Action":"No-Go","Sham":0,"Color":"blue","trial_type":"pit-trial","trial_index":147,"time_elapsed":1090344,"internal_node_id":"0.0-136.0","task_version":"test-retest-t2"},{"Rune":"rune_03_naudiz","Hex":"#3366ff99","Correct":32,"Choice":32,"RT":926.3250000076368,"Accuracy":1,"Outcome":"+1","Keys":[2429.0949999992736],"TotalKeys":1,"Block":2,"Trial":130,"Robot":1,"Valence":"Win","Action":"Go","Sham":1,"Color":"blue","trial_type":"pit-trial","trial_index":148,"time_elapsed":1093787,"internal_node_id":"0.0-137.0","task_version":"test-retest-t2"},{"Rune":"rune_03_othalan","Hex":"#ffcc3399","Correct":32,"Choice":32,"RT":1226.334999999497,"Accuracy":1,"Outcome":"-1","Keys":[2728.3650000027847],"TotalKeys":1,"Block":2,"Trial":131,"Robot":3,"Valence":"Lose","Action":"Go","Sham":0,"Color":"yellow","trial_type":"pit-trial","trial_index":149,"time_elapsed":1097527,"internal_node_id":"0.0-138.0","task_version":"test-retest-t2"},{"Rune":"rune_03_algiz","Hex":"#ffcc3399","Correct":-1,"Choice":-1,"RT":-1,"Accuracy":1,"Outcome":"-1","Keys":[],"TotalKeys":0,"Block":2,"Trial":132,"Robot":4,"Valence":"Lose","Action":"No-Go","Sham":0,"Color":"yellow","trial_type":"pit-trial","trial_index":150,"time_elapsed":1101551,"internal_node_id":"0.0-139.0","task_version":"test-retest-t2"},{"Rune":"rune_03_uruz","Hex":"#3366ff99","Correct":-1,"Choice":32,"RT":902.9600000067148,"Accuracy":0,"Outcome":"+10","Keys":[2403.2150000131223],"TotalKeys":1,"Block":2,"Trial":133,"Robot":2,"Valence":"Win","Action":"No-Go","Sham":1,"Color":"blue","trial_type":"pit-trial","trial_index":151,"time_elapsed":1104974,"internal_node_id":"0.0-140.0","task_version":"test-retest-t2"},{"Rune":"rune_03_algiz","Hex":"#ffcc3399","Correct":-1,"Choice":-1,"RT":-1,"Accuracy":1,"Outcome":"-1","Keys":[],"TotalKeys":0,"Block":2,"Trial":134,"Robot":4,"Valence":"Lose","Action":"No-Go","Sham":0,"Color":"yellow","trial_type":"pit-trial","trial_index":152,"time_elapsed":1108997,"internal_node_id":"0.0-141.0","task_version":"test-retest-t2"},{"Rune":"rune_03_othalan","Hex":"#ffcc3399","Correct":32,"Choice":32,"RT":1058.8549999955576,"Accuracy":1,"Outcome":"-1","Keys":[2561.559999987483],"TotalKeys":1,"Block":2,"Trial":135,"Robot":3,"Valence":"Lose","Action":"Go","Sham":0,"Color":"yellow","trial_type":"pit-trial","trial_index":153,"time_elapsed":1112574,"internal_node_id":"0.0-142.0","task_version":"test-retest-t2"},{"Rune":"rune_03_naudiz","Hex":"#3366ff99","Correct":32,"Choice":-1,"RT":-1,"Accuracy":0,"Outcome":"+1","Keys":[],"TotalKeys":0,"Block":2,"Trial":136,"Robot":1,"Valence":"Win","Action":"Go","Sham":0,"Color":"blue","trial_type":"pit-trial","trial_index":154,"time_elapsed":1116596,"internal_node_id":"0.0-143.0","task_version":"test-retest-t2"},{"Rune":"rune_03_algiz","Hex":"#ffcc3399","Correct":-1,"Choice":-1,"RT":-1,"Accuracy":1,"Outcome":"-1","Keys":[],"TotalKeys":0,"Block":2,"Trial":137,"Robot":4,"Valence":"Lose","Action":"No-Go","Sham":0,"Color":"yellow","trial_type":"pit-trial","trial_index":155,"time_elapsed":1120618,"internal_node_id":"0.0-144.0","task_version":"test-retest-t2"},{"Rune":"rune_03_naudiz","Hex":"#3366ff99","Correct":32,"Choice":32,"RT":772.4849999942817,"Accuracy":1,"Outcome":"+10","Keys":[2274.5549999962095],"TotalKeys":1,"Block":2,"Trial":138,"Robot":1,"Valence":"Win","Action":"Go","Sham":0,"Color":"blue","trial_type":"pit-trial","trial_index":156,"time_elapsed":1123910,"internal_node_id":"0.0-145.0","task_version":"test-retest-t2"},{"Rune":"rune_03_uruz","Hex":"#3366ff99","Correct":-1,"Choice":32,"RT":1230.785000006901,"Accuracy":0,"Outcome":"+1","Keys":[2733.494999993127],"TotalKeys":1,"Block":2,"Trial":139,"Robot":2,"Valence":"Win","Action":"No-Go","Sham":0,"Color":"blue","trial_type":"pit-trial","trial_index":157,"time_elapsed":1127663,"internal_node_id":"0.0-146.0","task_version":"test-retest-t2"},{"Rune":"rune_03_othalan","Hex":"#ffcc3399","Correct":32,"Choice":-1,"RT":-1,"Accuracy":0,"Outcome":"-10","Keys":[3079.599999997299,3573.8850000051316],"TotalKeys":2,"Block":2,"Trial":140,"Robot":3,"Valence":"Lose","Action":"Go","Sham":0,"Color":"yellow","trial_type":"pit-trial","trial_index":158,"time_elapsed":1131687,"internal_node_id":"0.0-147.0","task_version":"test-retest-t2"},{"Rune":"rune_03_othalan","Hex":"#ffcc3399","Correct":32,"Choice":32,"RT":1182.690000001341,"Accuracy":1,"Outcome":"-10","Keys":[2686.9650000007823],"TotalKeys":1,"Block":2,"Trial":141,"Robot":3,"Valence":"Lose","Action":"Go","Sham":1,"Color":"yellow","trial_type":"pit-trial","trial_index":159,"time_elapsed":1135389,"internal_node_id":"0.0-148.0","task_version":"test-retest-t2"},{"Rune":"rune_03_uruz","Hex":"#3366ff99","Correct":-1,"Choice":32,"RT":1333.254999990575,"Accuracy":0,"Outcome":"+1","Keys":[2833.289999995148],"TotalKeys":1,"Block":2,"Trial":142,"Robot":2,"Valence":"Win","Action":"No-Go","Sham":0,"Color":"blue","trial_type":"pit-trial","trial_index":160,"time_elapsed":1139240,"internal_node_id":"0.0-149.0","task_version":"test-retest-t2"},{"Rune":"rune_03_algiz","Hex":"#ffcc3399","Correct":-1,"Choice":-1,"RT":-1,"Accuracy":1,"Outcome":"-10","Keys":[],"TotalKeys":0,"Block":2,"Trial":143,"Robot":4,"Valence":"Lose","Action":"No-Go","Sham":1,"Color":"yellow","trial_type":"pit-trial","trial_index":161,"time_elapsed":1143259,"internal_node_id":"0.0-150.0","task_version":"test-retest-t2"},{"Rune":"rune_03_naudiz","Hex":"#3366ff99","Correct":32,"Choice":32,"RT":1021.840000001248,"Accuracy":1,"Outcome":"+10","Keys":[2523.459999996703],"TotalKeys":1,"Block":2,"Trial":144,"Robot":1,"Valence":"Win","Action":"Go","Sham":0,"Color":"blue","trial_type":"pit-trial","trial_index":162,"time_elapsed":1146799,"internal_node_id":"0.0-151.0","task_version":"test-retest-t2"},{"Rune":"rune_03_naudiz","Hex":"#3366ff99","Correct":32,"Choice":32,"RT":1080.0549999985378,"Accuracy":1,"Outcome":"+10","Keys":[2580.3949999972247],"TotalKeys":1,"Block":2,"Trial":145,"Robot":1,"Valence":"Win","Action":"Go","Sham":0,"Color":"blue","trial_type":"pit-trial","trial_index":163,"time_elapsed":1150393,"internal_node_id":"0.0-152.0","task_version":"test-retest-t2"},{"Rune":"rune_03_algiz","Hex":"#ffcc3399","Correct":-1,"Choice":-1,"RT":-1,"Accuracy":1,"Outcome":"-1","Keys":[],"TotalKeys":0,"Block":2,"Trial":146,"Robot":4,"Valence":"Lose","Action":"No-Go","Sham":0,"Color":"yellow","trial_type":"pit-trial","trial_index":164,"time_elapsed":1154415,"internal_node_id":"0.0-153.0","task_version":"test-retest-t2"},{"Rune":"rune_03_uruz","Hex":"#3366ff99","Correct":-1,"Choice":32,"RT":717.5500000012107,"Accuracy":0,"Outcome":"+1","Keys":[2219.3450000050943],"TotalKeys":1,"Block":2,"Trial":147,"Robot":2,"Valence":"Win","Action":"No-Go","Sham":0,"Color":"blue","trial_type":"pit-trial","trial_index":165,"time_elapsed":1157653,"internal_node_id":"0.0-154.0","task_version":"test-retest-t2"},{"Rune":"rune_03_othalan","Hex":"#ffcc3399","Correct":32,"Choice":-1,"RT":-1,"Accuracy":0,"Outcome":"-10","Keys":[],"TotalKeys":0,"Block":2,"Trial":148,"Robot":3,"Valence":"Lose","Action":"Go","Sham":0,"Color":"yellow","trial_type":"pit-trial","trial_index":166,"time_elapsed":1161673,"internal_node_id":"0.0-155.0","task_version":"test-retest-t2"},{"Rune":"rune_03_uruz","Hex":"#3366ff99","Correct":-1,"Choice":32,"RT":1014.980000007432,"Accuracy":0,"Outcome":"+1","Keys":[2515.040000012843],"TotalKeys":1,"Block":2,"Trial":149,"Robot":2,"Valence":"Win","Action":"No-Go","Sham":0,"Color":"blue","trial_type":"pit-trial","trial_index":167,"time_elapsed":1165214,"internal_node_id":"0.0-156.0","task_version":"test-retest-t2"},{"Rune":"rune_03_naudiz","Hex":"#3366ff99","Correct":32,"Choice":32,"RT":939.5749999966938,"Accuracy":1,"Outcome":"+10","Keys":[2441.7600000014063],"TotalKeys":1,"Block":2,"Trial":150,"Robot":1,"Valence":"Win","Action":"Go","Sham":0,"Color":"blue","trial_type":"pit-trial","trial_index":168,"time_elapsed":1168678,"internal_node_id":"0.0-157.0","task_version":"test-retest-t2"},{"Rune":"rune_03_algiz","Hex":"#ffcc3399","Correct":-1,"Choice":-1,"RT":-1,"Accuracy":1,"Outcome":"-1","Keys":[],"TotalKeys":0,"Block":2,"Trial":151,"Robot":4,"Valence":"Lose","Action":"No-Go","Sham":0,"Color":"yellow","trial_type":"pit-trial","trial_index":169,"time_elapsed":1172698,"internal_node_id":"0.0-158.0","task_version":"test-retest-t2"},{"Rune":"rune_03_othalan","Hex":"#ffcc3399","Correct":32,"Choice":32,"RT":794.2400000027847,"Accuracy":1,"Outcome":"-1","Keys":[2295.1849999953993],"TotalKeys":1,"Block":2,"Trial":152,"Robot":3,"Valence":"Lose","Action":"Go","Sham":0,"Color":"yellow","trial_type":"pit-trial","trial_index":170,"time_elapsed":1176008,"internal_node_id":"0.0-159.0","task_version":"test-retest-t2"},{"Rune":"rune_03_uruz","Hex":"#3366ff99","Correct":-1,"Choice":-1,"RT":-1,"Accuracy":1,"Outcome":"+10","Keys":[],"TotalKeys":0,"Block":2,"Trial":153,"Robot":2,"Valence":"Win","Action":"No-Go","Sham":0,"Color":"blue","trial_type":"pit-trial","trial_index":171,"time_elapsed":1180028,"internal_node_id":"0.0-160.0","task_version":"test-retest-t2"},{"Rune":"rune_03_naudiz","Hex":"#3366ff99","Correct":32,"Choice":32,"RT":625.4550000012387,"Accuracy":1,"Outcome":"+10","Keys":[2128.8599999970756],"TotalKeys":1,"Block":2,"Trial":154,"Robot":1,"Valence":"Win","Action":"Go","Sham":0,"Color":"blue","trial_type":"pit-trial","trial_index":172,"time_elapsed":1183176,"internal_node_id":"0.0-161.0","task_version":"test-retest-t2"},{"Rune":"rune_03_othalan","Hex":"#ffcc3399","Correct":32,"Choice":-1,"RT":-1,"Accuracy":0,"Outcome":"-10","Keys":[],"TotalKeys":0,"Block":2,"Trial":155,"Robot":3,"Valence":"Lose","Action":"Go","Sham":0,"Color":"yellow","trial_type":"pit-trial","trial_index":173,"time_elapsed":1187200,"internal_node_id":"0.0-162.0","task_version":"test-retest-t2"},{"Rune":"rune_03_algiz","Hex":"#ffcc3399","Correct":-1,"Choice":-1,"RT":-1,"Accuracy":1,"Outcome":"-1","Keys":[],"TotalKeys":0,"Block":2,"Trial":156,"Robot":4,"Valence":"Lose","Action":"No-Go","Sham":0,"Color":"yellow","trial_type":"pit-trial","trial_index":174,"time_elapsed":1191224,"internal_node_id":"0.0-163.0","task_version":"test-retest-t2"},{"Rune":"rune_03_othalan","Hex":"#ffcc3399","Correct":32,"Choice":32,"RT":1012.3050000111107,"Accuracy":1,"Outcome":"-1","Keys":[2517.2750000057276],"TotalKeys":1,"Block":2,"Trial":157,"Robot":3,"Valence":"Lose","Action":"Go","Sham":0,"Color":"yellow","trial_type":"pit-trial","trial_index":175,"time_elapsed":1194760,"internal_node_id":"0.0-164.0","task_version":"test-retest-t2"},{"Rune":"rune_03_algiz","Hex":"#ffcc3399","Correct":-1,"Choice":32,"RT":1159.4650000045076,"Accuracy":0,"Outcome":"-10","Keys":[2661.9749999954365],"TotalKeys":1,"Block":2,"Trial":158,"Robot":4,"Valence":"Lose","Action":"No-Go","Sham":0,"Color":"yellow","trial_type":"pit-trial","trial_index":176,"time_elapsed":1198435,"internal_node_id":"0.0-165.0","task_version":"test-retest-t2"},{"Rune":"rune_03_naudiz","Hex":"#3366ff99","Correct":32,"Choice":32,"RT":638.0900000077672,"Accuracy":1,"Outcome":"+1","Keys":[2140.2600000000093],"TotalKeys":1,"Block":2,"Trial":159,"Robot":1,"Valence":"Win","Action":"Go","Sham":1,"Color":"blue","trial_type":"pit-trial","trial_index":177,"time_elapsed":1201595,"internal_node_id":"0.0-166.0","task_version":"test-retest-t2"},{"Rune":"rune_03_uruz","Hex":"#3366ff99","Correct":-1,"Choice":32,"RT":443.29999999911524,"Accuracy":0,"Outcome":"+10","Keys":[1944.154999990249],"TotalKeys":1,"Block":2,"Trial":160,"Robot":2,"Valence":"Win","Action":"No-Go","Sham":1,"Color":"blue","trial_type":"pit-trial","trial_index":178,"time_elapsed":1204559,"internal_node_id":"0.0-167.0","task_version":"test-retest-t2"},{"Rune":"rune_03_uruz","Hex":"#3366ff99","Correct":-1,"Choice":-1,"RT":-1,"Accuracy":1,"Outcome":"+10","Keys":[],"TotalKeys":0,"Block":2,"Trial":161,"Robot":2,"Valence":"Win","Action":"No-Go","Sham":0,"Color":"blue","trial_type":"pit-trial","trial_index":179,"time_elapsed":1208583,"internal_node_id":"0.0-168.0","task_version":"test-retest-t2"},{"Rune":"rune_03_algiz","Hex":"#ffcc3399","Correct":-1,"Choice":-1,"RT":-1,"Accuracy":1,"Outcome":"-1","Keys":[],"TotalKeys":0,"Block":2,"Trial":162,"Robot":4,"Valence":"Lose","Action":"No-Go","Sham":0,"Color":"yellow","trial_type":"pit-trial","trial_index":180,"time_elapsed":1212606,"internal_node_id":"0.0-169.0","task_version":"test-retest-t2"},{"Rune":"rune_03_othalan","Hex":"#ffcc3399","Correct":32,"Choice":-1,"RT":-1,"Accuracy":0,"Outcome":"-10","Keys":[],"TotalKeys":0,"Block":2,"Trial":163,"Robot":3,"Valence":"Lose","Action":"Go","Sham":0,"Color":"yellow","trial_type":"pit-trial","trial_index":181,"time_elapsed":1216635,"internal_node_id":"0.0-170.0","task_version":"test-retest-t2"},{"Rune":"rune_03_naudiz","Hex":"#3366ff99","Correct":32,"Choice":-1,"RT":-1,"Accuracy":0,"Outcome":"+1","Keys":[],"TotalKeys":0,"Block":2,"Trial":164,"Robot":1,"Valence":"Win","Action":"Go","Sham":0,"Color":"blue","trial_type":"pit-trial","trial_index":182,"time_elapsed":1220659,"internal_node_id":"0.0-171.0","task_version":"test-retest-t2"},{"Rune":"rune_03_uruz","Hex":"#3366ff99","Correct":-1,"Choice":32,"RT":756.414999996312,"Accuracy":0,"Outcome":"+1","Keys":[2257.395000007935],"TotalKeys":1,"Block":2,"Trial":165,"Robot":2,"Valence":"Win","Action":"No-Go","Sham":0,"Color":"blue","trial_type":"pit-trial","trial_index":183,"time_elapsed":1223939,"internal_node_id":"0.0-172.0","task_version":"test-retest-t2"},{"Rune":"rune_03_naudiz","Hex":"#3366ff99","Correct":32,"Choice":32,"RT":782.1799999948125,"Accuracy":1,"Outcome":"+10","Keys":[2283.3700000047684],"TotalKeys":1,"Block":2,"Trial":166,"Robot":1,"Valence":"Win","Action":"Go","Sham":0,"Color":"blue","trial_type":"pit-trial","trial_index":184,"time_elapsed":1227238,"internal_node_id":"0.0-173.0","task_version":"test-retest-t2"},{"Rune":"rune_03_algiz","Hex":"#ffcc3399","Correct":-1,"Choice":32,"RT":1376.7299999888055,"Accuracy":0,"Outcome":"-10","Keys":[2877.0150000057183],"TotalKeys":1,"Block":2,"Trial":167,"Robot":4,"Valence":"Lose","Action":"No-Go","Sham":0,"Color":"yellow","trial_type":"pit-trial","trial_index":185,"time_elapsed":1231130,"internal_node_id":"0.0-174.0","task_version":"test-retest-t2"},{"Rune":"rune_03_othalan","Hex":"#ffcc3399","Correct":32,"Choice":-1,"RT":-1,"Accuracy":0,"Outcome":"-1","Keys":[],"TotalKeys":0,"Block":2,"Trial":168,"Robot":3,"Valence":"Lose","Action":"Go","Sham":1,"Color":"yellow","trial_type":"pit-trial","trial_index":186,"time_elapsed":1235148,"internal_node_id":"0.0-175.0","task_version":"test-retest-t2"},{"Rune":"rune_03_algiz","Hex":"#ffcc3399","Correct":-1,"Choice":-1,"RT":-1,"Accuracy":1,"Outcome":"-1","Keys":[],"TotalKeys":0,"Block":2,"Trial":169,"Robot":4,"Valence":"Lose","Action":"No-Go","Sham":0,"Color":"yellow","trial_type":"pit-trial","trial_index":187,"time_elapsed":1239171,"internal_node_id":"0.0-176.0","task_version":"test-retest-t2"},{"Rune":"rune_03_uruz","Hex":"#3366ff99","Correct":-1,"Choice":32,"RT":1309.320000000298,"Accuracy":0,"Outcome":"+10","Keys":[2809.834999992512],"TotalKeys":1,"Block":2,"Trial":170,"Robot":2,"Valence":"Win","Action":"No-Go","Sham":1,"Color":"blue","trial_type":"pit-trial","trial_index":188,"time_elapsed":1242986,"internal_node_id":"0.0-177.0","task_version":"test-retest-t2"},{"Rune":"rune_03_naudiz","Hex":"#3366ff99","Correct":32,"Choice":32,"RT":1044.795000008773,"Accuracy":1,"Outcome":"+10","Keys":[2547.935000009602],"TotalKeys":1,"Block":2,"Trial":171,"Robot":1,"Valence":"Win","Action":"Go","Sham":0,"Color":"blue","trial_type":"pit-trial","trial_index":189,"time_elapsed":1246544,"internal_node_id":"0.0-178.0","task_version":"test-retest-t2"},{"Rune":"rune_03_othalan","Hex":"#ffcc3399","Correct":32,"Choice":-1,"RT":-1,"Accuracy":0,"Outcome":"-10","Keys":[3839.2950000124983],"TotalKeys":1,"Block":2,"Trial":172,"Robot":3,"Valence":"Lose","Action":"Go","Sham":0,"Color":"yellow","trial_type":"pit-trial","trial_index":190,"time_elapsed":1250553,"internal_node_id":"0.0-179.0","task_version":"test-retest-t2"},{"Rune":"rune_03_othalan","Hex":"#ffcc3399","Correct":32,"Choice":32,"RT":451.0149999987334,"Accuracy":1,"Outcome":"-1","Keys":[1954.649999999674,2063.6749999977183],"TotalKeys":2,"Block":2,"Trial":173,"Robot":3,"Valence":"Lose","Action":"Go","Sham":0,"Color":"yellow","trial_type":"pit-trial","trial_index":191,"time_elapsed":1253515,"internal_node_id":"0.0-180.0","task_version":"test-retest-t2"},{"Rune":"rune_03_uruz","Hex":"#3366ff99","Correct":-1,"Choice":-1,"RT":-1,"Accuracy":1,"Outcome":"+10","Keys":[],"TotalKeys":0,"Block":2,"Trial":174,"Robot":2,"Valence":"Win","Action":"No-Go","Sham":0,"Color":"blue","trial_type":"pit-trial","trial_index":192,"time_elapsed":1257529,"internal_node_id":"0.0-181.0","task_version":"test-retest-t2"},{"Rune":"rune_03_naudiz","Hex":"#3366ff99","Correct":32,"Choice":32,"RT":580.7750000096858,"Accuracy":1,"Outcome":"+10","Keys":[2083.3249999997206],"TotalKeys":1,"Block":2,"Trial":175,"Robot":1,"Valence":"Win","Action":"Go","Sham":0,"Color":"blue","trial_type":"pit-trial","trial_index":193,"time_elapsed":1260627,"internal_node_id":"0.0-182.0","task_version":"test-retest-t2"},{"Rune":"rune_03_algiz","Hex":"#ffcc3399","Correct":-1,"Choice":-1,"RT":-1,"Accuracy":1,"Outcome":"-1","Keys":[],"TotalKeys":0,"Block":2,"Trial":176,"Robot":4,"Valence":"Lose","Action":"No-Go","Sham":0,"Color":"yellow","trial_type":"pit-trial","trial_index":194,"time_elapsed":1264646,"internal_node_id":"0.0-183.0","task_version":"test-retest-t2"},{"Rune":"rune_03_algiz","Hex":"#ffcc3399","Correct":-1,"Choice":32,"RT":562.9699999990407,"Accuracy":0,"Outcome":"-1","Keys":[2063.8599999947473],"TotalKeys":1,"Block":2,"Trial":177,"Robot":4,"Valence":"Lose","Action":"No-Go","Sham":1,"Color":"yellow","trial_type":"pit-trial","trial_index":195,"time_elapsed":1267729,"internal_node_id":"0.0-184.0","task_version":"test-retest-t2"},{"Rune":"rune_03_naudiz","Hex":"#3366ff99","Correct":32,"Choice":32,"RT":1144.8300000047311,"Accuracy":1,"Outcome":"+1","Keys":[2646.535000007134],"TotalKeys":1,"Block":2,"Trial":178,"Robot":1,"Valence":"Win","Action":"Go","Sham":1,"Color":"blue","trial_type":"pit-trial","trial_index":196,"time_elapsed":1271390,"internal_node_id":"0.0-185.0","task_version":"test-retest-t2"},{"Rune":"rune_03_uruz","Hex":"#3366ff99","Correct":-1,"Choice":32,"RT":1034.7500000062864,"Accuracy":0,"Outcome":"+1","Keys":[2534.774999992922],"TotalKeys":1,"Block":2,"Trial":179,"Robot":2,"Valence":"Win","Action":"No-Go","Sham":0,"Color":"blue","trial_type":"pit-trial","trial_index":197,"time_elapsed":1274946,"internal_node_id":"0.0-186.0","task_version":"test-retest-t2"},{"Rune":"rune_03_othalan","Hex":"#ffcc3399","Correct":32,"Choice":32,"RT":1117.1500000054948,"Accuracy":1,"Outcome":"-1","Keys":[2619.9349999953993],"TotalKeys":1,"Block":2,"Trial":180,"Robot":3,"Valence":"Lose","Action":"Go","Sham":0,"Color":"yellow","trial_type":"pit-trial","trial_index":198,"time_elapsed":1278582,"internal_node_id":"0.0-187.0","task_version":"test-retest-t2"},{"view_history":"[{\"page_index\":0,\"viewing_time\":4118.725000007544},{\"page_index\":1,\"viewing_time\":831.9099999936298}]","rt":4951.679999998305,"trial_type":"pit-instructions","trial_index":199,"time_elapsed":1283545,"internal_node_id":"0.0-188.0","task_version":"test-retest-t2"},{"Rune":"rune_03_othalan","Hex":"#ffcc3399","Correct":32,"Choice":-1,"RT":-1,"Accuracy":0,"Outcome":"-10","Keys":[],"TotalKeys":0,"Block":2,"Trial":181,"Robot":3,"Valence":"Lose","Action":"Go","Sham":0,"Color":"yellow","trial_type":"pit-trial","trial_index":200,"time_elapsed":1287561,"internal_node_id":"0.0-189.0","task_version":"test-retest-t2"},{"Rune":"rune_03_algiz","Hex":"#ffcc3399","Correct":-1,"Choice":32,"RT":847.5949999992736,"Accuracy":0,"Outcome":"-10","Keys":[2350.4249999970198],"TotalKeys":1,"Block":2,"Trial":182,"Robot":4,"Valence":"Lose","Action":"No-Go","Sham":0,"Color":"yellow","trial_type":"pit-trial","trial_index":201,"time_elapsed":1290918,"internal_node_id":"0.0-190.0","task_version":"test-retest-t2"},{"Rune":"rune_03_uruz","Hex":"#3366ff99","Correct":-1,"Choice":32,"RT":1419.9450000012293,"Accuracy":0,"Outcome":"+1","Keys":[2922.414999993751,3379.1649999911897],"TotalKeys":2,"Block":2,"Trial":183,"Robot":2,"Valence":"Win","Action":"No-Go","Sham":0,"Color":"blue","trial_type":"pit-trial","trial_index":202,"time_elapsed":1294848,"internal_node_id":"0.0-191.0","task_version":"test-retest-t2"},{"Rune":"rune_03_naudiz","Hex":"#3366ff99","Correct":32,"Choice":32,"RT":536.4000000117812,"Accuracy":1,"Outcome":"+10","Keys":[2038.7950000003912],"TotalKeys":1,"Block":2,"Trial":184,"Robot":1,"Valence":"Win","Action":"Go","Sham":0,"Color":"blue","trial_type":"pit-trial","trial_index":203,"time_elapsed":1297895,"internal_node_id":"0.0-192.0","task_version":"test-retest-t2"},{"Rune":"rune_03_naudiz","Hex":"#3366ff99","Correct":32,"Choice":32,"RT":502.3149999906309,"Accuracy":1,"Outcome":"+10","Keys":[2002.9800000048708],"TotalKeys":1,"Block":2,"Trial":185,"Robot":1,"Valence":"Win","Action":"Go","Sham":0,"Color":"blue","trial_type":"pit-trial","trial_index":204,"time_elapsed":1300904,"internal_node_id":"0.0-193.0","task_version":"test-retest-t2"},{"Rune":"rune_03_uruz","Hex":"#3366ff99","Correct":-1,"Choice":-1,"RT":-1,"Accuracy":1,"Outcome":"+10","Keys":[],"TotalKeys":0,"Block":2,"Trial":186,"Robot":2,"Valence":"Win","Action":"No-Go","Sham":0,"Color":"blue","trial_type":"pit-trial","trial_index":205,"time_elapsed":1304915,"internal_node_id":"0.0-194.0","task_version":"test-retest-t2"},{"Rune":"rune_03_othalan","Hex":"#ffcc3399","Correct":32,"Choice":32,"RT":610.675000003539,"Accuracy":1,"Outcome":"-1","Keys":[2110.76500000502],"TotalKeys":1,"Block":2,"Trial":187,"Robot":3,"Valence":"Lose","Action":"Go","Sham":0,"Color":"yellow","trial_type":"pit-trial","trial_index":206,"time_elapsed":1308033,"internal_node_id":"0.0-195.0","task_version":"test-retest-t2"},{"Rune":"rune_03_algiz","Hex":"#ffcc3399","Correct":-1,"Choice":-1,"RT":-1,"Accuracy":1,"Outcome":"-1","Keys":[],"TotalKeys":0,"Block":2,"Trial":188,"Robot":4,"Valence":"Lose","Action":"No-Go","Sham":0,"Color":"yellow","trial_type":"pit-trial","trial_index":207,"time_elapsed":1312042,"internal_node_id":"0.0-196.0","task_version":"test-retest-t2"},{"Rune":"rune_03_algiz","Hex":"#ffcc3399","Correct":-1,"Choice":-1,"RT":-1,"Accuracy":1,"Outcome":"-1","Keys":[],"TotalKeys":0,"Block":2,"Trial":189,"Robot":4,"Valence":"Lose","Action":"No-Go","Sham":0,"Color":"yellow","trial_type":"pit-trial","trial_index":208,"time_elapsed":1316052,"internal_node_id":"0.0-197.0","task_version":"test-retest-t2"},{"Rune":"rune_03_naudiz","Hex":"#3366ff99","Correct":32,"Choice":32,"RT":1015.9650000133552,"Accuracy":1,"Outcome":"+10","Keys":[2516.2200000050943],"TotalKeys":1,"Block":2,"Trial":190,"Robot":1,"Valence":"Win","Action":"Go","Sham":0,"Color":"blue","trial_type":"pit-trial","trial_index":209,"time_elapsed":1319575,"internal_node_id":"0.0-198.0","task_version":"test-retest-t2"},{"Rune":"rune_03_uruz","Hex":"#3366ff99","Correct":-1,"Choice":-1,"RT":-1,"Accuracy":1,"Outcome":"+10","Keys":[],"TotalKeys":0,"Block":2,"Trial":191,"Robot":2,"Valence":"Win","Action":"No-Go","Sham":0,"Color":"blue","trial_type":"pit-trial","trial_index":210,"time_elapsed":1323584,"internal_node_id":"0.0-199.0","task_version":"test-retest-t2"},{"Rune":"rune_03_othalan","Hex":"#ffcc3399","Correct":32,"Choice":32,"RT":1110.0500000028405,"Accuracy":1,"Outcome":"-1","Keys":[2612.0099999972153],"TotalKeys":1,"Block":2,"Trial":192,"Robot":3,"Valence":"Lose","Action":"Go","Sham":0,"Color":"yellow","trial_type":"pit-trial","trial_index":211,"time_elapsed":1327202,"internal_node_id":"0.0-200.0","task_version":"test-retest-t2"},{"Rune":"rune_03_othalan","Hex":"#ffcc3399","Correct":32,"Choice":-1,"RT":-1,"Accuracy":0,"Outcome":"-10","Keys":[],"TotalKeys":0,"Block":2,"Trial":193,"Robot":3,"Valence":"Lose","Action":"Go","Sham":0,"Color":"yellow","trial_type":"pit-trial","trial_index":212,"time_elapsed":1331210,"internal_node_id":"0.0-201.0","task_version":"test-retest-t2"},{"Rune":"rune_03_algiz","Hex":"#ffcc3399","Correct":-1,"Choice":32,"RT":1037.105000010226,"Accuracy":0,"Outcome":"-1","Keys":[2538.4999999951106],"TotalKeys":1,"Block":2,"Trial":194,"Robot":4,"Valence":"Lose","Action":"No-Go","Sham":1,"Color":"yellow","trial_type":"pit-trial","trial_index":213,"time_elapsed":1334757,"internal_node_id":"0.0-202.0","task_version":"test-retest-t2"},{"Rune":"rune_03_uruz","Hex":"#3366ff99","Correct":-1,"Choice":-1,"RT":-1,"Accuracy":1,"Outcome":"+10","Keys":[],"TotalKeys":0,"Block":2,"Trial":195,"Robot":2,"Valence":"Win","Action":"No-Go","Sham":0,"Color":"blue","trial_type":"pit-trial","trial_index":214,"time_elapsed":1338767,"internal_node_id":"0.0-203.0","task_version":"test-retest-t2"},{"Rune":"rune_03_naudiz","Hex":"#3366ff99","Correct":32,"Choice":32,"RT":705.3949999972247,"Accuracy":1,"Outcome":"+1","Keys":[2207.894999999553],"TotalKeys":1,"Block":2,"Trial":196,"Robot":1,"Valence":"Win","Action":"Go","Sham":1,"Color":"blue","trial_type":"pit-trial","trial_index":215,"time_elapsed":1341983,"internal_node_id":"0.0-204.0","task_version":"test-retest-t2"},{"Rune":"rune_03_othalan","Hex":"#ffcc3399","Correct":32,"Choice":32,"RT":1155.2050000028685,"Accuracy":1,"Outcome":"-10","Keys":[2656.459999998333],"TotalKeys":1,"Block":2,"Trial":197,"Robot":3,"Valence":"Lose","Action":"Go","Sham":1,"Color":"yellow","trial_type":"pit-trial","trial_index":216,"time_elapsed":1345647,"internal_node_id":"0.0-205.0","task_version":"test-retest-t2"},{"Rune":"rune_03_algiz","Hex":"#ffcc3399","Correct":-1,"Choice":32,"RT":769.9299999948125,"Accuracy":0,"Outcome":"-10","Keys":[2269.975000002887],"TotalKeys":1,"Block":2,"Trial":198,"Robot":4,"Valence":"Lose","Action":"No-Go","Sham":0,"Color":"yellow","trial_type":"pit-trial","trial_index":217,"time_elapsed":1348924,"internal_node_id":"0.0-206.0","task_version":"test-retest-t2"},{"Rune":"rune_03_naudiz","Hex":"#3366ff99","Correct":32,"Choice":32,"RT":638.8350000053179,"Accuracy":1,"Outcome":"+10","Keys":[2142.5999999917112],"TotalKeys":1,"Block":2,"Trial":199,"Robot":1,"Valence":"Win","Action":"Go","Sham":0,"Color":"blue","trial_type":"pit-trial","trial_index":218,"time_elapsed":1352072,"internal_node_id":"0.0-207.0","task_version":"test-retest-t2"},{"Rune":"rune_03_uruz","Hex":"#3366ff99","Correct":-1,"Choice":-1,"RT":-1,"Accuracy":1,"Outcome":"+1","Keys":[3737.6499999952503],"TotalKeys":1,"Block":2,"Trial":200,"Robot":2,"Valence":"Win","Action":"No-Go","Sham":1,"Color":"blue","trial_type":"pit-trial","trial_index":219,"time_elapsed":1356079,"internal_node_id":"0.0-208.0","task_version":"test-retest-t2"},{"Rune":"rune_03_naudiz","Hex":"#3366ff99","Correct":32,"Choice":32,"RT":803.4550000012387,"Accuracy":1,"Outcome":"+10","Keys":[2305.665000007255],"TotalKeys":1,"Block":2,"Trial":201,"Robot":1,"Valence":"Win","Action":"Go","Sham":0,"Color":"blue","trial_type":"pit-trial","trial_index":220,"time_elapsed":1359390,"internal_node_id":"0.0-209.0","task_version":"test-retest-t2"},{"Rune":"rune_03_othalan","Hex":"#ffcc3399","Correct":32,"Choice":32,"RT":766.9049999967683,"Accuracy":1,"Outcome":"-10","Keys":[2267.5250000029337],"TotalKeys":1,"Block":2,"Trial":202,"Robot":3,"Valence":"Lose","Action":"Go","Sham":1,"Color":"yellow","trial_type":"pit-trial","trial_index":221,"time_elapsed":1362667,"internal_node_id":"0.0-210.0","task_version":"test-retest-t2"},{"Rune":"rune_03_algiz","Hex":"#ffcc3399","Correct":-1,"Choice":-1,"RT":-1,"Accuracy":1,"Outcome":"-1","Keys":[],"TotalKeys":0,"Block":2,"Trial":203,"Robot":4,"Valence":"Lose","Action":"No-Go","Sham":0,"Color":"yellow","trial_type":"pit-trial","trial_index":222,"time_elapsed":1366681,"internal_node_id":"0.0-211.0","task_version":"test-retest-t2"},{"Rune":"rune_03_uruz","Hex":"#3366ff99","Correct":-1,"Choice":-1,"RT":-1,"Accuracy":1,"Outcome":"+10","Keys":[],"TotalKeys":0,"Block":2,"Trial":204,"Robot":2,"Valence":"Win","Action":"No-Go","Sham":0,"Color":"blue","trial_type":"pit-trial","trial_index":223,"time_elapsed":1370694,"internal_node_id":"0.0-212.0","task_version":"test-retest-t2"},{"Rune":"rune_03_naudiz","Hex":"#3366ff99","Correct":32,"Choice":32,"RT":1234.559999997262,"Accuracy":1,"Outcome":"+1","Keys":[2737.7050000068266],"TotalKeys":1,"Block":2,"Trial":205,"Robot":1,"Valence":"Win","Action":"Go","Sham":1,"Color":"blue","trial_type":"pit-trial","trial_index":224,"time_elapsed":1374440,"internal_node_id":"0.0-213.0","task_version":"test-retest-t2"},{"Rune":"rune_03_othalan","Hex":"#ffcc3399","Correct":32,"Choice":32,"RT":653.269999995362,"Accuracy":1,"Outcome":"-1","Keys":[2153.559999991674],"TotalKeys":1,"Block":2,"Trial":206,"Robot":3,"Valence":"Lose","Action":"Go","Sham":0,"Color":"yellow","trial_type":"pit-trial","trial_index":225,"time_elapsed":1377600,"internal_node_id":"0.0-214.0","task_version":"test-retest-t2"},{"Rune":"rune_03_uruz","Hex":"#3366ff99","Correct":-1,"Choice":-1,"RT":-1,"Accuracy":1,"Outcome":"+10","Keys":[],"TotalKeys":0,"Block":2,"Trial":207,"Robot":2,"Valence":"Win","Action":"No-Go","Sham":0,"Color":"blue","trial_type":"pit-trial","trial_index":226,"time_elapsed":1381607,"internal_node_id":"0.0-215.0","task_version":"test-retest-t2"},{"Rune":"rune_03_algiz","Hex":"#ffcc3399","Correct":-1,"Choice":32,"RT":907.3700000010431,"Accuracy":0,"Outcome":"-10","Keys":[2411.2900000035297],"TotalKeys":1,"Block":2,"Trial":208,"Robot":4,"Valence":"Lose","Action":"No-Go","Sham":0,"Color":"yellow","trial_type":"pit-trial","trial_index":227,"time_elapsed":1385024,"internal_node_id":"0.0-216.0","task_version":"test-retest-t2"},{"Rune":"rune_03_othalan","Hex":"#ffcc3399","Correct":32,"Choice":-1,"RT":-1,"Accuracy":0,"Outcome":"-10","Keys":[],"TotalKeys":0,"Block":2,"Trial":209,"Robot":3,"Valence":"Lose","Action":"Go","Sham":0,"Color":"yellow","trial_type":"pit-trial","trial_index":228,"time_elapsed":1389035,"internal_node_id":"0.0-217.0","task_version":"test-retest-t2"},{"Rune":"rune_03_uruz","Hex":"#3366ff99","Correct":-1,"Choice":-1,"RT":-1,"Accuracy":1,"Outcome":"+10","Keys":[],"TotalKeys":0,"Block":2,"Trial":210,"Robot":2,"Valence":"Win","Action":"No-Go","Sham":0,"Color":"blue","trial_type":"pit-trial","trial_index":229,"time_elapsed":1393047,"internal_node_id":"0.0-218.0","task_version":"test-retest-t2"},{"Rune":"rune_03_naudiz","Hex":"#3366ff99","Correct":32,"Choice":32,"RT":734.2199999985751,"Accuracy":1,"Outcome":"+10","Keys":[2234.3949999921024],"TotalKeys":1,"Block":2,"Trial":211,"Robot":1,"Valence":"Win","Action":"Go","Sham":0,"Color":"blue","trial_type":"pit-trial","trial_index":230,"time_elapsed":1396290,"internal_node_id":"0.0-219.0","task_version":"test-retest-t2"},{"Rune":"rune_03_algiz","Hex":"#ffcc3399","Correct":-1,"Choice":32,"RT":719.2650000068825,"Accuracy":0,"Outcome":"-10","Keys":[2222.0950000046287],"TotalKeys":1,"Block":2,"Trial":212,"Robot":4,"Valence":"Lose","Action":"No-Go","Sham":0,"Color":"yellow","trial_type":"pit-trial","trial_index":231,"time_elapsed":1399521,"internal_node_id":"0.0-220.0","task_version":"test-retest-t2"},{"Rune":"rune_03_algiz","Hex":"#ffcc3399","Correct":-1,"Choice":-1,"RT":-1,"Accuracy":1,"Outcome":"-10","Keys":[3531.2549999943003],"TotalKeys":1,"Block":2,"Trial":213,"Robot":4,"Valence":"Lose","Action":"No-Go","Sham":1,"Color":"yellow","trial_type":"pit-trial","trial_index":232,"time_elapsed":1403531,"internal_node_id":"0.0-221.0","task_version":"test-retest-t2"},{"Rune":"rune_03_naudiz","Hex":"#3366ff99","Correct":32,"Choice":32,"RT":721.6099999933504,"Accuracy":1,"Outcome":"+10","Keys":[2222.3400000075344],"TotalKeys":1,"Block":2,"Trial":214,"Robot":1,"Valence":"Win","Action":"Go","Sham":0,"Color":"blue","trial_type":"pit-trial","trial_index":233,"time_elapsed":1406758,"internal_node_id":"0.0-222.0","task_version":"test-retest-t2"},{"Rune":"rune_03_othalan","Hex":"#ffcc3399","Correct":32,"Choice":32,"RT":652.0949999978766,"Accuracy":1,"Outcome":"-1","Keys":[2155.5249999947846],"TotalKeys":1,"Block":2,"Trial":215,"Robot":3,"Valence":"Lose","Action":"Go","Sham":0,"Color":"yellow","trial_type":"pit-trial","trial_index":234,"time_elapsed":1409924,"internal_node_id":"0.0-223.0","task_version":"test-retest-t2"},{"Rune":"rune_03_uruz","Hex":"#3366ff99","Correct":-1,"Choice":32,"RT":1078.4100000017788,"Accuracy":0,"Outcome":"+1","Keys":[2579.51999999932],"TotalKeys":1,"Block":2,"Trial":216,"Robot":2,"Valence":"Win","Action":"No-Go","Sham":0,"Color":"blue","trial_type":"pit-trial","trial_index":235,"time_elapsed":1413510,"internal_node_id":"0.0-224.0","task_version":"test-retest-t2"},{"Rune":"rune_03_naudiz","Hex":"#3366ff99","Correct":32,"Choice":32,"RT":418.4299999906216,"Accuracy":1,"Outcome":"+10","Keys":[1918.9800000020768],"TotalKeys":1,"Block":2,"Trial":217,"Robot":1,"Valence":"Win","Action":"Go","Sham":0,"Color":"blue","trial_type":"pit-trial","trial_index":236,"time_elapsed":1416438,"internal_node_id":"0.0-225.0","task_version":"test-retest-t2"},{"Rune":"rune_03_othalan","Hex":"#ffcc3399","Correct":32,"Choice":32,"RT":621.9950000087265,"Accuracy":1,"Outcome":"-1","Keys":[2123.9750000094064],"TotalKeys":1,"Block":2,"Trial":218,"Robot":3,"Valence":"Lose","Action":"Go","Sham":0,"Color":"yellow","trial_type":"pit-trial","trial_index":237,"time_elapsed":1419570,"internal_node_id":"0.0-226.0","task_version":"test-retest-t2"},{"Rune":"rune_03_uruz","Hex":"#3366ff99","Correct":-1,"Choice":-1,"RT":-1,"Accuracy":1,"Outcome":"+1","Keys":[3701.614999998128],"TotalKeys":1,"Block":2,"Trial":219,"Robot":2,"Valence":"Win","Action":"No-Go","Sham":1,"Color":"blue","trial_type":"pit-trial","trial_index":238,"time_elapsed":1423583,"internal_node_id":"0.0-227.0","task_version":"test-retest-t2"},{"Rune":"rune_03_algiz","Hex":"#ffcc3399","Correct":-1,"Choice":32,"RT":581.9400000036694,"Accuracy":0,"Outcome":"-10","Keys":[2083.4699999978766],"TotalKeys":1,"Block":2,"Trial":220,"Robot":4,"Valence":"Lose","Action":"No-Go","Sham":0,"Color":"yellow","trial_type":"pit-trial","trial_index":239,"time_elapsed":1426673,"internal_node_id":"0.0-228.0","task_version":"test-retest-t2"},{"Rune":"rune_03_naudiz","Hex":"#3366ff99","Correct":32,"Choice":32,"RT":585.6249999923166,"Accuracy":1,"Outcome":"+10","Keys":[2086.119999992661],"TotalKeys":1,"Block":2,"Trial":221,"Robot":1,"Valence":"Win","Action":"Go","Sham":0,"Color":"blue","trial_type":"pit-trial","trial_index":240,"time_elapsed":1429767,"internal_node_id":"0.0-229.0","task_version":"test-retest-t2"},{"Rune":"rune_03_algiz","Hex":"#ffcc3399","Correct":-1,"Choice":32,"RT":650.6550000049174,"Accuracy":0,"Outcome":"-10","Keys":[2152.1700000013225,2209.8750000004657],"TotalKeys":2,"Block":2,"Trial":222,"Robot":4,"Valence":"Lose","Action":"No-Go","Sham":0,"Color":"yellow","trial_type":"pit-trial","trial_index":241,"time_elapsed":1432925,"internal_node_id":"0.0-230.0","task_version":"test-retest-t2"},{"Rune":"rune_03_othalan","Hex":"#ffcc3399","Correct":32,"Choice":32,"RT":689.6249999990687,"Accuracy":1,"Outcome":"-1","Keys":[2190.6200000084937],"TotalKeys":1,"Block":2,"Trial":223,"Robot":3,"Valence":"Lose","Action":"Go","Sham":0,"Color":"yellow","trial_type":"pit-trial","trial_index":242,"time_elapsed":1436121,"internal_node_id":"0.0-231.0","task_version":"test-retest-t2"},{"Rune":"rune_03_uruz","Hex":"#3366ff99","Correct":-1,"Choice":-1,"RT":-1,"Accuracy":1,"Outcome":"+10","Keys":[],"TotalKeys":0,"Block":2,"Trial":224,"Robot":2,"Valence":"Win","Action":"No-Go","Sham":0,"Color":"blue","trial_type":"pit-trial","trial_index":243,"time_elapsed":1440133,"internal_node_id":"0.0-232.0","task_version":"test-retest-t2"},{"Rune":"rune_03_algiz","Hex":"#ffcc3399","Correct":-1,"Choice":-1,"RT":-1,"Accuracy":1,"Outcome":"-10","Keys":[],"TotalKeys":0,"Block":2,"Trial":225,"Robot":4,"Valence":"Lose","Action":"No-Go","Sham":1,"Color":"yellow","trial_type":"pit-trial","trial_index":244,"time_elapsed":1444143,"internal_node_id":"0.0-233.0","task_version":"test-retest-t2"},{"Rune":"rune_03_naudiz","Hex":"#3366ff99","Correct":32,"Choice":32,"RT":673.3399999940302,"Accuracy":1,"Outcome":"+10","Keys":[2174.5200000004843],"TotalKeys":1,"Block":2,"Trial":226,"Robot":1,"Valence":"Win","Action":"Go","Sham":0,"Color":"blue","trial_type":"pit-trial","trial_index":245,"time_elapsed":1447326,"internal_node_id":"0.0-234.0","task_version":"test-retest-t2"},{"Rune":"rune_03_othalan","Hex":"#ffcc3399","Correct":32,"Choice":32,"RT":990.3099999937695,"Accuracy":1,"Outcome":"-1","Keys":[2491.6999999985565,2657.6849999981932],"TotalKeys":2,"Block":2,"Trial":227,"Robot":3,"Valence":"Lose","Action":"Go","Sham":0,"Color":"yellow","trial_type":"pit-trial","trial_index":246,"time_elapsed":1450827,"internal_node_id":"0.0-235.0","task_version":"test-retest-t2"},{"Rune":"rune_03_uruz","Hex":"#3366ff99","Correct":-1,"Choice":-1,"RT":-1,"Accuracy":1,"Outcome":"+1","Keys":[],"TotalKeys":0,"Block":2,"Trial":228,"Robot":2,"Valence":"Win","Action":"No-Go","Sham":1,"Color":"blue","trial_type":"pit-trial","trial_index":247,"time_elapsed":1454839,"internal_node_id":"0.0-236.0","task_version":"test-retest-t2"},{"Rune":"rune_03_uruz","Hex":"#3366ff99","Correct":-1,"Choice":32,"RT":588.0949999992736,"Accuracy":0,"Outcome":"+1","Keys":[2089.1050000065006],"TotalKeys":1,"Block":2,"Trial":229,"Robot":2,"Valence":"Win","Action":"No-Go","Sham":0,"Color":"blue","trial_type":"pit-trial","trial_index":248,"time_elapsed":1457936,"internal_node_id":"0.0-237.0","task_version":"test-retest-t2"},{"Rune":"rune_03_algiz","Hex":"#ffcc3399","Correct":-1,"Choice":32,"RT":671.8399999951944,"Accuracy":0,"Outcome":"-10","Keys":[2173.739999998361],"TotalKeys":1,"Block":2,"Trial":230,"Robot":4,"Valence":"Lose","Action":"No-Go","Sham":0,"Color":"yellow","trial_type":"pit-trial","trial_index":249,"time_elapsed":1461117,"internal_node_id":"0.0-238.0","task_version":"test-retest-t2"},{"Rune":"rune_03_naudiz","Hex":"#3366ff99","Correct":32,"Choice":32,"RT":737.8100000061095,"Accuracy":1,"Outcome":"+10","Keys":[2239.699999990873],"TotalKeys":1,"Block":2,"Trial":231,"Robot":1,"Valence":"Win","Action":"Go","Sham":0,"Color":"blue","trial_type":"pit-trial","trial_index":250,"time_elapsed":1464365,"internal_node_id":"0.0-239.0","task_version":"test-retest-t2"},{"Rune":"rune_03_othalan","Hex":"#ffcc3399","Correct":32,"Choice":32,"RT":673.374999998603,"Accuracy":1,"Outcome":"-1","Keys":[2174.8949999893084],"TotalKeys":1,"Block":2,"Trial":232,"Robot":3,"Valence":"Lose","Action":"Go","Sham":0,"Color":"yellow","trial_type":"pit-trial","trial_index":251,"time_elapsed":1467548,"internal_node_id":"0.0-240.0","task_version":"test-retest-t2"},{"Rune":"rune_03_algiz","Hex":"#ffcc3399","Correct":-1,"Choice":32,"RT":1063.0149999926798,"Accuracy":0,"Outcome":"-10","Keys":[2564.8050000015646],"TotalKeys":1,"Block":2,"Trial":233,"Robot":4,"Valence":"Lose","Action":"No-Go","Sham":0,"Color":"yellow","trial_type":"pit-trial","trial_index":252,"time_elapsed":1471119,"internal_node_id":"0.0-241.0","task_version":"test-retest-t2"},{"Rune":"rune_03_uruz","Hex":"#3366ff99","Correct":-1,"Choice":-1,"RT":-1,"Accuracy":1,"Outcome":"+10","Keys":[],"TotalKeys":0,"Block":2,"Trial":234,"Robot":2,"Valence":"Win","Action":"No-Go","Sham":0,"Color":"blue","trial_type":"pit-trial","trial_index":253,"time_elapsed":1475126,"internal_node_id":"0.0-242.0","task_version":"test-retest-t2"},{"Rune":"rune_03_othalan","Hex":"#ffcc3399","Correct":32,"Choice":32,"RT":1011.4850000101142,"Accuracy":1,"Outcome":"-1","Keys":[2515.1299999998882],"TotalKeys":1,"Block":2,"Trial":235,"Robot":3,"Valence":"Lose","Action":"Go","Sham":0,"Color":"yellow","trial_type":"pit-trial","trial_index":254,"time_elapsed":1478650,"internal_node_id":"0.0-243.0","task_version":"test-retest-t2"},{"Rune":"rune_03_naudiz","Hex":"#3366ff99","Correct":32,"Choice":32,"RT":663.3299999958836,"Accuracy":1,"Outcome":"+10","Keys":[2163.9149999972433],"TotalKeys":1,"Block":2,"Trial":236,"Robot":1,"Valence":"Win","Action":"Go","Sham":0,"Color":"blue","trial_type":"pit-trial","trial_index":255,"time_elapsed":1481822,"internal_node_id":"0.0-244.0","task_version":"test-retest-t2"},{"Rune":"rune_03_algiz","Hex":"#ffcc3399","Correct":-1,"Choice":32,"RT":809.3899999950081,"Accuracy":0,"Outcome":"-10","Keys":[2309.899999992922],"TotalKeys":1,"Block":2,"Trial":237,"Robot":4,"Valence":"Lose","Action":"No-Go","Sham":0,"Color":"yellow","trial_type":"pit-trial","trial_index":256,"time_elapsed":1485138,"internal_node_id":"0.0-245.0","task_version":"test-retest-t2"},{"Rune":"rune_03_uruz","Hex":"#3366ff99","Correct":-1,"Choice":-1,"RT":-1,"Accuracy":1,"Outcome":"+10","Keys":[],"TotalKeys":0,"Block":2,"Trial":238,"Robot":2,"Valence":"Win","Action":"No-Go","Sham":0,"Color":"blue","trial_type":"pit-trial","trial_index":257,"time_elapsed":1489151,"internal_node_id":"0.0-246.0","task_version":"test-retest-t2"},{"Rune":"rune_03_naudiz","Hex":"#3366ff99","Correct":32,"Choice":32,"RT":530.735000007553,"Accuracy":1,"Outcome":"+1","Keys":[2035.6299999984913],"TotalKeys":1,"Block":2,"Trial":239,"Robot":1,"Valence":"Win","Action":"Go","Sham":1,"Color":"blue","trial_type":"pit-trial","trial_index":258,"time_elapsed":1492192,"internal_node_id":"0.0-247.0","task_version":"test-retest-t2"},{"Rune":"rune_03_othalan","Hex":"#ffcc3399","Correct":32,"Choice":32,"RT":790.4800000104588,"Accuracy":1,"Outcome":"-10","Keys":[2292.4050000002608],"TotalKeys":1,"Block":2,"Trial":240,"Robot":3,"Valence":"Lose","Action":"Go","Sham":1,"Color":"yellow","trial_type":"pit-trial","trial_index":259,"time_elapsed":1495492,"internal_node_id":"0.0-248.0","task_version":"test-retest-t2"},{"view_history":"[{\"page_index\":0,\"viewing_time\":2066.3599999970756}]","rt":2067.5150000024587,"trial_type":"pit-instructions","trial_index":260,"time_elapsed":1497564,"internal_node_id":"0.0-249.0","task_version":"test-retest-t2"},{"rt":82959.8649999972,"responses":{"difficulty":"5","fun":"5","clarity":"5","strategy":"I followed the instructions as expected ","feedback":"Very interactive study "},"survey":"debrief","trial_type":"survey-debrief","trial_index":261,"time_elapsed":1580533,"internal_node_id":"0.0-250.0","task_version":"test-retest-t2"},{"rt":4518.250000008149,"stimulus":"You earned a bonus of $0.98 out of $1.5.<br><br>Press any key to complete the experiment.","key_press":32,"trial_type":"html-keyboard-response","trial_index":262,"time_elapsed":1585058,"internal_node_id":"0.0-251.0","task_version":"test-retest-t2","accuracy":0.65,"bonus":0.98,"interactions":"[{\"event\":\"blur\",\"trial\":7,\"time\":93098},{\"event\":\"focus\",\"trial\":7,\"time\":120144},{\"event\":\"blur\",\"trial\":77,\"time\":790880},{\"event\":\"focus\",\"trial\":77,\"time\":822664}]"}]