[{"slider_type":"valence","raw_loc":663,"loc":0.826,"trial_type":"affective-slider","trial_index":0,"time_elapsed":5506,"internal_node_id":"0.0-0.0","task_version":"test-retest-t2"},{"responses":{"Q06":"0","Q02":"0","Q01":"0","Q08":"0","Q05":"0","Q03":"0","Q07":"0","Q04":"0"},"rt":22907.260000007227,"survey":"gad7","trial_type":"survey-template","trial_index":1,"time_elapsed":28419,"internal_node_id":"0.0-1.0","task_version":"test-retest-t2"},{"view_history":"[{\"page_index\":0,\"viewing_time\":5879.575000028126},{\"page_index\":1,\"viewing_time\":3455.619999964256},{\"page_index\":2,\"viewing_time\":4881.325000023935},{\"page_index\":3,\"viewing_time\":11664.29500002414},{\"page_index\":4,\"viewing_time\":8327.349999977741},{\"page_index\":5,\"viewing_time\":3803.989999985788}]","rt":38013.039999990724,"trial_type":"pit-instructions","trial_index":2,"time_elapsed":66439,"internal_node_id":"0.0-2.0-0.0","task_version":"test-retest-t2"},{"Rune":"rune_00_ingz","Hex":"#FFFFF080","Correct":32,"Choice":32,"RT":730.0599999725819,"Accuracy":1,"Outcome":"+10","Keys":[2231.1099999933504],"TotalKeys":1,"Block":0,"Action":"Go","trial_type":"pit-trial","trial_index":3,"time_elapsed":69675,"internal_node_id":"0.0-2.0-1.0-0.0","task_version":"test-retest-t2"},{"Rune":"rune_00_ingz","Hex":"#FFFFF080","Correct":32,"Choice":32,"RT":504.39499999629334,"Accuracy":1,"Outcome":"+10","Keys":[2006.8050000118092],"TotalKeys":1,"Block":0,"Action":"Go","trial_type":"pit-trial","trial_index":4,"time_elapsed":72687,"internal_node_id":"0.0-2.0-1.0-0.1","task_version":"test-retest-t2"},{"Rune":"rune_00_ingz","Hex":"#FFFFF080","Correct":32,"Choice":32,"RT":402.8849999886006,"Accuracy":1,"Outcome":"+10","Keys":[1903.6299999570474],"TotalKeys":1,"Block":0,"Action":"Go","trial_type":"pit-trial","trial_index":5,"time_elapsed":75596,"internal_node_id":"0.0-2.0-1.0-0.2","task_version":"test-retest-t2"},{"Rune":"rune_00_ingz","Hex":"#FFFFF080","Correct":32,"Choice":32,"RT":146.21999999508262,"Accuracy":1,"Outcome":"+10","Keys":[1651.8899999791756],"TotalKeys":1,"Block":0,"Action":"Go","trial_type":"pit-trial","trial_index":6,"time_elapsed":78255,"internal_node_id":"0.0-2.0-1.0-0.3","task_version":"test-retest-t2"},{"view_history":"[{\"page_index\":0,\"viewing_time\":2444.1899999510497}]","rt":2444.6400000015274,"trial_type":"pit-instructions","trial_index":7,"time_elapsed":80701,"internal_node_id":"0.0-2.0-2.0","task_version":"test-retest-t2"},{"Rune":"rune_00_isaz","Hex":"#FFFFF080","Correct":-1,"Choice":-1,"RT":-1,"Accuracy":1,"Outcome":"+10","Keys":[],"TotalKeys":0,"Block":0,"Action":"No-Go","trial_type":"pit-trial","trial_index":8,"time_elapsed":84712,"internal_node_id":"0.0-2.0-3.0-0.0","task_version":"test-retest-t2"},{"Rune":"rune_00_isaz","Hex":"#FFFFF080","Correct":-1,"Choice":-1,"RT":-1,"Accuracy":1,"Outcome":"+10","Keys":[],"TotalKeys":0,"Block":0,"Action":"No-Go","trial_type":"pit-trial","trial_index":9,"time_elapsed":88720,"internal_node_id":"0.0-2.0-3.0-0.1","task_version":"test-retest-t2"},{"Rune":"rune_00_isaz","Hex":"#FFFFF080","Correct":-1,"Choice":-1,"RT":-1,"Accuracy":1,"Outcome":"+10","Keys":[],"TotalKeys":0,"Block":0,"Action":"No-Go","trial_type":"pit-trial","trial_index":10,"time_elapsed":92724,"internal_node_id":"0.0-2.0-3.0-0.2","task_version":"test-retest-t2"},{"Rune":"rune_00_isaz","Hex":"#FFFFF080","Correct":-1,"Choice":-1,"RT":-1,"Accuracy":1,"Outcome":"+10","Keys":[],"TotalKeys":0,"Block":0,"Action":"No-Go","trial_type":"pit-trial","trial_index":11,"time_elapsed":96735,"internal_node_id":"0.0-2.0-3.0-0.3","task_version":"test-retest-t2"},{"view_history":"[{\"page_index\":0,\"viewing_time\":3303.7449999828823},{\"page_index\":1,\"viewing_time\":15477.375000016764},{\"page_index\":2,\"viewing_time\":5514.00999998441},{\"page_index\":3,\"viewing_time\":6485.420000040904},{\"page_index\":4,\"viewing_time\":5046.539999952074},{\"page_index\":5,\"viewing_time\":7069.54500003485},{\"page_index\":6,\"viewing_time\":3728.49499998847},{\"page_index\":7,\"viewing_time\":2907.3699999717064}]","rt":49532.935000024736,"trial_type":"pit-instructions","trial_index":12,"time_elapsed":146271,"internal_node_id":"0.0-2.0-4.0","task_version":"test-retest-t2"},{"responses":["Do nothing","+10","-1","True","Yes"],"num_errors":0,"rt":18297.444999974687,"trial_type":"pit-comprehension","trial_index":13,"time_elapsed":164574,"internal_node_id":"0.0-2.0-5.0","task_version":"test-retest-t2"},{"trial_type":"call-function","trial_index":14,"time_elapsed":164578,"internal_node_id":"0.0-3.0","task_version":"test-retest-t2"},{"view_history":"[{\"page_index\":0,\"viewing_time\":2344.92499998305},{\"page_index\":1,\"viewing_time\":1916.5600000414997},{\"page_index\":2,\"viewing_time\":3836.714999983087}]","rt":8098.63000002224,"trial_type":"pit-instructions","trial_index":15,"time_elapsed":172678,"internal_node_id":"0.0-4.0","task_version":"test-retest-t2"},{"Rune":"rune_05_tiwaz","Hex":"#3366ff99","Correct":-1,"Choice":32,"RT":755.0599999958649,"Accuracy":0,"Outcome":"-10","Keys":[2255.905000027269],"TotalKeys":1,"Block":1,"Trial":1,"Robot":4,"Valence":"Lose","Action":"No-Go","Sham":0,"Color":"blue","trial_type":"pit-trial","trial_index":16,"time_elapsed":175942,"internal_node_id":"0.0-5.0","task_version":"test-retest-t2"},{"Rune":"rune_05_ior","Hex":"#ffcc3399","Correct":32,"Choice":32,"RT":832.7949999948032,"Accuracy":1,"Outcome":"+10","Keys":[2333.2350000273436],"TotalKeys":1,"Block":1,"Trial":2,"Robot":1,"Valence":"Win","Action":"Go","Sham":0,"Color":"yellow","trial_type":"pit-trial","trial_index":17,"time_elapsed":179278,"internal_node_id":"0.0-6.0","task_version":"test-retest-t2"},{"Rune":"rune_05_gebo","Hex":"#3366ff99","Correct":32,"Choice":32,"RT":789.2199999769218,"Accuracy":1,"Outcome":"-10","Keys":[2290.99499998847],"TotalKeys":1,"Block":1,"Trial":3,"Robot":3,"Valence":"Lose","Action":"Go","Sham":1,"Color":"blue","trial_type":"pit-trial","trial_index":18,"time_elapsed":182574,"internal_node_id":"0.0-7.0","task_version":"test-retest-t2"},{"Rune":"rune_05_jeran","Hex":"#ffcc3399","Correct":-1,"Choice":-1,"RT":-1,"Accuracy":1,"Outcome":"+10","Keys":[],"TotalKeys":0,"Block":1,"Trial":4,"Robot":2,"Valence":"Win","Action":"No-Go","Sham":0,"Color":"yellow","trial_type":"pit-trial","trial_index":19,"time_elapsed":186583,"internal_node_id":"0.0-8.0","task_version":"test-retest-t2"},{"Rune":"rune_05_jeran","Hex":"#ffcc3399","Correct":-1,"Choice":32,"RT":997.8249999694526,"Accuracy":0,"Outcome":"+1","Keys":[2499.8149999883026],"TotalKeys":1,"Block":1,"Trial":5,"Robot":2,"Valence":"Win","Action":"No-Go","Sham":0,"Color":"yellow","trial_type":"pit-trial","trial_index":20,"time_elapsed":190087,"internal_node_id":"0.0-9.0","task_version":"test-retest-t2"},{"Rune":"rune_05_tiwaz","Hex":"#3366ff99","Correct":-1,"Choice":32,"RT":939.7599999792874,"Accuracy":0,"Outcome":"-10","Keys":[2442.28999997722],"TotalKeys":1,"Block":1,"Trial":6,"Robot":4,"Valence":"Lose","Action":"No-Go","Sham":0,"Color":"blue","trial_type":"pit-trial","trial_index":21,"time_elapsed":193535,"internal_node_id":"0.0-10.0","task_version":"test-retest-t2"},{"Rune":"rune_05_ior","Hex":"#ffcc3399","Correct":32,"Choice":32,"RT":704.764999973122,"Accuracy":1,"Outcome":"+1","Keys":[2205.0600000075065],"TotalKeys":1,"Block":1,"Trial":7,"Robot":1,"Valence":"Win","Action":"Go","Sham":1,"Color":"yellow","trial_type":"pit-trial","trial_index":22,"time_elapsed":196743,"internal_node_id":"0.0-11.0","task_version":"test-retest-t2"},{"Rune":"rune_05_gebo","Hex":"#3366ff99","Correct":32,"Choice":32,"RT":656.5499999560416,"Accuracy":1,"Outcome":"-1","Keys":[2162.194999982603],"TotalKeys":1,"Block":1,"Trial":8,"Robot":3,"Valence":"Lose","Action":"Go","Sham":0,"Color":"blue","trial_type":"pit-trial","trial_index":23,"time_elapsed":199912,"internal_node_id":"0.0-12.0","task_version":"test-retest-t2"},{"Rune":"rune_05_jeran","Hex":"#ffcc3399","Correct":-1,"Choice":32,"RT":1013.8949999818578,"Accuracy":0,"Outcome":"+10","Keys":[2518.834999995306],"TotalKeys":1,"Block":1,"Trial":9,"Robot":2,"Valence":"Win","Action":"No-Go","Sham":1,"Color":"yellow","trial_type":"pit-trial","trial_index":24,"time_elapsed":203435,"internal_node_id":"0.0-13.0","task_version":"test-retest-t2"},{"Rune":"rune_05_gebo","Hex":"#3366ff99","Correct":32,"Choice":32,"RT":906.0250000329688,"Accuracy":1,"Outcome":"-1","Keys":[2408.004999975674],"TotalKeys":1,"Block":1,"Trial":10,"Robot":3,"Valence":"Lose","Action":"Go","Sham":0,"Color":"blue","trial_type":"pit-trial","trial_index":25,"time_elapsed":206847,"internal_node_id":"0.0-14.0","task_version":"test-retest-t2"},{"Rune":"rune_05_tiwaz","Hex":"#3366ff99","Correct":-1,"Choice":-1,"RT":-1,"Accuracy":1,"Outcome":"-1","Keys":[],"TotalKeys":0,"Block":1,"Trial":11,"Robot":4,"Valence":"Lose","Action":"No-Go","Sham":0,"Color":"blue","trial_type":"pit-trial","trial_index":26,"time_elapsed":210856,"internal_node_id":"0.0-15.0","task_version":"test-retest-t2"},{"Rune":"rune_05_ior","Hex":"#ffcc3399","Correct":32,"Choice":32,"RT":1036.3450000295416,"Accuracy":1,"Outcome":"+10","Keys":[2537.8299999865703],"TotalKeys":1,"Block":1,"Trial":12,"Robot":1,"Valence":"Win","Action":"Go","Sham":0,"Color":"yellow","trial_type":"pit-trial","trial_index":27,"time_elapsed":214400,"internal_node_id":"0.0-16.0","task_version":"test-retest-t2"},{"Rune":"rune_05_jeran","Hex":"#ffcc3399","Correct":-1,"Choice":-1,"RT":-1,"Accuracy":1,"Outcome":"+10","Keys":[],"TotalKeys":0,"Block":1,"Trial":13,"Robot":2,"Valence":"Win","Action":"No-Go","Sham":0,"Color":"yellow","trial_type":"pit-trial","trial_index":28,"time_elapsed":218409,"internal_node_id":"0.0-17.0","task_version":"test-retest-t2"},{"Rune":"rune_05_gebo","Hex":"#3366ff99","Correct":32,"Choice":32,"RT":1018.7299999524839,"Accuracy":1,"Outcome":"-1","Keys":[2520.4050000174902],"TotalKeys":1,"Block":1,"Trial":14,"Robot":3,"Valence":"Lose","Action":"Go","Sham":0,"Color":"blue","trial_type":"pit-trial","trial_index":29,"time_elapsed":221936,"internal_node_id":"0.0-18.0","task_version":"test-retest-t2"},{"Rune":"rune_05_tiwaz","Hex":"#3366ff99","Correct":-1,"Choice":-1,"RT":-1,"Accuracy":1,"Outcome":"-1","Keys":[],"TotalKeys":0,"Block":1,"Trial":15,"Robot":4,"Valence":"Lose","Action":"No-Go","Sham":0,"Color":"blue","trial_type":"pit-trial","trial_index":30,"time_elapsed":225943,"internal_node_id":"0.0-19.0","task_version":"test-retest-t2"},{"Rune":"rune_05_ior","Hex":"#ffcc3399","Correct":32,"Choice":32,"RT":710.1399999810383,"Accuracy":1,"Outcome":"+10","Keys":[2210.780000023078],"TotalKeys":1,"Block":1,"Trial":16,"Robot":1,"Valence":"Win","Action":"Go","Sham":0,"Color":"yellow","trial_type":"pit-trial","trial_index":31,"time_elapsed":229160,"internal_node_id":"0.0-20.0","task_version":"test-retest-t2"},{"Rune":"rune_05_ior","Hex":"#ffcc3399","Correct":32,"Choice":32,"RT":1001.5049999929033,"Accuracy":1,"Outcome":"+10","Keys":[2501.9800000009127],"TotalKeys":1,"Block":1,"Trial":17,"Robot":1,"Valence":"Win","Action":"Go","Sham":0,"Color":"yellow","trial_type":"pit-trial","trial_index":32,"time_elapsed":232668,"internal_node_id":"0.0-21.0","task_version":"test-retest-t2"},{"Rune":"rune_05_jeran","Hex":"#ffcc3399","Correct":-1,"Choice":-1,"RT":-1,"Accuracy":1,"Outcome":"+10","Keys":[],"TotalKeys":0,"Block":1,"Trial":18,"Robot":2,"Valence":"Win","Action":"No-Go","Sham":0,"Color":"yellow","trial_type":"pit-trial","trial_index":33,"time_elapsed":236672,"internal_node_id":"0.0-22.0","task_version":"test-retest-t2"},{"Rune":"rune_05_gebo","Hex":"#3366ff99","Correct":32,"Choice":32,"RT":1223.0399999534711,"Accuracy":1,"Outcome":"-1","Keys":[2724.1250000079162],"TotalKeys":1,"Block":1,"Trial":19,"Robot":3,"Valence":"Lose","Action":"Go","Sham":0,"Color":"blue","trial_type":"pit-trial","trial_index":34,"time_elapsed":240400,"internal_node_id":"0.0-23.0","task_version":"test-retest-t2"},{"Rune":"rune_05_tiwaz","Hex":"#3366ff99","Correct":-1,"Choice":-1,"RT":-1,"Accuracy":1,"Outcome":"-10","Keys":[],"TotalKeys":0,"Block":1,"Trial":20,"Robot":4,"Valence":"Lose","Action":"No-Go","Sham":1,"Color":"blue","trial_type":"pit-trial","trial_index":35,"time_elapsed":244408,"internal_node_id":"0.0-24.0","task_version":"test-retest-t2"},{"Rune":"rune_05_tiwaz","Hex":"#3366ff99","Correct":-1,"Choice":-1,"RT":-1,"Accuracy":1,"Outcome":"-10","Keys":[],"TotalKeys":0,"Block":1,"Trial":21,"Robot":4,"Valence":"Lose","Action":"No-Go","Sham":1,"Color":"blue","trial_type":"pit-trial","trial_index":36,"time_elapsed":248417,"internal_node_id":"0.0-25.0","task_version":"test-retest-t2"},{"Rune":"rune_05_gebo","Hex":"#3366ff99","Correct":32,"Choice":32,"RT":1163.6750000179745,"Accuracy":1,"Outcome":"-1","Keys":[2664.3850000109524],"TotalKeys":1,"Block":1,"Trial":22,"Robot":3,"Valence":"Lose","Action":"Go","Sham":0,"Color":"blue","trial_type":"pit-trial","trial_index":37,"time_elapsed":252084,"internal_node_id":"0.0-26.0","task_version":"test-retest-t2"},{"Rune":"rune_05_ior","Hex":"#ffcc3399","Correct":32,"Choice":32,"RT":866.3500000257045,"Accuracy":1,"Outcome":"+10","Keys":[2377.184999990277],"TotalKeys":1,"Block":1,"Trial":23,"Robot":1,"Valence":"Win","Action":"Go","Sham":0,"Color":"yellow","trial_type":"pit-trial","trial_index":38,"time_elapsed":255464,"internal_node_id":"0.0-27.0","task_version":"test-retest-t2"},{"Rune":"rune_05_jeran","Hex":"#ffcc3399","Correct":-1,"Choice":-1,"RT":-1,"Accuracy":1,"Outcome":"+10","Keys":[],"TotalKeys":0,"Block":1,"Trial":24,"Robot":2,"Valence":"Win","Action":"No-Go","Sham":0,"Color":"yellow","trial_type":"pit-trial","trial_index":39,"time_elapsed":259469,"internal_node_id":"0.0-28.0","task_version":"test-retest-t2"},{"Rune":"rune_05_jeran","Hex":"#ffcc3399","Correct":-1,"Choice":-1,"RT":-1,"Accuracy":1,"Outcome":"+10","Keys":[],"TotalKeys":0,"Block":1,"Trial":25,"Robot":2,"Valence":"Win","Action":"No-Go","Sham":0,"Color":"yellow","trial_type":"pit-trial","trial_index":40,"time_elapsed":263477,"internal_node_id":"0.0-29.0","task_version":"test-retest-t2"},{"Rune":"rune_05_ior","Hex":"#ffcc3399","Correct":32,"Choice":32,"RT":816.385000012815,"Accuracy":1,"Outcome":"+10","Keys":[2316.9099999940954],"TotalKeys":1,"Block":1,"Trial":26,"Robot":1,"Valence":"Win","Action":"Go","Sham":0,"Color":"yellow","trial_type":"pit-trial","trial_index":41,"time_elapsed":266797,"internal_node_id":"0.0-30.0","task_version":"test-retest-t2"},{"Rune":"rune_05_gebo","Hex":"#3366ff99","Correct":32,"Choice":32,"RT":861.304999969434,"Accuracy":1,"Outcome":"-1","Keys":[2362.525000004098],"TotalKeys":1,"Block":1,"Trial":27,"Robot":3,"Valence":"Lose","Action":"Go","Sham":0,"Color":"blue","trial_type":"pit-trial","trial_index":42,"time_elapsed":270166,"internal_node_id":"0.0-31.0","task_version":"test-retest-t2"},{"Rune":"rune_05_tiwaz","Hex":"#3366ff99","Correct":-1,"Choice":-1,"RT":-1,"Accuracy":1,"Outcome":"-1","Keys":[],"TotalKeys":0,"Block":1,"Trial":28,"Robot":4,"Valence":"Lose","Action":"No-Go","Sham":0,"Color":"blue","trial_type":"pit-trial","trial_index":43,"time_elapsed":274173,"internal_node_id":"0.0-32.0","task_version":"test-retest-t2"},{"Rune":"rune_05_ior","Hex":"#ffcc3399","Correct":32,"Choice":32,"RT":606.4400000032037,"Accuracy":1,"Outcome":"+10","Keys":[2106.9900000002235],"TotalKeys":1,"Block":1,"Trial":29,"Robot":1,"Valence":"Win","Action":"Go","Sham":0,"Color":"yellow","trial_type":"pit-trial","trial_index":44,"time_elapsed":277286,"internal_node_id":"0.0-33.0","task_version":"test-retest-t2"},{"Rune":"rune_05_gebo","Hex":"#3366ff99","Correct":32,"Choice":32,"RT":799.799999978859,"Accuracy":1,"Outcome":"-10","Keys":[2300.425000023097],"TotalKeys":1,"Block":1,"Trial":30,"Robot":3,"Valence":"Lose","Action":"Go","Sham":1,"Color":"blue","trial_type":"pit-trial","trial_index":45,"time_elapsed":280594,"internal_node_id":"0.0-34.0","task_version":"test-retest-t2"},{"Rune":"rune_05_tiwaz","Hex":"#3366ff99","Correct":-1,"Choice":-1,"RT":-1,"Accuracy":1,"Outcome":"-1","Keys":[],"TotalKeys":0,"Block":1,"Trial":31,"Robot":4,"Valence":"Lose","Action":"No-Go","Sham":0,"Color":"blue","trial_type":"pit-trial","trial_index":46,"time_elapsed":284598,"internal_node_id":"0.0-35.0","task_version":"test-retest-t2"},{"Rune":"rune_05_jeran","Hex":"#ffcc3399","Correct":-1,"Choice":-1,"RT":-1,"Accuracy":1,"Outcome":"+10","Keys":[],"TotalKeys":0,"Block":1,"Trial":32,"Robot":2,"Valence":"Win","Action":"No-Go","Sham":0,"Color":"yellow","trial_type":"pit-trial","trial_index":47,"time_elapsed":288606,"internal_node_id":"0.0-36.0","task_version":"test-retest-t2"},{"Rune":"rune_05_jeran","Hex":"#ffcc3399","Correct":-1,"Choice":-1,"RT":-1,"Accuracy":1,"Outcome":"+1","Keys":[],"TotalKeys":0,"Block":1,"Trial":33,"Robot":2,"Valence":"Win","Action":"No-Go","Sham":1,"Color":"yellow","trial_type":"pit-trial","trial_index":48,"time_elapsed":292613,"internal_node_id":"0.0-37.0","task_version":"test-retest-t2"},{"Rune":"rune_05_gebo","Hex":"#3366ff99","Correct":32,"Choice":32,"RT":651.0250000283122,"Accuracy":1,"Outcome":"-1","Keys":[2153.5750000039116],"TotalKeys":1,"Block":1,"Trial":34,"Robot":3,"Valence":"Lose","Action":"Go","Sham":0,"Color":"blue","trial_type":"pit-trial","trial_index":49,"time_elapsed":295774,"internal_node_id":"0.0-38.0","task_version":"test-retest-t2"},{"Rune":"rune_05_tiwaz","Hex":"#3366ff99","Correct":-1,"Choice":-1,"RT":-1,"Accuracy":1,"Outcome":"-1","Keys":[],"TotalKeys":0,"Block":1,"Trial":35,"Robot":4,"Valence":"Lose","Action":"No-Go","Sham":0,"Color":"blue","trial_type":"pit-trial","trial_index":50,"time_elapsed":299782,"internal_node_id":"0.0-39.0","task_version":"test-retest-t2"},{"Rune":"rune_05_ior","Hex":"#ffcc3399","Correct":32,"Choice":32,"RT":477.23999997833744,"Accuracy":1,"Outcome":"+1","Keys":[1981.374999973923],"TotalKeys":1,"Block":1,"Trial":36,"Robot":1,"Valence":"Win","Action":"Go","Sham":1,"Color":"yellow","trial_type":"pit-trial","trial_index":51,"time_elapsed":302768,"internal_node_id":"0.0-40.0","task_version":"test-retest-t2"},{"Rune":"rune_05_ior","Hex":"#ffcc3399","Correct":32,"Choice":32,"RT":525.3050000173971,"Accuracy":1,"Outcome":"+10","Keys":[2026.1349999927916],"TotalKeys":1,"Block":1,"Trial":37,"Robot":1,"Valence":"Win","Action":"Go","Sham":0,"Color":"yellow","trial_type":"pit-trial","trial_index":52,"time_elapsed":305796,"internal_node_id":"0.0-41.0","task_version":"test-retest-t2"},{"Rune":"rune_05_jeran","Hex":"#ffcc3399","Correct":-1,"Choice":-1,"RT":-1,"Accuracy":1,"Outcome":"+10","Keys":[],"TotalKeys":0,"Block":1,"Trial":38,"Robot":2,"Valence":"Win","Action":"No-Go","Sham":0,"Color":"yellow","trial_type":"pit-trial","trial_index":53,"time_elapsed":309802,"internal_node_id":"0.0-42.0","task_version":"test-retest-t2"},{"Rune":"rune_05_gebo","Hex":"#3366ff99","Correct":32,"Choice":32,"RT":994.1399999661371,"Accuracy":1,"Outcome":"-1","Keys":[2495.9599999710917],"TotalKeys":1,"Block":1,"Trial":39,"Robot":3,"Valence":"Lose","Action":"Go","Sham":0,"Color":"blue","trial_type":"pit-trial","trial_index":54,"time_elapsed":313303,"internal_node_id":"0.0-43.0","task_version":"test-retest-t2"},{"Rune":"rune_05_tiwaz","Hex":"#3366ff99","Correct":-1,"Choice":-1,"RT":-1,"Accuracy":1,"Outcome":"-1","Keys":[],"TotalKeys":0,"Block":1,"Trial":40,"Robot":4,"Valence":"Lose","Action":"No-Go","Sham":0,"Color":"blue","trial_type":"pit-trial","trial_index":55,"time_elapsed":317312,"internal_node_id":"0.0-44.0","task_version":"test-retest-t2"},{"Rune":"rune_05_gebo","Hex":"#3366ff99","Correct":32,"Choice":32,"RT":704.3999999877997,"Accuracy":1,"Outcome":"-1","Keys":[2209.2049999628216],"TotalKeys":1,"Block":1,"Trial":41,"Robot":3,"Valence":"Lose","Action":"Go","Sham":0,"Color":"blue","trial_type":"pit-trial","trial_index":56,"time_elapsed":320526,"internal_node_id":"0.0-45.0","task_version":"test-retest-t2"},{"Rune":"rune_05_tiwaz","Hex":"#3366ff99","Correct":-1,"Choice":-1,"RT":-1,"Accuracy":1,"Outcome":"-1","Keys":[],"TotalKeys":0,"Block":1,"Trial":42,"Robot":4,"Valence":"Lose","Action":"No-Go","Sham":0,"Color":"blue","trial_type":"pit-trial","trial_index":57,"time_elapsed":324535,"internal_node_id":"0.0-46.0","task_version":"test-retest-t2"},{"Rune":"rune_05_jeran","Hex":"#ffcc3399","Correct":-1,"Choice":-1,"RT":-1,"Accuracy":1,"Outcome":"+10","Keys":[],"TotalKeys":0,"Block":1,"Trial":43,"Robot":2,"Valence":"Win","Action":"No-Go","Sham":0,"Color":"yellow","trial_type":"pit-trial","trial_index":58,"time_elapsed":328543,"internal_node_id":"0.0-47.0","task_version":"test-retest-t2"},{"Rune":"rune_05_ior","Hex":"#ffcc3399","Correct":32,"Choice":32,"RT":504.5699999900535,"Accuracy":1,"Outcome":"+10","Keys":[2008.2149999798276],"TotalKeys":1,"Block":1,"Trial":44,"Robot":1,"Valence":"Win","Action":"Go","Sham":0,"Color":"yellow","trial_type":"pit-trial","trial_index":59,"time_elapsed":331558,"internal_node_id":"0.0-48.0","task_version":"test-retest-t2"},{"Rune":"rune_05_gebo","Hex":"#3366ff99","Correct":32,"Choice":32,"RT":990.8399999840185,"Accuracy":1,"Outcome":"-1","Keys":[2492.5250000087544],"TotalKeys":1,"Block":1,"Trial":45,"Robot":3,"Valence":"Lose","Action":"Go","Sham":0,"Color":"blue","trial_type":"pit-trial","trial_index":60,"time_elapsed":335060,"internal_node_id":"0.0-49.0","task_version":"test-retest-t2"},{"Rune":"rune_05_tiwaz","Hex":"#3366ff99","Correct":-1,"Choice":-1,"RT":-1,"Accuracy":1,"Outcome":"-1","Keys":[],"TotalKeys":0,"Block":1,"Trial":46,"Robot":4,"Valence":"Lose","Action":"No-Go","Sham":0,"Color":"blue","trial_type":"pit-trial","trial_index":61,"time_elapsed":339068,"internal_node_id":"0.0-50.0","task_version":"test-retest-t2"},{"Rune":"rune_05_ior","Hex":"#ffcc3399","Correct":32,"Choice":32,"RT":609.2199999839067,"Accuracy":1,"Outcome":"+1","Keys":[2113.2549999747425],"TotalKeys":1,"Block":1,"Trial":47,"Robot":1,"Valence":"Win","Action":"Go","Sham":1,"Color":"yellow","trial_type":"pit-trial","trial_index":62,"time_elapsed":342188,"internal_node_id":"0.0-51.0","task_version":"test-retest-t2"},{"Rune":"rune_05_jeran","Hex":"#ffcc3399","Correct":-1,"Choice":-1,"RT":-1,"Accuracy":1,"Outcome":"+10","Keys":[],"TotalKeys":0,"Block":1,"Trial":48,"Robot":2,"Valence":"Win","Action":"No-Go","Sham":0,"Color":"yellow","trial_type":"pit-trial","trial_index":63,"time_elapsed":346192,"internal_node_id":"0.0-52.0","task_version":"test-retest-t2"},{"Rune":"rune_05_tiwaz","Hex":"#3366ff99","Correct":-1,"Choice":-1,"RT":-1,"Accuracy":1,"Outcome":"-10","Keys":[],"TotalKeys":0,"Block":1,"Trial":49,"Robot":4,"Valence":"Lose","Action":"No-Go","Sham":1,"Color":"blue","trial_type":"pit-trial","trial_index":64,"time_elapsed":350200,"internal_node_id":"0.0-53.0","task_version":"test-retest-t2"},{"Rune":"rune_05_ior","Hex":"#ffcc3399","Correct":32,"Choice":32,"RT":492.4750000354834,"Accuracy":1,"Outcome":"+10","Keys":[1992.6749999867752],"TotalKeys":1,"Block":1,"Trial":50,"Robot":1,"Valence":"Win","Action":"Go","Sham":0,"Color":"yellow","trial_type":"pit-trial","trial_index":65,"time_elapsed":353196,"internal_node_id":"0.0-54.0","task_version":"test-retest-t2"},{"Rune":"rune_05_jeran","Hex":"#ffcc3399","Correct":-1,"Choice":-1,"RT":-1,"Accuracy":1,"Outcome":"+1","Keys":[],"TotalKeys":0,"Block":1,"Trial":51,"Robot":2,"Valence":"Win","Action":"No-Go","Sham":1,"Color":"yellow","trial_type":"pit-trial","trial_index":66,"time_elapsed":357208,"internal_node_id":"0.0-55.0","task_version":"test-retest-t2"},{"Rune":"rune_05_gebo","Hex":"#3366ff99","Correct":32,"Choice":32,"RT":555.7900000130758,"Accuracy":1,"Outcome":"-10","Keys":[2057.039999985136],"TotalKeys":1,"Block":1,"Trial":52,"Robot":3,"Valence":"Lose","Action":"Go","Sham":1,"Color":"blue","trial_type":"pit-trial","trial_index":67,"time_elapsed":360272,"internal_node_id":"0.0-56.0","task_version":"test-retest-t2"},{"Rune":"rune_05_gebo","Hex":"#3366ff99","Correct":32,"Choice":32,"RT":1008.3899999735877,"Accuracy":1,"Outcome":"-1","Keys":[2509.3700000434183],"TotalKeys":1,"Block":1,"Trial":53,"Robot":3,"Valence":"Lose","Action":"Go","Sham":0,"Color":"blue","trial_type":"pit-trial","trial_index":68,"time_elapsed":363787,"internal_node_id":"0.0-57.0","task_version":"test-retest-t2"},{"Rune":"rune_05_jeran","Hex":"#ffcc3399","Correct":-1,"Choice":-1,"RT":-1,"Accuracy":1,"Outcome":"+10","Keys":[],"TotalKeys":0,"Block":1,"Trial":54,"Robot":2,"Valence":"Win","Action":"No-Go","Sham":0,"Color":"yellow","trial_type":"pit-trial","trial_index":69,"time_elapsed":367796,"internal_node_id":"0.0-58.0","task_version":"test-retest-t2"},{"Rune":"rune_05_ior","Hex":"#ffcc3399","Correct":32,"Choice":32,"RT":555.6550000328571,"Accuracy":1,"Outcome":"+10","Keys":[2056.024999998044],"TotalKeys":1,"Block":1,"Trial":55,"Robot":1,"Valence":"Win","Action":"Go","Sham":0,"Color":"yellow","trial_type":"pit-trial","trial_index":70,"time_elapsed":370856,"internal_node_id":"0.0-59.0","task_version":"test-retest-t2"},{"Rune":"rune_05_tiwaz","Hex":"#3366ff99","Correct":-1,"Choice":-1,"RT":-1,"Accuracy":1,"Outcome":"-1","Keys":[],"TotalKeys":0,"Block":1,"Trial":56,"Robot":4,"Valence":"Lose","Action":"No-Go","Sham":0,"Color":"blue","trial_type":"pit-trial","trial_index":71,"time_elapsed":374865,"internal_node_id":"0.0-60.0","task_version":"test-retest-t2"},{"Rune":"rune_05_ior","Hex":"#ffcc3399","Correct":32,"Choice":32,"RT":752.3250000085682,"Accuracy":1,"Outcome":"+10","Keys":[2252.8799999854527],"TotalKeys":1,"Block":1,"Trial":57,"Robot":1,"Valence":"Win","Action":"Go","Sham":0,"Color":"yellow","trial_type":"pit-trial","trial_index":72,"time_elapsed":378125,"internal_node_id":"0.0-61.0","task_version":"test-retest-t2"},{"Rune":"rune_05_gebo","Hex":"#3366ff99","Correct":32,"Choice":32,"RT":551.804999995511,"Accuracy":1,"Outcome":"-1","Keys":[2067.2900000354275],"TotalKeys":1,"Block":1,"Trial":58,"Robot":3,"Valence":"Lose","Action":"Go","Sham":0,"Color":"blue","trial_type":"pit-trial","trial_index":73,"time_elapsed":381197,"internal_node_id":"0.0-62.0","task_version":"test-retest-t2"},{"Rune":"rune_05_tiwaz","Hex":"#3366ff99","Correct":-1,"Choice":-1,"RT":-1,"Accuracy":1,"Outcome":"-1","Keys":[],"TotalKeys":0,"Block":1,"Trial":59,"Robot":4,"Valence":"Lose","Action":"No-Go","Sham":0,"Color":"blue","trial_type":"pit-trial","trial_index":74,"time_elapsed":385206,"internal_node_id":"0.0-63.0","task_version":"test-retest-t2"},{"Rune":"rune_05_jeran","Hex":"#ffcc3399","Correct":-1,"Choice":-1,"RT":-1,"Accuracy":1,"Outcome":"+10","Keys":[],"TotalKeys":0,"Block":1,"Trial":60,"Robot":2,"Valence":"Win","Action":"No-Go","Sham":0,"Color":"yellow","trial_type":"pit-trial","trial_index":75,"time_elapsed":389213,"internal_node_id":"0.0-64.0","task_version":"test-retest-t2"},{"value":false,"trial_type":"call-function","trial_index":76,"time_elapsed":389216,"internal_node_id":"0.0-65.0","task_version":"test-retest-t2"},{"view_history":"[{\"page_index\":0,\"viewing_time\":2794.1399999544956},{\"page_index\":1,\"viewing_time\":1385.2050000568852}]","rt":4180.334999982733,"trial_type":"pit-instructions","trial_index":77,"time_elapsed":393398,"internal_node_id":"0.0-66.0","task_version":"test-retest-t2"},{"Rune":"rune_05_ior","Hex":"#ffcc3399","Correct":32,"Choice":32,"RT":650.5250000045635,"Accuracy":1,"Outcome":"+1","Keys":[2150.6000000517815],"TotalKeys":1,"Block":1,"Trial":61,"Robot":1,"Valence":"Win","Action":"Go","Sham":1,"Color":"yellow","trial_type":"pit-trial","trial_index":78,"time_elapsed":396554,"internal_node_id":"0.0-67.0","task_version":"test-retest-t2"},{"Rune":"rune_05_tiwaz","Hex":"#3366ff99","Correct":-1,"Choice":-1,"RT":-1,"Accuracy":1,"Outcome":"-1","Keys":[],"TotalKeys":0,"Block":1,"Trial":62,"Robot":4,"Valence":"Lose","Action":"No-Go","Sham":0,"Color":"blue","trial_type":"pit-trial","trial_index":79,"time_elapsed":400561,"internal_node_id":"0.0-68.0","task_version":"test-retest-t2"},{"Rune":"rune_05_jeran","Hex":"#ffcc3399","Correct":-1,"Choice":-1,"RT":-1,"Accuracy":1,"Outcome":"+10","Keys":[],"TotalKeys":0,"Block":1,"Trial":63,"Robot":2,"Valence":"Win","Action":"No-Go","Sham":0,"Color":"yellow","trial_type":"pit-trial","trial_index":80,"time_elapsed":404569,"internal_node_id":"0.0-69.0","task_version":"test-retest-t2"},{"Rune":"rune_05_gebo","Hex":"#3366ff99","Correct":32,"Choice":32,"RT":806.4250000170432,"Accuracy":1,"Outcome":"-1","Keys":[2309.735000017099],"TotalKeys":1,"Block":1,"Trial":64,"Robot":3,"Valence":"Lose","Action":"Go","Sham":0,"Color":"blue","trial_type":"pit-trial","trial_index":81,"time_elapsed":407885,"internal_node_id":"0.0-70.0","task_version":"test-retest-t2"},{"Rune":"rune_05_gebo","Hex":"#3366ff99","Correct":32,"Choice":32,"RT":720.7199999829754,"Accuracy":1,"Outcome":"-1","Keys":[2223.4300000127405],"TotalKeys":1,"Block":1,"Trial":65,"Robot":3,"Valence":"Lose","Action":"Go","Sham":0,"Color":"blue","trial_type":"pit-trial","trial_index":82,"time_elapsed":411113,"internal_node_id":"0.0-71.0","task_version":"test-retest-t2"},{"Rune":"rune_05_jeran","Hex":"#ffcc3399","Correct":-1,"Choice":-1,"RT":-1,"Accuracy":1,"Outcome":"+10","Keys":[],"TotalKeys":0,"Block":1,"Trial":66,"Robot":2,"Valence":"Win","Action":"No-Go","Sham":0,"Color":"yellow","trial_type":"pit-trial","trial_index":83,"time_elapsed":415121,"internal_node_id":"0.0-72.0","task_version":"test-retest-t2"},{"Rune":"rune_05_tiwaz","Hex":"#3366ff99","Correct":-1,"Choice":-1,"RT":-1,"Accuracy":1,"Outcome":"-1","Keys":[],"TotalKeys":0,"Block":1,"Trial":67,"Robot":4,"Valence":"Lose","Action":"No-Go","Sham":0,"Color":"blue","trial_type":"pit-trial","trial_index":84,"time_elapsed":419130,"internal_node_id":"0.0-73.0","task_version":"test-retest-t2"},{"Rune":"rune_05_ior","Hex":"#ffcc3399","Correct":32,"Choice":32,"RT":644.2849999875762,"Accuracy":1,"Outcome":"+10","Keys":[2144.8350000428036],"TotalKeys":1,"Block":1,"Trial":68,"Robot":1,"Valence":"Win","Action":"Go","Sham":0,"Color":"yellow","trial_type":"pit-trial","trial_index":85,"time_elapsed":422281,"internal_node_id":"0.0-74.0","task_version":"test-retest-t2"},{"Rune":"rune_05_jeran","Hex":"#ffcc3399","Correct":-1,"Choice":-1,"RT":-1,"Accuracy":1,"Outcome":"+1","Keys":[],"TotalKeys":0,"Block":1,"Trial":69,"Robot":2,"Valence":"Win","Action":"No-Go","Sham":1,"Color":"yellow","trial_type":"pit-trial","trial_index":86,"time_elapsed":426290,"internal_node_id":"0.0-75.0","task_version":"test-retest-t2"},{"Rune":"rune_05_tiwaz","Hex":"#3366ff99","Correct":-1,"Choice":-1,"RT":-1,"Accuracy":1,"Outcome":"-1","Keys":[],"TotalKeys":0,"Block":1,"Trial":70,"Robot":4,"Valence":"Lose","Action":"No-Go","Sham":0,"Color":"blue","trial_type":"pit-trial","trial_index":87,"time_elapsed":430299,"internal_node_id":"0.0-76.0","task_version":"test-retest-t2"},{"Rune":"rune_05_ior","Hex":"#ffcc3399","Correct":32,"Choice":32,"RT":608.9450000436045,"Accuracy":1,"Outcome":"+10","Keys":[2113.409999990836],"TotalKeys":1,"Block":1,"Trial":71,"Robot":1,"Valence":"Win","Action":"Go","Sham":0,"Color":"yellow","trial_type":"pit-trial","trial_index":88,"time_elapsed":433418,"internal_node_id":"0.0-77.0","task_version":"test-retest-t2"},{"Rune":"rune_05_gebo","Hex":"#3366ff99","Correct":32,"Choice":32,"RT":776.0049999924377,"Accuracy":1,"Outcome":"-1","Keys":[2276.509999996051],"TotalKeys":1,"Block":1,"Trial":72,"Robot":3,"Valence":"Lose","Action":"Go","Sham":0,"Color":"blue","trial_type":"pit-trial","trial_index":89,"time_elapsed":436698,"internal_node_id":"0.0-78.0","task_version":"test-retest-t2"},{"Rune":"rune_05_ior","Hex":"#ffcc3399","Correct":32,"Choice":32,"RT":621.675000002142,"Accuracy":1,"Outcome":"+10","Keys":[2122.0650000032037],"TotalKeys":1,"Block":1,"Trial":73,"Robot":1,"Valence":"Win","Action":"Go","Sham":0,"Color":"yellow","trial_type":"pit-trial","trial_index":90,"time_elapsed":439828,"internal_node_id":"0.0-79.0","task_version":"test-retest-t2"},{"Rune":"rune_05_gebo","Hex":"#3366ff99","Correct":32,"Choice":32,"RT":878.145000024233,"Accuracy":1,"Outcome":"-1","Keys":[2378.6650000256486],"TotalKeys":1,"Block":1,"Trial":74,"Robot":3,"Valence":"Lose","Action":"Go","Sham":0,"Color":"blue","trial_type":"pit-trial","trial_index":91,"time_elapsed":443214,"internal_node_id":"0.0-80.0","task_version":"test-retest-t2"},{"Rune":"rune_05_tiwaz","Hex":"#3366ff99","Correct":-1,"Choice":-1,"RT":-1,"Accuracy":1,"Outcome":"-1","Keys":[],"TotalKeys":0,"Block":1,"Trial":75,"Robot":4,"Valence":"Lose","Action":"No-Go","Sham":0,"Color":"blue","trial_type":"pit-trial","trial_index":92,"time_elapsed":447222,"internal_node_id":"0.0-81.0","task_version":"test-retest-t2"},{"Rune":"rune_05_jeran","Hex":"#ffcc3399","Correct":-1,"Choice":-1,"RT":-1,"Accuracy":1,"Outcome":"+10","Keys":[],"TotalKeys":0,"Block":1,"Trial":76,"Robot":2,"Valence":"Win","Action":"No-Go","Sham":0,"Color":"yellow","trial_type":"pit-trial","trial_index":93,"time_elapsed":451230,"internal_node_id":"0.0-82.0","task_version":"test-retest-t2"},{"Rune":"rune_05_jeran","Hex":"#ffcc3399","Correct":-1,"Choice":-1,"RT":-1,"Accuracy":1,"Outcome":"+10","Keys":[],"TotalKeys":0,"Block":1,"Trial":77,"Robot":2,"Valence":"Win","Action":"No-Go","Sham":0,"Color":"yellow","trial_type":"pit-trial","trial_index":94,"time_elapsed":455235,"internal_node_id":"0.0-83.0","task_version":"test-retest-t2"},{"Rune":"rune_05_gebo","Hex":"#3366ff99","Correct":32,"Choice":32,"RT":573.4649999649264,"Accuracy":1,"Outcome":"-10","Keys":[2074.030000017956],"TotalKeys":1,"Block":1,"Trial":78,"Robot":3,"Valence":"Lose","Action":"Go","Sham":1,"Color":"blue","trial_type":"pit-trial","trial_index":95,"time_elapsed":458314,"internal_node_id":"0.0-84.0","task_version":"test-retest-t2"},{"Rune":"rune_05_ior","Hex":"#ffcc3399","Correct":32,"Choice":32,"RT":630.7900000247173,"Accuracy":1,"Outcome":"+10","Keys":[2132.030000037048],"TotalKeys":1,"Block":1,"Trial":79,"Robot":1,"Valence":"Win","Action":"Go","Sham":0,"Color":"yellow","trial_type":"pit-trial","trial_index":96,"time_elapsed":461450,"internal_node_id":"0.0-85.0","task_version":"test-retest-t2"},{"Rune":"rune_05_tiwaz","Hex":"#3366ff99","Correct":-1,"Choice":-1,"RT":-1,"Accuracy":1,"Outcome":"-10","Keys":[],"TotalKeys":0,"Block":1,"Trial":80,"Robot":4,"Valence":"Lose","Action":"No-Go","Sham":1,"Color":"blue","trial_type":"pit-trial","trial_index":97,"time_elapsed":465459,"internal_node_id":"0.0-86.0","task_version":"test-retest-t2"},{"Rune":"rune_05_gebo","Hex":"#3366ff99","Correct":32,"Choice":32,"RT":694.469999987632,"Accuracy":1,"Outcome":"-1","Keys":[2195.0200000428595],"TotalKeys":1,"Block":1,"Trial":81,"Robot":3,"Valence":"Lose","Action":"Go","Sham":0,"Color":"blue","trial_type":"pit-trial","trial_index":98,"time_elapsed":468659,"internal_node_id":"0.0-87.0","task_version":"test-retest-t2"},{"Rune":"rune_05_ior","Hex":"#ffcc3399","Correct":32,"Choice":32,"RT":437.66499997582287,"Accuracy":1,"Outcome":"+10","Keys":[1939.989999984391],"TotalKeys":1,"Block":1,"Trial":82,"Robot":1,"Valence":"Win","Action":"Go","Sham":0,"Color":"yellow","trial_type":"pit-trial","trial_index":99,"time_elapsed":471603,"internal_node_id":"0.0-88.0","task_version":"test-retest-t2"},{"Rune":"rune_05_jeran","Hex":"#ffcc3399","Correct":-1,"Choice":-1,"RT":-1,"Accuracy":1,"Outcome":"+10","Keys":[],"TotalKeys":0,"Block":1,"Trial":83,"Robot":2,"Valence":"Win","Action":"No-Go","Sham":0,"Color":"yellow","trial_type":"pit-trial","trial_index":100,"time_elapsed":475611,"internal_node_id":"0.0-89.0","task_version":"test-retest-t2"},{"Rune":"rune_05_tiwaz","Hex":"#3366ff99","Correct":-1,"Choice":-1,"RT":-1,"Accuracy":1,"Outcome":"-1","Keys":[],"TotalKeys":0,"Block":1,"Trial":84,"Robot":4,"Valence":"Lose","Action":"No-Go","Sham":0,"Color":"blue","trial_type":"pit-trial","trial_index":101,"time_elapsed":479620,"internal_node_id":"0.0-90.0","task_version":"test-retest-t2"},{"Rune":"rune_05_ior","Hex":"#ffcc3399","Correct":32,"Choice":32,"RT":565.39000000339,"Accuracy":1,"Outcome":"+10","Keys":[2067.860000010114],"TotalKeys":1,"Block":1,"Trial":85,"Robot":1,"Valence":"Win","Action":"Go","Sham":0,"Color":"yellow","trial_type":"pit-trial","trial_index":102,"time_elapsed":482691,"internal_node_id":"0.0-91.0","task_version":"test-retest-t2"},{"Rune":"rune_05_tiwaz","Hex":"#3366ff99","Correct":-1,"Choice":-1,"RT":-1,"Accuracy":1,"Outcome":"-1","Keys":[],"TotalKeys":0,"Block":1,"Trial":86,"Robot":4,"Valence":"Lose","Action":"No-Go","Sham":0,"Color":"blue","trial_type":"pit-trial","trial_index":103,"time_elapsed":486696,"internal_node_id":"0.0-92.0","task_version":"test-retest-t2"},{"Rune":"rune_05_jeran","Hex":"#ffcc3399","Correct":-1,"Choice":-1,"RT":-1,"Accuracy":1,"Outcome":"+10","Keys":[],"TotalKeys":0,"Block":1,"Trial":87,"Robot":2,"Valence":"Win","Action":"No-Go","Sham":0,"Color":"yellow","trial_type":"pit-trial","trial_index":104,"time_elapsed":490705,"internal_node_id":"0.0-93.0","task_version":"test-retest-t2"},{"Rune":"rune_05_gebo","Hex":"#3366ff99","Correct":32,"Choice":32,"RT":620.1500000315718,"Accuracy":1,"Outcome":"-1","Keys":[2122.6599999936298],"TotalKeys":1,"Block":1,"Trial":88,"Robot":3,"Valence":"Lose","Action":"Go","Sham":0,"Color":"blue","trial_type":"pit-trial","trial_index":105,"time_elapsed":493832,"internal_node_id":"0.0-94.0","task_version":"test-retest-t2"},{"Rune":"rune_05_ior","Hex":"#ffcc3399","Correct":32,"Choice":32,"RT":592.3249999759719,"Accuracy":1,"Outcome":"+1","Keys":[2094.775000005029],"TotalKeys":1,"Block":1,"Trial":89,"Robot":1,"Valence":"Win","Action":"Go","Sham":1,"Color":"yellow","trial_type":"pit-trial","trial_index":106,"time_elapsed":496932,"internal_node_id":"0.0-95.0","task_version":"test-retest-t2"},{"Rune":"rune_05_jeran","Hex":"#ffcc3399","Correct":-1,"Choice":-1,"RT":-1,"Accuracy":1,"Outcome":"+10","Keys":[],"TotalKeys":0,"Block":1,"Trial":90,"Robot":2,"Valence":"Win","Action":"No-Go","Sham":0,"Color":"yellow","trial_type":"pit-trial","trial_index":107,"time_elapsed":500940,"internal_node_id":"0.0-96.0","task_version":"test-retest-t2"},{"Rune":"rune_05_tiwaz","Hex":"#3366ff99","Correct":-1,"Choice":-1,"RT":-1,"Accuracy":1,"Outcome":"-1","Keys":[],"TotalKeys":0,"Block":1,"Trial":91,"Robot":4,"Valence":"Lose","Action":"No-Go","Sham":0,"Color":"blue","trial_type":"pit-trial","trial_index":108,"time_elapsed":504948,"internal_node_id":"0.0-97.0","task_version":"test-retest-t2"},{"Rune":"rune_05_gebo","Hex":"#3366ff99","Correct":32,"Choice":32,"RT":623.4749999712221,"Accuracy":1,"Outcome":"-1","Keys":[2123.7850000034086],"TotalKeys":1,"Block":1,"Trial":92,"Robot":3,"Valence":"Lose","Action":"Go","Sham":0,"Color":"blue","trial_type":"pit-trial","trial_index":109,"time_elapsed":508076,"internal_node_id":"0.0-98.0","task_version":"test-retest-t2"},{"Rune":"rune_05_tiwaz","Hex":"#3366ff99","Correct":-1,"Choice":-1,"RT":-1,"Accuracy":1,"Outcome":"-1","Keys":[],"TotalKeys":0,"Block":1,"Trial":93,"Robot":4,"Valence":"Lose","Action":"No-Go","Sham":0,"Color":"blue","trial_type":"pit-trial","trial_index":110,"time_elapsed":512084,"internal_node_id":"0.0-99.0","task_version":"test-retest-t2"},{"Rune":"rune_05_jeran","Hex":"#ffcc3399","Correct":-1,"Choice":-1,"RT":-1,"Accuracy":1,"Outcome":"+10","Keys":[],"TotalKeys":0,"Block":1,"Trial":94,"Robot":2,"Valence":"Win","Action":"No-Go","Sham":0,"Color":"yellow","trial_type":"pit-trial","trial_index":111,"time_elapsed":516093,"internal_node_id":"0.0-100.0","task_version":"test-retest-t2"},{"Rune":"rune_05_ior","Hex":"#ffcc3399","Correct":32,"Choice":32,"RT":524.3200000259094,"Accuracy":1,"Outcome":"+10","Keys":[2024.9550000298768],"TotalKeys":1,"Block":1,"Trial":95,"Robot":1,"Valence":"Win","Action":"Go","Sham":0,"Color":"yellow","trial_type":"pit-trial","trial_index":112,"time_elapsed":519128,"internal_node_id":"0.0-101.0","task_version":"test-retest-t2"},{"Rune":"rune_05_gebo","Hex":"#3366ff99","Correct":32,"Choice":32,"RT":843.6450000153854,"Accuracy":1,"Outcome":"-1","Keys":[2344.3850000039674],"TotalKeys":1,"Block":1,"Trial":96,"Robot":3,"Valence":"Lose","Action":"Go","Sham":0,"Color":"blue","trial_type":"pit-trial","trial_index":113,"time_elapsed":522477,"internal_node_id":"0.0-102.0","task_version":"test-retest-t2"},{"Rune":"rune_05_jeran","Hex":"#ffcc3399","Correct":-1,"Choice":-1,"RT":-1,"Accuracy":1,"Outcome":"+1","Keys":[],"TotalKeys":0,"Block":1,"Trial":97,"Robot":2,"Valence":"Win","Action":"No-Go","Sham":1,"Color":"yellow","trial_type":"pit-trial","trial_index":114,"time_elapsed":526485,"internal_node_id":"0.0-103.0","task_version":"test-retest-t2"},{"Rune":"rune_05_gebo","Hex":"#3366ff99","Correct":32,"Choice":32,"RT":622.4849999998696,"Accuracy":1,"Outcome":"-10","Keys":[2127.314999990631],"TotalKeys":1,"Block":1,"Trial":98,"Robot":3,"Valence":"Lose","Action":"Go","Sham":1,"Color":"blue","trial_type":"pit-trial","trial_index":115,"time_elapsed":529617,"internal_node_id":"0.0-104.0","task_version":"test-retest-t2"},{"Rune":"rune_05_ior","Hex":"#ffcc3399","Correct":32,"Choice":32,"RT":834.0600000228733,"Accuracy":1,"Outcome":"+10","Keys":[2336.6400000522844],"TotalKeys":1,"Block":1,"Trial":99,"Robot":1,"Valence":"Win","Action":"Go","Sham":0,"Color":"yellow","trial_type":"pit-trial","trial_index":116,"time_elapsed":532958,"internal_node_id":"0.0-105.0","task_version":"test-retest-t2"},{"Rune":"rune_05_tiwaz","Hex":"#3366ff99","Correct":-1,"Choice":-1,"RT":-1,"Accuracy":1,"Outcome":"-10","Keys":[],"TotalKeys":0,"Block":1,"Trial":100,"Robot":4,"Valence":"Lose","Action":"No-Go","Sham":1,"Color":"blue","trial_type":"pit-trial","trial_index":117,"time_elapsed":536965,"internal_node_id":"0.0-106.0","task_version":"test-retest-t2"},{"Rune":"rune_05_ior","Hex":"#ffcc3399","Correct":32,"Choice":32,"RT":547.8200000361539,"Accuracy":1,"Outcome":"+10","Keys":[2049.8749999678694],"TotalKeys":1,"Block":1,"Trial":101,"Robot":1,"Valence":"Win","Action":"Go","Sham":0,"Color":"yellow","trial_type":"pit-trial","trial_index":118,"time_elapsed":540021,"internal_node_id":"0.0-107.0","task_version":"test-retest-t2"},{"Rune":"rune_05_tiwaz","Hex":"#3366ff99","Correct":-1,"Choice":-1,"RT":-1,"Accuracy":1,"Outcome":"-1","Keys":[],"TotalKeys":0,"Block":1,"Trial":102,"Robot":4,"Valence":"Lose","Action":"No-Go","Sham":0,"Color":"blue","trial_type":"pit-trial","trial_index":119,"time_elapsed":544030,"internal_node_id":"0.0-108.0","task_version":"test-retest-t2"},{"Rune":"rune_05_jeran","Hex":"#ffcc3399","Correct":-1,"Choice":-1,"RT":-1,"Accuracy":1,"Outcome":"+10","Keys":[],"TotalKeys":0,"Block":1,"Trial":103,"Robot":2,"Valence":"Win","Action":"No-Go","Sham":0,"Color":"yellow","trial_type":"pit-trial","trial_index":120,"time_elapsed":548038,"internal_node_id":"0.0-109.0","task_version":"test-retest-t2"},{"Rune":"rune_05_gebo","Hex":"#3366ff99","Correct":32,"Choice":32,"RT":664.699999964796,"Accuracy":1,"Outcome":"-10","Keys":[2166.6149999946356],"TotalKeys":1,"Block":1,"Trial":104,"Robot":3,"Valence":"Lose","Action":"Go","Sham":1,"Color":"blue","trial_type":"pit-trial","trial_index":121,"time_elapsed":551209,"internal_node_id":"0.0-110.0","task_version":"test-retest-t2"},{"Rune":"rune_05_ior","Hex":"#ffcc3399","Correct":32,"Choice":32,"RT":770.9449999965727,"Accuracy":1,"Outcome":"+10","Keys":[2271.9649999635294],"TotalKeys":1,"Block":1,"Trial":105,"Robot":1,"Valence":"Win","Action":"Go","Sham":0,"Color":"yellow","trial_type":"pit-trial","trial_index":122,"time_elapsed":554486,"internal_node_id":"0.0-111.0","task_version":"test-retest-t2"},{"Rune":"rune_05_jeran","Hex":"#ffcc3399","Correct":-1,"Choice":-1,"RT":-1,"Accuracy":1,"Outcome":"+10","Keys":[],"TotalKeys":0,"Block":1,"Trial":106,"Robot":2,"Valence":"Win","Action":"No-Go","Sham":0,"Color":"yellow","trial_type":"pit-trial","trial_index":123,"time_elapsed":558493,"internal_node_id":"0.0-112.0","task_version":"test-retest-t2"},{"Rune":"rune_05_gebo","Hex":"#3366ff99","Correct":32,"Choice":32,"RT":979.5699999667704,"Accuracy":1,"Outcome":"-1","Keys":[2482.3550000437535],"TotalKeys":1,"Block":1,"Trial":107,"Robot":3,"Valence":"Lose","Action":"Go","Sham":0,"Color":"blue","trial_type":"pit-trial","trial_index":124,"time_elapsed":561981,"internal_node_id":"0.0-113.0","task_version":"test-retest-t2"},{"Rune":"rune_05_tiwaz","Hex":"#3366ff99","Correct":-1,"Choice":-1,"RT":-1,"Accuracy":1,"Outcome":"-10","Keys":[],"TotalKeys":0,"Block":1,"Trial":108,"Robot":4,"Valence":"Lose","Action":"No-Go","Sham":1,"Color":"blue","trial_type":"pit-trial","trial_index":125,"time_elapsed":565990,"internal_node_id":"0.0-114.0","task_version":"test-retest-t2"},{"Rune":"rune_05_gebo","Hex":"#3366ff99","Correct":32,"Choice":32,"RT":1034.58999999566,"Accuracy":1,"Outcome":"-1","Keys":[2534.894999989774],"TotalKeys":1,"Block":1,"Trial":109,"Robot":3,"Valence":"Lose","Action":"Go","Sham":0,"Color":"blue","trial_type":"pit-trial","trial_index":126,"time_elapsed":569531,"internal_node_id":"0.0-115.0","task_version":"test-retest-t2"},{"Rune":"rune_05_tiwaz","Hex":"#3366ff99","Correct":-1,"Choice":-1,"RT":-1,"Accuracy":1,"Outcome":"-1","Keys":[],"TotalKeys":0,"Block":1,"Trial":110,"Robot":4,"Valence":"Lose","Action":"No-Go","Sham":0,"Color":"blue","trial_type":"pit-trial","trial_index":127,"time_elapsed":573537,"internal_node_id":"0.0-116.0","task_version":"test-retest-t2"},{"Rune":"rune_05_jeran","Hex":"#ffcc3399","Correct":-1,"Choice":-1,"RT":-1,"Accuracy":1,"Outcome":"+1","Keys":[],"TotalKeys":0,"Block":1,"Trial":111,"Robot":2,"Valence":"Win","Action":"No-Go","Sham":1,"Color":"yellow","trial_type":"pit-trial","trial_index":128,"time_elapsed":577543,"internal_node_id":"0.0-117.0","task_version":"test-retest-t2"},{"Rune":"rune_05_ior","Hex":"#ffcc3399","Correct":32,"Choice":32,"RT":442.1999999904074,"Accuracy":1,"Outcome":"+10","Keys":[1943.9399999682792],"TotalKeys":1,"Block":1,"Trial":112,"Robot":1,"Valence":"Win","Action":"Go","Sham":0,"Color":"yellow","trial_type":"pit-trial","trial_index":129,"time_elapsed":580491,"internal_node_id":"0.0-118.0","task_version":"test-retest-t2"},{"Rune":"rune_05_jeran","Hex":"#ffcc3399","Correct":-1,"Choice":-1,"RT":-1,"Accuracy":1,"Outcome":"+10","Keys":[],"TotalKeys":0,"Block":1,"Trial":113,"Robot":2,"Valence":"Win","Action":"No-Go","Sham":0,"Color":"yellow","trial_type":"pit-trial","trial_index":130,"time_elapsed":584498,"internal_node_id":"0.0-119.0","task_version":"test-retest-t2"},{"Rune":"rune_05_ior","Hex":"#ffcc3399","Correct":32,"Choice":32,"RT":495.2149999444373,"Accuracy":1,"Outcome":"+1","Keys":[1995.1400000136346],"TotalKeys":1,"Block":1,"Trial":114,"Robot":1,"Valence":"Win","Action":"Go","Sham":1,"Color":"yellow","trial_type":"pit-trial","trial_index":131,"time_elapsed":587499,"internal_node_id":"0.0-120.0","task_version":"test-retest-t2"},{"Rune":"rune_05_gebo","Hex":"#3366ff99","Correct":32,"Choice":32,"RT":712.085000006482,"Accuracy":1,"Outcome":"-1","Keys":[2212.390000000596],"TotalKeys":1,"Block":1,"Trial":115,"Robot":3,"Valence":"Lose","Action":"Go","Sham":0,"Color":"blue","trial_type":"pit-trial","trial_index":132,"time_elapsed":590715,"internal_node_id":"0.0-121.0","task_version":"test-retest-t2"},{"Rune":"rune_05_tiwaz","Hex":"#3366ff99","Correct":-1,"Choice":-1,"RT":-1,"Accuracy":1,"Outcome":"-1","Keys":[],"TotalKeys":0,"Block":1,"Trial":116,"Robot":4,"Valence":"Lose","Action":"No-Go","Sham":0,"Color":"blue","trial_type":"pit-trial","trial_index":133,"time_elapsed":594724,"internal_node_id":"0.0-122.0","task_version":"test-retest-t2"},{"Rune":"rune_05_gebo","Hex":"#3366ff99","Correct":32,"Choice":32,"RT":559.3949999893084,"Accuracy":1,"Outcome":"-1","Keys":[2064.1149999573827],"TotalKeys":1,"Block":1,"Trial":117,"Robot":3,"Valence":"Lose","Action":"Go","Sham":0,"Color":"blue","trial_type":"pit-trial","trial_index":134,"time_elapsed":597795,"internal_node_id":"0.0-123.0","task_version":"test-retest-t2"},{"Rune":"rune_05_tiwaz","Hex":"#3366ff99","Correct":-1,"Choice":-1,"RT":-1,"Accuracy":1,"Outcome":"-1","Keys":[],"TotalKeys":0,"Block":1,"Trial":118,"Robot":4,"Valence":"Lose","Action":"No-Go","Sham":0,"Color":"blue","trial_type":"pit-trial","trial_index":135,"time_elapsed":601800,"internal_node_id":"0.0-124.0","task_version":"test-retest-t2"},{"Rune":"rune_05_jeran","Hex":"#ffcc3399","Correct":-1,"Choice":-1,"RT":-1,"Accuracy":1,"Outcome":"+10","Keys":[],"TotalKeys":0,"Block":1,"Trial":119,"Robot":2,"Valence":"Win","Action":"No-Go","Sham":0,"Color":"yellow","trial_type":"pit-trial","trial_index":136,"time_elapsed":605803,"internal_node_id":"0.0-125.0","task_version":"test-retest-t2"},{"Rune":"rune_05_ior","Hex":"#ffcc3399","Correct":32,"Choice":32,"RT":463.49500003270805,"Accuracy":1,"Outcome":"+10","Keys":[1965.2799999457784],"TotalKeys":1,"Block":1,"Trial":120,"Robot":1,"Valence":"Win","Action":"Go","Sham":0,"Color":"yellow","trial_type":"pit-trial","trial_index":137,"time_elapsed":608771,"internal_node_id":"0.0-126.0","task_version":"test-retest-t2"},{"view_history":"[{\"page_index\":0,\"viewing_time\":3591.8900000397116},{\"page_index\":1,\"viewing_time\":8547.739999950863},{\"page_index\":2,\"viewing_time\":10010.93500002753}]","rt":22150.98500001477,"trial_type":"pit-instructions","trial_index":138,"time_elapsed":630925,"internal_node_id":"0.0-127.0","task_version":"test-retest-t2"},{"Rune":"rune_06_berkanan","Hex":"#ffcc3399","Correct":-1,"Choice":32,"RT":1381.9849999854341,"Accuracy":0,"Outcome":"+1","Keys":[2884.9199999822304],"TotalKeys":1,"Block":2,"Trial":121,"Robot":2,"Valence":"Win","Action":"No-Go","Sham":0,"Color":"yellow","trial_type":"pit-trial","trial_index":139,"time_elapsed":634816,"internal_node_id":"0.0-128.0","task_version":"test-retest-t2"},{"Rune":"rune_06_ansuz","Hex":"#ffcc3399","Correct":32,"Choice":-1,"RT":-1,"Accuracy":0,"Outcome":"+1","Keys":[3108.37500001071],"TotalKeys":1,"Block":2,"Trial":122,"Robot":1,"Valence":"Win","Action":"Go","Sham":0,"Color":"yellow","trial_type":"pit-trial","trial_index":140,"time_elapsed":638820,"internal_node_id":"0.0-129.0","task_version":"test-retest-t2"},{"Rune":"rune_06_cweord","Hex":"#3366ff99","Correct":32,"Choice":-1,"RT":-1,"Accuracy":0,"Outcome":"-1","Keys":[],"TotalKeys":0,"Block":2,"Trial":123,"Robot":3,"Valence":"Lose","Action":"Go","Sham":1,"Color":"blue","trial_type":"pit-trial","trial_index":141,"time_elapsed":642824,"internal_node_id":"0.0-130.0","task_version":"test-retest-t2"},{"Rune":"rune_06_ehwaz","Hex":"#3366ff99","Correct":-1,"Choice":32,"RT":868.9250000170432,"Accuracy":0,"Outcome":"-10","Keys":[2370.259999996051],"TotalKeys":1,"Block":2,"Trial":124,"Robot":4,"Valence":"Lose","Action":"No-Go","Sham":0,"Color":"blue","trial_type":"pit-trial","trial_index":142,"time_elapsed":646201,"internal_node_id":"0.0-131.0","task_version":"test-retest-t2"},{"Rune":"rune_06_berkanan","Hex":"#ffcc3399","Correct":-1,"Choice":-1,"RT":-1,"Accuracy":1,"Outcome":"+10","Keys":[],"TotalKeys":0,"Block":2,"Trial":125,"Robot":2,"Valence":"Win","Action":"No-Go","Sham":0,"Color":"yellow","trial_type":"pit-trial","trial_index":143,"time_elapsed":650213,"internal_node_id":"0.0-132.0","task_version":"test-retest-t2"},{"Rune":"rune_06_cweord","Hex":"#3366ff99","Correct":32,"Choice":-1,"RT":-1,"Accuracy":0,"Outcome":"-10","Keys":[],"TotalKeys":0,"Block":2,"Trial":126,"Robot":3,"Valence":"Lose","Action":"Go","Sham":0,"Color":"blue","trial_type":"pit-trial","trial_index":144,"time_elapsed":654221,"internal_node_id":"0.0-133.0","task_version":"test-retest-t2"},{"Rune":"rune_06_ansuz","Hex":"#ffcc3399","Correct":32,"Choice":32,"RT":1013.1050000200048,"Accuracy":1,"Outcome":"+1","Keys":[2518.060000031255],"TotalKeys":1,"Block":2,"Trial":127,"Robot":1,"Valence":"Win","Action":"Go","Sham":1,"Color":"yellow","trial_type":"pit-trial","trial_index":145,"time_elapsed":657741,"internal_node_id":"0.0-134.0","task_version":"test-retest-t2"},{"Rune":"rune_06_ehwaz","Hex":"#3366ff99","Correct":-1,"Choice":32,"RT":834.8049999913201,"Accuracy":0,"Outcome":"-10","Keys":[2338.705000001937],"TotalKeys":1,"Block":2,"Trial":128,"Robot":4,"Valence":"Lose","Action":"No-Go","Sham":0,"Color":"blue","trial_type":"pit-trial","trial_index":146,"time_elapsed":661095,"internal_node_id":"0.0-135.0","task_version":"test-retest-t2"},{"Rune":"rune_06_berkanan","Hex":"#ffcc3399","Correct":-1,"Choice":-1,"RT":-1,"Accuracy":1,"Outcome":"+1","Keys":[],"TotalKeys":0,"Block":2,"Trial":129,"Robot":2,"Valence":"Win","Action":"No-Go","Sham":1,"Color":"yellow","trial_type":"pit-trial","trial_index":147,"time_elapsed":665105,"internal_node_id":"0.0-136.0","task_version":"test-retest-t2"},{"Rune":"rune_06_ehwaz","Hex":"#3366ff99","Correct":-1,"Choice":32,"RT":1007.7400000300258,"Accuracy":0,"Outcome":"-10","Keys":[2509.2750000185333],"TotalKeys":1,"Block":2,"Trial":130,"Robot":4,"Valence":"Lose","Action":"No-Go","Sham":0,"Color":"blue","trial_type":"pit-trial","trial_index":148,"time_elapsed":668622,"internal_node_id":"0.0-137.0","task_version":"test-retest-t2"},{"Rune":"rune_06_cweord","Hex":"#3366ff99","Correct":32,"Choice":-1,"RT":-1,"Accuracy":0,"Outcome":"-10","Keys":[],"TotalKeys":0,"Block":2,"Trial":131,"Robot":3,"Valence":"Lose","Action":"Go","Sham":0,"Color":"blue","trial_type":"pit-trial","trial_index":149,"time_elapsed":672629,"internal_node_id":"0.0-138.0","task_version":"test-retest-t2"},{"Rune":"rune_06_ansuz","Hex":"#ffcc3399","Correct":32,"Choice":32,"RT":884.3749999650754,"Accuracy":1,"Outcome":"+10","Keys":[2386.0350000322796],"TotalKeys":1,"Block":2,"Trial":132,"Robot":1,"Valence":"Win","Action":"Go","Sham":0,"Color":"yellow","trial_type":"pit-trial","trial_index":150,"time_elapsed":676021,"internal_node_id":"0.0-139.0","task_version":"test-retest-t2"},{"Rune":"rune_06_berkanan","Hex":"#ffcc3399","Correct":-1,"Choice":-1,"RT":-1,"Accuracy":1,"Outcome":"+10","Keys":[],"TotalKeys":0,"Block":2,"Trial":133,"Robot":2,"Valence":"Win","Action":"No-Go","Sham":0,"Color":"yellow","trial_type":"pit-trial","trial_index":151,"time_elapsed":680030,"internal_node_id":"0.0-140.0","task_version":"test-retest-t2"},{"Rune":"rune_06_ansuz","Hex":"#ffcc3399","Correct":32,"Choice":32,"RT":683.4650000091642,"Accuracy":1,"Outcome":"+10","Keys":[2187.175000028219],"TotalKeys":1,"Block":2,"Trial":134,"Robot":1,"Valence":"Win","Action":"Go","Sham":0,"Color":"yellow","trial_type":"pit-trial","trial_index":152,"time_elapsed":683221,"internal_node_id":"0.0-141.0","task_version":"test-retest-t2"},{"Rune":"rune_06_ehwaz","Hex":"#3366ff99","Correct":-1,"Choice":-1,"RT":-1,"Accuracy":1,"Outcome":"-1","Keys":[],"TotalKeys":0,"Block":2,"Trial":135,"Robot":4,"Valence":"Lose","Action":"No-Go","Sham":0,"Color":"blue","trial_type":"pit-trial","trial_index":153,"time_elapsed":687229,"internal_node_id":"0.0-142.0","task_version":"test-retest-t2"},{"Rune":"rune_06_cweord","Hex":"#3366ff99","Correct":32,"Choice":32,"RT":1036.435000016354,"Accuracy":1,"Outcome":"-1","Keys":[2538.7449999689125],"TotalKeys":1,"Block":2,"Trial":136,"Robot":3,"Valence":"Lose","Action":"Go","Sham":0,"Color":"blue","trial_type":"pit-trial","trial_index":154,"time_elapsed":690774,"internal_node_id":"0.0-143.0","task_version":"test-retest-t2"},{"Rune":"rune_06_berkanan","Hex":"#ffcc3399","Correct":-1,"Choice":-1,"RT":-1,"Accuracy":1,"Outcome":"+10","Keys":[],"TotalKeys":0,"Block":2,"Trial":137,"Robot":2,"Valence":"Win","Action":"No-Go","Sham":0,"Color":"yellow","trial_type":"pit-trial","trial_index":155,"time_elapsed":694782,"internal_node_id":"0.0-144.0","task_version":"test-retest-t2"},{"Rune":"rune_06_cweord","Hex":"#3366ff99","Correct":32,"Choice":32,"RT":863.2050000014715,"Accuracy":1,"Outcome":"-1","Keys":[2363.454999984242],"TotalKeys":1,"Block":2,"Trial":138,"Robot":3,"Valence":"Lose","Action":"Go","Sham":0,"Color":"blue","trial_type":"pit-trial","trial_index":156,"time_elapsed":698152,"internal_node_id":"0.0-145.0","task_version":"test-retest-t2"},{"Rune":"rune_06_ansuz","Hex":"#ffcc3399","Correct":32,"Choice":32,"RT":441.80500000948086,"Accuracy":1,"Outcome":"+10","Keys":[1941.8750000186265],"TotalKeys":1,"Block":2,"Trial":139,"Robot":1,"Valence":"Win","Action":"Go","Sham":0,"Color":"yellow","trial_type":"pit-trial","trial_index":157,"time_elapsed":701098,"internal_node_id":"0.0-146.0","task_version":"test-retest-t2"},{"Rune":"rune_06_ehwaz","Hex":"#3366ff99","Correct":-1,"Choice":-1,"RT":-1,"Accuracy":1,"Outcome":"-10","Keys":[],"TotalKeys":0,"Block":2,"Trial":140,"Robot":4,"Valence":"Lose","Action":"No-Go","Sham":1,"Color":"blue","trial_type":"pit-trial","trial_index":158,"time_elapsed":705106,"internal_node_id":"0.0-147.0","task_version":"test-retest-t2"},{"Rune":"rune_06_berkanan","Hex":"#ffcc3399","Correct":-1,"Choice":-1,"RT":-1,"Accuracy":1,"Outcome":"+10","Keys":[],"TotalKeys":0,"Block":2,"Trial":141,"Robot":2,"Valence":"Win","Action":"No-Go","Sham":0,"Color":"yellow","trial_type":"pit-trial","trial_index":159,"time_elapsed":709114,"internal_node_id":"0.0-148.0","task_version":"test-retest-t2"},{"Rune":"rune_06_ehwaz","Hex":"#3366ff99","Correct":-1,"Choice":-1,"RT":-1,"Accuracy":1,"Outcome":"-10","Keys":[3584.6549999550916],"TotalKeys":1,"Block":2,"Trial":142,"Robot":4,"Valence":"Lose","Action":"No-Go","Sham":1,"Color":"blue","trial_type":"pit-trial","trial_index":160,"time_elapsed":713122,"internal_node_id":"0.0-149.0","task_version":"test-retest-t2"},{"Rune":"rune_06_ansuz","Hex":"#ffcc3399","Correct":32,"Choice":32,"RT":864.8249999969266,"Accuracy":1,"Outcome":"+10","Keys":[2366.204999969341],"TotalKeys":1,"Block":2,"Trial":143,"Robot":1,"Valence":"Win","Action":"Go","Sham":0,"Color":"yellow","trial_type":"pit-trial","trial_index":161,"time_elapsed":716495,"internal_node_id":"0.0-150.0","task_version":"test-retest-t2"},{"Rune":"rune_06_cweord","Hex":"#3366ff99","Correct":32,"Choice":32,"RT":872.2999999881722,"Accuracy":1,"Outcome":"-1","Keys":[2372.6449999958277],"TotalKeys":1,"Block":2,"Trial":144,"Robot":3,"Valence":"Lose","Action":"Go","Sham":0,"Color":"blue","trial_type":"pit-trial","trial_index":162,"time_elapsed":719875,"internal_node_id":"0.0-151.0","task_version":"test-retest-t2"},{"Rune":"rune_06_ansuz","Hex":"#ffcc3399","Correct":32,"Choice":32,"RT":868.2750000152737,"Accuracy":1,"Outcome":"+10","Keys":[2370.6700000329874],"TotalKeys":1,"Block":2,"Trial":145,"Robot":1,"Valence":"Win","Action":"Go","Sham":0,"Color":"yellow","trial_type":"pit-trial","trial_index":163,"time_elapsed":723255,"internal_node_id":"0.0-152.0","task_version":"test-retest-t2"},{"Rune":"rune_06_berkanan","Hex":"#ffcc3399","Correct":-1,"Choice":-1,"RT":-1,"Accuracy":1,"Outcome":"+10","Keys":[],"TotalKeys":0,"Block":2,"Trial":146,"Robot":2,"Valence":"Win","Action":"No-Go","Sham":0,"Color":"yellow","trial_type":"pit-trial","trial_index":164,"time_elapsed":727262,"internal_node_id":"0.0-153.0","task_version":"test-retest-t2"},{"Rune":"rune_06_ehwaz","Hex":"#3366ff99","Correct":-1,"Choice":-1,"RT":-1,"Accuracy":1,"Outcome":"-1","Keys":[],"TotalKeys":0,"Block":2,"Trial":147,"Robot":4,"Valence":"Lose","Action":"No-Go","Sham":0,"Color":"blue","trial_type":"pit-trial","trial_index":165,"time_elapsed":731271,"internal_node_id":"0.0-154.0","task_version":"test-retest-t2"},{"Rune":"rune_06_cweord","Hex":"#3366ff99","Correct":32,"Choice":32,"RT":840.2000000351109,"Accuracy":1,"Outcome":"-1","Keys":[2341.535000014119],"TotalKeys":1,"Block":2,"Trial":148,"Robot":3,"Valence":"Lose","Action":"Go","Sham":0,"Color":"blue","trial_type":"pit-trial","trial_index":166,"time_elapsed":734620,"internal_node_id":"0.0-155.0","task_version":"test-retest-t2"},{"Rune":"rune_06_berkanan","Hex":"#ffcc3399","Correct":-1,"Choice":-1,"RT":-1,"Accuracy":1,"Outcome":"+10","Keys":[],"TotalKeys":0,"Block":2,"Trial":149,"Robot":2,"Valence":"Win","Action":"No-Go","Sham":0,"Color":"yellow","trial_type":"pit-trial","trial_index":167,"time_elapsed":738628,"internal_node_id":"0.0-156.0","task_version":"test-retest-t2"},{"Rune":"rune_06_ansuz","Hex":"#ffcc3399","Correct":32,"Choice":32,"RT":501.7700000316836,"Accuracy":1,"Outcome":"+10","Keys":[2002.3749999818392],"TotalKeys":1,"Block":2,"Trial":150,"Robot":1,"Valence":"Win","Action":"Go","Sham":0,"Color":"yellow","trial_type":"pit-trial","trial_index":168,"time_elapsed":741636,"internal_node_id":"0.0-157.0","task_version":"test-retest-t2"},{"Rune":"rune_06_ehwaz","Hex":"#3366ff99","Correct":-1,"Choice":-1,"RT":-1,"Accuracy":1,"Outcome":"-1","Keys":[],"TotalKeys":0,"Block":2,"Trial":151,"Robot":4,"Valence":"Lose","Action":"No-Go","Sham":0,"Color":"blue","trial_type":"pit-trial","trial_index":169,"time_elapsed":745640,"internal_node_id":"0.0-158.0","task_version":"test-retest-t2"},{"Rune":"rune_06_cweord","Hex":"#3366ff99","Correct":32,"Choice":32,"RT":730.9899999527261,"Accuracy":1,"Outcome":"-10","Keys":[2235.8649999951012],"TotalKeys":1,"Block":2,"Trial":152,"Robot":3,"Valence":"Lose","Action":"Go","Sham":1,"Color":"blue","trial_type":"pit-trial","trial_index":170,"time_elapsed":748880,"internal_node_id":"0.0-159.0","task_version":"test-retest-t2"},{"Rune":"rune_06_ehwaz","Hex":"#3366ff99","Correct":-1,"Choice":-1,"RT":-1,"Accuracy":1,"Outcome":"-1","Keys":[],"TotalKeys":0,"Block":2,"Trial":153,"Robot":4,"Valence":"Lose","Action":"No-Go","Sham":0,"Color":"blue","trial_type":"pit-trial","trial_index":171,"time_elapsed":752884,"internal_node_id":"0.0-160.0","task_version":"test-retest-t2"},{"Rune":"rune_06_berkanan","Hex":"#ffcc3399","Correct":-1,"Choice":-1,"RT":-1,"Accuracy":1,"Outcome":"+1","Keys":[],"TotalKeys":0,"Block":2,"Trial":154,"Robot":2,"Valence":"Win","Action":"No-Go","Sham":1,"Color":"yellow","trial_type":"pit-trial","trial_index":172,"time_elapsed":756891,"internal_node_id":"0.0-161.0","task_version":"test-retest-t2"},{"Rune":"rune_06_ansuz","Hex":"#ffcc3399","Correct":32,"Choice":32,"RT":492.10000003222376,"Accuracy":1,"Outcome":"+1","Keys":[1992.3849999904633],"TotalKeys":1,"Block":2,"Trial":155,"Robot":1,"Valence":"Win","Action":"Go","Sham":1,"Color":"yellow","trial_type":"pit-trial","trial_index":173,"time_elapsed":759887,"internal_node_id":"0.0-162.0","task_version":"test-retest-t2"},{"Rune":"rune_06_cweord","Hex":"#3366ff99","Correct":32,"Choice":32,"RT":777.654999983497,"Accuracy":1,"Outcome":"-1","Keys":[2286.599999992177],"TotalKeys":1,"Block":2,"Trial":156,"Robot":3,"Valence":"Lose","Action":"Go","Sham":0,"Color":"blue","trial_type":"pit-trial","trial_index":174,"time_elapsed":763180,"internal_node_id":"0.0-163.0","task_version":"test-retest-t2"},{"Rune":"rune_06_ansuz","Hex":"#ffcc3399","Correct":32,"Choice":32,"RT":859.5850000274368,"Accuracy":1,"Outcome":"+10","Keys":[2360.205000033602],"TotalKeys":1,"Block":2,"Trial":157,"Robot":1,"Valence":"Win","Action":"Go","Sham":0,"Color":"yellow","trial_type":"pit-trial","trial_index":175,"time_elapsed":766545,"internal_node_id":"0.0-164.0","task_version":"test-retest-t2"},{"Rune":"rune_06_cweord","Hex":"#3366ff99","Correct":32,"Choice":32,"RT":596.6750000370666,"Accuracy":1,"Outcome":"-1","Keys":[2101.280000002589],"TotalKeys":1,"Block":2,"Trial":158,"Robot":3,"Valence":"Lose","Action":"Go","Sham":0,"Color":"blue","trial_type":"pit-trial","trial_index":176,"time_elapsed":769648,"internal_node_id":"0.0-165.0","task_version":"test-retest-t2"},{"Rune":"rune_06_ehwaz","Hex":"#3366ff99","Correct":-1,"Choice":-1,"RT":-1,"Accuracy":1,"Outcome":"-1","Keys":[],"TotalKeys":0,"Block":2,"Trial":159,"Robot":4,"Valence":"Lose","Action":"No-Go","Sham":0,"Color":"blue","trial_type":"pit-trial","trial_index":177,"time_elapsed":773657,"internal_node_id":"0.0-166.0","task_version":"test-retest-t2"},{"Rune":"rune_06_berkanan","Hex":"#ffcc3399","Correct":-1,"Choice":-1,"RT":-1,"Accuracy":1,"Outcome":"+10","Keys":[],"TotalKeys":0,"Block":2,"Trial":160,"Robot":2,"Valence":"Win","Action":"No-Go","Sham":0,"Color":"yellow","trial_type":"pit-trial","trial_index":178,"time_elapsed":777662,"internal_node_id":"0.0-167.0","task_version":"test-retest-t2"},{"Rune":"rune_06_ehwaz","Hex":"#3366ff99","Correct":-1,"Choice":-1,"RT":-1,"Accuracy":1,"Outcome":"-1","Keys":[],"TotalKeys":0,"Block":2,"Trial":161,"Robot":4,"Valence":"Lose","Action":"No-Go","Sham":0,"Color":"blue","trial_type":"pit-trial","trial_index":179,"time_elapsed":781668,"internal_node_id":"0.0-168.0","task_version":"test-retest-t2"},{"Rune":"rune_06_cweord","Hex":"#3366ff99","Correct":32,"Choice":32,"RT":606.7699999548495,"Accuracy":1,"Outcome":"-1","Keys":[2107.9850000096485],"TotalKeys":1,"Block":2,"Trial":162,"Robot":3,"Valence":"Lose","Action":"Go","Sham":0,"Color":"blue","trial_type":"pit-trial","trial_index":180,"time_elapsed":784784,"internal_node_id":"0.0-169.0","task_version":"test-retest-t2"},{"Rune":"rune_06_ansuz","Hex":"#ffcc3399","Correct":32,"Choice":32,"RT":462.1049999841489,"Accuracy":1,"Outcome":"+10","Keys":[1962.4699999694712],"TotalKeys":1,"Block":2,"Trial":163,"Robot":1,"Valence":"Win","Action":"Go","Sham":0,"Color":"yellow","trial_type":"pit-trial","trial_index":181,"time_elapsed":787752,"internal_node_id":"0.0-170.0","task_version":"test-retest-t2"},{"Rune":"rune_06_berkanan","Hex":"#ffcc3399","Correct":-1,"Choice":-1,"RT":-1,"Accuracy":1,"Outcome":"+10","Keys":[],"TotalKeys":0,"Block":2,"Trial":164,"Robot":2,"Valence":"Win","Action":"No-Go","Sham":0,"Color":"yellow","trial_type":"pit-trial","trial_index":182,"time_elapsed":791762,"internal_node_id":"0.0-171.0","task_version":"test-retest-t2"},{"Rune":"rune_06_cweord","Hex":"#3366ff99","Correct":32,"Choice":32,"RT":666.4099999470636,"Accuracy":1,"Outcome":"-1","Keys":[2168.5900000156835],"TotalKeys":1,"Block":2,"Trial":165,"Robot":3,"Valence":"Lose","Action":"Go","Sham":0,"Color":"blue","trial_type":"pit-trial","trial_index":183,"time_elapsed":794936,"internal_node_id":"0.0-172.0","task_version":"test-retest-t2"},{"Rune":"rune_06_ehwaz","Hex":"#3366ff99","Correct":-1,"Choice":-1,"RT":-1,"Accuracy":1,"Outcome":"-1","Keys":[],"TotalKeys":0,"Block":2,"Trial":166,"Robot":4,"Valence":"Lose","Action":"No-Go","Sham":0,"Color":"blue","trial_type":"pit-trial","trial_index":184,"time_elapsed":798941,"internal_node_id":"0.0-173.0","task_version":"test-retest-t2"},{"Rune":"rune_06_berkanan","Hex":"#ffcc3399","Correct":-1,"Choice":-1,"RT":-1,"Accuracy":1,"Outcome":"+10","Keys":[],"TotalKeys":0,"Block":2,"Trial":167,"Robot":2,"Valence":"Win","Action":"No-Go","Sham":0,"Color":"yellow","trial_type":"pit-trial","trial_index":185,"time_elapsed":802950,"internal_node_id":"0.0-174.0","task_version":"test-retest-t2"},{"Rune":"rune_06_ansuz","Hex":"#ffcc3399","Correct":32,"Choice":32,"RT":405.16000002389774,"Accuracy":1,"Outcome":"+1","Keys":[1905.6199999758974],"TotalKeys":1,"Block":2,"Trial":168,"Robot":1,"Valence":"Win","Action":"Go","Sham":1,"Color":"yellow","trial_type":"pit-trial","trial_index":186,"time_elapsed":805862,"internal_node_id":"0.0-175.0","task_version":"test-retest-t2"},{"Rune":"rune_06_ehwaz","Hex":"#3366ff99","Correct":-1,"Choice":-1,"RT":-1,"Accuracy":1,"Outcome":"-10","Keys":[],"TotalKeys":0,"Block":2,"Trial":169,"Robot":4,"Valence":"Lose","Action":"No-Go","Sham":1,"Color":"blue","trial_type":"pit-trial","trial_index":187,"time_elapsed":809869,"internal_node_id":"0.0-176.0","task_version":"test-retest-t2"},{"Rune":"rune_06_berkanan","Hex":"#ffcc3399","Correct":-1,"Choice":-1,"RT":-1,"Accuracy":1,"Outcome":"+1","Keys":[],"TotalKeys":0,"Block":2,"Trial":170,"Robot":2,"Valence":"Win","Action":"No-Go","Sham":1,"Color":"yellow","trial_type":"pit-trial","trial_index":188,"time_elapsed":813878,"internal_node_id":"0.0-177.0","task_version":"test-retest-t2"},{"Rune":"rune_06_ansuz","Hex":"#ffcc3399","Correct":32,"Choice":32,"RT":694.5150000392459,"Accuracy":1,"Outcome":"+10","Keys":[2199.0249999798834],"TotalKeys":1,"Block":2,"Trial":171,"Robot":1,"Valence":"Win","Action":"Go","Sham":0,"Color":"yellow","trial_type":"pit-trial","trial_index":189,"time_elapsed":817085,"internal_node_id":"0.0-178.0","task_version":"test-retest-t2"},{"Rune":"rune_06_cweord","Hex":"#3366ff99","Correct":32,"Choice":32,"RT":997.4800000200048,"Accuracy":1,"Outcome":"-10","Keys":[2505.295000039041],"TotalKeys":1,"Block":2,"Trial":172,"Robot":3,"Valence":"Lose","Action":"Go","Sham":1,"Color":"blue","trial_type":"pit-trial","trial_index":190,"time_elapsed":820593,"internal_node_id":"0.0-179.0","task_version":"test-retest-t2"},{"Rune":"rune_06_berkanan","Hex":"#ffcc3399","Correct":-1,"Choice":-1,"RT":-1,"Accuracy":1,"Outcome":"+10","Keys":[],"TotalKeys":0,"Block":2,"Trial":173,"Robot":2,"Valence":"Win","Action":"No-Go","Sham":0,"Color":"yellow","trial_type":"pit-trial","trial_index":191,"time_elapsed":824602,"internal_node_id":"0.0-180.0","task_version":"test-retest-t2"},{"Rune":"rune_06_cweord","Hex":"#3366ff99","Correct":32,"Choice":32,"RT":559.464999998454,"Accuracy":1,"Outcome":"-1","Keys":[2067.6150000072084],"TotalKeys":1,"Block":2,"Trial":174,"Robot":3,"Valence":"Lose","Action":"Go","Sham":0,"Color":"blue","trial_type":"pit-trial","trial_index":192,"time_elapsed":827675,"internal_node_id":"0.0-181.0","task_version":"test-retest-t2"},{"Rune":"rune_06_ansuz","Hex":"#ffcc3399","Correct":32,"Choice":32,"RT":504.030000010971,"Accuracy":1,"Outcome":"+10","Keys":[2005.150000040885],"TotalKeys":1,"Block":2,"Trial":175,"Robot":1,"Valence":"Win","Action":"Go","Sham":0,"Color":"yellow","trial_type":"pit-trial","trial_index":193,"time_elapsed":830685,"internal_node_id":"0.0-182.0","task_version":"test-retest-t2"},{"Rune":"rune_06_ehwaz","Hex":"#3366ff99","Correct":-1,"Choice":-1,"RT":-1,"Accuracy":1,"Outcome":"-1","Keys":[],"TotalKeys":0,"Block":2,"Trial":176,"Robot":4,"Valence":"Lose","Action":"No-Go","Sham":0,"Color":"blue","trial_type":"pit-trial","trial_index":194,"time_elapsed":834695,"internal_node_id":"0.0-183.0","task_version":"test-retest-t2"},{"Rune":"rune_06_ehwaz","Hex":"#3366ff99","Correct":-1,"Choice":-1,"RT":-1,"Accuracy":1,"Outcome":"-1","Keys":[],"TotalKeys":0,"Block":2,"Trial":177,"Robot":4,"Valence":"Lose","Action":"No-Go","Sham":0,"Color":"blue","trial_type":"pit-trial","trial_index":195,"time_elapsed":838706,"internal_node_id":"0.0-184.0","task_version":"test-retest-t2"},{"Rune":"rune_06_berkanan","Hex":"#ffcc3399","Correct":-1,"Choice":-1,"RT":-1,"Accuracy":1,"Outcome":"+10","Keys":[],"TotalKeys":0,"Block":2,"Trial":178,"Robot":2,"Valence":"Win","Action":"No-Go","Sham":0,"Color":"yellow","trial_type":"pit-trial","trial_index":196,"time_elapsed":842714,"internal_node_id":"0.0-185.0","task_version":"test-retest-t2"},{"Rune":"rune_06_cweord","Hex":"#3366ff99","Correct":32,"Choice":32,"RT":685.7400000444613,"Accuracy":1,"Outcome":"-1","Keys":[2187.804999994114],"TotalKeys":1,"Block":2,"Trial":179,"Robot":3,"Valence":"Lose","Action":"Go","Sham":0,"Color":"blue","trial_type":"pit-trial","trial_index":197,"time_elapsed":845907,"internal_node_id":"0.0-186.0","task_version":"test-retest-t2"},{"Rune":"rune_06_ansuz","Hex":"#ffcc3399","Correct":32,"Choice":32,"RT":759.1799999936484,"Accuracy":1,"Outcome":"+10","Keys":[2261.3250000285916],"TotalKeys":1,"Block":2,"Trial":180,"Robot":1,"Valence":"Win","Action":"Go","Sham":0,"Color":"yellow","trial_type":"pit-trial","trial_index":198,"time_elapsed":849171,"internal_node_id":"0.0-187.0","task_version":"test-retest-t2"},{"view_history":"[{\"page_index\":0,\"viewing_time\":2405.3249999997206},{\"page_index\":1,\"viewing_time\":1121.190000034403}]","rt":3526.9200000329874,"trial_type":"pit-instructions","trial_index":199,"time_elapsed":852700,"internal_node_id":"0.0-188.0","task_version":"test-retest-t2"},{"Rune":"rune_06_ehwaz","Hex":"#3366ff99","Correct":-1,"Choice":-1,"RT":-1,"Accuracy":1,"Outcome":"-1","Keys":[],"TotalKeys":0,"Block":2,"Trial":181,"Robot":4,"Valence":"Lose","Action":"No-Go","Sham":0,"Color":"blue","trial_type":"pit-trial","trial_index":200,"time_elapsed":856711,"internal_node_id":"0.0-189.0","task_version":"test-retest-t2"},{"Rune":"rune_06_ansuz","Hex":"#ffcc3399","Correct":32,"Choice":32,"RT":481.44000000320375,"Accuracy":1,"Outcome":"+1","Keys":[1982.0499999914318],"TotalKeys":1,"Block":2,"Trial":182,"Robot":1,"Valence":"Win","Action":"Go","Sham":1,"Color":"yellow","trial_type":"pit-trial","trial_index":201,"time_elapsed":859698,"internal_node_id":"0.0-190.0","task_version":"test-retest-t2"},{"Rune":"rune_06_berkanan","Hex":"#ffcc3399","Correct":-1,"Choice":-1,"RT":-1,"Accuracy":1,"Outcome":"+10","Keys":[],"TotalKeys":0,"Block":2,"Trial":183,"Robot":2,"Valence":"Win","Action":"No-Go","Sham":0,"Color":"yellow","trial_type":"pit-trial","trial_index":202,"time_elapsed":863701,"internal_node_id":"0.0-191.0","task_version":"test-retest-t2"},{"Rune":"rune_06_cweord","Hex":"#3366ff99","Correct":32,"Choice":32,"RT":709.2899999697693,"Accuracy":1,"Outcome":"-1","Keys":[2213.0200000246987],"TotalKeys":1,"Block":2,"Trial":184,"Robot":3,"Valence":"Lose","Action":"Go","Sham":0,"Color":"blue","trial_type":"pit-trial","trial_index":203,"time_elapsed":866919,"internal_node_id":"0.0-192.0","task_version":"test-retest-t2"},{"Rune":"rune_06_ansuz","Hex":"#ffcc3399","Correct":32,"Choice":32,"RT":490.9650000045076,"Accuracy":1,"Outcome":"+10","Keys":[1991.4700000081211],"TotalKeys":1,"Block":2,"Trial":185,"Robot":1,"Valence":"Win","Action":"Go","Sham":0,"Color":"yellow","trial_type":"pit-trial","trial_index":204,"time_elapsed":869915,"internal_node_id":"0.0-193.0","task_version":"test-retest-t2"},{"Rune":"rune_06_ehwaz","Hex":"#3366ff99","Correct":-1,"Choice":-1,"RT":-1,"Accuracy":1,"Outcome":"-1","Keys":[],"TotalKeys":0,"Block":2,"Trial":186,"Robot":4,"Valence":"Lose","Action":"No-Go","Sham":0,"Color":"blue","trial_type":"pit-trial","trial_index":205,"time_elapsed":873925,"internal_node_id":"0.0-194.0","task_version":"test-retest-t2"},{"Rune":"rune_06_berkanan","Hex":"#ffcc3399","Correct":-1,"Choice":-1,"RT":-1,"Accuracy":1,"Outcome":"+10","Keys":[],"TotalKeys":0,"Block":2,"Trial":187,"Robot":2,"Valence":"Win","Action":"No-Go","Sham":0,"Color":"yellow","trial_type":"pit-trial","trial_index":206,"time_elapsed":877929,"internal_node_id":"0.0-195.0","task_version":"test-retest-t2"},{"Rune":"rune_06_cweord","Hex":"#3366ff99","Correct":32,"Choice":32,"RT":668.9650000189431,"Accuracy":1,"Outcome":"-1","Keys":[2169.370000017807],"TotalKeys":1,"Block":2,"Trial":188,"Robot":3,"Valence":"Lose","Action":"Go","Sham":0,"Color":"blue","trial_type":"pit-trial","trial_index":207,"time_elapsed":881102,"internal_node_id":"0.0-196.0","task_version":"test-retest-t2"},{"Rune":"rune_06_ehwaz","Hex":"#3366ff99","Correct":-1,"Choice":-1,"RT":-1,"Accuracy":1,"Outcome":"-1","Keys":[],"TotalKeys":0,"Block":2,"Trial":189,"Robot":4,"Valence":"Lose","Action":"No-Go","Sham":0,"Color":"blue","trial_type":"pit-trial","trial_index":208,"time_elapsed":885110,"internal_node_id":"0.0-197.0","task_version":"test-retest-t2"},{"Rune":"rune_06_berkanan","Hex":"#ffcc3399","Correct":-1,"Choice":-1,"RT":-1,"Accuracy":1,"Outcome":"+1","Keys":[],"TotalKeys":0,"Block":2,"Trial":190,"Robot":2,"Valence":"Win","Action":"No-Go","Sham":1,"Color":"yellow","trial_type":"pit-trial","trial_index":209,"time_elapsed":889118,"internal_node_id":"0.0-198.0","task_version":"test-retest-t2"},{"Rune":"rune_06_ansuz","Hex":"#ffcc3399","Correct":32,"Choice":32,"RT":574.3600000278093,"Accuracy":1,"Outcome":"+10","Keys":[2076.999999990221],"TotalKeys":1,"Block":2,"Trial":191,"Robot":1,"Valence":"Win","Action":"Go","Sham":0,"Color":"yellow","trial_type":"pit-trial","trial_index":210,"time_elapsed":892202,"internal_node_id":"0.0-199.0","task_version":"test-retest-t2"},{"Rune":"rune_06_cweord","Hex":"#3366ff99","Correct":32,"Choice":32,"RT":565.9599999780767,"Accuracy":1,"Outcome":"-1","Keys":[2068.334999959916],"TotalKeys":1,"Block":2,"Trial":192,"Robot":3,"Valence":"Lose","Action":"Go","Sham":0,"Color":"blue","trial_type":"pit-trial","trial_index":211,"time_elapsed":895274,"internal_node_id":"0.0-200.0","task_version":"test-retest-t2"},{"Rune":"rune_06_cweord","Hex":"#3366ff99","Correct":32,"Choice":32,"RT":1083.809999981895,"Accuracy":1,"Outcome":"-1","Keys":[2588.5099999723025],"TotalKeys":1,"Block":2,"Trial":193,"Robot":3,"Valence":"Lose","Action":"Go","Sham":0,"Color":"blue","trial_type":"pit-trial","trial_index":212,"time_elapsed":898869,"internal_node_id":"0.0-201.0","task_version":"test-retest-t2"},{"Rune":"rune_06_ansuz","Hex":"#ffcc3399","Correct":32,"Choice":32,"RT":435.95000001369044,"Accuracy":1,"Outcome":"+10","Keys":[1938.6750000412576],"TotalKeys":1,"Block":2,"Trial":194,"Robot":1,"Valence":"Win","Action":"Go","Sham":0,"Color":"yellow","trial_type":"pit-trial","trial_index":213,"time_elapsed":901812,"internal_node_id":"0.0-202.0","task_version":"test-retest-t2"},{"Rune":"rune_06_berkanan","Hex":"#ffcc3399","Correct":-1,"Choice":-1,"RT":-1,"Accuracy":1,"Outcome":"+10","Keys":[],"TotalKeys":0,"Block":2,"Trial":195,"Robot":2,"Valence":"Win","Action":"No-Go","Sham":0,"Color":"yellow","trial_type":"pit-trial","trial_index":214,"time_elapsed":905820,"internal_node_id":"0.0-203.0","task_version":"test-retest-t2"},{"Rune":"rune_06_ehwaz","Hex":"#3366ff99","Correct":-1,"Choice":-1,"RT":-1,"Accuracy":1,"Outcome":"-1","Keys":[],"TotalKeys":0,"Block":2,"Trial":196,"Robot":4,"Valence":"Lose","Action":"No-Go","Sham":0,"Color":"blue","trial_type":"pit-trial","trial_index":215,"time_elapsed":909828,"internal_node_id":"0.0-204.0","task_version":"test-retest-t2"},{"Rune":"rune_06_ehwaz","Hex":"#3366ff99","Correct":-1,"Choice":-1,"RT":-1,"Accuracy":1,"Outcome":"-10","Keys":[],"TotalKeys":0,"Block":2,"Trial":197,"Robot":4,"Valence":"Lose","Action":"No-Go","Sham":1,"Color":"blue","trial_type":"pit-trial","trial_index":216,"time_elapsed":913841,"internal_node_id":"0.0-205.0","task_version":"test-retest-t2"},{"Rune":"rune_06_cweord","Hex":"#3366ff99","Correct":32,"Choice":32,"RT":584.6700000111014,"Accuracy":1,"Outcome":"-10","Keys":[2087.539999978617],"TotalKeys":1,"Block":2,"Trial":198,"Robot":3,"Valence":"Lose","Action":"Go","Sham":1,"Color":"blue","trial_type":"pit-trial","trial_index":217,"time_elapsed":916932,"internal_node_id":"0.0-206.0","task_version":"test-retest-t2"},{"Rune":"rune_06_ansuz","Hex":"#ffcc3399","Correct":32,"Choice":32,"RT":634.5150000415742,"Accuracy":1,"Outcome":"+10","Keys":[2134.905000042636],"TotalKeys":1,"Block":2,"Trial":199,"Robot":1,"Valence":"Win","Action":"Go","Sham":0,"Color":"yellow","trial_type":"pit-trial","trial_index":218,"time_elapsed":920073,"internal_node_id":"0.0-207.0","task_version":"test-retest-t2"},{"Rune":"rune_06_berkanan","Hex":"#ffcc3399","Correct":-1,"Choice":-1,"RT":-1,"Accuracy":1,"Outcome":"+10","Keys":[],"TotalKeys":0,"Block":2,"Trial":200,"Robot":2,"Valence":"Win","Action":"No-Go","Sham":0,"Color":"yellow","trial_type":"pit-trial","trial_index":219,"time_elapsed":924080,"internal_node_id":"0.0-208.0","task_version":"test-retest-t2"},{"Rune":"rune_06_berkanan","Hex":"#ffcc3399","Correct":-1,"Choice":-1,"RT":-1,"Accuracy":1,"Outcome":"+10","Keys":[],"TotalKeys":0,"Block":2,"Trial":201,"Robot":2,"Valence":"Win","Action":"No-Go","Sham":0,"Color":"yellow","trial_type":"pit-trial","trial_index":220,"time_elapsed":928088,"internal_node_id":"0.0-209.0","task_version":"test-retest-t2"},{"Rune":"rune_06_ehwaz","Hex":"#3366ff99","Correct":-1,"Choice":-1,"RT":-1,"Accuracy":1,"Outcome":"-1","Keys":[],"TotalKeys":0,"Block":2,"Trial":202,"Robot":4,"Valence":"Lose","Action":"No-Go","Sham":0,"Color":"blue","trial_type":"pit-trial","trial_index":221,"time_elapsed":932097,"internal_node_id":"0.0-210.0","task_version":"test-retest-t2"},{"Rune":"rune_06_cweord","Hex":"#3366ff99","Correct":32,"Choice":32,"RT":513.4550000075251,"Accuracy":1,"Outcome":"-1","Keys":[2013.715000008233],"TotalKeys":1,"Block":2,"Trial":203,"Robot":3,"Valence":"Lose","Action":"Go","Sham":0,"Color":"blue","trial_type":"pit-trial","trial_index":222,"time_elapsed":935117,"internal_node_id":"0.0-211.0","task_version":"test-retest-t2"},{"Rune":"rune_06_ansuz","Hex":"#ffcc3399","Correct":32,"Choice":32,"RT":558.649999962654,"Accuracy":1,"Outcome":"+10","Keys":[2060.295000032056],"TotalKeys":1,"Block":2,"Trial":204,"Robot":1,"Valence":"Win","Action":"Go","Sham":0,"Color":"yellow","trial_type":"pit-trial","trial_index":223,"time_elapsed":938185,"internal_node_id":"0.0-212.0","task_version":"test-retest-t2"},{"Rune":"rune_06_ehwaz","Hex":"#3366ff99","Correct":-1,"Choice":-1,"RT":-1,"Accuracy":1,"Outcome":"-1","Keys":[],"TotalKeys":0,"Block":2,"Trial":205,"Robot":4,"Valence":"Lose","Action":"No-Go","Sham":0,"Color":"blue","trial_type":"pit-trial","trial_index":224,"time_elapsed":942193,"internal_node_id":"0.0-213.0","task_version":"test-retest-t2"},{"Rune":"rune_06_berkanan","Hex":"#ffcc3399","Correct":-1,"Choice":-1,"RT":-1,"Accuracy":1,"Outcome":"+10","Keys":[],"TotalKeys":0,"Block":2,"Trial":206,"Robot":2,"Valence":"Win","Action":"No-Go","Sham":0,"Color":"yellow","trial_type":"pit-trial","trial_index":225,"time_elapsed":946198,"internal_node_id":"0.0-214.0","task_version":"test-retest-t2"},{"Rune":"rune_06_cweord","Hex":"#3366ff99","Correct":32,"Choice":32,"RT":593.8499999465421,"Accuracy":1,"Outcome":"-1","Keys":[2094.7850000229664],"TotalKeys":1,"Block":2,"Trial":207,"Robot":3,"Valence":"Lose","Action":"Go","Sham":0,"Color":"blue","trial_type":"pit-trial","trial_index":226,"time_elapsed":949298,"internal_node_id":"0.0-215.0","task_version":"test-retest-t2"},{"Rune":"rune_06_ansuz","Hex":"#ffcc3399","Correct":32,"Choice":32,"RT":437.5700000091456,"Accuracy":1,"Outcome":"+10","Keys":[1937.8250000299886],"TotalKeys":1,"Block":2,"Trial":208,"Robot":1,"Valence":"Win","Action":"Go","Sham":0,"Color":"yellow","trial_type":"pit-trial","trial_index":227,"time_elapsed":952241,"internal_node_id":"0.0-216.0","task_version":"test-retest-t2"},{"Rune":"rune_06_ehwaz","Hex":"#3366ff99","Correct":-1,"Choice":-1,"RT":-1,"Accuracy":1,"Outcome":"-1","Keys":[],"TotalKeys":0,"Block":2,"Trial":209,"Robot":4,"Valence":"Lose","Action":"No-Go","Sham":0,"Color":"blue","trial_type":"pit-trial","trial_index":228,"time_elapsed":956249,"internal_node_id":"0.0-217.0","task_version":"test-retest-t2"},{"Rune":"rune_06_cweord","Hex":"#3366ff99","Correct":32,"Choice":32,"RT":540.9649999928661,"Accuracy":1,"Outcome":"-1","Keys":[2041.7599999927916],"TotalKeys":1,"Block":2,"Trial":210,"Robot":3,"Valence":"Lose","Action":"Go","Sham":0,"Color":"blue","trial_type":"pit-trial","trial_index":229,"time_elapsed":959298,"internal_node_id":"0.0-218.0","task_version":"test-retest-t2"},{"Rune":"rune_06_ansuz","Hex":"#ffcc3399","Correct":32,"Choice":32,"RT":552.1300000254996,"Accuracy":1,"Outcome":"+1","Keys":[2059.3550000339746],"TotalKeys":1,"Block":2,"Trial":211,"Robot":1,"Valence":"Win","Action":"Go","Sham":1,"Color":"yellow","trial_type":"pit-trial","trial_index":230,"time_elapsed":962362,"internal_node_id":"0.0-219.0","task_version":"test-retest-t2"},{"Rune":"rune_06_berkanan","Hex":"#ffcc3399","Correct":-1,"Choice":-1,"RT":-1,"Accuracy":1,"Outcome":"+10","Keys":[],"TotalKeys":0,"Block":2,"Trial":212,"Robot":2,"Valence":"Win","Action":"No-Go","Sham":0,"Color":"yellow","trial_type":"pit-trial","trial_index":231,"time_elapsed":966370,"internal_node_id":"0.0-220.0","task_version":"test-retest-t2"},{"Rune":"rune_06_ansuz","Hex":"#ffcc3399","Correct":32,"Choice":32,"RT":507.0549999945797,"Accuracy":1,"Outcome":"+10","Keys":[2007.4799999711104],"TotalKeys":1,"Block":2,"Trial":213,"Robot":1,"Valence":"Win","Action":"Go","Sham":0,"Color":"yellow","trial_type":"pit-trial","trial_index":232,"time_elapsed":969382,"internal_node_id":"0.0-221.0","task_version":"test-retest-t2"},{"Rune":"rune_06_berkanan","Hex":"#ffcc3399","Correct":-1,"Choice":-1,"RT":-1,"Accuracy":1,"Outcome":"+10","Keys":[],"TotalKeys":0,"Block":2,"Trial":214,"Robot":2,"Valence":"Win","Action":"No-Go","Sham":0,"Color":"yellow","trial_type":"pit-trial","trial_index":233,"time_elapsed":973391,"internal_node_id":"0.0-222.0","task_version":"test-retest-t2"},{"Rune":"rune_06_ehwaz","Hex":"#3366ff99","Correct":-1,"Choice":-1,"RT":-1,"Accuracy":1,"Outcome":"-1","Keys":[],"TotalKeys":0,"Block":2,"Trial":215,"Robot":4,"Valence":"Lose","Action":"No-Go","Sham":0,"Color":"blue","trial_type":"pit-trial","trial_index":234,"time_elapsed":977399,"internal_node_id":"0.0-223.0","task_version":"test-retest-t2"},{"Rune":"rune_06_cweord","Hex":"#3366ff99","Correct":32,"Choice":32,"RT":802.5750000379048,"Accuracy":1,"Outcome":"-1","Keys":[2304.035000037402],"TotalKeys":1,"Block":2,"Trial":216,"Robot":3,"Valence":"Lose","Action":"Go","Sham":0,"Color":"blue","trial_type":"pit-trial","trial_index":235,"time_elapsed":980708,"internal_node_id":"0.0-224.0","task_version":"test-retest-t2"},{"Rune":"rune_06_cweord","Hex":"#3366ff99","Correct":32,"Choice":32,"RT":536.1299999640323,"Accuracy":1,"Outcome":"-10","Keys":[2039.8000000277534],"TotalKeys":1,"Block":2,"Trial":217,"Robot":3,"Valence":"Lose","Action":"Go","Sham":1,"Color":"blue","trial_type":"pit-trial","trial_index":236,"time_elapsed":983755,"internal_node_id":"0.0-225.0","task_version":"test-retest-t2"},{"Rune":"rune_06_ansuz","Hex":"#ffcc3399","Correct":32,"Choice":32,"RT":708.9549999800511,"Accuracy":1,"Outcome":"+10","Keys":[2211.379999993369],"TotalKeys":1,"Block":2,"Trial":218,"Robot":1,"Valence":"Win","Action":"Go","Sham":0,"Color":"yellow","trial_type":"pit-trial","trial_index":237,"time_elapsed":986971,"internal_node_id":"0.0-226.0","task_version":"test-retest-t2"},{"Rune":"rune_06_berkanan","Hex":"#ffcc3399","Correct":-1,"Choice":-1,"RT":-1,"Accuracy":1,"Outcome":"+1","Keys":[],"TotalKeys":0,"Block":2,"Trial":219,"Robot":2,"Valence":"Win","Action":"No-Go","Sham":1,"Color":"yellow","trial_type":"pit-trial","trial_index":238,"time_elapsed":990979,"internal_node_id":"0.0-227.0","task_version":"test-retest-t2"},{"Rune":"rune_06_ehwaz","Hex":"#3366ff99","Correct":-1,"Choice":-1,"RT":-1,"Accuracy":1,"Outcome":"-10","Keys":[],"TotalKeys":0,"Block":2,"Trial":220,"Robot":4,"Valence":"Lose","Action":"No-Go","Sham":1,"Color":"blue","trial_type":"pit-trial","trial_index":239,"time_elapsed":994987,"internal_node_id":"0.0-228.0","task_version":"test-retest-t2"},{"Rune":"rune_06_ehwaz","Hex":"#3366ff99","Correct":-1,"Choice":-1,"RT":-1,"Accuracy":1,"Outcome":"-1","Keys":[],"TotalKeys":0,"Block":2,"Trial":221,"Robot":4,"Valence":"Lose","Action":"No-Go","Sham":0,"Color":"blue","trial_type":"pit-trial","trial_index":240,"time_elapsed":998991,"internal_node_id":"0.0-229.0","task_version":"test-retest-t2"},{"Rune":"rune_06_ansuz","Hex":"#ffcc3399","Correct":32,"Choice":32,"RT":615.0149999884889,"Accuracy":1,"Outcome":"+10","Keys":[2115.6949999858625],"TotalKeys":1,"Block":2,"Trial":222,"Robot":1,"Valence":"Win","Action":"Go","Sham":0,"Color":"yellow","trial_type":"pit-trial","trial_index":241,"time_elapsed":1002113,"internal_node_id":"0.0-230.0","task_version":"test-retest-t2"},{"Rune":"rune_06_berkanan","Hex":"#ffcc3399","Correct":-1,"Choice":-1,"RT":-1,"Accuracy":1,"Outcome":"+10","Keys":[],"TotalKeys":0,"Block":2,"Trial":223,"Robot":2,"Valence":"Win","Action":"No-Go","Sham":0,"Color":"yellow","trial_type":"pit-trial","trial_index":242,"time_elapsed":1006123,"internal_node_id":"0.0-231.0","task_version":"test-retest-t2"},{"Rune":"rune_06_cweord","Hex":"#3366ff99","Correct":32,"Choice":32,"RT":813.7550000101328,"Accuracy":1,"Outcome":"-10","Keys":[2315.515000023879],"TotalKeys":1,"Block":2,"Trial":224,"Robot":3,"Valence":"Lose","Action":"Go","Sham":1,"Color":"blue","trial_type":"pit-trial","trial_index":243,"time_elapsed":1009443,"internal_node_id":"0.0-232.0","task_version":"test-retest-t2"},{"Rune":"rune_06_ehwaz","Hex":"#3366ff99","Correct":-1,"Choice":-1,"RT":-1,"Accuracy":1,"Outcome":"-10","Keys":[],"TotalKeys":0,"Block":2,"Trial":225,"Robot":4,"Valence":"Lose","Action":"No-Go","Sham":1,"Color":"blue","trial_type":"pit-trial","trial_index":244,"time_elapsed":1013451,"internal_node_id":"0.0-233.0","task_version":"test-retest-t2"},{"Rune":"rune_06_ansuz","Hex":"#ffcc3399","Correct":32,"Choice":32,"RT":610.5799999786541,"Accuracy":1,"Outcome":"+10","Keys":[2113.450000004377],"TotalKeys":1,"Block":2,"Trial":226,"Robot":1,"Valence":"Win","Action":"Go","Sham":0,"Color":"yellow","trial_type":"pit-trial","trial_index":245,"time_elapsed":1016572,"internal_node_id":"0.0-234.0","task_version":"test-retest-t2"},{"Rune":"rune_06_cweord","Hex":"#3366ff99","Correct":32,"Choice":32,"RT":805.2950000273995,"Accuracy":1,"Outcome":"-1","Keys":[2307.429999986198],"TotalKeys":1,"Block":2,"Trial":227,"Robot":3,"Valence":"Lose","Action":"Go","Sham":0,"Color":"blue","trial_type":"pit-trial","trial_index":246,"time_elapsed":1019883,"internal_node_id":"0.0-235.0","task_version":"test-retest-t2"},{"Rune":"rune_06_berkanan","Hex":"#ffcc3399","Correct":-1,"Choice":-1,"RT":-1,"Accuracy":1,"Outcome":"+10","Keys":[],"TotalKeys":0,"Block":2,"Trial":228,"Robot":2,"Valence":"Win","Action":"No-Go","Sham":0,"Color":"yellow","trial_type":"pit-trial","trial_index":247,"time_elapsed":1023891,"internal_node_id":"0.0-236.0","task_version":"test-retest-t2"},{"Rune":"rune_06_ehwaz","Hex":"#3366ff99","Correct":-1,"Choice":-1,"RT":-1,"Accuracy":1,"Outcome":"-1","Keys":[],"TotalKeys":0,"Block":2,"Trial":229,"Robot":4,"Valence":"Lose","Action":"No-Go","Sham":0,"Color":"blue","trial_type":"pit-trial","trial_index":248,"time_elapsed":1027897,"internal_node_id":"0.0-237.0","task_version":"test-retest-t2"},{"Rune":"rune_06_cweord","Hex":"#3366ff99","Correct":32,"Choice":32,"RT":1043.9050000277348,"Accuracy":1,"Outcome":"-1","Keys":[2548.254999972414],"TotalKeys":1,"Block":2,"Trial":230,"Robot":3,"Valence":"Lose","Action":"Go","Sham":0,"Color":"blue","trial_type":"pit-trial","trial_index":249,"time_elapsed":1031448,"internal_node_id":"0.0-238.0","task_version":"test-retest-t2"},{"Rune":"rune_06_ansuz","Hex":"#ffcc3399","Correct":32,"Choice":32,"RT":597.6800000062212,"Accuracy":1,"Outcome":"+10","Keys":[2103.7149999756366],"TotalKeys":1,"Block":2,"Trial":231,"Robot":1,"Valence":"Win","Action":"Go","Sham":0,"Color":"yellow","trial_type":"pit-trial","trial_index":250,"time_elapsed":1034556,"internal_node_id":"0.0-239.0","task_version":"test-retest-t2"},{"Rune":"rune_06_berkanan","Hex":"#ffcc3399","Correct":-1,"Choice":-1,"RT":-1,"Accuracy":1,"Outcome":"+1","Keys":[],"TotalKeys":0,"Block":2,"Trial":232,"Robot":2,"Valence":"Win","Action":"No-Go","Sham":1,"Color":"yellow","trial_type":"pit-trial","trial_index":251,"time_elapsed":1038564,"internal_node_id":"0.0-240.0","task_version":"test-retest-t2"},{"Rune":"rune_06_berkanan","Hex":"#ffcc3399","Correct":-1,"Choice":-1,"RT":-1,"Accuracy":1,"Outcome":"+10","Keys":[],"TotalKeys":0,"Block":2,"Trial":233,"Robot":2,"Valence":"Win","Action":"No-Go","Sham":0,"Color":"yellow","trial_type":"pit-trial","trial_index":252,"time_elapsed":1042573,"internal_node_id":"0.0-241.0","task_version":"test-retest-t2"},{"Rune":"rune_06_ansuz","Hex":"#ffcc3399","Correct":32,"Choice":32,"RT":460.86500003002584,"Accuracy":1,"Outcome":"+1","Keys":[1964.559999993071],"TotalKeys":1,"Block":2,"Trial":234,"Robot":1,"Valence":"Win","Action":"Go","Sham":1,"Color":"yellow","trial_type":"pit-trial","trial_index":253,"time_elapsed":1045540,"internal_node_id":"0.0-242.0","task_version":"test-retest-t2"},{"Rune":"rune_06_cweord","Hex":"#3366ff99","Correct":32,"Choice":32,"RT":706.0400000191294,"Accuracy":1,"Outcome":"-1","Keys":[2207.284999953117],"TotalKeys":1,"Block":2,"Trial":235,"Robot":3,"Valence":"Lose","Action":"Go","Sham":0,"Color":"blue","trial_type":"pit-trial","trial_index":254,"time_elapsed":1048753,"internal_node_id":"0.0-243.0","task_version":"test-retest-t2"},{"Rune":"rune_06_ehwaz","Hex":"#3366ff99","Correct":-1,"Choice":-1,"RT":-1,"Accuracy":1,"Outcome":"-1","Keys":[],"TotalKeys":0,"Block":2,"Trial":236,"Robot":4,"Valence":"Lose","Action":"No-Go","Sham":0,"Color":"blue","trial_type":"pit-trial","trial_index":255,"time_elapsed":1052761,"internal_node_id":"0.0-244.0","task_version":"test-retest-t2"},{"Rune":"rune_06_berkanan","Hex":"#ffcc3399","Correct":-1,"Choice":-1,"RT":-1,"Accuracy":1,"Outcome":"+10","Keys":[],"TotalKeys":0,"Block":2,"Trial":237,"Robot":2,"Valence":"Win","Action":"No-Go","Sham":0,"Color":"yellow","trial_type":"pit-trial","trial_index":256,"time_elapsed":1056765,"internal_node_id":"0.0-245.0","task_version":"test-retest-t2"},{"Rune":"rune_06_cweord","Hex":"#3366ff99","Correct":32,"Choice":32,"RT":697.1749999793246,"Accuracy":1,"Outcome":"-1","Keys":[2201.279999979306],"TotalKeys":1,"Block":2,"Trial":238,"Robot":3,"Valence":"Lose","Action":"Go","Sham":0,"Color":"blue","trial_type":"pit-trial","trial_index":257,"time_elapsed":1059969,"internal_node_id":"0.0-246.0","task_version":"test-retest-t2"},{"Rune":"rune_06_ehwaz","Hex":"#3366ff99","Correct":-1,"Choice":-1,"RT":-1,"Accuracy":1,"Outcome":"-1","Keys":[],"TotalKeys":0,"Block":2,"Trial":239,"Robot":4,"Valence":"Lose","Action":"No-Go","Sham":0,"Color":"blue","trial_type":"pit-trial","trial_index":258,"time_elapsed":1063977,"internal_node_id":"0.0-247.0","task_version":"test-retest-t2"},{"Rune":"rune_06_ansuz","Hex":"#ffcc3399","Correct":32,"Choice":32,"RT":622.9699999676086,"Accuracy":1,"Outcome":"+10","Keys":[2127.184999990277],"TotalKeys":1,"Block":2,"Trial":240,"Robot":1,"Valence":"Win","Action":"Go","Sham":0,"Color":"yellow","trial_type":"pit-trial","trial_index":259,"time_elapsed":1067110,"internal_node_id":"0.0-248.0","task_version":"test-retest-t2"},{"view_history":"[{\"page_index\":0,\"viewing_time\":2045.940000039991}]","rt":2046.375000034459,"trial_type":"pit-instructions","trial_index":260,"time_elapsed":1069158,"internal_node_id":"0.0-249.0","task_version":"test-retest-t2"},{"rt":51865.21999997785,"responses":{"difficulty":"4","fun":"5","clarity":"5","strategy":"I wrote down the two symbols I needed to press space on.","feedback":"These are fun, I think I improved over last time. "},"survey":"debrief","trial_type":"survey-debrief","trial_index":261,"time_elapsed":1121028,"internal_node_id":"0.0-250.0","task_version":"test-retest-t2"},{"rt":10720.594999962486,"stimulus":"You earned a bonus of $1.43 out of $1.5.<br><br>Press any key to complete the experiment.","key_press":13,"trial_type":"html-keyboard-response","trial_index":262,"time_elapsed":1131752,"internal_node_id":"0.0-251.0","task_version":"test-retest-t2","accuracy":0.95,"bonus":1.43,"interactions":"[]"}]