[{"slider_type":"valence","raw_loc":412,"loc":0.324,"trial_type":"affective-slider","trial_index":0,"time_elapsed":4525,"internal_node_id":"0.0-0.0","task_version":"test-retest-t2"},{"responses":{"Q05":"0","Q06":"1","Q04":"0","Q01":"1","Q02":"2","Q07":"1","Q08":"0","Q03":"2"},"rt":18985.899999999674,"survey":"gad7","trial_type":"survey-template","trial_index":1,"time_elapsed":23515,"internal_node_id":"0.0-1.0","task_version":"test-retest-t2"},{"view_history":"[{\"page_index\":0,\"viewing_time\":16455.73499999591},{\"page_index\":1,\"viewing_time\":2671.0800000000745},{\"page_index\":2,\"viewing_time\":1935.8000000065658},{\"page_index\":3,\"viewing_time\":3120.055000006687},{\"page_index\":4,\"viewing_time\":3855.9799999929965},{\"page_index\":5,\"viewing_time\":968.204999982845}]","rt":29007.574999995995,"trial_type":"pit-instructions","trial_index":2,"time_elapsed":52529,"internal_node_id":"0.0-2.0-0.0","task_version":"test-retest-t2"},{"Rune":"rune_00_ingz","Hex":"#FFFFF080","Correct":32,"Choice":32,"RT":245.21500000264496,"Accuracy":1,"Outcome":"+10","Keys":[1774.3000000191387],"TotalKeys":1,"Block":0,"Action":"Go","trial_type":"pit-trial","trial_index":3,"time_elapsed":55309,"internal_node_id":"0.0-2.0-1.0-0.0","task_version":"test-retest-t2"},{"Rune":"rune_00_ingz","Hex":"#FFFFF080","Correct":32,"Choice":32,"RT":530.704999982845,"Accuracy":1,"Outcome":"+10","Keys":[2032.9100000089966],"TotalKeys":1,"Block":0,"Action":"Go","trial_type":"pit-trial","trial_index":4,"time_elapsed":58346,"internal_node_id":"0.0-2.0-1.0-0.1","task_version":"test-retest-t2"},{"Rune":"rune_00_ingz","Hex":"#FFFFF080","Correct":32,"Choice":32,"RT":240.38499998277985,"Accuracy":1,"Outcome":"+10","Keys":[1741.8799999868497],"TotalKeys":1,"Block":0,"Action":"Go","trial_type":"pit-trial","trial_index":5,"time_elapsed":61092,"internal_node_id":"0.0-2.0-1.0-0.2","task_version":"test-retest-t2"},{"Rune":"rune_00_ingz","Hex":"#FFFFF080","Correct":32,"Choice":32,"RT":285.76499997870997,"Accuracy":1,"Outcome":"+10","Keys":[1787.0250000269152],"TotalKeys":1,"Block":0,"Action":"Go","trial_type":"pit-trial","trial_index":6,"time_elapsed":63882,"internal_node_id":"0.0-2.0-1.0-0.3","task_version":"test-retest-t2"},{"view_history":"[{\"page_index\":0,\"viewing_time\":2141.665000002831}]","rt":2142.039999976987,"trial_type":"pit-instructions","trial_index":7,"time_elapsed":66025,"internal_node_id":"0.0-2.0-2.0","task_version":"test-retest-t2"},{"Rune":"rune_00_isaz","Hex":"#FFFFF080","Correct":-1,"Choice":-1,"RT":-1,"Accuracy":1,"Outcome":"+10","Keys":[],"TotalKeys":0,"Block":0,"Action":"No-Go","trial_type":"pit-trial","trial_index":8,"time_elapsed":70029,"internal_node_id":"0.0-2.0-3.0-0.0","task_version":"test-retest-t2"},{"Rune":"rune_00_isaz","Hex":"#FFFFF080","Correct":-1,"Choice":-1,"RT":-1,"Accuracy":1,"Outcome":"+10","Keys":[],"TotalKeys":0,"Block":0,"Action":"No-Go","trial_type":"pit-trial","trial_index":9,"time_elapsed":74038,"internal_node_id":"0.0-2.0-3.0-0.1","task_version":"test-retest-t2"},{"Rune":"rune_00_isaz","Hex":"#FFFFF080","Correct":-1,"Choice":-1,"RT":-1,"Accuracy":1,"Outcome":"+10","Keys":[],"TotalKeys":0,"Block":0,"Action":"No-Go","trial_type":"pit-trial","trial_index":10,"time_elapsed":78061,"internal_node_id":"0.0-2.0-3.0-0.2","task_version":"test-retest-t2"},{"Rune":"rune_00_isaz","Hex":"#FFFFF080","Correct":-1,"Choice":-1,"RT":-1,"Accuracy":1,"Outcome":"+10","Keys":[],"TotalKeys":0,"Block":0,"Action":"No-Go","trial_type":"pit-trial","trial_index":11,"time_elapsed":82070,"internal_node_id":"0.0-2.0-3.0-0.3","task_version":"test-retest-t2"},{"view_history":"[{\"page_index\":0,\"viewing_time\":51513.88500002213},{\"page_index\":1,\"viewing_time\":4735.779999988154},{\"page_index\":2,\"viewing_time\":6640.584999986459},{\"page_index\":3,\"viewing_time\":213935.94500000472},{\"page_index\":4,\"viewing_time\":2639.370000018971},{\"page_index\":5,\"viewing_time\":2392.2549999842886},{\"page_index\":6,\"viewing_time\":1383.815000008326},{\"page_index\":7,\"viewing_time\":9520.214999996824}]","rt":292762.6100000052,"trial_type":"pit-instructions","trial_index":12,"time_elapsed":374833,"internal_node_id":"0.0-2.0-4.0","task_version":"test-retest-t2"},{"responses":["Do nothing","+10","-1","True","Yes"],"num_errors":0,"rt":18349.929999996675,"trial_type":"pit-comprehension","trial_index":13,"time_elapsed":393186,"internal_node_id":"0.0-2.0-5.0","task_version":"test-retest-t2"},{"trial_type":"call-function","trial_index":14,"time_elapsed":393189,"internal_node_id":"0.0-3.0","task_version":"test-retest-t2"},{"view_history":"[{\"page_index\":0,\"viewing_time\":1674.2850000155158},{\"page_index\":1,\"viewing_time\":2367.8749999962747},{\"page_index\":2,\"viewing_time\":2335.959999996703}]","rt":6378.535000025295,"trial_type":"pit-instructions","trial_index":15,"time_elapsed":399568,"internal_node_id":"0.0-4.0","task_version":"test-retest-t2"},{"Rune":"rune_03_algiz","Hex":"#ffcc3399","Correct":-1,"Choice":32,"RT":440.3849999944214,"Accuracy":0,"Outcome":"-10","Keys":[1942.8749999788124],"TotalKeys":1,"Block":1,"Trial":1,"Robot":4,"Valence":"Lose","Action":"No-Go","Sham":0,"Color":"yellow","trial_type":"pit-trial","trial_index":16,"time_elapsed":402516,"internal_node_id":"0.0-5.0","task_version":"test-retest-t2"},{"Rune":"rune_03_othalan","Hex":"#ffcc3399","Correct":32,"Choice":32,"RT":390.42999999946915,"Accuracy":1,"Outcome":"-10","Keys":[1890.8700000029057],"TotalKeys":1,"Block":1,"Trial":2,"Robot":3,"Valence":"Lose","Action":"Go","Sham":1,"Color":"yellow","trial_type":"pit-trial","trial_index":17,"time_elapsed":405416,"internal_node_id":"0.0-6.0","task_version":"test-retest-t2"},{"Rune":"rune_03_naudiz","Hex":"#3366ff99","Correct":32,"Choice":32,"RT":410.0099999923259,"Accuracy":1,"Outcome":"+10","Keys":[1910.6400000164285],"TotalKeys":1,"Block":1,"Trial":3,"Robot":1,"Valence":"Win","Action":"Go","Sham":0,"Color":"blue","trial_type":"pit-trial","trial_index":18,"time_elapsed":408329,"internal_node_id":"0.0-7.0","task_version":"test-retest-t2"},{"Rune":"rune_03_uruz","Hex":"#3366ff99","Correct":-1,"Choice":32,"RT":456.4449999888893,"Accuracy":0,"Outcome":"+1","Keys":[1958.039999997709],"TotalKeys":1,"Block":1,"Trial":4,"Robot":2,"Valence":"Win","Action":"No-Go","Sham":0,"Color":"blue","trial_type":"pit-trial","trial_index":19,"time_elapsed":411293,"internal_node_id":"0.0-8.0","task_version":"test-retest-t2"},{"Rune":"rune_03_naudiz","Hex":"#3366ff99","Correct":32,"Choice":32,"RT":452.28499997756444,"Accuracy":1,"Outcome":"+1","Keys":[1953.3050000027288],"TotalKeys":1,"Block":1,"Trial":5,"Robot":1,"Valence":"Win","Action":"Go","Sham":1,"Color":"blue","trial_type":"pit-trial","trial_index":20,"time_elapsed":414249,"internal_node_id":"0.0-9.0","task_version":"test-retest-t2"},{"Rune":"rune_03_othalan","Hex":"#ffcc3399","Correct":32,"Choice":32,"RT":527.3099999758415,"Accuracy":1,"Outcome":"-1","Keys":[2029.0249999961816],"TotalKeys":1,"Block":1,"Trial":6,"Robot":3,"Valence":"Lose","Action":"Go","Sham":0,"Color":"yellow","trial_type":"pit-trial","trial_index":21,"time_elapsed":417286,"internal_node_id":"0.0-10.0","task_version":"test-retest-t2"},{"Rune":"rune_03_uruz","Hex":"#3366ff99","Correct":-1,"Choice":32,"RT":503.1899999885354,"Accuracy":0,"Outcome":"+1","Keys":[2005.0300000002608],"TotalKeys":1,"Block":1,"Trial":7,"Robot":2,"Valence":"Win","Action":"No-Go","Sham":0,"Color":"blue","trial_type":"pit-trial","trial_index":22,"time_elapsed":420298,"internal_node_id":"0.0-11.0","task_version":"test-retest-t2"},{"Rune":"rune_03_algiz","Hex":"#ffcc3399","Correct":-1,"Choice":-1,"RT":-1,"Accuracy":1,"Outcome":"-1","Keys":[],"TotalKeys":0,"Block":1,"Trial":8,"Robot":4,"Valence":"Lose","Action":"No-Go","Sham":0,"Color":"yellow","trial_type":"pit-trial","trial_index":23,"time_elapsed":424305,"internal_node_id":"0.0-12.0","task_version":"test-retest-t2"},{"Rune":"rune_03_othalan","Hex":"#ffcc3399","Correct":32,"Choice":32,"RT":424.3200000200886,"Accuracy":1,"Outcome":"-1","Keys":[1925.649999990128],"TotalKeys":1,"Block":1,"Trial":9,"Robot":3,"Valence":"Lose","Action":"Go","Sham":0,"Color":"yellow","trial_type":"pit-trial","trial_index":24,"time_elapsed":427237,"internal_node_id":"0.0-13.0","task_version":"test-retest-t2"},{"Rune":"rune_03_algiz","Hex":"#ffcc3399","Correct":-1,"Choice":-1,"RT":-1,"Accuracy":1,"Outcome":"-1","Keys":[],"TotalKeys":0,"Block":1,"Trial":10,"Robot":4,"Valence":"Lose","Action":"No-Go","Sham":0,"Color":"yellow","trial_type":"pit-trial","trial_index":25,"time_elapsed":431241,"internal_node_id":"0.0-14.0","task_version":"test-retest-t2"},{"Rune":"rune_03_naudiz","Hex":"#3366ff99","Correct":32,"Choice":-1,"RT":-1,"Accuracy":0,"Outcome":"+1","Keys":[],"TotalKeys":0,"Block":1,"Trial":11,"Robot":1,"Valence":"Win","Action":"Go","Sham":0,"Color":"blue","trial_type":"pit-trial","trial_index":26,"time_elapsed":435244,"internal_node_id":"0.0-15.0","task_version":"test-retest-t2"},{"Rune":"rune_03_uruz","Hex":"#3366ff99","Correct":-1,"Choice":-1,"RT":-1,"Accuracy":1,"Outcome":"+10","Keys":[],"TotalKeys":0,"Block":1,"Trial":12,"Robot":2,"Valence":"Win","Action":"No-Go","Sham":0,"Color":"blue","trial_type":"pit-trial","trial_index":27,"time_elapsed":439251,"internal_node_id":"0.0-16.0","task_version":"test-retest-t2"},{"Rune":"rune_03_uruz","Hex":"#3366ff99","Correct":-1,"Choice":-1,"RT":-1,"Accuracy":1,"Outcome":"+10","Keys":[],"TotalKeys":0,"Block":1,"Trial":13,"Robot":2,"Valence":"Win","Action":"No-Go","Sham":0,"Color":"blue","trial_type":"pit-trial","trial_index":28,"time_elapsed":443256,"internal_node_id":"0.0-17.0","task_version":"test-retest-t2"},{"Rune":"rune_03_othalan","Hex":"#ffcc3399","Correct":32,"Choice":-1,"RT":-1,"Accuracy":0,"Outcome":"-10","Keys":[],"TotalKeys":0,"Block":1,"Trial":14,"Robot":3,"Valence":"Lose","Action":"Go","Sham":0,"Color":"yellow","trial_type":"pit-trial","trial_index":29,"time_elapsed":447273,"internal_node_id":"0.0-18.0","task_version":"test-retest-t2"},{"Rune":"rune_03_algiz","Hex":"#ffcc3399","Correct":-1,"Choice":-1,"RT":-1,"Accuracy":1,"Outcome":"-10","Keys":[],"TotalKeys":0,"Block":1,"Trial":15,"Robot":4,"Valence":"Lose","Action":"No-Go","Sham":1,"Color":"yellow","trial_type":"pit-trial","trial_index":30,"time_elapsed":451306,"internal_node_id":"0.0-19.0","task_version":"test-retest-t2"},{"Rune":"rune_03_naudiz","Hex":"#3366ff99","Correct":32,"Choice":32,"RT":982.7400000067428,"Accuracy":1,"Outcome":"+10","Keys":[2483.3400000061374],"TotalKeys":1,"Block":1,"Trial":16,"Robot":1,"Valence":"Win","Action":"Go","Sham":0,"Color":"blue","trial_type":"pit-trial","trial_index":31,"time_elapsed":454796,"internal_node_id":"0.0-20.0","task_version":"test-retest-t2"},{"Rune":"rune_03_algiz","Hex":"#ffcc3399","Correct":-1,"Choice":32,"RT":710.1400000101421,"Accuracy":0,"Outcome":"-10","Keys":[2210.9049999853596],"TotalKeys":1,"Block":1,"Trial":17,"Robot":4,"Valence":"Lose","Action":"No-Go","Sham":0,"Color":"yellow","trial_type":"pit-trial","trial_index":32,"time_elapsed":458010,"internal_node_id":"0.0-21.0","task_version":"test-retest-t2"},{"Rune":"rune_03_uruz","Hex":"#3366ff99","Correct":-1,"Choice":-1,"RT":-1,"Accuracy":1,"Outcome":"+1","Keys":[],"TotalKeys":0,"Block":1,"Trial":18,"Robot":2,"Valence":"Win","Action":"No-Go","Sham":1,"Color":"blue","trial_type":"pit-trial","trial_index":33,"time_elapsed":462015,"internal_node_id":"0.0-22.0","task_version":"test-retest-t2"},{"Rune":"rune_03_naudiz","Hex":"#3366ff99","Correct":32,"Choice":32,"RT":587.0449999929406,"Accuracy":1,"Outcome":"+10","Keys":[2088.484999985667],"TotalKeys":1,"Block":1,"Trial":19,"Robot":1,"Valence":"Win","Action":"Go","Sham":0,"Color":"blue","trial_type":"pit-trial","trial_index":34,"time_elapsed":465107,"internal_node_id":"0.0-23.0","task_version":"test-retest-t2"},{"Rune":"rune_03_othalan","Hex":"#ffcc3399","Correct":32,"Choice":32,"RT":813.4049999935087,"Accuracy":1,"Outcome":"-1","Keys":[2314.944999990985],"TotalKeys":1,"Block":1,"Trial":20,"Robot":3,"Valence":"Lose","Action":"Go","Sham":0,"Color":"yellow","trial_type":"pit-trial","trial_index":35,"time_elapsed":468425,"internal_node_id":"0.0-24.0","task_version":"test-retest-t2"},{"Rune":"rune_03_algiz","Hex":"#ffcc3399","Correct":-1,"Choice":32,"RT":586.3899999822024,"Accuracy":0,"Outcome":"-10","Keys":[2087.29000002495],"TotalKeys":1,"Block":1,"Trial":21,"Robot":4,"Valence":"Lose","Action":"No-Go","Sham":0,"Color":"yellow","trial_type":"pit-trial","trial_index":36,"time_elapsed":471521,"internal_node_id":"0.0-25.0","task_version":"test-retest-t2"},{"Rune":"rune_03_uruz","Hex":"#3366ff99","Correct":-1,"Choice":-1,"RT":-1,"Accuracy":1,"Outcome":"+10","Keys":[],"TotalKeys":0,"Block":1,"Trial":22,"Robot":2,"Valence":"Win","Action":"No-Go","Sham":0,"Color":"blue","trial_type":"pit-trial","trial_index":37,"time_elapsed":475527,"internal_node_id":"0.0-26.0","task_version":"test-retest-t2"},{"Rune":"rune_03_naudiz","Hex":"#3366ff99","Correct":32,"Choice":32,"RT":424.9249999993481,"Accuracy":1,"Outcome":"+10","Keys":[1927.2300000011455],"TotalKeys":1,"Block":1,"Trial":23,"Robot":1,"Valence":"Win","Action":"Go","Sham":0,"Color":"blue","trial_type":"pit-trial","trial_index":38,"time_elapsed":478458,"internal_node_id":"0.0-27.0","task_version":"test-retest-t2"},{"Rune":"rune_03_othalan","Hex":"#ffcc3399","Correct":32,"Choice":32,"RT":711.459999991348,"Accuracy":1,"Outcome":"-10","Keys":[2213.0400000023656],"TotalKeys":1,"Block":1,"Trial":24,"Robot":3,"Valence":"Lose","Action":"Go","Sham":1,"Color":"yellow","trial_type":"pit-trial","trial_index":39,"time_elapsed":481709,"internal_node_id":"0.0-28.0","task_version":"test-retest-t2"},{"Rune":"rune_03_othalan","Hex":"#ffcc3399","Correct":32,"Choice":32,"RT":612.9050000163261,"Accuracy":1,"Outcome":"-1","Keys":[2113.884999998845],"TotalKeys":1,"Block":1,"Trial":25,"Robot":3,"Valence":"Lose","Action":"Go","Sham":0,"Color":"yellow","trial_type":"pit-trial","trial_index":40,"time_elapsed":484825,"internal_node_id":"0.0-29.0","task_version":"test-retest-t2"},{"Rune":"rune_03_algiz","Hex":"#ffcc3399","Correct":-1,"Choice":-1,"RT":-1,"Accuracy":1,"Outcome":"-1","Keys":[],"TotalKeys":0,"Block":1,"Trial":26,"Robot":4,"Valence":"Lose","Action":"No-Go","Sham":0,"Color":"yellow","trial_type":"pit-trial","trial_index":41,"time_elapsed":488854,"internal_node_id":"0.0-30.0","task_version":"test-retest-t2"},{"Rune":"rune_03_uruz","Hex":"#3366ff99","Correct":-1,"Choice":-1,"RT":-1,"Accuracy":1,"Outcome":"+1","Keys":[],"TotalKeys":0,"Block":1,"Trial":27,"Robot":2,"Valence":"Win","Action":"No-Go","Sham":1,"Color":"blue","trial_type":"pit-trial","trial_index":42,"time_elapsed":492869,"internal_node_id":"0.0-31.0","task_version":"test-retest-t2"},{"Rune":"rune_03_naudiz","Hex":"#3366ff99","Correct":32,"Choice":32,"RT":548.4850000066217,"Accuracy":1,"Outcome":"+1","Keys":[2049.5450000162236],"TotalKeys":1,"Block":1,"Trial":28,"Robot":1,"Valence":"Win","Action":"Go","Sham":1,"Color":"blue","trial_type":"pit-trial","trial_index":43,"time_elapsed":495922,"internal_node_id":"0.0-32.0","task_version":"test-retest-t2"},{"Rune":"rune_03_uruz","Hex":"#3366ff99","Correct":-1,"Choice":-1,"RT":-1,"Accuracy":1,"Outcome":"+10","Keys":[],"TotalKeys":0,"Block":1,"Trial":29,"Robot":2,"Valence":"Win","Action":"No-Go","Sham":0,"Color":"blue","trial_type":"pit-trial","trial_index":44,"time_elapsed":499932,"internal_node_id":"0.0-33.0","task_version":"test-retest-t2"},{"Rune":"rune_03_naudiz","Hex":"#3366ff99","Correct":32,"Choice":32,"RT":460.8850000076927,"Accuracy":1,"Outcome":"+10","Keys":[1962.805000017397],"TotalKeys":1,"Block":1,"Trial":30,"Robot":1,"Valence":"Win","Action":"Go","Sham":0,"Color":"blue","trial_type":"pit-trial","trial_index":45,"time_elapsed":502898,"internal_node_id":"0.0-34.0","task_version":"test-retest-t2"},{"Rune":"rune_03_othalan","Hex":"#ffcc3399","Correct":32,"Choice":32,"RT":511.13500000792556,"Accuracy":1,"Outcome":"-1","Keys":[2012.6400000008289],"TotalKeys":1,"Block":1,"Trial":31,"Robot":3,"Valence":"Lose","Action":"Go","Sham":0,"Color":"yellow","trial_type":"pit-trial","trial_index":46,"time_elapsed":505914,"internal_node_id":"0.0-35.0","task_version":"test-retest-t2"},{"Rune":"rune_03_algiz","Hex":"#ffcc3399","Correct":-1,"Choice":-1,"RT":-1,"Accuracy":1,"Outcome":"-1","Keys":[],"TotalKeys":0,"Block":1,"Trial":32,"Robot":4,"Valence":"Lose","Action":"No-Go","Sham":0,"Color":"yellow","trial_type":"pit-trial","trial_index":47,"time_elapsed":509919,"internal_node_id":"0.0-36.0","task_version":"test-retest-t2"},{"Rune":"rune_03_algiz","Hex":"#ffcc3399","Correct":-1,"Choice":-1,"RT":-1,"Accuracy":1,"Outcome":"-1","Keys":[],"TotalKeys":0,"Block":1,"Trial":33,"Robot":4,"Valence":"Lose","Action":"No-Go","Sham":0,"Color":"yellow","trial_type":"pit-trial","trial_index":48,"time_elapsed":513932,"internal_node_id":"0.0-37.0","task_version":"test-retest-t2"},{"Rune":"rune_03_othalan","Hex":"#ffcc3399","Correct":32,"Choice":32,"RT":549.3100000021514,"Accuracy":1,"Outcome":"-1","Keys":[2050.0299999839626],"TotalKeys":1,"Block":1,"Trial":34,"Robot":3,"Valence":"Lose","Action":"Go","Sham":0,"Color":"yellow","trial_type":"pit-trial","trial_index":49,"time_elapsed":516990,"internal_node_id":"0.0-38.0","task_version":"test-retest-t2"},{"Rune":"rune_03_naudiz","Hex":"#3366ff99","Correct":32,"Choice":32,"RT":395.8299999940209,"Accuracy":1,"Outcome":"+10","Keys":[1896.5850000095088],"TotalKeys":1,"Block":1,"Trial":35,"Robot":1,"Valence":"Win","Action":"Go","Sham":0,"Color":"blue","trial_type":"pit-trial","trial_index":50,"time_elapsed":519890,"internal_node_id":"0.0-39.0","task_version":"test-retest-t2"},{"Rune":"rune_03_uruz","Hex":"#3366ff99","Correct":-1,"Choice":-1,"RT":-1,"Accuracy":1,"Outcome":"+10","Keys":[],"TotalKeys":0,"Block":1,"Trial":36,"Robot":2,"Valence":"Win","Action":"No-Go","Sham":0,"Color":"blue","trial_type":"pit-trial","trial_index":51,"time_elapsed":523895,"internal_node_id":"0.0-40.0","task_version":"test-retest-t2"},{"Rune":"rune_03_othalan","Hex":"#ffcc3399","Correct":32,"Choice":32,"RT":827.3700000136159,"Accuracy":1,"Outcome":"-1","Keys":[2327.6699999987613],"TotalKeys":1,"Block":1,"Trial":37,"Robot":3,"Valence":"Lose","Action":"Go","Sham":0,"Color":"yellow","trial_type":"pit-trial","trial_index":52,"time_elapsed":527225,"internal_node_id":"0.0-41.0","task_version":"test-retest-t2"},{"Rune":"rune_03_uruz","Hex":"#3366ff99","Correct":-1,"Choice":-1,"RT":-1,"Accuracy":1,"Outcome":"+10","Keys":[],"TotalKeys":0,"Block":1,"Trial":38,"Robot":2,"Valence":"Win","Action":"No-Go","Sham":0,"Color":"blue","trial_type":"pit-trial","trial_index":53,"time_elapsed":531231,"internal_node_id":"0.0-42.0","task_version":"test-retest-t2"},{"Rune":"rune_03_algiz","Hex":"#ffcc3399","Correct":-1,"Choice":-1,"RT":-1,"Accuracy":1,"Outcome":"-10","Keys":[],"TotalKeys":0,"Block":1,"Trial":39,"Robot":4,"Valence":"Lose","Action":"No-Go","Sham":1,"Color":"yellow","trial_type":"pit-trial","trial_index":54,"time_elapsed":535240,"internal_node_id":"0.0-43.0","task_version":"test-retest-t2"},{"Rune":"rune_03_naudiz","Hex":"#3366ff99","Correct":32,"Choice":32,"RT":385.59499999973923,"Accuracy":1,"Outcome":"+10","Keys":[1886.159999994561],"TotalKeys":1,"Block":1,"Trial":40,"Robot":1,"Valence":"Win","Action":"Go","Sham":0,"Color":"blue","trial_type":"pit-trial","trial_index":55,"time_elapsed":538132,"internal_node_id":"0.0-44.0","task_version":"test-retest-t2"},{"Rune":"rune_03_othalan","Hex":"#ffcc3399","Correct":32,"Choice":32,"RT":547.8600000205915,"Accuracy":1,"Outcome":"-10","Keys":[2049.5999999984633],"TotalKeys":1,"Block":1,"Trial":41,"Robot":3,"Valence":"Lose","Action":"Go","Sham":1,"Color":"yellow","trial_type":"pit-trial","trial_index":56,"time_elapsed":541185,"internal_node_id":"0.0-45.0","task_version":"test-retest-t2"},{"Rune":"rune_03_algiz","Hex":"#ffcc3399","Correct":-1,"Choice":-1,"RT":-1,"Accuracy":1,"Outcome":"-1","Keys":[],"TotalKeys":0,"Block":1,"Trial":42,"Robot":4,"Valence":"Lose","Action":"No-Go","Sham":0,"Color":"yellow","trial_type":"pit-trial","trial_index":57,"time_elapsed":545190,"internal_node_id":"0.0-46.0","task_version":"test-retest-t2"},{"Rune":"rune_03_naudiz","Hex":"#3366ff99","Correct":32,"Choice":32,"RT":387.3149999999441,"Accuracy":1,"Outcome":"+1","Keys":[1887.975000019651],"TotalKeys":1,"Block":1,"Trial":43,"Robot":1,"Valence":"Win","Action":"Go","Sham":1,"Color":"blue","trial_type":"pit-trial","trial_index":58,"time_elapsed":548083,"internal_node_id":"0.0-47.0","task_version":"test-retest-t2"},{"Rune":"rune_03_uruz","Hex":"#3366ff99","Correct":-1,"Choice":-1,"RT":-1,"Accuracy":1,"Outcome":"+10","Keys":[],"TotalKeys":0,"Block":1,"Trial":44,"Robot":2,"Valence":"Win","Action":"No-Go","Sham":0,"Color":"blue","trial_type":"pit-trial","trial_index":59,"time_elapsed":552087,"internal_node_id":"0.0-48.0","task_version":"test-retest-t2"},{"Rune":"rune_03_uruz","Hex":"#3366ff99","Correct":-1,"Choice":-1,"RT":-1,"Accuracy":1,"Outcome":"+1","Keys":[],"TotalKeys":0,"Block":1,"Trial":45,"Robot":2,"Valence":"Win","Action":"No-Go","Sham":1,"Color":"blue","trial_type":"pit-trial","trial_index":60,"time_elapsed":556093,"internal_node_id":"0.0-49.0","task_version":"test-retest-t2"},{"Rune":"rune_03_othalan","Hex":"#ffcc3399","Correct":32,"Choice":32,"RT":437.39500001538545,"Accuracy":1,"Outcome":"-1","Keys":[1937.9400000034366],"TotalKeys":1,"Block":1,"Trial":46,"Robot":3,"Valence":"Lose","Action":"Go","Sham":0,"Color":"yellow","trial_type":"pit-trial","trial_index":61,"time_elapsed":559034,"internal_node_id":"0.0-50.0","task_version":"test-retest-t2"},{"Rune":"rune_03_algiz","Hex":"#ffcc3399","Correct":-1,"Choice":-1,"RT":-1,"Accuracy":1,"Outcome":"-10","Keys":[],"TotalKeys":0,"Block":1,"Trial":47,"Robot":4,"Valence":"Lose","Action":"No-Go","Sham":1,"Color":"yellow","trial_type":"pit-trial","trial_index":62,"time_elapsed":563043,"internal_node_id":"0.0-51.0","task_version":"test-retest-t2"},{"Rune":"rune_03_naudiz","Hex":"#3366ff99","Correct":32,"Choice":32,"RT":374.4599999918137,"Accuracy":1,"Outcome":"+10","Keys":[1874.9799999932293],"TotalKeys":1,"Block":1,"Trial":48,"Robot":1,"Valence":"Win","Action":"Go","Sham":0,"Color":"blue","trial_type":"pit-trial","trial_index":63,"time_elapsed":565924,"internal_node_id":"0.0-52.0","task_version":"test-retest-t2"},{"Rune":"rune_03_othalan","Hex":"#ffcc3399","Correct":32,"Choice":32,"RT":475.27500000433065,"Accuracy":1,"Outcome":"-1","Keys":[1976.859999995213],"TotalKeys":1,"Block":1,"Trial":49,"Robot":3,"Valence":"Lose","Action":"Go","Sham":0,"Color":"yellow","trial_type":"pit-trial","trial_index":64,"time_elapsed":568907,"internal_node_id":"0.0-53.0","task_version":"test-retest-t2"},{"Rune":"rune_03_algiz","Hex":"#ffcc3399","Correct":-1,"Choice":-1,"RT":-1,"Accuracy":1,"Outcome":"-1","Keys":[],"TotalKeys":0,"Block":1,"Trial":50,"Robot":4,"Valence":"Lose","Action":"No-Go","Sham":0,"Color":"yellow","trial_type":"pit-trial","trial_index":65,"time_elapsed":572911,"internal_node_id":"0.0-54.0","task_version":"test-retest-t2"},{"Rune":"rune_03_uruz","Hex":"#3366ff99","Correct":-1,"Choice":-1,"RT":-1,"Accuracy":1,"Outcome":"+10","Keys":[],"TotalKeys":0,"Block":1,"Trial":51,"Robot":2,"Valence":"Win","Action":"No-Go","Sham":0,"Color":"blue","trial_type":"pit-trial","trial_index":66,"time_elapsed":576921,"internal_node_id":"0.0-55.0","task_version":"test-retest-t2"},{"Rune":"rune_03_naudiz","Hex":"#3366ff99","Correct":32,"Choice":32,"RT":464.6000000066124,"Accuracy":1,"Outcome":"+10","Keys":[1965.8399999898393],"TotalKeys":1,"Block":1,"Trial":52,"Robot":1,"Valence":"Win","Action":"Go","Sham":0,"Color":"blue","trial_type":"pit-trial","trial_index":67,"time_elapsed":579891,"internal_node_id":"0.0-56.0","task_version":"test-retest-t2"},{"Rune":"rune_03_othalan","Hex":"#ffcc3399","Correct":32,"Choice":32,"RT":440.43499999679625,"Accuracy":1,"Outcome":"-1","Keys":[1940.8100000000559],"TotalKeys":1,"Block":1,"Trial":53,"Robot":3,"Valence":"Lose","Action":"Go","Sham":0,"Color":"yellow","trial_type":"pit-trial","trial_index":68,"time_elapsed":582835,"internal_node_id":"0.0-57.0","task_version":"test-retest-t2"},{"Rune":"rune_03_algiz","Hex":"#ffcc3399","Correct":-1,"Choice":-1,"RT":-1,"Accuracy":1,"Outcome":"-1","Keys":[],"TotalKeys":0,"Block":1,"Trial":54,"Robot":4,"Valence":"Lose","Action":"No-Go","Sham":0,"Color":"yellow","trial_type":"pit-trial","trial_index":69,"time_elapsed":586842,"internal_node_id":"0.0-58.0","task_version":"test-retest-t2"},{"Rune":"rune_03_uruz","Hex":"#3366ff99","Correct":-1,"Choice":-1,"RT":-1,"Accuracy":1,"Outcome":"+10","Keys":[],"TotalKeys":0,"Block":1,"Trial":55,"Robot":2,"Valence":"Win","Action":"No-Go","Sham":0,"Color":"blue","trial_type":"pit-trial","trial_index":70,"time_elapsed":590850,"internal_node_id":"0.0-59.0","task_version":"test-retest-t2"},{"Rune":"rune_03_naudiz","Hex":"#3366ff99","Correct":32,"Choice":32,"RT":351.5299999853596,"Accuracy":1,"Outcome":"+10","Keys":[1852.2150000208057],"TotalKeys":1,"Block":1,"Trial":56,"Robot":1,"Valence":"Win","Action":"Go","Sham":0,"Color":"blue","trial_type":"pit-trial","trial_index":71,"time_elapsed":593707,"internal_node_id":"0.0-60.0","task_version":"test-retest-t2"},{"Rune":"rune_03_naudiz","Hex":"#3366ff99","Correct":32,"Choice":32,"RT":534.3949999951292,"Accuracy":1,"Outcome":"+10","Keys":[2036.9399999908637],"TotalKeys":1,"Block":1,"Trial":57,"Robot":1,"Valence":"Win","Action":"Go","Sham":0,"Color":"blue","trial_type":"pit-trial","trial_index":72,"time_elapsed":596748,"internal_node_id":"0.0-61.0","task_version":"test-retest-t2"},{"Rune":"rune_03_uruz","Hex":"#3366ff99","Correct":-1,"Choice":-1,"RT":-1,"Accuracy":1,"Outcome":"+10","Keys":[],"TotalKeys":0,"Block":1,"Trial":58,"Robot":2,"Valence":"Win","Action":"No-Go","Sham":0,"Color":"blue","trial_type":"pit-trial","trial_index":73,"time_elapsed":600752,"internal_node_id":"0.0-62.0","task_version":"test-retest-t2"},{"Rune":"rune_03_othalan","Hex":"#ffcc3399","Correct":32,"Choice":32,"RT":498.0799999902956,"Accuracy":1,"Outcome":"-1","Keys":[1999.2749999801163],"TotalKeys":1,"Block":1,"Trial":59,"Robot":3,"Valence":"Lose","Action":"Go","Sham":0,"Color":"yellow","trial_type":"pit-trial","trial_index":74,"time_elapsed":603768,"internal_node_id":"0.0-63.0","task_version":"test-retest-t2"},{"Rune":"rune_03_algiz","Hex":"#ffcc3399","Correct":-1,"Choice":-1,"RT":-1,"Accuracy":1,"Outcome":"-1","Keys":[],"TotalKeys":0,"Block":1,"Trial":60,"Robot":4,"Valence":"Lose","Action":"No-Go","Sham":0,"Color":"yellow","trial_type":"pit-trial","trial_index":75,"time_elapsed":607774,"internal_node_id":"0.0-64.0","task_version":"test-retest-t2"},{"value":false,"trial_type":"call-function","trial_index":76,"time_elapsed":607776,"internal_node_id":"0.0-65.0","task_version":"test-retest-t2"},{"view_history":"[{\"page_index\":0,\"viewing_time\":12838.780000020051},{\"page_index\":1,\"viewing_time\":10704.029999993509}]","rt":23543.269999994664,"trial_type":"pit-instructions","trial_index":77,"time_elapsed":631321,"internal_node_id":"0.0-66.0","task_version":"test-retest-t2"},{"Rune":"rune_03_othalan","Hex":"#ffcc3399","Correct":32,"Choice":32,"RT":519.0700000093784,"Accuracy":1,"Outcome":"-1","Keys":[2020.474999997532],"TotalKeys":1,"Block":1,"Trial":61,"Robot":3,"Valence":"Lose","Action":"Go","Sham":0,"Color":"yellow","trial_type":"pit-trial","trial_index":78,"time_elapsed":634345,"internal_node_id":"0.0-67.0","task_version":"test-retest-t2"},{"Rune":"rune_03_naudiz","Hex":"#3366ff99","Correct":32,"Choice":32,"RT":375.9100000024773,"Accuracy":1,"Outcome":"+10","Keys":[1877.2749999770895],"TotalKeys":1,"Block":1,"Trial":62,"Robot":1,"Valence":"Win","Action":"Go","Sham":0,"Color":"blue","trial_type":"pit-trial","trial_index":79,"time_elapsed":637225,"internal_node_id":"0.0-68.0","task_version":"test-retest-t2"},{"Rune":"rune_03_algiz","Hex":"#ffcc3399","Correct":-1,"Choice":-1,"RT":-1,"Accuracy":1,"Outcome":"-1","Keys":[],"TotalKeys":0,"Block":1,"Trial":63,"Robot":4,"Valence":"Lose","Action":"No-Go","Sham":0,"Color":"yellow","trial_type":"pit-trial","trial_index":80,"time_elapsed":641230,"internal_node_id":"0.0-69.0","task_version":"test-retest-t2"},{"Rune":"rune_03_uruz","Hex":"#3366ff99","Correct":-1,"Choice":-1,"RT":-1,"Accuracy":1,"Outcome":"+1","Keys":[],"TotalKeys":0,"Block":1,"Trial":64,"Robot":2,"Valence":"Win","Action":"No-Go","Sham":1,"Color":"blue","trial_type":"pit-trial","trial_index":81,"time_elapsed":645242,"internal_node_id":"0.0-70.0","task_version":"test-retest-t2"},{"Rune":"rune_03_uruz","Hex":"#3366ff99","Correct":-1,"Choice":-1,"RT":-1,"Accuracy":1,"Outcome":"+10","Keys":[],"TotalKeys":0,"Block":1,"Trial":65,"Robot":2,"Valence":"Win","Action":"No-Go","Sham":0,"Color":"blue","trial_type":"pit-trial","trial_index":82,"time_elapsed":649250,"internal_node_id":"0.0-71.0","task_version":"test-retest-t2"},{"Rune":"rune_03_naudiz","Hex":"#3366ff99","Correct":32,"Choice":32,"RT":343.5600000084378,"Accuracy":1,"Outcome":"+10","Keys":[1843.8700000115205],"TotalKeys":1,"Block":1,"Trial":66,"Robot":1,"Valence":"Win","Action":"Go","Sham":0,"Color":"blue","trial_type":"pit-trial","trial_index":83,"time_elapsed":652099,"internal_node_id":"0.0-72.0","task_version":"test-retest-t2"},{"Rune":"rune_03_algiz","Hex":"#ffcc3399","Correct":-1,"Choice":-1,"RT":-1,"Accuracy":1,"Outcome":"-1","Keys":[],"TotalKeys":0,"Block":1,"Trial":67,"Robot":4,"Valence":"Lose","Action":"No-Go","Sham":0,"Color":"yellow","trial_type":"pit-trial","trial_index":84,"time_elapsed":656103,"internal_node_id":"0.0-73.0","task_version":"test-retest-t2"},{"Rune":"rune_03_othalan","Hex":"#ffcc3399","Correct":32,"Choice":32,"RT":473.9349999872502,"Accuracy":1,"Outcome":"-10","Keys":[1975.6599999964237],"TotalKeys":1,"Block":1,"Trial":68,"Robot":3,"Valence":"Lose","Action":"Go","Sham":1,"Color":"yellow","trial_type":"pit-trial","trial_index":85,"time_elapsed":659082,"internal_node_id":"0.0-74.0","task_version":"test-retest-t2"},{"Rune":"rune_03_naudiz","Hex":"#3366ff99","Correct":32,"Choice":32,"RT":519.2300000053365,"Accuracy":1,"Outcome":"+10","Keys":[2020.8049999782816],"TotalKeys":1,"Block":1,"Trial":69,"Robot":1,"Valence":"Win","Action":"Go","Sham":0,"Color":"blue","trial_type":"pit-trial","trial_index":86,"time_elapsed":662108,"internal_node_id":"0.0-75.0","task_version":"test-retest-t2"},{"Rune":"rune_03_othalan","Hex":"#ffcc3399","Correct":32,"Choice":32,"RT":365.3850000118837,"Accuracy":1,"Outcome":"-1","Keys":[1866.9150000205263],"TotalKeys":1,"Block":1,"Trial":70,"Robot":3,"Valence":"Lose","Action":"Go","Sham":0,"Color":"yellow","trial_type":"pit-trial","trial_index":87,"time_elapsed":664978,"internal_node_id":"0.0-76.0","task_version":"test-retest-t2"},{"Rune":"rune_03_uruz","Hex":"#3366ff99","Correct":-1,"Choice":-1,"RT":-1,"Accuracy":1,"Outcome":"+10","Keys":[],"TotalKeys":0,"Block":1,"Trial":71,"Robot":2,"Valence":"Win","Action":"No-Go","Sham":0,"Color":"blue","trial_type":"pit-trial","trial_index":88,"time_elapsed":668983,"internal_node_id":"0.0-77.0","task_version":"test-retest-t2"},{"Rune":"rune_03_algiz","Hex":"#ffcc3399","Correct":-1,"Choice":-1,"RT":-1,"Accuracy":1,"Outcome":"-1","Keys":[],"TotalKeys":0,"Block":1,"Trial":72,"Robot":4,"Valence":"Lose","Action":"No-Go","Sham":0,"Color":"yellow","trial_type":"pit-trial","trial_index":89,"time_elapsed":672991,"internal_node_id":"0.0-78.0","task_version":"test-retest-t2"},{"Rune":"rune_03_uruz","Hex":"#3366ff99","Correct":-1,"Choice":-1,"RT":-1,"Accuracy":1,"Outcome":"+10","Keys":[],"TotalKeys":0,"Block":1,"Trial":73,"Robot":2,"Valence":"Win","Action":"No-Go","Sham":0,"Color":"blue","trial_type":"pit-trial","trial_index":90,"time_elapsed":676995,"internal_node_id":"0.0-79.0","task_version":"test-retest-t2"},{"Rune":"rune_03_naudiz","Hex":"#3366ff99","Correct":32,"Choice":32,"RT":447.13000001502223,"Accuracy":1,"Outcome":"+1","Keys":[1947.5000000093132],"TotalKeys":1,"Block":1,"Trial":74,"Robot":1,"Valence":"Win","Action":"Go","Sham":1,"Color":"blue","trial_type":"pit-trial","trial_index":91,"time_elapsed":679946,"internal_node_id":"0.0-80.0","task_version":"test-retest-t2"},{"Rune":"rune_03_algiz","Hex":"#ffcc3399","Correct":-1,"Choice":-1,"RT":-1,"Accuracy":1,"Outcome":"-10","Keys":[],"TotalKeys":0,"Block":1,"Trial":75,"Robot":4,"Valence":"Lose","Action":"No-Go","Sham":1,"Color":"yellow","trial_type":"pit-trial","trial_index":92,"time_elapsed":683953,"internal_node_id":"0.0-81.0","task_version":"test-retest-t2"},{"Rune":"rune_03_othalan","Hex":"#ffcc3399","Correct":32,"Choice":32,"RT":303.9100000169128,"Accuracy":1,"Outcome":"-1","Keys":[1805.1350000023376],"TotalKeys":1,"Block":1,"Trial":76,"Robot":3,"Valence":"Lose","Action":"Go","Sham":0,"Color":"yellow","trial_type":"pit-trial","trial_index":93,"time_elapsed":686761,"internal_node_id":"0.0-82.0","task_version":"test-retest-t2"},{"Rune":"rune_03_naudiz","Hex":"#3366ff99","Correct":32,"Choice":32,"RT":432.9699999943841,"Accuracy":1,"Outcome":"+10","Keys":[1934.529999998631],"TotalKeys":1,"Block":1,"Trial":77,"Robot":1,"Valence":"Win","Action":"Go","Sham":0,"Color":"blue","trial_type":"pit-trial","trial_index":94,"time_elapsed":689700,"internal_node_id":"0.0-83.0","task_version":"test-retest-t2"},{"Rune":"rune_03_algiz","Hex":"#ffcc3399","Correct":-1,"Choice":-1,"RT":-1,"Accuracy":1,"Outcome":"-1","Keys":[],"TotalKeys":0,"Block":1,"Trial":78,"Robot":4,"Valence":"Lose","Action":"No-Go","Sham":0,"Color":"yellow","trial_type":"pit-trial","trial_index":95,"time_elapsed":693705,"internal_node_id":"0.0-84.0","task_version":"test-retest-t2"},{"Rune":"rune_03_othalan","Hex":"#ffcc3399","Correct":32,"Choice":32,"RT":431.56999998609535,"Accuracy":1,"Outcome":"-1","Keys":[1933.904999983497],"TotalKeys":1,"Block":1,"Trial":79,"Robot":3,"Valence":"Lose","Action":"Go","Sham":0,"Color":"yellow","trial_type":"pit-trial","trial_index":96,"time_elapsed":696658,"internal_node_id":"0.0-85.0","task_version":"test-retest-t2"},{"Rune":"rune_03_uruz","Hex":"#3366ff99","Correct":-1,"Choice":-1,"RT":-1,"Accuracy":1,"Outcome":"+10","Keys":[],"TotalKeys":0,"Block":1,"Trial":80,"Robot":2,"Valence":"Win","Action":"No-Go","Sham":0,"Color":"blue","trial_type":"pit-trial","trial_index":97,"time_elapsed":700663,"internal_node_id":"0.0-86.0","task_version":"test-retest-t2"},{"Rune":"rune_03_algiz","Hex":"#ffcc3399","Correct":-1,"Choice":-1,"RT":-1,"Accuracy":1,"Outcome":"-1","Keys":[],"TotalKeys":0,"Block":1,"Trial":81,"Robot":4,"Valence":"Lose","Action":"No-Go","Sham":0,"Color":"yellow","trial_type":"pit-trial","trial_index":98,"time_elapsed":704668,"internal_node_id":"0.0-87.0","task_version":"test-retest-t2"},{"Rune":"rune_03_naudiz","Hex":"#3366ff99","Correct":32,"Choice":32,"RT":349.5450000045821,"Accuracy":1,"Outcome":"+10","Keys":[1850.6199999828823],"TotalKeys":1,"Block":1,"Trial":82,"Robot":1,"Valence":"Win","Action":"Go","Sham":0,"Color":"blue","trial_type":"pit-trial","trial_index":99,"time_elapsed":707544,"internal_node_id":"0.0-88.0","task_version":"test-retest-t2"},{"Rune":"rune_03_uruz","Hex":"#3366ff99","Correct":-1,"Choice":-1,"RT":-1,"Accuracy":1,"Outcome":"+10","Keys":[],"TotalKeys":0,"Block":1,"Trial":83,"Robot":2,"Valence":"Win","Action":"No-Go","Sham":0,"Color":"blue","trial_type":"pit-trial","trial_index":100,"time_elapsed":711549,"internal_node_id":"0.0-89.0","task_version":"test-retest-t2"},{"Rune":"rune_03_othalan","Hex":"#ffcc3399","Correct":32,"Choice":32,"RT":331.6449999983888,"Accuracy":1,"Outcome":"-1","Keys":[1832.1799999976065],"TotalKeys":1,"Block":1,"Trial":84,"Robot":3,"Valence":"Lose","Action":"Go","Sham":0,"Color":"yellow","trial_type":"pit-trial","trial_index":101,"time_elapsed":714386,"internal_node_id":"0.0-90.0","task_version":"test-retest-t2"},{"Rune":"rune_03_algiz","Hex":"#ffcc3399","Correct":-1,"Choice":-1,"RT":-1,"Accuracy":1,"Outcome":"-1","Keys":[],"TotalKeys":0,"Block":1,"Trial":85,"Robot":4,"Valence":"Lose","Action":"No-Go","Sham":0,"Color":"yellow","trial_type":"pit-trial","trial_index":102,"time_elapsed":718391,"internal_node_id":"0.0-91.0","task_version":"test-retest-t2"},{"Rune":"rune_03_uruz","Hex":"#3366ff99","Correct":-1,"Choice":-1,"RT":-1,"Accuracy":1,"Outcome":"+1","Keys":[],"TotalKeys":0,"Block":1,"Trial":86,"Robot":2,"Valence":"Win","Action":"No-Go","Sham":1,"Color":"blue","trial_type":"pit-trial","trial_index":103,"time_elapsed":722397,"internal_node_id":"0.0-92.0","task_version":"test-retest-t2"},{"Rune":"rune_03_naudiz","Hex":"#3366ff99","Correct":32,"Choice":32,"RT":381.59999999334104,"Accuracy":1,"Outcome":"+10","Keys":[1882.7999999921303],"TotalKeys":1,"Block":1,"Trial":87,"Robot":1,"Valence":"Win","Action":"Go","Sham":0,"Color":"blue","trial_type":"pit-trial","trial_index":104,"time_elapsed":725282,"internal_node_id":"0.0-93.0","task_version":"test-retest-t2"},{"Rune":"rune_03_othalan","Hex":"#ffcc3399","Correct":32,"Choice":32,"RT":407.8800000133924,"Accuracy":1,"Outcome":"-1","Keys":[1909.4550000154413],"TotalKeys":1,"Block":1,"Trial":88,"Robot":3,"Valence":"Lose","Action":"Go","Sham":0,"Color":"yellow","trial_type":"pit-trial","trial_index":105,"time_elapsed":728193,"internal_node_id":"0.0-94.0","task_version":"test-retest-t2"},{"Rune":"rune_03_naudiz","Hex":"#3366ff99","Correct":32,"Choice":32,"RT":345.23999999510124,"Accuracy":1,"Outcome":"+10","Keys":[1845.725000021048],"TotalKeys":1,"Block":1,"Trial":89,"Robot":1,"Valence":"Win","Action":"Go","Sham":0,"Color":"blue","trial_type":"pit-trial","trial_index":106,"time_elapsed":731043,"internal_node_id":"0.0-95.0","task_version":"test-retest-t2"},{"Rune":"rune_03_othalan","Hex":"#ffcc3399","Correct":32,"Choice":32,"RT":457.33999999356456,"Accuracy":1,"Outcome":"-1","Keys":[1957.894999999553],"TotalKeys":1,"Block":1,"Trial":90,"Robot":3,"Valence":"Lose","Action":"Go","Sham":0,"Color":"yellow","trial_type":"pit-trial","trial_index":107,"time_elapsed":734003,"internal_node_id":"0.0-96.0","task_version":"test-retest-t2"},{"Rune":"rune_03_algiz","Hex":"#ffcc3399","Correct":-1,"Choice":-1,"RT":-1,"Accuracy":1,"Outcome":"-10","Keys":[],"TotalKeys":0,"Block":1,"Trial":91,"Robot":4,"Valence":"Lose","Action":"No-Go","Sham":1,"Color":"yellow","trial_type":"pit-trial","trial_index":108,"time_elapsed":738007,"internal_node_id":"0.0-97.0","task_version":"test-retest-t2"},{"Rune":"rune_03_uruz","Hex":"#3366ff99","Correct":-1,"Choice":-1,"RT":-1,"Accuracy":1,"Outcome":"+10","Keys":[],"TotalKeys":0,"Block":1,"Trial":92,"Robot":2,"Valence":"Win","Action":"No-Go","Sham":0,"Color":"blue","trial_type":"pit-trial","trial_index":109,"time_elapsed":742011,"internal_node_id":"0.0-98.0","task_version":"test-retest-t2"},{"Rune":"rune_03_algiz","Hex":"#ffcc3399","Correct":-1,"Choice":-1,"RT":-1,"Accuracy":1,"Outcome":"-1","Keys":[],"TotalKeys":0,"Block":1,"Trial":93,"Robot":4,"Valence":"Lose","Action":"No-Go","Sham":0,"Color":"yellow","trial_type":"pit-trial","trial_index":110,"time_elapsed":746019,"internal_node_id":"0.0-99.0","task_version":"test-retest-t2"},{"Rune":"rune_03_othalan","Hex":"#ffcc3399","Correct":32,"Choice":32,"RT":367.9249999986496,"Accuracy":1,"Outcome":"-1","Keys":[1868.5699999914505],"TotalKeys":1,"Block":1,"Trial":94,"Robot":3,"Valence":"Lose","Action":"Go","Sham":0,"Color":"yellow","trial_type":"pit-trial","trial_index":111,"time_elapsed":748891,"internal_node_id":"0.0-100.0","task_version":"test-retest-t2"},{"Rune":"rune_03_uruz","Hex":"#3366ff99","Correct":-1,"Choice":-1,"RT":-1,"Accuracy":1,"Outcome":"+10","Keys":[],"TotalKeys":0,"Block":1,"Trial":95,"Robot":2,"Valence":"Win","Action":"No-Go","Sham":0,"Color":"blue","trial_type":"pit-trial","trial_index":112,"time_elapsed":752898,"internal_node_id":"0.0-101.0","task_version":"test-retest-t2"},{"Rune":"rune_03_naudiz","Hex":"#3366ff99","Correct":32,"Choice":32,"RT":479.3399999907706,"Accuracy":1,"Outcome":"+10","Keys":[1980.230000015581],"TotalKeys":1,"Block":1,"Trial":96,"Robot":1,"Valence":"Win","Action":"Go","Sham":0,"Color":"blue","trial_type":"pit-trial","trial_index":113,"time_elapsed":755882,"internal_node_id":"0.0-102.0","task_version":"test-retest-t2"},{"Rune":"rune_03_othalan","Hex":"#ffcc3399","Correct":32,"Choice":32,"RT":513.9250000065658,"Accuracy":1,"Outcome":"-10","Keys":[2013.9999999955762],"TotalKeys":1,"Block":1,"Trial":97,"Robot":3,"Valence":"Lose","Action":"Go","Sham":1,"Color":"yellow","trial_type":"pit-trial","trial_index":114,"time_elapsed":758899,"internal_node_id":"0.0-103.0","task_version":"test-retest-t2"},{"Rune":"rune_03_naudiz","Hex":"#3366ff99","Correct":32,"Choice":32,"RT":486.05000000679865,"Accuracy":1,"Outcome":"+1","Keys":[1987.5600000086706],"TotalKeys":1,"Block":1,"Trial":98,"Robot":1,"Valence":"Win","Action":"Go","Sham":1,"Color":"blue","trial_type":"pit-trial","trial_index":115,"time_elapsed":761891,"internal_node_id":"0.0-104.0","task_version":"test-retest-t2"},{"Rune":"rune_03_uruz","Hex":"#3366ff99","Correct":-1,"Choice":-1,"RT":-1,"Accuracy":1,"Outcome":"+10","Keys":[],"TotalKeys":0,"Block":1,"Trial":99,"Robot":2,"Valence":"Win","Action":"No-Go","Sham":0,"Color":"blue","trial_type":"pit-trial","trial_index":116,"time_elapsed":765897,"internal_node_id":"0.0-105.0","task_version":"test-retest-t2"},{"Rune":"rune_03_algiz","Hex":"#ffcc3399","Correct":-1,"Choice":-1,"RT":-1,"Accuracy":1,"Outcome":"-1","Keys":[],"TotalKeys":0,"Block":1,"Trial":100,"Robot":4,"Valence":"Lose","Action":"No-Go","Sham":0,"Color":"yellow","trial_type":"pit-trial","trial_index":117,"time_elapsed":769901,"internal_node_id":"0.0-106.0","task_version":"test-retest-t2"},{"Rune":"rune_03_othalan","Hex":"#ffcc3399","Correct":32,"Choice":32,"RT":305.65500000375323,"Accuracy":1,"Outcome":"-1","Keys":[1806.4850000082515],"TotalKeys":1,"Block":1,"Trial":101,"Robot":3,"Valence":"Lose","Action":"Go","Sham":0,"Color":"yellow","trial_type":"pit-trial","trial_index":118,"time_elapsed":772714,"internal_node_id":"0.0-107.0","task_version":"test-retest-t2"},{"Rune":"rune_03_uruz","Hex":"#3366ff99","Correct":-1,"Choice":-1,"RT":-1,"Accuracy":1,"Outcome":"+10","Keys":[],"TotalKeys":0,"Block":1,"Trial":102,"Robot":2,"Valence":"Win","Action":"No-Go","Sham":0,"Color":"blue","trial_type":"pit-trial","trial_index":119,"time_elapsed":776723,"internal_node_id":"0.0-108.0","task_version":"test-retest-t2"},{"Rune":"rune_03_naudiz","Hex":"#3366ff99","Correct":32,"Choice":32,"RT":486.0399999888614,"Accuracy":1,"Outcome":"+10","Keys":[1986.3750000076834],"TotalKeys":1,"Block":1,"Trial":103,"Robot":1,"Valence":"Win","Action":"Go","Sham":0,"Color":"blue","trial_type":"pit-trial","trial_index":120,"time_elapsed":779713,"internal_node_id":"0.0-109.0","task_version":"test-retest-t2"},{"Rune":"rune_03_algiz","Hex":"#ffcc3399","Correct":-1,"Choice":-1,"RT":-1,"Accuracy":1,"Outcome":"-1","Keys":[],"TotalKeys":0,"Block":1,"Trial":104,"Robot":4,"Valence":"Lose","Action":"No-Go","Sham":0,"Color":"yellow","trial_type":"pit-trial","trial_index":121,"time_elapsed":783720,"internal_node_id":"0.0-110.0","task_version":"test-retest-t2"},{"Rune":"rune_03_algiz","Hex":"#ffcc3399","Correct":-1,"Choice":-1,"RT":-1,"Accuracy":1,"Outcome":"-1","Keys":[],"TotalKeys":0,"Block":1,"Trial":105,"Robot":4,"Valence":"Lose","Action":"No-Go","Sham":0,"Color":"yellow","trial_type":"pit-trial","trial_index":122,"time_elapsed":787725,"internal_node_id":"0.0-111.0","task_version":"test-retest-t2"},{"Rune":"rune_03_naudiz","Hex":"#3366ff99","Correct":32,"Choice":32,"RT":453.4799999964889,"Accuracy":1,"Outcome":"+10","Keys":[1954.6149999951012],"TotalKeys":1,"Block":1,"Trial":106,"Robot":1,"Valence":"Win","Action":"Go","Sham":0,"Color":"blue","trial_type":"pit-trial","trial_index":123,"time_elapsed":790683,"internal_node_id":"0.0-112.0","task_version":"test-retest-t2"},{"Rune":"rune_03_othalan","Hex":"#ffcc3399","Correct":32,"Choice":32,"RT":470.5499999981839,"Accuracy":1,"Outcome":"-1","Keys":[1971.8750000174623],"TotalKeys":1,"Block":1,"Trial":107,"Robot":3,"Valence":"Lose","Action":"Go","Sham":0,"Color":"yellow","trial_type":"pit-trial","trial_index":124,"time_elapsed":793658,"internal_node_id":"0.0-113.0","task_version":"test-retest-t2"},{"Rune":"rune_03_uruz","Hex":"#3366ff99","Correct":-1,"Choice":-1,"RT":-1,"Accuracy":1,"Outcome":"+10","Keys":[],"TotalKeys":0,"Block":1,"Trial":108,"Robot":2,"Valence":"Win","Action":"No-Go","Sham":0,"Color":"blue","trial_type":"pit-trial","trial_index":125,"time_elapsed":797664,"internal_node_id":"0.0-114.0","task_version":"test-retest-t2"},{"Rune":"rune_03_naudiz","Hex":"#3366ff99","Correct":32,"Choice":32,"RT":345.9750000038184,"Accuracy":1,"Outcome":"+1","Keys":[1846.31999998237],"TotalKeys":1,"Block":1,"Trial":109,"Robot":1,"Valence":"Win","Action":"Go","Sham":1,"Color":"blue","trial_type":"pit-trial","trial_index":126,"time_elapsed":800514,"internal_node_id":"0.0-115.0","task_version":"test-retest-t2"},{"Rune":"rune_03_uruz","Hex":"#3366ff99","Correct":-1,"Choice":-1,"RT":-1,"Accuracy":1,"Outcome":"+10","Keys":[],"TotalKeys":0,"Block":1,"Trial":110,"Robot":2,"Valence":"Win","Action":"No-Go","Sham":0,"Color":"blue","trial_type":"pit-trial","trial_index":127,"time_elapsed":804519,"internal_node_id":"0.0-116.0","task_version":"test-retest-t2"},{"Rune":"rune_03_othalan","Hex":"#ffcc3399","Correct":32,"Choice":32,"RT":514.9200000159908,"Accuracy":1,"Outcome":"-1","Keys":[2015.704999997979],"TotalKeys":1,"Block":1,"Trial":111,"Robot":3,"Valence":"Lose","Action":"Go","Sham":0,"Color":"yellow","trial_type":"pit-trial","trial_index":128,"time_elapsed":807538,"internal_node_id":"0.0-117.0","task_version":"test-retest-t2"},{"Rune":"rune_03_algiz","Hex":"#ffcc3399","Correct":-1,"Choice":-1,"RT":-1,"Accuracy":1,"Outcome":"-10","Keys":[],"TotalKeys":0,"Block":1,"Trial":112,"Robot":4,"Valence":"Lose","Action":"No-Go","Sham":1,"Color":"yellow","trial_type":"pit-trial","trial_index":129,"time_elapsed":811545,"internal_node_id":"0.0-118.0","task_version":"test-retest-t2"},{"Rune":"rune_03_othalan","Hex":"#ffcc3399","Correct":32,"Choice":32,"RT":479.77500001434237,"Accuracy":1,"Outcome":"-1","Keys":[1981.7399999883492],"TotalKeys":1,"Block":1,"Trial":113,"Robot":3,"Valence":"Lose","Action":"Go","Sham":0,"Color":"yellow","trial_type":"pit-trial","trial_index":130,"time_elapsed":814529,"internal_node_id":"0.0-119.0","task_version":"test-retest-t2"},{"Rune":"rune_03_algiz","Hex":"#ffcc3399","Correct":-1,"Choice":-1,"RT":-1,"Accuracy":1,"Outcome":"-1","Keys":[],"TotalKeys":0,"Block":1,"Trial":114,"Robot":4,"Valence":"Lose","Action":"No-Go","Sham":0,"Color":"yellow","trial_type":"pit-trial","trial_index":131,"time_elapsed":818535,"internal_node_id":"0.0-120.0","task_version":"test-retest-t2"},{"Rune":"rune_03_naudiz","Hex":"#3366ff99","Correct":32,"Choice":32,"RT":306.99000001186505,"Accuracy":1,"Outcome":"+10","Keys":[1807.2500000125729],"TotalKeys":1,"Block":1,"Trial":115,"Robot":1,"Valence":"Win","Action":"Go","Sham":0,"Color":"blue","trial_type":"pit-trial","trial_index":132,"time_elapsed":821360,"internal_node_id":"0.0-121.0","task_version":"test-retest-t2"},{"Rune":"rune_03_uruz","Hex":"#3366ff99","Correct":-1,"Choice":-1,"RT":-1,"Accuracy":1,"Outcome":"+10","Keys":[],"TotalKeys":0,"Block":1,"Trial":116,"Robot":2,"Valence":"Win","Action":"No-Go","Sham":0,"Color":"blue","trial_type":"pit-trial","trial_index":133,"time_elapsed":825393,"internal_node_id":"0.0-122.0","task_version":"test-retest-t2"},{"Rune":"rune_03_uruz","Hex":"#3366ff99","Correct":-1,"Choice":-1,"RT":-1,"Accuracy":1,"Outcome":"+1","Keys":[],"TotalKeys":0,"Block":1,"Trial":117,"Robot":2,"Valence":"Win","Action":"No-Go","Sham":1,"Color":"blue","trial_type":"pit-trial","trial_index":134,"time_elapsed":829398,"internal_node_id":"0.0-123.0","task_version":"test-retest-t2"},{"Rune":"rune_03_algiz","Hex":"#ffcc3399","Correct":-1,"Choice":-1,"RT":-1,"Accuracy":1,"Outcome":"-1","Keys":[],"TotalKeys":0,"Block":1,"Trial":118,"Robot":4,"Valence":"Lose","Action":"No-Go","Sham":0,"Color":"yellow","trial_type":"pit-trial","trial_index":135,"time_elapsed":833404,"internal_node_id":"0.0-124.0","task_version":"test-retest-t2"},{"Rune":"rune_03_othalan","Hex":"#ffcc3399","Correct":32,"Choice":32,"RT":620.7500000018626,"Accuracy":1,"Outcome":"-10","Keys":[2122.369999997318],"TotalKeys":1,"Block":1,"Trial":119,"Robot":3,"Valence":"Lose","Action":"Go","Sham":1,"Color":"yellow","trial_type":"pit-trial","trial_index":136,"time_elapsed":836530,"internal_node_id":"0.0-125.0","task_version":"test-retest-t2"},{"Rune":"rune_03_naudiz","Hex":"#3366ff99","Correct":32,"Choice":32,"RT":393.66500001051463,"Accuracy":1,"Outcome":"+10","Keys":[1894.8699999891687],"TotalKeys":1,"Block":1,"Trial":120,"Robot":1,"Valence":"Win","Action":"Go","Sham":0,"Color":"blue","trial_type":"pit-trial","trial_index":137,"time_elapsed":839436,"internal_node_id":"0.0-126.0","task_version":"test-retest-t2"},{"view_history":"[{\"page_index\":0,\"viewing_time\":49009.640000003856},{\"page_index\":1,\"viewing_time\":3472.3899999808054},{\"page_index\":2,\"viewing_time\":1623.7250000122003}]","rt":54106.14999997779,"trial_type":"pit-instructions","trial_index":138,"time_elapsed":893544,"internal_node_id":"0.0-127.0","task_version":"test-retest-t2"},{"Rune":"rune_04_wunjo","Hex":"#ffcc3399","Correct":32,"Choice":32,"RT":520.7400000072084,"Accuracy":1,"Outcome":"-10","Keys":[2021.1949999793433],"TotalKeys":1,"Block":2,"Trial":121,"Robot":3,"Valence":"Lose","Action":"Go","Sham":1,"Color":"yellow","trial_type":"pit-trial","trial_index":139,"time_elapsed":896571,"internal_node_id":"0.0-128.0","task_version":"test-retest-t2"},{"Rune":"rune_04_dagaz","Hex":"#3366ff99","Correct":-1,"Choice":32,"RT":478.6700000113342,"Accuracy":0,"Outcome":"+1","Keys":[1979.6750000095926],"TotalKeys":1,"Block":2,"Trial":122,"Robot":2,"Valence":"Win","Action":"No-Go","Sham":0,"Color":"blue","trial_type":"pit-trial","trial_index":140,"time_elapsed":899553,"internal_node_id":"0.0-129.0","task_version":"test-retest-t2"},{"Rune":"rune_04_iwaz","Hex":"#ffcc3399","Correct":-1,"Choice":-1,"RT":-1,"Accuracy":1,"Outcome":"-1","Keys":[],"TotalKeys":0,"Block":2,"Trial":123,"Robot":4,"Valence":"Lose","Action":"No-Go","Sham":0,"Color":"yellow","trial_type":"pit-trial","trial_index":141,"time_elapsed":903557,"internal_node_id":"0.0-130.0","task_version":"test-retest-t2"},{"Rune":"rune_04_ac","Hex":"#3366ff99","Correct":32,"Choice":32,"RT":676.4599999878556,"Accuracy":1,"Outcome":"+10","Keys":[2177.9650000098627],"TotalKeys":1,"Block":2,"Trial":124,"Robot":1,"Valence":"Win","Action":"Go","Sham":0,"Color":"blue","trial_type":"pit-trial","trial_index":142,"time_elapsed":906738,"internal_node_id":"0.0-131.0","task_version":"test-retest-t2"},{"Rune":"rune_04_wunjo","Hex":"#ffcc3399","Correct":32,"Choice":-1,"RT":-1,"Accuracy":0,"Outcome":"-10","Keys":[],"TotalKeys":0,"Block":2,"Trial":125,"Robot":3,"Valence":"Lose","Action":"Go","Sham":0,"Color":"yellow","trial_type":"pit-trial","trial_index":143,"time_elapsed":910744,"internal_node_id":"0.0-132.0","task_version":"test-retest-t2"},{"Rune":"rune_04_ac","Hex":"#3366ff99","Correct":32,"Choice":32,"RT":386.44999999087304,"Accuracy":1,"Outcome":"+1","Keys":[1886.739999987185],"TotalKeys":1,"Block":2,"Trial":126,"Robot":1,"Valence":"Win","Action":"Go","Sham":1,"Color":"blue","trial_type":"pit-trial","trial_index":144,"time_elapsed":913634,"internal_node_id":"0.0-133.0","task_version":"test-retest-t2"},{"Rune":"rune_04_iwaz","Hex":"#ffcc3399","Correct":-1,"Choice":-1,"RT":-1,"Accuracy":1,"Outcome":"-1","Keys":[],"TotalKeys":0,"Block":2,"Trial":127,"Robot":4,"Valence":"Lose","Action":"No-Go","Sham":0,"Color":"yellow","trial_type":"pit-trial","trial_index":145,"time_elapsed":917647,"internal_node_id":"0.0-134.0","task_version":"test-retest-t2"},{"Rune":"rune_04_dagaz","Hex":"#3366ff99","Correct":-1,"Choice":32,"RT":515.110000007553,"Accuracy":0,"Outcome":"+1","Keys":[2015.6199999910314],"TotalKeys":1,"Block":2,"Trial":128,"Robot":2,"Valence":"Win","Action":"No-Go","Sham":0,"Color":"blue","trial_type":"pit-trial","trial_index":146,"time_elapsed":920665,"internal_node_id":"0.0-135.0","task_version":"test-retest-t2"},{"Rune":"rune_04_ac","Hex":"#3366ff99","Correct":32,"Choice":32,"RT":559.5749999920372,"Accuracy":1,"Outcome":"+10","Keys":[2061.6549999976996],"TotalKeys":1,"Block":2,"Trial":129,"Robot":1,"Valence":"Win","Action":"Go","Sham":0,"Color":"blue","trial_type":"pit-trial","trial_index":147,"time_elapsed":923731,"internal_node_id":"0.0-136.0","task_version":"test-retest-t2"},{"Rune":"rune_04_iwaz","Hex":"#ffcc3399","Correct":-1,"Choice":-1,"RT":-1,"Accuracy":1,"Outcome":"-1","Keys":[],"TotalKeys":0,"Block":2,"Trial":130,"Robot":4,"Valence":"Lose","Action":"No-Go","Sham":0,"Color":"yellow","trial_type":"pit-trial","trial_index":148,"time_elapsed":927738,"internal_node_id":"0.0-137.0","task_version":"test-retest-t2"},{"Rune":"rune_04_wunjo","Hex":"#ffcc3399","Correct":32,"Choice":32,"RT":527.6150000281632,"Accuracy":1,"Outcome":"-1","Keys":[2029.1800000122748],"TotalKeys":1,"Block":2,"Trial":131,"Robot":3,"Valence":"Lose","Action":"Go","Sham":0,"Color":"yellow","trial_type":"pit-trial","trial_index":149,"time_elapsed":930773,"internal_node_id":"0.0-138.0","task_version":"test-retest-t2"},{"Rune":"rune_04_dagaz","Hex":"#3366ff99","Correct":-1,"Choice":-1,"RT":-1,"Accuracy":1,"Outcome":"+10","Keys":[],"TotalKeys":0,"Block":2,"Trial":132,"Robot":2,"Valence":"Win","Action":"No-Go","Sham":0,"Color":"blue","trial_type":"pit-trial","trial_index":150,"time_elapsed":934777,"internal_node_id":"0.0-139.0","task_version":"test-retest-t2"},{"Rune":"rune_04_ac","Hex":"#3366ff99","Correct":32,"Choice":32,"RT":424.3900000001304,"Accuracy":1,"Outcome":"+10","Keys":[1925.6600000080653],"TotalKeys":1,"Block":2,"Trial":133,"Robot":1,"Valence":"Win","Action":"Go","Sham":0,"Color":"blue","trial_type":"pit-trial","trial_index":151,"time_elapsed":937706,"internal_node_id":"0.0-140.0","task_version":"test-retest-t2"},{"Rune":"rune_04_dagaz","Hex":"#3366ff99","Correct":-1,"Choice":-1,"RT":-1,"Accuracy":1,"Outcome":"+10","Keys":[],"TotalKeys":0,"Block":2,"Trial":134,"Robot":2,"Valence":"Win","Action":"No-Go","Sham":0,"Color":"blue","trial_type":"pit-trial","trial_index":152,"time_elapsed":941711,"internal_node_id":"0.0-141.0","task_version":"test-retest-t2"},{"Rune":"rune_04_wunjo","Hex":"#ffcc3399","Correct":32,"Choice":32,"RT":560.7749999617226,"Accuracy":1,"Outcome":"-1","Keys":[2080.1750000100583],"TotalKeys":1,"Block":2,"Trial":135,"Robot":3,"Valence":"Lose","Action":"Go","Sham":0,"Color":"yellow","trial_type":"pit-trial","trial_index":153,"time_elapsed":944794,"internal_node_id":"0.0-142.0","task_version":"test-retest-t2"},{"Rune":"rune_04_iwaz","Hex":"#ffcc3399","Correct":-1,"Choice":-1,"RT":-1,"Accuracy":1,"Outcome":"-10","Keys":[],"TotalKeys":0,"Block":2,"Trial":136,"Robot":4,"Valence":"Lose","Action":"No-Go","Sham":1,"Color":"yellow","trial_type":"pit-trial","trial_index":154,"time_elapsed":948803,"internal_node_id":"0.0-143.0","task_version":"test-retest-t2"},{"Rune":"rune_04_iwaz","Hex":"#ffcc3399","Correct":-1,"Choice":-1,"RT":-1,"Accuracy":1,"Outcome":"-1","Keys":[],"TotalKeys":0,"Block":2,"Trial":137,"Robot":4,"Valence":"Lose","Action":"No-Go","Sham":0,"Color":"yellow","trial_type":"pit-trial","trial_index":155,"time_elapsed":952808,"internal_node_id":"0.0-144.0","task_version":"test-retest-t2"},{"Rune":"rune_04_ac","Hex":"#3366ff99","Correct":32,"Choice":32,"RT":385.0700000184588,"Accuracy":1,"Outcome":"+10","Keys":[1886.2599999993108],"TotalKeys":1,"Block":2,"Trial":138,"Robot":1,"Valence":"Win","Action":"Go","Sham":0,"Color":"blue","trial_type":"pit-trial","trial_index":156,"time_elapsed":955699,"internal_node_id":"0.0-145.0","task_version":"test-retest-t2"},{"Rune":"rune_04_wunjo","Hex":"#ffcc3399","Correct":32,"Choice":32,"RT":615.0299999862909,"Accuracy":1,"Outcome":"-1","Keys":[2115.784999972675],"TotalKeys":1,"Block":2,"Trial":139,"Robot":3,"Valence":"Lose","Action":"Go","Sham":0,"Color":"yellow","trial_type":"pit-trial","trial_index":157,"time_elapsed":958818,"internal_node_id":"0.0-146.0","task_version":"test-retest-t2"},{"Rune":"rune_04_dagaz","Hex":"#3366ff99","Correct":-1,"Choice":-1,"RT":-1,"Accuracy":1,"Outcome":"+1","Keys":[],"TotalKeys":0,"Block":2,"Trial":140,"Robot":2,"Valence":"Win","Action":"No-Go","Sham":1,"Color":"blue","trial_type":"pit-trial","trial_index":158,"time_elapsed":962826,"internal_node_id":"0.0-147.0","task_version":"test-retest-t2"},{"Rune":"rune_04_iwaz","Hex":"#ffcc3399","Correct":-1,"Choice":-1,"RT":-1,"Accuracy":1,"Outcome":"-1","Keys":[],"TotalKeys":0,"Block":2,"Trial":141,"Robot":4,"Valence":"Lose","Action":"No-Go","Sham":0,"Color":"yellow","trial_type":"pit-trial","trial_index":159,"time_elapsed":966837,"internal_node_id":"0.0-148.0","task_version":"test-retest-t2"},{"Rune":"rune_04_ac","Hex":"#3366ff99","Correct":32,"Choice":32,"RT":611.1350000137463,"Accuracy":1,"Outcome":"+10","Keys":[2111.2950000097044],"TotalKeys":1,"Block":2,"Trial":142,"Robot":1,"Valence":"Win","Action":"Go","Sham":0,"Color":"blue","trial_type":"pit-trial","trial_index":160,"time_elapsed":969960,"internal_node_id":"0.0-149.0","task_version":"test-retest-t2"},{"Rune":"rune_04_wunjo","Hex":"#ffcc3399","Correct":32,"Choice":32,"RT":497.2849999903701,"Accuracy":1,"Outcome":"-10","Keys":[1998.120000003837],"TotalKeys":1,"Block":2,"Trial":143,"Robot":3,"Valence":"Lose","Action":"Go","Sham":1,"Color":"yellow","trial_type":"pit-trial","trial_index":161,"time_elapsed":972962,"internal_node_id":"0.0-150.0","task_version":"test-retest-t2"},{"Rune":"rune_04_dagaz","Hex":"#3366ff99","Correct":-1,"Choice":-1,"RT":-1,"Accuracy":1,"Outcome":"+10","Keys":[],"TotalKeys":0,"Block":2,"Trial":144,"Robot":2,"Valence":"Win","Action":"No-Go","Sham":0,"Color":"blue","trial_type":"pit-trial","trial_index":162,"time_elapsed":976981,"internal_node_id":"0.0-151.0","task_version":"test-retest-t2"},{"Rune":"rune_04_ac","Hex":"#3366ff99","Correct":32,"Choice":32,"RT":364.0649999724701,"Accuracy":1,"Outcome":"+1","Keys":[1865.3700000140816],"TotalKeys":1,"Block":2,"Trial":145,"Robot":1,"Valence":"Win","Action":"Go","Sham":1,"Color":"blue","trial_type":"pit-trial","trial_index":163,"time_elapsed":979850,"internal_node_id":"0.0-152.0","task_version":"test-retest-t2"},{"Rune":"rune_04_iwaz","Hex":"#ffcc3399","Correct":-1,"Choice":-1,"RT":-1,"Accuracy":1,"Outcome":"-1","Keys":[],"TotalKeys":0,"Block":2,"Trial":146,"Robot":4,"Valence":"Lose","Action":"No-Go","Sham":0,"Color":"yellow","trial_type":"pit-trial","trial_index":164,"time_elapsed":983862,"internal_node_id":"0.0-153.0","task_version":"test-retest-t2"},{"Rune":"rune_04_dagaz","Hex":"#3366ff99","Correct":-1,"Choice":-1,"RT":-1,"Accuracy":1,"Outcome":"+1","Keys":[],"TotalKeys":0,"Block":2,"Trial":147,"Robot":2,"Valence":"Win","Action":"No-Go","Sham":1,"Color":"blue","trial_type":"pit-trial","trial_index":165,"time_elapsed":987870,"internal_node_id":"0.0-154.0","task_version":"test-retest-t2"},{"Rune":"rune_04_wunjo","Hex":"#ffcc3399","Correct":32,"Choice":32,"RT":422.44499997468665,"Accuracy":1,"Outcome":"-1","Keys":[1923.9650000235997],"TotalKeys":1,"Block":2,"Trial":148,"Robot":3,"Valence":"Lose","Action":"Go","Sham":0,"Color":"yellow","trial_type":"pit-trial","trial_index":166,"time_elapsed":990799,"internal_node_id":"0.0-155.0","task_version":"test-retest-t2"},{"Rune":"rune_04_dagaz","Hex":"#3366ff99","Correct":-1,"Choice":-1,"RT":-1,"Accuracy":1,"Outcome":"+10","Keys":[],"TotalKeys":0,"Block":2,"Trial":149,"Robot":2,"Valence":"Win","Action":"No-Go","Sham":0,"Color":"blue","trial_type":"pit-trial","trial_index":167,"time_elapsed":994803,"internal_node_id":"0.0-156.0","task_version":"test-retest-t2"},{"Rune":"rune_04_wunjo","Hex":"#ffcc3399","Correct":32,"Choice":32,"RT":463.5399999679066,"Accuracy":1,"Outcome":"-1","Keys":[1964.0050000161864],"TotalKeys":1,"Block":2,"Trial":150,"Robot":3,"Valence":"Lose","Action":"Go","Sham":0,"Color":"yellow","trial_type":"pit-trial","trial_index":168,"time_elapsed":997770,"internal_node_id":"0.0-157.0","task_version":"test-retest-t2"},{"Rune":"rune_04_ac","Hex":"#3366ff99","Correct":32,"Choice":32,"RT":375.5750000127591,"Accuracy":1,"Outcome":"+10","Keys":[1876.7300000181422],"TotalKeys":1,"Block":2,"Trial":151,"Robot":1,"Valence":"Win","Action":"Go","Sham":0,"Color":"blue","trial_type":"pit-trial","trial_index":169,"time_elapsed":1000651,"internal_node_id":"0.0-158.0","task_version":"test-retest-t2"},{"Rune":"rune_04_iwaz","Hex":"#ffcc3399","Correct":-1,"Choice":-1,"RT":-1,"Accuracy":1,"Outcome":"-1","Keys":[],"TotalKeys":0,"Block":2,"Trial":152,"Robot":4,"Valence":"Lose","Action":"No-Go","Sham":0,"Color":"yellow","trial_type":"pit-trial","trial_index":170,"time_elapsed":1004655,"internal_node_id":"0.0-159.0","task_version":"test-retest-t2"},{"Rune":"rune_04_wunjo","Hex":"#ffcc3399","Correct":32,"Choice":32,"RT":363.29499998828396,"Accuracy":1,"Outcome":"-1","Keys":[1863.9749999856576],"TotalKeys":1,"Block":2,"Trial":153,"Robot":3,"Valence":"Lose","Action":"Go","Sham":0,"Color":"yellow","trial_type":"pit-trial","trial_index":171,"time_elapsed":1007521,"internal_node_id":"0.0-160.0","task_version":"test-retest-t2"},{"Rune":"rune_04_iwaz","Hex":"#ffcc3399","Correct":-1,"Choice":-1,"RT":-1,"Accuracy":1,"Outcome":"-1","Keys":[],"TotalKeys":0,"Block":2,"Trial":154,"Robot":4,"Valence":"Lose","Action":"No-Go","Sham":0,"Color":"yellow","trial_type":"pit-trial","trial_index":172,"time_elapsed":1011530,"internal_node_id":"0.0-161.0","task_version":"test-retest-t2"},{"Rune":"rune_04_ac","Hex":"#3366ff99","Correct":32,"Choice":32,"RT":392.81000004848465,"Accuracy":1,"Outcome":"+10","Keys":[1893.8400000333786],"TotalKeys":1,"Block":2,"Trial":155,"Robot":1,"Valence":"Win","Action":"Go","Sham":0,"Color":"blue","trial_type":"pit-trial","trial_index":173,"time_elapsed":1014428,"internal_node_id":"0.0-162.0","task_version":"test-retest-t2"},{"Rune":"rune_04_dagaz","Hex":"#3366ff99","Correct":-1,"Choice":-1,"RT":-1,"Accuracy":1,"Outcome":"+10","Keys":[],"TotalKeys":0,"Block":2,"Trial":156,"Robot":2,"Valence":"Win","Action":"No-Go","Sham":0,"Color":"blue","trial_type":"pit-trial","trial_index":174,"time_elapsed":1018433,"internal_node_id":"0.0-163.0","task_version":"test-retest-t2"},{"Rune":"rune_04_wunjo","Hex":"#ffcc3399","Correct":32,"Choice":32,"RT":449.52000002376735,"Accuracy":1,"Outcome":"-1","Keys":[1950.3499999991618],"TotalKeys":1,"Block":2,"Trial":157,"Robot":3,"Valence":"Lose","Action":"Go","Sham":0,"Color":"yellow","trial_type":"pit-trial","trial_index":175,"time_elapsed":1021388,"internal_node_id":"0.0-164.0","task_version":"test-retest-t2"},{"Rune":"rune_04_iwaz","Hex":"#ffcc3399","Correct":-1,"Choice":-1,"RT":-1,"Accuracy":1,"Outcome":"-10","Keys":[],"TotalKeys":0,"Block":2,"Trial":158,"Robot":4,"Valence":"Lose","Action":"No-Go","Sham":1,"Color":"yellow","trial_type":"pit-trial","trial_index":176,"time_elapsed":1025394,"internal_node_id":"0.0-165.0","task_version":"test-retest-t2"},{"Rune":"rune_04_dagaz","Hex":"#3366ff99","Correct":-1,"Choice":-1,"RT":-1,"Accuracy":1,"Outcome":"+10","Keys":[],"TotalKeys":0,"Block":2,"Trial":159,"Robot":2,"Valence":"Win","Action":"No-Go","Sham":0,"Color":"blue","trial_type":"pit-trial","trial_index":177,"time_elapsed":1029399,"internal_node_id":"0.0-166.0","task_version":"test-retest-t2"},{"Rune":"rune_04_ac","Hex":"#3366ff99","Correct":32,"Choice":32,"RT":366.97500001173466,"Accuracy":1,"Outcome":"+10","Keys":[1867.5949999596924],"TotalKeys":1,"Block":2,"Trial":160,"Robot":1,"Valence":"Win","Action":"Go","Sham":0,"Color":"blue","trial_type":"pit-trial","trial_index":178,"time_elapsed":1032274,"internal_node_id":"0.0-167.0","task_version":"test-retest-t2"},{"Rune":"rune_04_iwaz","Hex":"#ffcc3399","Correct":-1,"Choice":-1,"RT":-1,"Accuracy":1,"Outcome":"-1","Keys":[],"TotalKeys":0,"Block":2,"Trial":161,"Robot":4,"Valence":"Lose","Action":"No-Go","Sham":0,"Color":"yellow","trial_type":"pit-trial","trial_index":179,"time_elapsed":1036279,"internal_node_id":"0.0-168.0","task_version":"test-retest-t2"},{"Rune":"rune_04_wunjo","Hex":"#ffcc3399","Correct":32,"Choice":32,"RT":387.83500000135973,"Accuracy":1,"Outcome":"-10","Keys":[1888.2000000448897],"TotalKeys":1,"Block":2,"Trial":162,"Robot":3,"Valence":"Lose","Action":"Go","Sham":1,"Color":"yellow","trial_type":"pit-trial","trial_index":180,"time_elapsed":1039169,"internal_node_id":"0.0-169.0","task_version":"test-retest-t2"},{"Rune":"rune_04_ac","Hex":"#3366ff99","Correct":32,"Choice":32,"RT":350.2800000132993,"Accuracy":1,"Outcome":"+1","Keys":[1852.8499999665655],"TotalKeys":1,"Block":2,"Trial":163,"Robot":1,"Valence":"Win","Action":"Go","Sham":1,"Color":"blue","trial_type":"pit-trial","trial_index":181,"time_elapsed":1042025,"internal_node_id":"0.0-170.0","task_version":"test-retest-t2"},{"Rune":"rune_04_dagaz","Hex":"#3366ff99","Correct":-1,"Choice":-1,"RT":-1,"Accuracy":1,"Outcome":"+10","Keys":[],"TotalKeys":0,"Block":2,"Trial":164,"Robot":2,"Valence":"Win","Action":"No-Go","Sham":0,"Color":"blue","trial_type":"pit-trial","trial_index":182,"time_elapsed":1046031,"internal_node_id":"0.0-171.0","task_version":"test-retest-t2"},{"Rune":"rune_04_iwaz","Hex":"#ffcc3399","Correct":-1,"Choice":-1,"RT":-1,"Accuracy":1,"Outcome":"-10","Keys":[],"TotalKeys":0,"Block":2,"Trial":165,"Robot":4,"Valence":"Lose","Action":"No-Go","Sham":1,"Color":"yellow","trial_type":"pit-trial","trial_index":183,"time_elapsed":1050035,"internal_node_id":"0.0-172.0","task_version":"test-retest-t2"},{"Rune":"rune_04_wunjo","Hex":"#ffcc3399","Correct":32,"Choice":32,"RT":326.72499999171123,"Accuracy":1,"Outcome":"-1","Keys":[1827.7499999967404],"TotalKeys":1,"Block":2,"Trial":166,"Robot":3,"Valence":"Lose","Action":"Go","Sham":0,"Color":"yellow","trial_type":"pit-trial","trial_index":184,"time_elapsed":1052865,"internal_node_id":"0.0-173.0","task_version":"test-retest-t2"},{"Rune":"rune_04_dagaz","Hex":"#3366ff99","Correct":-1,"Choice":-1,"RT":-1,"Accuracy":1,"Outcome":"+1","Keys":[],"TotalKeys":0,"Block":2,"Trial":167,"Robot":2,"Valence":"Win","Action":"No-Go","Sham":1,"Color":"blue","trial_type":"pit-trial","trial_index":185,"time_elapsed":1056868,"internal_node_id":"0.0-174.0","task_version":"test-retest-t2"},{"Rune":"rune_04_ac","Hex":"#3366ff99","Correct":32,"Choice":32,"RT":364.7950000013225,"Accuracy":1,"Outcome":"+10","Keys":[1866.0599999711849],"TotalKeys":1,"Block":2,"Trial":168,"Robot":1,"Valence":"Win","Action":"Go","Sham":0,"Color":"blue","trial_type":"pit-trial","trial_index":186,"time_elapsed":1059737,"internal_node_id":"0.0-175.0","task_version":"test-retest-t2"},{"Rune":"rune_04_iwaz","Hex":"#ffcc3399","Correct":-1,"Choice":-1,"RT":-1,"Accuracy":1,"Outcome":"-1","Keys":[],"TotalKeys":0,"Block":2,"Trial":169,"Robot":4,"Valence":"Lose","Action":"No-Go","Sham":0,"Color":"yellow","trial_type":"pit-trial","trial_index":187,"time_elapsed":1063746,"internal_node_id":"0.0-176.0","task_version":"test-retest-t2"},{"Rune":"rune_04_dagaz","Hex":"#3366ff99","Correct":-1,"Choice":-1,"RT":-1,"Accuracy":1,"Outcome":"+10","Keys":[],"TotalKeys":0,"Block":2,"Trial":170,"Robot":2,"Valence":"Win","Action":"No-Go","Sham":0,"Color":"blue","trial_type":"pit-trial","trial_index":188,"time_elapsed":1067750,"internal_node_id":"0.0-177.0","task_version":"test-retest-t2"},{"Rune":"rune_04_ac","Hex":"#3366ff99","Correct":32,"Choice":32,"RT":346.5899999719113,"Accuracy":1,"Outcome":"+10","Keys":[1847.765000013169],"TotalKeys":1,"Block":2,"Trial":171,"Robot":1,"Valence":"Win","Action":"Go","Sham":0,"Color":"blue","trial_type":"pit-trial","trial_index":189,"time_elapsed":1070603,"internal_node_id":"0.0-178.0","task_version":"test-retest-t2"},{"Rune":"rune_04_wunjo","Hex":"#ffcc3399","Correct":32,"Choice":32,"RT":478.79999998258427,"Accuracy":1,"Outcome":"-1","Keys":[1980.2550000022165],"TotalKeys":1,"Block":2,"Trial":172,"Robot":3,"Valence":"Lose","Action":"Go","Sham":0,"Color":"yellow","trial_type":"pit-trial","trial_index":190,"time_elapsed":1073592,"internal_node_id":"0.0-179.0","task_version":"test-retest-t2"},{"Rune":"rune_04_wunjo","Hex":"#ffcc3399","Correct":32,"Choice":32,"RT":306.02999997790903,"Accuracy":1,"Outcome":"-1","Keys":[1806.5350000397302],"TotalKeys":1,"Block":2,"Trial":173,"Robot":3,"Valence":"Lose","Action":"Go","Sham":0,"Color":"yellow","trial_type":"pit-trial","trial_index":191,"time_elapsed":1076404,"internal_node_id":"0.0-180.0","task_version":"test-retest-t2"},{"Rune":"rune_04_iwaz","Hex":"#ffcc3399","Correct":-1,"Choice":-1,"RT":-1,"Accuracy":1,"Outcome":"-1","Keys":[],"TotalKeys":0,"Block":2,"Trial":174,"Robot":4,"Valence":"Lose","Action":"No-Go","Sham":0,"Color":"yellow","trial_type":"pit-trial","trial_index":192,"time_elapsed":1080409,"internal_node_id":"0.0-181.0","task_version":"test-retest-t2"},{"Rune":"rune_04_dagaz","Hex":"#3366ff99","Correct":-1,"Choice":-1,"RT":-1,"Accuracy":1,"Outcome":"+10","Keys":[],"TotalKeys":0,"Block":2,"Trial":175,"Robot":2,"Valence":"Win","Action":"No-Go","Sham":0,"Color":"blue","trial_type":"pit-trial","trial_index":193,"time_elapsed":1084439,"internal_node_id":"0.0-182.0","task_version":"test-retest-t2"},{"Rune":"rune_04_ac","Hex":"#3366ff99","Correct":32,"Choice":32,"RT":403.3500000368804,"Accuracy":1,"Outcome":"+10","Keys":[1903.7649999954738],"TotalKeys":1,"Block":2,"Trial":176,"Robot":1,"Valence":"Win","Action":"Go","Sham":0,"Color":"blue","trial_type":"pit-trial","trial_index":194,"time_elapsed":1087345,"internal_node_id":"0.0-183.0","task_version":"test-retest-t2"},{"Rune":"rune_04_wunjo","Hex":"#ffcc3399","Correct":32,"Choice":32,"RT":423.49000001559034,"Accuracy":1,"Outcome":"-1","Keys":[1924.8599999700673],"TotalKeys":1,"Block":2,"Trial":177,"Robot":3,"Valence":"Lose","Action":"Go","Sham":0,"Color":"yellow","trial_type":"pit-trial","trial_index":195,"time_elapsed":1090274,"internal_node_id":"0.0-184.0","task_version":"test-retest-t2"},{"Rune":"rune_04_iwaz","Hex":"#ffcc3399","Correct":-1,"Choice":-1,"RT":-1,"Accuracy":1,"Outcome":"-1","Keys":[],"TotalKeys":0,"Block":2,"Trial":178,"Robot":4,"Valence":"Lose","Action":"No-Go","Sham":0,"Color":"yellow","trial_type":"pit-trial","trial_index":196,"time_elapsed":1094278,"internal_node_id":"0.0-185.0","task_version":"test-retest-t2"},{"Rune":"rune_04_dagaz","Hex":"#3366ff99","Correct":-1,"Choice":-1,"RT":-1,"Accuracy":1,"Outcome":"+10","Keys":[],"TotalKeys":0,"Block":2,"Trial":179,"Robot":2,"Valence":"Win","Action":"No-Go","Sham":0,"Color":"blue","trial_type":"pit-trial","trial_index":197,"time_elapsed":1098284,"internal_node_id":"0.0-186.0","task_version":"test-retest-t2"},{"Rune":"rune_04_ac","Hex":"#3366ff99","Correct":32,"Choice":32,"RT":366.00999999791384,"Accuracy":1,"Outcome":"+10","Keys":[1866.6150000062771],"TotalKeys":1,"Block":2,"Trial":180,"Robot":1,"Valence":"Win","Action":"Go","Sham":0,"Color":"blue","trial_type":"pit-trial","trial_index":198,"time_elapsed":1101154,"internal_node_id":"0.0-187.0","task_version":"test-retest-t2"},{"view_history":"[{\"page_index\":0,\"viewing_time\":2556.845000013709},{\"page_index\":1,\"viewing_time\":1432.024999987334}]","rt":3989.324999973178,"trial_type":"pit-instructions","trial_index":199,"time_elapsed":1105145,"internal_node_id":"0.0-188.0","task_version":"test-retest-t2"},{"Rune":"rune_04_wunjo","Hex":"#ffcc3399","Correct":32,"Choice":32,"RT":462.30500005185604,"Accuracy":1,"Outcome":"-1","Keys":[1964.1450000344776],"TotalKeys":1,"Block":2,"Trial":181,"Robot":3,"Valence":"Lose","Action":"Go","Sham":0,"Color":"yellow","trial_type":"pit-trial","trial_index":200,"time_elapsed":1108134,"internal_node_id":"0.0-189.0","task_version":"test-retest-t2"},{"Rune":"rune_04_ac","Hex":"#3366ff99","Correct":32,"Choice":32,"RT":427.60999995516613,"Accuracy":1,"Outcome":"+10","Keys":[1928.5449999733828],"TotalKeys":1,"Block":2,"Trial":182,"Robot":1,"Valence":"Win","Action":"Go","Sham":0,"Color":"blue","trial_type":"pit-trial","trial_index":201,"time_elapsed":1111066,"internal_node_id":"0.0-190.0","task_version":"test-retest-t2"},{"Rune":"rune_04_iwaz","Hex":"#ffcc3399","Correct":-1,"Choice":-1,"RT":-1,"Accuracy":1,"Outcome":"-1","Keys":[],"TotalKeys":0,"Block":2,"Trial":183,"Robot":4,"Valence":"Lose","Action":"No-Go","Sham":0,"Color":"yellow","trial_type":"pit-trial","trial_index":202,"time_elapsed":1115071,"internal_node_id":"0.0-191.0","task_version":"test-retest-t2"},{"Rune":"rune_04_dagaz","Hex":"#3366ff99","Correct":-1,"Choice":-1,"RT":-1,"Accuracy":1,"Outcome":"+1","Keys":[],"TotalKeys":0,"Block":2,"Trial":184,"Robot":2,"Valence":"Win","Action":"No-Go","Sham":1,"Color":"blue","trial_type":"pit-trial","trial_index":203,"time_elapsed":1119077,"internal_node_id":"0.0-192.0","task_version":"test-retest-t2"},{"Rune":"rune_04_wunjo","Hex":"#ffcc3399","Correct":32,"Choice":32,"RT":381.48500001989305,"Accuracy":1,"Outcome":"-10","Keys":[1882.465000031516],"TotalKeys":1,"Block":2,"Trial":185,"Robot":3,"Valence":"Lose","Action":"Go","Sham":1,"Color":"yellow","trial_type":"pit-trial","trial_index":204,"time_elapsed":1121963,"internal_node_id":"0.0-193.0","task_version":"test-retest-t2"},{"Rune":"rune_04_ac","Hex":"#3366ff99","Correct":32,"Choice":32,"RT":342.67499996349216,"Accuracy":1,"Outcome":"+10","Keys":[1843.7399999820627],"TotalKeys":1,"Block":2,"Trial":186,"Robot":1,"Valence":"Win","Action":"Go","Sham":0,"Color":"blue","trial_type":"pit-trial","trial_index":205,"time_elapsed":1124811,"internal_node_id":"0.0-194.0","task_version":"test-retest-t2"},{"Rune":"rune_04_dagaz","Hex":"#3366ff99","Correct":-1,"Choice":-1,"RT":-1,"Accuracy":1,"Outcome":"+10","Keys":[],"TotalKeys":0,"Block":2,"Trial":187,"Robot":2,"Valence":"Win","Action":"No-Go","Sham":0,"Color":"blue","trial_type":"pit-trial","trial_index":206,"time_elapsed":1128816,"internal_node_id":"0.0-195.0","task_version":"test-retest-t2"},{"Rune":"rune_04_iwaz","Hex":"#ffcc3399","Correct":-1,"Choice":-1,"RT":-1,"Accuracy":1,"Outcome":"-1","Keys":[],"TotalKeys":0,"Block":2,"Trial":188,"Robot":4,"Valence":"Lose","Action":"No-Go","Sham":0,"Color":"yellow","trial_type":"pit-trial","trial_index":207,"time_elapsed":1132823,"internal_node_id":"0.0-196.0","task_version":"test-retest-t2"},{"Rune":"rune_04_iwaz","Hex":"#ffcc3399","Correct":-1,"Choice":-1,"RT":-1,"Accuracy":1,"Outcome":"-1","Keys":[],"TotalKeys":0,"Block":2,"Trial":189,"Robot":4,"Valence":"Lose","Action":"No-Go","Sham":0,"Color":"yellow","trial_type":"pit-trial","trial_index":208,"time_elapsed":1136826,"internal_node_id":"0.0-197.0","task_version":"test-retest-t2"},{"Rune":"rune_04_wunjo","Hex":"#ffcc3399","Correct":32,"Choice":32,"RT":383.01499997032806,"Accuracy":1,"Outcome":"-1","Keys":[1883.5899999830872],"TotalKeys":1,"Block":2,"Trial":190,"Robot":3,"Valence":"Lose","Action":"Go","Sham":0,"Color":"yellow","trial_type":"pit-trial","trial_index":209,"time_elapsed":1139713,"internal_node_id":"0.0-198.0","task_version":"test-retest-t2"},{"Rune":"rune_04_dagaz","Hex":"#3366ff99","Correct":-1,"Choice":-1,"RT":-1,"Accuracy":1,"Outcome":"+10","Keys":[],"TotalKeys":0,"Block":2,"Trial":191,"Robot":2,"Valence":"Win","Action":"No-Go","Sham":0,"Color":"blue","trial_type":"pit-trial","trial_index":210,"time_elapsed":1143724,"internal_node_id":"0.0-199.0","task_version":"test-retest-t2"},{"Rune":"rune_04_ac","Hex":"#3366ff99","Correct":32,"Choice":32,"RT":469.23500002594665,"Accuracy":1,"Outcome":"+10","Keys":[1971.2550000404008],"TotalKeys":1,"Block":2,"Trial":192,"Robot":1,"Valence":"Win","Action":"Go","Sham":0,"Color":"blue","trial_type":"pit-trial","trial_index":211,"time_elapsed":1146699,"internal_node_id":"0.0-200.0","task_version":"test-retest-t2"},{"Rune":"rune_04_dagaz","Hex":"#3366ff99","Correct":-1,"Choice":-1,"RT":-1,"Accuracy":1,"Outcome":"+10","Keys":[],"TotalKeys":0,"Block":2,"Trial":193,"Robot":2,"Valence":"Win","Action":"No-Go","Sham":0,"Color":"blue","trial_type":"pit-trial","trial_index":212,"time_elapsed":1150706,"internal_node_id":"0.0-201.0","task_version":"test-retest-t2"},{"Rune":"rune_04_iwaz","Hex":"#ffcc3399","Correct":-1,"Choice":-1,"RT":-1,"Accuracy":1,"Outcome":"-10","Keys":[],"TotalKeys":0,"Block":2,"Trial":194,"Robot":4,"Valence":"Lose","Action":"No-Go","Sham":1,"Color":"yellow","trial_type":"pit-trial","trial_index":213,"time_elapsed":1154720,"internal_node_id":"0.0-202.0","task_version":"test-retest-t2"},{"Rune":"rune_04_wunjo","Hex":"#ffcc3399","Correct":32,"Choice":32,"RT":466.05500002624467,"Accuracy":1,"Outcome":"-1","Keys":[1966.5699999895878],"TotalKeys":1,"Block":2,"Trial":195,"Robot":3,"Valence":"Lose","Action":"Go","Sham":0,"Color":"yellow","trial_type":"pit-trial","trial_index":214,"time_elapsed":1157690,"internal_node_id":"0.0-203.0","task_version":"test-retest-t2"},{"Rune":"rune_04_ac","Hex":"#3366ff99","Correct":32,"Choice":32,"RT":439.37999999616295,"Accuracy":1,"Outcome":"+1","Keys":[1940.8900000271387],"TotalKeys":1,"Block":2,"Trial":196,"Robot":1,"Valence":"Win","Action":"Go","Sham":1,"Color":"blue","trial_type":"pit-trial","trial_index":215,"time_elapsed":1160634,"internal_node_id":"0.0-204.0","task_version":"test-retest-t2"},{"Rune":"rune_04_ac","Hex":"#3366ff99","Correct":32,"Choice":32,"RT":409.7850000252947,"Accuracy":1,"Outcome":"+10","Keys":[1910.280000010971],"TotalKeys":1,"Block":2,"Trial":197,"Robot":1,"Valence":"Win","Action":"Go","Sham":0,"Color":"blue","trial_type":"pit-trial","trial_index":216,"time_elapsed":1163548,"internal_node_id":"0.0-205.0","task_version":"test-retest-t2"},{"Rune":"rune_04_dagaz","Hex":"#3366ff99","Correct":-1,"Choice":-1,"RT":-1,"Accuracy":1,"Outcome":"+10","Keys":[],"TotalKeys":0,"Block":2,"Trial":198,"Robot":2,"Valence":"Win","Action":"No-Go","Sham":0,"Color":"blue","trial_type":"pit-trial","trial_index":217,"time_elapsed":1167551,"internal_node_id":"0.0-206.0","task_version":"test-retest-t2"},{"Rune":"rune_04_iwaz","Hex":"#ffcc3399","Correct":-1,"Choice":-1,"RT":-1,"Accuracy":1,"Outcome":"-1","Keys":[],"TotalKeys":0,"Block":2,"Trial":199,"Robot":4,"Valence":"Lose","Action":"No-Go","Sham":0,"Color":"yellow","trial_type":"pit-trial","trial_index":218,"time_elapsed":1171560,"internal_node_id":"0.0-207.0","task_version":"test-retest-t2"},{"Rune":"rune_04_wunjo","Hex":"#ffcc3399","Correct":32,"Choice":32,"RT":472.34500001650304,"Accuracy":1,"Outcome":"-1","Keys":[1973.9750000298955],"TotalKeys":1,"Block":2,"Trial":200,"Robot":3,"Valence":"Lose","Action":"Go","Sham":0,"Color":"yellow","trial_type":"pit-trial","trial_index":219,"time_elapsed":1174544,"internal_node_id":"0.0-208.0","task_version":"test-retest-t2"},{"Rune":"rune_04_dagaz","Hex":"#3366ff99","Correct":-1,"Choice":-1,"RT":-1,"Accuracy":1,"Outcome":"+10","Keys":[],"TotalKeys":0,"Block":2,"Trial":201,"Robot":2,"Valence":"Win","Action":"No-Go","Sham":0,"Color":"blue","trial_type":"pit-trial","trial_index":220,"time_elapsed":1178549,"internal_node_id":"0.0-209.0","task_version":"test-retest-t2"},{"Rune":"rune_04_ac","Hex":"#3366ff99","Correct":32,"Choice":32,"RT":371.93500000284985,"Accuracy":1,"Outcome":"+10","Keys":[1873.7350000301376],"TotalKeys":1,"Block":2,"Trial":202,"Robot":1,"Valence":"Win","Action":"Go","Sham":0,"Color":"blue","trial_type":"pit-trial","trial_index":221,"time_elapsed":1181426,"internal_node_id":"0.0-210.0","task_version":"test-retest-t2"},{"Rune":"rune_04_iwaz","Hex":"#ffcc3399","Correct":-1,"Choice":-1,"RT":-1,"Accuracy":1,"Outcome":"-1","Keys":[],"TotalKeys":0,"Block":2,"Trial":203,"Robot":4,"Valence":"Lose","Action":"No-Go","Sham":0,"Color":"yellow","trial_type":"pit-trial","trial_index":222,"time_elapsed":1185432,"internal_node_id":"0.0-211.0","task_version":"test-retest-t2"},{"Rune":"rune_04_wunjo","Hex":"#ffcc3399","Correct":32,"Choice":32,"RT":325.8999999961816,"Accuracy":1,"Outcome":"-1","Keys":[1827.1999999997206],"TotalKeys":1,"Block":2,"Trial":204,"Robot":3,"Valence":"Lose","Action":"Go","Sham":0,"Color":"yellow","trial_type":"pit-trial","trial_index":223,"time_elapsed":1188271,"internal_node_id":"0.0-212.0","task_version":"test-retest-t2"},{"Rune":"rune_04_dagaz","Hex":"#3366ff99","Correct":-1,"Choice":-1,"RT":-1,"Accuracy":1,"Outcome":"+1","Keys":[],"TotalKeys":0,"Block":2,"Trial":205,"Robot":2,"Valence":"Win","Action":"No-Go","Sham":1,"Color":"blue","trial_type":"pit-trial","trial_index":224,"time_elapsed":1192275,"internal_node_id":"0.0-213.0","task_version":"test-retest-t2"},{"Rune":"rune_04_ac","Hex":"#3366ff99","Correct":32,"Choice":32,"RT":419.0200000302866,"Accuracy":1,"Outcome":"+10","Keys":[1923.6049999599345],"TotalKeys":1,"Block":2,"Trial":206,"Robot":1,"Valence":"Win","Action":"Go","Sham":0,"Color":"blue","trial_type":"pit-trial","trial_index":225,"time_elapsed":1195202,"internal_node_id":"0.0-214.0","task_version":"test-retest-t2"},{"Rune":"rune_04_wunjo","Hex":"#ffcc3399","Correct":32,"Choice":32,"RT":398.879999993369,"Accuracy":1,"Outcome":"-1","Keys":[1900.309999997262],"TotalKeys":1,"Block":2,"Trial":207,"Robot":3,"Valence":"Lose","Action":"Go","Sham":0,"Color":"yellow","trial_type":"pit-trial","trial_index":226,"time_elapsed":1198105,"internal_node_id":"0.0-215.0","task_version":"test-retest-t2"},{"Rune":"rune_04_iwaz","Hex":"#ffcc3399","Correct":-1,"Choice":-1,"RT":-1,"Accuracy":1,"Outcome":"-1","Keys":[],"TotalKeys":0,"Block":2,"Trial":208,"Robot":4,"Valence":"Lose","Action":"No-Go","Sham":0,"Color":"yellow","trial_type":"pit-trial","trial_index":227,"time_elapsed":1202112,"internal_node_id":"0.0-216.0","task_version":"test-retest-t2"},{"Rune":"rune_04_wunjo","Hex":"#ffcc3399","Correct":32,"Choice":32,"RT":361.8799999821931,"Accuracy":1,"Outcome":"-1","Keys":[1862.5400000019],"TotalKeys":1,"Block":2,"Trial":209,"Robot":3,"Valence":"Lose","Action":"Go","Sham":0,"Color":"yellow","trial_type":"pit-trial","trial_index":228,"time_elapsed":1204980,"internal_node_id":"0.0-217.0","task_version":"test-retest-t2"},{"Rune":"rune_04_dagaz","Hex":"#3366ff99","Correct":-1,"Choice":-1,"RT":-1,"Accuracy":1,"Outcome":"+10","Keys":[],"TotalKeys":0,"Block":2,"Trial":210,"Robot":2,"Valence":"Win","Action":"No-Go","Sham":0,"Color":"blue","trial_type":"pit-trial","trial_index":229,"time_elapsed":1208983,"internal_node_id":"0.0-218.0","task_version":"test-retest-t2"},{"Rune":"rune_04_iwaz","Hex":"#ffcc3399","Correct":-1,"Choice":-1,"RT":-1,"Accuracy":1,"Outcome":"-10","Keys":[],"TotalKeys":0,"Block":2,"Trial":211,"Robot":4,"Valence":"Lose","Action":"No-Go","Sham":1,"Color":"yellow","trial_type":"pit-trial","trial_index":230,"time_elapsed":1212988,"internal_node_id":"0.0-219.0","task_version":"test-retest-t2"},{"Rune":"rune_04_ac","Hex":"#3366ff99","Correct":32,"Choice":32,"RT":557.7500000363216,"Accuracy":1,"Outcome":"+10","Keys":[2059.469999978319],"TotalKeys":1,"Block":2,"Trial":212,"Robot":1,"Valence":"Win","Action":"Go","Sham":0,"Color":"blue","trial_type":"pit-trial","trial_index":231,"time_elapsed":1216049,"internal_node_id":"0.0-220.0","task_version":"test-retest-t2"},{"Rune":"rune_04_wunjo","Hex":"#ffcc3399","Correct":32,"Choice":32,"RT":384.26500000059605,"Accuracy":1,"Outcome":"-1","Keys":[1885.3699999745004],"TotalKeys":1,"Block":2,"Trial":213,"Robot":3,"Valence":"Lose","Action":"Go","Sham":0,"Color":"yellow","trial_type":"pit-trial","trial_index":232,"time_elapsed":1218938,"internal_node_id":"0.0-221.0","task_version":"test-retest-t2"},{"Rune":"rune_04_ac","Hex":"#3366ff99","Correct":32,"Choice":32,"RT":351.1949999956414,"Accuracy":1,"Outcome":"+10","Keys":[1852.7549999998882],"TotalKeys":1,"Block":2,"Trial":214,"Robot":1,"Valence":"Win","Action":"Go","Sham":0,"Color":"blue","trial_type":"pit-trial","trial_index":233,"time_elapsed":1221793,"internal_node_id":"0.0-222.0","task_version":"test-retest-t2"},{"Rune":"rune_04_dagaz","Hex":"#3366ff99","Correct":-1,"Choice":-1,"RT":-1,"Accuracy":1,"Outcome":"+10","Keys":[],"TotalKeys":0,"Block":2,"Trial":215,"Robot":2,"Valence":"Win","Action":"No-Go","Sham":0,"Color":"blue","trial_type":"pit-trial","trial_index":234,"time_elapsed":1225798,"internal_node_id":"0.0-223.0","task_version":"test-retest-t2"},{"Rune":"rune_04_iwaz","Hex":"#ffcc3399","Correct":-1,"Choice":32,"RT":355.0350000150502,"Accuracy":0,"Outcome":"-10","Keys":[1856.6500000306405],"TotalKeys":1,"Block":2,"Trial":216,"Robot":4,"Valence":"Lose","Action":"No-Go","Sham":0,"Color":"yellow","trial_type":"pit-trial","trial_index":235,"time_elapsed":1228658,"internal_node_id":"0.0-224.0","task_version":"test-retest-t2"},{"Rune":"rune_04_ac","Hex":"#3366ff99","Correct":32,"Choice":32,"RT":391.2799999816343,"Accuracy":1,"Outcome":"+1","Keys":[1892.809999990277],"TotalKeys":1,"Block":2,"Trial":217,"Robot":1,"Valence":"Win","Action":"Go","Sham":1,"Color":"blue","trial_type":"pit-trial","trial_index":236,"time_elapsed":1231564,"internal_node_id":"0.0-225.0","task_version":"test-retest-t2"},{"Rune":"rune_04_wunjo","Hex":"#ffcc3399","Correct":32,"Choice":32,"RT":549.5300000184216,"Accuracy":1,"Outcome":"-10","Keys":[2050.470000016503],"TotalKeys":1,"Block":2,"Trial":218,"Robot":3,"Valence":"Lose","Action":"Go","Sham":1,"Color":"yellow","trial_type":"pit-trial","trial_index":237,"time_elapsed":1234620,"internal_node_id":"0.0-226.0","task_version":"test-retest-t2"},{"Rune":"rune_04_iwaz","Hex":"#ffcc3399","Correct":-1,"Choice":-1,"RT":-1,"Accuracy":1,"Outcome":"-1","Keys":[],"TotalKeys":0,"Block":2,"Trial":219,"Robot":4,"Valence":"Lose","Action":"No-Go","Sham":0,"Color":"yellow","trial_type":"pit-trial","trial_index":238,"time_elapsed":1238626,"internal_node_id":"0.0-227.0","task_version":"test-retest-t2"},{"Rune":"rune_04_dagaz","Hex":"#3366ff99","Correct":-1,"Choice":-1,"RT":-1,"Accuracy":1,"Outcome":"+10","Keys":[],"TotalKeys":0,"Block":2,"Trial":220,"Robot":2,"Valence":"Win","Action":"No-Go","Sham":0,"Color":"blue","trial_type":"pit-trial","trial_index":239,"time_elapsed":1242639,"internal_node_id":"0.0-228.0","task_version":"test-retest-t2"},{"Rune":"rune_04_wunjo","Hex":"#ffcc3399","Correct":32,"Choice":32,"RT":395.7500000251457,"Accuracy":1,"Outcome":"-1","Keys":[1896.2650000466965],"TotalKeys":1,"Block":2,"Trial":221,"Robot":3,"Valence":"Lose","Action":"Go","Sham":0,"Color":"yellow","trial_type":"pit-trial","trial_index":240,"time_elapsed":1245538,"internal_node_id":"0.0-229.0","task_version":"test-retest-t2"},{"Rune":"rune_04_dagaz","Hex":"#3366ff99","Correct":-1,"Choice":-1,"RT":-1,"Accuracy":1,"Outcome":"+10","Keys":[],"TotalKeys":0,"Block":2,"Trial":222,"Robot":2,"Valence":"Win","Action":"No-Go","Sham":0,"Color":"blue","trial_type":"pit-trial","trial_index":241,"time_elapsed":1249541,"internal_node_id":"0.0-230.0","task_version":"test-retest-t2"},{"Rune":"rune_04_iwaz","Hex":"#ffcc3399","Correct":-1,"Choice":-1,"RT":-1,"Accuracy":1,"Outcome":"-1","Keys":[],"TotalKeys":0,"Block":2,"Trial":223,"Robot":4,"Valence":"Lose","Action":"No-Go","Sham":0,"Color":"yellow","trial_type":"pit-trial","trial_index":242,"time_elapsed":1253546,"internal_node_id":"0.0-231.0","task_version":"test-retest-t2"},{"Rune":"rune_04_ac","Hex":"#3366ff99","Correct":32,"Choice":32,"RT":343.1900000432506,"Accuracy":1,"Outcome":"+10","Keys":[1844.9450000189245],"TotalKeys":1,"Block":2,"Trial":224,"Robot":1,"Valence":"Win","Action":"Go","Sham":0,"Color":"blue","trial_type":"pit-trial","trial_index":243,"time_elapsed":1256395,"internal_node_id":"0.0-232.0","task_version":"test-retest-t2"},{"Rune":"rune_04_wunjo","Hex":"#ffcc3399","Correct":32,"Choice":32,"RT":469.9599999585189,"Accuracy":1,"Outcome":"-1","Keys":[1970.9900000016205],"TotalKeys":1,"Block":2,"Trial":225,"Robot":3,"Valence":"Lose","Action":"Go","Sham":0,"Color":"yellow","trial_type":"pit-trial","trial_index":244,"time_elapsed":1259369,"internal_node_id":"0.0-233.0","task_version":"test-retest-t2"},{"Rune":"rune_04_dagaz","Hex":"#3366ff99","Correct":-1,"Choice":-1,"RT":-1,"Accuracy":1,"Outcome":"+10","Keys":[],"TotalKeys":0,"Block":2,"Trial":226,"Robot":2,"Valence":"Win","Action":"No-Go","Sham":0,"Color":"blue","trial_type":"pit-trial","trial_index":245,"time_elapsed":1263373,"internal_node_id":"0.0-234.0","task_version":"test-retest-t2"},{"Rune":"rune_04_iwaz","Hex":"#ffcc3399","Correct":-1,"Choice":-1,"RT":-1,"Accuracy":1,"Outcome":"-1","Keys":[],"TotalKeys":0,"Block":2,"Trial":227,"Robot":4,"Valence":"Lose","Action":"No-Go","Sham":0,"Color":"yellow","trial_type":"pit-trial","trial_index":246,"time_elapsed":1267380,"internal_node_id":"0.0-235.0","task_version":"test-retest-t2"},{"Rune":"rune_04_ac","Hex":"#3366ff99","Correct":32,"Choice":32,"RT":485.5500000412576,"Accuracy":1,"Outcome":"+10","Keys":[1986.5450000506826],"TotalKeys":1,"Block":2,"Trial":228,"Robot":1,"Valence":"Win","Action":"Go","Sham":0,"Color":"blue","trial_type":"pit-trial","trial_index":247,"time_elapsed":1270370,"internal_node_id":"0.0-236.0","task_version":"test-retest-t2"},{"Rune":"rune_04_wunjo","Hex":"#ffcc3399","Correct":32,"Choice":32,"RT":371.23499996960163,"Accuracy":1,"Outcome":"-1","Keys":[1876.6099999775179],"TotalKeys":1,"Block":2,"Trial":229,"Robot":3,"Valence":"Lose","Action":"Go","Sham":0,"Color":"yellow","trial_type":"pit-trial","trial_index":248,"time_elapsed":1273249,"internal_node_id":"0.0-237.0","task_version":"test-retest-t2"},{"Rune":"rune_04_iwaz","Hex":"#ffcc3399","Correct":-1,"Choice":-1,"RT":-1,"Accuracy":1,"Outcome":"-10","Keys":[],"TotalKeys":0,"Block":2,"Trial":230,"Robot":4,"Valence":"Lose","Action":"No-Go","Sham":1,"Color":"yellow","trial_type":"pit-trial","trial_index":249,"time_elapsed":1277254,"internal_node_id":"0.0-238.0","task_version":"test-retest-t2"},{"Rune":"rune_04_ac","Hex":"#3366ff99","Correct":32,"Choice":32,"RT":314.9750000447966,"Accuracy":1,"Outcome":"+1","Keys":[1816.3800000329502],"TotalKeys":1,"Block":2,"Trial":231,"Robot":1,"Valence":"Win","Action":"Go","Sham":1,"Color":"blue","trial_type":"pit-trial","trial_index":250,"time_elapsed":1280099,"internal_node_id":"0.0-239.0","task_version":"test-retest-t2"},{"Rune":"rune_04_dagaz","Hex":"#3366ff99","Correct":-1,"Choice":-1,"RT":-1,"Accuracy":1,"Outcome":"+10","Keys":[],"TotalKeys":0,"Block":2,"Trial":232,"Robot":2,"Valence":"Win","Action":"No-Go","Sham":0,"Color":"blue","trial_type":"pit-trial","trial_index":251,"time_elapsed":1284105,"internal_node_id":"0.0-240.0","task_version":"test-retest-t2"},{"Rune":"rune_04_ac","Hex":"#3366ff99","Correct":32,"Choice":32,"RT":368.54500003391877,"Accuracy":1,"Outcome":"+10","Keys":[1869.2100000334904],"TotalKeys":1,"Block":2,"Trial":233,"Robot":1,"Valence":"Win","Action":"Go","Sham":0,"Color":"blue","trial_type":"pit-trial","trial_index":252,"time_elapsed":1286978,"internal_node_id":"0.0-241.0","task_version":"test-retest-t2"},{"Rune":"rune_04_dagaz","Hex":"#3366ff99","Correct":-1,"Choice":-1,"RT":-1,"Accuracy":1,"Outcome":"+10","Keys":[],"TotalKeys":0,"Block":2,"Trial":234,"Robot":2,"Valence":"Win","Action":"No-Go","Sham":0,"Color":"blue","trial_type":"pit-trial","trial_index":253,"time_elapsed":1290996,"internal_node_id":"0.0-242.0","task_version":"test-retest-t2"},{"Rune":"rune_04_wunjo","Hex":"#ffcc3399","Correct":32,"Choice":32,"RT":388.7949999771081,"Accuracy":1,"Outcome":"-1","Keys":[1890.5099999974482],"TotalKeys":1,"Block":2,"Trial":235,"Robot":3,"Valence":"Lose","Action":"Go","Sham":0,"Color":"yellow","trial_type":"pit-trial","trial_index":254,"time_elapsed":1293889,"internal_node_id":"0.0-243.0","task_version":"test-retest-t2"},{"Rune":"rune_04_iwaz","Hex":"#ffcc3399","Correct":-1,"Choice":-1,"RT":-1,"Accuracy":1,"Outcome":"-1","Keys":[],"TotalKeys":0,"Block":2,"Trial":236,"Robot":4,"Valence":"Lose","Action":"No-Go","Sham":0,"Color":"yellow","trial_type":"pit-trial","trial_index":255,"time_elapsed":1297894,"internal_node_id":"0.0-244.0","task_version":"test-retest-t2"},{"Rune":"rune_04_dagaz","Hex":"#3366ff99","Correct":-1,"Choice":-1,"RT":-1,"Accuracy":1,"Outcome":"+1","Keys":[],"TotalKeys":0,"Block":2,"Trial":237,"Robot":2,"Valence":"Win","Action":"No-Go","Sham":1,"Color":"blue","trial_type":"pit-trial","trial_index":256,"time_elapsed":1301898,"internal_node_id":"0.0-245.0","task_version":"test-retest-t2"},{"Rune":"rune_04_wunjo","Hex":"#ffcc3399","Correct":32,"Choice":32,"RT":279.55999999539927,"Accuracy":1,"Outcome":"-10","Keys":[1780.3050000220537],"TotalKeys":1,"Block":2,"Trial":238,"Robot":3,"Valence":"Lose","Action":"Go","Sham":1,"Color":"yellow","trial_type":"pit-trial","trial_index":257,"time_elapsed":1304683,"internal_node_id":"0.0-246.0","task_version":"test-retest-t2"},{"Rune":"rune_04_iwaz","Hex":"#ffcc3399","Correct":-1,"Choice":-1,"RT":-1,"Accuracy":1,"Outcome":"-1","Keys":[],"TotalKeys":0,"Block":2,"Trial":239,"Robot":4,"Valence":"Lose","Action":"No-Go","Sham":0,"Color":"yellow","trial_type":"pit-trial","trial_index":258,"time_elapsed":1308687,"internal_node_id":"0.0-247.0","task_version":"test-retest-t2"},{"Rune":"rune_04_ac","Hex":"#3366ff99","Correct":32,"Choice":32,"RT":473.485000024084,"Accuracy":1,"Outcome":"+10","Keys":[1975.2649999572895],"TotalKeys":1,"Block":2,"Trial":240,"Robot":1,"Valence":"Win","Action":"Go","Sham":0,"Color":"blue","trial_type":"pit-trial","trial_index":259,"time_elapsed":1311665,"internal_node_id":"0.0-248.0","task_version":"test-retest-t2"},{"view_history":"[{\"page_index\":0,\"viewing_time\":4908.875000022817}]","rt":4909.274999983609,"trial_type":"pit-instructions","trial_index":260,"time_elapsed":1316576,"internal_node_id":"0.0-249.0","task_version":"test-retest-t2"},{"rt":15414.155000005849,"responses":{"difficulty":"4","fun":"4","clarity":"5","strategy":"memorization","feedback":"n/a"},"survey":"debrief","trial_type":"survey-debrief","trial_index":261,"time_elapsed":1331993,"internal_node_id":"0.0-250.0","task_version":"test-retest-t2"},{"rt":4340.970000019297,"stimulus":"You earned a bonus of $1.44 out of $1.5.<br><br>Press any key to complete the experiment.","key_press":68,"trial_type":"html-keyboard-response","trial_index":262,"time_elapsed":1336336,"internal_node_id":"0.0-251.0","task_version":"test-retest-t2","accuracy":0.9541666666666667,"bonus":1.44,"interactions":"[]"}]