[{"slider_type":"valence","raw_loc":405,"loc":0.31,"trial_type":"affective-slider","trial_index":0,"time_elapsed":8618,"internal_node_id":"0.0-0.0","task_version":"test-retest"},{"responses":{"Q13":"0","Q02":"3","Q05":"2","Q07":"3","Q08":"1","Q12":"1","Q01":"3","Q04":"2","Q06":"2","Q09":"0","Q10":"0","Q03":"3","Q11":"1"},"rt":50390,"survey":"bisbas","trial_type":"survey-template","trial_index":1,"time_elapsed":59012,"internal_node_id":"0.0-1.0","task_version":"test-retest"},{"responses":{"Q13":"1","Q12":"2","Q11":"2","Q03":"0","Q07":"0","Q09":"3","Q02":"2","Q08":"0","Q15":"0","Q01":"0","Q14":"2","Q05":"2","Q04":"0","Q10":"2","Q06":"0"},"rt":86105,"survey":"7up7down","trial_type":"survey-template","trial_index":2,"time_elapsed":145120,"internal_node_id":"0.0-2.0","task_version":"test-retest"},{"responses":{"Q01":"2","Q03":"2","Q06":"1","Q05":"0","Q02":"2","Q08":"0","Q07":"2","Q04":"1"},"rt":19580,"survey":"gad7","trial_type":"survey-template","trial_index":3,"time_elapsed":164703,"internal_node_id":"0.0-3.0","task_version":"test-retest"},{"value":false,"trial_type":"call-function","trial_index":4,"time_elapsed":164705,"internal_node_id":"0.0-4.0","task_version":"test-retest"},{"view_history":"[{\"page_index\":0,\"viewing_time\":2906},{\"page_index\":1,\"viewing_time\":2433},{\"page_index\":2,\"viewing_time\":6760},{\"page_index\":3,\"viewing_time\":3479},{\"page_index\":4,\"viewing_time\":3344}]","rt":18923,"trial_type":"pit-instructions","trial_index":5,"time_elapsed":183635,"internal_node_id":"0.0-5.0-0.0","task_version":"test-retest"},{"Rune":"rune_00_ingz","Hex":"#FFFFF080","Correct":32,"Choice":32,"RT":386,"Accuracy":1,"Outcome":"+10","Keys":[1887],"TotalKeys":1,"Block":0,"Action":"Go","trial_type":"pit-trial","trial_index":6,"time_elapsed":186525,"internal_node_id":"0.0-5.0-1.0-0.0","task_version":"test-retest"},{"Rune":"rune_00_ingz","Hex":"#FFFFF080","Correct":32,"Choice":32,"RT":241,"Accuracy":1,"Outcome":"+10","Keys":[1741],"TotalKeys":1,"Block":0,"Action":"Go","trial_type":"pit-trial","trial_index":7,"time_elapsed":189267,"internal_node_id":"0.0-5.0-1.0-0.1","task_version":"test-retest"},{"Rune":"rune_00_ingz","Hex":"#FFFFF080","Correct":32,"Choice":32,"RT":353,"Accuracy":1,"Outcome":"+10","Keys":[1855],"TotalKeys":1,"Block":0,"Action":"Go","trial_type":"pit-trial","trial_index":8,"time_elapsed":192124,"internal_node_id":"0.0-5.0-1.0-0.2","task_version":"test-retest"},{"Rune":"rune_00_ingz","Hex":"#FFFFF080","Correct":32,"Choice":32,"RT":240,"Accuracy":1,"Outcome":"+10","Keys":[1740],"TotalKeys":1,"Block":0,"Action":"Go","trial_type":"pit-trial","trial_index":9,"time_elapsed":194868,"internal_node_id":"0.0-5.0-1.0-0.3","task_version":"test-retest"},{"view_history":"[{\"page_index\":0,\"viewing_time\":3238}]","rt":3238,"trial_type":"pit-instructions","trial_index":10,"time_elapsed":198107,"internal_node_id":"0.0-5.0-2.0","task_version":"test-retest"},{"Rune":"rune_00_isaz","Hex":"#FFFFF080","Correct":-1,"Choice":-1,"RT":-1,"Accuracy":1,"Outcome":"+10","Keys":[],"TotalKeys":0,"Block":0,"Action":"No-Go","trial_type":"pit-trial","trial_index":11,"time_elapsed":202110,"internal_node_id":"0.0-5.0-3.0-0.0","task_version":"test-retest"},{"Rune":"rune_00_isaz","Hex":"#FFFFF080","Correct":-1,"Choice":-1,"RT":-1,"Accuracy":1,"Outcome":"+10","Keys":[],"TotalKeys":0,"Block":0,"Action":"No-Go","trial_type":"pit-trial","trial_index":12,"time_elapsed":206111,"internal_node_id":"0.0-5.0-3.0-0.1","task_version":"test-retest"},{"Rune":"rune_00_isaz","Hex":"#FFFFF080","Correct":-1,"Choice":-1,"RT":-1,"Accuracy":1,"Outcome":"+10","Keys":[],"TotalKeys":0,"Block":0,"Action":"No-Go","trial_type":"pit-trial","trial_index":13,"time_elapsed":210115,"internal_node_id":"0.0-5.0-3.0-0.2","task_version":"test-retest"},{"Rune":"rune_00_isaz","Hex":"#FFFFF080","Correct":-1,"Choice":-1,"RT":-1,"Accuracy":1,"Outcome":"+10","Keys":[],"TotalKeys":0,"Block":0,"Action":"No-Go","trial_type":"pit-trial","trial_index":14,"time_elapsed":214117,"internal_node_id":"0.0-5.0-3.0-0.3","task_version":"test-retest"},{"view_history":"[{\"page_index\":0,\"viewing_time\":6068},{\"page_index\":1,\"viewing_time\":24739},{\"page_index\":2,\"viewing_time\":5997},{\"page_index\":3,\"viewing_time\":3905},{\"page_index\":4,\"viewing_time\":3656},{\"page_index\":5,\"viewing_time\":4872},{\"page_index\":6,\"viewing_time\":2344},{\"page_index\":7,\"viewing_time\":2112}]","rt":53693,"trial_type":"pit-instructions","trial_index":15,"time_elapsed":267811,"internal_node_id":"0.0-5.0-4.0","task_version":"test-retest"},{"responses":["Do nothing","+10","-1","True","Yes"],"num_errors":0,"rt":16579,"trial_type":"pit-comprehension","trial_index":16,"time_elapsed":284394,"internal_node_id":"0.0-5.0-5.0","task_version":"test-retest"},{"trial_type":"call-function","trial_index":17,"time_elapsed":284399,"internal_node_id":"0.0-6.0","task_version":"test-retest"},{"view_history":"[{\"page_index\":0,\"viewing_time\":7499},{\"page_index\":1,\"viewing_time\":3561}]","rt":11060,"trial_type":"pit-instructions","trial_index":18,"time_elapsed":295460,"internal_node_id":"0.0-7.0","task_version":"test-retest"},{"Rune":"rune_02_cen","Hex":"#ffcc3399","Correct":32,"Choice":-1,"RT":-1,"Accuracy":0,"Outcome":"-10","Keys":[],"TotalKeys":0,"Block":1,"Trial":1,"Robot":3,"Valence":"Lose","Action":"Go","Sham":0,"Color":"yellow","trial_type":"pit-trial","trial_index":19,"time_elapsed":299462,"internal_node_id":"0.0-8.0","task_version":"test-retest"},{"Rune":"rune_02_haglaz","Hex":"#3366ff99","Correct":32,"Choice":32,"RT":822,"Accuracy":1,"Outcome":"+1","Keys":[2323],"TotalKeys":1,"Block":1,"Trial":2,"Robot":1,"Valence":"Win","Action":"Go","Sham":1,"Color":"blue","trial_type":"pit-trial","trial_index":20,"time_elapsed":302788,"internal_node_id":"0.0-9.0","task_version":"test-retest"},{"Rune":"rune_02_raido","Hex":"#3366ff99","Correct":-1,"Choice":32,"RT":752,"Accuracy":0,"Outcome":"+1","Keys":[2252],"TotalKeys":1,"Block":1,"Trial":3,"Robot":2,"Valence":"Win","Action":"No-Go","Sham":0,"Color":"blue","trial_type":"pit-trial","trial_index":21,"time_elapsed":306044,"internal_node_id":"0.0-10.0","task_version":"test-retest"},{"Rune":"rune_02_os","Hex":"#ffcc3399","Correct":-1,"Choice":-1,"RT":-1,"Accuracy":1,"Outcome":"-1","Keys":[],"TotalKeys":0,"Block":1,"Trial":4,"Robot":4,"Valence":"Lose","Action":"No-Go","Sham":0,"Color":"yellow","trial_type":"pit-trial","trial_index":22,"time_elapsed":310047,"internal_node_id":"0.0-11.0","task_version":"test-retest"},{"Rune":"rune_02_haglaz","Hex":"#3366ff99","Correct":32,"Choice":-1,"RT":-1,"Accuracy":0,"Outcome":"+1","Keys":[],"TotalKeys":0,"Block":1,"Trial":5,"Robot":1,"Valence":"Win","Action":"Go","Sham":0,"Color":"blue","trial_type":"pit-trial","trial_index":23,"time_elapsed":314052,"internal_node_id":"0.0-12.0","task_version":"test-retest"},{"Rune":"rune_02_raido","Hex":"#3366ff99","Correct":-1,"Choice":-1,"RT":-1,"Accuracy":1,"Outcome":"+10","Keys":[],"TotalKeys":0,"Block":1,"Trial":6,"Robot":2,"Valence":"Win","Action":"No-Go","Sham":0,"Color":"blue","trial_type":"pit-trial","trial_index":24,"time_elapsed":318053,"internal_node_id":"0.0-13.0","task_version":"test-retest"},{"Rune":"rune_02_os","Hex":"#ffcc3399","Correct":-1,"Choice":-1,"RT":-1,"Accuracy":1,"Outcome":"-1","Keys":[],"TotalKeys":0,"Block":1,"Trial":7,"Robot":4,"Valence":"Lose","Action":"No-Go","Sham":0,"Color":"yellow","trial_type":"pit-trial","trial_index":25,"time_elapsed":322057,"internal_node_id":"0.0-14.0","task_version":"test-retest"},{"Rune":"rune_02_cen","Hex":"#ffcc3399","Correct":32,"Choice":-1,"RT":-1,"Accuracy":0,"Outcome":"-10","Keys":[],"TotalKeys":0,"Block":1,"Trial":8,"Robot":3,"Valence":"Lose","Action":"Go","Sham":0,"Color":"yellow","trial_type":"pit-trial","trial_index":26,"time_elapsed":326059,"internal_node_id":"0.0-15.0","task_version":"test-retest"},{"Rune":"rune_02_cen","Hex":"#ffcc3399","Correct":32,"Choice":32,"RT":705,"Accuracy":1,"Outcome":"-1","Keys":[2206],"TotalKeys":1,"Block":1,"Trial":9,"Robot":3,"Valence":"Lose","Action":"Go","Sham":0,"Color":"yellow","trial_type":"pit-trial","trial_index":27,"time_elapsed":329267,"internal_node_id":"0.0-16.0","task_version":"test-retest"},{"Rune":"rune_02_haglaz","Hex":"#3366ff99","Correct":32,"Choice":-1,"RT":-1,"Accuracy":0,"Outcome":"+1","Keys":[],"TotalKeys":0,"Block":1,"Trial":10,"Robot":1,"Valence":"Win","Action":"Go","Sham":0,"Color":"blue","trial_type":"pit-trial","trial_index":28,"time_elapsed":333271,"internal_node_id":"0.0-17.0","task_version":"test-retest"},{"Rune":"rune_02_os","Hex":"#ffcc3399","Correct":-1,"Choice":-1,"RT":-1,"Accuracy":1,"Outcome":"-10","Keys":[],"TotalKeys":0,"Block":1,"Trial":11,"Robot":4,"Valence":"Lose","Action":"No-Go","Sham":1,"Color":"yellow","trial_type":"pit-trial","trial_index":29,"time_elapsed":337273,"internal_node_id":"0.0-18.0","task_version":"test-retest"},{"Rune":"rune_02_raido","Hex":"#3366ff99","Correct":-1,"Choice":-1,"RT":-1,"Accuracy":1,"Outcome":"+1","Keys":[],"TotalKeys":0,"Block":1,"Trial":12,"Robot":2,"Valence":"Win","Action":"No-Go","Sham":1,"Color":"blue","trial_type":"pit-trial","trial_index":30,"time_elapsed":341275,"internal_node_id":"0.0-19.0","task_version":"test-retest"},{"Rune":"rune_02_raido","Hex":"#3366ff99","Correct":-1,"Choice":32,"RT":856,"Accuracy":0,"Outcome":"+1","Keys":[2358],"TotalKeys":1,"Block":1,"Trial":13,"Robot":2,"Valence":"Win","Action":"No-Go","Sham":0,"Color":"blue","trial_type":"pit-trial","trial_index":31,"time_elapsed":344635,"internal_node_id":"0.0-20.0","task_version":"test-retest"},{"Rune":"rune_02_cen","Hex":"#ffcc3399","Correct":32,"Choice":32,"RT":792,"Accuracy":1,"Outcome":"-10","Keys":[2294],"TotalKeys":1,"Block":1,"Trial":14,"Robot":3,"Valence":"Lose","Action":"Go","Sham":1,"Color":"yellow","trial_type":"pit-trial","trial_index":32,"time_elapsed":347932,"internal_node_id":"0.0-21.0","task_version":"test-retest"},{"Rune":"rune_02_haglaz","Hex":"#3366ff99","Correct":32,"Choice":32,"RT":656,"Accuracy":1,"Outcome":"+10","Keys":[2158],"TotalKeys":1,"Block":1,"Trial":15,"Robot":1,"Valence":"Win","Action":"Go","Sham":0,"Color":"blue","trial_type":"pit-trial","trial_index":33,"time_elapsed":351091,"internal_node_id":"0.0-22.0","task_version":"test-retest"},{"Rune":"rune_02_os","Hex":"#ffcc3399","Correct":-1,"Choice":-1,"RT":-1,"Accuracy":1,"Outcome":"-1","Keys":[],"TotalKeys":0,"Block":1,"Trial":16,"Robot":4,"Valence":"Lose","Action":"No-Go","Sham":0,"Color":"yellow","trial_type":"pit-trial","trial_index":34,"time_elapsed":355096,"internal_node_id":"0.0-23.0","task_version":"test-retest"},{"Rune":"rune_02_haglaz","Hex":"#3366ff99","Correct":32,"Choice":32,"RT":661,"Accuracy":1,"Outcome":"+10","Keys":[2162],"TotalKeys":1,"Block":1,"Trial":17,"Robot":1,"Valence":"Win","Action":"Go","Sham":0,"Color":"blue","trial_type":"pit-trial","trial_index":35,"time_elapsed":358258,"internal_node_id":"0.0-24.0","task_version":"test-retest"},{"Rune":"rune_02_os","Hex":"#ffcc3399","Correct":-1,"Choice":-1,"RT":-1,"Accuracy":1,"Outcome":"-1","Keys":[],"TotalKeys":0,"Block":1,"Trial":18,"Robot":4,"Valence":"Lose","Action":"No-Go","Sham":0,"Color":"yellow","trial_type":"pit-trial","trial_index":36,"time_elapsed":362261,"internal_node_id":"0.0-25.0","task_version":"test-retest"},{"Rune":"rune_02_raido","Hex":"#3366ff99","Correct":-1,"Choice":32,"RT":599,"Accuracy":0,"Outcome":"+1","Keys":[2102],"TotalKeys":1,"Block":1,"Trial":19,"Robot":2,"Valence":"Win","Action":"No-Go","Sham":0,"Color":"blue","trial_type":"pit-trial","trial_index":37,"time_elapsed":365364,"internal_node_id":"0.0-26.0","task_version":"test-retest"},{"Rune":"rune_02_cen","Hex":"#ffcc3399","Correct":32,"Choice":-1,"RT":-1,"Accuracy":0,"Outcome":"-10","Keys":[],"TotalKeys":0,"Block":1,"Trial":20,"Robot":3,"Valence":"Lose","Action":"Go","Sham":0,"Color":"yellow","trial_type":"pit-trial","trial_index":38,"time_elapsed":369367,"internal_node_id":"0.0-27.0","task_version":"test-retest"},{"Rune":"rune_02_cen","Hex":"#ffcc3399","Correct":32,"Choice":32,"RT":663,"Accuracy":1,"Outcome":"-10","Keys":[2164],"TotalKeys":1,"Block":1,"Trial":21,"Robot":3,"Valence":"Lose","Action":"Go","Sham":1,"Color":"yellow","trial_type":"pit-trial","trial_index":39,"time_elapsed":372531,"internal_node_id":"0.0-28.0","task_version":"test-retest"},{"Rune":"rune_02_raido","Hex":"#3366ff99","Correct":-1,"Choice":32,"RT":705,"Accuracy":0,"Outcome":"+10","Keys":[2205],"TotalKeys":1,"Block":1,"Trial":22,"Robot":2,"Valence":"Win","Action":"No-Go","Sham":1,"Color":"blue","trial_type":"pit-trial","trial_index":40,"time_elapsed":375738,"internal_node_id":"0.0-29.0","task_version":"test-retest"},{"Rune":"rune_02_haglaz","Hex":"#3366ff99","Correct":32,"Choice":32,"RT":811,"Accuracy":1,"Outcome":"+10","Keys":[2312],"TotalKeys":1,"Block":1,"Trial":23,"Robot":1,"Valence":"Win","Action":"Go","Sham":0,"Color":"blue","trial_type":"pit-trial","trial_index":41,"time_elapsed":379053,"internal_node_id":"0.0-30.0","task_version":"test-retest"},{"Rune":"rune_02_os","Hex":"#ffcc3399","Correct":-1,"Choice":-1,"RT":-1,"Accuracy":1,"Outcome":"-1","Keys":[],"TotalKeys":0,"Block":1,"Trial":24,"Robot":4,"Valence":"Lose","Action":"No-Go","Sham":0,"Color":"yellow","trial_type":"pit-trial","trial_index":42,"time_elapsed":383056,"internal_node_id":"0.0-31.0","task_version":"test-retest"},{"Rune":"rune_02_raido","Hex":"#3366ff99","Correct":-1,"Choice":32,"RT":494,"Accuracy":0,"Outcome":"+1","Keys":[1995],"TotalKeys":1,"Block":1,"Trial":25,"Robot":2,"Valence":"Win","Action":"No-Go","Sham":0,"Color":"blue","trial_type":"pit-trial","trial_index":43,"time_elapsed":386052,"internal_node_id":"0.0-32.0","task_version":"test-retest"},{"Rune":"rune_02_os","Hex":"#ffcc3399","Correct":-1,"Choice":-1,"RT":-1,"Accuracy":1,"Outcome":"-1","Keys":[],"TotalKeys":0,"Block":1,"Trial":26,"Robot":4,"Valence":"Lose","Action":"No-Go","Sham":0,"Color":"yellow","trial_type":"pit-trial","trial_index":44,"time_elapsed":390054,"internal_node_id":"0.0-33.0","task_version":"test-retest"},{"Rune":"rune_02_haglaz","Hex":"#3366ff99","Correct":32,"Choice":32,"RT":576,"Accuracy":1,"Outcome":"+10","Keys":[2076],"TotalKeys":1,"Block":1,"Trial":27,"Robot":1,"Valence":"Win","Action":"Go","Sham":0,"Color":"blue","trial_type":"pit-trial","trial_index":45,"time_elapsed":393132,"internal_node_id":"0.0-34.0","task_version":"test-retest"},{"Rune":"rune_02_cen","Hex":"#ffcc3399","Correct":32,"Choice":-1,"RT":-1,"Accuracy":0,"Outcome":"-10","Keys":[],"TotalKeys":0,"Block":1,"Trial":28,"Robot":3,"Valence":"Lose","Action":"Go","Sham":0,"Color":"yellow","trial_type":"pit-trial","trial_index":46,"time_elapsed":397135,"internal_node_id":"0.0-35.0","task_version":"test-retest"},{"Rune":"rune_02_os","Hex":"#ffcc3399","Correct":-1,"Choice":-1,"RT":-1,"Accuracy":1,"Outcome":"-1","Keys":[],"TotalKeys":0,"Block":1,"Trial":29,"Robot":4,"Valence":"Lose","Action":"No-Go","Sham":0,"Color":"yellow","trial_type":"pit-trial","trial_index":47,"time_elapsed":401136,"internal_node_id":"0.0-36.0","task_version":"test-retest"},{"Rune":"rune_02_raido","Hex":"#3366ff99","Correct":-1,"Choice":32,"RT":716,"Accuracy":0,"Outcome":"+1","Keys":[2216],"TotalKeys":1,"Block":1,"Trial":30,"Robot":2,"Valence":"Win","Action":"No-Go","Sham":0,"Color":"blue","trial_type":"pit-trial","trial_index":48,"time_elapsed":404356,"internal_node_id":"0.0-37.0","task_version":"test-retest"},{"Rune":"rune_02_cen","Hex":"#ffcc3399","Correct":32,"Choice":32,"RT":864,"Accuracy":1,"Outcome":"-1","Keys":[2365],"TotalKeys":1,"Block":1,"Trial":31,"Robot":3,"Valence":"Lose","Action":"Go","Sham":0,"Color":"yellow","trial_type":"pit-trial","trial_index":49,"time_elapsed":407723,"internal_node_id":"0.0-38.0","task_version":"test-retest"},{"Rune":"rune_02_haglaz","Hex":"#3366ff99","Correct":32,"Choice":32,"RT":776,"Accuracy":1,"Outcome":"+10","Keys":[2278],"TotalKeys":1,"Block":1,"Trial":32,"Robot":1,"Valence":"Win","Action":"Go","Sham":0,"Color":"blue","trial_type":"pit-trial","trial_index":50,"time_elapsed":411004,"internal_node_id":"0.0-39.0","task_version":"test-retest"},{"Rune":"rune_02_cen","Hex":"#ffcc3399","Correct":32,"Choice":32,"RT":1120,"Accuracy":1,"Outcome":"-1","Keys":[2622],"TotalKeys":1,"Block":1,"Trial":33,"Robot":3,"Valence":"Lose","Action":"Go","Sham":0,"Color":"yellow","trial_type":"pit-trial","trial_index":51,"time_elapsed":414627,"internal_node_id":"0.0-40.0","task_version":"test-retest"},{"Rune":"rune_02_haglaz","Hex":"#3366ff99","Correct":32,"Choice":32,"RT":706,"Accuracy":1,"Outcome":"+1","Keys":[2206],"TotalKeys":1,"Block":1,"Trial":34,"Robot":1,"Valence":"Win","Action":"Go","Sham":1,"Color":"blue","trial_type":"pit-trial","trial_index":52,"time_elapsed":417836,"internal_node_id":"0.0-41.0","task_version":"test-retest"},{"Rune":"rune_02_os","Hex":"#ffcc3399","Correct":-1,"Choice":32,"RT":914,"Accuracy":0,"Outcome":"-1","Keys":[2414],"TotalKeys":1,"Block":1,"Trial":35,"Robot":4,"Valence":"Lose","Action":"No-Go","Sham":1,"Color":"yellow","trial_type":"pit-trial","trial_index":53,"time_elapsed":421252,"internal_node_id":"0.0-42.0","task_version":"test-retest"},{"Rune":"rune_02_raido","Hex":"#3366ff99","Correct":-1,"Choice":32,"RT":794,"Accuracy":0,"Outcome":"+1","Keys":[2294],"TotalKeys":1,"Block":1,"Trial":36,"Robot":2,"Valence":"Win","Action":"No-Go","Sham":0,"Color":"blue","trial_type":"pit-trial","trial_index":54,"time_elapsed":424549,"internal_node_id":"0.0-43.0","task_version":"test-retest"},{"Rune":"rune_02_os","Hex":"#ffcc3399","Correct":-1,"Choice":32,"RT":889,"Accuracy":0,"Outcome":"-10","Keys":[2389],"TotalKeys":1,"Block":1,"Trial":37,"Robot":4,"Valence":"Lose","Action":"No-Go","Sham":0,"Color":"yellow","trial_type":"pit-trial","trial_index":55,"time_elapsed":427940,"internal_node_id":"0.0-44.0","task_version":"test-retest"},{"Rune":"rune_02_raido","Hex":"#3366ff99","Correct":-1,"Choice":32,"RT":825,"Accuracy":0,"Outcome":"+1","Keys":[2326],"TotalKeys":1,"Block":1,"Trial":38,"Robot":2,"Valence":"Win","Action":"No-Go","Sham":0,"Color":"blue","trial_type":"pit-trial","trial_index":56,"time_elapsed":431268,"internal_node_id":"0.0-45.0","task_version":"test-retest"},{"Rune":"rune_02_haglaz","Hex":"#3366ff99","Correct":32,"Choice":32,"RT":713,"Accuracy":1,"Outcome":"+10","Keys":[2213],"TotalKeys":1,"Block":1,"Trial":39,"Robot":1,"Valence":"Win","Action":"Go","Sham":0,"Color":"blue","trial_type":"pit-trial","trial_index":57,"time_elapsed":434484,"internal_node_id":"0.0-46.0","task_version":"test-retest"},{"Rune":"rune_02_cen","Hex":"#ffcc3399","Correct":32,"Choice":32,"RT":802,"Accuracy":1,"Outcome":"-1","Keys":[2302],"TotalKeys":1,"Block":1,"Trial":40,"Robot":3,"Valence":"Lose","Action":"Go","Sham":0,"Color":"yellow","trial_type":"pit-trial","trial_index":58,"time_elapsed":437787,"internal_node_id":"0.0-47.0","task_version":"test-retest"},{"Rune":"rune_02_os","Hex":"#ffcc3399","Correct":-1,"Choice":-1,"RT":-1,"Accuracy":1,"Outcome":"-1","Keys":[],"TotalKeys":0,"Block":1,"Trial":41,"Robot":4,"Valence":"Lose","Action":"No-Go","Sham":0,"Color":"yellow","trial_type":"pit-trial","trial_index":59,"time_elapsed":441791,"internal_node_id":"0.0-48.0","task_version":"test-retest"},{"Rune":"rune_02_cen","Hex":"#ffcc3399","Correct":32,"Choice":32,"RT":774,"Accuracy":1,"Outcome":"-1","Keys":[2275],"TotalKeys":1,"Block":1,"Trial":42,"Robot":3,"Valence":"Lose","Action":"Go","Sham":0,"Color":"yellow","trial_type":"pit-trial","trial_index":60,"time_elapsed":445067,"internal_node_id":"0.0-49.0","task_version":"test-retest"},{"Rune":"rune_02_raido","Hex":"#3366ff99","Correct":-1,"Choice":32,"RT":864,"Accuracy":0,"Outcome":"+1","Keys":[2365],"TotalKeys":1,"Block":1,"Trial":43,"Robot":2,"Valence":"Win","Action":"No-Go","Sham":0,"Color":"blue","trial_type":"pit-trial","trial_index":61,"time_elapsed":448436,"internal_node_id":"0.0-50.0","task_version":"test-retest"},{"Rune":"rune_02_haglaz","Hex":"#3366ff99","Correct":32,"Choice":32,"RT":600,"Accuracy":1,"Outcome":"+10","Keys":[2101],"TotalKeys":1,"Block":1,"Trial":44,"Robot":1,"Valence":"Win","Action":"Go","Sham":0,"Color":"blue","trial_type":"pit-trial","trial_index":62,"time_elapsed":451538,"internal_node_id":"0.0-51.0","task_version":"test-retest"},{"Rune":"rune_02_os","Hex":"#ffcc3399","Correct":-1,"Choice":32,"RT":914,"Accuracy":0,"Outcome":"-10","Keys":[2415],"TotalKeys":1,"Block":1,"Trial":45,"Robot":4,"Valence":"Lose","Action":"No-Go","Sham":0,"Color":"yellow","trial_type":"pit-trial","trial_index":63,"time_elapsed":454957,"internal_node_id":"0.0-52.0","task_version":"test-retest"},{"Rune":"rune_02_haglaz","Hex":"#3366ff99","Correct":32,"Choice":32,"RT":776,"Accuracy":1,"Outcome":"+10","Keys":[2277],"TotalKeys":1,"Block":1,"Trial":46,"Robot":1,"Valence":"Win","Action":"Go","Sham":0,"Color":"blue","trial_type":"pit-trial","trial_index":64,"time_elapsed":458235,"internal_node_id":"0.0-53.0","task_version":"test-retest"},{"Rune":"rune_02_cen","Hex":"#ffcc3399","Correct":32,"Choice":32,"RT":945,"Accuracy":1,"Outcome":"-10","Keys":[2446],"TotalKeys":1,"Block":1,"Trial":47,"Robot":3,"Valence":"Lose","Action":"Go","Sham":1,"Color":"yellow","trial_type":"pit-trial","trial_index":65,"time_elapsed":461683,"internal_node_id":"0.0-54.0","task_version":"test-retest"},{"Rune":"rune_02_raido","Hex":"#3366ff99","Correct":-1,"Choice":-1,"RT":-1,"Accuracy":1,"Outcome":"+10","Keys":[],"TotalKeys":0,"Block":1,"Trial":48,"Robot":2,"Valence":"Win","Action":"No-Go","Sham":0,"Color":"blue","trial_type":"pit-trial","trial_index":66,"time_elapsed":465686,"internal_node_id":"0.0-55.0","task_version":"test-retest"},{"Rune":"rune_02_haglaz","Hex":"#3366ff99","Correct":32,"Choice":32,"RT":685,"Accuracy":1,"Outcome":"+10","Keys":[2186],"TotalKeys":1,"Block":1,"Trial":49,"Robot":1,"Valence":"Win","Action":"Go","Sham":0,"Color":"blue","trial_type":"pit-trial","trial_index":67,"time_elapsed":468875,"internal_node_id":"0.0-56.0","task_version":"test-retest"},{"Rune":"rune_02_cen","Hex":"#ffcc3399","Correct":32,"Choice":32,"RT":625,"Accuracy":1,"Outcome":"-1","Keys":[2126],"TotalKeys":1,"Block":1,"Trial":50,"Robot":3,"Valence":"Lose","Action":"Go","Sham":0,"Color":"yellow","trial_type":"pit-trial","trial_index":68,"time_elapsed":472004,"internal_node_id":"0.0-57.0","task_version":"test-retest"},{"Rune":"rune_02_os","Hex":"#ffcc3399","Correct":-1,"Choice":-1,"RT":-1,"Accuracy":1,"Outcome":"-1","Keys":[],"TotalKeys":0,"Block":1,"Trial":51,"Robot":4,"Valence":"Lose","Action":"No-Go","Sham":0,"Color":"yellow","trial_type":"pit-trial","trial_index":69,"time_elapsed":476006,"internal_node_id":"0.0-58.0","task_version":"test-retest"},{"Rune":"rune_02_raido","Hex":"#3366ff99","Correct":-1,"Choice":-1,"RT":-1,"Accuracy":1,"Outcome":"+10","Keys":[],"TotalKeys":0,"Block":1,"Trial":52,"Robot":2,"Valence":"Win","Action":"No-Go","Sham":0,"Color":"blue","trial_type":"pit-trial","trial_index":70,"time_elapsed":480009,"internal_node_id":"0.0-59.0","task_version":"test-retest"},{"Rune":"rune_02_raido","Hex":"#3366ff99","Correct":-1,"Choice":-1,"RT":-1,"Accuracy":1,"Outcome":"+10","Keys":[],"TotalKeys":0,"Block":1,"Trial":53,"Robot":2,"Valence":"Win","Action":"No-Go","Sham":0,"Color":"blue","trial_type":"pit-trial","trial_index":71,"time_elapsed":484014,"internal_node_id":"0.0-60.0","task_version":"test-retest"},{"Rune":"rune_02_haglaz","Hex":"#3366ff99","Correct":32,"Choice":32,"RT":638,"Accuracy":1,"Outcome":"+1","Keys":[2138],"TotalKeys":1,"Block":1,"Trial":54,"Robot":1,"Valence":"Win","Action":"Go","Sham":1,"Color":"blue","trial_type":"pit-trial","trial_index":72,"time_elapsed":487158,"internal_node_id":"0.0-61.0","task_version":"test-retest"},{"Rune":"rune_02_cen","Hex":"#ffcc3399","Correct":32,"Choice":-1,"RT":-1,"Accuracy":0,"Outcome":"-10","Keys":[],"TotalKeys":0,"Block":1,"Trial":55,"Robot":3,"Valence":"Lose","Action":"Go","Sham":0,"Color":"yellow","trial_type":"pit-trial","trial_index":73,"time_elapsed":491161,"internal_node_id":"0.0-62.0","task_version":"test-retest"},{"Rune":"rune_02_os","Hex":"#ffcc3399","Correct":-1,"Choice":-1,"RT":-1,"Accuracy":1,"Outcome":"-10","Keys":[],"TotalKeys":0,"Block":1,"Trial":56,"Robot":4,"Valence":"Lose","Action":"No-Go","Sham":1,"Color":"yellow","trial_type":"pit-trial","trial_index":74,"time_elapsed":495163,"internal_node_id":"0.0-63.0","task_version":"test-retest"},{"Rune":"rune_02_haglaz","Hex":"#3366ff99","Correct":32,"Choice":32,"RT":874,"Accuracy":1,"Outcome":"+10","Keys":[2374],"TotalKeys":1,"Block":1,"Trial":57,"Robot":1,"Valence":"Win","Action":"Go","Sham":0,"Color":"blue","trial_type":"pit-trial","trial_index":75,"time_elapsed":498539,"internal_node_id":"0.0-64.0","task_version":"test-retest"},{"Rune":"rune_02_raido","Hex":"#3366ff99","Correct":-1,"Choice":32,"RT":506,"Accuracy":0,"Outcome":"+10","Keys":[2007],"TotalKeys":1,"Block":1,"Trial":58,"Robot":2,"Valence":"Win","Action":"No-Go","Sham":1,"Color":"blue","trial_type":"pit-trial","trial_index":76,"time_elapsed":501549,"internal_node_id":"0.0-65.0","task_version":"test-retest"},{"Rune":"rune_02_cen","Hex":"#ffcc3399","Correct":32,"Choice":32,"RT":448,"Accuracy":1,"Outcome":"-1","Keys":[1949],"TotalKeys":1,"Block":1,"Trial":59,"Robot":3,"Valence":"Lose","Action":"Go","Sham":0,"Color":"yellow","trial_type":"pit-trial","trial_index":77,"time_elapsed":504501,"internal_node_id":"0.0-66.0","task_version":"test-retest"},{"Rune":"rune_02_os","Hex":"#ffcc3399","Correct":-1,"Choice":-1,"RT":-1,"Accuracy":1,"Outcome":"-1","Keys":[],"TotalKeys":0,"Block":1,"Trial":60,"Robot":4,"Valence":"Lose","Action":"No-Go","Sham":0,"Color":"yellow","trial_type":"pit-trial","trial_index":78,"time_elapsed":508503,"internal_node_id":"0.0-67.0","task_version":"test-retest"},{"value":false,"trial_type":"call-function","trial_index":79,"time_elapsed":508505,"internal_node_id":"0.0-68.0","task_version":"test-retest"},{"view_history":"[{\"page_index\":0,\"viewing_time\":3281},{\"page_index\":1,\"viewing_time\":1288}]","rt":4570,"trial_type":"pit-instructions","trial_index":80,"time_elapsed":513076,"internal_node_id":"0.0-69.0","task_version":"test-retest"},{"Rune":"rune_02_os","Hex":"#ffcc3399","Correct":-1,"Choice":-1,"RT":-1,"Accuracy":1,"Outcome":"-1","Keys":[],"TotalKeys":0,"Block":1,"Trial":61,"Robot":4,"Valence":"Lose","Action":"No-Go","Sham":0,"Color":"yellow","trial_type":"pit-trial","trial_index":81,"time_elapsed":517082,"internal_node_id":"0.0-70.0","task_version":"test-retest"},{"Rune":"rune_02_haglaz","Hex":"#3366ff99","Correct":32,"Choice":32,"RT":572,"Accuracy":1,"Outcome":"+1","Keys":[2072],"TotalKeys":1,"Block":1,"Trial":62,"Robot":1,"Valence":"Win","Action":"Go","Sham":1,"Color":"blue","trial_type":"pit-trial","trial_index":82,"time_elapsed":520155,"internal_node_id":"0.0-71.0","task_version":"test-retest"},{"Rune":"rune_02_raido","Hex":"#3366ff99","Correct":-1,"Choice":-1,"RT":-1,"Accuracy":1,"Outcome":"+10","Keys":[],"TotalKeys":0,"Block":1,"Trial":63,"Robot":2,"Valence":"Win","Action":"No-Go","Sham":0,"Color":"blue","trial_type":"pit-trial","trial_index":83,"time_elapsed":524157,"internal_node_id":"0.0-72.0","task_version":"test-retest"},{"Rune":"rune_02_cen","Hex":"#ffcc3399","Correct":32,"Choice":32,"RT":391,"Accuracy":1,"Outcome":"-1","Keys":[1892],"TotalKeys":1,"Block":1,"Trial":64,"Robot":3,"Valence":"Lose","Action":"Go","Sham":0,"Color":"yellow","trial_type":"pit-trial","trial_index":84,"time_elapsed":527051,"internal_node_id":"0.0-73.0","task_version":"test-retest"},{"Rune":"rune_02_cen","Hex":"#ffcc3399","Correct":32,"Choice":32,"RT":681,"Accuracy":1,"Outcome":"-1","Keys":[2182],"TotalKeys":1,"Block":1,"Trial":65,"Robot":3,"Valence":"Lose","Action":"Go","Sham":0,"Color":"yellow","trial_type":"pit-trial","trial_index":85,"time_elapsed":530236,"internal_node_id":"0.0-74.0","task_version":"test-retest"},{"Rune":"rune_02_haglaz","Hex":"#3366ff99","Correct":32,"Choice":32,"RT":889,"Accuracy":1,"Outcome":"+10","Keys":[2390],"TotalKeys":1,"Block":1,"Trial":66,"Robot":1,"Valence":"Win","Action":"Go","Sham":0,"Color":"blue","trial_type":"pit-trial","trial_index":86,"time_elapsed":533627,"internal_node_id":"0.0-75.0","task_version":"test-retest"},{"Rune":"rune_02_os","Hex":"#ffcc3399","Correct":-1,"Choice":-1,"RT":-1,"Accuracy":1,"Outcome":"-1","Keys":[],"TotalKeys":0,"Block":1,"Trial":67,"Robot":4,"Valence":"Lose","Action":"No-Go","Sham":0,"Color":"yellow","trial_type":"pit-trial","trial_index":87,"time_elapsed":537630,"internal_node_id":"0.0-76.0","task_version":"test-retest"},{"Rune":"rune_02_raido","Hex":"#3366ff99","Correct":-1,"Choice":-1,"RT":-1,"Accuracy":1,"Outcome":"+10","Keys":[],"TotalKeys":0,"Block":1,"Trial":68,"Robot":2,"Valence":"Win","Action":"No-Go","Sham":0,"Color":"blue","trial_type":"pit-trial","trial_index":88,"time_elapsed":541633,"internal_node_id":"0.0-77.0","task_version":"test-retest"},{"Rune":"rune_02_cen","Hex":"#ffcc3399","Correct":32,"Choice":32,"RT":812,"Accuracy":1,"Outcome":"-10","Keys":[2313],"TotalKeys":1,"Block":1,"Trial":69,"Robot":3,"Valence":"Lose","Action":"Go","Sham":1,"Color":"yellow","trial_type":"pit-trial","trial_index":89,"time_elapsed":544948,"internal_node_id":"0.0-78.0","task_version":"test-retest"},{"Rune":"rune_02_haglaz","Hex":"#3366ff99","Correct":32,"Choice":32,"RT":489,"Accuracy":1,"Outcome":"+10","Keys":[1989],"TotalKeys":1,"Block":1,"Trial":70,"Robot":1,"Valence":"Win","Action":"Go","Sham":0,"Color":"blue","trial_type":"pit-trial","trial_index":90,"time_elapsed":547939,"internal_node_id":"0.0-79.0","task_version":"test-retest"},{"Rune":"rune_02_raido","Hex":"#3366ff99","Correct":-1,"Choice":-1,"RT":-1,"Accuracy":1,"Outcome":"+10","Keys":[],"TotalKeys":0,"Block":1,"Trial":71,"Robot":2,"Valence":"Win","Action":"No-Go","Sham":0,"Color":"blue","trial_type":"pit-trial","trial_index":91,"time_elapsed":551942,"internal_node_id":"0.0-80.0","task_version":"test-retest"},{"Rune":"rune_02_os","Hex":"#ffcc3399","Correct":-1,"Choice":-1,"RT":-1,"Accuracy":1,"Outcome":"-10","Keys":[],"TotalKeys":0,"Block":1,"Trial":72,"Robot":4,"Valence":"Lose","Action":"No-Go","Sham":1,"Color":"yellow","trial_type":"pit-trial","trial_index":92,"time_elapsed":555944,"internal_node_id":"0.0-81.0","task_version":"test-retest"},{"Rune":"rune_02_os","Hex":"#ffcc3399","Correct":-1,"Choice":-1,"RT":-1,"Accuracy":1,"Outcome":"-1","Keys":[],"TotalKeys":0,"Block":1,"Trial":73,"Robot":4,"Valence":"Lose","Action":"No-Go","Sham":0,"Color":"yellow","trial_type":"pit-trial","trial_index":93,"time_elapsed":559946,"internal_node_id":"0.0-82.0","task_version":"test-retest"},{"Rune":"rune_02_haglaz","Hex":"#3366ff99","Correct":32,"Choice":32,"RT":588,"Accuracy":1,"Outcome":"+10","Keys":[2088],"TotalKeys":1,"Block":1,"Trial":74,"Robot":1,"Valence":"Win","Action":"Go","Sham":0,"Color":"blue","trial_type":"pit-trial","trial_index":94,"time_elapsed":563037,"internal_node_id":"0.0-83.0","task_version":"test-retest"},{"Rune":"rune_02_cen","Hex":"#ffcc3399","Correct":32,"Choice":32,"RT":754,"Accuracy":1,"Outcome":"-1","Keys":[2255],"TotalKeys":1,"Block":1,"Trial":75,"Robot":3,"Valence":"Lose","Action":"Go","Sham":0,"Color":"yellow","trial_type":"pit-trial","trial_index":95,"time_elapsed":566294,"internal_node_id":"0.0-84.0","task_version":"test-retest"},{"Rune":"rune_02_raido","Hex":"#3366ff99","Correct":-1,"Choice":-1,"RT":-1,"Accuracy":1,"Outcome":"+10","Keys":[],"TotalKeys":0,"Block":1,"Trial":76,"Robot":2,"Valence":"Win","Action":"No-Go","Sham":0,"Color":"blue","trial_type":"pit-trial","trial_index":96,"time_elapsed":570296,"internal_node_id":"0.0-85.0","task_version":"test-retest"},{"Rune":"rune_02_os","Hex":"#ffcc3399","Correct":-1,"Choice":32,"RT":758,"Accuracy":0,"Outcome":"-10","Keys":[2258],"TotalKeys":1,"Block":1,"Trial":77,"Robot":4,"Valence":"Lose","Action":"No-Go","Sham":0,"Color":"yellow","trial_type":"pit-trial","trial_index":97,"time_elapsed":573556,"internal_node_id":"0.0-86.0","task_version":"test-retest"},{"Rune":"rune_02_cen","Hex":"#ffcc3399","Correct":32,"Choice":32,"RT":921,"Accuracy":1,"Outcome":"-1","Keys":[2421],"TotalKeys":1,"Block":1,"Trial":78,"Robot":3,"Valence":"Lose","Action":"Go","Sham":0,"Color":"yellow","trial_type":"pit-trial","trial_index":98,"time_elapsed":576980,"internal_node_id":"0.0-87.0","task_version":"test-retest"},{"Rune":"rune_02_raido","Hex":"#3366ff99","Correct":-1,"Choice":-1,"RT":-1,"Accuracy":1,"Outcome":"+1","Keys":[],"TotalKeys":0,"Block":1,"Trial":79,"Robot":2,"Valence":"Win","Action":"No-Go","Sham":1,"Color":"blue","trial_type":"pit-trial","trial_index":99,"time_elapsed":580985,"internal_node_id":"0.0-88.0","task_version":"test-retest"},{"Rune":"rune_02_haglaz","Hex":"#3366ff99","Correct":32,"Choice":32,"RT":381,"Accuracy":1,"Outcome":"+10","Keys":[1883],"TotalKeys":1,"Block":1,"Trial":80,"Robot":1,"Valence":"Win","Action":"Go","Sham":0,"Color":"blue","trial_type":"pit-trial","trial_index":100,"time_elapsed":583868,"internal_node_id":"0.0-89.0","task_version":"test-retest"},{"Rune":"rune_02_raido","Hex":"#3366ff99","Correct":-1,"Choice":-1,"RT":-1,"Accuracy":1,"Outcome":"+10","Keys":[],"TotalKeys":0,"Block":1,"Trial":81,"Robot":2,"Valence":"Win","Action":"No-Go","Sham":0,"Color":"blue","trial_type":"pit-trial","trial_index":101,"time_elapsed":587870,"internal_node_id":"0.0-90.0","task_version":"test-retest"},{"Rune":"rune_02_cen","Hex":"#ffcc3399","Correct":32,"Choice":32,"RT":702,"Accuracy":1,"Outcome":"-1","Keys":[2203],"TotalKeys":1,"Block":1,"Trial":82,"Robot":3,"Valence":"Lose","Action":"Go","Sham":0,"Color":"yellow","trial_type":"pit-trial","trial_index":102,"time_elapsed":591076,"internal_node_id":"0.0-91.0","task_version":"test-retest"},{"Rune":"rune_02_haglaz","Hex":"#3366ff99","Correct":32,"Choice":32,"RT":711,"Accuracy":1,"Outcome":"+10","Keys":[2212],"TotalKeys":1,"Block":1,"Trial":83,"Robot":1,"Valence":"Win","Action":"Go","Sham":0,"Color":"blue","trial_type":"pit-trial","trial_index":103,"time_elapsed":594293,"internal_node_id":"0.0-92.0","task_version":"test-retest"},{"Rune":"rune_02_os","Hex":"#ffcc3399","Correct":-1,"Choice":32,"RT":582,"Accuracy":0,"Outcome":"-1","Keys":[2084],"TotalKeys":1,"Block":1,"Trial":84,"Robot":4,"Valence":"Lose","Action":"No-Go","Sham":1,"Color":"yellow","trial_type":"pit-trial","trial_index":104,"time_elapsed":597380,"internal_node_id":"0.0-93.0","task_version":"test-retest"},{"Rune":"rune_02_raido","Hex":"#3366ff99","Correct":-1,"Choice":-1,"RT":-1,"Accuracy":1,"Outcome":"+10","Keys":[],"TotalKeys":0,"Block":1,"Trial":85,"Robot":2,"Valence":"Win","Action":"No-Go","Sham":0,"Color":"blue","trial_type":"pit-trial","trial_index":105,"time_elapsed":601382,"internal_node_id":"0.0-94.0","task_version":"test-retest"},{"Rune":"rune_02_haglaz","Hex":"#3366ff99","Correct":32,"Choice":32,"RT":510,"Accuracy":1,"Outcome":"+10","Keys":[2011],"TotalKeys":1,"Block":1,"Trial":86,"Robot":1,"Valence":"Win","Action":"Go","Sham":0,"Color":"blue","trial_type":"pit-trial","trial_index":106,"time_elapsed":604396,"internal_node_id":"0.0-95.0","task_version":"test-retest"},{"Rune":"rune_02_os","Hex":"#ffcc3399","Correct":-1,"Choice":32,"RT":584,"Accuracy":0,"Outcome":"-10","Keys":[2086],"TotalKeys":1,"Block":1,"Trial":87,"Robot":4,"Valence":"Lose","Action":"No-Go","Sham":0,"Color":"yellow","trial_type":"pit-trial","trial_index":107,"time_elapsed":607485,"internal_node_id":"0.0-96.0","task_version":"test-retest"},{"Rune":"rune_02_cen","Hex":"#ffcc3399","Correct":32,"Choice":32,"RT":536,"Accuracy":1,"Outcome":"-1","Keys":[2037],"TotalKeys":1,"Block":1,"Trial":88,"Robot":3,"Valence":"Lose","Action":"Go","Sham":0,"Color":"yellow","trial_type":"pit-trial","trial_index":108,"time_elapsed":610523,"internal_node_id":"0.0-97.0","task_version":"test-retest"},{"Rune":"rune_02_os","Hex":"#ffcc3399","Correct":-1,"Choice":-1,"RT":-1,"Accuracy":1,"Outcome":"-1","Keys":[],"TotalKeys":0,"Block":1,"Trial":89,"Robot":4,"Valence":"Lose","Action":"No-Go","Sham":0,"Color":"yellow","trial_type":"pit-trial","trial_index":109,"time_elapsed":614526,"internal_node_id":"0.0-98.0","task_version":"test-retest"},{"Rune":"rune_02_cen","Hex":"#ffcc3399","Correct":32,"Choice":32,"RT":632,"Accuracy":1,"Outcome":"-1","Keys":[2133],"TotalKeys":1,"Block":1,"Trial":90,"Robot":3,"Valence":"Lose","Action":"Go","Sham":0,"Color":"yellow","trial_type":"pit-trial","trial_index":110,"time_elapsed":617660,"internal_node_id":"0.0-99.0","task_version":"test-retest"},{"Rune":"rune_02_raido","Hex":"#3366ff99","Correct":-1,"Choice":-1,"RT":-1,"Accuracy":1,"Outcome":"+10","Keys":[],"TotalKeys":0,"Block":1,"Trial":91,"Robot":2,"Valence":"Win","Action":"No-Go","Sham":0,"Color":"blue","trial_type":"pit-trial","trial_index":111,"time_elapsed":621661,"internal_node_id":"0.0-100.0","task_version":"test-retest"},{"Rune":"rune_02_haglaz","Hex":"#3366ff99","Correct":32,"Choice":32,"RT":479,"Accuracy":1,"Outcome":"+10","Keys":[1980],"TotalKeys":1,"Block":1,"Trial":92,"Robot":1,"Valence":"Win","Action":"Go","Sham":0,"Color":"blue","trial_type":"pit-trial","trial_index":112,"time_elapsed":624644,"internal_node_id":"0.0-101.0","task_version":"test-retest"},{"Rune":"rune_02_cen","Hex":"#ffcc3399","Correct":32,"Choice":32,"RT":777,"Accuracy":1,"Outcome":"-10","Keys":[2277],"TotalKeys":1,"Block":1,"Trial":93,"Robot":3,"Valence":"Lose","Action":"Go","Sham":1,"Color":"yellow","trial_type":"pit-trial","trial_index":113,"time_elapsed":627924,"internal_node_id":"0.0-102.0","task_version":"test-retest"},{"Rune":"rune_02_os","Hex":"#ffcc3399","Correct":-1,"Choice":-1,"RT":-1,"Accuracy":1,"Outcome":"-1","Keys":[],"TotalKeys":0,"Block":1,"Trial":94,"Robot":4,"Valence":"Lose","Action":"No-Go","Sham":0,"Color":"yellow","trial_type":"pit-trial","trial_index":114,"time_elapsed":631926,"internal_node_id":"0.0-103.0","task_version":"test-retest"},{"Rune":"rune_02_haglaz","Hex":"#3366ff99","Correct":32,"Choice":32,"RT":518,"Accuracy":1,"Outcome":"+1","Keys":[2019],"TotalKeys":1,"Block":1,"Trial":95,"Robot":1,"Valence":"Win","Action":"Go","Sham":1,"Color":"blue","trial_type":"pit-trial","trial_index":115,"time_elapsed":634949,"internal_node_id":"0.0-104.0","task_version":"test-retest"},{"Rune":"rune_02_raido","Hex":"#3366ff99","Correct":-1,"Choice":-1,"RT":-1,"Accuracy":1,"Outcome":"+10","Keys":[],"TotalKeys":0,"Block":1,"Trial":96,"Robot":2,"Valence":"Win","Action":"No-Go","Sham":0,"Color":"blue","trial_type":"pit-trial","trial_index":116,"time_elapsed":638953,"internal_node_id":"0.0-105.0","task_version":"test-retest"},{"Rune":"rune_02_cen","Hex":"#ffcc3399","Correct":32,"Choice":32,"RT":844,"Accuracy":1,"Outcome":"-1","Keys":[2345],"TotalKeys":1,"Block":1,"Trial":97,"Robot":3,"Valence":"Lose","Action":"Go","Sham":0,"Color":"yellow","trial_type":"pit-trial","trial_index":117,"time_elapsed":642300,"internal_node_id":"0.0-106.0","task_version":"test-retest"},{"Rune":"rune_02_os","Hex":"#ffcc3399","Correct":-1,"Choice":-1,"RT":-1,"Accuracy":1,"Outcome":"-1","Keys":[],"TotalKeys":0,"Block":1,"Trial":98,"Robot":4,"Valence":"Lose","Action":"No-Go","Sham":0,"Color":"yellow","trial_type":"pit-trial","trial_index":118,"time_elapsed":646303,"internal_node_id":"0.0-107.0","task_version":"test-retest"},{"Rune":"rune_02_haglaz","Hex":"#3366ff99","Correct":32,"Choice":32,"RT":446,"Accuracy":1,"Outcome":"+10","Keys":[1948],"TotalKeys":1,"Block":1,"Trial":99,"Robot":1,"Valence":"Win","Action":"Go","Sham":0,"Color":"blue","trial_type":"pit-trial","trial_index":119,"time_elapsed":649253,"internal_node_id":"0.0-108.0","task_version":"test-retest"},{"Rune":"rune_02_raido","Hex":"#3366ff99","Correct":-1,"Choice":-1,"RT":-1,"Accuracy":1,"Outcome":"+1","Keys":[],"TotalKeys":0,"Block":1,"Trial":100,"Robot":2,"Valence":"Win","Action":"No-Go","Sham":1,"Color":"blue","trial_type":"pit-trial","trial_index":120,"time_elapsed":653255,"internal_node_id":"0.0-109.0","task_version":"test-retest"},{"Rune":"rune_02_raido","Hex":"#3366ff99","Correct":-1,"Choice":-1,"RT":-1,"Accuracy":1,"Outcome":"+10","Keys":[],"TotalKeys":0,"Block":1,"Trial":101,"Robot":2,"Valence":"Win","Action":"No-Go","Sham":0,"Color":"blue","trial_type":"pit-trial","trial_index":121,"time_elapsed":657258,"internal_node_id":"0.0-110.0","task_version":"test-retest"},{"Rune":"rune_02_os","Hex":"#ffcc3399","Correct":-1,"Choice":-1,"RT":-1,"Accuracy":1,"Outcome":"-1","Keys":[],"TotalKeys":0,"Block":1,"Trial":102,"Robot":4,"Valence":"Lose","Action":"No-Go","Sham":0,"Color":"yellow","trial_type":"pit-trial","trial_index":122,"time_elapsed":661260,"internal_node_id":"0.0-111.0","task_version":"test-retest"},{"Rune":"rune_02_cen","Hex":"#ffcc3399","Correct":32,"Choice":-1,"RT":-1,"Accuracy":0,"Outcome":"-10","Keys":[],"TotalKeys":0,"Block":1,"Trial":103,"Robot":3,"Valence":"Lose","Action":"Go","Sham":0,"Color":"yellow","trial_type":"pit-trial","trial_index":123,"time_elapsed":665261,"internal_node_id":"0.0-112.0","task_version":"test-retest"},{"Rune":"rune_02_haglaz","Hex":"#3366ff99","Correct":32,"Choice":32,"RT":472,"Accuracy":1,"Outcome":"+10","Keys":[1972],"TotalKeys":1,"Block":1,"Trial":104,"Robot":1,"Valence":"Win","Action":"Go","Sham":0,"Color":"blue","trial_type":"pit-trial","trial_index":124,"time_elapsed":668237,"internal_node_id":"0.0-113.0","task_version":"test-retest"},{"Rune":"rune_02_os","Hex":"#ffcc3399","Correct":-1,"Choice":-1,"RT":-1,"Accuracy":1,"Outcome":"-1","Keys":[],"TotalKeys":0,"Block":1,"Trial":105,"Robot":4,"Valence":"Lose","Action":"No-Go","Sham":0,"Color":"yellow","trial_type":"pit-trial","trial_index":125,"time_elapsed":672240,"internal_node_id":"0.0-114.0","task_version":"test-retest"},{"Rune":"rune_02_haglaz","Hex":"#3366ff99","Correct":32,"Choice":32,"RT":525,"Accuracy":1,"Outcome":"+10","Keys":[2026],"TotalKeys":1,"Block":1,"Trial":106,"Robot":1,"Valence":"Win","Action":"Go","Sham":0,"Color":"blue","trial_type":"pit-trial","trial_index":126,"time_elapsed":675269,"internal_node_id":"0.0-115.0","task_version":"test-retest"},{"Rune":"rune_02_raido","Hex":"#3366ff99","Correct":-1,"Choice":-1,"RT":-1,"Accuracy":1,"Outcome":"+10","Keys":[],"TotalKeys":0,"Block":1,"Trial":107,"Robot":2,"Valence":"Win","Action":"No-Go","Sham":0,"Color":"blue","trial_type":"pit-trial","trial_index":127,"time_elapsed":679273,"internal_node_id":"0.0-116.0","task_version":"test-retest"},{"Rune":"rune_02_cen","Hex":"#ffcc3399","Correct":32,"Choice":32,"RT":500,"Accuracy":1,"Outcome":"-1","Keys":[2001],"TotalKeys":1,"Block":1,"Trial":108,"Robot":3,"Valence":"Lose","Action":"Go","Sham":0,"Color":"yellow","trial_type":"pit-trial","trial_index":128,"time_elapsed":682276,"internal_node_id":"0.0-117.0","task_version":"test-retest"},{"Rune":"rune_02_raido","Hex":"#3366ff99","Correct":-1,"Choice":-1,"RT":-1,"Accuracy":1,"Outcome":"+10","Keys":[],"TotalKeys":0,"Block":1,"Trial":109,"Robot":2,"Valence":"Win","Action":"No-Go","Sham":0,"Color":"blue","trial_type":"pit-trial","trial_index":129,"time_elapsed":686278,"internal_node_id":"0.0-118.0","task_version":"test-retest"},{"Rune":"rune_02_os","Hex":"#ffcc3399","Correct":-1,"Choice":-1,"RT":-1,"Accuracy":1,"Outcome":"-10","Keys":[],"TotalKeys":0,"Block":1,"Trial":110,"Robot":4,"Valence":"Lose","Action":"No-Go","Sham":1,"Color":"yellow","trial_type":"pit-trial","trial_index":130,"time_elapsed":690279,"internal_node_id":"0.0-119.0","task_version":"test-retest"},{"Rune":"rune_02_cen","Hex":"#ffcc3399","Correct":32,"Choice":32,"RT":644,"Accuracy":1,"Outcome":"-1","Keys":[2147],"TotalKeys":1,"Block":1,"Trial":111,"Robot":3,"Valence":"Lose","Action":"Go","Sham":0,"Color":"yellow","trial_type":"pit-trial","trial_index":131,"time_elapsed":693427,"internal_node_id":"0.0-120.0","task_version":"test-retest"},{"Rune":"rune_02_haglaz","Hex":"#3366ff99","Correct":32,"Choice":32,"RT":682,"Accuracy":1,"Outcome":"+1","Keys":[2182],"TotalKeys":1,"Block":1,"Trial":112,"Robot":1,"Valence":"Win","Action":"Go","Sham":1,"Color":"blue","trial_type":"pit-trial","trial_index":132,"time_elapsed":696610,"internal_node_id":"0.0-121.0","task_version":"test-retest"},{"Rune":"rune_02_raido","Hex":"#3366ff99","Correct":-1,"Choice":-1,"RT":-1,"Accuracy":1,"Outcome":"+1","Keys":[],"TotalKeys":0,"Block":1,"Trial":113,"Robot":2,"Valence":"Win","Action":"No-Go","Sham":1,"Color":"blue","trial_type":"pit-trial","trial_index":133,"time_elapsed":700614,"internal_node_id":"0.0-122.0","task_version":"test-retest"},{"Rune":"rune_02_cen","Hex":"#ffcc3399","Correct":32,"Choice":32,"RT":673,"Accuracy":1,"Outcome":"-1","Keys":[2173],"TotalKeys":1,"Block":1,"Trial":114,"Robot":3,"Valence":"Lose","Action":"Go","Sham":0,"Color":"yellow","trial_type":"pit-trial","trial_index":134,"time_elapsed":703788,"internal_node_id":"0.0-123.0","task_version":"test-retest"},{"Rune":"rune_02_haglaz","Hex":"#3366ff99","Correct":32,"Choice":32,"RT":545,"Accuracy":1,"Outcome":"+10","Keys":[2045],"TotalKeys":1,"Block":1,"Trial":115,"Robot":1,"Valence":"Win","Action":"Go","Sham":0,"Color":"blue","trial_type":"pit-trial","trial_index":135,"time_elapsed":706837,"internal_node_id":"0.0-124.0","task_version":"test-retest"},{"Rune":"rune_02_os","Hex":"#ffcc3399","Correct":-1,"Choice":-1,"RT":-1,"Accuracy":1,"Outcome":"-1","Keys":[],"TotalKeys":0,"Block":1,"Trial":116,"Robot":4,"Valence":"Lose","Action":"No-Go","Sham":0,"Color":"yellow","trial_type":"pit-trial","trial_index":136,"time_elapsed":710838,"internal_node_id":"0.0-125.0","task_version":"test-retest"},{"Rune":"rune_02_cen","Hex":"#ffcc3399","Correct":32,"Choice":32,"RT":600,"Accuracy":1,"Outcome":"-10","Keys":[2101],"TotalKeys":1,"Block":1,"Trial":117,"Robot":3,"Valence":"Lose","Action":"Go","Sham":1,"Color":"yellow","trial_type":"pit-trial","trial_index":137,"time_elapsed":713940,"internal_node_id":"0.0-126.0","task_version":"test-retest"},{"Rune":"rune_02_haglaz","Hex":"#3366ff99","Correct":32,"Choice":32,"RT":512,"Accuracy":1,"Outcome":"+10","Keys":[2014],"TotalKeys":1,"Block":1,"Trial":118,"Robot":1,"Valence":"Win","Action":"Go","Sham":0,"Color":"blue","trial_type":"pit-trial","trial_index":138,"time_elapsed":716957,"internal_node_id":"0.0-127.0","task_version":"test-retest"},{"Rune":"rune_02_os","Hex":"#ffcc3399","Correct":-1,"Choice":-1,"RT":-1,"Accuracy":1,"Outcome":"-1","Keys":[],"TotalKeys":0,"Block":1,"Trial":119,"Robot":4,"Valence":"Lose","Action":"No-Go","Sham":0,"Color":"yellow","trial_type":"pit-trial","trial_index":139,"time_elapsed":720960,"internal_node_id":"0.0-128.0","task_version":"test-retest"},{"Rune":"rune_02_raido","Hex":"#3366ff99","Correct":-1,"Choice":-1,"RT":-1,"Accuracy":1,"Outcome":"+10","Keys":[],"TotalKeys":0,"Block":1,"Trial":120,"Robot":2,"Valence":"Win","Action":"No-Go","Sham":0,"Color":"blue","trial_type":"pit-trial","trial_index":140,"time_elapsed":724963,"internal_node_id":"0.0-129.0","task_version":"test-retest"},{"view_history":"[{\"page_index\":0,\"viewing_time\":8948},{\"page_index\":1,\"viewing_time\":3107},{\"page_index\":2,\"viewing_time\":1756}]","rt":13812,"trial_type":"pit-instructions","trial_index":141,"time_elapsed":738776,"internal_node_id":"0.0-130.0","task_version":"test-retest"},{"Rune":"rune_01_yr","Hex":"#3366ff99","Correct":-1,"Choice":32,"RT":501,"Accuracy":0,"Outcome":"+1","Keys":[2001],"TotalKeys":1,"Block":2,"Trial":121,"Robot":2,"Valence":"Win","Action":"No-Go","Sham":0,"Color":"blue","trial_type":"pit-trial","trial_index":142,"time_elapsed":741780,"internal_node_id":"0.0-131.0","task_version":"test-retest"},{"Rune":"rune_01_ingwaz","Hex":"#ffcc3399","Correct":32,"Choice":32,"RT":739,"Accuracy":1,"Outcome":"-1","Keys":[2239],"TotalKeys":1,"Block":2,"Trial":122,"Robot":3,"Valence":"Lose","Action":"Go","Sham":0,"Color":"yellow","trial_type":"pit-trial","trial_index":143,"time_elapsed":745020,"internal_node_id":"0.0-132.0","task_version":"test-retest"},{"Rune":"rune_01_ger","Hex":"#3366ff99","Correct":32,"Choice":32,"RT":546,"Accuracy":1,"Outcome":"+1","Keys":[2046],"TotalKeys":1,"Block":2,"Trial":123,"Robot":1,"Valence":"Win","Action":"Go","Sham":1,"Color":"blue","trial_type":"pit-trial","trial_index":144,"time_elapsed":748067,"internal_node_id":"0.0-133.0","task_version":"test-retest"},{"Rune":"rune_01_ear","Hex":"#ffcc3399","Correct":-1,"Choice":-1,"RT":-1,"Accuracy":1,"Outcome":"-1","Keys":[],"TotalKeys":0,"Block":2,"Trial":124,"Robot":4,"Valence":"Lose","Action":"No-Go","Sham":0,"Color":"yellow","trial_type":"pit-trial","trial_index":145,"time_elapsed":752070,"internal_node_id":"0.0-134.0","task_version":"test-retest"},{"Rune":"rune_01_ear","Hex":"#ffcc3399","Correct":-1,"Choice":-1,"RT":-1,"Accuracy":1,"Outcome":"-1","Keys":[],"TotalKeys":0,"Block":2,"Trial":125,"Robot":4,"Valence":"Lose","Action":"No-Go","Sham":0,"Color":"yellow","trial_type":"pit-trial","trial_index":146,"time_elapsed":756073,"internal_node_id":"0.0-135.0","task_version":"test-retest"},{"Rune":"rune_01_ingwaz","Hex":"#ffcc3399","Correct":32,"Choice":32,"RT":628,"Accuracy":1,"Outcome":"-1","Keys":[2129],"TotalKeys":1,"Block":2,"Trial":126,"Robot":3,"Valence":"Lose","Action":"Go","Sham":0,"Color":"yellow","trial_type":"pit-trial","trial_index":147,"time_elapsed":759203,"internal_node_id":"0.0-136.0","task_version":"test-retest"},{"Rune":"rune_01_yr","Hex":"#3366ff99","Correct":-1,"Choice":32,"RT":842,"Accuracy":0,"Outcome":"+1","Keys":[2343],"TotalKeys":1,"Block":2,"Trial":127,"Robot":2,"Valence":"Win","Action":"No-Go","Sham":0,"Color":"blue","trial_type":"pit-trial","trial_index":148,"time_elapsed":762549,"internal_node_id":"0.0-137.0","task_version":"test-retest"},{"Rune":"rune_01_ger","Hex":"#3366ff99","Correct":32,"Choice":32,"RT":688,"Accuracy":1,"Outcome":"+10","Keys":[2189],"TotalKeys":1,"Block":2,"Trial":128,"Robot":1,"Valence":"Win","Action":"Go","Sham":0,"Color":"blue","trial_type":"pit-trial","trial_index":149,"time_elapsed":765739,"internal_node_id":"0.0-138.0","task_version":"test-retest"},{"Rune":"rune_01_yr","Hex":"#3366ff99","Correct":-1,"Choice":-1,"RT":-1,"Accuracy":1,"Outcome":"+1","Keys":[],"TotalKeys":0,"Block":2,"Trial":129,"Robot":2,"Valence":"Win","Action":"No-Go","Sham":1,"Color":"blue","trial_type":"pit-trial","trial_index":150,"time_elapsed":769742,"internal_node_id":"0.0-139.0","task_version":"test-retest"},{"Rune":"rune_01_ger","Hex":"#3366ff99","Correct":32,"Choice":32,"RT":687,"Accuracy":1,"Outcome":"+10","Keys":[2188],"TotalKeys":1,"Block":2,"Trial":130,"Robot":1,"Valence":"Win","Action":"Go","Sham":0,"Color":"blue","trial_type":"pit-trial","trial_index":151,"time_elapsed":772931,"internal_node_id":"0.0-140.0","task_version":"test-retest"},{"Rune":"rune_01_ingwaz","Hex":"#ffcc3399","Correct":32,"Choice":-1,"RT":-1,"Accuracy":0,"Outcome":"-10","Keys":[],"TotalKeys":0,"Block":2,"Trial":131,"Robot":3,"Valence":"Lose","Action":"Go","Sham":0,"Color":"yellow","trial_type":"pit-trial","trial_index":152,"time_elapsed":776934,"internal_node_id":"0.0-141.0","task_version":"test-retest"},{"Rune":"rune_01_ear","Hex":"#ffcc3399","Correct":-1,"Choice":-1,"RT":-1,"Accuracy":1,"Outcome":"-10","Keys":[],"TotalKeys":0,"Block":2,"Trial":132,"Robot":4,"Valence":"Lose","Action":"No-Go","Sham":1,"Color":"yellow","trial_type":"pit-trial","trial_index":153,"time_elapsed":780938,"internal_node_id":"0.0-142.0","task_version":"test-retest"},{"Rune":"rune_01_ingwaz","Hex":"#ffcc3399","Correct":32,"Choice":-1,"RT":-1,"Accuracy":0,"Outcome":"-1","Keys":[],"TotalKeys":0,"Block":2,"Trial":133,"Robot":3,"Valence":"Lose","Action":"Go","Sham":1,"Color":"yellow","trial_type":"pit-trial","trial_index":154,"time_elapsed":784939,"internal_node_id":"0.0-143.0","task_version":"test-retest"},{"Rune":"rune_01_yr","Hex":"#3366ff99","Correct":-1,"Choice":32,"RT":1050,"Accuracy":0,"Outcome":"+1","Keys":[2551],"TotalKeys":1,"Block":2,"Trial":134,"Robot":2,"Valence":"Win","Action":"No-Go","Sham":0,"Color":"blue","trial_type":"pit-trial","trial_index":155,"time_elapsed":788492,"internal_node_id":"0.0-144.0","task_version":"test-retest"},{"Rune":"rune_01_ear","Hex":"#ffcc3399","Correct":-1,"Choice":-1,"RT":-1,"Accuracy":1,"Outcome":"-1","Keys":[],"TotalKeys":0,"Block":2,"Trial":135,"Robot":4,"Valence":"Lose","Action":"No-Go","Sham":0,"Color":"yellow","trial_type":"pit-trial","trial_index":156,"time_elapsed":792495,"internal_node_id":"0.0-145.0","task_version":"test-retest"},{"Rune":"rune_01_ger","Hex":"#3366ff99","Correct":32,"Choice":32,"RT":574,"Accuracy":1,"Outcome":"+10","Keys":[2074],"TotalKeys":1,"Block":2,"Trial":136,"Robot":1,"Valence":"Win","Action":"Go","Sham":0,"Color":"blue","trial_type":"pit-trial","trial_index":157,"time_elapsed":795572,"internal_node_id":"0.0-146.0","task_version":"test-retest"},{"Rune":"rune_01_ger","Hex":"#3366ff99","Correct":32,"Choice":32,"RT":697,"Accuracy":1,"Outcome":"+10","Keys":[2198],"TotalKeys":1,"Block":2,"Trial":137,"Robot":1,"Valence":"Win","Action":"Go","Sham":0,"Color":"blue","trial_type":"pit-trial","trial_index":158,"time_elapsed":798772,"internal_node_id":"0.0-147.0","task_version":"test-retest"},{"Rune":"rune_01_yr","Hex":"#3366ff99","Correct":-1,"Choice":-1,"RT":-1,"Accuracy":1,"Outcome":"+10","Keys":[],"TotalKeys":0,"Block":2,"Trial":138,"Robot":2,"Valence":"Win","Action":"No-Go","Sham":0,"Color":"blue","trial_type":"pit-trial","trial_index":159,"time_elapsed":802774,"internal_node_id":"0.0-148.0","task_version":"test-retest"},{"Rune":"rune_01_ear","Hex":"#ffcc3399","Correct":-1,"Choice":-1,"RT":-1,"Accuracy":1,"Outcome":"-1","Keys":[],"TotalKeys":0,"Block":2,"Trial":139,"Robot":4,"Valence":"Lose","Action":"No-Go","Sham":0,"Color":"yellow","trial_type":"pit-trial","trial_index":160,"time_elapsed":806776,"internal_node_id":"0.0-149.0","task_version":"test-retest"},{"Rune":"rune_01_ingwaz","Hex":"#ffcc3399","Correct":32,"Choice":32,"RT":468,"Accuracy":1,"Outcome":"-1","Keys":[1969],"TotalKeys":1,"Block":2,"Trial":140,"Robot":3,"Valence":"Lose","Action":"Go","Sham":0,"Color":"yellow","trial_type":"pit-trial","trial_index":161,"time_elapsed":809747,"internal_node_id":"0.0-150.0","task_version":"test-retest"},{"Rune":"rune_01_ger","Hex":"#3366ff99","Correct":32,"Choice":32,"RT":547,"Accuracy":1,"Outcome":"+10","Keys":[2046],"TotalKeys":1,"Block":2,"Trial":141,"Robot":1,"Valence":"Win","Action":"Go","Sham":0,"Color":"blue","trial_type":"pit-trial","trial_index":162,"time_elapsed":812795,"internal_node_id":"0.0-151.0","task_version":"test-retest"},{"Rune":"rune_01_ear","Hex":"#ffcc3399","Correct":-1,"Choice":-1,"RT":-1,"Accuracy":1,"Outcome":"-1","Keys":[],"TotalKeys":0,"Block":2,"Trial":142,"Robot":4,"Valence":"Lose","Action":"No-Go","Sham":0,"Color":"yellow","trial_type":"pit-trial","trial_index":163,"time_elapsed":816799,"internal_node_id":"0.0-152.0","task_version":"test-retest"},{"Rune":"rune_01_yr","Hex":"#3366ff99","Correct":-1,"Choice":-1,"RT":-1,"Accuracy":1,"Outcome":"+1","Keys":[],"TotalKeys":0,"Block":2,"Trial":143,"Robot":2,"Valence":"Win","Action":"No-Go","Sham":1,"Color":"blue","trial_type":"pit-trial","trial_index":164,"time_elapsed":820802,"internal_node_id":"0.0-153.0","task_version":"test-retest"},{"Rune":"rune_01_ingwaz","Hex":"#ffcc3399","Correct":32,"Choice":32,"RT":652,"Accuracy":1,"Outcome":"-10","Keys":[2152],"TotalKeys":1,"Block":2,"Trial":144,"Robot":3,"Valence":"Lose","Action":"Go","Sham":1,"Color":"yellow","trial_type":"pit-trial","trial_index":165,"time_elapsed":823955,"internal_node_id":"0.0-154.0","task_version":"test-retest"},{"Rune":"rune_01_ingwaz","Hex":"#ffcc3399","Correct":32,"Choice":32,"RT":713,"Accuracy":1,"Outcome":"-1","Keys":[2214],"TotalKeys":1,"Block":2,"Trial":145,"Robot":3,"Valence":"Lose","Action":"Go","Sham":0,"Color":"yellow","trial_type":"pit-trial","trial_index":166,"time_elapsed":827172,"internal_node_id":"0.0-155.0","task_version":"test-retest"},{"Rune":"rune_01_ear","Hex":"#ffcc3399","Correct":-1,"Choice":-1,"RT":-1,"Accuracy":1,"Outcome":"-1","Keys":[],"TotalKeys":0,"Block":2,"Trial":146,"Robot":4,"Valence":"Lose","Action":"No-Go","Sham":0,"Color":"yellow","trial_type":"pit-trial","trial_index":167,"time_elapsed":831173,"internal_node_id":"0.0-156.0","task_version":"test-retest"},{"Rune":"rune_01_ger","Hex":"#3366ff99","Correct":32,"Choice":32,"RT":448,"Accuracy":1,"Outcome":"+10","Keys":[1948],"TotalKeys":1,"Block":2,"Trial":147,"Robot":1,"Valence":"Win","Action":"Go","Sham":0,"Color":"blue","trial_type":"pit-trial","trial_index":168,"time_elapsed":834123,"internal_node_id":"0.0-157.0","task_version":"test-retest"},{"Rune":"rune_01_yr","Hex":"#3366ff99","Correct":-1,"Choice":-1,"RT":-1,"Accuracy":1,"Outcome":"+10","Keys":[],"TotalKeys":0,"Block":2,"Trial":148,"Robot":2,"Valence":"Win","Action":"No-Go","Sham":0,"Color":"blue","trial_type":"pit-trial","trial_index":169,"time_elapsed":838126,"internal_node_id":"0.0-158.0","task_version":"test-retest"},{"Rune":"rune_01_ger","Hex":"#3366ff99","Correct":32,"Choice":32,"RT":583,"Accuracy":1,"Outcome":"+10","Keys":[2084],"TotalKeys":1,"Block":2,"Trial":149,"Robot":1,"Valence":"Win","Action":"Go","Sham":0,"Color":"blue","trial_type":"pit-trial","trial_index":170,"time_elapsed":841213,"internal_node_id":"0.0-159.0","task_version":"test-retest"},{"Rune":"rune_01_ear","Hex":"#ffcc3399","Correct":-1,"Choice":-1,"RT":-1,"Accuracy":1,"Outcome":"-1","Keys":[],"TotalKeys":0,"Block":2,"Trial":150,"Robot":4,"Valence":"Lose","Action":"No-Go","Sham":0,"Color":"yellow","trial_type":"pit-trial","trial_index":171,"time_elapsed":845215,"internal_node_id":"0.0-160.0","task_version":"test-retest"},{"Rune":"rune_01_ingwaz","Hex":"#ffcc3399","Correct":32,"Choice":32,"RT":534,"Accuracy":1,"Outcome":"-1","Keys":[2034],"TotalKeys":1,"Block":2,"Trial":151,"Robot":3,"Valence":"Lose","Action":"Go","Sham":0,"Color":"yellow","trial_type":"pit-trial","trial_index":172,"time_elapsed":848252,"internal_node_id":"0.0-161.0","task_version":"test-retest"},{"Rune":"rune_01_yr","Hex":"#3366ff99","Correct":-1,"Choice":-1,"RT":-1,"Accuracy":1,"Outcome":"+10","Keys":[],"TotalKeys":0,"Block":2,"Trial":152,"Robot":2,"Valence":"Win","Action":"No-Go","Sham":0,"Color":"blue","trial_type":"pit-trial","trial_index":173,"time_elapsed":852256,"internal_node_id":"0.0-162.0","task_version":"test-retest"},{"Rune":"rune_01_ingwaz","Hex":"#ffcc3399","Correct":32,"Choice":32,"RT":516,"Accuracy":1,"Outcome":"-1","Keys":[2017],"TotalKeys":1,"Block":2,"Trial":153,"Robot":3,"Valence":"Lose","Action":"Go","Sham":0,"Color":"yellow","trial_type":"pit-trial","trial_index":174,"time_elapsed":855275,"internal_node_id":"0.0-163.0","task_version":"test-retest"},{"Rune":"rune_01_ger","Hex":"#3366ff99","Correct":32,"Choice":32,"RT":482,"Accuracy":1,"Outcome":"+1","Keys":[1983],"TotalKeys":1,"Block":2,"Trial":154,"Robot":1,"Valence":"Win","Action":"Go","Sham":1,"Color":"blue","trial_type":"pit-trial","trial_index":175,"time_elapsed":858261,"internal_node_id":"0.0-164.0","task_version":"test-retest"},{"Rune":"rune_01_ear","Hex":"#ffcc3399","Correct":-1,"Choice":-1,"RT":-1,"Accuracy":1,"Outcome":"-10","Keys":[],"TotalKeys":0,"Block":2,"Trial":155,"Robot":4,"Valence":"Lose","Action":"No-Go","Sham":1,"Color":"yellow","trial_type":"pit-trial","trial_index":176,"time_elapsed":862264,"internal_node_id":"0.0-165.0","task_version":"test-retest"},{"Rune":"rune_01_yr","Hex":"#3366ff99","Correct":-1,"Choice":-1,"RT":-1,"Accuracy":1,"Outcome":"+10","Keys":[],"TotalKeys":0,"Block":2,"Trial":156,"Robot":2,"Valence":"Win","Action":"No-Go","Sham":0,"Color":"blue","trial_type":"pit-trial","trial_index":177,"time_elapsed":866264,"internal_node_id":"0.0-166.0","task_version":"test-retest"},{"Rune":"rune_01_ear","Hex":"#ffcc3399","Correct":-1,"Choice":-1,"RT":-1,"Accuracy":1,"Outcome":"-1","Keys":[],"TotalKeys":0,"Block":2,"Trial":157,"Robot":4,"Valence":"Lose","Action":"No-Go","Sham":0,"Color":"yellow","trial_type":"pit-trial","trial_index":178,"time_elapsed":870268,"internal_node_id":"0.0-167.0","task_version":"test-retest"},{"Rune":"rune_01_yr","Hex":"#3366ff99","Correct":-1,"Choice":-1,"RT":-1,"Accuracy":1,"Outcome":"+10","Keys":[],"TotalKeys":0,"Block":2,"Trial":158,"Robot":2,"Valence":"Win","Action":"No-Go","Sham":0,"Color":"blue","trial_type":"pit-trial","trial_index":179,"time_elapsed":874270,"internal_node_id":"0.0-168.0","task_version":"test-retest"},{"Rune":"rune_01_ger","Hex":"#3366ff99","Correct":32,"Choice":32,"RT":511,"Accuracy":1,"Outcome":"+10","Keys":[2011],"TotalKeys":1,"Block":2,"Trial":159,"Robot":1,"Valence":"Win","Action":"Go","Sham":0,"Color":"blue","trial_type":"pit-trial","trial_index":180,"time_elapsed":877285,"internal_node_id":"0.0-169.0","task_version":"test-retest"},{"Rune":"rune_01_ingwaz","Hex":"#ffcc3399","Correct":32,"Choice":32,"RT":479,"Accuracy":1,"Outcome":"-1","Keys":[1980],"TotalKeys":1,"Block":2,"Trial":160,"Robot":3,"Valence":"Lose","Action":"Go","Sham":0,"Color":"yellow","trial_type":"pit-trial","trial_index":181,"time_elapsed":880269,"internal_node_id":"0.0-170.0","task_version":"test-retest"},{"Rune":"rune_01_ger","Hex":"#3366ff99","Correct":32,"Choice":32,"RT":470,"Accuracy":1,"Outcome":"+10","Keys":[1970],"TotalKeys":1,"Block":2,"Trial":161,"Robot":1,"Valence":"Win","Action":"Go","Sham":0,"Color":"blue","trial_type":"pit-trial","trial_index":182,"time_elapsed":883243,"internal_node_id":"0.0-171.0","task_version":"test-retest"},{"Rune":"rune_01_ear","Hex":"#ffcc3399","Correct":-1,"Choice":-1,"RT":-1,"Accuracy":1,"Outcome":"-1","Keys":[],"TotalKeys":0,"Block":2,"Trial":162,"Robot":4,"Valence":"Lose","Action":"No-Go","Sham":0,"Color":"yellow","trial_type":"pit-trial","trial_index":183,"time_elapsed":887245,"internal_node_id":"0.0-172.0","task_version":"test-retest"},{"Rune":"rune_01_ingwaz","Hex":"#ffcc3399","Correct":32,"Choice":32,"RT":521,"Accuracy":1,"Outcome":"-1","Keys":[2021],"TotalKeys":1,"Block":2,"Trial":163,"Robot":3,"Valence":"Lose","Action":"Go","Sham":0,"Color":"yellow","trial_type":"pit-trial","trial_index":184,"time_elapsed":890268,"internal_node_id":"0.0-173.0","task_version":"test-retest"},{"Rune":"rune_01_yr","Hex":"#3366ff99","Correct":-1,"Choice":-1,"RT":-1,"Accuracy":1,"Outcome":"+10","Keys":[],"TotalKeys":0,"Block":2,"Trial":164,"Robot":2,"Valence":"Win","Action":"No-Go","Sham":0,"Color":"blue","trial_type":"pit-trial","trial_index":185,"time_elapsed":894271,"internal_node_id":"0.0-174.0","task_version":"test-retest"},{"Rune":"rune_01_yr","Hex":"#3366ff99","Correct":-1,"Choice":-1,"RT":-1,"Accuracy":1,"Outcome":"+10","Keys":[],"TotalKeys":0,"Block":2,"Trial":165,"Robot":2,"Valence":"Win","Action":"No-Go","Sham":0,"Color":"blue","trial_type":"pit-trial","trial_index":186,"time_elapsed":898274,"internal_node_id":"0.0-175.0","task_version":"test-retest"},{"Rune":"rune_01_ingwaz","Hex":"#ffcc3399","Correct":32,"Choice":32,"RT":499,"Accuracy":1,"Outcome":"-10","Keys":[2000],"TotalKeys":1,"Block":2,"Trial":166,"Robot":3,"Valence":"Lose","Action":"Go","Sham":1,"Color":"yellow","trial_type":"pit-trial","trial_index":187,"time_elapsed":901277,"internal_node_id":"0.0-176.0","task_version":"test-retest"},{"Rune":"rune_01_ger","Hex":"#3366ff99","Correct":32,"Choice":32,"RT":528,"Accuracy":1,"Outcome":"+10","Keys":[2028],"TotalKeys":1,"Block":2,"Trial":167,"Robot":1,"Valence":"Win","Action":"Go","Sham":0,"Color":"blue","trial_type":"pit-trial","trial_index":188,"time_elapsed":904308,"internal_node_id":"0.0-177.0","task_version":"test-retest"},{"Rune":"rune_01_ear","Hex":"#ffcc3399","Correct":-1,"Choice":-1,"RT":-1,"Accuracy":1,"Outcome":"-1","Keys":[],"TotalKeys":0,"Block":2,"Trial":168,"Robot":4,"Valence":"Lose","Action":"No-Go","Sham":0,"Color":"yellow","trial_type":"pit-trial","trial_index":189,"time_elapsed":908311,"internal_node_id":"0.0-178.0","task_version":"test-retest"},{"Rune":"rune_01_ear","Hex":"#ffcc3399","Correct":-1,"Choice":-1,"RT":-1,"Accuracy":1,"Outcome":"-1","Keys":[],"TotalKeys":0,"Block":2,"Trial":169,"Robot":4,"Valence":"Lose","Action":"No-Go","Sham":0,"Color":"yellow","trial_type":"pit-trial","trial_index":190,"time_elapsed":912314,"internal_node_id":"0.0-179.0","task_version":"test-retest"},{"Rune":"rune_01_ingwaz","Hex":"#ffcc3399","Correct":32,"Choice":32,"RT":379,"Accuracy":1,"Outcome":"-1","Keys":[1879],"TotalKeys":1,"Block":2,"Trial":170,"Robot":3,"Valence":"Lose","Action":"Go","Sham":0,"Color":"yellow","trial_type":"pit-trial","trial_index":191,"time_elapsed":915196,"internal_node_id":"0.0-180.0","task_version":"test-retest"},{"Rune":"rune_01_yr","Hex":"#3366ff99","Correct":-1,"Choice":-1,"RT":-1,"Accuracy":1,"Outcome":"+10","Keys":[],"TotalKeys":0,"Block":2,"Trial":171,"Robot":2,"Valence":"Win","Action":"No-Go","Sham":0,"Color":"blue","trial_type":"pit-trial","trial_index":192,"time_elapsed":919198,"internal_node_id":"0.0-181.0","task_version":"test-retest"},{"Rune":"rune_01_ger","Hex":"#3366ff99","Correct":32,"Choice":32,"RT":520,"Accuracy":1,"Outcome":"+10","Keys":[2020],"TotalKeys":1,"Block":2,"Trial":172,"Robot":1,"Valence":"Win","Action":"Go","Sham":0,"Color":"blue","trial_type":"pit-trial","trial_index":193,"time_elapsed":922219,"internal_node_id":"0.0-182.0","task_version":"test-retest"},{"Rune":"rune_01_ear","Hex":"#ffcc3399","Correct":-1,"Choice":-1,"RT":-1,"Accuracy":1,"Outcome":"-10","Keys":[],"TotalKeys":0,"Block":2,"Trial":173,"Robot":4,"Valence":"Lose","Action":"No-Go","Sham":1,"Color":"yellow","trial_type":"pit-trial","trial_index":194,"time_elapsed":926223,"internal_node_id":"0.0-183.0","task_version":"test-retest"},{"Rune":"rune_01_yr","Hex":"#3366ff99","Correct":-1,"Choice":32,"RT":591,"Accuracy":0,"Outcome":"+1","Keys":[2091],"TotalKeys":1,"Block":2,"Trial":174,"Robot":2,"Valence":"Win","Action":"No-Go","Sham":0,"Color":"blue","trial_type":"pit-trial","trial_index":195,"time_elapsed":929316,"internal_node_id":"0.0-184.0","task_version":"test-retest"},{"Rune":"rune_01_ingwaz","Hex":"#ffcc3399","Correct":32,"Choice":32,"RT":465,"Accuracy":1,"Outcome":"-1","Keys":[1966],"TotalKeys":1,"Block":2,"Trial":175,"Robot":3,"Valence":"Lose","Action":"Go","Sham":0,"Color":"yellow","trial_type":"pit-trial","trial_index":196,"time_elapsed":932284,"internal_node_id":"0.0-185.0","task_version":"test-retest"},{"Rune":"rune_01_ger","Hex":"#3366ff99","Correct":32,"Choice":32,"RT":528,"Accuracy":1,"Outcome":"+1","Keys":[2029],"TotalKeys":1,"Block":2,"Trial":176,"Robot":1,"Valence":"Win","Action":"Go","Sham":1,"Color":"blue","trial_type":"pit-trial","trial_index":197,"time_elapsed":935315,"internal_node_id":"0.0-186.0","task_version":"test-retest"},{"Rune":"rune_01_yr","Hex":"#3366ff99","Correct":-1,"Choice":-1,"RT":-1,"Accuracy":1,"Outcome":"+1","Keys":[],"TotalKeys":0,"Block":2,"Trial":177,"Robot":2,"Valence":"Win","Action":"No-Go","Sham":1,"Color":"blue","trial_type":"pit-trial","trial_index":198,"time_elapsed":939319,"internal_node_id":"0.0-187.0","task_version":"test-retest"},{"Rune":"rune_01_ear","Hex":"#ffcc3399","Correct":-1,"Choice":-1,"RT":-1,"Accuracy":1,"Outcome":"-1","Keys":[],"TotalKeys":0,"Block":2,"Trial":178,"Robot":4,"Valence":"Lose","Action":"No-Go","Sham":0,"Color":"yellow","trial_type":"pit-trial","trial_index":199,"time_elapsed":943322,"internal_node_id":"0.0-188.0","task_version":"test-retest"},{"Rune":"rune_01_ger","Hex":"#3366ff99","Correct":32,"Choice":32,"RT":515,"Accuracy":1,"Outcome":"+10","Keys":[2016],"TotalKeys":1,"Block":2,"Trial":179,"Robot":1,"Valence":"Win","Action":"Go","Sham":0,"Color":"blue","trial_type":"pit-trial","trial_index":200,"time_elapsed":946340,"internal_node_id":"0.0-189.0","task_version":"test-retest"},{"Rune":"rune_01_ingwaz","Hex":"#ffcc3399","Correct":32,"Choice":32,"RT":506,"Accuracy":1,"Outcome":"-1","Keys":[2006],"TotalKeys":1,"Block":2,"Trial":180,"Robot":3,"Valence":"Lose","Action":"Go","Sham":0,"Color":"yellow","trial_type":"pit-trial","trial_index":201,"time_elapsed":949348,"internal_node_id":"0.0-190.0","task_version":"test-retest"},{"view_history":"[{\"page_index\":0,\"viewing_time\":2229},{\"page_index\":1,\"viewing_time\":1712}]","rt":3942,"trial_type":"pit-instructions","trial_index":202,"time_elapsed":953291,"internal_node_id":"0.0-191.0","task_version":"test-retest"},{"Rune":"rune_01_ger","Hex":"#3366ff99","Correct":32,"Choice":32,"RT":488,"Accuracy":1,"Outcome":"+1","Keys":[1987],"TotalKeys":1,"Block":2,"Trial":181,"Robot":1,"Valence":"Win","Action":"Go","Sham":1,"Color":"blue","trial_type":"pit-trial","trial_index":203,"time_elapsed":956284,"internal_node_id":"0.0-192.0","task_version":"test-retest"},{"Rune":"rune_01_yr","Hex":"#3366ff99","Correct":-1,"Choice":-1,"RT":-1,"Accuracy":1,"Outcome":"+10","Keys":[],"TotalKeys":0,"Block":2,"Trial":182,"Robot":2,"Valence":"Win","Action":"No-Go","Sham":0,"Color":"blue","trial_type":"pit-trial","trial_index":204,"time_elapsed":960285,"internal_node_id":"0.0-193.0","task_version":"test-retest"},{"Rune":"rune_01_ear","Hex":"#ffcc3399","Correct":-1,"Choice":-1,"RT":-1,"Accuracy":1,"Outcome":"-1","Keys":[],"TotalKeys":0,"Block":2,"Trial":183,"Robot":4,"Valence":"Lose","Action":"No-Go","Sham":0,"Color":"yellow","trial_type":"pit-trial","trial_index":205,"time_elapsed":964289,"internal_node_id":"0.0-194.0","task_version":"test-retest"},{"Rune":"rune_01_ingwaz","Hex":"#ffcc3399","Correct":32,"Choice":32,"RT":419,"Accuracy":1,"Outcome":"-1","Keys":[1921],"TotalKeys":1,"Block":2,"Trial":184,"Robot":3,"Valence":"Lose","Action":"Go","Sham":0,"Color":"yellow","trial_type":"pit-trial","trial_index":206,"time_elapsed":967211,"internal_node_id":"0.0-195.0","task_version":"test-retest"},{"Rune":"rune_01_yr","Hex":"#3366ff99","Correct":-1,"Choice":-1,"RT":-1,"Accuracy":1,"Outcome":"+10","Keys":[],"TotalKeys":0,"Block":2,"Trial":185,"Robot":2,"Valence":"Win","Action":"No-Go","Sham":0,"Color":"blue","trial_type":"pit-trial","trial_index":207,"time_elapsed":971216,"internal_node_id":"0.0-196.0","task_version":"test-retest"},{"Rune":"rune_01_ear","Hex":"#ffcc3399","Correct":-1,"Choice":-1,"RT":-1,"Accuracy":1,"Outcome":"-1","Keys":[],"TotalKeys":0,"Block":2,"Trial":186,"Robot":4,"Valence":"Lose","Action":"No-Go","Sham":0,"Color":"yellow","trial_type":"pit-trial","trial_index":208,"time_elapsed":975217,"internal_node_id":"0.0-197.0","task_version":"test-retest"},{"Rune":"rune_01_ger","Hex":"#3366ff99","Correct":32,"Choice":32,"RT":450,"Accuracy":1,"Outcome":"+10","Keys":[1952],"TotalKeys":1,"Block":2,"Trial":187,"Robot":1,"Valence":"Win","Action":"Go","Sham":0,"Color":"blue","trial_type":"pit-trial","trial_index":209,"time_elapsed":978172,"internal_node_id":"0.0-198.0","task_version":"test-retest"},{"Rune":"rune_01_ingwaz","Hex":"#ffcc3399","Correct":32,"Choice":32,"RT":561,"Accuracy":1,"Outcome":"-1","Keys":[2061],"TotalKeys":1,"Block":2,"Trial":188,"Robot":3,"Valence":"Lose","Action":"Go","Sham":0,"Color":"yellow","trial_type":"pit-trial","trial_index":210,"time_elapsed":981236,"internal_node_id":"0.0-199.0","task_version":"test-retest"},{"Rune":"rune_01_yr","Hex":"#3366ff99","Correct":-1,"Choice":-1,"RT":-1,"Accuracy":1,"Outcome":"+10","Keys":[],"TotalKeys":0,"Block":2,"Trial":189,"Robot":2,"Valence":"Win","Action":"No-Go","Sham":0,"Color":"blue","trial_type":"pit-trial","trial_index":211,"time_elapsed":985239,"internal_node_id":"0.0-200.0","task_version":"test-retest"},{"Rune":"rune_01_ear","Hex":"#ffcc3399","Correct":-1,"Choice":-1,"RT":-1,"Accuracy":1,"Outcome":"-10","Keys":[],"TotalKeys":0,"Block":2,"Trial":190,"Robot":4,"Valence":"Lose","Action":"No-Go","Sham":1,"Color":"yellow","trial_type":"pit-trial","trial_index":212,"time_elapsed":989242,"internal_node_id":"0.0-201.0","task_version":"test-retest"},{"Rune":"rune_01_ingwaz","Hex":"#ffcc3399","Correct":32,"Choice":32,"RT":506,"Accuracy":1,"Outcome":"-10","Keys":[2006],"TotalKeys":1,"Block":2,"Trial":191,"Robot":3,"Valence":"Lose","Action":"Go","Sham":1,"Color":"yellow","trial_type":"pit-trial","trial_index":213,"time_elapsed":992250,"internal_node_id":"0.0-202.0","task_version":"test-retest"},{"Rune":"rune_01_ger","Hex":"#3366ff99","Correct":32,"Choice":32,"RT":434,"Accuracy":1,"Outcome":"+10","Keys":[1934],"TotalKeys":1,"Block":2,"Trial":192,"Robot":1,"Valence":"Win","Action":"Go","Sham":0,"Color":"blue","trial_type":"pit-trial","trial_index":214,"time_elapsed":995187,"internal_node_id":"0.0-203.0","task_version":"test-retest"},{"Rune":"rune_01_ger","Hex":"#3366ff99","Correct":32,"Choice":32,"RT":441,"Accuracy":1,"Outcome":"+10","Keys":[1942],"TotalKeys":1,"Block":2,"Trial":193,"Robot":1,"Valence":"Win","Action":"Go","Sham":0,"Color":"blue","trial_type":"pit-trial","trial_index":215,"time_elapsed":998131,"internal_node_id":"0.0-204.0","task_version":"test-retest"},{"Rune":"rune_01_yr","Hex":"#3366ff99","Correct":-1,"Choice":-1,"RT":-1,"Accuracy":1,"Outcome":"+10","Keys":[],"TotalKeys":0,"Block":2,"Trial":194,"Robot":2,"Valence":"Win","Action":"No-Go","Sham":0,"Color":"blue","trial_type":"pit-trial","trial_index":216,"time_elapsed":1002135,"internal_node_id":"0.0-205.0","task_version":"test-retest"},{"Rune":"rune_01_ear","Hex":"#ffcc3399","Correct":-1,"Choice":-1,"RT":-1,"Accuracy":1,"Outcome":"-1","Keys":[],"TotalKeys":0,"Block":2,"Trial":195,"Robot":4,"Valence":"Lose","Action":"No-Go","Sham":0,"Color":"yellow","trial_type":"pit-trial","trial_index":217,"time_elapsed":1006138,"internal_node_id":"0.0-206.0","task_version":"test-retest"},{"Rune":"rune_01_ingwaz","Hex":"#ffcc3399","Correct":32,"Choice":32,"RT":433,"Accuracy":1,"Outcome":"-1","Keys":[1935],"TotalKeys":1,"Block":2,"Trial":196,"Robot":3,"Valence":"Lose","Action":"Go","Sham":0,"Color":"yellow","trial_type":"pit-trial","trial_index":218,"time_elapsed":1009077,"internal_node_id":"0.0-207.0","task_version":"test-retest"},{"Rune":"rune_01_ger","Hex":"#3366ff99","Correct":32,"Choice":32,"RT":473,"Accuracy":1,"Outcome":"+10","Keys":[1973],"TotalKeys":1,"Block":2,"Trial":197,"Robot":1,"Valence":"Win","Action":"Go","Sham":0,"Color":"blue","trial_type":"pit-trial","trial_index":219,"time_elapsed":1012053,"internal_node_id":"0.0-208.0","task_version":"test-retest"},{"Rune":"rune_01_ingwaz","Hex":"#ffcc3399","Correct":32,"Choice":32,"RT":472,"Accuracy":1,"Outcome":"-1","Keys":[1972],"TotalKeys":1,"Block":2,"Trial":198,"Robot":3,"Valence":"Lose","Action":"Go","Sham":0,"Color":"yellow","trial_type":"pit-trial","trial_index":220,"time_elapsed":1015027,"internal_node_id":"0.0-209.0","task_version":"test-retest"},{"Rune":"rune_01_yr","Hex":"#3366ff99","Correct":-1,"Choice":-1,"RT":-1,"Accuracy":1,"Outcome":"+1","Keys":[],"TotalKeys":0,"Block":2,"Trial":199,"Robot":2,"Valence":"Win","Action":"No-Go","Sham":1,"Color":"blue","trial_type":"pit-trial","trial_index":221,"time_elapsed":1019032,"internal_node_id":"0.0-210.0","task_version":"test-retest"},{"Rune":"rune_01_ear","Hex":"#ffcc3399","Correct":-1,"Choice":-1,"RT":-1,"Accuracy":1,"Outcome":"-1","Keys":[],"TotalKeys":0,"Block":2,"Trial":200,"Robot":4,"Valence":"Lose","Action":"No-Go","Sham":0,"Color":"yellow","trial_type":"pit-trial","trial_index":222,"time_elapsed":1023033,"internal_node_id":"0.0-211.0","task_version":"test-retest"},{"Rune":"rune_01_yr","Hex":"#3366ff99","Correct":-1,"Choice":-1,"RT":-1,"Accuracy":1,"Outcome":"+10","Keys":[],"TotalKeys":0,"Block":2,"Trial":201,"Robot":2,"Valence":"Win","Action":"No-Go","Sham":0,"Color":"blue","trial_type":"pit-trial","trial_index":223,"time_elapsed":1027035,"internal_node_id":"0.0-212.0","task_version":"test-retest"},{"Rune":"rune_01_ger","Hex":"#3366ff99","Correct":32,"Choice":32,"RT":449,"Accuracy":1,"Outcome":"+10","Keys":[1951],"TotalKeys":1,"Block":2,"Trial":202,"Robot":1,"Valence":"Win","Action":"Go","Sham":0,"Color":"blue","trial_type":"pit-trial","trial_index":224,"time_elapsed":1029988,"internal_node_id":"0.0-213.0","task_version":"test-retest"},{"Rune":"rune_01_ingwaz","Hex":"#ffcc3399","Correct":32,"Choice":32,"RT":418,"Accuracy":1,"Outcome":"-1","Keys":[1918],"TotalKeys":1,"Block":2,"Trial":203,"Robot":3,"Valence":"Lose","Action":"Go","Sham":0,"Color":"yellow","trial_type":"pit-trial","trial_index":225,"time_elapsed":1032909,"internal_node_id":"0.0-214.0","task_version":"test-retest"},{"Rune":"rune_01_ear","Hex":"#ffcc3399","Correct":-1,"Choice":-1,"RT":-1,"Accuracy":1,"Outcome":"-10","Keys":[],"TotalKeys":0,"Block":2,"Trial":204,"Robot":4,"Valence":"Lose","Action":"No-Go","Sham":1,"Color":"yellow","trial_type":"pit-trial","trial_index":226,"time_elapsed":1036912,"internal_node_id":"0.0-215.0","task_version":"test-retest"},{"Rune":"rune_01_ingwaz","Hex":"#ffcc3399","Correct":32,"Choice":32,"RT":484,"Accuracy":1,"Outcome":"-1","Keys":[1985],"TotalKeys":1,"Block":2,"Trial":205,"Robot":3,"Valence":"Lose","Action":"Go","Sham":0,"Color":"yellow","trial_type":"pit-trial","trial_index":227,"time_elapsed":1039900,"internal_node_id":"0.0-216.0","task_version":"test-retest"},{"Rune":"rune_01_ger","Hex":"#3366ff99","Correct":32,"Choice":32,"RT":507,"Accuracy":1,"Outcome":"+10","Keys":[2006],"TotalKeys":1,"Block":2,"Trial":206,"Robot":1,"Valence":"Win","Action":"Go","Sham":0,"Color":"blue","trial_type":"pit-trial","trial_index":228,"time_elapsed":1042909,"internal_node_id":"0.0-217.0","task_version":"test-retest"},{"Rune":"rune_01_ear","Hex":"#ffcc3399","Correct":-1,"Choice":-1,"RT":-1,"Accuracy":1,"Outcome":"-1","Keys":[],"TotalKeys":0,"Block":2,"Trial":207,"Robot":4,"Valence":"Lose","Action":"No-Go","Sham":0,"Color":"yellow","trial_type":"pit-trial","trial_index":229,"time_elapsed":1046912,"internal_node_id":"0.0-218.0","task_version":"test-retest"},{"Rune":"rune_01_yr","Hex":"#3366ff99","Correct":-1,"Choice":-1,"RT":-1,"Accuracy":1,"Outcome":"+10","Keys":[],"TotalKeys":0,"Block":2,"Trial":208,"Robot":2,"Valence":"Win","Action":"No-Go","Sham":0,"Color":"blue","trial_type":"pit-trial","trial_index":230,"time_elapsed":1050915,"internal_node_id":"0.0-219.0","task_version":"test-retest"},{"Rune":"rune_01_yr","Hex":"#3366ff99","Correct":-1,"Choice":-1,"RT":-1,"Accuracy":1,"Outcome":"+10","Keys":[],"TotalKeys":0,"Block":2,"Trial":209,"Robot":2,"Valence":"Win","Action":"No-Go","Sham":0,"Color":"blue","trial_type":"pit-trial","trial_index":231,"time_elapsed":1054916,"internal_node_id":"0.0-220.0","task_version":"test-retest"},{"Rune":"rune_01_ingwaz","Hex":"#ffcc3399","Correct":32,"Choice":32,"RT":505,"Accuracy":1,"Outcome":"-1","Keys":[2005],"TotalKeys":1,"Block":2,"Trial":210,"Robot":3,"Valence":"Lose","Action":"Go","Sham":0,"Color":"yellow","trial_type":"pit-trial","trial_index":232,"time_elapsed":1057924,"internal_node_id":"0.0-221.0","task_version":"test-retest"},{"Rune":"rune_01_ger","Hex":"#3366ff99","Correct":32,"Choice":32,"RT":433,"Accuracy":1,"Outcome":"+10","Keys":[1934],"TotalKeys":1,"Block":2,"Trial":211,"Robot":1,"Valence":"Win","Action":"Go","Sham":0,"Color":"blue","trial_type":"pit-trial","trial_index":233,"time_elapsed":1060859,"internal_node_id":"0.0-222.0","task_version":"test-retest"},{"Rune":"rune_01_ear","Hex":"#ffcc3399","Correct":-1,"Choice":-1,"RT":-1,"Accuracy":1,"Outcome":"-1","Keys":[],"TotalKeys":0,"Block":2,"Trial":212,"Robot":4,"Valence":"Lose","Action":"No-Go","Sham":0,"Color":"yellow","trial_type":"pit-trial","trial_index":234,"time_elapsed":1064861,"internal_node_id":"0.0-223.0","task_version":"test-retest"},{"Rune":"rune_01_ingwaz","Hex":"#ffcc3399","Correct":32,"Choice":32,"RT":471,"Accuracy":1,"Outcome":"-10","Keys":[1972],"TotalKeys":1,"Block":2,"Trial":213,"Robot":3,"Valence":"Lose","Action":"Go","Sham":1,"Color":"yellow","trial_type":"pit-trial","trial_index":235,"time_elapsed":1067837,"internal_node_id":"0.0-224.0","task_version":"test-retest"},{"Rune":"rune_01_ger","Hex":"#3366ff99","Correct":32,"Choice":32,"RT":464,"Accuracy":1,"Outcome":"+1","Keys":[1964],"TotalKeys":1,"Block":2,"Trial":214,"Robot":1,"Valence":"Win","Action":"Go","Sham":1,"Color":"blue","trial_type":"pit-trial","trial_index":236,"time_elapsed":1070803,"internal_node_id":"0.0-225.0","task_version":"test-retest"},{"Rune":"rune_01_yr","Hex":"#3366ff99","Correct":-1,"Choice":-1,"RT":-1,"Accuracy":1,"Outcome":"+10","Keys":[],"TotalKeys":0,"Block":2,"Trial":215,"Robot":2,"Valence":"Win","Action":"No-Go","Sham":0,"Color":"blue","trial_type":"pit-trial","trial_index":237,"time_elapsed":1074806,"internal_node_id":"0.0-226.0","task_version":"test-retest"},{"Rune":"rune_01_ear","Hex":"#ffcc3399","Correct":-1,"Choice":-1,"RT":-1,"Accuracy":1,"Outcome":"-1","Keys":[],"TotalKeys":0,"Block":2,"Trial":216,"Robot":4,"Valence":"Lose","Action":"No-Go","Sham":0,"Color":"yellow","trial_type":"pit-trial","trial_index":238,"time_elapsed":1078808,"internal_node_id":"0.0-227.0","task_version":"test-retest"},{"Rune":"rune_01_ger","Hex":"#3366ff99","Correct":32,"Choice":32,"RT":525,"Accuracy":1,"Outcome":"+10","Keys":[2026],"TotalKeys":1,"Block":2,"Trial":217,"Robot":1,"Valence":"Win","Action":"Go","Sham":0,"Color":"blue","trial_type":"pit-trial","trial_index":239,"time_elapsed":1081836,"internal_node_id":"0.0-228.0","task_version":"test-retest"},{"Rune":"rune_01_ingwaz","Hex":"#ffcc3399","Correct":32,"Choice":32,"RT":552,"Accuracy":1,"Outcome":"-1","Keys":[2052],"TotalKeys":1,"Block":2,"Trial":218,"Robot":3,"Valence":"Lose","Action":"Go","Sham":0,"Color":"yellow","trial_type":"pit-trial","trial_index":240,"time_elapsed":1084892,"internal_node_id":"0.0-229.0","task_version":"test-retest"},{"Rune":"rune_01_ear","Hex":"#ffcc3399","Correct":-1,"Choice":-1,"RT":-1,"Accuracy":1,"Outcome":"-1","Keys":[],"TotalKeys":0,"Block":2,"Trial":219,"Robot":4,"Valence":"Lose","Action":"No-Go","Sham":0,"Color":"yellow","trial_type":"pit-trial","trial_index":241,"time_elapsed":1088895,"internal_node_id":"0.0-230.0","task_version":"test-retest"},{"Rune":"rune_01_yr","Hex":"#3366ff99","Correct":-1,"Choice":-1,"RT":-1,"Accuracy":1,"Outcome":"+1","Keys":[],"TotalKeys":0,"Block":2,"Trial":220,"Robot":2,"Valence":"Win","Action":"No-Go","Sham":1,"Color":"blue","trial_type":"pit-trial","trial_index":242,"time_elapsed":1092899,"internal_node_id":"0.0-231.0","task_version":"test-retest"},{"Rune":"rune_01_ger","Hex":"#3366ff99","Correct":32,"Choice":32,"RT":419,"Accuracy":1,"Outcome":"+10","Keys":[1920],"TotalKeys":1,"Block":2,"Trial":221,"Robot":1,"Valence":"Win","Action":"Go","Sham":0,"Color":"blue","trial_type":"pit-trial","trial_index":243,"time_elapsed":1095819,"internal_node_id":"0.0-232.0","task_version":"test-retest"},{"Rune":"rune_01_ingwaz","Hex":"#ffcc3399","Correct":32,"Choice":32,"RT":505,"Accuracy":1,"Outcome":"-1","Keys":[2006],"TotalKeys":1,"Block":2,"Trial":222,"Robot":3,"Valence":"Lose","Action":"Go","Sham":0,"Color":"yellow","trial_type":"pit-trial","trial_index":244,"time_elapsed":1098829,"internal_node_id":"0.0-233.0","task_version":"test-retest"},{"Rune":"rune_01_yr","Hex":"#3366ff99","Correct":-1,"Choice":-1,"RT":-1,"Accuracy":1,"Outcome":"+10","Keys":[],"TotalKeys":0,"Block":2,"Trial":223,"Robot":2,"Valence":"Win","Action":"No-Go","Sham":0,"Color":"blue","trial_type":"pit-trial","trial_index":245,"time_elapsed":1102832,"internal_node_id":"0.0-234.0","task_version":"test-retest"},{"Rune":"rune_01_ear","Hex":"#ffcc3399","Correct":-1,"Choice":-1,"RT":-1,"Accuracy":1,"Outcome":"-1","Keys":[],"TotalKeys":0,"Block":2,"Trial":224,"Robot":4,"Valence":"Lose","Action":"No-Go","Sham":0,"Color":"yellow","trial_type":"pit-trial","trial_index":246,"time_elapsed":1106833,"internal_node_id":"0.0-235.0","task_version":"test-retest"},{"Rune":"rune_01_ger","Hex":"#3366ff99","Correct":32,"Choice":32,"RT":443,"Accuracy":1,"Outcome":"+10","Keys":[1944],"TotalKeys":1,"Block":2,"Trial":225,"Robot":1,"Valence":"Win","Action":"Go","Sham":0,"Color":"blue","trial_type":"pit-trial","trial_index":247,"time_elapsed":1109780,"internal_node_id":"0.0-236.0","task_version":"test-retest"},{"Rune":"rune_01_ear","Hex":"#ffcc3399","Correct":-1,"Choice":-1,"RT":-1,"Accuracy":1,"Outcome":"-1","Keys":[],"TotalKeys":0,"Block":2,"Trial":226,"Robot":4,"Valence":"Lose","Action":"No-Go","Sham":0,"Color":"yellow","trial_type":"pit-trial","trial_index":248,"time_elapsed":1113782,"internal_node_id":"0.0-237.0","task_version":"test-retest"},{"Rune":"rune_01_yr","Hex":"#3366ff99","Correct":-1,"Choice":-1,"RT":-1,"Accuracy":1,"Outcome":"+10","Keys":[],"TotalKeys":0,"Block":2,"Trial":227,"Robot":2,"Valence":"Win","Action":"No-Go","Sham":0,"Color":"blue","trial_type":"pit-trial","trial_index":249,"time_elapsed":1117786,"internal_node_id":"0.0-238.0","task_version":"test-retest"},{"Rune":"rune_01_ingwaz","Hex":"#ffcc3399","Correct":32,"Choice":32,"RT":557,"Accuracy":1,"Outcome":"-1","Keys":[2057],"TotalKeys":1,"Block":2,"Trial":228,"Robot":3,"Valence":"Lose","Action":"Go","Sham":0,"Color":"yellow","trial_type":"pit-trial","trial_index":250,"time_elapsed":1120844,"internal_node_id":"0.0-239.0","task_version":"test-retest"},{"Rune":"rune_01_ear","Hex":"#ffcc3399","Correct":-1,"Choice":-1,"RT":-1,"Accuracy":1,"Outcome":"-10","Keys":[],"TotalKeys":0,"Block":2,"Trial":229,"Robot":4,"Valence":"Lose","Action":"No-Go","Sham":1,"Color":"yellow","trial_type":"pit-trial","trial_index":251,"time_elapsed":1124846,"internal_node_id":"0.0-240.0","task_version":"test-retest"},{"Rune":"rune_01_yr","Hex":"#3366ff99","Correct":-1,"Choice":-1,"RT":-1,"Accuracy":1,"Outcome":"+10","Keys":[],"TotalKeys":0,"Block":2,"Trial":230,"Robot":2,"Valence":"Win","Action":"No-Go","Sham":0,"Color":"blue","trial_type":"pit-trial","trial_index":252,"time_elapsed":1128850,"internal_node_id":"0.0-241.0","task_version":"test-retest"},{"Rune":"rune_01_ingwaz","Hex":"#ffcc3399","Correct":32,"Choice":32,"RT":467,"Accuracy":1,"Outcome":"-1","Keys":[1968],"TotalKeys":1,"Block":2,"Trial":231,"Robot":3,"Valence":"Lose","Action":"Go","Sham":0,"Color":"yellow","trial_type":"pit-trial","trial_index":253,"time_elapsed":1131819,"internal_node_id":"0.0-242.0","task_version":"test-retest"},{"Rune":"rune_01_ger","Hex":"#3366ff99","Correct":32,"Choice":32,"RT":418,"Accuracy":1,"Outcome":"+1","Keys":[1920],"TotalKeys":1,"Block":2,"Trial":232,"Robot":1,"Valence":"Win","Action":"Go","Sham":1,"Color":"blue","trial_type":"pit-trial","trial_index":254,"time_elapsed":1134741,"internal_node_id":"0.0-243.0","task_version":"test-retest"},{"Rune":"rune_01_yr","Hex":"#3366ff99","Correct":-1,"Choice":-1,"RT":-1,"Accuracy":1,"Outcome":"+1","Keys":[],"TotalKeys":0,"Block":2,"Trial":233,"Robot":2,"Valence":"Win","Action":"No-Go","Sham":1,"Color":"blue","trial_type":"pit-trial","trial_index":255,"time_elapsed":1138743,"internal_node_id":"0.0-244.0","task_version":"test-retest"},{"Rune":"rune_01_ear","Hex":"#ffcc3399","Correct":-1,"Choice":-1,"RT":-1,"Accuracy":1,"Outcome":"-1","Keys":[],"TotalKeys":0,"Block":2,"Trial":234,"Robot":4,"Valence":"Lose","Action":"No-Go","Sham":0,"Color":"yellow","trial_type":"pit-trial","trial_index":256,"time_elapsed":1142746,"internal_node_id":"0.0-245.0","task_version":"test-retest"},{"Rune":"rune_01_ingwaz","Hex":"#ffcc3399","Correct":32,"Choice":32,"RT":483,"Accuracy":1,"Outcome":"-1","Keys":[1984],"TotalKeys":1,"Block":2,"Trial":235,"Robot":3,"Valence":"Lose","Action":"Go","Sham":0,"Color":"yellow","trial_type":"pit-trial","trial_index":257,"time_elapsed":1145732,"internal_node_id":"0.0-246.0","task_version":"test-retest"},{"Rune":"rune_01_ger","Hex":"#3366ff99","Correct":32,"Choice":32,"RT":490,"Accuracy":1,"Outcome":"+10","Keys":[1990],"TotalKeys":1,"Block":2,"Trial":236,"Robot":1,"Valence":"Win","Action":"Go","Sham":0,"Color":"blue","trial_type":"pit-trial","trial_index":258,"time_elapsed":1148723,"internal_node_id":"0.0-247.0","task_version":"test-retest"},{"Rune":"rune_01_ear","Hex":"#ffcc3399","Correct":-1,"Choice":-1,"RT":-1,"Accuracy":1,"Outcome":"-1","Keys":[],"TotalKeys":0,"Block":2,"Trial":237,"Robot":4,"Valence":"Lose","Action":"No-Go","Sham":0,"Color":"yellow","trial_type":"pit-trial","trial_index":259,"time_elapsed":1152726,"internal_node_id":"0.0-248.0","task_version":"test-retest"},{"Rune":"rune_01_yr","Hex":"#3366ff99","Correct":-1,"Choice":-1,"RT":-1,"Accuracy":1,"Outcome":"+10","Keys":[],"TotalKeys":0,"Block":2,"Trial":238,"Robot":2,"Valence":"Win","Action":"No-Go","Sham":0,"Color":"blue","trial_type":"pit-trial","trial_index":260,"time_elapsed":1156729,"internal_node_id":"0.0-249.0","task_version":"test-retest"},{"Rune":"rune_01_ger","Hex":"#3366ff99","Correct":32,"Choice":32,"RT":427,"Accuracy":1,"Outcome":"+10","Keys":[1929],"TotalKeys":1,"Block":2,"Trial":239,"Robot":1,"Valence":"Win","Action":"Go","Sham":0,"Color":"blue","trial_type":"pit-trial","trial_index":261,"time_elapsed":1159660,"internal_node_id":"0.0-250.0","task_version":"test-retest"},{"Rune":"rune_01_ingwaz","Hex":"#ffcc3399","Correct":32,"Choice":32,"RT":499,"Accuracy":1,"Outcome":"-10","Keys":[1998],"TotalKeys":1,"Block":2,"Trial":240,"Robot":3,"Valence":"Lose","Action":"Go","Sham":1,"Color":"yellow","trial_type":"pit-trial","trial_index":262,"time_elapsed":1162660,"internal_node_id":"0.0-251.0","task_version":"test-retest"},{"view_history":"[{\"page_index\":0,\"viewing_time\":1822}]","rt":1822,"trial_type":"pit-instructions","trial_index":263,"time_elapsed":1164483,"internal_node_id":"0.0-252.0","task_version":"test-retest"},{"rt":18682,"responses":{"age":"33","gender-categorical":"Female","gender-free-response":"","ethnicity":"Not Hispanic or Latino","race":"White","language":"Yes","fluency":"Very well"},"survey":"demographics","trial_type":"survey-demo","trial_index":264,"time_elapsed":1183172,"internal_node_id":"0.0-253.0","task_version":"test-retest"},{"rt":73789,"responses":{"difficulty":"2","fun":"4","clarity":"4","strategy":"I did not write anything down. My only strategy was figuring out how many symbols there were and which I perceived as right/wrong.","feedback":""},"survey":"debrief","trial_type":"survey-debrief","trial_index":265,"time_elapsed":1256966,"internal_node_id":"0.0-254.0","task_version":"test-retest"},{"rt":5315,"stimulus":"You earned a bonus of $1.32 out of $1.5.<br><br>Press any key to complete the experiment.","key_press":32,"trial_type":"html-keyboard-response","trial_index":266,"time_elapsed":1262283,"internal_node_id":"0.0-255.0","task_version":"test-retest","accuracy":0.875,"bonus":1.32,"interactions":"[{\"event\":\"focus\",\"trial\":0,\"time\":0},{\"event\":\"blur\",\"trial\":1,\"time\":58441},{\"event\":\"focus\",\"trial\":1,\"time\":58741},{\"event\":\"blur\",\"trial\":2,\"time\":64515},{\"event\":\"focus\",\"trial\":2,\"time\":65671},{\"event\":\"blur\",\"trial\":5,\"time\":166348},{\"event\":\"focus\",\"trial\":5,\"time\":166643},{\"event\":\"blur\",\"trial\":15,\"time\":240350},{\"event\":\"focus\",\"trial\":15,\"time\":244866},{\"event\":\"blur\",\"trial\":18,\"time\":287360},{\"event\":\"focus\",\"trial\":18,\"time\":289714},{\"event\":\"blur\",\"trial\":141,\"time\":728894},{\"event\":\"focus\",\"trial\":141,\"time\":733014},{\"event\":\"blur\",\"trial\":264,\"time\":1166948},{\"event\":\"focus\",\"trial\":264,\"time\":1168904},{\"event\":\"blur\",\"trial\":264,\"time\":1181563},{\"event\":\"focus\",\"trial\":264,\"time\":1181803},{\"event\":\"blur\",\"trial\":265,\"time\":1254961},{\"event\":\"focus\",\"trial\":265,\"time\":1255258}]"}]