[{"slider_type":"valence","raw_loc":723,"loc":0.946,"trial_type":"affective-slider","trial_index":0,"time_elapsed":17932,"internal_node_id":"0.0-0.0","task_version":"test-retest"},{"view_history":"[{\"page_index\":0,\"viewing_time\":9158.679999993183},{\"page_index\":1,\"viewing_time\":11771.715000038967},{\"page_index\":2,\"viewing_time\":16781.46999992896},{\"page_index\":3,\"viewing_time\":9570.990000036545},{\"page_index\":4,\"viewing_time\":10568.00500000827}]","rt":57854.99999998137,"trial_type":"pit-instructions","trial_index":1,"time_elapsed":75791,"internal_node_id":"0.0-1.0-0.0","task_version":"test-retest"},{"Rune":"rune_00_ingz","Hex":"#FFFFF080","Correct":32,"Choice":32,"RT":1409.555000020191,"Accuracy":1,"Outcome":"+10","Keys":[2909.8549999762326],"TotalKeys":1,"Block":0,"Action":"Go","trial_type":"pit-trial","trial_index":2,"time_elapsed":79710,"internal_node_id":"0.0-1.0-1.0-0.0","task_version":"test-retest"},{"Rune":"rune_00_ingz","Hex":"#FFFFF080","Correct":32,"Choice":32,"RT":1451.1149999452755,"Accuracy":1,"Outcome":"+10","Keys":[2952.6649999897927],"TotalKeys":1,"Block":0,"Action":"Go","trial_type":"pit-trial","trial_index":3,"time_elapsed":83669,"internal_node_id":"0.0-1.0-1.0-0.1","task_version":"test-retest"},{"Rune":"rune_00_ingz","Hex":"#FFFFF080","Correct":32,"Choice":-1,"RT":-1,"Accuracy":0,"Outcome":"+0","Keys":[3094.535000040196],"TotalKeys":1,"Block":0,"Action":"Go","trial_type":"pit-trial","trial_index":4,"time_elapsed":87680,"internal_node_id":"0.0-1.0-1.0-0.2","task_version":"test-retest"},{"Rune":"rune_00_ingz","Hex":"#FFFFF080","Correct":32,"Choice":-1,"RT":-1,"Accuracy":0,"Outcome":"+0","Keys":[3273.509999969974],"TotalKeys":1,"Block":0,"Action":"Go","trial_type":"pit-trial","trial_index":5,"time_elapsed":91686,"internal_node_id":"0.0-1.0-1.0-0.3","task_version":"test-retest"},{"view_history":"[{\"page_index\":0,\"viewing_time\":7530.109999934211}]","rt":7541.504999971949,"trial_type":"pit-instructions","trial_index":6,"time_elapsed":99230,"internal_node_id":"0.0-1.0-2.0","task_version":"test-retest"},{"Rune":"rune_00_isaz","Hex":"#FFFFF080","Correct":-1,"Choice":32,"RT":1251.2299999361858,"Accuracy":0,"Outcome":"+0","Keys":[2753.70500003919],"TotalKeys":1,"Block":0,"Action":"No-Go","trial_type":"pit-trial","trial_index":7,"time_elapsed":102989,"internal_node_id":"0.0-1.0-3.0-0.0","task_version":"test-retest"},{"Rune":"rune_00_isaz","Hex":"#FFFFF080","Correct":-1,"Choice":32,"RT":1374.0850000176579,"Accuracy":0,"Outcome":"+0","Keys":[2874.8149999883026],"TotalKeys":1,"Block":0,"Action":"No-Go","trial_type":"pit-trial","trial_index":8,"time_elapsed":106871,"internal_node_id":"0.0-1.0-3.0-0.1","task_version":"test-retest"},{"Rune":"rune_00_isaz","Hex":"#FFFFF080","Correct":-1,"Choice":-1,"RT":-1,"Accuracy":1,"Outcome":"+10","Keys":[3292.6399999996647],"TotalKeys":1,"Block":0,"Action":"No-Go","trial_type":"pit-trial","trial_index":9,"time_elapsed":110879,"internal_node_id":"0.0-1.0-3.0-0.2","task_version":"test-retest"},{"Rune":"rune_00_isaz","Hex":"#FFFFF080","Correct":-1,"Choice":32,"RT":1459.610000019893,"Accuracy":0,"Outcome":"+0","Keys":[2959.9199999356642],"TotalKeys":1,"Block":0,"Action":"No-Go","trial_type":"pit-trial","trial_index":10,"time_elapsed":114844,"internal_node_id":"0.0-1.0-3.0-0.3","task_version":"test-retest"},{"view_history":"[{\"page_index\":0,\"viewing_time\":6141.159999999218},{\"page_index\":1,\"viewing_time\":12450.609999941662},{\"page_index\":2,\"viewing_time\":14350.81000009086},{\"page_index\":3,\"viewing_time\":7960.149999940768},{\"page_index\":4,\"viewing_time\":9040.550000034273},{\"page_index\":5,\"viewing_time\":2229.189999983646},{\"page_index\":6,\"viewing_time\":1350.1849999884143},{\"page_index\":7,\"viewing_time\":1250.0599999912083}]","rt":54774.559999932535,"trial_type":"pit-instructions","trial_index":11,"time_elapsed":169622,"internal_node_id":"0.0-1.0-4.0","task_version":"test-retest"},{"responses":["Do nothing","+10","-1","False","Yes"],"num_errors":1,"rt":42143.29999999609,"trial_type":"pit-comprehension","trial_index":12,"time_elapsed":211775,"internal_node_id":"0.0-1.0-5.0","task_version":"test-retest"},{"view_history":"[{\"page_index\":0,\"viewing_time\":5095.5299999332055},{\"page_index\":1,\"viewing_time\":6570.610000053421}]","rt":11667.594999889843,"trial_type":"pit-instructions","trial_index":13,"time_elapsed":223452,"internal_node_id":"0.0-2.0","task_version":"test-retest"},{"Rune":"rune_01_ear","Hex":"#3366ff99","Correct":32,"Choice":-1,"RT":-1,"Accuracy":0,"Outcome":"-10","Keys":[],"TotalKeys":0,"Block":1,"Trial":1,"Robot":3,"Valence":"Lose","Action":"Go","Sham":0,"Color":"blue","trial_type":"pit-trial","trial_index":14,"time_elapsed":227469,"internal_node_id":"0.0-3.0","task_version":"test-retest"},{"Rune":"rune_01_ger","Hex":"#3366ff99","Correct":-1,"Choice":-1,"RT":-1,"Accuracy":1,"Outcome":"-1","Keys":[3242.58999992162],"TotalKeys":1,"Block":1,"Trial":2,"Robot":4,"Valence":"Lose","Action":"No-Go","Sham":0,"Color":"blue","trial_type":"pit-trial","trial_index":15,"time_elapsed":231479,"internal_node_id":"0.0-4.0","task_version":"test-retest"},{"Rune":"rune_01_yr","Hex":"#ffcc3399","Correct":-1,"Choice":32,"RT":885.1549999089912,"Accuracy":0,"Outcome":"+10","Keys":[2386.6249999264255],"TotalKeys":1,"Block":1,"Trial":3,"Robot":2,"Valence":"Win","Action":"No-Go","Sham":1,"Color":"yellow","trial_type":"pit-trial","trial_index":16,"time_elapsed":234873,"internal_node_id":"0.0-5.0","task_version":"test-retest"},{"Rune":"rune_01_ingwaz","Hex":"#ffcc3399","Correct":32,"Choice":32,"RT":893.1349999038503,"Accuracy":1,"Outcome":"+10","Keys":[2394.105000072159],"TotalKeys":1,"Block":1,"Trial":4,"Robot":1,"Valence":"Win","Action":"Go","Sham":0,"Color":"yellow","trial_type":"pit-trial","trial_index":17,"time_elapsed":238272,"internal_node_id":"0.0-6.0","task_version":"test-retest"},{"Rune":"rune_01_ingwaz","Hex":"#ffcc3399","Correct":32,"Choice":32,"RT":993.4600000269711,"Accuracy":1,"Outcome":"+10","Keys":[2495.0849999440834],"TotalKeys":1,"Block":1,"Trial":5,"Robot":1,"Valence":"Win","Action":"Go","Sham":0,"Color":"yellow","trial_type":"pit-trial","trial_index":18,"time_elapsed":241771,"internal_node_id":"0.0-7.0","task_version":"test-retest"},{"Rune":"rune_01_ear","Hex":"#3366ff99","Correct":32,"Choice":32,"RT":903.8099999306723,"Accuracy":1,"Outcome":"-1","Keys":[2405.6600000476465],"TotalKeys":1,"Block":1,"Trial":6,"Robot":3,"Valence":"Lose","Action":"Go","Sham":0,"Color":"blue","trial_type":"pit-trial","trial_index":19,"time_elapsed":245183,"internal_node_id":"0.0-8.0","task_version":"test-retest"},{"Rune":"rune_01_ger","Hex":"#3366ff99","Correct":-1,"Choice":32,"RT":1036.3449999131262,"Accuracy":0,"Outcome":"-10","Keys":[2536.695000017062],"TotalKeys":1,"Block":1,"Trial":7,"Robot":4,"Valence":"Lose","Action":"No-Go","Sham":0,"Color":"blue","trial_type":"pit-trial","trial_index":20,"time_elapsed":248725,"internal_node_id":"0.0-9.0","task_version":"test-retest"},{"Rune":"rune_01_yr","Hex":"#ffcc3399","Correct":-1,"Choice":32,"RT":762.00499990955,"Accuracy":0,"Outcome":"+1","Keys":[2262.4899999937043],"TotalKeys":1,"Block":1,"Trial":8,"Robot":2,"Valence":"Win","Action":"No-Go","Sham":0,"Color":"yellow","trial_type":"pit-trial","trial_index":21,"time_elapsed":251993,"internal_node_id":"0.0-10.0","task_version":"test-retest"},{"Rune":"rune_01_ear","Hex":"#3366ff99","Correct":32,"Choice":32,"RT":1133.5950000211596,"Accuracy":1,"Outcome":"-1","Keys":[2634.3099999940023],"TotalKeys":1,"Block":1,"Trial":9,"Robot":3,"Valence":"Lose","Action":"Go","Sham":0,"Color":"blue","trial_type":"pit-trial","trial_index":22,"time_elapsed":255634,"internal_node_id":"0.0-11.0","task_version":"test-retest"},{"Rune":"rune_01_ger","Hex":"#3366ff99","Correct":-1,"Choice":32,"RT":1173.1650000438094,"Accuracy":0,"Outcome":"-10","Keys":[2673.4700000379235],"TotalKeys":1,"Block":1,"Trial":10,"Robot":4,"Valence":"Lose","Action":"No-Go","Sham":0,"Color":"blue","trial_type":"pit-trial","trial_index":23,"time_elapsed":259313,"internal_node_id":"0.0-12.0","task_version":"test-retest"},{"Rune":"rune_01_yr","Hex":"#ffcc3399","Correct":-1,"Choice":32,"RT":1274.2749999742955,"Accuracy":0,"Outcome":"+1","Keys":[2774.6449999976903],"TotalKeys":1,"Block":1,"Trial":11,"Robot":2,"Valence":"Win","Action":"No-Go","Sham":0,"Color":"yellow","trial_type":"pit-trial","trial_index":24,"time_elapsed":263098,"internal_node_id":"0.0-13.0","task_version":"test-retest"},{"Rune":"rune_01_ingwaz","Hex":"#ffcc3399","Correct":32,"Choice":-1,"RT":-1,"Accuracy":0,"Outcome":"+1","Keys":[3029.8150000162423],"TotalKeys":1,"Block":1,"Trial":12,"Robot":1,"Valence":"Win","Action":"Go","Sham":0,"Color":"yellow","trial_type":"pit-trial","trial_index":25,"time_elapsed":267107,"internal_node_id":"0.0-14.0","task_version":"test-retest"},{"Rune":"rune_01_ger","Hex":"#3366ff99","Correct":-1,"Choice":-1,"RT":-1,"Accuracy":1,"Outcome":"-10","Keys":[3591.48499998264],"TotalKeys":1,"Block":1,"Trial":13,"Robot":4,"Valence":"Lose","Action":"No-Go","Sham":1,"Color":"blue","trial_type":"pit-trial","trial_index":26,"time_elapsed":271117,"internal_node_id":"0.0-15.0","task_version":"test-retest"},{"Rune":"rune_01_ear","Hex":"#3366ff99","Correct":32,"Choice":-1,"RT":-1,"Accuracy":0,"Outcome":"-10","Keys":[],"TotalKeys":0,"Block":1,"Trial":14,"Robot":3,"Valence":"Lose","Action":"Go","Sham":0,"Color":"blue","trial_type":"pit-trial","trial_index":27,"time_elapsed":275148,"internal_node_id":"0.0-16.0","task_version":"test-retest"},{"Rune":"rune_01_ingwaz","Hex":"#ffcc3399","Correct":32,"Choice":-1,"RT":-1,"Accuracy":0,"Outcome":"+1","Keys":[],"TotalKeys":0,"Block":1,"Trial":15,"Robot":1,"Valence":"Win","Action":"Go","Sham":0,"Color":"yellow","trial_type":"pit-trial","trial_index":28,"time_elapsed":279155,"internal_node_id":"0.0-17.0","task_version":"test-retest"},{"Rune":"rune_01_yr","Hex":"#ffcc3399","Correct":-1,"Choice":32,"RT":991.6400000220165,"Accuracy":0,"Outcome":"+1","Keys":[2492.8450000006706],"TotalKeys":1,"Block":1,"Trial":16,"Robot":2,"Valence":"Win","Action":"No-Go","Sham":0,"Color":"yellow","trial_type":"pit-trial","trial_index":29,"time_elapsed":282660,"internal_node_id":"0.0-18.0","task_version":"test-retest"},{"Rune":"rune_01_ear","Hex":"#3366ff99","Correct":32,"Choice":32,"RT":1042.0500000473112,"Accuracy":1,"Outcome":"-10","Keys":[2543.044999940321],"TotalKeys":1,"Block":1,"Trial":17,"Robot":3,"Valence":"Lose","Action":"Go","Sham":1,"Color":"blue","trial_type":"pit-trial","trial_index":30,"time_elapsed":286208,"internal_node_id":"0.0-19.0","task_version":"test-retest"},{"Rune":"rune_01_yr","Hex":"#ffcc3399","Correct":-1,"Choice":32,"RT":919.1349999746308,"Accuracy":0,"Outcome":"+1","Keys":[2420.3299999935552],"TotalKeys":1,"Block":1,"Trial":18,"Robot":2,"Valence":"Win","Action":"No-Go","Sham":0,"Color":"yellow","trial_type":"pit-trial","trial_index":31,"time_elapsed":289634,"internal_node_id":"0.0-20.0","task_version":"test-retest"},{"Rune":"rune_01_ger","Hex":"#3366ff99","Correct":-1,"Choice":32,"RT":1095.7449999405071,"Accuracy":0,"Outcome":"-10","Keys":[2596.900000004098],"TotalKeys":1,"Block":1,"Trial":19,"Robot":4,"Valence":"Lose","Action":"No-Go","Sham":0,"Color":"blue","trial_type":"pit-trial","trial_index":32,"time_elapsed":293238,"internal_node_id":"0.0-21.0","task_version":"test-retest"},{"Rune":"rune_01_ingwaz","Hex":"#ffcc3399","Correct":32,"Choice":32,"RT":1028.9300000295043,"Accuracy":1,"Outcome":"+1","Keys":[2530.875000054948],"TotalKeys":1,"Block":1,"Trial":20,"Robot":1,"Valence":"Win","Action":"Go","Sham":1,"Color":"yellow","trial_type":"pit-trial","trial_index":33,"time_elapsed":296775,"internal_node_id":"0.0-22.0","task_version":"test-retest"},{"Rune":"rune_01_ingwaz","Hex":"#ffcc3399","Correct":32,"Choice":-1,"RT":-1,"Accuracy":0,"Outcome":"+1","Keys":[],"TotalKeys":0,"Block":1,"Trial":21,"Robot":1,"Valence":"Win","Action":"Go","Sham":0,"Color":"yellow","trial_type":"pit-trial","trial_index":34,"time_elapsed":300784,"internal_node_id":"0.0-23.0","task_version":"test-retest"},{"Rune":"rune_01_yr","Hex":"#ffcc3399","Correct":-1,"Choice":-1,"RT":-1,"Accuracy":1,"Outcome":"+10","Keys":[3199.6749999234453],"TotalKeys":1,"Block":1,"Trial":22,"Robot":2,"Valence":"Win","Action":"No-Go","Sham":0,"Color":"yellow","trial_type":"pit-trial","trial_index":35,"time_elapsed":304797,"internal_node_id":"0.0-24.0","task_version":"test-retest"},{"Rune":"rune_01_ear","Hex":"#3366ff99","Correct":32,"Choice":-1,"RT":-1,"Accuracy":0,"Outcome":"-10","Keys":[3211.9900000980124],"TotalKeys":1,"Block":1,"Trial":23,"Robot":3,"Valence":"Lose","Action":"Go","Sham":0,"Color":"blue","trial_type":"pit-trial","trial_index":36,"time_elapsed":308803,"internal_node_id":"0.0-25.0","task_version":"test-retest"},{"Rune":"rune_01_ger","Hex":"#3366ff99","Correct":-1,"Choice":-1,"RT":-1,"Accuracy":1,"Outcome":"-1","Keys":[],"TotalKeys":0,"Block":1,"Trial":24,"Robot":4,"Valence":"Lose","Action":"No-Go","Sham":0,"Color":"blue","trial_type":"pit-trial","trial_index":37,"time_elapsed":312808,"internal_node_id":"0.0-26.0","task_version":"test-retest"},{"Rune":"rune_01_ear","Hex":"#3366ff99","Correct":32,"Choice":-1,"RT":-1,"Accuracy":0,"Outcome":"-10","Keys":[],"TotalKeys":0,"Block":1,"Trial":25,"Robot":3,"Valence":"Lose","Action":"Go","Sham":0,"Color":"blue","trial_type":"pit-trial","trial_index":38,"time_elapsed":316813,"internal_node_id":"0.0-27.0","task_version":"test-retest"},{"Rune":"rune_01_ger","Hex":"#3366ff99","Correct":-1,"Choice":32,"RT":1475.1649999525398,"Accuracy":0,"Outcome":"-1","Keys":[2976.3850000454113],"TotalKeys":1,"Block":1,"Trial":26,"Robot":4,"Valence":"Lose","Action":"No-Go","Sham":1,"Color":"blue","trial_type":"pit-trial","trial_index":39,"time_elapsed":320795,"internal_node_id":"0.0-28.0","task_version":"test-retest"},{"Rune":"rune_01_ingwaz","Hex":"#ffcc3399","Correct":32,"Choice":-1,"RT":-1,"Accuracy":0,"Outcome":"+1","Keys":[],"TotalKeys":0,"Block":1,"Trial":27,"Robot":1,"Valence":"Win","Action":"Go","Sham":0,"Color":"yellow","trial_type":"pit-trial","trial_index":40,"time_elapsed":324802,"internal_node_id":"0.0-29.0","task_version":"test-retest"},{"Rune":"rune_01_yr","Hex":"#ffcc3399","Correct":-1,"Choice":32,"RT":1036.2700000405312,"Accuracy":0,"Outcome":"+1","Keys":[2536.835000035353],"TotalKeys":1,"Block":1,"Trial":28,"Robot":2,"Valence":"Win","Action":"No-Go","Sham":0,"Color":"yellow","trial_type":"pit-trial","trial_index":41,"time_elapsed":328343,"internal_node_id":"0.0-30.0","task_version":"test-retest"},{"Rune":"rune_01_ingwaz","Hex":"#ffcc3399","Correct":32,"Choice":-1,"RT":-1,"Accuracy":0,"Outcome":"+10","Keys":[3476.189999957569],"TotalKeys":1,"Block":1,"Trial":29,"Robot":1,"Valence":"Win","Action":"Go","Sham":1,"Color":"yellow","trial_type":"pit-trial","trial_index":42,"time_elapsed":332361,"internal_node_id":"0.0-31.0","task_version":"test-retest"},{"Rune":"rune_01_yr","Hex":"#ffcc3399","Correct":-1,"Choice":-1,"RT":-1,"Accuracy":1,"Outcome":"+10","Keys":[],"TotalKeys":0,"Block":1,"Trial":30,"Robot":2,"Valence":"Win","Action":"No-Go","Sham":0,"Color":"yellow","trial_type":"pit-trial","trial_index":43,"time_elapsed":336369,"internal_node_id":"0.0-32.0","task_version":"test-retest"},{"Rune":"rune_01_ear","Hex":"#3366ff99","Correct":32,"Choice":-1,"RT":-1,"Accuracy":0,"Outcome":"-10","Keys":[],"TotalKeys":0,"Block":1,"Trial":31,"Robot":3,"Valence":"Lose","Action":"Go","Sham":0,"Color":"blue","trial_type":"pit-trial","trial_index":44,"time_elapsed":340378,"internal_node_id":"0.0-33.0","task_version":"test-retest"},{"Rune":"rune_01_ger","Hex":"#3366ff99","Correct":-1,"Choice":32,"RT":961.5950000006706,"Accuracy":0,"Outcome":"-10","Keys":[2462.3950000386685],"TotalKeys":1,"Block":1,"Trial":32,"Robot":4,"Valence":"Lose","Action":"No-Go","Sham":0,"Color":"blue","trial_type":"pit-trial","trial_index":45,"time_elapsed":343850,"internal_node_id":"0.0-34.0","task_version":"test-retest"},{"Rune":"rune_01_ger","Hex":"#3366ff99","Correct":-1,"Choice":-1,"RT":-1,"Accuracy":1,"Outcome":"-1","Keys":[],"TotalKeys":0,"Block":1,"Trial":33,"Robot":4,"Valence":"Lose","Action":"No-Go","Sham":0,"Color":"blue","trial_type":"pit-trial","trial_index":46,"time_elapsed":347862,"internal_node_id":"0.0-35.0","task_version":"test-retest"},{"Rune":"rune_01_ingwaz","Hex":"#ffcc3399","Correct":32,"Choice":32,"RT":1107.179999933578,"Accuracy":1,"Outcome":"+10","Keys":[2608.460000017658],"TotalKeys":1,"Block":1,"Trial":34,"Robot":1,"Valence":"Win","Action":"Go","Sham":0,"Color":"yellow","trial_type":"pit-trial","trial_index":47,"time_elapsed":351476,"internal_node_id":"0.0-36.0","task_version":"test-retest"},{"Rune":"rune_01_ear","Hex":"#3366ff99","Correct":32,"Choice":-1,"RT":-1,"Accuracy":0,"Outcome":"-10","Keys":[],"TotalKeys":0,"Block":1,"Trial":35,"Robot":3,"Valence":"Lose","Action":"Go","Sham":0,"Color":"blue","trial_type":"pit-trial","trial_index":48,"time_elapsed":355485,"internal_node_id":"0.0-37.0","task_version":"test-retest"},{"Rune":"rune_01_yr","Hex":"#ffcc3399","Correct":-1,"Choice":-1,"RT":-1,"Accuracy":1,"Outcome":"+10","Keys":[],"TotalKeys":0,"Block":1,"Trial":36,"Robot":2,"Valence":"Win","Action":"No-Go","Sham":0,"Color":"yellow","trial_type":"pit-trial","trial_index":49,"time_elapsed":359497,"internal_node_id":"0.0-38.0","task_version":"test-retest"},{"Rune":"rune_01_ear","Hex":"#3366ff99","Correct":32,"Choice":-1,"RT":-1,"Accuracy":0,"Outcome":"-1","Keys":[],"TotalKeys":0,"Block":1,"Trial":37,"Robot":3,"Valence":"Lose","Action":"Go","Sham":1,"Color":"blue","trial_type":"pit-trial","trial_index":50,"time_elapsed":363510,"internal_node_id":"0.0-39.0","task_version":"test-retest"},{"Rune":"rune_01_yr","Hex":"#ffcc3399","Correct":-1,"Choice":-1,"RT":-1,"Accuracy":1,"Outcome":"+1","Keys":[382.3850000044331],"TotalKeys":1,"Block":1,"Trial":38,"Robot":2,"Valence":"Win","Action":"No-Go","Sham":1,"Color":"yellow","trial_type":"pit-trial","trial_index":51,"time_elapsed":367517,"internal_node_id":"0.0-40.0","task_version":"test-retest"},{"Rune":"rune_01_ger","Hex":"#3366ff99","Correct":-1,"Choice":-1,"RT":-1,"Accuracy":1,"Outcome":"-1","Keys":[],"TotalKeys":0,"Block":1,"Trial":39,"Robot":4,"Valence":"Lose","Action":"No-Go","Sham":0,"Color":"blue","trial_type":"pit-trial","trial_index":52,"time_elapsed":371554,"internal_node_id":"0.0-41.0","task_version":"test-retest"},{"Rune":"rune_01_ingwaz","Hex":"#ffcc3399","Correct":32,"Choice":-1,"RT":-1,"Accuracy":0,"Outcome":"+1","Keys":[],"TotalKeys":0,"Block":1,"Trial":40,"Robot":1,"Valence":"Win","Action":"Go","Sham":0,"Color":"yellow","trial_type":"pit-trial","trial_index":53,"time_elapsed":375566,"internal_node_id":"0.0-42.0","task_version":"test-retest"},{"Rune":"rune_01_yr","Hex":"#ffcc3399","Correct":-1,"Choice":-1,"RT":-1,"Accuracy":1,"Outcome":"+1","Keys":[],"TotalKeys":0,"Block":1,"Trial":41,"Robot":2,"Valence":"Win","Action":"No-Go","Sham":1,"Color":"yellow","trial_type":"pit-trial","trial_index":54,"time_elapsed":379574,"internal_node_id":"0.0-43.0","task_version":"test-retest"},{"Rune":"rune_01_ear","Hex":"#3366ff99","Correct":32,"Choice":-1,"RT":-1,"Accuracy":0,"Outcome":"-10","Keys":[],"TotalKeys":0,"Block":1,"Trial":42,"Robot":3,"Valence":"Lose","Action":"Go","Sham":0,"Color":"blue","trial_type":"pit-trial","trial_index":55,"time_elapsed":383582,"internal_node_id":"0.0-44.0","task_version":"test-retest"},{"Rune":"rune_01_ingwaz","Hex":"#ffcc3399","Correct":32,"Choice":-1,"RT":-1,"Accuracy":0,"Outcome":"+10","Keys":[3139.3050000770018],"TotalKeys":1,"Block":1,"Trial":43,"Robot":1,"Valence":"Win","Action":"Go","Sham":1,"Color":"yellow","trial_type":"pit-trial","trial_index":56,"time_elapsed":387589,"internal_node_id":"0.0-45.0","task_version":"test-retest"},{"Rune":"rune_01_ger","Hex":"#3366ff99","Correct":-1,"Choice":32,"RT":1315.4349999967963,"Accuracy":0,"Outcome":"-1","Keys":[2816.804999951273],"TotalKeys":1,"Block":1,"Trial":44,"Robot":4,"Valence":"Lose","Action":"No-Go","Sham":1,"Color":"blue","trial_type":"pit-trial","trial_index":57,"time_elapsed":391413,"internal_node_id":"0.0-46.0","task_version":"test-retest"},{"Rune":"rune_01_ingwaz","Hex":"#ffcc3399","Correct":32,"Choice":32,"RT":1497.4350000265986,"Accuracy":1,"Outcome":"+10","Keys":[2998.4000000404194],"TotalKeys":1,"Block":1,"Trial":45,"Robot":1,"Valence":"Win","Action":"Go","Sham":0,"Color":"yellow","trial_type":"pit-trial","trial_index":58,"time_elapsed":395416,"internal_node_id":"0.0-47.0","task_version":"test-retest"},{"Rune":"rune_01_ear","Hex":"#3366ff99","Correct":32,"Choice":32,"RT":1155.5350000271574,"Accuracy":1,"Outcome":"-10","Keys":[2659.709999919869],"TotalKeys":1,"Block":1,"Trial":46,"Robot":3,"Valence":"Lose","Action":"Go","Sham":1,"Color":"blue","trial_type":"pit-trial","trial_index":59,"time_elapsed":399081,"internal_node_id":"0.0-48.0","task_version":"test-retest"},{"Rune":"rune_01_yr","Hex":"#ffcc3399","Correct":-1,"Choice":-1,"RT":-1,"Accuracy":1,"Outcome":"+10","Keys":[],"TotalKeys":0,"Block":1,"Trial":47,"Robot":2,"Valence":"Win","Action":"No-Go","Sham":0,"Color":"yellow","trial_type":"pit-trial","trial_index":60,"time_elapsed":403089,"internal_node_id":"0.0-49.0","task_version":"test-retest"},{"Rune":"rune_01_ger","Hex":"#3366ff99","Correct":-1,"Choice":32,"RT":909.940000041388,"Accuracy":0,"Outcome":"-10","Keys":[197.3299999954179,2415.6750000547618],"TotalKeys":2,"Block":1,"Trial":48,"Robot":4,"Valence":"Lose","Action":"No-Go","Sham":0,"Color":"blue","trial_type":"pit-trial","trial_index":61,"time_elapsed":406514,"internal_node_id":"0.0-50.0","task_version":"test-retest"},{"Rune":"rune_01_ingwaz","Hex":"#ffcc3399","Correct":32,"Choice":32,"RT":1048.975000041537,"Accuracy":1,"Outcome":"+10","Keys":[2549.170000012964],"TotalKeys":1,"Block":1,"Trial":49,"Robot":1,"Valence":"Win","Action":"Go","Sham":0,"Color":"yellow","trial_type":"pit-trial","trial_index":62,"time_elapsed":410097,"internal_node_id":"0.0-51.0","task_version":"test-retest"},{"Rune":"rune_01_ear","Hex":"#3366ff99","Correct":32,"Choice":-1,"RT":-1,"Accuracy":0,"Outcome":"-10","Keys":[],"TotalKeys":0,"Block":1,"Trial":50,"Robot":3,"Valence":"Lose","Action":"Go","Sham":0,"Color":"blue","trial_type":"pit-trial","trial_index":63,"time_elapsed":414105,"internal_node_id":"0.0-52.0","task_version":"test-retest"},{"Rune":"rune_01_yr","Hex":"#ffcc3399","Correct":-1,"Choice":32,"RT":983.6900000227615,"Accuracy":0,"Outcome":"+1","Keys":[2485.5299999471754],"TotalKeys":1,"Block":1,"Trial":51,"Robot":2,"Valence":"Win","Action":"No-Go","Sham":0,"Color":"yellow","trial_type":"pit-trial","trial_index":64,"time_elapsed":417596,"internal_node_id":"0.0-53.0","task_version":"test-retest"},{"Rune":"rune_01_ger","Hex":"#3366ff99","Correct":-1,"Choice":-1,"RT":-1,"Accuracy":1,"Outcome":"-1","Keys":[3079.6250000130385],"TotalKeys":1,"Block":1,"Trial":52,"Robot":4,"Valence":"Lose","Action":"No-Go","Sham":0,"Color":"blue","trial_type":"pit-trial","trial_index":65,"time_elapsed":421605,"internal_node_id":"0.0-54.0","task_version":"test-retest"},{"Rune":"rune_01_ger","Hex":"#3366ff99","Correct":-1,"Choice":-1,"RT":-1,"Accuracy":1,"Outcome":"-1","Keys":[],"TotalKeys":0,"Block":1,"Trial":53,"Robot":4,"Valence":"Lose","Action":"No-Go","Sham":0,"Color":"blue","trial_type":"pit-trial","trial_index":66,"time_elapsed":425612,"internal_node_id":"0.0-55.0","task_version":"test-retest"},{"Rune":"rune_01_yr","Hex":"#ffcc3399","Correct":-1,"Choice":32,"RT":1122.4499999079853,"Accuracy":0,"Outcome":"+1","Keys":[2623.4899999108166],"TotalKeys":1,"Block":1,"Trial":54,"Robot":2,"Valence":"Win","Action":"No-Go","Sham":0,"Color":"yellow","trial_type":"pit-trial","trial_index":67,"time_elapsed":429241,"internal_node_id":"0.0-56.0","task_version":"test-retest"},{"Rune":"rune_01_ear","Hex":"#3366ff99","Correct":32,"Choice":-1,"RT":-1,"Accuracy":0,"Outcome":"-10","Keys":[],"TotalKeys":0,"Block":1,"Trial":55,"Robot":3,"Valence":"Lose","Action":"Go","Sham":0,"Color":"blue","trial_type":"pit-trial","trial_index":68,"time_elapsed":433249,"internal_node_id":"0.0-57.0","task_version":"test-retest"},{"Rune":"rune_01_ingwaz","Hex":"#ffcc3399","Correct":32,"Choice":-1,"RT":-1,"Accuracy":0,"Outcome":"+1","Keys":[3351.7249999567866],"TotalKeys":1,"Block":1,"Trial":56,"Robot":1,"Valence":"Win","Action":"Go","Sham":0,"Color":"yellow","trial_type":"pit-trial","trial_index":69,"time_elapsed":437259,"internal_node_id":"0.0-58.0","task_version":"test-retest"},{"Rune":"rune_01_yr","Hex":"#ffcc3399","Correct":-1,"Choice":32,"RT":1025.484999991022,"Accuracy":0,"Outcome":"+1","Keys":[2526.91999997478],"TotalKeys":1,"Block":1,"Trial":57,"Robot":2,"Valence":"Win","Action":"No-Go","Sham":0,"Color":"yellow","trial_type":"pit-trial","trial_index":70,"time_elapsed":440795,"internal_node_id":"0.0-59.0","task_version":"test-retest"},{"Rune":"rune_01_ear","Hex":"#3366ff99","Correct":32,"Choice":-1,"RT":-1,"Accuracy":0,"Outcome":"-10","Keys":[],"TotalKeys":0,"Block":1,"Trial":58,"Robot":3,"Valence":"Lose","Action":"Go","Sham":0,"Color":"blue","trial_type":"pit-trial","trial_index":71,"time_elapsed":444806,"internal_node_id":"0.0-60.0","task_version":"test-retest"},{"Rune":"rune_01_ingwaz","Hex":"#ffcc3399","Correct":32,"Choice":32,"RT":568.5550000052899,"Accuracy":1,"Outcome":"+10","Keys":[2070.045000058599],"TotalKeys":1,"Block":1,"Trial":59,"Robot":1,"Valence":"Win","Action":"Go","Sham":0,"Color":"yellow","trial_type":"pit-trial","trial_index":72,"time_elapsed":447885,"internal_node_id":"0.0-61.0","task_version":"test-retest"},{"Rune":"rune_01_ger","Hex":"#3366ff99","Correct":-1,"Choice":32,"RT":1384.9949999712408,"Accuracy":0,"Outcome":"-10","Keys":[2885.8150000451133],"TotalKeys":1,"Block":1,"Trial":60,"Robot":4,"Valence":"Lose","Action":"No-Go","Sham":0,"Color":"blue","trial_type":"pit-trial","trial_index":73,"time_elapsed":451777,"internal_node_id":"0.0-62.0","task_version":"test-retest"},{"value":false,"trial_type":"call-function","trial_index":74,"time_elapsed":451782,"internal_node_id":"0.0-63.0","task_version":"test-retest"},{"view_history":"[{\"page_index\":0,\"viewing_time\":9615.489999996498},{\"page_index\":1,\"viewing_time\":5494.735000072978}]","rt":15111.785000073723,"trial_type":"pit-instructions","trial_index":75,"time_elapsed":466896,"internal_node_id":"0.0-64.0","task_version":"test-retest"},{"Rune":"rune_01_yr","Hex":"#ffcc3399","Correct":-1,"Choice":-1,"RT":-1,"Accuracy":1,"Outcome":"+10","Keys":[],"TotalKeys":0,"Block":1,"Trial":61,"Robot":2,"Valence":"Win","Action":"No-Go","Sham":0,"Color":"yellow","trial_type":"pit-trial","trial_index":76,"time_elapsed":470907,"internal_node_id":"0.0-65.0","task_version":"test-retest"},{"Rune":"rune_01_ger","Hex":"#3366ff99","Correct":-1,"Choice":-1,"RT":-1,"Accuracy":1,"Outcome":"-1","Keys":[],"TotalKeys":0,"Block":1,"Trial":62,"Robot":4,"Valence":"Lose","Action":"No-Go","Sham":0,"Color":"blue","trial_type":"pit-trial","trial_index":77,"time_elapsed":474915,"internal_node_id":"0.0-66.0","task_version":"test-retest"},{"Rune":"rune_01_ear","Hex":"#3366ff99","Correct":32,"Choice":-1,"RT":-1,"Accuracy":0,"Outcome":"-10","Keys":[],"TotalKeys":0,"Block":1,"Trial":63,"Robot":3,"Valence":"Lose","Action":"Go","Sham":0,"Color":"blue","trial_type":"pit-trial","trial_index":78,"time_elapsed":478924,"internal_node_id":"0.0-67.0","task_version":"test-retest"},{"Rune":"rune_01_ingwaz","Hex":"#ffcc3399","Correct":32,"Choice":32,"RT":948.7900000531226,"Accuracy":1,"Outcome":"+10","Keys":[2449.544999981299],"TotalKeys":1,"Block":1,"Trial":64,"Robot":1,"Valence":"Win","Action":"Go","Sham":0,"Color":"yellow","trial_type":"pit-trial","trial_index":79,"time_elapsed":482435,"internal_node_id":"0.0-68.0","task_version":"test-retest"},{"Rune":"rune_01_ear","Hex":"#3366ff99","Correct":32,"Choice":32,"RT":849.104999913834,"Accuracy":1,"Outcome":"-1","Keys":[2385.4300000239164],"TotalKeys":1,"Block":1,"Trial":65,"Robot":3,"Valence":"Lose","Action":"Go","Sham":0,"Color":"blue","trial_type":"pit-trial","trial_index":80,"time_elapsed":485827,"internal_node_id":"0.0-69.0","task_version":"test-retest"},{"Rune":"rune_01_ingwaz","Hex":"#ffcc3399","Correct":32,"Choice":32,"RT":763.8799999840558,"Accuracy":1,"Outcome":"+10","Keys":[2263.884999905713],"TotalKeys":1,"Block":1,"Trial":66,"Robot":1,"Valence":"Win","Action":"Go","Sham":0,"Color":"yellow","trial_type":"pit-trial","trial_index":81,"time_elapsed":489097,"internal_node_id":"0.0-70.0","task_version":"test-retest"},{"Rune":"rune_01_ger","Hex":"#3366ff99","Correct":-1,"Choice":-1,"RT":-1,"Accuracy":1,"Outcome":"-1","Keys":[],"TotalKeys":0,"Block":1,"Trial":67,"Robot":4,"Valence":"Lose","Action":"No-Go","Sham":0,"Color":"blue","trial_type":"pit-trial","trial_index":82,"time_elapsed":493106,"internal_node_id":"0.0-71.0","task_version":"test-retest"},{"Rune":"rune_01_yr","Hex":"#ffcc3399","Correct":-1,"Choice":-1,"RT":-1,"Accuracy":1,"Outcome":"+1","Keys":[],"TotalKeys":0,"Block":1,"Trial":68,"Robot":2,"Valence":"Win","Action":"No-Go","Sham":1,"Color":"yellow","trial_type":"pit-trial","trial_index":83,"time_elapsed":497116,"internal_node_id":"0.0-72.0","task_version":"test-retest"},{"Rune":"rune_01_ear","Hex":"#3366ff99","Correct":32,"Choice":-1,"RT":-1,"Accuracy":0,"Outcome":"-10","Keys":[3176.7699999036267],"TotalKeys":1,"Block":1,"Trial":69,"Robot":3,"Valence":"Lose","Action":"Go","Sham":0,"Color":"blue","trial_type":"pit-trial","trial_index":84,"time_elapsed":501128,"internal_node_id":"0.0-73.0","task_version":"test-retest"},{"Rune":"rune_01_yr","Hex":"#ffcc3399","Correct":-1,"Choice":32,"RT":1019.5999999996275,"Accuracy":0,"Outcome":"+1","Keys":[2522.735000005923],"TotalKeys":1,"Block":1,"Trial":70,"Robot":2,"Valence":"Win","Action":"No-Go","Sham":0,"Color":"yellow","trial_type":"pit-trial","trial_index":85,"time_elapsed":504658,"internal_node_id":"0.0-74.0","task_version":"test-retest"},{"Rune":"rune_01_ger","Hex":"#3366ff99","Correct":-1,"Choice":-1,"RT":-1,"Accuracy":1,"Outcome":"-10","Keys":[],"TotalKeys":0,"Block":1,"Trial":71,"Robot":4,"Valence":"Lose","Action":"No-Go","Sham":1,"Color":"blue","trial_type":"pit-trial","trial_index":86,"time_elapsed":508664,"internal_node_id":"0.0-75.0","task_version":"test-retest"},{"Rune":"rune_01_ingwaz","Hex":"#ffcc3399","Correct":32,"Choice":32,"RT":918.4550000354648,"Accuracy":1,"Outcome":"+10","Keys":[2419.1450000507757],"TotalKeys":1,"Block":1,"Trial":72,"Robot":1,"Valence":"Win","Action":"Go","Sham":0,"Color":"yellow","trial_type":"pit-trial","trial_index":87,"time_elapsed":512089,"internal_node_id":"0.0-76.0","task_version":"test-retest"},{"Rune":"rune_01_ear","Hex":"#3366ff99","Correct":32,"Choice":-1,"RT":-1,"Accuracy":0,"Outcome":"-10","Keys":[],"TotalKeys":0,"Block":1,"Trial":73,"Robot":3,"Valence":"Lose","Action":"Go","Sham":0,"Color":"blue","trial_type":"pit-trial","trial_index":88,"time_elapsed":516097,"internal_node_id":"0.0-77.0","task_version":"test-retest"},{"Rune":"rune_01_yr","Hex":"#ffcc3399","Correct":-1,"Choice":32,"RT":921.5199999744073,"Accuracy":0,"Outcome":"+1","Keys":[2429.770000046119],"TotalKeys":1,"Block":1,"Trial":74,"Robot":2,"Valence":"Win","Action":"No-Go","Sham":0,"Color":"yellow","trial_type":"pit-trial","trial_index":89,"time_elapsed":519533,"internal_node_id":"0.0-78.0","task_version":"test-retest"},{"Rune":"rune_01_ger","Hex":"#3366ff99","Correct":-1,"Choice":-1,"RT":-1,"Accuracy":1,"Outcome":"-1","Keys":[],"TotalKeys":0,"Block":1,"Trial":75,"Robot":4,"Valence":"Lose","Action":"No-Go","Sham":0,"Color":"blue","trial_type":"pit-trial","trial_index":90,"time_elapsed":523540,"internal_node_id":"0.0-79.0","task_version":"test-retest"},{"Rune":"rune_01_ingwaz","Hex":"#ffcc3399","Correct":32,"Choice":32,"RT":1127.6999999536201,"Accuracy":1,"Outcome":"+10","Keys":[2628.6449999315664],"TotalKeys":1,"Block":1,"Trial":76,"Robot":1,"Valence":"Win","Action":"Go","Sham":0,"Color":"yellow","trial_type":"pit-trial","trial_index":91,"time_elapsed":527175,"internal_node_id":"0.0-80.0","task_version":"test-retest"},{"Rune":"rune_01_yr","Hex":"#ffcc3399","Correct":-1,"Choice":-1,"RT":-1,"Accuracy":1,"Outcome":"+10","Keys":[],"TotalKeys":0,"Block":1,"Trial":77,"Robot":2,"Valence":"Win","Action":"No-Go","Sham":0,"Color":"yellow","trial_type":"pit-trial","trial_index":92,"time_elapsed":531181,"internal_node_id":"0.0-81.0","task_version":"test-retest"},{"Rune":"rune_01_ingwaz","Hex":"#ffcc3399","Correct":32,"Choice":32,"RT":1407.0650000358,"Accuracy":1,"Outcome":"+1","Keys":[2934.775000088848],"TotalKeys":1,"Block":1,"Trial":78,"Robot":1,"Valence":"Win","Action":"Go","Sham":1,"Color":"yellow","trial_type":"pit-trial","trial_index":93,"time_elapsed":535185,"internal_node_id":"0.0-82.0","task_version":"test-retest"},{"Rune":"rune_01_ger","Hex":"#3366ff99","Correct":-1,"Choice":-1,"RT":-1,"Accuracy":1,"Outcome":"-1","Keys":[],"TotalKeys":0,"Block":1,"Trial":79,"Robot":4,"Valence":"Lose","Action":"No-Go","Sham":0,"Color":"blue","trial_type":"pit-trial","trial_index":94,"time_elapsed":539313,"internal_node_id":"0.0-83.0","task_version":"test-retest"},{"Rune":"rune_01_ear","Hex":"#3366ff99","Correct":32,"Choice":-1,"RT":-1,"Accuracy":0,"Outcome":"-1","Keys":[],"TotalKeys":0,"Block":1,"Trial":80,"Robot":3,"Valence":"Lose","Action":"Go","Sham":1,"Color":"blue","trial_type":"pit-trial","trial_index":95,"time_elapsed":543326,"internal_node_id":"0.0-84.0","task_version":"test-retest"},{"Rune":"rune_01_ingwaz","Hex":"#ffcc3399","Correct":32,"Choice":32,"RT":1162.8349999664351,"Accuracy":1,"Outcome":"+10","Keys":[2664.18999992311],"TotalKeys":1,"Block":1,"Trial":81,"Robot":1,"Valence":"Win","Action":"Go","Sham":0,"Color":"yellow","trial_type":"pit-trial","trial_index":96,"time_elapsed":546997,"internal_node_id":"0.0-85.0","task_version":"test-retest"},{"Rune":"rune_01_yr","Hex":"#ffcc3399","Correct":-1,"Choice":-1,"RT":-1,"Accuracy":1,"Outcome":"+10","Keys":[],"TotalKeys":0,"Block":1,"Trial":82,"Robot":2,"Valence":"Win","Action":"No-Go","Sham":0,"Color":"yellow","trial_type":"pit-trial","trial_index":97,"time_elapsed":551004,"internal_node_id":"0.0-86.0","task_version":"test-retest"},{"Rune":"rune_01_ger","Hex":"#3366ff99","Correct":-1,"Choice":-1,"RT":-1,"Accuracy":1,"Outcome":"-10","Keys":[],"TotalKeys":0,"Block":1,"Trial":83,"Robot":4,"Valence":"Lose","Action":"No-Go","Sham":1,"Color":"blue","trial_type":"pit-trial","trial_index":98,"time_elapsed":555012,"internal_node_id":"0.0-87.0","task_version":"test-retest"},{"Rune":"rune_01_ear","Hex":"#3366ff99","Correct":32,"Choice":32,"RT":1310.3750000009313,"Accuracy":1,"Outcome":"-1","Keys":[2810.7549999840558],"TotalKeys":1,"Block":1,"Trial":84,"Robot":3,"Valence":"Lose","Action":"Go","Sham":0,"Color":"blue","trial_type":"pit-trial","trial_index":99,"time_elapsed":558831,"internal_node_id":"0.0-88.0","task_version":"test-retest"},{"Rune":"rune_01_ingwaz","Hex":"#ffcc3399","Correct":32,"Choice":-1,"RT":-1,"Accuracy":0,"Outcome":"+1","Keys":[3176.410000072792],"TotalKeys":1,"Block":1,"Trial":85,"Robot":1,"Valence":"Win","Action":"Go","Sham":0,"Color":"yellow","trial_type":"pit-trial","trial_index":100,"time_elapsed":562843,"internal_node_id":"0.0-89.0","task_version":"test-retest"},{"Rune":"rune_01_yr","Hex":"#ffcc3399","Correct":-1,"Choice":-1,"RT":-1,"Accuracy":1,"Outcome":"+1","Keys":[],"TotalKeys":0,"Block":1,"Trial":86,"Robot":2,"Valence":"Win","Action":"No-Go","Sham":1,"Color":"yellow","trial_type":"pit-trial","trial_index":101,"time_elapsed":566857,"internal_node_id":"0.0-90.0","task_version":"test-retest"},{"Rune":"rune_01_ger","Hex":"#3366ff99","Correct":-1,"Choice":32,"RT":1167.6200000802055,"Accuracy":0,"Outcome":"-10","Keys":[2668.165000039153],"TotalKeys":1,"Block":1,"Trial":87,"Robot":4,"Valence":"Lose","Action":"No-Go","Sham":0,"Color":"blue","trial_type":"pit-trial","trial_index":102,"time_elapsed":570534,"internal_node_id":"0.0-91.0","task_version":"test-retest"},{"Rune":"rune_01_ear","Hex":"#3366ff99","Correct":32,"Choice":-1,"RT":-1,"Accuracy":0,"Outcome":"-10","Keys":[],"TotalKeys":0,"Block":1,"Trial":88,"Robot":3,"Valence":"Lose","Action":"Go","Sham":0,"Color":"blue","trial_type":"pit-trial","trial_index":103,"time_elapsed":574541,"internal_node_id":"0.0-92.0","task_version":"test-retest"},{"Rune":"rune_01_ear","Hex":"#3366ff99","Correct":32,"Choice":-1,"RT":-1,"Accuracy":0,"Outcome":"-1","Keys":[3443.4500000206754],"TotalKeys":1,"Block":1,"Trial":89,"Robot":3,"Valence":"Lose","Action":"Go","Sham":1,"Color":"blue","trial_type":"pit-trial","trial_index":104,"time_elapsed":578547,"internal_node_id":"0.0-93.0","task_version":"test-retest"},{"Rune":"rune_01_ger","Hex":"#3366ff99","Correct":-1,"Choice":-1,"RT":-1,"Accuracy":1,"Outcome":"-1","Keys":[],"TotalKeys":0,"Block":1,"Trial":90,"Robot":4,"Valence":"Lose","Action":"No-Go","Sham":0,"Color":"blue","trial_type":"pit-trial","trial_index":105,"time_elapsed":582555,"internal_node_id":"0.0-94.0","task_version":"test-retest"},{"Rune":"rune_01_yr","Hex":"#ffcc3399","Correct":-1,"Choice":32,"RT":1123.2900000177324,"Accuracy":0,"Outcome":"+1","Keys":[2624.279999989085],"TotalKeys":1,"Block":1,"Trial":91,"Robot":2,"Valence":"Win","Action":"No-Go","Sham":0,"Color":"yellow","trial_type":"pit-trial","trial_index":106,"time_elapsed":586185,"internal_node_id":"0.0-95.0","task_version":"test-retest"},{"Rune":"rune_01_ingwaz","Hex":"#ffcc3399","Correct":32,"Choice":32,"RT":1112.900000065565,"Accuracy":1,"Outcome":"+1","Keys":[2614.949999959208],"TotalKeys":1,"Block":1,"Trial":92,"Robot":1,"Valence":"Win","Action":"Go","Sham":1,"Color":"yellow","trial_type":"pit-trial","trial_index":107,"time_elapsed":589804,"internal_node_id":"0.0-96.0","task_version":"test-retest"},{"Rune":"rune_01_ger","Hex":"#3366ff99","Correct":-1,"Choice":32,"RT":700.819999910891,"Accuracy":0,"Outcome":"-10","Keys":[2201.3899999437854],"TotalKeys":1,"Block":1,"Trial":93,"Robot":4,"Valence":"Lose","Action":"No-Go","Sham":0,"Color":"blue","trial_type":"pit-trial","trial_index":108,"time_elapsed":593014,"internal_node_id":"0.0-97.0","task_version":"test-retest"},{"Rune":"rune_01_ingwaz","Hex":"#ffcc3399","Correct":32,"Choice":32,"RT":1050.6899999454618,"Accuracy":1,"Outcome":"+10","Keys":[2551.2750000925735],"TotalKeys":1,"Block":1,"Trial":94,"Robot":1,"Valence":"Win","Action":"Go","Sham":0,"Color":"yellow","trial_type":"pit-trial","trial_index":109,"time_elapsed":596572,"internal_node_id":"0.0-98.0","task_version":"test-retest"},{"Rune":"rune_01_ear","Hex":"#3366ff99","Correct":32,"Choice":-1,"RT":-1,"Accuracy":0,"Outcome":"-10","Keys":[],"TotalKeys":0,"Block":1,"Trial":95,"Robot":3,"Valence":"Lose","Action":"Go","Sham":0,"Color":"blue","trial_type":"pit-trial","trial_index":110,"time_elapsed":600581,"internal_node_id":"0.0-99.0","task_version":"test-retest"},{"Rune":"rune_01_yr","Hex":"#ffcc3399","Correct":-1,"Choice":32,"RT":830.599999986589,"Accuracy":0,"Outcome":"+1","Keys":[2378.9249999681488],"TotalKeys":1,"Block":1,"Trial":96,"Robot":2,"Valence":"Win","Action":"No-Go","Sham":0,"Color":"yellow","trial_type":"pit-trial","trial_index":111,"time_elapsed":603967,"internal_node_id":"0.0-100.0","task_version":"test-retest"},{"Rune":"rune_01_ger","Hex":"#3366ff99","Correct":-1,"Choice":-1,"RT":-1,"Accuracy":1,"Outcome":"-1","Keys":[],"TotalKeys":0,"Block":1,"Trial":97,"Robot":4,"Valence":"Lose","Action":"No-Go","Sham":0,"Color":"blue","trial_type":"pit-trial","trial_index":112,"time_elapsed":607974,"internal_node_id":"0.0-101.0","task_version":"test-retest"},{"Rune":"rune_01_ear","Hex":"#3366ff99","Correct":32,"Choice":-1,"RT":-1,"Accuracy":0,"Outcome":"-10","Keys":[],"TotalKeys":0,"Block":1,"Trial":98,"Robot":3,"Valence":"Lose","Action":"Go","Sham":0,"Color":"blue","trial_type":"pit-trial","trial_index":113,"time_elapsed":612011,"internal_node_id":"0.0-102.0","task_version":"test-retest"},{"Rune":"rune_01_yr","Hex":"#ffcc3399","Correct":-1,"Choice":-1,"RT":-1,"Accuracy":1,"Outcome":"+10","Keys":[],"TotalKeys":0,"Block":1,"Trial":99,"Robot":2,"Valence":"Win","Action":"No-Go","Sham":0,"Color":"yellow","trial_type":"pit-trial","trial_index":114,"time_elapsed":616031,"internal_node_id":"0.0-103.0","task_version":"test-retest"},{"Rune":"rune_01_ingwaz","Hex":"#ffcc3399","Correct":32,"Choice":-1,"RT":-1,"Accuracy":0,"Outcome":"+1","Keys":[3427.889999933541],"TotalKeys":1,"Block":1,"Trial":100,"Robot":1,"Valence":"Win","Action":"Go","Sham":0,"Color":"yellow","trial_type":"pit-trial","trial_index":115,"time_elapsed":620037,"internal_node_id":"0.0-104.0","task_version":"test-retest"},{"Rune":"rune_01_ear","Hex":"#3366ff99","Correct":32,"Choice":-1,"RT":-1,"Accuracy":0,"Outcome":"-10","Keys":[],"TotalKeys":0,"Block":1,"Trial":101,"Robot":3,"Valence":"Lose","Action":"Go","Sham":0,"Color":"blue","trial_type":"pit-trial","trial_index":116,"time_elapsed":624043,"internal_node_id":"0.0-105.0","task_version":"test-retest"},{"Rune":"rune_01_yr","Hex":"#ffcc3399","Correct":-1,"Choice":-1,"RT":-1,"Accuracy":1,"Outcome":"+10","Keys":[],"TotalKeys":0,"Block":1,"Trial":102,"Robot":2,"Valence":"Win","Action":"No-Go","Sham":0,"Color":"yellow","trial_type":"pit-trial","trial_index":117,"time_elapsed":628055,"internal_node_id":"0.0-106.0","task_version":"test-retest"},{"Rune":"rune_01_ingwaz","Hex":"#ffcc3399","Correct":32,"Choice":-1,"RT":-1,"Accuracy":0,"Outcome":"+10","Keys":[],"TotalKeys":0,"Block":1,"Trial":103,"Robot":1,"Valence":"Win","Action":"Go","Sham":1,"Color":"yellow","trial_type":"pit-trial","trial_index":118,"time_elapsed":632062,"internal_node_id":"0.0-107.0","task_version":"test-retest"},{"Rune":"rune_01_ger","Hex":"#3366ff99","Correct":-1,"Choice":-1,"RT":-1,"Accuracy":1,"Outcome":"-1","Keys":[],"TotalKeys":0,"Block":1,"Trial":104,"Robot":4,"Valence":"Lose","Action":"No-Go","Sham":0,"Color":"blue","trial_type":"pit-trial","trial_index":119,"time_elapsed":636067,"internal_node_id":"0.0-108.0","task_version":"test-retest"},{"Rune":"rune_01_ger","Hex":"#3366ff99","Correct":-1,"Choice":-1,"RT":-1,"Accuracy":1,"Outcome":"-1","Keys":[],"TotalKeys":0,"Block":1,"Trial":105,"Robot":4,"Valence":"Lose","Action":"No-Go","Sham":0,"Color":"blue","trial_type":"pit-trial","trial_index":120,"time_elapsed":640073,"internal_node_id":"0.0-109.0","task_version":"test-retest"},{"Rune":"rune_01_ear","Hex":"#3366ff99","Correct":32,"Choice":-1,"RT":-1,"Accuracy":0,"Outcome":"-10","Keys":[],"TotalKeys":0,"Block":1,"Trial":106,"Robot":3,"Valence":"Lose","Action":"Go","Sham":0,"Color":"blue","trial_type":"pit-trial","trial_index":121,"time_elapsed":644087,"internal_node_id":"0.0-110.0","task_version":"test-retest"},{"Rune":"rune_01_yr","Hex":"#ffcc3399","Correct":-1,"Choice":-1,"RT":-1,"Accuracy":1,"Outcome":"+10","Keys":[],"TotalKeys":0,"Block":1,"Trial":107,"Robot":2,"Valence":"Win","Action":"No-Go","Sham":0,"Color":"yellow","trial_type":"pit-trial","trial_index":122,"time_elapsed":648097,"internal_node_id":"0.0-111.0","task_version":"test-retest"},{"Rune":"rune_01_ingwaz","Hex":"#ffcc3399","Correct":32,"Choice":-1,"RT":-1,"Accuracy":0,"Outcome":"+1","Keys":[],"TotalKeys":0,"Block":1,"Trial":108,"Robot":1,"Valence":"Win","Action":"Go","Sham":0,"Color":"yellow","trial_type":"pit-trial","trial_index":123,"time_elapsed":652106,"internal_node_id":"0.0-112.0","task_version":"test-retest"},{"Rune":"rune_01_ingwaz","Hex":"#ffcc3399","Correct":32,"Choice":-1,"RT":-1,"Accuracy":0,"Outcome":"+1","Keys":[],"TotalKeys":0,"Block":1,"Trial":109,"Robot":1,"Valence":"Win","Action":"Go","Sham":0,"Color":"yellow","trial_type":"pit-trial","trial_index":124,"time_elapsed":656113,"internal_node_id":"0.0-113.0","task_version":"test-retest"},{"Rune":"rune_01_yr","Hex":"#ffcc3399","Correct":-1,"Choice":-1,"RT":-1,"Accuracy":1,"Outcome":"+10","Keys":[],"TotalKeys":0,"Block":1,"Trial":110,"Robot":2,"Valence":"Win","Action":"No-Go","Sham":0,"Color":"yellow","trial_type":"pit-trial","trial_index":125,"time_elapsed":660123,"internal_node_id":"0.0-114.0","task_version":"test-retest"},{"Rune":"rune_01_ear","Hex":"#3366ff99","Correct":32,"Choice":-1,"RT":-1,"Accuracy":0,"Outcome":"-10","Keys":[],"TotalKeys":0,"Block":1,"Trial":111,"Robot":3,"Valence":"Lose","Action":"Go","Sham":0,"Color":"blue","trial_type":"pit-trial","trial_index":126,"time_elapsed":664132,"internal_node_id":"0.0-115.0","task_version":"test-retest"},{"Rune":"rune_01_ger","Hex":"#3366ff99","Correct":-1,"Choice":-1,"RT":-1,"Accuracy":1,"Outcome":"-10","Keys":[],"TotalKeys":0,"Block":1,"Trial":112,"Robot":4,"Valence":"Lose","Action":"No-Go","Sham":1,"Color":"blue","trial_type":"pit-trial","trial_index":127,"time_elapsed":668145,"internal_node_id":"0.0-116.0","task_version":"test-retest"},{"Rune":"rune_01_ingwaz","Hex":"#ffcc3399","Correct":32,"Choice":-1,"RT":-1,"Accuracy":0,"Outcome":"+1","Keys":[3357.9199999803677],"TotalKeys":1,"Block":1,"Trial":113,"Robot":1,"Valence":"Win","Action":"Go","Sham":0,"Color":"yellow","trial_type":"pit-trial","trial_index":128,"time_elapsed":672152,"internal_node_id":"0.0-117.0","task_version":"test-retest"},{"Rune":"rune_01_ger","Hex":"#3366ff99","Correct":-1,"Choice":32,"RT":1428.4899999620393,"Accuracy":0,"Outcome":"-10","Keys":[2928.7699999986216],"TotalKeys":1,"Block":1,"Trial":114,"Robot":4,"Valence":"Lose","Action":"No-Go","Sham":0,"Color":"blue","trial_type":"pit-trial","trial_index":129,"time_elapsed":676086,"internal_node_id":"0.0-118.0","task_version":"test-retest"},{"Rune":"rune_01_ear","Hex":"#3366ff99","Correct":32,"Choice":-1,"RT":-1,"Accuracy":0,"Outcome":"-1","Keys":[],"TotalKeys":0,"Block":1,"Trial":115,"Robot":3,"Valence":"Lose","Action":"Go","Sham":1,"Color":"blue","trial_type":"pit-trial","trial_index":130,"time_elapsed":680099,"internal_node_id":"0.0-119.0","task_version":"test-retest"},{"Rune":"rune_01_yr","Hex":"#ffcc3399","Correct":-1,"Choice":-1,"RT":-1,"Accuracy":1,"Outcome":"+10","Keys":[],"TotalKeys":0,"Block":1,"Trial":116,"Robot":2,"Valence":"Win","Action":"No-Go","Sham":0,"Color":"yellow","trial_type":"pit-trial","trial_index":131,"time_elapsed":684108,"internal_node_id":"0.0-120.0","task_version":"test-retest"},{"Rune":"rune_01_ingwaz","Hex":"#ffcc3399","Correct":32,"Choice":-1,"RT":-1,"Accuracy":0,"Outcome":"+1","Keys":[],"TotalKeys":0,"Block":1,"Trial":117,"Robot":1,"Valence":"Win","Action":"Go","Sham":0,"Color":"yellow","trial_type":"pit-trial","trial_index":132,"time_elapsed":688115,"internal_node_id":"0.0-121.0","task_version":"test-retest"},{"Rune":"rune_01_ear","Hex":"#3366ff99","Correct":32,"Choice":-1,"RT":-1,"Accuracy":0,"Outcome":"-10","Keys":[],"TotalKeys":0,"Block":1,"Trial":118,"Robot":3,"Valence":"Lose","Action":"Go","Sham":0,"Color":"blue","trial_type":"pit-trial","trial_index":133,"time_elapsed":692123,"internal_node_id":"0.0-122.0","task_version":"test-retest"},{"Rune":"rune_01_yr","Hex":"#ffcc3399","Correct":-1,"Choice":32,"RT":1168.3099999791011,"Accuracy":0,"Outcome":"+10","Keys":[2668.9100000075996],"TotalKeys":1,"Block":1,"Trial":119,"Robot":2,"Valence":"Win","Action":"No-Go","Sham":1,"Color":"yellow","trial_type":"pit-trial","trial_index":134,"time_elapsed":695798,"internal_node_id":"0.0-123.0","task_version":"test-retest"},{"Rune":"rune_01_ger","Hex":"#3366ff99","Correct":-1,"Choice":-1,"RT":-1,"Accuracy":1,"Outcome":"-1","Keys":[],"TotalKeys":0,"Block":1,"Trial":120,"Robot":4,"Valence":"Lose","Action":"No-Go","Sham":0,"Color":"blue","trial_type":"pit-trial","trial_index":135,"time_elapsed":699805,"internal_node_id":"0.0-124.0","task_version":"test-retest"},{"view_history":"[{\"page_index\":0,\"viewing_time\":4646.424999926239},{\"page_index\":1,\"viewing_time\":8037.375000072643},{\"page_index\":2,\"viewing_time\":4142.939999932423}]","rt":16828.244999982417,"trial_type":"pit-instructions","trial_index":136,"time_elapsed":716638,"internal_node_id":"0.0-125.0","task_version":"test-retest"},{"Rune":"rune_02_cen","Hex":"#3366ff99","Correct":32,"Choice":-1,"RT":-1,"Accuracy":0,"Outcome":"-10","Keys":[],"TotalKeys":0,"Block":2,"Trial":121,"Robot":3,"Valence":"Lose","Action":"Go","Sham":0,"Color":"blue","trial_type":"pit-trial","trial_index":137,"time_elapsed":720651,"internal_node_id":"0.0-126.0","task_version":"test-retest"},{"Rune":"rune_02_haglaz","Hex":"#ffcc3399","Correct":-1,"Choice":-1,"RT":-1,"Accuracy":1,"Outcome":"+1","Keys":[],"TotalKeys":0,"Block":2,"Trial":122,"Robot":2,"Valence":"Win","Action":"No-Go","Sham":1,"Color":"yellow","trial_type":"pit-trial","trial_index":138,"time_elapsed":724836,"internal_node_id":"0.0-127.0","task_version":"test-retest"},{"Rune":"rune_02_os","Hex":"#3366ff99","Correct":-1,"Choice":-1,"RT":-1,"Accuracy":1,"Outcome":"-1","Keys":[],"TotalKeys":0,"Block":2,"Trial":123,"Robot":4,"Valence":"Lose","Action":"No-Go","Sham":0,"Color":"blue","trial_type":"pit-trial","trial_index":139,"time_elapsed":729836,"internal_node_id":"0.0-128.0","task_version":"test-retest"},{"Rune":"rune_02_raido","Hex":"#ffcc3399","Correct":32,"Choice":-1,"RT":-1,"Accuracy":0,"Outcome":"+1","Keys":[],"TotalKeys":0,"Block":2,"Trial":124,"Robot":1,"Valence":"Win","Action":"Go","Sham":0,"Color":"yellow","trial_type":"pit-trial","trial_index":140,"time_elapsed":733841,"internal_node_id":"0.0-129.0","task_version":"test-retest"},{"Rune":"rune_02_os","Hex":"#3366ff99","Correct":-1,"Choice":-1,"RT":-1,"Accuracy":1,"Outcome":"-1","Keys":[],"TotalKeys":0,"Block":2,"Trial":125,"Robot":4,"Valence":"Lose","Action":"No-Go","Sham":0,"Color":"blue","trial_type":"pit-trial","trial_index":141,"time_elapsed":737854,"internal_node_id":"0.0-130.0","task_version":"test-retest"},{"Rune":"rune_02_haglaz","Hex":"#ffcc3399","Correct":-1,"Choice":32,"RT":916.8699999572709,"Accuracy":0,"Outcome":"+1","Keys":[2416.9349999865517],"TotalKeys":1,"Block":2,"Trial":126,"Robot":2,"Valence":"Win","Action":"No-Go","Sham":0,"Color":"yellow","trial_type":"pit-trial","trial_index":142,"time_elapsed":741279,"internal_node_id":"0.0-131.0","task_version":"test-retest"},{"Rune":"rune_02_cen","Hex":"#3366ff99","Correct":32,"Choice":-1,"RT":-1,"Accuracy":0,"Outcome":"-10","Keys":[],"TotalKeys":0,"Block":2,"Trial":127,"Robot":3,"Valence":"Lose","Action":"Go","Sham":0,"Color":"blue","trial_type":"pit-trial","trial_index":143,"time_elapsed":745287,"internal_node_id":"0.0-132.0","task_version":"test-retest"},{"Rune":"rune_02_raido","Hex":"#ffcc3399","Correct":32,"Choice":-1,"RT":-1,"Accuracy":0,"Outcome":"+1","Keys":[3430.6199999991804],"TotalKeys":1,"Block":2,"Trial":128,"Robot":1,"Valence":"Win","Action":"Go","Sham":0,"Color":"yellow","trial_type":"pit-trial","trial_index":144,"time_elapsed":749293,"internal_node_id":"0.0-133.0","task_version":"test-retest"},{"Rune":"rune_02_haglaz","Hex":"#ffcc3399","Correct":-1,"Choice":-1,"RT":-1,"Accuracy":1,"Outcome":"+10","Keys":[],"TotalKeys":0,"Block":2,"Trial":129,"Robot":2,"Valence":"Win","Action":"No-Go","Sham":0,"Color":"yellow","trial_type":"pit-trial","trial_index":145,"time_elapsed":753299,"internal_node_id":"0.0-134.0","task_version":"test-retest"},{"Rune":"rune_02_os","Hex":"#3366ff99","Correct":-1,"Choice":32,"RT":1358.8199999649078,"Accuracy":0,"Outcome":"-10","Keys":[2859.554999973625],"TotalKeys":1,"Block":2,"Trial":130,"Robot":4,"Valence":"Lose","Action":"No-Go","Sham":0,"Color":"blue","trial_type":"pit-trial","trial_index":146,"time_elapsed":757165,"internal_node_id":"0.0-135.0","task_version":"test-retest"},{"Rune":"rune_02_raido","Hex":"#ffcc3399","Correct":32,"Choice":-1,"RT":-1,"Accuracy":0,"Outcome":"+1","Keys":[3452.0699999993667],"TotalKeys":1,"Block":2,"Trial":131,"Robot":1,"Valence":"Win","Action":"Go","Sham":0,"Color":"yellow","trial_type":"pit-trial","trial_index":147,"time_elapsed":761173,"internal_node_id":"0.0-136.0","task_version":"test-retest"},{"Rune":"rune_02_cen","Hex":"#3366ff99","Correct":32,"Choice":-1,"RT":-1,"Accuracy":0,"Outcome":"-10","Keys":[],"TotalKeys":0,"Block":2,"Trial":132,"Robot":3,"Valence":"Lose","Action":"Go","Sham":0,"Color":"blue","trial_type":"pit-trial","trial_index":148,"time_elapsed":765181,"internal_node_id":"0.0-137.0","task_version":"test-retest"},{"Rune":"rune_02_os","Hex":"#3366ff99","Correct":-1,"Choice":-1,"RT":-1,"Accuracy":1,"Outcome":"-10","Keys":[],"TotalKeys":0,"Block":2,"Trial":133,"Robot":4,"Valence":"Lose","Action":"No-Go","Sham":1,"Color":"blue","trial_type":"pit-trial","trial_index":149,"time_elapsed":769189,"internal_node_id":"0.0-138.0","task_version":"test-retest"},{"Rune":"rune_02_haglaz","Hex":"#ffcc3399","Correct":-1,"Choice":-1,"RT":-1,"Accuracy":1,"Outcome":"+10","Keys":[],"TotalKeys":0,"Block":2,"Trial":134,"Robot":2,"Valence":"Win","Action":"No-Go","Sham":0,"Color":"yellow","trial_type":"pit-trial","trial_index":150,"time_elapsed":773198,"internal_node_id":"0.0-139.0","task_version":"test-retest"},{"Rune":"rune_02_cen","Hex":"#3366ff99","Correct":32,"Choice":-1,"RT":-1,"Accuracy":0,"Outcome":"-10","Keys":[3051.8900000024587],"TotalKeys":1,"Block":2,"Trial":135,"Robot":3,"Valence":"Lose","Action":"Go","Sham":0,"Color":"blue","trial_type":"pit-trial","trial_index":151,"time_elapsed":777205,"internal_node_id":"0.0-140.0","task_version":"test-retest"},{"Rune":"rune_02_raido","Hex":"#ffcc3399","Correct":32,"Choice":32,"RT":1353.774999966845,"Accuracy":1,"Outcome":"+10","Keys":[2854.3449999997392],"TotalKeys":1,"Block":2,"Trial":136,"Robot":1,"Valence":"Win","Action":"Go","Sham":0,"Color":"yellow","trial_type":"pit-trial","trial_index":152,"time_elapsed":781068,"internal_node_id":"0.0-141.0","task_version":"test-retest"},{"Rune":"rune_02_os","Hex":"#3366ff99","Correct":-1,"Choice":32,"RT":1238.5050000157207,"Accuracy":0,"Outcome":"-10","Keys":[2739.2649999819696],"TotalKeys":1,"Block":2,"Trial":137,"Robot":4,"Valence":"Lose","Action":"No-Go","Sham":0,"Color":"blue","trial_type":"pit-trial","trial_index":153,"time_elapsed":784814,"internal_node_id":"0.0-142.0","task_version":"test-retest"},{"Rune":"rune_02_raido","Hex":"#ffcc3399","Correct":32,"Choice":-1,"RT":-1,"Accuracy":0,"Outcome":"+10","Keys":[3462.539999978617],"TotalKeys":1,"Block":2,"Trial":138,"Robot":1,"Valence":"Win","Action":"Go","Sham":1,"Color":"yellow","trial_type":"pit-trial","trial_index":154,"time_elapsed":788828,"internal_node_id":"0.0-143.0","task_version":"test-retest"},{"Rune":"rune_02_cen","Hex":"#3366ff99","Correct":32,"Choice":32,"RT":1032.755000051111,"Accuracy":1,"Outcome":"-10","Keys":[2534.474999993108],"TotalKeys":1,"Block":2,"Trial":139,"Robot":3,"Valence":"Lose","Action":"Go","Sham":1,"Color":"blue","trial_type":"pit-trial","trial_index":155,"time_elapsed":792369,"internal_node_id":"0.0-144.0","task_version":"test-retest"},{"Rune":"rune_02_haglaz","Hex":"#ffcc3399","Correct":-1,"Choice":-1,"RT":-1,"Accuracy":1,"Outcome":"+10","Keys":[],"TotalKeys":0,"Block":2,"Trial":140,"Robot":2,"Valence":"Win","Action":"No-Go","Sham":0,"Color":"yellow","trial_type":"pit-trial","trial_index":156,"time_elapsed":796375,"internal_node_id":"0.0-145.0","task_version":"test-retest"},{"Rune":"rune_02_cen","Hex":"#3366ff99","Correct":32,"Choice":-1,"RT":-1,"Accuracy":0,"Outcome":"-10","Keys":[],"TotalKeys":0,"Block":2,"Trial":141,"Robot":3,"Valence":"Lose","Action":"Go","Sham":0,"Color":"blue","trial_type":"pit-trial","trial_index":157,"time_elapsed":800381,"internal_node_id":"0.0-146.0","task_version":"test-retest"},{"Rune":"rune_02_os","Hex":"#3366ff99","Correct":-1,"Choice":-1,"RT":-1,"Accuracy":1,"Outcome":"-1","Keys":[],"TotalKeys":0,"Block":2,"Trial":142,"Robot":4,"Valence":"Lose","Action":"No-Go","Sham":0,"Color":"blue","trial_type":"pit-trial","trial_index":158,"time_elapsed":804388,"internal_node_id":"0.0-147.0","task_version":"test-retest"},{"Rune":"rune_02_raido","Hex":"#ffcc3399","Correct":32,"Choice":-1,"RT":-1,"Accuracy":0,"Outcome":"+1","Keys":[],"TotalKeys":0,"Block":2,"Trial":143,"Robot":1,"Valence":"Win","Action":"Go","Sham":0,"Color":"yellow","trial_type":"pit-trial","trial_index":159,"time_elapsed":808394,"internal_node_id":"0.0-148.0","task_version":"test-retest"},{"Rune":"rune_02_haglaz","Hex":"#ffcc3399","Correct":-1,"Choice":-1,"RT":-1,"Accuracy":1,"Outcome":"+10","Keys":[],"TotalKeys":0,"Block":2,"Trial":144,"Robot":2,"Valence":"Win","Action":"No-Go","Sham":0,"Color":"yellow","trial_type":"pit-trial","trial_index":160,"time_elapsed":812406,"internal_node_id":"0.0-149.0","task_version":"test-retest"},{"Rune":"rune_02_haglaz","Hex":"#ffcc3399","Correct":-1,"Choice":-1,"RT":-1,"Accuracy":1,"Outcome":"+10","Keys":[],"TotalKeys":0,"Block":2,"Trial":145,"Robot":2,"Valence":"Win","Action":"No-Go","Sham":0,"Color":"yellow","trial_type":"pit-trial","trial_index":161,"time_elapsed":816413,"internal_node_id":"0.0-150.0","task_version":"test-retest"},{"Rune":"rune_02_cen","Hex":"#3366ff99","Correct":32,"Choice":-1,"RT":-1,"Accuracy":0,"Outcome":"-10","Keys":[3790.970000089146],"TotalKeys":1,"Block":2,"Trial":146,"Robot":3,"Valence":"Lose","Action":"Go","Sham":0,"Color":"blue","trial_type":"pit-trial","trial_index":162,"time_elapsed":820420,"internal_node_id":"0.0-151.0","task_version":"test-retest"},{"Rune":"rune_02_os","Hex":"#3366ff99","Correct":-1,"Choice":32,"RT":1168.8100000610575,"Accuracy":0,"Outcome":"-1","Keys":[2669.675000011921],"TotalKeys":1,"Block":2,"Trial":147,"Robot":4,"Valence":"Lose","Action":"No-Go","Sham":1,"Color":"blue","trial_type":"pit-trial","trial_index":163,"time_elapsed":824094,"internal_node_id":"0.0-152.0","task_version":"test-retest"},{"Rune":"rune_02_raido","Hex":"#ffcc3399","Correct":32,"Choice":-1,"RT":-1,"Accuracy":0,"Outcome":"+1","Keys":[3290.9350000554696],"TotalKeys":1,"Block":2,"Trial":148,"Robot":1,"Valence":"Win","Action":"Go","Sham":0,"Color":"yellow","trial_type":"pit-trial","trial_index":164,"time_elapsed":828102,"internal_node_id":"0.0-153.0","task_version":"test-retest"},{"Rune":"rune_02_cen","Hex":"#3366ff99","Correct":32,"Choice":-1,"RT":-1,"Accuracy":0,"Outcome":"-10","Keys":[],"TotalKeys":0,"Block":2,"Trial":149,"Robot":3,"Valence":"Lose","Action":"Go","Sham":0,"Color":"blue","trial_type":"pit-trial","trial_index":165,"time_elapsed":832109,"internal_node_id":"0.0-154.0","task_version":"test-retest"},{"Rune":"rune_02_os","Hex":"#3366ff99","Correct":-1,"Choice":-1,"RT":-1,"Accuracy":1,"Outcome":"-1","Keys":[3751.255000010133],"TotalKeys":1,"Block":2,"Trial":150,"Robot":4,"Valence":"Lose","Action":"No-Go","Sham":0,"Color":"blue","trial_type":"pit-trial","trial_index":166,"time_elapsed":836119,"internal_node_id":"0.0-155.0","task_version":"test-retest"},{"Rune":"rune_02_raido","Hex":"#ffcc3399","Correct":32,"Choice":-1,"RT":-1,"Accuracy":0,"Outcome":"+10","Keys":[],"TotalKeys":0,"Block":2,"Trial":151,"Robot":1,"Valence":"Win","Action":"Go","Sham":1,"Color":"yellow","trial_type":"pit-trial","trial_index":167,"time_elapsed":840130,"internal_node_id":"0.0-156.0","task_version":"test-retest"},{"Rune":"rune_02_haglaz","Hex":"#ffcc3399","Correct":-1,"Choice":-1,"RT":-1,"Accuracy":1,"Outcome":"+10","Keys":[],"TotalKeys":0,"Block":2,"Trial":152,"Robot":2,"Valence":"Win","Action":"No-Go","Sham":0,"Color":"yellow","trial_type":"pit-trial","trial_index":168,"time_elapsed":844139,"internal_node_id":"0.0-157.0","task_version":"test-retest"},{"Rune":"rune_02_haglaz","Hex":"#ffcc3399","Correct":-1,"Choice":-1,"RT":-1,"Accuracy":1,"Outcome":"+10","Keys":[],"TotalKeys":0,"Block":2,"Trial":153,"Robot":2,"Valence":"Win","Action":"No-Go","Sham":0,"Color":"yellow","trial_type":"pit-trial","trial_index":169,"time_elapsed":848147,"internal_node_id":"0.0-158.0","task_version":"test-retest"},{"Rune":"rune_02_raido","Hex":"#ffcc3399","Correct":32,"Choice":-1,"RT":-1,"Accuracy":0,"Outcome":"+1","Keys":[],"TotalKeys":0,"Block":2,"Trial":154,"Robot":1,"Valence":"Win","Action":"Go","Sham":0,"Color":"yellow","trial_type":"pit-trial","trial_index":170,"time_elapsed":852154,"internal_node_id":"0.0-159.0","task_version":"test-retest"},{"Rune":"rune_02_os","Hex":"#3366ff99","Correct":-1,"Choice":-1,"RT":-1,"Accuracy":1,"Outcome":"-1","Keys":[],"TotalKeys":0,"Block":2,"Trial":155,"Robot":4,"Valence":"Lose","Action":"No-Go","Sham":0,"Color":"blue","trial_type":"pit-trial","trial_index":171,"time_elapsed":856160,"internal_node_id":"0.0-160.0","task_version":"test-retest"},{"Rune":"rune_02_cen","Hex":"#3366ff99","Correct":32,"Choice":-1,"RT":-1,"Accuracy":0,"Outcome":"-10","Keys":[],"TotalKeys":0,"Block":2,"Trial":156,"Robot":3,"Valence":"Lose","Action":"Go","Sham":0,"Color":"blue","trial_type":"pit-trial","trial_index":172,"time_elapsed":860167,"internal_node_id":"0.0-161.0","task_version":"test-retest"},{"Rune":"rune_02_raido","Hex":"#ffcc3399","Correct":32,"Choice":-1,"RT":-1,"Accuracy":0,"Outcome":"+1","Keys":[3169.0850000595674],"TotalKeys":1,"Block":2,"Trial":157,"Robot":1,"Valence":"Win","Action":"Go","Sham":0,"Color":"yellow","trial_type":"pit-trial","trial_index":173,"time_elapsed":864174,"internal_node_id":"0.0-162.0","task_version":"test-retest"},{"Rune":"rune_02_haglaz","Hex":"#ffcc3399","Correct":-1,"Choice":-1,"RT":-1,"Accuracy":1,"Outcome":"+1","Keys":[],"TotalKeys":0,"Block":2,"Trial":158,"Robot":2,"Valence":"Win","Action":"No-Go","Sham":1,"Color":"yellow","trial_type":"pit-trial","trial_index":174,"time_elapsed":868183,"internal_node_id":"0.0-163.0","task_version":"test-retest"},{"Rune":"rune_02_os","Hex":"#3366ff99","Correct":-1,"Choice":-1,"RT":-1,"Accuracy":1,"Outcome":"-1","Keys":[],"TotalKeys":0,"Block":2,"Trial":159,"Robot":4,"Valence":"Lose","Action":"No-Go","Sham":0,"Color":"blue","trial_type":"pit-trial","trial_index":175,"time_elapsed":872193,"internal_node_id":"0.0-164.0","task_version":"test-retest"},{"Rune":"rune_02_cen","Hex":"#3366ff99","Correct":32,"Choice":-1,"RT":-1,"Accuracy":0,"Outcome":"-1","Keys":[3256.074999924749],"TotalKeys":1,"Block":2,"Trial":160,"Robot":3,"Valence":"Lose","Action":"Go","Sham":1,"Color":"blue","trial_type":"pit-trial","trial_index":176,"time_elapsed":876203,"internal_node_id":"0.0-165.0","task_version":"test-retest"},{"Rune":"rune_02_cen","Hex":"#3366ff99","Correct":32,"Choice":-1,"RT":-1,"Accuracy":0,"Outcome":"-10","Keys":[3167.849999968894],"TotalKeys":1,"Block":2,"Trial":161,"Robot":3,"Valence":"Lose","Action":"Go","Sham":0,"Color":"blue","trial_type":"pit-trial","trial_index":177,"time_elapsed":880216,"internal_node_id":"0.0-166.0","task_version":"test-retest"},{"Rune":"rune_02_haglaz","Hex":"#ffcc3399","Correct":-1,"Choice":-1,"RT":-1,"Accuracy":1,"Outcome":"+1","Keys":[],"TotalKeys":0,"Block":2,"Trial":162,"Robot":2,"Valence":"Win","Action":"No-Go","Sham":1,"Color":"yellow","trial_type":"pit-trial","trial_index":178,"time_elapsed":884224,"internal_node_id":"0.0-167.0","task_version":"test-retest"},{"Rune":"rune_02_raido","Hex":"#ffcc3399","Correct":32,"Choice":-1,"RT":-1,"Accuracy":0,"Outcome":"+10","Keys":[],"TotalKeys":0,"Block":2,"Trial":163,"Robot":1,"Valence":"Win","Action":"Go","Sham":1,"Color":"yellow","trial_type":"pit-trial","trial_index":179,"time_elapsed":888232,"internal_node_id":"0.0-168.0","task_version":"test-retest"},{"Rune":"rune_02_os","Hex":"#3366ff99","Correct":-1,"Choice":-1,"RT":-1,"Accuracy":1,"Outcome":"-10","Keys":[],"TotalKeys":0,"Block":2,"Trial":164,"Robot":4,"Valence":"Lose","Action":"No-Go","Sham":1,"Color":"blue","trial_type":"pit-trial","trial_index":180,"time_elapsed":892239,"internal_node_id":"0.0-169.0","task_version":"test-retest"},{"Rune":"rune_02_raido","Hex":"#ffcc3399","Correct":32,"Choice":-1,"RT":-1,"Accuracy":0,"Outcome":"+1","Keys":[],"TotalKeys":0,"Block":2,"Trial":165,"Robot":1,"Valence":"Win","Action":"Go","Sham":0,"Color":"yellow","trial_type":"pit-trial","trial_index":181,"time_elapsed":896246,"internal_node_id":"0.0-170.0","task_version":"test-retest"},{"Rune":"rune_02_cen","Hex":"#3366ff99","Correct":32,"Choice":-1,"RT":-1,"Accuracy":0,"Outcome":"-1","Keys":[],"TotalKeys":0,"Block":2,"Trial":166,"Robot":3,"Valence":"Lose","Action":"Go","Sham":1,"Color":"blue","trial_type":"pit-trial","trial_index":182,"time_elapsed":900253,"internal_node_id":"0.0-171.0","task_version":"test-retest"},{"Rune":"rune_02_os","Hex":"#3366ff99","Correct":-1,"Choice":32,"RT":948.2000001007691,"Accuracy":0,"Outcome":"-10","Keys":[2448.9700000267476],"TotalKeys":1,"Block":2,"Trial":167,"Robot":4,"Valence":"Lose","Action":"No-Go","Sham":0,"Color":"blue","trial_type":"pit-trial","trial_index":183,"time_elapsed":903709,"internal_node_id":"0.0-172.0","task_version":"test-retest"},{"Rune":"rune_02_haglaz","Hex":"#ffcc3399","Correct":-1,"Choice":32,"RT":726.4450000366196,"Accuracy":0,"Outcome":"+1","Keys":[2227.5350000709295],"TotalKeys":1,"Block":2,"Trial":168,"Robot":2,"Valence":"Win","Action":"No-Go","Sham":0,"Color":"yellow","trial_type":"pit-trial","trial_index":184,"time_elapsed":906942,"internal_node_id":"0.0-173.0","task_version":"test-retest"},{"Rune":"rune_02_cen","Hex":"#3366ff99","Correct":32,"Choice":-1,"RT":-1,"Accuracy":0,"Outcome":"-10","Keys":[],"TotalKeys":0,"Block":2,"Trial":169,"Robot":3,"Valence":"Lose","Action":"Go","Sham":0,"Color":"blue","trial_type":"pit-trial","trial_index":185,"time_elapsed":910951,"internal_node_id":"0.0-174.0","task_version":"test-retest"},{"Rune":"rune_02_os","Hex":"#3366ff99","Correct":-1,"Choice":-1,"RT":-1,"Accuracy":1,"Outcome":"-1","Keys":[],"TotalKeys":0,"Block":2,"Trial":170,"Robot":4,"Valence":"Lose","Action":"No-Go","Sham":0,"Color":"blue","trial_type":"pit-trial","trial_index":186,"time_elapsed":914960,"internal_node_id":"0.0-175.0","task_version":"test-retest"},{"Rune":"rune_02_haglaz","Hex":"#ffcc3399","Correct":-1,"Choice":-1,"RT":-1,"Accuracy":1,"Outcome":"+10","Keys":[],"TotalKeys":0,"Block":2,"Trial":171,"Robot":2,"Valence":"Win","Action":"No-Go","Sham":0,"Color":"yellow","trial_type":"pit-trial","trial_index":187,"time_elapsed":918966,"internal_node_id":"0.0-176.0","task_version":"test-retest"},{"Rune":"rune_02_raido","Hex":"#ffcc3399","Correct":32,"Choice":-1,"RT":-1,"Accuracy":0,"Outcome":"+1","Keys":[],"TotalKeys":0,"Block":2,"Trial":172,"Robot":1,"Valence":"Win","Action":"Go","Sham":0,"Color":"yellow","trial_type":"pit-trial","trial_index":188,"time_elapsed":922982,"internal_node_id":"0.0-177.0","task_version":"test-retest"},{"Rune":"rune_02_os","Hex":"#3366ff99","Correct":-1,"Choice":-1,"RT":-1,"Accuracy":1,"Outcome":"-1","Keys":[],"TotalKeys":0,"Block":2,"Trial":173,"Robot":4,"Valence":"Lose","Action":"No-Go","Sham":0,"Color":"blue","trial_type":"pit-trial","trial_index":189,"time_elapsed":926989,"internal_node_id":"0.0-178.0","task_version":"test-retest"},{"Rune":"rune_02_raido","Hex":"#ffcc3399","Correct":32,"Choice":-1,"RT":-1,"Accuracy":0,"Outcome":"+1","Keys":[],"TotalKeys":0,"Block":2,"Trial":174,"Robot":1,"Valence":"Win","Action":"Go","Sham":0,"Color":"yellow","trial_type":"pit-trial","trial_index":190,"time_elapsed":930995,"internal_node_id":"0.0-179.0","task_version":"test-retest"},{"Rune":"rune_02_haglaz","Hex":"#ffcc3399","Correct":-1,"Choice":-1,"RT":-1,"Accuracy":1,"Outcome":"+10","Keys":[],"TotalKeys":0,"Block":2,"Trial":175,"Robot":2,"Valence":"Win","Action":"No-Go","Sham":0,"Color":"yellow","trial_type":"pit-trial","trial_index":191,"time_elapsed":935080,"internal_node_id":"0.0-180.0","task_version":"test-retest"},{"Rune":"rune_02_cen","Hex":"#3366ff99","Correct":32,"Choice":-1,"RT":-1,"Accuracy":0,"Outcome":"-10","Keys":[],"TotalKeys":0,"Block":2,"Trial":176,"Robot":3,"Valence":"Lose","Action":"Go","Sham":0,"Color":"blue","trial_type":"pit-trial","trial_index":192,"time_elapsed":939087,"internal_node_id":"0.0-181.0","task_version":"test-retest"},{"Rune":"rune_02_raido","Hex":"#ffcc3399","Correct":32,"Choice":32,"RT":1418.2149999542162,"Accuracy":1,"Outcome":"+10","Keys":[2932.384999934584],"TotalKeys":1,"Block":2,"Trial":177,"Robot":1,"Valence":"Win","Action":"Go","Sham":0,"Color":"yellow","trial_type":"pit-trial","trial_index":193,"time_elapsed":943026,"internal_node_id":"0.0-182.0","task_version":"test-retest"},{"Rune":"rune_02_cen","Hex":"#3366ff99","Correct":32,"Choice":-1,"RT":-1,"Accuracy":0,"Outcome":"-10","Keys":[],"TotalKeys":0,"Block":2,"Trial":178,"Robot":3,"Valence":"Lose","Action":"Go","Sham":0,"Color":"blue","trial_type":"pit-trial","trial_index":194,"time_elapsed":947043,"internal_node_id":"0.0-183.0","task_version":"test-retest"},{"Rune":"rune_02_haglaz","Hex":"#ffcc3399","Correct":-1,"Choice":-1,"RT":-1,"Accuracy":1,"Outcome":"+10","Keys":[],"TotalKeys":0,"Block":2,"Trial":179,"Robot":2,"Valence":"Win","Action":"No-Go","Sham":0,"Color":"yellow","trial_type":"pit-trial","trial_index":195,"time_elapsed":951052,"internal_node_id":"0.0-184.0","task_version":"test-retest"},{"Rune":"rune_02_os","Hex":"#3366ff99","Correct":-1,"Choice":32,"RT":875.0599999912083,"Accuracy":0,"Outcome":"-10","Keys":[2375.8249999955297],"TotalKeys":1,"Block":2,"Trial":180,"Robot":4,"Valence":"Lose","Action":"No-Go","Sham":0,"Color":"blue","trial_type":"pit-trial","trial_index":196,"time_elapsed":954434,"internal_node_id":"0.0-185.0","task_version":"test-retest"},{"view_history":"[{\"page_index\":0,\"viewing_time\":6029.274999978952},{\"page_index\":1,\"viewing_time\":1879.3349999468774}]","rt":7910.290000028908,"trial_type":"pit-instructions","trial_index":197,"time_elapsed":962347,"internal_node_id":"0.0-186.0","task_version":"test-retest"},{"Rune":"rune_02_cen","Hex":"#3366ff99","Correct":32,"Choice":-1,"RT":-1,"Accuracy":0,"Outcome":"-10","Keys":[3947.565000038594],"TotalKeys":1,"Block":2,"Trial":181,"Robot":3,"Valence":"Lose","Action":"Go","Sham":0,"Color":"blue","trial_type":"pit-trial","trial_index":198,"time_elapsed":966362,"internal_node_id":"0.0-187.0","task_version":"test-retest"},{"Rune":"rune_02_os","Hex":"#3366ff99","Correct":-1,"Choice":-1,"RT":-1,"Accuracy":1,"Outcome":"-1","Keys":[3079.3600000906736],"TotalKeys":1,"Block":2,"Trial":182,"Robot":4,"Valence":"Lose","Action":"No-Go","Sham":0,"Color":"blue","trial_type":"pit-trial","trial_index":199,"time_elapsed":970369,"internal_node_id":"0.0-188.0","task_version":"test-retest"},{"Rune":"rune_02_haglaz","Hex":"#ffcc3399","Correct":-1,"Choice":-1,"RT":-1,"Accuracy":1,"Outcome":"+10","Keys":[],"TotalKeys":0,"Block":2,"Trial":183,"Robot":2,"Valence":"Win","Action":"No-Go","Sham":0,"Color":"yellow","trial_type":"pit-trial","trial_index":200,"time_elapsed":974376,"internal_node_id":"0.0-189.0","task_version":"test-retest"},{"Rune":"rune_02_raido","Hex":"#ffcc3399","Correct":32,"Choice":32,"RT":847.7500000735745,"Accuracy":1,"Outcome":"+10","Keys":[2350.855000084266],"TotalKeys":1,"Block":2,"Trial":184,"Robot":1,"Valence":"Win","Action":"Go","Sham":0,"Color":"yellow","trial_type":"pit-trial","trial_index":201,"time_elapsed":977732,"internal_node_id":"0.0-190.0","task_version":"test-retest"},{"Rune":"rune_02_raido","Hex":"#ffcc3399","Correct":32,"Choice":32,"RT":1052.0999999716878,"Accuracy":1,"Outcome":"+10","Keys":[2567.1350000193343],"TotalKeys":1,"Block":2,"Trial":185,"Robot":1,"Valence":"Win","Action":"Go","Sham":0,"Color":"yellow","trial_type":"pit-trial","trial_index":202,"time_elapsed":981306,"internal_node_id":"0.0-191.0","task_version":"test-retest"},{"Rune":"rune_02_cen","Hex":"#3366ff99","Correct":32,"Choice":-1,"RT":-1,"Accuracy":0,"Outcome":"-10","Keys":[],"TotalKeys":0,"Block":2,"Trial":186,"Robot":3,"Valence":"Lose","Action":"Go","Sham":0,"Color":"blue","trial_type":"pit-trial","trial_index":203,"time_elapsed":985314,"internal_node_id":"0.0-192.0","task_version":"test-retest"},{"Rune":"rune_02_os","Hex":"#3366ff99","Correct":-1,"Choice":-1,"RT":-1,"Accuracy":1,"Outcome":"-1","Keys":[],"TotalKeys":0,"Block":2,"Trial":187,"Robot":4,"Valence":"Lose","Action":"No-Go","Sham":0,"Color":"blue","trial_type":"pit-trial","trial_index":204,"time_elapsed":989324,"internal_node_id":"0.0-193.0","task_version":"test-retest"},{"Rune":"rune_02_haglaz","Hex":"#ffcc3399","Correct":-1,"Choice":-1,"RT":-1,"Accuracy":1,"Outcome":"+1","Keys":[],"TotalKeys":0,"Block":2,"Trial":188,"Robot":2,"Valence":"Win","Action":"No-Go","Sham":1,"Color":"yellow","trial_type":"pit-trial","trial_index":205,"time_elapsed":993334,"internal_node_id":"0.0-194.0","task_version":"test-retest"},{"Rune":"rune_02_raido","Hex":"#ffcc3399","Correct":32,"Choice":32,"RT":888.7950000353158,"Accuracy":1,"Outcome":"+10","Keys":[2389.4999999320135],"TotalKeys":1,"Block":2,"Trial":189,"Robot":1,"Valence":"Win","Action":"Go","Sham":0,"Color":"yellow","trial_type":"pit-trial","trial_index":206,"time_elapsed":996729,"internal_node_id":"0.0-195.0","task_version":"test-retest"},{"Rune":"rune_02_cen","Hex":"#3366ff99","Correct":32,"Choice":-1,"RT":-1,"Accuracy":0,"Outcome":"-10","Keys":[],"TotalKeys":0,"Block":2,"Trial":190,"Robot":3,"Valence":"Lose","Action":"Go","Sham":0,"Color":"blue","trial_type":"pit-trial","trial_index":207,"time_elapsed":1000738,"internal_node_id":"0.0-196.0","task_version":"test-retest"},{"Rune":"rune_02_haglaz","Hex":"#ffcc3399","Correct":-1,"Choice":-1,"RT":-1,"Accuracy":1,"Outcome":"+10","Keys":[],"TotalKeys":0,"Block":2,"Trial":191,"Robot":2,"Valence":"Win","Action":"No-Go","Sham":0,"Color":"yellow","trial_type":"pit-trial","trial_index":208,"time_elapsed":1004744,"internal_node_id":"0.0-197.0","task_version":"test-retest"},{"Rune":"rune_02_os","Hex":"#3366ff99","Correct":-1,"Choice":-1,"RT":-1,"Accuracy":1,"Outcome":"-10","Keys":[3149.29500001017],"TotalKeys":1,"Block":2,"Trial":192,"Robot":4,"Valence":"Lose","Action":"No-Go","Sham":1,"Color":"blue","trial_type":"pit-trial","trial_index":209,"time_elapsed":1008749,"internal_node_id":"0.0-198.0","task_version":"test-retest"},{"Rune":"rune_02_haglaz","Hex":"#ffcc3399","Correct":-1,"Choice":-1,"RT":-1,"Accuracy":1,"Outcome":"+10","Keys":[],"TotalKeys":0,"Block":2,"Trial":193,"Robot":2,"Valence":"Win","Action":"No-Go","Sham":0,"Color":"yellow","trial_type":"pit-trial","trial_index":210,"time_elapsed":1012754,"internal_node_id":"0.0-199.0","task_version":"test-retest"},{"Rune":"rune_02_cen","Hex":"#3366ff99","Correct":32,"Choice":32,"RT":701.3749999459833,"Accuracy":1,"Outcome":"-1","Keys":[2204.314999980852],"TotalKeys":1,"Block":2,"Trial":194,"Robot":3,"Valence":"Lose","Action":"Go","Sham":0,"Color":"blue","trial_type":"pit-trial","trial_index":211,"time_elapsed":1015963,"internal_node_id":"0.0-200.0","task_version":"test-retest"},{"Rune":"rune_02_raido","Hex":"#ffcc3399","Correct":32,"Choice":-1,"RT":-1,"Accuracy":0,"Outcome":"+1","Keys":[3481.234999955632],"TotalKeys":1,"Block":2,"Trial":195,"Robot":1,"Valence":"Win","Action":"Go","Sham":0,"Color":"yellow","trial_type":"pit-trial","trial_index":212,"time_elapsed":1019970,"internal_node_id":"0.0-201.0","task_version":"test-retest"},{"Rune":"rune_02_os","Hex":"#3366ff99","Correct":-1,"Choice":-1,"RT":-1,"Accuracy":1,"Outcome":"-1","Keys":[],"TotalKeys":0,"Block":2,"Trial":196,"Robot":4,"Valence":"Lose","Action":"No-Go","Sham":0,"Color":"blue","trial_type":"pit-trial","trial_index":213,"time_elapsed":1023980,"internal_node_id":"0.0-202.0","task_version":"test-retest"},{"Rune":"rune_02_haglaz","Hex":"#ffcc3399","Correct":-1,"Choice":-1,"RT":-1,"Accuracy":1,"Outcome":"+10","Keys":[3014.6249999525025],"TotalKeys":1,"Block":2,"Trial":197,"Robot":2,"Valence":"Win","Action":"No-Go","Sham":0,"Color":"yellow","trial_type":"pit-trial","trial_index":214,"time_elapsed":1027988,"internal_node_id":"0.0-203.0","task_version":"test-retest"},{"Rune":"rune_02_os","Hex":"#3366ff99","Correct":-1,"Choice":-1,"RT":-1,"Accuracy":1,"Outcome":"-1","Keys":[],"TotalKeys":0,"Block":2,"Trial":198,"Robot":4,"Valence":"Lose","Action":"No-Go","Sham":0,"Color":"blue","trial_type":"pit-trial","trial_index":215,"time_elapsed":1031995,"internal_node_id":"0.0-204.0","task_version":"test-retest"},{"Rune":"rune_02_raido","Hex":"#ffcc3399","Correct":32,"Choice":32,"RT":1299.2849999573082,"Accuracy":1,"Outcome":"+1","Keys":[2799.5349999982864],"TotalKeys":1,"Block":2,"Trial":199,"Robot":1,"Valence":"Win","Action":"Go","Sham":1,"Color":"yellow","trial_type":"pit-trial","trial_index":216,"time_elapsed":1035800,"internal_node_id":"0.0-205.0","task_version":"test-retest"},{"Rune":"rune_02_cen","Hex":"#3366ff99","Correct":32,"Choice":32,"RT":1172.0450000138953,"Accuracy":1,"Outcome":"-10","Keys":[2673.259999952279],"TotalKeys":1,"Block":2,"Trial":200,"Robot":3,"Valence":"Lose","Action":"Go","Sham":1,"Color":"blue","trial_type":"pit-trial","trial_index":217,"time_elapsed":1039479,"internal_node_id":"0.0-206.0","task_version":"test-retest"},{"Rune":"rune_02_raido","Hex":"#ffcc3399","Correct":32,"Choice":-1,"RT":-1,"Accuracy":0,"Outcome":"+1","Keys":[],"TotalKeys":0,"Block":2,"Trial":201,"Robot":1,"Valence":"Win","Action":"Go","Sham":0,"Color":"yellow","trial_type":"pit-trial","trial_index":218,"time_elapsed":1043486,"internal_node_id":"0.0-207.0","task_version":"test-retest"},{"Rune":"rune_02_os","Hex":"#3366ff99","Correct":-1,"Choice":32,"RT":1351.6700000036508,"Accuracy":0,"Outcome":"-1","Keys":[2853.9599999785423],"TotalKeys":1,"Block":2,"Trial":202,"Robot":4,"Valence":"Lose","Action":"No-Go","Sham":1,"Color":"blue","trial_type":"pit-trial","trial_index":219,"time_elapsed":1047346,"internal_node_id":"0.0-208.0","task_version":"test-retest"},{"Rune":"rune_02_cen","Hex":"#3366ff99","Correct":32,"Choice":-1,"RT":-1,"Accuracy":0,"Outcome":"-10","Keys":[],"TotalKeys":0,"Block":2,"Trial":203,"Robot":3,"Valence":"Lose","Action":"Go","Sham":0,"Color":"blue","trial_type":"pit-trial","trial_index":220,"time_elapsed":1051352,"internal_node_id":"0.0-209.0","task_version":"test-retest"},{"Rune":"rune_02_haglaz","Hex":"#ffcc3399","Correct":-1,"Choice":-1,"RT":-1,"Accuracy":1,"Outcome":"+10","Keys":[],"TotalKeys":0,"Block":2,"Trial":204,"Robot":2,"Valence":"Win","Action":"No-Go","Sham":0,"Color":"yellow","trial_type":"pit-trial","trial_index":221,"time_elapsed":1055358,"internal_node_id":"0.0-210.0","task_version":"test-retest"},{"Rune":"rune_02_os","Hex":"#3366ff99","Correct":-1,"Choice":32,"RT":924.5050000026822,"Accuracy":0,"Outcome":"-10","Keys":[2425.5899999989197],"TotalKeys":1,"Block":2,"Trial":205,"Robot":4,"Valence":"Lose","Action":"No-Go","Sham":0,"Color":"blue","trial_type":"pit-trial","trial_index":222,"time_elapsed":1058790,"internal_node_id":"0.0-211.0","task_version":"test-retest"},{"Rune":"rune_02_cen","Hex":"#3366ff99","Correct":32,"Choice":-1,"RT":-1,"Accuracy":0,"Outcome":"-10","Keys":[],"TotalKeys":0,"Block":2,"Trial":206,"Robot":3,"Valence":"Lose","Action":"Go","Sham":0,"Color":"blue","trial_type":"pit-trial","trial_index":223,"time_elapsed":1062798,"internal_node_id":"0.0-212.0","task_version":"test-retest"},{"Rune":"rune_02_haglaz","Hex":"#ffcc3399","Correct":-1,"Choice":-1,"RT":-1,"Accuracy":1,"Outcome":"+1","Keys":[],"TotalKeys":0,"Block":2,"Trial":207,"Robot":2,"Valence":"Win","Action":"No-Go","Sham":1,"Color":"yellow","trial_type":"pit-trial","trial_index":224,"time_elapsed":1066808,"internal_node_id":"0.0-213.0","task_version":"test-retest"},{"Rune":"rune_02_raido","Hex":"#ffcc3399","Correct":32,"Choice":32,"RT":1130.4099999833852,"Accuracy":1,"Outcome":"+10","Keys":[2632.3100000154227],"TotalKeys":1,"Block":2,"Trial":208,"Robot":1,"Valence":"Win","Action":"Go","Sham":0,"Color":"yellow","trial_type":"pit-trial","trial_index":225,"time_elapsed":1070449,"internal_node_id":"0.0-214.0","task_version":"test-retest"},{"Rune":"rune_02_os","Hex":"#3366ff99","Correct":-1,"Choice":32,"RT":856.7000000039116,"Accuracy":0,"Outcome":"-10","Keys":[2358.9149999897927],"TotalKeys":1,"Block":2,"Trial":209,"Robot":4,"Valence":"Lose","Action":"No-Go","Sham":0,"Color":"blue","trial_type":"pit-trial","trial_index":226,"time_elapsed":1073814,"internal_node_id":"0.0-215.0","task_version":"test-retest"},{"Rune":"rune_02_haglaz","Hex":"#ffcc3399","Correct":-1,"Choice":32,"RT":553.5999999847263,"Accuracy":0,"Outcome":"+1","Keys":[2055.62999995891],"TotalKeys":1,"Block":2,"Trial":210,"Robot":2,"Valence":"Win","Action":"No-Go","Sham":0,"Color":"yellow","trial_type":"pit-trial","trial_index":227,"time_elapsed":1076876,"internal_node_id":"0.0-216.0","task_version":"test-retest"},{"Rune":"rune_02_raido","Hex":"#ffcc3399","Correct":32,"Choice":-1,"RT":-1,"Accuracy":0,"Outcome":"+10","Keys":[],"TotalKeys":0,"Block":2,"Trial":211,"Robot":1,"Valence":"Win","Action":"Go","Sham":1,"Color":"yellow","trial_type":"pit-trial","trial_index":228,"time_elapsed":1080884,"internal_node_id":"0.0-217.0","task_version":"test-retest"},{"Rune":"rune_02_cen","Hex":"#3366ff99","Correct":32,"Choice":-1,"RT":-1,"Accuracy":0,"Outcome":"-1","Keys":[],"TotalKeys":0,"Block":2,"Trial":212,"Robot":3,"Valence":"Lose","Action":"Go","Sham":1,"Color":"blue","trial_type":"pit-trial","trial_index":229,"time_elapsed":1084891,"internal_node_id":"0.0-218.0","task_version":"test-retest"},{"Rune":"rune_02_os","Hex":"#3366ff99","Correct":-1,"Choice":-1,"RT":-1,"Accuracy":1,"Outcome":"-1","Keys":[],"TotalKeys":0,"Block":2,"Trial":213,"Robot":4,"Valence":"Lose","Action":"No-Go","Sham":0,"Color":"blue","trial_type":"pit-trial","trial_index":230,"time_elapsed":1088896,"internal_node_id":"0.0-219.0","task_version":"test-retest"},{"Rune":"rune_02_raido","Hex":"#ffcc3399","Correct":32,"Choice":32,"RT":1484.4649999868125,"Accuracy":1,"Outcome":"+10","Keys":[2984.7149999113753],"TotalKeys":1,"Block":2,"Trial":214,"Robot":1,"Valence":"Win","Action":"Go","Sham":0,"Color":"yellow","trial_type":"pit-trial","trial_index":231,"time_elapsed":1092888,"internal_node_id":"0.0-220.0","task_version":"test-retest"},{"Rune":"rune_02_haglaz","Hex":"#ffcc3399","Correct":-1,"Choice":-1,"RT":-1,"Accuracy":1,"Outcome":"+10","Keys":[],"TotalKeys":0,"Block":2,"Trial":215,"Robot":2,"Valence":"Win","Action":"No-Go","Sham":0,"Color":"yellow","trial_type":"pit-trial","trial_index":232,"time_elapsed":1096896,"internal_node_id":"0.0-221.0","task_version":"test-retest"},{"Rune":"rune_02_cen","Hex":"#3366ff99","Correct":32,"Choice":-1,"RT":-1,"Accuracy":0,"Outcome":"-10","Keys":[1278.344999998808],"TotalKeys":1,"Block":2,"Trial":216,"Robot":3,"Valence":"Lose","Action":"Go","Sham":0,"Color":"blue","trial_type":"pit-trial","trial_index":233,"time_elapsed":1100905,"internal_node_id":"0.0-222.0","task_version":"test-retest"},{"Rune":"rune_02_raido","Hex":"#ffcc3399","Correct":32,"Choice":-1,"RT":-1,"Accuracy":0,"Outcome":"+1","Keys":[],"TotalKeys":0,"Block":2,"Trial":217,"Robot":1,"Valence":"Win","Action":"Go","Sham":0,"Color":"yellow","trial_type":"pit-trial","trial_index":234,"time_elapsed":1104913,"internal_node_id":"0.0-223.0","task_version":"test-retest"},{"Rune":"rune_02_cen","Hex":"#3366ff99","Correct":32,"Choice":-1,"RT":-1,"Accuracy":0,"Outcome":"-10","Keys":[],"TotalKeys":0,"Block":2,"Trial":218,"Robot":3,"Valence":"Lose","Action":"Go","Sham":0,"Color":"blue","trial_type":"pit-trial","trial_index":235,"time_elapsed":1108921,"internal_node_id":"0.0-224.0","task_version":"test-retest"},{"Rune":"rune_02_os","Hex":"#3366ff99","Correct":-1,"Choice":-1,"RT":-1,"Accuracy":1,"Outcome":"-1","Keys":[],"TotalKeys":0,"Block":2,"Trial":219,"Robot":4,"Valence":"Lose","Action":"No-Go","Sham":0,"Color":"blue","trial_type":"pit-trial","trial_index":236,"time_elapsed":1112929,"internal_node_id":"0.0-225.0","task_version":"test-retest"},{"Rune":"rune_02_haglaz","Hex":"#ffcc3399","Correct":-1,"Choice":-1,"RT":-1,"Accuracy":1,"Outcome":"+10","Keys":[],"TotalKeys":0,"Block":2,"Trial":220,"Robot":2,"Valence":"Win","Action":"No-Go","Sham":0,"Color":"yellow","trial_type":"pit-trial","trial_index":237,"time_elapsed":1116936,"internal_node_id":"0.0-226.0","task_version":"test-retest"},{"Rune":"rune_02_cen","Hex":"#3366ff99","Correct":32,"Choice":-1,"RT":-1,"Accuracy":0,"Outcome":"-10","Keys":[],"TotalKeys":0,"Block":2,"Trial":221,"Robot":3,"Valence":"Lose","Action":"Go","Sham":0,"Color":"blue","trial_type":"pit-trial","trial_index":238,"time_elapsed":1120944,"internal_node_id":"0.0-227.0","task_version":"test-retest"},{"Rune":"rune_02_haglaz","Hex":"#ffcc3399","Correct":-1,"Choice":-1,"RT":-1,"Accuracy":1,"Outcome":"+10","Keys":[],"TotalKeys":0,"Block":2,"Trial":222,"Robot":2,"Valence":"Win","Action":"No-Go","Sham":0,"Color":"yellow","trial_type":"pit-trial","trial_index":239,"time_elapsed":1124950,"internal_node_id":"0.0-228.0","task_version":"test-retest"},{"Rune":"rune_02_os","Hex":"#3366ff99","Correct":-1,"Choice":-1,"RT":-1,"Accuracy":1,"Outcome":"-1","Keys":[],"TotalKeys":0,"Block":2,"Trial":223,"Robot":4,"Valence":"Lose","Action":"No-Go","Sham":0,"Color":"blue","trial_type":"pit-trial","trial_index":240,"time_elapsed":1128958,"internal_node_id":"0.0-229.0","task_version":"test-retest"},{"Rune":"rune_02_raido","Hex":"#ffcc3399","Correct":32,"Choice":-1,"RT":-1,"Accuracy":0,"Outcome":"+10","Keys":[],"TotalKeys":0,"Block":2,"Trial":224,"Robot":1,"Valence":"Win","Action":"Go","Sham":1,"Color":"yellow","trial_type":"pit-trial","trial_index":241,"time_elapsed":1132969,"internal_node_id":"0.0-230.0","task_version":"test-retest"},{"Rune":"rune_02_cen","Hex":"#3366ff99","Correct":32,"Choice":-1,"RT":-1,"Accuracy":0,"Outcome":"-10","Keys":[],"TotalKeys":0,"Block":2,"Trial":225,"Robot":3,"Valence":"Lose","Action":"Go","Sham":0,"Color":"blue","trial_type":"pit-trial","trial_index":242,"time_elapsed":1136978,"internal_node_id":"0.0-231.0","task_version":"test-retest"},{"Rune":"rune_02_raido","Hex":"#ffcc3399","Correct":32,"Choice":-1,"RT":-1,"Accuracy":0,"Outcome":"+1","Keys":[],"TotalKeys":0,"Block":2,"Trial":226,"Robot":1,"Valence":"Win","Action":"Go","Sham":0,"Color":"yellow","trial_type":"pit-trial","trial_index":243,"time_elapsed":1140988,"internal_node_id":"0.0-232.0","task_version":"test-retest"},{"Rune":"rune_02_os","Hex":"#3366ff99","Correct":-1,"Choice":-1,"RT":-1,"Accuracy":1,"Outcome":"-1","Keys":[],"TotalKeys":0,"Block":2,"Trial":227,"Robot":4,"Valence":"Lose","Action":"No-Go","Sham":0,"Color":"blue","trial_type":"pit-trial","trial_index":244,"time_elapsed":1144994,"internal_node_id":"0.0-233.0","task_version":"test-retest"},{"Rune":"rune_02_haglaz","Hex":"#ffcc3399","Correct":-1,"Choice":-1,"RT":-1,"Accuracy":1,"Outcome":"+10","Keys":[],"TotalKeys":0,"Block":2,"Trial":228,"Robot":2,"Valence":"Win","Action":"No-Go","Sham":0,"Color":"yellow","trial_type":"pit-trial","trial_index":245,"time_elapsed":1149002,"internal_node_id":"0.0-234.0","task_version":"test-retest"},{"Rune":"rune_02_os","Hex":"#3366ff99","Correct":-1,"Choice":-1,"RT":-1,"Accuracy":1,"Outcome":"-10","Keys":[],"TotalKeys":0,"Block":2,"Trial":229,"Robot":4,"Valence":"Lose","Action":"No-Go","Sham":1,"Color":"blue","trial_type":"pit-trial","trial_index":246,"time_elapsed":1153009,"internal_node_id":"0.0-235.0","task_version":"test-retest"},{"Rune":"rune_02_raido","Hex":"#ffcc3399","Correct":32,"Choice":-1,"RT":-1,"Accuracy":0,"Outcome":"+1","Keys":[],"TotalKeys":0,"Block":2,"Trial":230,"Robot":1,"Valence":"Win","Action":"Go","Sham":0,"Color":"yellow","trial_type":"pit-trial","trial_index":247,"time_elapsed":1157016,"internal_node_id":"0.0-236.0","task_version":"test-retest"},{"Rune":"rune_02_haglaz","Hex":"#ffcc3399","Correct":-1,"Choice":32,"RT":905.6499999715015,"Accuracy":0,"Outcome":"+1","Keys":[2407.935000024736],"TotalKeys":1,"Block":2,"Trial":231,"Robot":2,"Valence":"Win","Action":"No-Go","Sham":0,"Color":"yellow","trial_type":"pit-trial","trial_index":248,"time_elapsed":1160431,"internal_node_id":"0.0-237.0","task_version":"test-retest"},{"Rune":"rune_02_cen","Hex":"#3366ff99","Correct":32,"Choice":-1,"RT":-1,"Accuracy":0,"Outcome":"-10","Keys":[],"TotalKeys":0,"Block":2,"Trial":232,"Robot":3,"Valence":"Lose","Action":"Go","Sham":0,"Color":"blue","trial_type":"pit-trial","trial_index":249,"time_elapsed":1164437,"internal_node_id":"0.0-238.0","task_version":"test-retest"},{"Rune":"rune_02_os","Hex":"#3366ff99","Correct":-1,"Choice":-1,"RT":-1,"Accuracy":1,"Outcome":"-1","Keys":[],"TotalKeys":0,"Block":2,"Trial":233,"Robot":4,"Valence":"Lose","Action":"No-Go","Sham":0,"Color":"blue","trial_type":"pit-trial","trial_index":250,"time_elapsed":1168445,"internal_node_id":"0.0-239.0","task_version":"test-retest"},{"Rune":"rune_02_raido","Hex":"#ffcc3399","Correct":32,"Choice":32,"RT":434.9350000265986,"Accuracy":1,"Outcome":"+10","Keys":[475.97999998833984,1186.0950000118464,1935.9399999957532],"TotalKeys":3,"Block":2,"Trial":234,"Robot":1,"Valence":"Win","Action":"Go","Sham":0,"Color":"yellow","trial_type":"pit-trial","trial_index":251,"time_elapsed":1171386,"internal_node_id":"0.0-240.0","task_version":"test-retest"},{"Rune":"rune_02_haglaz","Hex":"#ffcc3399","Correct":-1,"Choice":-1,"RT":-1,"Accuracy":1,"Outcome":"+10","Keys":[],"TotalKeys":0,"Block":2,"Trial":235,"Robot":2,"Valence":"Win","Action":"No-Go","Sham":0,"Color":"yellow","trial_type":"pit-trial","trial_index":252,"time_elapsed":1175393,"internal_node_id":"0.0-241.0","task_version":"test-retest"},{"Rune":"rune_02_cen","Hex":"#3366ff99","Correct":32,"Choice":-1,"RT":-1,"Accuracy":0,"Outcome":"-1","Keys":[],"TotalKeys":0,"Block":2,"Trial":236,"Robot":3,"Valence":"Lose","Action":"Go","Sham":1,"Color":"blue","trial_type":"pit-trial","trial_index":253,"time_elapsed":1179403,"internal_node_id":"0.0-242.0","task_version":"test-retest"},{"Rune":"rune_02_raido","Hex":"#ffcc3399","Correct":32,"Choice":-1,"RT":-1,"Accuracy":0,"Outcome":"+1","Keys":[],"TotalKeys":0,"Block":2,"Trial":237,"Robot":1,"Valence":"Win","Action":"Go","Sham":0,"Color":"yellow","trial_type":"pit-trial","trial_index":254,"time_elapsed":1183411,"internal_node_id":"0.0-243.0","task_version":"test-retest"},{"Rune":"rune_02_cen","Hex":"#3366ff99","Correct":32,"Choice":32,"RT":458.82000005804,"Accuracy":1,"Outcome":"-1","Keys":[540.3900000965223,1229.920000070706,1960.105000063777],"TotalKeys":3,"Block":2,"Trial":238,"Robot":3,"Valence":"Lose","Action":"Go","Sham":0,"Color":"blue","trial_type":"pit-trial","trial_index":255,"time_elapsed":1186378,"internal_node_id":"0.0-244.0","task_version":"test-retest"},{"Rune":"rune_02_os","Hex":"#3366ff99","Correct":-1,"Choice":-1,"RT":-1,"Accuracy":1,"Outcome":"-1","Keys":[3388.9349999371916],"TotalKeys":1,"Block":2,"Trial":239,"Robot":4,"Valence":"Lose","Action":"No-Go","Sham":0,"Color":"blue","trial_type":"pit-trial","trial_index":256,"time_elapsed":1190384,"internal_node_id":"0.0-245.0","task_version":"test-retest"},{"Rune":"rune_02_haglaz","Hex":"#ffcc3399","Correct":-1,"Choice":32,"RT":1007.9899999545887,"Accuracy":0,"Outcome":"+10","Keys":[2508.514999994077],"TotalKeys":1,"Block":2,"Trial":240,"Robot":2,"Valence":"Win","Action":"No-Go","Sham":1,"Color":"yellow","trial_type":"pit-trial","trial_index":257,"time_elapsed":1193899,"internal_node_id":"0.0-246.0","task_version":"test-retest"},{"view_history":"[{\"page_index\":0,\"viewing_time\":8543.384999968112}]","rt":8545.610000030138,"trial_type":"pit-instructions","trial_index":258,"time_elapsed":1202448,"internal_node_id":"0.0-247.0","task_version":"test-retest"},{"responses":{"Q01":"3","Q05":"2","Q06":"2","Q12":"3","Q14":"1","Q11":"1","Q15":"2","Q04":"1","Q02":"2","Q13":"1","Q09":"3","Q07":"3","Q08":"0","Q10":"1","Q03":"2"},"rt":55909.444999997504,"survey":"7up7down","trial_type":"survey-template","trial_index":259,"time_elapsed":1258386,"internal_node_id":"0.0-248.0","task_version":"test-retest"},{"responses":{"Q03":"1","Q04":"1","Q06":"3","Q08":"2","Q02":"2","Q05":"0","Q01":"2","Q07":"3"},"rt":31436.34999997448,"survey":"gad7","trial_type":"survey-template","trial_index":260,"time_elapsed":1289833,"internal_node_id":"0.0-249.0","task_version":"test-retest"},{"responses":{"Q05":"2","Q13":"1","Q04":"2","Q07":"3","Q06":"3","Q03":"1","Q12":"2","Q10":"2","Q11":"1","Q08":"1","Q01":"0","Q09":"2","Q02":"3"},"rt":40981.49499995634,"survey":"bisbas","trial_type":"survey-template","trial_index":261,"time_elapsed":1330825,"internal_node_id":"0.0-250.0","task_version":"test-retest"},{"rt":43821.15000009071,"responses":{"age":"46","gender-categorical":"Male","gender-free-response":"","ethnicity":"Hispanic or Latino","race":"White","language":"Yes","fluency":"Very well"},"survey":"demographics","trial_type":"survey-demo","trial_index":262,"time_elapsed":1374661,"internal_node_id":"0.0-251.0","task_version":"test-retest"},{"rt":51235.26999994647,"responses":{"difficulty":"2","fun":"4","clarity":"5","strategy":"no strategies","feedback":"its good"},"survey":"debrief","trial_type":"survey-debrief","trial_index":263,"time_elapsed":1425906,"internal_node_id":"0.0-252.0","task_version":"test-retest"},{"rt":9961.550000007264,"stimulus":"You earned a bonus of $0.73 out of $1.5.<br><br>Press any key to complete the experiment.","key_press":32,"trial_type":"html-keyboard-response","trial_index":264,"time_elapsed":1435876,"internal_node_id":"0.0-253.0","task_version":"test-retest","accuracy":0.48333333333333334,"bonus":0.73,"interactions":"[{\"event\":\"blur\",\"trial\":0,\"time\":12984},{\"event\":\"focus\",\"trial\":0,\"time\":14742},{\"event\":\"blur\",\"trial\":138,\"time\":722491},{\"event\":\"focus\",\"trial\":140,\"time\":730441}]"}]