[{"slider_type":"valence","raw_loc":700,"loc":0.9,"trial_type":"affective-slider","trial_index":0,"time_elapsed":4844,"internal_node_id":"0.0-0.0","task_version":"test-retest"},{"responses":{"Q07":"0","Q04":"0","Q03":"0","Q05":"0","Q08":"0","Q02":"0","Q01":"0","Q06":"1"},"rt":18216.539999993984,"survey":"gad7","trial_type":"survey-template","trial_index":1,"time_elapsed":23065,"internal_node_id":"0.0-1.0","task_version":"test-retest"},{"responses":{"Q08":"3","Q03":"0","Q07":"3","Q05":"3","Q13":"0","Q09":"1","Q10":"1","Q11":"1","Q01":"1","Q06":"2","Q12":"1","Q04":"0","Q02":"2"},"rt":176729.5650000451,"survey":"bisbas","trial_type":"survey-template","trial_index":2,"time_elapsed":199842,"internal_node_id":"0.0-2.0","task_version":"test-retest"},{"responses":{"Q05":"1","Q12":"1","Q14":"0","Q03":"0","Q07":"1","Q11":"0","Q08":"1","Q15":"0","Q01":"1","Q04":"1","Q10":"0","Q09":"0","Q02":"0","Q06":"0","Q13":"0"},"rt":139686.1149999895,"survey":"7up7down","trial_type":"survey-template","trial_index":3,"time_elapsed":339573,"internal_node_id":"0.0-3.0","task_version":"test-retest"},{"value":false,"trial_type":"call-function","trial_index":4,"time_elapsed":339639,"internal_node_id":"0.0-4.0","task_version":"test-retest"},{"view_history":"[{\"page_index\":0,\"viewing_time\":5483.309999981429},{\"page_index\":1,\"viewing_time\":2847.409999987576},{\"page_index\":2,\"viewing_time\":5224.89500005031},{\"page_index\":3,\"viewing_time\":3893.819999997504},{\"page_index\":4,\"viewing_time\":3007.57999997586}]","rt":20459.009999991395,"trial_type":"pit-instructions","trial_index":5,"time_elapsed":360104,"internal_node_id":"0.0-5.0-0.0","task_version":"test-retest"},{"Rune":"rune_00_ingz","Hex":"#FFFFF080","Correct":32,"Choice":32,"RT":204.78500000899658,"Accuracy":1,"Outcome":"+10","Keys":[910.6799999717623,1705.2999999723397],"TotalKeys":2,"Block":0,"Action":"Go","trial_type":"pit-trial","trial_index":6,"time_elapsed":362860,"internal_node_id":"0.0-5.0-1.0-0.0","task_version":"test-retest"},{"Rune":"rune_00_ingz","Hex":"#FFFFF080","Correct":32,"Choice":32,"RT":646.8800000147894,"Accuracy":1,"Outcome":"+10","Keys":[1400.9999999543652,2148.0249999440275],"TotalKeys":2,"Block":0,"Action":"Go","trial_type":"pit-trial","trial_index":7,"time_elapsed":366049,"internal_node_id":"0.0-5.0-1.0-0.1","task_version":"test-retest"},{"Rune":"rune_00_ingz","Hex":"#FFFFF080","Correct":32,"Choice":32,"RT":236.52000003494322,"Accuracy":1,"Outcome":"+10","Keys":[1736.8450000067241],"TotalKeys":1,"Block":0,"Action":"Go","trial_type":"pit-trial","trial_index":8,"time_elapsed":368827,"internal_node_id":"0.0-5.0-1.0-0.2","task_version":"test-retest"},{"Rune":"rune_00_ingz","Hex":"#FFFFF080","Correct":32,"Choice":32,"RT":221.5250000008382,"Accuracy":1,"Outcome":"+10","Keys":[1722.9299999889918],"TotalKeys":1,"Block":0,"Action":"Go","trial_type":"pit-trial","trial_index":9,"time_elapsed":371604,"internal_node_id":"0.0-5.0-1.0-0.3","task_version":"test-retest"},{"view_history":"[{\"page_index\":0,\"viewing_time\":2843.899999978021}]","rt":2844.8649999918416,"trial_type":"pit-instructions","trial_index":10,"time_elapsed":374487,"internal_node_id":"0.0-5.0-2.0","task_version":"test-retest"},{"Rune":"rune_00_isaz","Hex":"#FFFFF080","Correct":-1,"Choice":-1,"RT":-1,"Accuracy":1,"Outcome":"+10","Keys":[],"TotalKeys":0,"Block":0,"Action":"No-Go","trial_type":"pit-trial","trial_index":11,"time_elapsed":378554,"internal_node_id":"0.0-5.0-3.0-0.0","task_version":"test-retest"},{"Rune":"rune_00_isaz","Hex":"#FFFFF080","Correct":-1,"Choice":-1,"RT":-1,"Accuracy":1,"Outcome":"+10","Keys":[],"TotalKeys":0,"Block":0,"Action":"No-Go","trial_type":"pit-trial","trial_index":12,"time_elapsed":382594,"internal_node_id":"0.0-5.0-3.0-0.1","task_version":"test-retest"},{"Rune":"rune_00_isaz","Hex":"#FFFFF080","Correct":-1,"Choice":-1,"RT":-1,"Accuracy":1,"Outcome":"+10","Keys":[],"TotalKeys":0,"Block":0,"Action":"No-Go","trial_type":"pit-trial","trial_index":13,"time_elapsed":386632,"internal_node_id":"0.0-5.0-3.0-0.2","task_version":"test-retest"},{"Rune":"rune_00_isaz","Hex":"#FFFFF080","Correct":-1,"Choice":-1,"RT":-1,"Accuracy":1,"Outcome":"+10","Keys":[],"TotalKeys":0,"Block":0,"Action":"No-Go","trial_type":"pit-trial","trial_index":14,"time_elapsed":390690,"internal_node_id":"0.0-5.0-3.0-0.3","task_version":"test-retest"},{"view_history":"[{\"page_index\":0,\"viewing_time\":1490.6400000327267},{\"page_index\":1,\"viewing_time\":3158.194999967236},{\"page_index\":2,\"viewing_time\":3713.694999984},{\"page_index\":3,\"viewing_time\":4801.950000051875},{\"page_index\":4,\"viewing_time\":3877.4199999752454},{\"page_index\":5,\"viewing_time\":4030.8599999989383},{\"page_index\":6,\"viewing_time\":1788.4300000150688},{\"page_index\":7,\"viewing_time\":1719.9699999764562}]","rt":24581.660000025295,"trial_type":"pit-instructions","trial_index":15,"time_elapsed":415309,"internal_node_id":"0.0-5.0-4.0","task_version":"test-retest"},{"responses":["Do nothing","+10","-1","True","Yes"],"num_errors":0,"rt":19084.30499996757,"trial_type":"pit-comprehension","trial_index":16,"time_elapsed":434433,"internal_node_id":"0.0-5.0-5.0","task_version":"test-retest"},{"trial_type":"call-function","trial_index":17,"time_elapsed":434474,"internal_node_id":"0.0-6.0","task_version":"test-retest"},{"view_history":"[{\"page_index\":0,\"viewing_time\":2060.620000003837},{\"page_index\":1,\"viewing_time\":2739.724999992177}]","rt":4801.169999991544,"trial_type":"pit-instructions","trial_index":18,"time_elapsed":439276,"internal_node_id":"0.0-7.0","task_version":"test-retest"},{"Rune":"rune_02_haglaz","Hex":"#ffcc3399","Correct":-1,"Choice":32,"RT":558.9649999747053,"Accuracy":0,"Outcome":"-10","Keys":[2059.3649999937043],"TotalKeys":1,"Block":1,"Trial":1,"Robot":4,"Valence":"Lose","Action":"No-Go","Sham":0,"Color":"yellow","trial_type":"pit-trial","trial_index":19,"time_elapsed":442402,"internal_node_id":"0.0-8.0","task_version":"test-retest"},{"Rune":"rune_02_raido","Hex":"#3366ff99","Correct":32,"Choice":32,"RT":422.84499999368563,"Accuracy":1,"Outcome":"+10","Keys":[1923.4399999841116],"TotalKeys":1,"Block":1,"Trial":2,"Robot":1,"Valence":"Win","Action":"Go","Sham":0,"Color":"blue","trial_type":"pit-trial","trial_index":20,"time_elapsed":445366,"internal_node_id":"0.0-9.0","task_version":"test-retest"},{"Rune":"rune_02_os","Hex":"#ffcc3399","Correct":32,"Choice":-1,"RT":-1,"Accuracy":0,"Outcome":"-10","Keys":[],"TotalKeys":0,"Block":1,"Trial":3,"Robot":3,"Valence":"Lose","Action":"Go","Sham":0,"Color":"yellow","trial_type":"pit-trial","trial_index":21,"time_elapsed":449406,"internal_node_id":"0.0-10.0","task_version":"test-retest"},{"Rune":"rune_02_cen","Hex":"#3366ff99","Correct":-1,"Choice":32,"RT":455.9449999942444,"Accuracy":0,"Outcome":"+1","Keys":[1956.9650000194088],"TotalKeys":1,"Block":1,"Trial":4,"Robot":2,"Valence":"Win","Action":"No-Go","Sham":0,"Color":"blue","trial_type":"pit-trial","trial_index":22,"time_elapsed":452403,"internal_node_id":"0.0-11.0","task_version":"test-retest"},{"Rune":"rune_02_os","Hex":"#ffcc3399","Correct":32,"Choice":32,"RT":265.3899999568239,"Accuracy":1,"Outcome":"-1","Keys":[1766.234999988228],"TotalKeys":1,"Block":1,"Trial":5,"Robot":3,"Valence":"Lose","Action":"Go","Sham":0,"Color":"yellow","trial_type":"pit-trial","trial_index":23,"time_elapsed":455204,"internal_node_id":"0.0-12.0","task_version":"test-retest"},{"Rune":"rune_02_cen","Hex":"#3366ff99","Correct":-1,"Choice":32,"RT":156.46500000730157,"Accuracy":0,"Outcome":"+1","Keys":[1656.9000000017695],"TotalKeys":1,"Block":1,"Trial":6,"Robot":2,"Valence":"Win","Action":"No-Go","Sham":0,"Color":"blue","trial_type":"pit-trial","trial_index":24,"time_elapsed":457900,"internal_node_id":"0.0-13.0","task_version":"test-retest"},{"Rune":"rune_02_raido","Hex":"#3366ff99","Correct":32,"Choice":32,"RT":328.07500002672896,"Accuracy":1,"Outcome":"+1","Keys":[1828.3250000094995],"TotalKeys":1,"Block":1,"Trial":7,"Robot":1,"Valence":"Win","Action":"Go","Sham":1,"Color":"blue","trial_type":"pit-trial","trial_index":25,"time_elapsed":460769,"internal_node_id":"0.0-14.0","task_version":"test-retest"},{"Rune":"rune_02_haglaz","Hex":"#ffcc3399","Correct":-1,"Choice":-1,"RT":-1,"Accuracy":1,"Outcome":"-1","Keys":[],"TotalKeys":0,"Block":1,"Trial":8,"Robot":4,"Valence":"Lose","Action":"No-Go","Sham":0,"Color":"yellow","trial_type":"pit-trial","trial_index":26,"time_elapsed":464808,"internal_node_id":"0.0-15.0","task_version":"test-retest"},{"Rune":"rune_02_os","Hex":"#ffcc3399","Correct":32,"Choice":32,"RT":326.1499999789521,"Accuracy":1,"Outcome":"-10","Keys":[1827.4799999780953],"TotalKeys":1,"Block":1,"Trial":9,"Robot":3,"Valence":"Lose","Action":"Go","Sham":1,"Color":"yellow","trial_type":"pit-trial","trial_index":27,"time_elapsed":467698,"internal_node_id":"0.0-16.0","task_version":"test-retest"},{"Rune":"rune_02_raido","Hex":"#3366ff99","Correct":32,"Choice":32,"RT":271.99999999720603,"Accuracy":1,"Outcome":"+10","Keys":[1773.464999976568],"TotalKeys":1,"Block":1,"Trial":10,"Robot":1,"Valence":"Win","Action":"Go","Sham":0,"Color":"blue","trial_type":"pit-trial","trial_index":28,"time_elapsed":470511,"internal_node_id":"0.0-17.0","task_version":"test-retest"},{"Rune":"rune_02_haglaz","Hex":"#ffcc3399","Correct":-1,"Choice":32,"RT":1013.4700000053272,"Accuracy":0,"Outcome":"-10","Keys":[2513.8150000129826],"TotalKeys":1,"Block":1,"Trial":11,"Robot":4,"Valence":"Lose","Action":"No-Go","Sham":0,"Color":"yellow","trial_type":"pit-trial","trial_index":29,"time_elapsed":474062,"internal_node_id":"0.0-18.0","task_version":"test-retest"},{"Rune":"rune_02_cen","Hex":"#3366ff99","Correct":-1,"Choice":32,"RT":564.2099999822676,"Accuracy":0,"Outcome":"+1","Keys":[2064.2700000316836],"TotalKeys":1,"Block":1,"Trial":12,"Robot":2,"Valence":"Win","Action":"No-Go","Sham":0,"Color":"blue","trial_type":"pit-trial","trial_index":30,"time_elapsed":477188,"internal_node_id":"0.0-19.0","task_version":"test-retest"},{"Rune":"rune_02_os","Hex":"#ffcc3399","Correct":32,"Choice":32,"RT":524.1249999962747,"Accuracy":1,"Outcome":"-1","Keys":[2025.679999962449],"TotalKeys":1,"Block":1,"Trial":13,"Robot":3,"Valence":"Lose","Action":"Go","Sham":0,"Color":"yellow","trial_type":"pit-trial","trial_index":31,"time_elapsed":480277,"internal_node_id":"0.0-20.0","task_version":"test-retest"},{"Rune":"rune_02_cen","Hex":"#3366ff99","Correct":-1,"Choice":32,"RT":505.57499995920807,"Accuracy":0,"Outcome":"+1","Keys":[2006.6000000224449],"TotalKeys":1,"Block":1,"Trial":14,"Robot":2,"Valence":"Win","Action":"No-Go","Sham":0,"Color":"blue","trial_type":"pit-trial","trial_index":32,"time_elapsed":483348,"internal_node_id":"0.0-21.0","task_version":"test-retest"},{"Rune":"rune_02_haglaz","Hex":"#ffcc3399","Correct":-1,"Choice":-1,"RT":-1,"Accuracy":1,"Outcome":"-1","Keys":[],"TotalKeys":0,"Block":1,"Trial":15,"Robot":4,"Valence":"Lose","Action":"No-Go","Sham":0,"Color":"yellow","trial_type":"pit-trial","trial_index":33,"time_elapsed":487396,"internal_node_id":"0.0-22.0","task_version":"test-retest"},{"Rune":"rune_02_raido","Hex":"#3366ff99","Correct":32,"Choice":32,"RT":403.5450000083074,"Accuracy":1,"Outcome":"+10","Keys":[1904.790000000503],"TotalKeys":1,"Block":1,"Trial":16,"Robot":1,"Valence":"Win","Action":"Go","Sham":0,"Color":"blue","trial_type":"pit-trial","trial_index":34,"time_elapsed":490334,"internal_node_id":"0.0-23.0","task_version":"test-retest"},{"Rune":"rune_02_cen","Hex":"#3366ff99","Correct":-1,"Choice":32,"RT":355.9499999973923,"Accuracy":0,"Outcome":"+10","Keys":[1857.9550000140443],"TotalKeys":1,"Block":1,"Trial":17,"Robot":2,"Valence":"Win","Action":"No-Go","Sham":1,"Color":"blue","trial_type":"pit-trial","trial_index":35,"time_elapsed":493243,"internal_node_id":"0.0-24.0","task_version":"test-retest"},{"Rune":"rune_02_os","Hex":"#ffcc3399","Correct":32,"Choice":-1,"RT":-1,"Accuracy":0,"Outcome":"-10","Keys":[],"TotalKeys":0,"Block":1,"Trial":18,"Robot":3,"Valence":"Lose","Action":"Go","Sham":0,"Color":"yellow","trial_type":"pit-trial","trial_index":36,"time_elapsed":497279,"internal_node_id":"0.0-25.0","task_version":"test-retest"},{"Rune":"rune_02_raido","Hex":"#3366ff99","Correct":32,"Choice":-1,"RT":-1,"Accuracy":0,"Outcome":"+1","Keys":[],"TotalKeys":0,"Block":1,"Trial":19,"Robot":1,"Valence":"Win","Action":"Go","Sham":0,"Color":"blue","trial_type":"pit-trial","trial_index":37,"time_elapsed":501317,"internal_node_id":"0.0-26.0","task_version":"test-retest"},{"Rune":"rune_02_haglaz","Hex":"#ffcc3399","Correct":-1,"Choice":-1,"RT":-1,"Accuracy":1,"Outcome":"-10","Keys":[],"TotalKeys":0,"Block":1,"Trial":20,"Robot":4,"Valence":"Lose","Action":"No-Go","Sham":1,"Color":"yellow","trial_type":"pit-trial","trial_index":38,"time_elapsed":505376,"internal_node_id":"0.0-27.0","task_version":"test-retest"},{"Rune":"rune_02_cen","Hex":"#3366ff99","Correct":-1,"Choice":-1,"RT":-1,"Accuracy":1,"Outcome":"+10","Keys":[],"TotalKeys":0,"Block":1,"Trial":21,"Robot":2,"Valence":"Win","Action":"No-Go","Sham":0,"Color":"blue","trial_type":"pit-trial","trial_index":39,"time_elapsed":509410,"internal_node_id":"0.0-28.0","task_version":"test-retest"},{"Rune":"rune_02_haglaz","Hex":"#ffcc3399","Correct":-1,"Choice":-1,"RT":-1,"Accuracy":1,"Outcome":"-1","Keys":[],"TotalKeys":0,"Block":1,"Trial":22,"Robot":4,"Valence":"Lose","Action":"No-Go","Sham":0,"Color":"yellow","trial_type":"pit-trial","trial_index":40,"time_elapsed":513443,"internal_node_id":"0.0-29.0","task_version":"test-retest"},{"Rune":"rune_02_raido","Hex":"#3366ff99","Correct":32,"Choice":-1,"RT":-1,"Accuracy":0,"Outcome":"+1","Keys":[],"TotalKeys":0,"Block":1,"Trial":23,"Robot":1,"Valence":"Win","Action":"Go","Sham":0,"Color":"blue","trial_type":"pit-trial","trial_index":41,"time_elapsed":517481,"internal_node_id":"0.0-30.0","task_version":"test-retest"},{"Rune":"rune_02_os","Hex":"#ffcc3399","Correct":32,"Choice":-1,"RT":-1,"Accuracy":0,"Outcome":"-10","Keys":[],"TotalKeys":0,"Block":1,"Trial":24,"Robot":3,"Valence":"Lose","Action":"Go","Sham":0,"Color":"yellow","trial_type":"pit-trial","trial_index":42,"time_elapsed":521519,"internal_node_id":"0.0-31.0","task_version":"test-retest"},{"Rune":"rune_02_raido","Hex":"#3366ff99","Correct":32,"Choice":-1,"RT":-1,"Accuracy":0,"Outcome":"+1","Keys":[],"TotalKeys":0,"Block":1,"Trial":25,"Robot":1,"Valence":"Win","Action":"Go","Sham":0,"Color":"blue","trial_type":"pit-trial","trial_index":43,"time_elapsed":525586,"internal_node_id":"0.0-32.0","task_version":"test-retest"},{"Rune":"rune_02_haglaz","Hex":"#ffcc3399","Correct":-1,"Choice":-1,"RT":-1,"Accuracy":1,"Outcome":"-1","Keys":[],"TotalKeys":0,"Block":1,"Trial":26,"Robot":4,"Valence":"Lose","Action":"No-Go","Sham":0,"Color":"yellow","trial_type":"pit-trial","trial_index":44,"time_elapsed":529625,"internal_node_id":"0.0-33.0","task_version":"test-retest"},{"Rune":"rune_02_cen","Hex":"#3366ff99","Correct":-1,"Choice":-1,"RT":-1,"Accuracy":1,"Outcome":"+10","Keys":[],"TotalKeys":0,"Block":1,"Trial":27,"Robot":2,"Valence":"Win","Action":"No-Go","Sham":0,"Color":"blue","trial_type":"pit-trial","trial_index":45,"time_elapsed":533684,"internal_node_id":"0.0-34.0","task_version":"test-retest"},{"Rune":"rune_02_os","Hex":"#ffcc3399","Correct":32,"Choice":-1,"RT":-1,"Accuracy":0,"Outcome":"-10","Keys":[],"TotalKeys":0,"Block":1,"Trial":28,"Robot":3,"Valence":"Lose","Action":"Go","Sham":0,"Color":"yellow","trial_type":"pit-trial","trial_index":46,"time_elapsed":537721,"internal_node_id":"0.0-35.0","task_version":"test-retest"},{"Rune":"rune_02_cen","Hex":"#3366ff99","Correct":-1,"Choice":-1,"RT":-1,"Accuracy":1,"Outcome":"+1","Keys":[],"TotalKeys":0,"Block":1,"Trial":29,"Robot":2,"Valence":"Win","Action":"No-Go","Sham":1,"Color":"blue","trial_type":"pit-trial","trial_index":47,"time_elapsed":541759,"internal_node_id":"0.0-36.0","task_version":"test-retest"},{"Rune":"rune_02_raido","Hex":"#3366ff99","Correct":32,"Choice":-1,"RT":-1,"Accuracy":0,"Outcome":"+1","Keys":[],"TotalKeys":0,"Block":1,"Trial":30,"Robot":1,"Valence":"Win","Action":"Go","Sham":0,"Color":"blue","trial_type":"pit-trial","trial_index":48,"time_elapsed":545796,"internal_node_id":"0.0-37.0","task_version":"test-retest"},{"Rune":"rune_02_haglaz","Hex":"#ffcc3399","Correct":-1,"Choice":-1,"RT":-1,"Accuracy":1,"Outcome":"-10","Keys":[],"TotalKeys":0,"Block":1,"Trial":31,"Robot":4,"Valence":"Lose","Action":"No-Go","Sham":1,"Color":"yellow","trial_type":"pit-trial","trial_index":49,"time_elapsed":549838,"internal_node_id":"0.0-38.0","task_version":"test-retest"},{"Rune":"rune_02_os","Hex":"#ffcc3399","Correct":32,"Choice":-1,"RT":-1,"Accuracy":0,"Outcome":"-1","Keys":[],"TotalKeys":0,"Block":1,"Trial":32,"Robot":3,"Valence":"Lose","Action":"Go","Sham":1,"Color":"yellow","trial_type":"pit-trial","trial_index":50,"time_elapsed":553901,"internal_node_id":"0.0-39.0","task_version":"test-retest"},{"Rune":"rune_02_haglaz","Hex":"#ffcc3399","Correct":-1,"Choice":32,"RT":1252.2449999814853,"Accuracy":0,"Outcome":"-10","Keys":[163.69999997550622,2752.5449999957345],"TotalKeys":2,"Block":1,"Trial":33,"Robot":4,"Valence":"Lose","Action":"No-Go","Sham":0,"Color":"yellow","trial_type":"pit-trial","trial_index":51,"time_elapsed":557691,"internal_node_id":"0.0-40.0","task_version":"test-retest"},{"Rune":"rune_02_cen","Hex":"#3366ff99","Correct":-1,"Choice":32,"RT":438.93999996362254,"Accuracy":0,"Outcome":"+1","Keys":[1940.8849999890663],"TotalKeys":1,"Block":1,"Trial":34,"Robot":2,"Valence":"Win","Action":"No-Go","Sham":0,"Color":"blue","trial_type":"pit-trial","trial_index":52,"time_elapsed":560671,"internal_node_id":"0.0-41.0","task_version":"test-retest"},{"Rune":"rune_02_os","Hex":"#ffcc3399","Correct":32,"Choice":32,"RT":673.4350000042468,"Accuracy":1,"Outcome":"-1","Keys":[2174.1799999726936],"TotalKeys":1,"Block":1,"Trial":35,"Robot":3,"Valence":"Lose","Action":"Go","Sham":0,"Color":"yellow","trial_type":"pit-trial","trial_index":53,"time_elapsed":563885,"internal_node_id":"0.0-42.0","task_version":"test-retest"},{"Rune":"rune_02_raido","Hex":"#3366ff99","Correct":32,"Choice":32,"RT":562.7850000164472,"Accuracy":1,"Outcome":"+10","Keys":[1192.2250000061467,2062.9600000102073],"TotalKeys":2,"Block":1,"Trial":36,"Robot":1,"Valence":"Win","Action":"Go","Sham":0,"Color":"blue","trial_type":"pit-trial","trial_index":54,"time_elapsed":566993,"internal_node_id":"0.0-43.0","task_version":"test-retest"},{"Rune":"rune_02_haglaz","Hex":"#ffcc3399","Correct":-1,"Choice":-1,"RT":-1,"Accuracy":1,"Outcome":"-1","Keys":[],"TotalKeys":0,"Block":1,"Trial":37,"Robot":4,"Valence":"Lose","Action":"No-Go","Sham":0,"Color":"yellow","trial_type":"pit-trial","trial_index":55,"time_elapsed":571048,"internal_node_id":"0.0-44.0","task_version":"test-retest"},{"Rune":"rune_02_raido","Hex":"#3366ff99","Correct":32,"Choice":32,"RT":416.2650000071153,"Accuracy":1,"Outcome":"+1","Keys":[1916.9349999865517],"TotalKeys":1,"Block":1,"Trial":38,"Robot":1,"Valence":"Win","Action":"Go","Sham":1,"Color":"blue","trial_type":"pit-trial","trial_index":56,"time_elapsed":574010,"internal_node_id":"0.0-45.0","task_version":"test-retest"},{"Rune":"rune_02_cen","Hex":"#3366ff99","Correct":-1,"Choice":32,"RT":448.80999997258186,"Accuracy":0,"Outcome":"+1","Keys":[1949.4050000212155],"TotalKeys":1,"Block":1,"Trial":39,"Robot":2,"Valence":"Win","Action":"No-Go","Sham":0,"Color":"blue","trial_type":"pit-trial","trial_index":57,"time_elapsed":577021,"internal_node_id":"0.0-46.0","task_version":"test-retest"},{"Rune":"rune_02_os","Hex":"#ffcc3399","Correct":32,"Choice":32,"RT":395.3849999816157,"Accuracy":1,"Outcome":"-1","Keys":[1896.294999984093],"TotalKeys":1,"Block":1,"Trial":40,"Robot":3,"Valence":"Lose","Action":"Go","Sham":0,"Color":"yellow","trial_type":"pit-trial","trial_index":58,"time_elapsed":579955,"internal_node_id":"0.0-47.0","task_version":"test-retest"},{"Rune":"rune_02_raido","Hex":"#3366ff99","Correct":32,"Choice":32,"RT":406.22000000439584,"Accuracy":1,"Outcome":"+10","Keys":[1906.8749999860302],"TotalKeys":1,"Block":1,"Trial":41,"Robot":1,"Valence":"Win","Action":"Go","Sham":0,"Color":"blue","trial_type":"pit-trial","trial_index":59,"time_elapsed":582901,"internal_node_id":"0.0-48.0","task_version":"test-retest"},{"Rune":"rune_02_os","Hex":"#ffcc3399","Correct":32,"Choice":-1,"RT":-1,"Accuracy":0,"Outcome":"-10","Keys":[],"TotalKeys":0,"Block":1,"Trial":42,"Robot":3,"Valence":"Lose","Action":"Go","Sham":0,"Color":"yellow","trial_type":"pit-trial","trial_index":60,"time_elapsed":586939,"internal_node_id":"0.0-49.0","task_version":"test-retest"},{"Rune":"rune_02_cen","Hex":"#3366ff99","Correct":-1,"Choice":32,"RT":388.8399999705143,"Accuracy":0,"Outcome":"+1","Keys":[1889.4399999990128],"TotalKeys":1,"Block":1,"Trial":43,"Robot":2,"Valence":"Win","Action":"No-Go","Sham":0,"Color":"blue","trial_type":"pit-trial","trial_index":61,"time_elapsed":589866,"internal_node_id":"0.0-50.0","task_version":"test-retest"},{"Rune":"rune_02_haglaz","Hex":"#ffcc3399","Correct":-1,"Choice":32,"RT":690.4299999587238,"Accuracy":0,"Outcome":"-10","Keys":[2191.8900000164285],"TotalKeys":1,"Block":1,"Trial":44,"Robot":4,"Valence":"Lose","Action":"No-Go","Sham":0,"Color":"yellow","trial_type":"pit-trial","trial_index":62,"time_elapsed":593096,"internal_node_id":"0.0-51.0","task_version":"test-retest"},{"Rune":"rune_02_haglaz","Hex":"#ffcc3399","Correct":-1,"Choice":32,"RT":443.24500003131106,"Accuracy":0,"Outcome":"-10","Keys":[1944.5749999722466],"TotalKeys":1,"Block":1,"Trial":45,"Robot":4,"Valence":"Lose","Action":"No-Go","Sham":0,"Color":"yellow","trial_type":"pit-trial","trial_index":63,"time_elapsed":596090,"internal_node_id":"0.0-52.0","task_version":"test-retest"},{"Rune":"rune_02_os","Hex":"#ffcc3399","Correct":32,"Choice":-1,"RT":-1,"Accuracy":0,"Outcome":"-1","Keys":[],"TotalKeys":0,"Block":1,"Trial":46,"Robot":3,"Valence":"Lose","Action":"Go","Sham":1,"Color":"yellow","trial_type":"pit-trial","trial_index":64,"time_elapsed":600143,"internal_node_id":"0.0-53.0","task_version":"test-retest"},{"Rune":"rune_02_raido","Hex":"#3366ff99","Correct":32,"Choice":32,"RT":322.0350000192411,"Accuracy":1,"Outcome":"+10","Keys":[1822.7349999942817],"TotalKeys":1,"Block":1,"Trial":47,"Robot":1,"Valence":"Win","Action":"Go","Sham":0,"Color":"blue","trial_type":"pit-trial","trial_index":65,"time_elapsed":603035,"internal_node_id":"0.0-54.0","task_version":"test-retest"},{"Rune":"rune_02_cen","Hex":"#3366ff99","Correct":-1,"Choice":32,"RT":355.0849999883212,"Accuracy":0,"Outcome":"+1","Keys":[1855.405000038445],"TotalKeys":1,"Block":1,"Trial":48,"Robot":2,"Valence":"Win","Action":"No-Go","Sham":0,"Color":"blue","trial_type":"pit-trial","trial_index":66,"time_elapsed":605952,"internal_node_id":"0.0-55.0","task_version":"test-retest"},{"Rune":"rune_02_os","Hex":"#ffcc3399","Correct":32,"Choice":32,"RT":714.2100000055507,"Accuracy":1,"Outcome":"-1","Keys":[2215.8850000123493],"TotalKeys":1,"Block":1,"Trial":49,"Robot":3,"Valence":"Lose","Action":"Go","Sham":0,"Color":"yellow","trial_type":"pit-trial","trial_index":67,"time_elapsed":609205,"internal_node_id":"0.0-56.0","task_version":"test-retest"},{"Rune":"rune_02_raido","Hex":"#3366ff99","Correct":32,"Choice":32,"RT":327.3499999777414,"Accuracy":1,"Outcome":"+10","Keys":[1827.3300000000745],"TotalKeys":1,"Block":1,"Trial":50,"Robot":1,"Valence":"Win","Action":"Go","Sham":0,"Color":"blue","trial_type":"pit-trial","trial_index":68,"time_elapsed":612071,"internal_node_id":"0.0-57.0","task_version":"test-retest"},{"Rune":"rune_02_haglaz","Hex":"#ffcc3399","Correct":-1,"Choice":-1,"RT":-1,"Accuracy":1,"Outcome":"-1","Keys":[],"TotalKeys":0,"Block":1,"Trial":51,"Robot":4,"Valence":"Lose","Action":"No-Go","Sham":0,"Color":"yellow","trial_type":"pit-trial","trial_index":69,"time_elapsed":616110,"internal_node_id":"0.0-58.0","task_version":"test-retest"},{"Rune":"rune_02_cen","Hex":"#3366ff99","Correct":-1,"Choice":32,"RT":407.05500001786277,"Accuracy":0,"Outcome":"+1","Keys":[1908.530000015162],"TotalKeys":1,"Block":1,"Trial":52,"Robot":2,"Valence":"Win","Action":"No-Go","Sham":0,"Color":"blue","trial_type":"pit-trial","trial_index":70,"time_elapsed":619056,"internal_node_id":"0.0-59.0","task_version":"test-retest"},{"Rune":"rune_02_haglaz","Hex":"#ffcc3399","Correct":-1,"Choice":-1,"RT":-1,"Accuracy":1,"Outcome":"-10","Keys":[],"TotalKeys":0,"Block":1,"Trial":53,"Robot":4,"Valence":"Lose","Action":"No-Go","Sham":1,"Color":"yellow","trial_type":"pit-trial","trial_index":71,"time_elapsed":623107,"internal_node_id":"0.0-60.0","task_version":"test-retest"},{"Rune":"rune_02_raido","Hex":"#3366ff99","Correct":32,"Choice":32,"RT":352.2450000164099,"Accuracy":1,"Outcome":"+1","Keys":[1853.2149999518879],"TotalKeys":1,"Block":1,"Trial":54,"Robot":1,"Valence":"Win","Action":"Go","Sham":1,"Color":"blue","trial_type":"pit-trial","trial_index":72,"time_elapsed":625999,"internal_node_id":"0.0-61.0","task_version":"test-retest"},{"Rune":"rune_02_os","Hex":"#ffcc3399","Correct":32,"Choice":-1,"RT":-1,"Accuracy":0,"Outcome":"-10","Keys":[],"TotalKeys":0,"Block":1,"Trial":55,"Robot":3,"Valence":"Lose","Action":"Go","Sham":0,"Color":"yellow","trial_type":"pit-trial","trial_index":73,"time_elapsed":630038,"internal_node_id":"0.0-62.0","task_version":"test-retest"},{"Rune":"rune_02_cen","Hex":"#3366ff99","Correct":-1,"Choice":32,"RT":239.25499996403232,"Accuracy":0,"Outcome":"+10","Keys":[1739.884999988135],"TotalKeys":1,"Block":1,"Trial":56,"Robot":2,"Valence":"Win","Action":"No-Go","Sham":1,"Color":"blue","trial_type":"pit-trial","trial_index":74,"time_elapsed":632817,"internal_node_id":"0.0-63.0","task_version":"test-retest"},{"Rune":"rune_02_os","Hex":"#ffcc3399","Correct":32,"Choice":32,"RT":778.2049999805167,"Accuracy":1,"Outcome":"-1","Keys":[2279.1050000232644],"TotalKeys":1,"Block":1,"Trial":57,"Robot":3,"Valence":"Lose","Action":"Go","Sham":0,"Color":"yellow","trial_type":"pit-trial","trial_index":75,"time_elapsed":636137,"internal_node_id":"0.0-64.0","task_version":"test-retest"},{"Rune":"rune_02_raido","Hex":"#3366ff99","Correct":32,"Choice":32,"RT":333.43499997863546,"Accuracy":1,"Outcome":"+10","Keys":[1834.119999955874],"TotalKeys":1,"Block":1,"Trial":58,"Robot":1,"Valence":"Win","Action":"Go","Sham":0,"Color":"blue","trial_type":"pit-trial","trial_index":76,"time_elapsed":639007,"internal_node_id":"0.0-65.0","task_version":"test-retest"},{"Rune":"rune_02_cen","Hex":"#3366ff99","Correct":-1,"Choice":32,"RT":327.1599999861792,"Accuracy":0,"Outcome":"+1","Keys":[1828.0699999886565],"TotalKeys":1,"Block":1,"Trial":59,"Robot":2,"Valence":"Win","Action":"No-Go","Sham":0,"Color":"blue","trial_type":"pit-trial","trial_index":77,"time_elapsed":641871,"internal_node_id":"0.0-66.0","task_version":"test-retest"},{"Rune":"rune_02_haglaz","Hex":"#ffcc3399","Correct":-1,"Choice":32,"RT":524.0199999534525,"Accuracy":0,"Outcome":"-10","Keys":[2025.8449999964796],"TotalKeys":1,"Block":1,"Trial":60,"Robot":4,"Valence":"Lose","Action":"No-Go","Sham":0,"Color":"yellow","trial_type":"pit-trial","trial_index":78,"time_elapsed":644954,"internal_node_id":"0.0-67.0","task_version":"test-retest"},{"value":false,"trial_type":"call-function","trial_index":79,"time_elapsed":644986,"internal_node_id":"0.0-68.0","task_version":"test-retest"},{"view_history":"[{\"page_index\":0,\"viewing_time\":2981370.09500002},{\"page_index\":1,\"viewing_time\":1788.0049999803305}]","rt":2983159.1200000257,"trial_type":"pit-instructions","trial_index":80,"time_elapsed":3628143,"internal_node_id":"0.0-69.0","task_version":"test-retest"},{"Rune":"rune_02_cen","Hex":"#3366ff99","Correct":-1,"Choice":32,"RT":429.15999999968335,"Accuracy":0,"Outcome":"+1","Keys":[1930.114999995567],"TotalKeys":1,"Block":1,"Trial":61,"Robot":2,"Valence":"Win","Action":"No-Go","Sham":0,"Color":"blue","trial_type":"pit-trial","trial_index":81,"time_elapsed":3631168,"internal_node_id":"0.0-70.0","task_version":"test-retest"},{"Rune":"rune_02_haglaz","Hex":"#ffcc3399","Correct":-1,"Choice":32,"RT":948.355000000447,"Accuracy":0,"Outcome":"-10","Keys":[2449.305000016466],"TotalKeys":1,"Block":1,"Trial":62,"Robot":4,"Valence":"Lose","Action":"No-Go","Sham":0,"Color":"yellow","trial_type":"pit-trial","trial_index":82,"time_elapsed":3634718,"internal_node_id":"0.0-71.0","task_version":"test-retest"},{"Rune":"rune_02_os","Hex":"#ffcc3399","Correct":32,"Choice":32,"RT":697.5550000206567,"Accuracy":1,"Outcome":"-1","Keys":[2198.5550000099465],"TotalKeys":1,"Block":1,"Trial":63,"Robot":3,"Valence":"Lose","Action":"Go","Sham":0,"Color":"yellow","trial_type":"pit-trial","trial_index":83,"time_elapsed":3637995,"internal_node_id":"0.0-72.0","task_version":"test-retest"},{"Rune":"rune_02_raido","Hex":"#3366ff99","Correct":32,"Choice":32,"RT":296.7350000399165,"Accuracy":1,"Outcome":"+1","Keys":[1796.9550000270829],"TotalKeys":1,"Block":1,"Trial":64,"Robot":1,"Valence":"Win","Action":"Go","Sham":1,"Color":"blue","trial_type":"pit-trial","trial_index":84,"time_elapsed":3640829,"internal_node_id":"0.0-73.0","task_version":"test-retest"},{"Rune":"rune_02_haglaz","Hex":"#ffcc3399","Correct":-1,"Choice":-1,"RT":-1,"Accuracy":1,"Outcome":"-1","Keys":[],"TotalKeys":0,"Block":1,"Trial":65,"Robot":4,"Valence":"Lose","Action":"No-Go","Sham":0,"Color":"yellow","trial_type":"pit-trial","trial_index":85,"time_elapsed":3644872,"internal_node_id":"0.0-74.0","task_version":"test-retest"},{"Rune":"rune_02_cen","Hex":"#3366ff99","Correct":-1,"Choice":32,"RT":370.28500001179054,"Accuracy":0,"Outcome":"+10","Keys":[1870.7100000465289],"TotalKeys":1,"Block":1,"Trial":66,"Robot":2,"Valence":"Win","Action":"No-Go","Sham":1,"Color":"blue","trial_type":"pit-trial","trial_index":86,"time_elapsed":3647794,"internal_node_id":"0.0-75.0","task_version":"test-retest"},{"Rune":"rune_02_raido","Hex":"#3366ff99","Correct":32,"Choice":32,"RT":331.12500002607703,"Accuracy":1,"Outcome":"+10","Keys":[1831.629999971483],"TotalKeys":1,"Block":1,"Trial":67,"Robot":1,"Valence":"Win","Action":"Go","Sham":0,"Color":"blue","trial_type":"pit-trial","trial_index":87,"time_elapsed":3650683,"internal_node_id":"0.0-76.0","task_version":"test-retest"},{"Rune":"rune_02_os","Hex":"#ffcc3399","Correct":32,"Choice":32,"RT":1273.4200000413693,"Accuracy":1,"Outcome":"-10","Keys":[2773.65499996813],"TotalKeys":1,"Block":1,"Trial":68,"Robot":3,"Valence":"Lose","Action":"Go","Sham":1,"Color":"yellow","trial_type":"pit-trial","trial_index":88,"time_elapsed":3654548,"internal_node_id":"0.0-77.0","task_version":"test-retest"},{"Rune":"rune_02_os","Hex":"#ffcc3399","Correct":32,"Choice":-1,"RT":-1,"Accuracy":0,"Outcome":"-10","Keys":[3842.3150000162423],"TotalKeys":1,"Block":1,"Trial":69,"Robot":3,"Valence":"Lose","Action":"Go","Sham":0,"Color":"yellow","trial_type":"pit-trial","trial_index":89,"time_elapsed":3658639,"internal_node_id":"0.0-78.0","task_version":"test-retest"},{"Rune":"rune_02_cen","Hex":"#3366ff99","Correct":-1,"Choice":32,"RT":300.5299999495037,"Accuracy":0,"Outcome":"+1","Keys":[1801.465000025928],"TotalKeys":1,"Block":1,"Trial":70,"Robot":2,"Valence":"Win","Action":"No-Go","Sham":0,"Color":"blue","trial_type":"pit-trial","trial_index":90,"time_elapsed":3661506,"internal_node_id":"0.0-79.0","task_version":"test-retest"},{"Rune":"rune_02_raido","Hex":"#3366ff99","Correct":32,"Choice":32,"RT":372.12000001454726,"Accuracy":1,"Outcome":"+10","Keys":[1872.8249999694526],"TotalKeys":1,"Block":1,"Trial":71,"Robot":1,"Valence":"Win","Action":"Go","Sham":0,"Color":"blue","trial_type":"pit-trial","trial_index":91,"time_elapsed":3664471,"internal_node_id":"0.0-80.0","task_version":"test-retest"},{"Rune":"rune_02_haglaz","Hex":"#ffcc3399","Correct":-1,"Choice":-1,"RT":-1,"Accuracy":1,"Outcome":"-1","Keys":[],"TotalKeys":0,"Block":1,"Trial":72,"Robot":4,"Valence":"Lose","Action":"No-Go","Sham":0,"Color":"yellow","trial_type":"pit-trial","trial_index":92,"time_elapsed":3668538,"internal_node_id":"0.0-81.0","task_version":"test-retest"},{"Rune":"rune_02_raido","Hex":"#3366ff99","Correct":32,"Choice":32,"RT":321.02999999187887,"Accuracy":1,"Outcome":"+10","Keys":[1822.06999999471],"TotalKeys":1,"Block":1,"Trial":73,"Robot":1,"Valence":"Win","Action":"Go","Sham":0,"Color":"blue","trial_type":"pit-trial","trial_index":93,"time_elapsed":3671451,"internal_node_id":"0.0-82.0","task_version":"test-retest"},{"Rune":"rune_02_cen","Hex":"#3366ff99","Correct":-1,"Choice":32,"RT":345.9850000217557,"Accuracy":0,"Outcome":"+1","Keys":[1846.8700000084937],"TotalKeys":1,"Block":1,"Trial":74,"Robot":2,"Valence":"Win","Action":"No-Go","Sham":0,"Color":"blue","trial_type":"pit-trial","trial_index":94,"time_elapsed":3674380,"internal_node_id":"0.0-83.0","task_version":"test-retest"},{"Rune":"rune_02_haglaz","Hex":"#ffcc3399","Correct":-1,"Choice":-1,"RT":-1,"Accuracy":1,"Outcome":"-1","Keys":[],"TotalKeys":0,"Block":1,"Trial":75,"Robot":4,"Valence":"Lose","Action":"No-Go","Sham":0,"Color":"yellow","trial_type":"pit-trial","trial_index":95,"time_elapsed":3678456,"internal_node_id":"0.0-84.0","task_version":"test-retest"},{"Rune":"rune_02_os","Hex":"#ffcc3399","Correct":32,"Choice":32,"RT":1079.2549999896437,"Accuracy":1,"Outcome":"-1","Keys":[2580.580000008922],"TotalKeys":1,"Block":1,"Trial":76,"Robot":3,"Valence":"Lose","Action":"Go","Sham":0,"Color":"yellow","trial_type":"pit-trial","trial_index":96,"time_elapsed":3682117,"internal_node_id":"0.0-85.0","task_version":"test-retest"},{"Rune":"rune_02_haglaz","Hex":"#ffcc3399","Correct":-1,"Choice":-1,"RT":-1,"Accuracy":1,"Outcome":"-10","Keys":[],"TotalKeys":0,"Block":1,"Trial":77,"Robot":4,"Valence":"Lose","Action":"No-Go","Sham":1,"Color":"yellow","trial_type":"pit-trial","trial_index":97,"time_elapsed":3686223,"internal_node_id":"0.0-86.0","task_version":"test-retest"},{"Rune":"rune_02_raido","Hex":"#3366ff99","Correct":32,"Choice":32,"RT":302.43999999947846,"Accuracy":1,"Outcome":"+10","Keys":[1803.8200000301003],"TotalKeys":1,"Block":1,"Trial":78,"Robot":1,"Valence":"Win","Action":"Go","Sham":0,"Color":"blue","trial_type":"pit-trial","trial_index":98,"time_elapsed":3689081,"internal_node_id":"0.0-87.0","task_version":"test-retest"},{"Rune":"rune_02_cen","Hex":"#3366ff99","Correct":-1,"Choice":32,"RT":249.74000005749986,"Accuracy":0,"Outcome":"+1","Keys":[1750.9999999892898],"TotalKeys":1,"Block":1,"Trial":79,"Robot":2,"Valence":"Win","Action":"No-Go","Sham":0,"Color":"blue","trial_type":"pit-trial","trial_index":99,"time_elapsed":3691897,"internal_node_id":"0.0-88.0","task_version":"test-retest"},{"Rune":"rune_02_os","Hex":"#ffcc3399","Correct":32,"Choice":32,"RT":810.4199999943376,"Accuracy":1,"Outcome":"-1","Keys":[2311.279999965336],"TotalKeys":1,"Block":1,"Trial":80,"Robot":3,"Valence":"Lose","Action":"Go","Sham":0,"Color":"yellow","trial_type":"pit-trial","trial_index":100,"time_elapsed":3695243,"internal_node_id":"0.0-89.0","task_version":"test-retest"},{"Rune":"rune_02_os","Hex":"#ffcc3399","Correct":32,"Choice":32,"RT":297.3449999699369,"Accuracy":1,"Outcome":"-1","Keys":[1797.7899999823421],"TotalKeys":1,"Block":1,"Trial":81,"Robot":3,"Valence":"Lose","Action":"Go","Sham":0,"Color":"yellow","trial_type":"pit-trial","trial_index":101,"time_elapsed":3698129,"internal_node_id":"0.0-90.0","task_version":"test-retest"},{"Rune":"rune_02_cen","Hex":"#3366ff99","Correct":-1,"Choice":32,"RT":315.68500003777444,"Accuracy":0,"Outcome":"+10","Keys":[1816.8949999962933],"TotalKeys":1,"Block":1,"Trial":82,"Robot":2,"Valence":"Win","Action":"No-Go","Sham":1,"Color":"blue","trial_type":"pit-trial","trial_index":102,"time_elapsed":3701038,"internal_node_id":"0.0-91.0","task_version":"test-retest"},{"Rune":"rune_02_haglaz","Hex":"#ffcc3399","Correct":-1,"Choice":-1,"RT":-1,"Accuracy":1,"Outcome":"-10","Keys":[3517.195000022184],"TotalKeys":1,"Block":1,"Trial":83,"Robot":4,"Valence":"Lose","Action":"No-Go","Sham":1,"Color":"yellow","trial_type":"pit-trial","trial_index":103,"time_elapsed":3705129,"internal_node_id":"0.0-92.0","task_version":"test-retest"},{"Rune":"rune_02_raido","Hex":"#3366ff99","Correct":32,"Choice":32,"RT":301.75500002224,"Accuracy":1,"Outcome":"+10","Keys":[1802.6599999866448],"TotalKeys":1,"Block":1,"Trial":84,"Robot":1,"Valence":"Win","Action":"Go","Sham":0,"Color":"blue","trial_type":"pit-trial","trial_index":104,"time_elapsed":3707989,"internal_node_id":"0.0-93.0","task_version":"test-retest"},{"Rune":"rune_02_cen","Hex":"#3366ff99","Correct":-1,"Choice":32,"RT":306.4400000148453,"Accuracy":0,"Outcome":"+1","Keys":[1806.9200000027195],"TotalKeys":1,"Block":1,"Trial":85,"Robot":2,"Valence":"Win","Action":"No-Go","Sham":0,"Color":"blue","trial_type":"pit-trial","trial_index":105,"time_elapsed":3710890,"internal_node_id":"0.0-94.0","task_version":"test-retest"},{"Rune":"rune_02_raido","Hex":"#3366ff99","Correct":32,"Choice":32,"RT":358.5750000202097,"Accuracy":1,"Outcome":"+1","Keys":[1860.3149999980815],"TotalKeys":1,"Block":1,"Trial":86,"Robot":1,"Valence":"Win","Action":"Go","Sham":1,"Color":"blue","trial_type":"pit-trial","trial_index":106,"time_elapsed":3713817,"internal_node_id":"0.0-95.0","task_version":"test-retest"},{"Rune":"rune_02_os","Hex":"#ffcc3399","Correct":32,"Choice":32,"RT":456.06999995652586,"Accuracy":1,"Outcome":"-10","Keys":[1956.2750000040978],"TotalKeys":1,"Block":1,"Trial":87,"Robot":3,"Valence":"Lose","Action":"Go","Sham":1,"Color":"yellow","trial_type":"pit-trial","trial_index":107,"time_elapsed":3716828,"internal_node_id":"0.0-96.0","task_version":"test-retest"},{"Rune":"rune_02_haglaz","Hex":"#ffcc3399","Correct":-1,"Choice":32,"RT":402.4150000186637,"Accuracy":0,"Outcome":"-10","Keys":[1902.7700000442564],"TotalKeys":1,"Block":1,"Trial":88,"Robot":4,"Valence":"Lose","Action":"No-Go","Sham":0,"Color":"yellow","trial_type":"pit-trial","trial_index":108,"time_elapsed":3719773,"internal_node_id":"0.0-97.0","task_version":"test-retest"},{"Rune":"rune_02_haglaz","Hex":"#ffcc3399","Correct":-1,"Choice":-1,"RT":-1,"Accuracy":1,"Outcome":"-1","Keys":[],"TotalKeys":0,"Block":1,"Trial":89,"Robot":4,"Valence":"Lose","Action":"No-Go","Sham":0,"Color":"yellow","trial_type":"pit-trial","trial_index":109,"time_elapsed":3723861,"internal_node_id":"0.0-98.0","task_version":"test-retest"},{"Rune":"rune_02_cen","Hex":"#3366ff99","Correct":-1,"Choice":32,"RT":260.43500000378117,"Accuracy":0,"Outcome":"+1","Keys":[1761.1199999810196],"TotalKeys":1,"Block":1,"Trial":90,"Robot":2,"Valence":"Win","Action":"No-Go","Sham":0,"Color":"blue","trial_type":"pit-trial","trial_index":110,"time_elapsed":3726655,"internal_node_id":"0.0-99.0","task_version":"test-retest"},{"Rune":"rune_02_os","Hex":"#ffcc3399","Correct":32,"Choice":-1,"RT":-1,"Accuracy":0,"Outcome":"-10","Keys":[],"TotalKeys":0,"Block":1,"Trial":91,"Robot":3,"Valence":"Lose","Action":"Go","Sham":0,"Color":"yellow","trial_type":"pit-trial","trial_index":111,"time_elapsed":3730755,"internal_node_id":"0.0-100.0","task_version":"test-retest"},{"Rune":"rune_02_raido","Hex":"#3366ff99","Correct":32,"Choice":32,"RT":274.100000038743,"Accuracy":1,"Outcome":"+10","Keys":[1774.455000006128],"TotalKeys":1,"Block":1,"Trial":92,"Robot":1,"Valence":"Win","Action":"Go","Sham":0,"Color":"blue","trial_type":"pit-trial","trial_index":112,"time_elapsed":3733612,"internal_node_id":"0.0-101.0","task_version":"test-retest"},{"Rune":"rune_02_raido","Hex":"#3366ff99","Correct":32,"Choice":32,"RT":379.6899999724701,"Accuracy":1,"Outcome":"+10","Keys":[1880.1049999892712],"TotalKeys":1,"Block":1,"Trial":93,"Robot":1,"Valence":"Win","Action":"Go","Sham":0,"Color":"blue","trial_type":"pit-trial","trial_index":113,"time_elapsed":3736591,"internal_node_id":"0.0-102.0","task_version":"test-retest"},{"Rune":"rune_02_haglaz","Hex":"#ffcc3399","Correct":-1,"Choice":32,"RT":487.2949999989942,"Accuracy":0,"Outcome":"-10","Keys":[1989.0700000105426],"TotalKeys":1,"Block":1,"Trial":94,"Robot":4,"Valence":"Lose","Action":"No-Go","Sham":0,"Color":"yellow","trial_type":"pit-trial","trial_index":114,"time_elapsed":3739636,"internal_node_id":"0.0-103.0","task_version":"test-retest"},{"Rune":"rune_02_os","Hex":"#ffcc3399","Correct":32,"Choice":32,"RT":660.6349999783561,"Accuracy":1,"Outcome":"-1","Keys":[2162.624999997206],"TotalKeys":1,"Block":1,"Trial":95,"Robot":3,"Valence":"Lose","Action":"Go","Sham":0,"Color":"yellow","trial_type":"pit-trial","trial_index":115,"time_elapsed":3742859,"internal_node_id":"0.0-104.0","task_version":"test-retest"},{"Rune":"rune_02_cen","Hex":"#3366ff99","Correct":-1,"Choice":32,"RT":308.36000002454966,"Accuracy":0,"Outcome":"+1","Keys":[1808.3050000132062],"TotalKeys":1,"Block":1,"Trial":96,"Robot":2,"Valence":"Win","Action":"No-Go","Sham":0,"Color":"blue","trial_type":"pit-trial","trial_index":116,"time_elapsed":3745705,"internal_node_id":"0.0-105.0","task_version":"test-retest"},{"Rune":"rune_02_raido","Hex":"#3366ff99","Correct":32,"Choice":32,"RT":244.22000005142763,"Accuracy":1,"Outcome":"+10","Keys":[1745.3799999784678],"TotalKeys":1,"Block":1,"Trial":97,"Robot":1,"Valence":"Win","Action":"Go","Sham":0,"Color":"blue","trial_type":"pit-trial","trial_index":117,"time_elapsed":3748545,"internal_node_id":"0.0-106.0","task_version":"test-retest"},{"Rune":"rune_02_os","Hex":"#ffcc3399","Correct":32,"Choice":-1,"RT":-1,"Accuracy":0,"Outcome":"-10","Keys":[],"TotalKeys":0,"Block":1,"Trial":98,"Robot":3,"Valence":"Lose","Action":"Go","Sham":0,"Color":"yellow","trial_type":"pit-trial","trial_index":118,"time_elapsed":3752644,"internal_node_id":"0.0-107.0","task_version":"test-retest"},{"Rune":"rune_02_cen","Hex":"#3366ff99","Correct":-1,"Choice":32,"RT":329.4449999812059,"Accuracy":0,"Outcome":"+1","Keys":[1830.3300000261515],"TotalKeys":1,"Block":1,"Trial":99,"Robot":2,"Valence":"Win","Action":"No-Go","Sham":0,"Color":"blue","trial_type":"pit-trial","trial_index":119,"time_elapsed":3755562,"internal_node_id":"0.0-108.0","task_version":"test-retest"},{"Rune":"rune_02_haglaz","Hex":"#ffcc3399","Correct":-1,"Choice":-1,"RT":-1,"Accuracy":1,"Outcome":"-1","Keys":[3067.715000011958],"TotalKeys":1,"Block":1,"Trial":100,"Robot":4,"Valence":"Lose","Action":"No-Go","Sham":0,"Color":"yellow","trial_type":"pit-trial","trial_index":120,"time_elapsed":3759655,"internal_node_id":"0.0-109.0","task_version":"test-retest"},{"Rune":"rune_02_haglaz","Hex":"#ffcc3399","Correct":-1,"Choice":32,"RT":428.87500004144385,"Accuracy":0,"Outcome":"-1","Keys":[1929.6299999696203],"TotalKeys":1,"Block":1,"Trial":101,"Robot":4,"Valence":"Lose","Action":"No-Go","Sham":1,"Color":"yellow","trial_type":"pit-trial","trial_index":121,"time_elapsed":3762661,"internal_node_id":"0.0-110.0","task_version":"test-retest"},{"Rune":"rune_02_cen","Hex":"#3366ff99","Correct":-1,"Choice":32,"RT":370.06500002462417,"Accuracy":0,"Outcome":"+1","Keys":[1871.2050000322051],"TotalKeys":1,"Block":1,"Trial":102,"Robot":2,"Valence":"Win","Action":"No-Go","Sham":0,"Color":"blue","trial_type":"pit-trial","trial_index":122,"time_elapsed":3765622,"internal_node_id":"0.0-111.0","task_version":"test-retest"},{"Rune":"rune_02_raido","Hex":"#3366ff99","Correct":32,"Choice":32,"RT":258.09999997727573,"Accuracy":1,"Outcome":"+10","Keys":[1758.4100000094622],"TotalKeys":1,"Block":1,"Trial":103,"Robot":1,"Valence":"Win","Action":"Go","Sham":0,"Color":"blue","trial_type":"pit-trial","trial_index":123,"time_elapsed":3768475,"internal_node_id":"0.0-112.0","task_version":"test-retest"},{"Rune":"rune_02_os","Hex":"#ffcc3399","Correct":32,"Choice":-1,"RT":-1,"Accuracy":0,"Outcome":"-10","Keys":[],"TotalKeys":0,"Block":1,"Trial":104,"Robot":3,"Valence":"Lose","Action":"Go","Sham":0,"Color":"yellow","trial_type":"pit-trial","trial_index":124,"time_elapsed":3772574,"internal_node_id":"0.0-113.0","task_version":"test-retest"},{"Rune":"rune_02_os","Hex":"#ffcc3399","Correct":32,"Choice":32,"RT":451.05500001227483,"Accuracy":1,"Outcome":"-10","Keys":[1951.5399999800138],"TotalKeys":1,"Block":1,"Trial":105,"Robot":3,"Valence":"Lose","Action":"Go","Sham":1,"Color":"yellow","trial_type":"pit-trial","trial_index":125,"time_elapsed":3775578,"internal_node_id":"0.0-114.0","task_version":"test-retest"},{"Rune":"rune_02_cen","Hex":"#3366ff99","Correct":-1,"Choice":32,"RT":347.02499996637926,"Accuracy":0,"Outcome":"+1","Keys":[1848.9399999962188],"TotalKeys":1,"Block":1,"Trial":106,"Robot":2,"Valence":"Win","Action":"No-Go","Sham":0,"Color":"blue","trial_type":"pit-trial","trial_index":126,"time_elapsed":3778511,"internal_node_id":"0.0-115.0","task_version":"test-retest"},{"Rune":"rune_02_raido","Hex":"#3366ff99","Correct":32,"Choice":32,"RT":300.9199999505654,"Accuracy":1,"Outcome":"+1","Keys":[1801.370000001043],"TotalKeys":1,"Block":1,"Trial":107,"Robot":1,"Valence":"Win","Action":"Go","Sham":1,"Color":"blue","trial_type":"pit-trial","trial_index":127,"time_elapsed":3781418,"internal_node_id":"0.0-116.0","task_version":"test-retest"},{"Rune":"rune_02_haglaz","Hex":"#ffcc3399","Correct":-1,"Choice":-1,"RT":-1,"Accuracy":1,"Outcome":"-1","Keys":[],"TotalKeys":0,"Block":1,"Trial":108,"Robot":4,"Valence":"Lose","Action":"No-Go","Sham":0,"Color":"yellow","trial_type":"pit-trial","trial_index":128,"time_elapsed":3785513,"internal_node_id":"0.0-117.0","task_version":"test-retest"},{"Rune":"rune_02_cen","Hex":"#3366ff99","Correct":-1,"Choice":32,"RT":349.00499996729195,"Accuracy":0,"Outcome":"+1","Keys":[1849.7999999672174],"TotalKeys":1,"Block":1,"Trial":109,"Robot":2,"Valence":"Win","Action":"No-Go","Sham":0,"Color":"blue","trial_type":"pit-trial","trial_index":129,"time_elapsed":3788453,"internal_node_id":"0.0-118.0","task_version":"test-retest"},{"Rune":"rune_02_haglaz","Hex":"#ffcc3399","Correct":-1,"Choice":-1,"RT":-1,"Accuracy":1,"Outcome":"-1","Keys":[],"TotalKeys":0,"Block":1,"Trial":110,"Robot":4,"Valence":"Lose","Action":"No-Go","Sham":0,"Color":"yellow","trial_type":"pit-trial","trial_index":130,"time_elapsed":3792539,"internal_node_id":"0.0-119.0","task_version":"test-retest"},{"Rune":"rune_02_raido","Hex":"#3366ff99","Correct":32,"Choice":32,"RT":322.054999996908,"Accuracy":1,"Outcome":"+10","Keys":[1824.2499999469146],"TotalKeys":1,"Block":1,"Trial":111,"Robot":1,"Valence":"Win","Action":"Go","Sham":0,"Color":"blue","trial_type":"pit-trial","trial_index":131,"time_elapsed":3795450,"internal_node_id":"0.0-120.0","task_version":"test-retest"},{"Rune":"rune_02_os","Hex":"#ffcc3399","Correct":32,"Choice":32,"RT":444.11000004038215,"Accuracy":1,"Outcome":"-1","Keys":[1945.4700000351295],"TotalKeys":1,"Block":1,"Trial":112,"Robot":3,"Valence":"Lose","Action":"Go","Sham":0,"Color":"yellow","trial_type":"pit-trial","trial_index":132,"time_elapsed":3798487,"internal_node_id":"0.0-121.0","task_version":"test-retest"},{"Rune":"rune_02_cen","Hex":"#3366ff99","Correct":-1,"Choice":32,"RT":313.7950000236742,"Accuracy":0,"Outcome":"+1","Keys":[1814.2249999800697],"TotalKeys":1,"Block":1,"Trial":113,"Robot":2,"Valence":"Win","Action":"No-Go","Sham":0,"Color":"blue","trial_type":"pit-trial","trial_index":133,"time_elapsed":3801390,"internal_node_id":"0.0-122.0","task_version":"test-retest"},{"Rune":"rune_02_os","Hex":"#ffcc3399","Correct":32,"Choice":32,"RT":496.14499998278916,"Accuracy":1,"Outcome":"-1","Keys":[1996.1199999670498],"TotalKeys":1,"Block":1,"Trial":114,"Robot":3,"Valence":"Lose","Action":"Go","Sham":0,"Color":"yellow","trial_type":"pit-trial","trial_index":134,"time_elapsed":3804471,"internal_node_id":"0.0-123.0","task_version":"test-retest"},{"Rune":"rune_02_haglaz","Hex":"#ffcc3399","Correct":-1,"Choice":-1,"RT":-1,"Accuracy":1,"Outcome":"-1","Keys":[],"TotalKeys":0,"Block":1,"Trial":115,"Robot":4,"Valence":"Lose","Action":"No-Go","Sham":0,"Color":"yellow","trial_type":"pit-trial","trial_index":135,"time_elapsed":3808569,"internal_node_id":"0.0-124.0","task_version":"test-retest"},{"Rune":"rune_02_raido","Hex":"#3366ff99","Correct":32,"Choice":32,"RT":291.92499996861443,"Accuracy":1,"Outcome":"+10","Keys":[1792.1949999872595],"TotalKeys":1,"Block":1,"Trial":116,"Robot":1,"Valence":"Win","Action":"Go","Sham":0,"Color":"blue","trial_type":"pit-trial","trial_index":136,"time_elapsed":3811431,"internal_node_id":"0.0-125.0","task_version":"test-retest"},{"Rune":"rune_02_haglaz","Hex":"#ffcc3399","Correct":-1,"Choice":32,"RT":770.4500000108965,"Accuracy":0,"Outcome":"-10","Keys":[2271.459999959916],"TotalKeys":1,"Block":1,"Trial":117,"Robot":4,"Valence":"Lose","Action":"No-Go","Sham":0,"Color":"yellow","trial_type":"pit-trial","trial_index":137,"time_elapsed":3814789,"internal_node_id":"0.0-126.0","task_version":"test-retest"},{"Rune":"rune_02_cen","Hex":"#3366ff99","Correct":-1,"Choice":32,"RT":278.070000000298,"Accuracy":0,"Outcome":"+10","Keys":[1778.5350000485778],"TotalKeys":1,"Block":1,"Trial":118,"Robot":2,"Valence":"Win","Action":"No-Go","Sham":1,"Color":"blue","trial_type":"pit-trial","trial_index":138,"time_elapsed":3817650,"internal_node_id":"0.0-127.0","task_version":"test-retest"},{"Rune":"rune_02_os","Hex":"#ffcc3399","Correct":32,"Choice":32,"RT":1097.3200000007637,"Accuracy":1,"Outcome":"-1","Keys":[2598.969999991823],"TotalKeys":1,"Block":1,"Trial":119,"Robot":3,"Valence":"Lose","Action":"Go","Sham":0,"Color":"yellow","trial_type":"pit-trial","trial_index":139,"time_elapsed":3821343,"internal_node_id":"0.0-128.0","task_version":"test-retest"},{"Rune":"rune_02_raido","Hex":"#3366ff99","Correct":32,"Choice":32,"RT":323.61500000115484,"Accuracy":1,"Outcome":"+10","Keys":[1824.6599999838509],"TotalKeys":1,"Block":1,"Trial":120,"Robot":1,"Valence":"Win","Action":"Go","Sham":0,"Color":"blue","trial_type":"pit-trial","trial_index":140,"time_elapsed":3824253,"internal_node_id":"0.0-129.0","task_version":"test-retest"},{"view_history":"[{\"page_index\":0,\"viewing_time\":34750.070000009146},{\"page_index\":1,\"viewing_time\":2702.244999993127},{\"page_index\":2,\"viewing_time\":1474.274999985937}]","rt":38927.734999975655,"trial_type":"pit-instructions","trial_index":141,"time_elapsed":3863233,"internal_node_id":"0.0-130.0","task_version":"test-retest"},{"Rune":"rune_01_yr","Hex":"#3366ff99","Correct":32,"Choice":32,"RT":325.97000000532717,"Accuracy":1,"Outcome":"+10","Keys":[1826.5550000360236],"TotalKeys":1,"Block":2,"Trial":121,"Robot":1,"Valence":"Win","Action":"Go","Sham":0,"Color":"blue","trial_type":"pit-trial","trial_index":142,"time_elapsed":3866137,"internal_node_id":"0.0-131.0","task_version":"test-retest"},{"Rune":"rune_01_ingwaz","Hex":"#ffcc3399","Correct":32,"Choice":32,"RT":524.5349999750033,"Accuracy":1,"Outcome":"-1","Keys":[2025.1850000349805],"TotalKeys":1,"Block":2,"Trial":122,"Robot":3,"Valence":"Lose","Action":"Go","Sham":0,"Color":"yellow","trial_type":"pit-trial","trial_index":143,"time_elapsed":3869258,"internal_node_id":"0.0-132.0","task_version":"test-retest"},{"Rune":"rune_01_ger","Hex":"#3366ff99","Correct":-1,"Choice":32,"RT":277.11500000441447,"Accuracy":0,"Outcome":"+1","Keys":[1777.7099999948405],"TotalKeys":1,"Block":2,"Trial":123,"Robot":2,"Valence":"Win","Action":"No-Go","Sham":0,"Color":"blue","trial_type":"pit-trial","trial_index":144,"time_elapsed":3872132,"internal_node_id":"0.0-133.0","task_version":"test-retest"},{"Rune":"rune_01_ear","Hex":"#ffcc3399","Correct":-1,"Choice":32,"RT":489.42499997792765,"Accuracy":0,"Outcome":"-10","Keys":[1990.9350000089034],"TotalKeys":1,"Block":2,"Trial":124,"Robot":4,"Valence":"Lose","Action":"No-Go","Sham":0,"Color":"yellow","trial_type":"pit-trial","trial_index":145,"time_elapsed":3875214,"internal_node_id":"0.0-134.0","task_version":"test-retest"},{"Rune":"rune_01_ger","Hex":"#3366ff99","Correct":-1,"Choice":32,"RT":246.8349999981001,"Accuracy":0,"Outcome":"+1","Keys":[1746.8999999691732],"TotalKeys":1,"Block":2,"Trial":125,"Robot":2,"Valence":"Win","Action":"No-Go","Sham":0,"Color":"blue","trial_type":"pit-trial","trial_index":146,"time_elapsed":3878050,"internal_node_id":"0.0-135.0","task_version":"test-retest"},{"Rune":"rune_01_yr","Hex":"#3366ff99","Correct":32,"Choice":32,"RT":404.5050000422634,"Accuracy":1,"Outcome":"+1","Keys":[1905.3950000088662],"TotalKeys":1,"Block":2,"Trial":126,"Robot":1,"Valence":"Win","Action":"Go","Sham":1,"Color":"blue","trial_type":"pit-trial","trial_index":147,"time_elapsed":3881046,"internal_node_id":"0.0-136.0","task_version":"test-retest"},{"Rune":"rune_01_ear","Hex":"#ffcc3399","Correct":-1,"Choice":-1,"RT":-1,"Accuracy":1,"Outcome":"-1","Keys":[],"TotalKeys":0,"Block":2,"Trial":127,"Robot":4,"Valence":"Lose","Action":"No-Go","Sham":0,"Color":"yellow","trial_type":"pit-trial","trial_index":148,"time_elapsed":3885122,"internal_node_id":"0.0-137.0","task_version":"test-retest"},{"Rune":"rune_01_ingwaz","Hex":"#ffcc3399","Correct":32,"Choice":32,"RT":347.5149999721907,"Accuracy":1,"Outcome":"-1","Keys":[1872.0399999874644],"TotalKeys":1,"Block":2,"Trial":128,"Robot":3,"Valence":"Lose","Action":"Go","Sham":0,"Color":"yellow","trial_type":"pit-trial","trial_index":149,"time_elapsed":3888072,"internal_node_id":"0.0-138.0","task_version":"test-retest"},{"Rune":"rune_01_yr","Hex":"#3366ff99","Correct":32,"Choice":32,"RT":1239.6549999830313,"Accuracy":1,"Outcome":"+10","Keys":[2740.1800000225194],"TotalKeys":1,"Block":2,"Trial":129,"Robot":1,"Valence":"Win","Action":"Go","Sham":0,"Color":"blue","trial_type":"pit-trial","trial_index":150,"time_elapsed":3891899,"internal_node_id":"0.0-139.0","task_version":"test-retest"},{"Rune":"rune_01_ger","Hex":"#3366ff99","Correct":-1,"Choice":32,"RT":391.68500003870577,"Accuracy":0,"Outcome":"+1","Keys":[1892.1749999863096],"TotalKeys":1,"Block":2,"Trial":130,"Robot":2,"Valence":"Win","Action":"No-Go","Sham":0,"Color":"blue","trial_type":"pit-trial","trial_index":151,"time_elapsed":3894880,"internal_node_id":"0.0-140.0","task_version":"test-retest"},{"Rune":"rune_01_ingwaz","Hex":"#ffcc3399","Correct":32,"Choice":32,"RT":462.2949999757111,"Accuracy":1,"Outcome":"-10","Keys":[1963.675000006333],"TotalKeys":1,"Block":2,"Trial":131,"Robot":3,"Valence":"Lose","Action":"Go","Sham":1,"Color":"yellow","trial_type":"pit-trial","trial_index":152,"time_elapsed":3897899,"internal_node_id":"0.0-141.0","task_version":"test-retest"},{"Rune":"rune_01_ear","Hex":"#ffcc3399","Correct":-1,"Choice":32,"RT":482.7250000089407,"Accuracy":0,"Outcome":"-10","Keys":[1983.7500000139698],"TotalKeys":1,"Block":2,"Trial":132,"Robot":4,"Valence":"Lose","Action":"No-Go","Sham":0,"Color":"yellow","trial_type":"pit-trial","trial_index":153,"time_elapsed":3900954,"internal_node_id":"0.0-142.0","task_version":"test-retest"},{"Rune":"rune_01_ingwaz","Hex":"#ffcc3399","Correct":32,"Choice":-1,"RT":-1,"Accuracy":0,"Outcome":"-10","Keys":[],"TotalKeys":0,"Block":2,"Trial":133,"Robot":3,"Valence":"Lose","Action":"Go","Sham":0,"Color":"yellow","trial_type":"pit-trial","trial_index":154,"time_elapsed":3905010,"internal_node_id":"0.0-143.0","task_version":"test-retest"},{"Rune":"rune_01_yr","Hex":"#3366ff99","Correct":32,"Choice":32,"RT":61.73499999567866,"Accuracy":1,"Outcome":"+10","Keys":[1562.8450000076555],"TotalKeys":1,"Block":2,"Trial":134,"Robot":1,"Valence":"Win","Action":"Go","Sham":0,"Color":"blue","trial_type":"pit-trial","trial_index":155,"time_elapsed":3907674,"internal_node_id":"0.0-144.0","task_version":"test-retest"},{"Rune":"rune_01_ger","Hex":"#3366ff99","Correct":-1,"Choice":32,"RT":411.08500002883375,"Accuracy":0,"Outcome":"+1","Keys":[1912.3099999851547],"TotalKeys":1,"Block":2,"Trial":135,"Robot":2,"Valence":"Win","Action":"No-Go","Sham":0,"Color":"blue","trial_type":"pit-trial","trial_index":156,"time_elapsed":3910686,"internal_node_id":"0.0-145.0","task_version":"test-retest"},{"Rune":"rune_01_ear","Hex":"#ffcc3399","Correct":-1,"Choice":32,"RT":525.5550000001676,"Accuracy":0,"Outcome":"-10","Keys":[2025.8049999829382],"TotalKeys":1,"Block":2,"Trial":136,"Robot":4,"Valence":"Lose","Action":"No-Go","Sham":0,"Color":"yellow","trial_type":"pit-trial","trial_index":157,"time_elapsed":3913796,"internal_node_id":"0.0-146.0","task_version":"test-retest"},{"Rune":"rune_01_yr","Hex":"#3366ff99","Correct":32,"Choice":32,"RT":189.64499997673556,"Accuracy":1,"Outcome":"+10","Keys":[1140.1199999963865,1690.5649999971502],"TotalKeys":2,"Block":2,"Trial":137,"Robot":1,"Valence":"Win","Action":"Go","Sham":0,"Color":"blue","trial_type":"pit-trial","trial_index":158,"time_elapsed":3916556,"internal_node_id":"0.0-147.0","task_version":"test-retest"},{"Rune":"rune_01_ingwaz","Hex":"#ffcc3399","Correct":32,"Choice":32,"RT":662.5800000037998,"Accuracy":1,"Outcome":"-1","Keys":[2162.9599999869242],"TotalKeys":1,"Block":2,"Trial":138,"Robot":3,"Valence":"Lose","Action":"Go","Sham":0,"Color":"yellow","trial_type":"pit-trial","trial_index":159,"time_elapsed":3919806,"internal_node_id":"0.0-148.0","task_version":"test-retest"},{"Rune":"rune_01_ger","Hex":"#3366ff99","Correct":-1,"Choice":32,"RT":388.60000000568107,"Accuracy":0,"Outcome":"+10","Keys":[1888.8949999818578],"TotalKeys":1,"Block":2,"Trial":139,"Robot":2,"Valence":"Win","Action":"No-Go","Sham":1,"Color":"blue","trial_type":"pit-trial","trial_index":160,"time_elapsed":3922765,"internal_node_id":"0.0-149.0","task_version":"test-retest"},{"Rune":"rune_01_ear","Hex":"#ffcc3399","Correct":-1,"Choice":-1,"RT":-1,"Accuracy":1,"Outcome":"-10","Keys":[3102.9749999870546],"TotalKeys":1,"Block":2,"Trial":140,"Robot":4,"Valence":"Lose","Action":"No-Go","Sham":1,"Color":"yellow","trial_type":"pit-trial","trial_index":161,"time_elapsed":3926849,"internal_node_id":"0.0-150.0","task_version":"test-retest"},{"Rune":"rune_01_ger","Hex":"#3366ff99","Correct":-1,"Choice":32,"RT":1062.694999971427,"Accuracy":0,"Outcome":"+1","Keys":[2563.3550000493415],"TotalKeys":1,"Block":2,"Trial":141,"Robot":2,"Valence":"Win","Action":"No-Go","Sham":0,"Color":"blue","trial_type":"pit-trial","trial_index":162,"time_elapsed":3930470,"internal_node_id":"0.0-151.0","task_version":"test-retest"},{"Rune":"rune_01_yr","Hex":"#3366ff99","Correct":32,"Choice":32,"RT":291.55000002356246,"Accuracy":1,"Outcome":"+10","Keys":[1792.6699999952689],"TotalKeys":1,"Block":2,"Trial":142,"Robot":1,"Valence":"Win","Action":"Go","Sham":0,"Color":"blue","trial_type":"pit-trial","trial_index":163,"time_elapsed":3933348,"internal_node_id":"0.0-152.0","task_version":"test-retest"},{"Rune":"rune_01_ear","Hex":"#ffcc3399","Correct":-1,"Choice":-1,"RT":-1,"Accuracy":1,"Outcome":"-1","Keys":[],"TotalKeys":0,"Block":2,"Trial":143,"Robot":4,"Valence":"Lose","Action":"No-Go","Sham":0,"Color":"yellow","trial_type":"pit-trial","trial_index":164,"time_elapsed":3937445,"internal_node_id":"0.0-153.0","task_version":"test-retest"},{"Rune":"rune_01_ingwaz","Hex":"#ffcc3399","Correct":32,"Choice":32,"RT":445.11500000953674,"Accuracy":1,"Outcome":"-1","Keys":[1161.3149999757297,1946.1399999563582],"TotalKeys":2,"Block":2,"Trial":144,"Robot":3,"Valence":"Lose","Action":"Go","Sham":0,"Color":"yellow","trial_type":"pit-trial","trial_index":165,"time_elapsed":3940431,"internal_node_id":"0.0-154.0","task_version":"test-retest"},{"Rune":"rune_01_yr","Hex":"#3366ff99","Correct":32,"Choice":32,"RT":191.32500002160668,"Accuracy":1,"Outcome":"+10","Keys":[1692.9249999811873],"TotalKeys":1,"Block":2,"Trial":145,"Robot":1,"Valence":"Win","Action":"Go","Sham":0,"Color":"blue","trial_type":"pit-trial","trial_index":166,"time_elapsed":3943204,"internal_node_id":"0.0-155.0","task_version":"test-retest"},{"Rune":"rune_01_ingwaz","Hex":"#ffcc3399","Correct":32,"Choice":32,"RT":315.4700000304729,"Accuracy":1,"Outcome":"-1","Keys":[1817.1799999545328],"TotalKeys":1,"Block":2,"Trial":146,"Robot":3,"Valence":"Lose","Action":"Go","Sham":0,"Color":"yellow","trial_type":"pit-trial","trial_index":167,"time_elapsed":3946118,"internal_node_id":"0.0-156.0","task_version":"test-retest"},{"Rune":"rune_01_ear","Hex":"#ffcc3399","Correct":-1,"Choice":32,"RT":1132.530000002589,"Accuracy":0,"Outcome":"-10","Keys":[2633.004999952391],"TotalKeys":1,"Block":2,"Trial":147,"Robot":4,"Valence":"Lose","Action":"No-Go","Sham":0,"Color":"yellow","trial_type":"pit-trial","trial_index":168,"time_elapsed":3949855,"internal_node_id":"0.0-157.0","task_version":"test-retest"},{"Rune":"rune_01_ger","Hex":"#3366ff99","Correct":-1,"Choice":32,"RT":151.84500004397705,"Accuracy":0,"Outcome":"+1","Keys":[993.1799999903888,1652.4199999985285],"TotalKeys":2,"Block":2,"Trial":148,"Robot":2,"Valence":"Win","Action":"No-Go","Sham":0,"Color":"blue","trial_type":"pit-trial","trial_index":169,"time_elapsed":3952568,"internal_node_id":"0.0-158.0","task_version":"test-retest"},{"Rune":"rune_01_yr","Hex":"#3366ff99","Correct":32,"Choice":32,"RT":265.46500000404194,"Accuracy":1,"Outcome":"+10","Keys":[1766.4499999955297],"TotalKeys":1,"Block":2,"Trial":149,"Robot":1,"Valence":"Win","Action":"Go","Sham":0,"Color":"blue","trial_type":"pit-trial","trial_index":170,"time_elapsed":3955416,"internal_node_id":"0.0-159.0","task_version":"test-retest"},{"Rune":"rune_01_ingwaz","Hex":"#ffcc3399","Correct":32,"Choice":32,"RT":601.2750000227243,"Accuracy":1,"Outcome":"-10","Keys":[2102.7800000156276],"TotalKeys":1,"Block":2,"Trial":150,"Robot":3,"Valence":"Lose","Action":"Go","Sham":1,"Color":"yellow","trial_type":"pit-trial","trial_index":171,"time_elapsed":3958595,"internal_node_id":"0.0-160.0","task_version":"test-retest"},{"Rune":"rune_01_ear","Hex":"#ffcc3399","Correct":-1,"Choice":32,"RT":172.49000002630055,"Accuracy":0,"Outcome":"-1","Keys":[1674.4000000180677],"TotalKeys":1,"Block":2,"Trial":151,"Robot":4,"Valence":"Lose","Action":"No-Go","Sham":1,"Color":"yellow","trial_type":"pit-trial","trial_index":172,"time_elapsed":3961371,"internal_node_id":"0.0-161.0","task_version":"test-retest"},{"Rune":"rune_01_ger","Hex":"#3366ff99","Correct":-1,"Choice":32,"RT":177.4849999928847,"Accuracy":0,"Outcome":"+10","Keys":[1678.330000024289],"TotalKeys":1,"Block":2,"Trial":152,"Robot":2,"Valence":"Win","Action":"No-Go","Sham":1,"Color":"blue","trial_type":"pit-trial","trial_index":173,"time_elapsed":3964108,"internal_node_id":"0.0-162.0","task_version":"test-retest"},{"Rune":"rune_01_ear","Hex":"#ffcc3399","Correct":-1,"Choice":32,"RT":371.34499999228865,"Accuracy":0,"Outcome":"-10","Keys":[1871.839999977965],"TotalKeys":1,"Block":2,"Trial":153,"Robot":4,"Valence":"Lose","Action":"No-Go","Sham":0,"Color":"yellow","trial_type":"pit-trial","trial_index":174,"time_elapsed":3967041,"internal_node_id":"0.0-163.0","task_version":"test-retest"},{"Rune":"rune_01_ingwaz","Hex":"#ffcc3399","Correct":32,"Choice":32,"RT":363.62499999813735,"Accuracy":1,"Outcome":"-1","Keys":[1864.324999973178],"TotalKeys":1,"Block":2,"Trial":154,"Robot":3,"Valence":"Lose","Action":"Go","Sham":0,"Color":"yellow","trial_type":"pit-trial","trial_index":175,"time_elapsed":3969987,"internal_node_id":"0.0-164.0","task_version":"test-retest"},{"Rune":"rune_01_ger","Hex":"#3366ff99","Correct":-1,"Choice":32,"RT":175.3700000117533,"Accuracy":0,"Outcome":"+1","Keys":[1094.1699999966659,1675.5750000011176],"TotalKeys":2,"Block":2,"Trial":155,"Robot":2,"Valence":"Win","Action":"No-Go","Sham":0,"Color":"blue","trial_type":"pit-trial","trial_index":176,"time_elapsed":3972765,"internal_node_id":"0.0-165.0","task_version":"test-retest"},{"Rune":"rune_01_yr","Hex":"#3366ff99","Correct":32,"Choice":32,"RT":106.12499999115244,"Accuracy":1,"Outcome":"+10","Keys":[1034.4850000110455,1607.2350000031292],"TotalKeys":2,"Block":2,"Trial":156,"Robot":1,"Valence":"Win","Action":"Go","Sham":0,"Color":"blue","trial_type":"pit-trial","trial_index":177,"time_elapsed":3975452,"internal_node_id":"0.0-166.0","task_version":"test-retest"},{"Rune":"rune_01_ger","Hex":"#3366ff99","Correct":-1,"Choice":32,"RT":668.9950000145473,"Accuracy":0,"Outcome":"+1","Keys":[2170.3100000158884],"TotalKeys":1,"Block":2,"Trial":157,"Robot":2,"Valence":"Win","Action":"No-Go","Sham":0,"Color":"blue","trial_type":"pit-trial","trial_index":178,"time_elapsed":3978736,"internal_node_id":"0.0-167.0","task_version":"test-retest"},{"Rune":"rune_01_ingwaz","Hex":"#ffcc3399","Correct":32,"Choice":-1,"RT":-1,"Accuracy":0,"Outcome":"-10","Keys":[],"TotalKeys":0,"Block":2,"Trial":158,"Robot":3,"Valence":"Lose","Action":"Go","Sham":0,"Color":"yellow","trial_type":"pit-trial","trial_index":179,"time_elapsed":3982845,"internal_node_id":"0.0-168.0","task_version":"test-retest"},{"Rune":"rune_01_yr","Hex":"#3366ff99","Correct":32,"Choice":32,"RT":67.4699999508448,"Accuracy":1,"Outcome":"+1","Keys":[1569.37000004109],"TotalKeys":1,"Block":2,"Trial":159,"Robot":1,"Valence":"Win","Action":"Go","Sham":1,"Color":"blue","trial_type":"pit-trial","trial_index":180,"time_elapsed":3985450,"internal_node_id":"0.0-169.0","task_version":"test-retest"},{"Rune":"rune_01_ear","Hex":"#ffcc3399","Correct":-1,"Choice":32,"RT":224.0849999943748,"Accuracy":0,"Outcome":"-10","Keys":[1724.7150000184774],"TotalKeys":1,"Block":2,"Trial":160,"Robot":4,"Valence":"Lose","Action":"No-Go","Sham":0,"Color":"yellow","trial_type":"pit-trial","trial_index":181,"time_elapsed":3988277,"internal_node_id":"0.0-170.0","task_version":"test-retest"},{"Rune":"rune_01_ear","Hex":"#ffcc3399","Correct":-1,"Choice":32,"RT":166.46499995840713,"Accuracy":0,"Outcome":"-10","Keys":[1667.4800000037067],"TotalKeys":1,"Block":2,"Trial":161,"Robot":4,"Valence":"Lose","Action":"No-Go","Sham":0,"Color":"yellow","trial_type":"pit-trial","trial_index":182,"time_elapsed":3991052,"internal_node_id":"0.0-171.0","task_version":"test-retest"},{"Rune":"rune_01_ger","Hex":"#3366ff99","Correct":-1,"Choice":32,"RT":206.98000001721084,"Accuracy":0,"Outcome":"+1","Keys":[1707.8300000284798],"TotalKeys":1,"Block":2,"Trial":162,"Robot":2,"Valence":"Win","Action":"No-Go","Sham":0,"Color":"blue","trial_type":"pit-trial","trial_index":183,"time_elapsed":3993796,"internal_node_id":"0.0-172.0","task_version":"test-retest"},{"Rune":"rune_01_yr","Hex":"#3366ff99","Correct":32,"Choice":32,"RT":354.19500002171844,"Accuracy":1,"Outcome":"+10","Keys":[1854.6750000095926],"TotalKeys":1,"Block":2,"Trial":163,"Robot":1,"Valence":"Win","Action":"Go","Sham":0,"Color":"blue","trial_type":"pit-trial","trial_index":184,"time_elapsed":3996702,"internal_node_id":"0.0-173.0","task_version":"test-retest"},{"Rune":"rune_01_ingwaz","Hex":"#ffcc3399","Correct":32,"Choice":-1,"RT":-1,"Accuracy":0,"Outcome":"-10","Keys":[],"TotalKeys":0,"Block":2,"Trial":164,"Robot":3,"Valence":"Lose","Action":"Go","Sham":0,"Color":"yellow","trial_type":"pit-trial","trial_index":185,"time_elapsed":4000784,"internal_node_id":"0.0-174.0","task_version":"test-retest"},{"Rune":"rune_01_ear","Hex":"#ffcc3399","Correct":-1,"Choice":32,"RT":601.2500000069849,"Accuracy":0,"Outcome":"-10","Keys":[389.48499999241903,1037.9599999869242,1459.8199999891222,2101.719999976922],"TotalKeys":4,"Block":2,"Trial":165,"Robot":4,"Valence":"Lose","Action":"No-Go","Sham":0,"Color":"yellow","trial_type":"pit-trial","trial_index":186,"time_elapsed":4003954,"internal_node_id":"0.0-175.0","task_version":"test-retest"},{"Rune":"rune_01_ingwaz","Hex":"#ffcc3399","Correct":32,"Choice":32,"RT":1065.920000022743,"Accuracy":1,"Outcome":"-10","Keys":[2566.439999965951],"TotalKeys":1,"Block":2,"Trial":166,"Robot":3,"Valence":"Lose","Action":"Go","Sham":1,"Color":"yellow","trial_type":"pit-trial","trial_index":187,"time_elapsed":4007555,"internal_node_id":"0.0-176.0","task_version":"test-retest"},{"Rune":"rune_01_yr","Hex":"#3366ff99","Correct":32,"Choice":32,"RT":312.58500000694767,"Accuracy":1,"Outcome":"+10","Keys":[1412.6150000374764,1813.4300000383519],"TotalKeys":2,"Block":2,"Trial":167,"Robot":1,"Valence":"Win","Action":"Go","Sham":0,"Color":"blue","trial_type":"pit-trial","trial_index":188,"time_elapsed":4010441,"internal_node_id":"0.0-177.0","task_version":"test-retest"},{"Rune":"rune_01_ger","Hex":"#3366ff99","Correct":-1,"Choice":32,"RT":232.51499998150393,"Accuracy":0,"Outcome":"+1","Keys":[1733.4549999795854],"TotalKeys":1,"Block":2,"Trial":168,"Robot":2,"Valence":"Win","Action":"No-Go","Sham":0,"Color":"blue","trial_type":"pit-trial","trial_index":189,"time_elapsed":4013258,"internal_node_id":"0.0-178.0","task_version":"test-retest"},{"Rune":"rune_01_ingwaz","Hex":"#ffcc3399","Correct":32,"Choice":32,"RT":282.1799999801442,"Accuracy":1,"Outcome":"-1","Keys":[1782.9899999778718],"TotalKeys":1,"Block":2,"Trial":169,"Robot":3,"Valence":"Lose","Action":"Go","Sham":0,"Color":"yellow","trial_type":"pit-trial","trial_index":190,"time_elapsed":4016145,"internal_node_id":"0.0-179.0","task_version":"test-retest"},{"Rune":"rune_01_ear","Hex":"#ffcc3399","Correct":-1,"Choice":32,"RT":322.02999998116866,"Accuracy":0,"Outcome":"-10","Keys":[1822.8649999946356],"TotalKeys":1,"Block":2,"Trial":170,"Robot":4,"Valence":"Lose","Action":"No-Go","Sham":0,"Color":"yellow","trial_type":"pit-trial","trial_index":191,"time_elapsed":4019018,"internal_node_id":"0.0-180.0","task_version":"test-retest"},{"Rune":"rune_01_ger","Hex":"#3366ff99","Correct":-1,"Choice":32,"RT":355.8049999992363,"Accuracy":0,"Outcome":"+1","Keys":[1856.6350000328384],"TotalKeys":1,"Block":2,"Trial":171,"Robot":2,"Valence":"Win","Action":"No-Go","Sham":0,"Color":"blue","trial_type":"pit-trial","trial_index":192,"time_elapsed":4021962,"internal_node_id":"0.0-181.0","task_version":"test-retest"},{"Rune":"rune_01_yr","Hex":"#3366ff99","Correct":32,"Choice":32,"RT":362.82999999821186,"Accuracy":1,"Outcome":"+10","Keys":[1863.950000028126],"TotalKeys":1,"Block":2,"Trial":172,"Robot":1,"Valence":"Win","Action":"Go","Sham":0,"Color":"blue","trial_type":"pit-trial","trial_index":193,"time_elapsed":4024935,"internal_node_id":"0.0-182.0","task_version":"test-retest"},{"Rune":"rune_01_ger","Hex":"#3366ff99","Correct":-1,"Choice":32,"RT":257.5199999846518,"Accuracy":0,"Outcome":"+10","Keys":[1758.8700000196695],"TotalKeys":1,"Block":2,"Trial":173,"Robot":2,"Valence":"Win","Action":"No-Go","Sham":1,"Color":"blue","trial_type":"pit-trial","trial_index":194,"time_elapsed":4027733,"internal_node_id":"0.0-183.0","task_version":"test-retest"},{"Rune":"rune_01_ear","Hex":"#ffcc3399","Correct":-1,"Choice":32,"RT":966.7699999990873,"Accuracy":0,"Outcome":"-1","Keys":[2467.6549999858253],"TotalKeys":1,"Block":2,"Trial":174,"Robot":4,"Valence":"Lose","Action":"No-Go","Sham":1,"Color":"yellow","trial_type":"pit-trial","trial_index":195,"time_elapsed":4031281,"internal_node_id":"0.0-184.0","task_version":"test-retest"},{"Rune":"rune_01_ingwaz","Hex":"#ffcc3399","Correct":32,"Choice":32,"RT":970.0149999698624,"Accuracy":1,"Outcome":"-1","Keys":[2471.155000035651],"TotalKeys":1,"Block":2,"Trial":175,"Robot":3,"Valence":"Lose","Action":"Go","Sham":0,"Color":"yellow","trial_type":"pit-trial","trial_index":196,"time_elapsed":4034845,"internal_node_id":"0.0-185.0","task_version":"test-retest"},{"Rune":"rune_01_yr","Hex":"#3366ff99","Correct":32,"Choice":32,"RT":269.2350000143051,"Accuracy":1,"Outcome":"+1","Keys":[1770.734999969136],"TotalKeys":1,"Block":2,"Trial":176,"Robot":1,"Valence":"Win","Action":"Go","Sham":1,"Color":"blue","trial_type":"pit-trial","trial_index":197,"time_elapsed":4037673,"internal_node_id":"0.0-186.0","task_version":"test-retest"},{"Rune":"rune_01_ger","Hex":"#3366ff99","Correct":-1,"Choice":32,"RT":328.2650000182912,"Accuracy":0,"Outcome":"+1","Keys":[1829.4900000328198],"TotalKeys":1,"Block":2,"Trial":177,"Robot":2,"Valence":"Win","Action":"No-Go","Sham":0,"Color":"blue","trial_type":"pit-trial","trial_index":198,"time_elapsed":4040594,"internal_node_id":"0.0-187.0","task_version":"test-retest"},{"Rune":"rune_01_yr","Hex":"#3366ff99","Correct":32,"Choice":32,"RT":301.9250000361353,"Accuracy":1,"Outcome":"+10","Keys":[1802.5350000243634],"TotalKeys":1,"Block":2,"Trial":178,"Robot":1,"Valence":"Win","Action":"Go","Sham":0,"Color":"blue","trial_type":"pit-trial","trial_index":199,"time_elapsed":4043465,"internal_node_id":"0.0-188.0","task_version":"test-retest"},{"Rune":"rune_01_ear","Hex":"#ffcc3399","Correct":-1,"Choice":32,"RT":812.1050000190735,"Accuracy":0,"Outcome":"-10","Keys":[2313.804999983404],"TotalKeys":1,"Block":2,"Trial":179,"Robot":4,"Valence":"Lose","Action":"No-Go","Sham":0,"Color":"yellow","trial_type":"pit-trial","trial_index":200,"time_elapsed":4046873,"internal_node_id":"0.0-189.0","task_version":"test-retest"},{"Rune":"rune_01_ingwaz","Hex":"#ffcc3399","Correct":32,"Choice":32,"RT":126.83000002289191,"Accuracy":1,"Outcome":"-1","Keys":[860.4000000050291,1627.184999990277],"TotalKeys":2,"Block":2,"Trial":180,"Robot":3,"Valence":"Lose","Action":"Go","Sham":0,"Color":"yellow","trial_type":"pit-trial","trial_index":201,"time_elapsed":4049557,"internal_node_id":"0.0-190.0","task_version":"test-retest"},{"view_history":"[{\"page_index\":0,\"viewing_time\":2533.3250000257976},{\"page_index\":1,\"viewing_time\":762.7799999900162}]","rt":3297.294999996666,"trial_type":"pit-instructions","trial_index":202,"time_elapsed":4052947,"internal_node_id":"0.0-191.0","task_version":"test-retest"},{"Rune":"rune_01_yr","Hex":"#3366ff99","Correct":32,"Choice":32,"RT":321.4199999929406,"Accuracy":1,"Outcome":"+1","Keys":[1821.8800000031479],"TotalKeys":1,"Block":2,"Trial":181,"Robot":1,"Valence":"Win","Action":"Go","Sham":1,"Color":"blue","trial_type":"pit-trial","trial_index":203,"time_elapsed":4055866,"internal_node_id":"0.0-192.0","task_version":"test-retest"},{"Rune":"rune_01_ear","Hex":"#ffcc3399","Correct":-1,"Choice":32,"RT":998.4399999957532,"Accuracy":0,"Outcome":"-10","Keys":[2499.629999976605],"TotalKeys":1,"Block":2,"Trial":182,"Robot":4,"Valence":"Lose","Action":"No-Go","Sham":0,"Color":"yellow","trial_type":"pit-trial","trial_index":204,"time_elapsed":4059400,"internal_node_id":"0.0-193.0","task_version":"test-retest"},{"Rune":"rune_01_ingwaz","Hex":"#ffcc3399","Correct":32,"Choice":32,"RT":843.0400000070222,"Accuracy":1,"Outcome":"-1","Keys":[2344.7349999914877],"TotalKeys":1,"Block":2,"Trial":183,"Robot":3,"Valence":"Lose","Action":"Go","Sham":0,"Color":"yellow","trial_type":"pit-trial","trial_index":205,"time_elapsed":4062823,"internal_node_id":"0.0-194.0","task_version":"test-retest"},{"Rune":"rune_01_ger","Hex":"#3366ff99","Correct":-1,"Choice":32,"RT":329.5349999680184,"Accuracy":0,"Outcome":"+1","Keys":[1830.9550000121817],"TotalKeys":1,"Block":2,"Trial":184,"Robot":2,"Valence":"Win","Action":"No-Go","Sham":0,"Color":"blue","trial_type":"pit-trial","trial_index":206,"time_elapsed":4065705,"internal_node_id":"0.0-195.0","task_version":"test-retest"},{"Rune":"rune_01_ingwaz","Hex":"#ffcc3399","Correct":32,"Choice":32,"RT":300.0350000220351,"Accuracy":1,"Outcome":"-10","Keys":[1800.2749999868684],"TotalKeys":1,"Block":2,"Trial":185,"Robot":3,"Valence":"Lose","Action":"Go","Sham":1,"Color":"yellow","trial_type":"pit-trial","trial_index":207,"time_elapsed":4068602,"internal_node_id":"0.0-196.0","task_version":"test-retest"},{"Rune":"rune_01_ger","Hex":"#3366ff99","Correct":-1,"Choice":32,"RT":247.77499999618158,"Accuracy":0,"Outcome":"+10","Keys":[1749.245000013616],"TotalKeys":1,"Block":2,"Trial":186,"Robot":2,"Valence":"Win","Action":"No-Go","Sham":1,"Color":"blue","trial_type":"pit-trial","trial_index":208,"time_elapsed":4071449,"internal_node_id":"0.0-197.0","task_version":"test-retest"},{"Rune":"rune_01_yr","Hex":"#3366ff99","Correct":32,"Choice":32,"RT":360.1749999797903,"Accuracy":1,"Outcome":"+10","Keys":[1860.3199999779463],"TotalKeys":1,"Block":2,"Trial":187,"Robot":1,"Valence":"Win","Action":"Go","Sham":0,"Color":"blue","trial_type":"pit-trial","trial_index":209,"time_elapsed":4074361,"internal_node_id":"0.0-198.0","task_version":"test-retest"},{"Rune":"rune_01_ear","Hex":"#ffcc3399","Correct":-1,"Choice":-1,"RT":-1,"Accuracy":1,"Outcome":"-1","Keys":[],"TotalKeys":0,"Block":2,"Trial":188,"Robot":4,"Valence":"Lose","Action":"No-Go","Sham":0,"Color":"yellow","trial_type":"pit-trial","trial_index":210,"time_elapsed":4078444,"internal_node_id":"0.0-199.0","task_version":"test-retest"},{"Rune":"rune_01_ger","Hex":"#3366ff99","Correct":-1,"Choice":32,"RT":569.0300000132993,"Accuracy":0,"Outcome":"+1","Keys":[2069.9299999978393],"TotalKeys":1,"Block":2,"Trial":189,"Robot":2,"Valence":"Win","Action":"No-Go","Sham":0,"Color":"blue","trial_type":"pit-trial","trial_index":211,"time_elapsed":4081597,"internal_node_id":"0.0-200.0","task_version":"test-retest"},{"Rune":"rune_01_yr","Hex":"#3366ff99","Correct":32,"Choice":32,"RT":291.44499998074025,"Accuracy":1,"Outcome":"+10","Keys":[1790.3450000449084],"TotalKeys":1,"Block":2,"Trial":190,"Robot":1,"Valence":"Win","Action":"Go","Sham":0,"Color":"blue","trial_type":"pit-trial","trial_index":212,"time_elapsed":4084465,"internal_node_id":"0.0-201.0","task_version":"test-retest"},{"Rune":"rune_01_ear","Hex":"#ffcc3399","Correct":-1,"Choice":32,"RT":522.5349999964237,"Accuracy":0,"Outcome":"-10","Keys":[2023.5300000058487],"TotalKeys":1,"Block":2,"Trial":191,"Robot":4,"Valence":"Lose","Action":"No-Go","Sham":0,"Color":"yellow","trial_type":"pit-trial","trial_index":213,"time_elapsed":4087563,"internal_node_id":"0.0-202.0","task_version":"test-retest"},{"Rune":"rune_01_ingwaz","Hex":"#ffcc3399","Correct":32,"Choice":32,"RT":711.6050000186078,"Accuracy":1,"Outcome":"-1","Keys":[2212.505000003148],"TotalKeys":1,"Block":2,"Trial":192,"Robot":3,"Valence":"Lose","Action":"Go","Sham":0,"Color":"yellow","trial_type":"pit-trial","trial_index":214,"time_elapsed":4090842,"internal_node_id":"0.0-203.0","task_version":"test-retest"},{"Rune":"rune_01_ingwaz","Hex":"#ffcc3399","Correct":32,"Choice":-1,"RT":-1,"Accuracy":0,"Outcome":"-10","Keys":[],"TotalKeys":0,"Block":2,"Trial":193,"Robot":3,"Valence":"Lose","Action":"Go","Sham":0,"Color":"yellow","trial_type":"pit-trial","trial_index":215,"time_elapsed":4094878,"internal_node_id":"0.0-204.0","task_version":"test-retest"},{"Rune":"rune_01_ger","Hex":"#3366ff99","Correct":-1,"Choice":32,"RT":474.45500001776963,"Accuracy":0,"Outcome":"+1","Keys":[1031.7449999856763,1458.9149999665096,1975.2749999752268],"TotalKeys":3,"Block":2,"Trial":194,"Robot":2,"Valence":"Win","Action":"No-Go","Sham":0,"Color":"blue","trial_type":"pit-trial","trial_index":216,"time_elapsed":4097926,"internal_node_id":"0.0-205.0","task_version":"test-retest"},{"Rune":"rune_01_ear","Hex":"#ffcc3399","Correct":-1,"Choice":32,"RT":831.2399999704212,"Accuracy":0,"Outcome":"-10","Keys":[2331.9749999791384],"TotalKeys":1,"Block":2,"Trial":195,"Robot":4,"Valence":"Lose","Action":"No-Go","Sham":0,"Color":"yellow","trial_type":"pit-trial","trial_index":217,"time_elapsed":4101310,"internal_node_id":"0.0-206.0","task_version":"test-retest"},{"Rune":"rune_01_yr","Hex":"#3366ff99","Correct":32,"Choice":32,"RT":53.315000026486814,"Accuracy":1,"Outcome":"+10","Keys":[1554.8499999567866],"TotalKeys":1,"Block":2,"Trial":196,"Robot":1,"Valence":"Win","Action":"Go","Sham":0,"Color":"blue","trial_type":"pit-trial","trial_index":218,"time_elapsed":4103958,"internal_node_id":"0.0-207.0","task_version":"test-retest"},{"Rune":"rune_01_yr","Hex":"#3366ff99","Correct":32,"Choice":32,"RT":352.42000001017004,"Accuracy":1,"Outcome":"+10","Keys":[1853.8599999737926],"TotalKeys":1,"Block":2,"Trial":197,"Robot":1,"Valence":"Win","Action":"Go","Sham":0,"Color":"blue","trial_type":"pit-trial","trial_index":219,"time_elapsed":4106847,"internal_node_id":"0.0-208.0","task_version":"test-retest"},{"Rune":"rune_01_ger","Hex":"#3366ff99","Correct":-1,"Choice":32,"RT":305.81499997060746,"Accuracy":0,"Outcome":"+1","Keys":[1806.8750000093132],"TotalKeys":1,"Block":2,"Trial":198,"Robot":2,"Valence":"Win","Action":"No-Go","Sham":0,"Color":"blue","trial_type":"pit-trial","trial_index":220,"time_elapsed":4109740,"internal_node_id":"0.0-209.0","task_version":"test-retest"},{"Rune":"rune_01_ear","Hex":"#ffcc3399","Correct":-1,"Choice":32,"RT":662.964999966789,"Accuracy":0,"Outcome":"-1","Keys":[2164.355000015348],"TotalKeys":1,"Block":2,"Trial":199,"Robot":4,"Valence":"Lose","Action":"No-Go","Sham":1,"Color":"yellow","trial_type":"pit-trial","trial_index":221,"time_elapsed":4113004,"internal_node_id":"0.0-210.0","task_version":"test-retest"},{"Rune":"rune_01_ingwaz","Hex":"#ffcc3399","Correct":32,"Choice":-1,"RT":-1,"Accuracy":0,"Outcome":"-10","Keys":[],"TotalKeys":0,"Block":2,"Trial":200,"Robot":3,"Valence":"Lose","Action":"Go","Sham":0,"Color":"yellow","trial_type":"pit-trial","trial_index":222,"time_elapsed":4117043,"internal_node_id":"0.0-211.0","task_version":"test-retest"},{"Rune":"rune_01_ingwaz","Hex":"#ffcc3399","Correct":32,"Choice":32,"RT":880.8399999979883,"Accuracy":1,"Outcome":"-1","Keys":[2381.2049999833107],"TotalKeys":1,"Block":2,"Trial":201,"Robot":3,"Valence":"Lose","Action":"Go","Sham":0,"Color":"yellow","trial_type":"pit-trial","trial_index":223,"time_elapsed":4120513,"internal_node_id":"0.0-212.0","task_version":"test-retest"},{"Rune":"rune_01_ear","Hex":"#ffcc3399","Correct":-1,"Choice":32,"RT":392.9800000041723,"Accuracy":0,"Outcome":"-1","Keys":[1893.134999962058],"TotalKeys":1,"Block":2,"Trial":202,"Robot":4,"Valence":"Lose","Action":"No-Go","Sham":1,"Color":"yellow","trial_type":"pit-trial","trial_index":224,"time_elapsed":4123447,"internal_node_id":"0.0-213.0","task_version":"test-retest"},{"Rune":"rune_01_yr","Hex":"#3366ff99","Correct":32,"Choice":32,"RT":302.33499995665625,"Accuracy":1,"Outcome":"+10","Keys":[1803.5999999847263],"TotalKeys":1,"Block":2,"Trial":203,"Robot":1,"Valence":"Win","Action":"Go","Sham":0,"Color":"blue","trial_type":"pit-trial","trial_index":225,"time_elapsed":4126343,"internal_node_id":"0.0-214.0","task_version":"test-retest"},{"Rune":"rune_01_ger","Hex":"#3366ff99","Correct":-1,"Choice":32,"RT":402.31999999377877,"Accuracy":0,"Outcome":"+10","Keys":[1902.9549999977462],"TotalKeys":1,"Block":2,"Trial":204,"Robot":2,"Valence":"Win","Action":"No-Go","Sham":1,"Color":"blue","trial_type":"pit-trial","trial_index":226,"time_elapsed":4129321,"internal_node_id":"0.0-215.0","task_version":"test-retest"},{"Rune":"rune_01_ger","Hex":"#3366ff99","Correct":-1,"Choice":32,"RT":290.43500003172085,"Accuracy":0,"Outcome":"+1","Keys":[1790.6899999943562],"TotalKeys":1,"Block":2,"Trial":205,"Robot":2,"Valence":"Win","Action":"No-Go","Sham":0,"Color":"blue","trial_type":"pit-trial","trial_index":227,"time_elapsed":4132202,"internal_node_id":"0.0-216.0","task_version":"test-retest"},{"Rune":"rune_01_ingwaz","Hex":"#ffcc3399","Correct":32,"Choice":-1,"RT":-1,"Accuracy":0,"Outcome":"-1","Keys":[],"TotalKeys":0,"Block":2,"Trial":206,"Robot":3,"Valence":"Lose","Action":"Go","Sham":1,"Color":"yellow","trial_type":"pit-trial","trial_index":228,"time_elapsed":4136259,"internal_node_id":"0.0-217.0","task_version":"test-retest"},{"Rune":"rune_01_ear","Hex":"#ffcc3399","Correct":-1,"Choice":32,"RT":1040.0050000171177,"Accuracy":0,"Outcome":"-10","Keys":[2541.384999989532],"TotalKeys":1,"Block":2,"Trial":207,"Robot":4,"Valence":"Lose","Action":"No-Go","Sham":0,"Color":"yellow","trial_type":"pit-trial","trial_index":229,"time_elapsed":4139864,"internal_node_id":"0.0-218.0","task_version":"test-retest"},{"Rune":"rune_01_yr","Hex":"#3366ff99","Correct":32,"Choice":32,"RT":226.5999999945052,"Accuracy":1,"Outcome":"+1","Keys":[1727.405000012368],"TotalKeys":1,"Block":2,"Trial":208,"Robot":1,"Valence":"Win","Action":"Go","Sham":1,"Color":"blue","trial_type":"pit-trial","trial_index":230,"time_elapsed":4142627,"internal_node_id":"0.0-219.0","task_version":"test-retest"},{"Rune":"rune_01_ear","Hex":"#ffcc3399","Correct":-1,"Choice":32,"RT":439.3350000027567,"Accuracy":0,"Outcome":"-10","Keys":[1941.034999967087],"TotalKeys":1,"Block":2,"Trial":209,"Robot":4,"Valence":"Lose","Action":"No-Go","Sham":0,"Color":"yellow","trial_type":"pit-trial","trial_index":231,"time_elapsed":4145661,"internal_node_id":"0.0-220.0","task_version":"test-retest"},{"Rune":"rune_01_ger","Hex":"#3366ff99","Correct":-1,"Choice":32,"RT":298.5950000002049,"Accuracy":0,"Outcome":"+1","Keys":[1804.2499999864958],"TotalKeys":1,"Block":2,"Trial":210,"Robot":2,"Valence":"Win","Action":"No-Go","Sham":0,"Color":"blue","trial_type":"pit-trial","trial_index":232,"time_elapsed":4148549,"internal_node_id":"0.0-221.0","task_version":"test-retest"},{"Rune":"rune_01_ingwaz","Hex":"#ffcc3399","Correct":32,"Choice":32,"RT":554.8950000084005,"Accuracy":1,"Outcome":"-1","Keys":[2055.469999962952],"TotalKeys":1,"Block":2,"Trial":211,"Robot":3,"Valence":"Lose","Action":"Go","Sham":0,"Color":"yellow","trial_type":"pit-trial","trial_index":233,"time_elapsed":4151699,"internal_node_id":"0.0-222.0","task_version":"test-retest"},{"Rune":"rune_01_yr","Hex":"#3366ff99","Correct":32,"Choice":32,"RT":289.51000003144145,"Accuracy":1,"Outcome":"+10","Keys":[1790.0200000149198],"TotalKeys":1,"Block":2,"Trial":212,"Robot":1,"Valence":"Win","Action":"Go","Sham":0,"Color":"blue","trial_type":"pit-trial","trial_index":234,"time_elapsed":4154583,"internal_node_id":"0.0-223.0","task_version":"test-retest"},{"Rune":"rune_01_ear","Hex":"#ffcc3399","Correct":-1,"Choice":32,"RT":411.1350000021048,"Accuracy":0,"Outcome":"-10","Keys":[1911.3650000072084],"TotalKeys":1,"Block":2,"Trial":213,"Robot":4,"Valence":"Lose","Action":"No-Go","Sham":0,"Color":"yellow","trial_type":"pit-trial","trial_index":235,"time_elapsed":4157595,"internal_node_id":"0.0-224.0","task_version":"test-retest"},{"Rune":"rune_01_ingwaz","Hex":"#ffcc3399","Correct":32,"Choice":-1,"RT":-1,"Accuracy":0,"Outcome":"-10","Keys":[864.1300000017509],"TotalKeys":1,"Block":2,"Trial":214,"Robot":3,"Valence":"Lose","Action":"Go","Sham":0,"Color":"yellow","trial_type":"pit-trial","trial_index":236,"time_elapsed":4161672,"internal_node_id":"0.0-225.0","task_version":"test-retest"},{"Rune":"rune_01_yr","Hex":"#3366ff99","Correct":32,"Choice":32,"RT":220.28999996837229,"Accuracy":1,"Outcome":"+10","Keys":[1720.7300000009127],"TotalKeys":1,"Block":2,"Trial":215,"Robot":1,"Valence":"Win","Action":"Go","Sham":0,"Color":"blue","trial_type":"pit-trial","trial_index":237,"time_elapsed":4164485,"internal_node_id":"0.0-226.0","task_version":"test-retest"},{"Rune":"rune_01_ger","Hex":"#3366ff99","Correct":-1,"Choice":32,"RT":243.84000001009554,"Accuracy":0,"Outcome":"+1","Keys":[1744.1600000020117],"TotalKeys":1,"Block":2,"Trial":216,"Robot":2,"Valence":"Win","Action":"No-Go","Sham":0,"Color":"blue","trial_type":"pit-trial","trial_index":238,"time_elapsed":4167319,"internal_node_id":"0.0-227.0","task_version":"test-retest"},{"Rune":"rune_01_ingwaz","Hex":"#ffcc3399","Correct":32,"Choice":-1,"RT":-1,"Accuracy":0,"Outcome":"-10","Keys":[],"TotalKeys":0,"Block":2,"Trial":217,"Robot":3,"Valence":"Lose","Action":"Go","Sham":0,"Color":"yellow","trial_type":"pit-trial","trial_index":239,"time_elapsed":4171413,"internal_node_id":"0.0-228.0","task_version":"test-retest"},{"Rune":"rune_01_ear","Hex":"#ffcc3399","Correct":-1,"Choice":32,"RT":340.3950000065379,"Accuracy":0,"Outcome":"-10","Keys":[1218.425000028219,1841.5600000298582],"TotalKeys":2,"Block":2,"Trial":218,"Robot":4,"Valence":"Lose","Action":"No-Go","Sham":0,"Color":"yellow","trial_type":"pit-trial","trial_index":240,"time_elapsed":4174314,"internal_node_id":"0.0-229.0","task_version":"test-retest"},{"Rune":"rune_01_ger","Hex":"#3366ff99","Correct":-1,"Choice":32,"RT":123.06000001262873,"Accuracy":0,"Outcome":"+1","Keys":[1623.9300000015646],"TotalKeys":1,"Block":2,"Trial":219,"Robot":2,"Valence":"Win","Action":"No-Go","Sham":0,"Color":"blue","trial_type":"pit-trial","trial_index":241,"time_elapsed":4177032,"internal_node_id":"0.0-230.0","task_version":"test-retest"},{"Rune":"rune_01_yr","Hex":"#3366ff99","Correct":32,"Choice":32,"RT":289.8999999742955,"Accuracy":1,"Outcome":"+10","Keys":[1791.0249999840744],"TotalKeys":1,"Block":2,"Trial":220,"Robot":1,"Valence":"Win","Action":"Go","Sham":0,"Color":"blue","trial_type":"pit-trial","trial_index":242,"time_elapsed":4179918,"internal_node_id":"0.0-231.0","task_version":"test-retest"},{"Rune":"rune_01_ger","Hex":"#3366ff99","Correct":-1,"Choice":32,"RT":232.79000003822148,"Accuracy":0,"Outcome":"+1","Keys":[1732.9950000275858],"TotalKeys":1,"Block":2,"Trial":221,"Robot":2,"Valence":"Win","Action":"No-Go","Sham":0,"Color":"blue","trial_type":"pit-trial","trial_index":243,"time_elapsed":4182719,"internal_node_id":"0.0-232.0","task_version":"test-retest"},{"Rune":"rune_01_ear","Hex":"#ffcc3399","Correct":-1,"Choice":32,"RT":475.2800000132993,"Accuracy":0,"Outcome":"-1","Keys":[1977.344999962952],"TotalKeys":1,"Block":2,"Trial":222,"Robot":4,"Valence":"Lose","Action":"No-Go","Sham":1,"Color":"yellow","trial_type":"pit-trial","trial_index":244,"time_elapsed":4185796,"internal_node_id":"0.0-233.0","task_version":"test-retest"},{"Rune":"rune_01_ingwaz","Hex":"#ffcc3399","Correct":32,"Choice":32,"RT":473.0349999736063,"Accuracy":1,"Outcome":"-1","Keys":[1974.6499999891967],"TotalKeys":1,"Block":2,"Trial":223,"Robot":3,"Valence":"Lose","Action":"Go","Sham":0,"Color":"yellow","trial_type":"pit-trial","trial_index":245,"time_elapsed":4188844,"internal_node_id":"0.0-234.0","task_version":"test-retest"},{"Rune":"rune_01_yr","Hex":"#3366ff99","Correct":32,"Choice":32,"RT":267.82499998807907,"Accuracy":1,"Outcome":"+10","Keys":[1769.2650000099093],"TotalKeys":1,"Block":2,"Trial":224,"Robot":1,"Valence":"Win","Action":"Go","Sham":0,"Color":"blue","trial_type":"pit-trial","trial_index":246,"time_elapsed":4191653,"internal_node_id":"0.0-235.0","task_version":"test-retest"},{"Rune":"rune_01_ger","Hex":"#3366ff99","Correct":-1,"Choice":32,"RT":254.28500003181398,"Accuracy":0,"Outcome":"+1","Keys":[1754.8050000336953],"TotalKeys":1,"Block":2,"Trial":225,"Robot":2,"Valence":"Win","Action":"No-Go","Sham":0,"Color":"blue","trial_type":"pit-trial","trial_index":247,"time_elapsed":4194457,"internal_node_id":"0.0-236.0","task_version":"test-retest"},{"Rune":"rune_01_ear","Hex":"#ffcc3399","Correct":-1,"Choice":32,"RT":332.43499998934567,"Accuracy":0,"Outcome":"-10","Keys":[1833.2800000207499],"TotalKeys":1,"Block":2,"Trial":226,"Robot":4,"Valence":"Lose","Action":"No-Go","Sham":0,"Color":"yellow","trial_type":"pit-trial","trial_index":248,"time_elapsed":4197330,"internal_node_id":"0.0-237.0","task_version":"test-retest"},{"Rune":"rune_01_ingwaz","Hex":"#ffcc3399","Correct":32,"Choice":32,"RT":289.9900000197813,"Accuracy":1,"Outcome":"-10","Keys":[1790.220000024885],"TotalKeys":1,"Block":2,"Trial":227,"Robot":3,"Valence":"Lose","Action":"Go","Sham":1,"Color":"yellow","trial_type":"pit-trial","trial_index":249,"time_elapsed":4200222,"internal_node_id":"0.0-238.0","task_version":"test-retest"},{"Rune":"rune_01_yr","Hex":"#3366ff99","Correct":32,"Choice":32,"RT":202.21999997645617,"Accuracy":1,"Outcome":"+1","Keys":[1703.1200000206009],"TotalKeys":1,"Block":2,"Trial":228,"Robot":1,"Valence":"Win","Action":"Go","Sham":1,"Color":"blue","trial_type":"pit-trial","trial_index":250,"time_elapsed":4202981,"internal_node_id":"0.0-239.0","task_version":"test-retest"},{"Rune":"rune_01_ear","Hex":"#ffcc3399","Correct":-1,"Choice":32,"RT":439.1499999910593,"Accuracy":0,"Outcome":"-10","Keys":[1939.7599999792874],"TotalKeys":1,"Block":2,"Trial":229,"Robot":4,"Valence":"Lose","Action":"No-Go","Sham":0,"Color":"yellow","trial_type":"pit-trial","trial_index":251,"time_elapsed":4205994,"internal_node_id":"0.0-240.0","task_version":"test-retest"},{"Rune":"rune_01_yr","Hex":"#3366ff99","Correct":32,"Choice":32,"RT":516.1000000080094,"Accuracy":1,"Outcome":"+10","Keys":[2016.4649999924004],"TotalKeys":1,"Block":2,"Trial":230,"Robot":1,"Valence":"Win","Action":"Go","Sham":0,"Color":"blue","trial_type":"pit-trial","trial_index":252,"time_elapsed":4209047,"internal_node_id":"0.0-241.0","task_version":"test-retest"},{"Rune":"rune_01_ingwaz","Hex":"#ffcc3399","Correct":32,"Choice":-1,"RT":-1,"Accuracy":0,"Outcome":"-10","Keys":[],"TotalKeys":0,"Block":2,"Trial":231,"Robot":3,"Valence":"Lose","Action":"Go","Sham":0,"Color":"yellow","trial_type":"pit-trial","trial_index":253,"time_elapsed":4213128,"internal_node_id":"0.0-242.0","task_version":"test-retest"},{"Rune":"rune_01_ger","Hex":"#3366ff99","Correct":-1,"Choice":32,"RT":203.97000003047287,"Accuracy":0,"Outcome":"+1","Keys":[1704.3549999939278],"TotalKeys":1,"Block":2,"Trial":232,"Robot":2,"Valence":"Win","Action":"No-Go","Sham":0,"Color":"blue","trial_type":"pit-trial","trial_index":254,"time_elapsed":4215885,"internal_node_id":"0.0-243.0","task_version":"test-retest"},{"Rune":"rune_01_ingwaz","Hex":"#ffcc3399","Correct":32,"Choice":32,"RT":212.52499998081475,"Accuracy":1,"Outcome":"-1","Keys":[1712.8149999771267],"TotalKeys":1,"Block":2,"Trial":233,"Robot":3,"Valence":"Lose","Action":"Go","Sham":0,"Color":"yellow","trial_type":"pit-trial","trial_index":255,"time_elapsed":4218663,"internal_node_id":"0.0-244.0","task_version":"test-retest"},{"Rune":"rune_01_ear","Hex":"#ffcc3399","Correct":-1,"Choice":32,"RT":223.9400000553578,"Accuracy":0,"Outcome":"-10","Keys":[1725.0200000125915],"TotalKeys":1,"Block":2,"Trial":234,"Robot":4,"Valence":"Lose","Action":"No-Go","Sham":0,"Color":"yellow","trial_type":"pit-trial","trial_index":256,"time_elapsed":4221482,"internal_node_id":"0.0-245.0","task_version":"test-retest"},{"Rune":"rune_01_yr","Hex":"#3366ff99","Correct":32,"Choice":32,"RT":192.38000002223998,"Accuracy":1,"Outcome":"+10","Keys":[1695.0250000227243],"TotalKeys":1,"Block":2,"Trial":235,"Robot":1,"Valence":"Win","Action":"Go","Sham":0,"Color":"blue","trial_type":"pit-trial","trial_index":257,"time_elapsed":4224271,"internal_node_id":"0.0-246.0","task_version":"test-retest"},{"Rune":"rune_01_ger","Hex":"#3366ff99","Correct":-1,"Choice":32,"RT":273.40000000502914,"Accuracy":0,"Outcome":"+1","Keys":[1774.890000000596],"TotalKeys":1,"Block":2,"Trial":236,"Robot":2,"Valence":"Win","Action":"No-Go","Sham":0,"Color":"blue","trial_type":"pit-trial","trial_index":258,"time_elapsed":4227140,"internal_node_id":"0.0-247.0","task_version":"test-retest"},{"Rune":"rune_01_yr","Hex":"#3366ff99","Correct":32,"Choice":32,"RT":217.9950000140816,"Accuracy":1,"Outcome":"+10","Keys":[1718.6949999881908],"TotalKeys":1,"Block":2,"Trial":237,"Robot":1,"Valence":"Win","Action":"Go","Sham":0,"Color":"blue","trial_type":"pit-trial","trial_index":259,"time_elapsed":4229949,"internal_node_id":"0.0-248.0","task_version":"test-retest"},{"Rune":"rune_01_ger","Hex":"#3366ff99","Correct":-1,"Choice":32,"RT":300.96500000171363,"Accuracy":0,"Outcome":"+10","Keys":[1801.540000014007],"TotalKeys":1,"Block":2,"Trial":238,"Robot":2,"Valence":"Win","Action":"No-Go","Sham":1,"Color":"blue","trial_type":"pit-trial","trial_index":260,"time_elapsed":4232791,"internal_node_id":"0.0-249.0","task_version":"test-retest"},{"Rune":"rune_01_ear","Hex":"#ffcc3399","Correct":-1,"Choice":32,"RT":487.6149999909103,"Accuracy":0,"Outcome":"-10","Keys":[1987.7299999929965],"TotalKeys":1,"Block":2,"Trial":239,"Robot":4,"Valence":"Lose","Action":"No-Go","Sham":0,"Color":"yellow","trial_type":"pit-trial","trial_index":261,"time_elapsed":4235842,"internal_node_id":"0.0-250.0","task_version":"test-retest"},{"Rune":"rune_01_ingwaz","Hex":"#ffcc3399","Correct":32,"Choice":32,"RT":754.0450000092387,"Accuracy":1,"Outcome":"-1","Keys":[2254.874999985099],"TotalKeys":1,"Block":2,"Trial":240,"Robot":3,"Valence":"Lose","Action":"Go","Sham":0,"Color":"yellow","trial_type":"pit-trial","trial_index":262,"time_elapsed":4239144,"internal_node_id":"0.0-251.0","task_version":"test-retest"},{"view_history":"[{\"page_index\":0,\"viewing_time\":4623.520000021905}]","rt":4624.505000013858,"trial_type":"pit-instructions","trial_index":263,"time_elapsed":4243843,"internal_node_id":"0.0-252.0","task_version":"test-retest"},{"rt":12029.009999997914,"responses":{"age":"26","gender-categorical":"Male","gender-free-response":"","ethnicity":"Not Hispanic or Latino","race":"White","language":"Yes","fluency":"Very well"},"survey":"demographics","trial_type":"survey-demo","trial_index":264,"time_elapsed":4255923,"internal_node_id":"0.0-253.0","task_version":"test-retest"},{"rt":28516.824999998324,"responses":{"difficulty":"4","fun":"5","clarity":"5","strategy":"I focused on which symbols gave me +1 or +10","feedback":""},"survey":"debrief","trial_type":"survey-debrief","trial_index":265,"time_elapsed":4284475,"internal_node_id":"0.0-254.0","task_version":"test-retest"},{"rt":16357.85500000976,"stimulus":"You earned a bonus of $0.76 out of $1.5.<br><br>Press any key to complete the experiment.","key_press":32,"trial_type":"html-keyboard-response","trial_index":266,"time_elapsed":4300923,"internal_node_id":"0.0-255.0","task_version":"test-retest","accuracy":0.5041666666666667,"bonus":0.76,"interactions":"[{\"event\":\"blur\",\"trial\":2,\"time\":33021},{\"event\":\"focus\",\"trial\":2,\"time\":112325},{\"event\":\"blur\",\"trial\":2,\"time\":113793},{\"event\":\"focus\",\"trial\":2,\"time\":119555},{\"event\":\"blur\",\"trial\":3,\"time\":202863},{\"event\":\"focus\",\"trial\":3,\"time\":204921},{\"event\":\"blur\",\"trial\":3,\"time\":263684},{\"event\":\"focus\",\"trial\":3,\"time\":295134},{\"event\":\"blur\",\"trial\":5,\"time\":342059},{\"event\":\"focus\",\"trial\":5,\"time\":344920},{\"event\":\"blur\",\"trial\":80,\"time\":653258},{\"event\":\"focus\",\"trial\":80,\"time\":660730},{\"event\":\"blur\",\"trial\":80,\"time\":952800},{\"event\":\"focus\",\"trial\":80,\"time\":997574},{\"event\":\"blur\",\"trial\":80,\"time\":2454385},{\"event\":\"focus\",\"trial\":80,\"time\":3420219},{\"event\":\"blur\",\"trial\":80,\"time\":3422375},{\"event\":\"focus\",\"trial\":80,\"time\":3434734},{\"event\":\"blur\",\"trial\":80,\"time\":3441057},{\"event\":\"focus\",\"trial\":80,\"time\":3443607},{\"event\":\"blur\",\"trial\":80,\"time\":3445106},{\"event\":\"focus\",\"trial\":80,\"time\":3454170},{\"event\":\"blur\",\"trial\":80,\"time\":3455824},{\"event\":\"focus\",\"trial\":80,\"time\":3615729},{\"event\":\"blur\",\"trial\":80,\"time\":3617393},{\"event\":\"focus\",\"trial\":80,\"time\":3618715},{\"event\":\"blur\",\"trial\":80,\"time\":3620040},{\"event\":\"focus\",\"trial\":80,\"time\":3623522},{\"event\":\"blur\",\"trial\":141,\"time\":3826837},{\"event\":\"focus\",\"trial\":141,\"time\":3833239},{\"event\":\"blur\",\"trial\":141,\"time\":3834225},{\"event\":\"focus\",\"trial\":141,\"time\":3855333},{\"event\":\"blur\",\"trial\":266,\"time\":4289375},{\"event\":\"focus\",\"trial\":266,\"time\":4291712},{\"event\":\"blur\",\"trial\":266,\"time\":4292024},{\"event\":\"focus\",\"trial\":266,\"time\":4293908},{\"event\":\"blur\",\"trial\":266,\"time\":4293910},{\"event\":\"focus\",\"trial\":266,\"time\":4299320}]"}]