[{"slider_type":"valence","raw_loc":635,"loc":0.77,"trial_type":"affective-slider","trial_index":0,"time_elapsed":3408,"internal_node_id":"0.0-0.0","task_version":"test-retest-t3"},{"responses":{"Q03":"0","Q04":"0","Q01":"0","Q02":"0","Q07":"0","Q08":"0","Q06":"0","Q05":"0"},"rt":11457.250000006752,"survey":"gad7","trial_type":"survey-template","trial_index":1,"time_elapsed":14869,"internal_node_id":"0.0-1.0","task_version":"test-retest-t3"},{"view_history":"[{\"page_index\":0,\"viewing_time\":3014.7850000066683},{\"page_index\":1,\"viewing_time\":937.6200000115205},{\"page_index\":2,\"viewing_time\":993.1299999880139},{\"page_index\":3,\"viewing_time\":1750.9349999891128},{\"page_index\":4,\"viewing_time\":617.9249999986496},{\"page_index\":5,\"viewing_time\":1472.1250000002328}]","rt":8787.20500000054,"trial_type":"pit-instructions","trial_index":2,"time_elapsed":23659,"internal_node_id":"0.0-2.0-0.0","task_version":"test-retest-t3"},{"Rune":"rune_00_ingz","Hex":"#FFFFF080","Correct":32,"Choice":32,"RT":514.469999994617,"Accuracy":1,"Outcome":"+10","Keys":[2014.5849999971688],"TotalKeys":1,"Block":0,"Action":"Go","trial_type":"pit-trial","trial_index":3,"time_elapsed":26677,"internal_node_id":"0.0-2.0-1.0-0.0","task_version":"test-retest-t3"},{"Rune":"rune_00_ingz","Hex":"#FFFFF080","Correct":32,"Choice":32,"RT":688.4099999733735,"Accuracy":1,"Outcome":"+10","Keys":[2188.8400000170805],"TotalKeys":1,"Block":0,"Action":"Go","trial_type":"pit-trial","trial_index":4,"time_elapsed":29867,"internal_node_id":"0.0-2.0-1.0-0.1","task_version":"test-retest-t3"},{"Rune":"rune_00_ingz","Hex":"#FFFFF080","Correct":32,"Choice":32,"RT":314.3850000051316,"Accuracy":1,"Outcome":"+10","Keys":[1814.5649999787565],"TotalKeys":1,"Block":0,"Action":"Go","trial_type":"pit-trial","trial_index":5,"time_elapsed":32684,"internal_node_id":"0.0-2.0-1.0-0.2","task_version":"test-retest-t3"},{"Rune":"rune_00_ingz","Hex":"#FFFFF080","Correct":32,"Choice":32,"RT":70.58500000857748,"Accuracy":1,"Outcome":"+10","Keys":[1572.1900000062305],"TotalKeys":1,"Block":0,"Action":"Go","trial_type":"pit-trial","trial_index":6,"time_elapsed":35260,"internal_node_id":"0.0-2.0-1.0-0.3","task_version":"test-retest-t3"},{"view_history":"[{\"page_index\":0,\"viewing_time\":2426.2500000186265}]","rt":2426.6000000061467,"trial_type":"pit-instructions","trial_index":7,"time_elapsed":37688,"internal_node_id":"0.0-2.0-2.0","task_version":"test-retest-t3"},{"Rune":"rune_00_isaz","Hex":"#FFFFF080","Correct":-1,"Choice":-1,"RT":-1,"Accuracy":1,"Outcome":"+10","Keys":[],"TotalKeys":0,"Block":0,"Action":"No-Go","trial_type":"pit-trial","trial_index":8,"time_elapsed":41691,"internal_node_id":"0.0-2.0-3.0-0.0","task_version":"test-retest-t3"},{"Rune":"rune_00_isaz","Hex":"#FFFFF080","Correct":-1,"Choice":-1,"RT":-1,"Accuracy":1,"Outcome":"+10","Keys":[],"TotalKeys":0,"Block":0,"Action":"No-Go","trial_type":"pit-trial","trial_index":9,"time_elapsed":45694,"internal_node_id":"0.0-2.0-3.0-0.1","task_version":"test-retest-t3"},{"Rune":"rune_00_isaz","Hex":"#FFFFF080","Correct":-1,"Choice":-1,"RT":-1,"Accuracy":1,"Outcome":"+10","Keys":[],"TotalKeys":0,"Block":0,"Action":"No-Go","trial_type":"pit-trial","trial_index":10,"time_elapsed":49698,"internal_node_id":"0.0-2.0-3.0-0.2","task_version":"test-retest-t3"},{"Rune":"rune_00_isaz","Hex":"#FFFFF080","Correct":-1,"Choice":-1,"RT":-1,"Accuracy":1,"Outcome":"+10","Keys":[],"TotalKeys":0,"Block":0,"Action":"No-Go","trial_type":"pit-trial","trial_index":11,"time_elapsed":53701,"internal_node_id":"0.0-2.0-3.0-0.3","task_version":"test-retest-t3"},{"view_history":"[{\"page_index\":0,\"viewing_time\":3138.9750000089407},{\"page_index\":1,\"viewing_time\":599.259999988135},{\"page_index\":2,\"viewing_time\":804.6850000100676},{\"page_index\":3,\"viewing_time\":768.9949999912642},{\"page_index\":4,\"viewing_time\":773.9700000092853},{\"page_index\":5,\"viewing_time\":699.3300000031013},{\"page_index\":6,\"viewing_time\":562.9550000012387},{\"page_index\":7,\"viewing_time\":558.0149999877904}]","rt":7906.539999996312,"trial_type":"pit-instructions","trial_index":12,"time_elapsed":61608,"internal_node_id":"0.0-2.0-4.0","task_version":"test-retest-t3"},{"responses":["Do nothing","+10","-1","True","Yes"],"num_errors":0,"rt":17891.60499998252,"trial_type":"pit-comprehension","trial_index":13,"time_elapsed":79502,"internal_node_id":"0.0-2.0-5.0","task_version":"test-retest-t3"},{"trial_type":"call-function","trial_index":14,"time_elapsed":79505,"internal_node_id":"0.0-3.0","task_version":"test-retest-t3"},{"view_history":"[{\"page_index\":0,\"viewing_time\":2012.6649999874644},{\"page_index\":1,\"viewing_time\":1173.754999996163},{\"page_index\":2,\"viewing_time\":1141.2300000083633}]","rt":4327.9899999906775,"trial_type":"pit-instructions","trial_index":15,"time_elapsed":83833,"internal_node_id":"0.0-4.0","task_version":"test-retest-t3"},{"Rune":"rune_06_ehwaz","Hex":"#ffcc3399","Correct":-1,"Choice":32,"RT":418.725000025006,"Accuracy":0,"Outcome":"+1","Keys":[1919.2949999996927],"TotalKeys":1,"Block":1,"Trial":1,"Robot":2,"Valence":"Win","Action":"No-Go","Sham":0,"Color":"yellow","trial_type":"pit-trial","trial_index":16,"time_elapsed":86755,"internal_node_id":"0.0-5.0","task_version":"test-retest-t3"},{"Rune":"rune_06_ansuz","Hex":"#3366ff99","Correct":-1,"Choice":32,"RT":665.3700000024401,"Accuracy":0,"Outcome":"-10","Keys":[2166.029999993043],"TotalKeys":1,"Block":1,"Trial":2,"Robot":4,"Valence":"Lose","Action":"No-Go","Sham":0,"Color":"blue","trial_type":"pit-trial","trial_index":17,"time_elapsed":89924,"internal_node_id":"0.0-6.0","task_version":"test-retest-t3"},{"Rune":"rune_06_berkanan","Hex":"#ffcc3399","Correct":32,"Choice":32,"RT":570.240000000922,"Accuracy":1,"Outcome":"+10","Keys":[2070.5249999882653],"TotalKeys":1,"Block":1,"Trial":3,"Robot":1,"Valence":"Win","Action":"Go","Sham":0,"Color":"yellow","trial_type":"pit-trial","trial_index":18,"time_elapsed":92997,"internal_node_id":"0.0-7.0","task_version":"test-retest-t3"},{"Rune":"rune_06_cweord","Hex":"#3366ff99","Correct":32,"Choice":-1,"RT":-1,"Accuracy":0,"Outcome":"-1","Keys":[],"TotalKeys":0,"Block":1,"Trial":4,"Robot":3,"Valence":"Lose","Action":"Go","Sham":1,"Color":"blue","trial_type":"pit-trial","trial_index":19,"time_elapsed":97001,"internal_node_id":"0.0-8.0","task_version":"test-retest-t3"},{"Rune":"rune_06_berkanan","Hex":"#ffcc3399","Correct":32,"Choice":32,"RT":523.8299999909941,"Accuracy":1,"Outcome":"+10","Keys":[2024.7899999958463],"TotalKeys":1,"Block":1,"Trial":5,"Robot":1,"Valence":"Win","Action":"Go","Sham":0,"Color":"yellow","trial_type":"pit-trial","trial_index":20,"time_elapsed":100028,"internal_node_id":"0.0-9.0","task_version":"test-retest-t3"},{"Rune":"rune_06_ansuz","Hex":"#3366ff99","Correct":-1,"Choice":-1,"RT":-1,"Accuracy":1,"Outcome":"-1","Keys":[],"TotalKeys":0,"Block":1,"Trial":6,"Robot":4,"Valence":"Lose","Action":"No-Go","Sham":0,"Color":"blue","trial_type":"pit-trial","trial_index":21,"time_elapsed":104032,"internal_node_id":"0.0-10.0","task_version":"test-retest-t3"},{"Rune":"rune_06_cweord","Hex":"#3366ff99","Correct":32,"Choice":-1,"RT":-1,"Accuracy":0,"Outcome":"-10","Keys":[],"TotalKeys":0,"Block":1,"Trial":7,"Robot":3,"Valence":"Lose","Action":"Go","Sham":0,"Color":"blue","trial_type":"pit-trial","trial_index":22,"time_elapsed":108036,"internal_node_id":"0.0-11.0","task_version":"test-retest-t3"},{"Rune":"rune_06_ehwaz","Hex":"#ffcc3399","Correct":-1,"Choice":32,"RT":431.9649999961257,"Accuracy":0,"Outcome":"+1","Keys":[1933.4950000047684],"TotalKeys":1,"Block":1,"Trial":8,"Robot":2,"Valence":"Win","Action":"No-Go","Sham":0,"Color":"yellow","trial_type":"pit-trial","trial_index":23,"time_elapsed":110971,"internal_node_id":"0.0-12.0","task_version":"test-retest-t3"},{"Rune":"rune_06_cweord","Hex":"#3366ff99","Correct":32,"Choice":-1,"RT":-1,"Accuracy":0,"Outcome":"-10","Keys":[],"TotalKeys":0,"Block":1,"Trial":9,"Robot":3,"Valence":"Lose","Action":"Go","Sham":0,"Color":"blue","trial_type":"pit-trial","trial_index":24,"time_elapsed":114975,"internal_node_id":"0.0-13.0","task_version":"test-retest-t3"},{"Rune":"rune_06_ansuz","Hex":"#3366ff99","Correct":-1,"Choice":32,"RT":733.7900000275113,"Accuracy":0,"Outcome":"-10","Keys":[2233.910000009928],"TotalKeys":1,"Block":1,"Trial":10,"Robot":4,"Valence":"Lose","Action":"No-Go","Sham":0,"Color":"blue","trial_type":"pit-trial","trial_index":25,"time_elapsed":118213,"internal_node_id":"0.0-14.0","task_version":"test-retest-t3"},{"Rune":"rune_06_berkanan","Hex":"#ffcc3399","Correct":32,"Choice":32,"RT":247.57500001578592,"Accuracy":1,"Outcome":"+10","Keys":[1748.8899999880232],"TotalKeys":1,"Block":1,"Trial":11,"Robot":1,"Valence":"Win","Action":"Go","Sham":0,"Color":"yellow","trial_type":"pit-trial","trial_index":26,"time_elapsed":120964,"internal_node_id":"0.0-15.0","task_version":"test-retest-t3"},{"Rune":"rune_06_ehwaz","Hex":"#ffcc3399","Correct":-1,"Choice":32,"RT":679.0949999995064,"Accuracy":0,"Outcome":"+1","Keys":[2181.0650000115857],"TotalKeys":1,"Block":1,"Trial":12,"Robot":2,"Valence":"Win","Action":"No-Go","Sham":0,"Color":"yellow","trial_type":"pit-trial","trial_index":27,"time_elapsed":124148,"internal_node_id":"0.0-16.0","task_version":"test-retest-t3"},{"Rune":"rune_06_cweord","Hex":"#3366ff99","Correct":32,"Choice":-1,"RT":-1,"Accuracy":0,"Outcome":"-10","Keys":[],"TotalKeys":0,"Block":1,"Trial":13,"Robot":3,"Valence":"Lose","Action":"Go","Sham":0,"Color":"blue","trial_type":"pit-trial","trial_index":28,"time_elapsed":128152,"internal_node_id":"0.0-17.0","task_version":"test-retest-t3"},{"Rune":"rune_06_ansuz","Hex":"#3366ff99","Correct":-1,"Choice":-1,"RT":-1,"Accuracy":1,"Outcome":"-1","Keys":[],"TotalKeys":0,"Block":1,"Trial":14,"Robot":4,"Valence":"Lose","Action":"No-Go","Sham":0,"Color":"blue","trial_type":"pit-trial","trial_index":29,"time_elapsed":132155,"internal_node_id":"0.0-18.0","task_version":"test-retest-t3"},{"Rune":"rune_06_berkanan","Hex":"#ffcc3399","Correct":32,"Choice":32,"RT":393.8250000064727,"Accuracy":1,"Outcome":"+1","Keys":[1894.1300000005867],"TotalKeys":1,"Block":1,"Trial":15,"Robot":1,"Valence":"Win","Action":"Go","Sham":1,"Color":"yellow","trial_type":"pit-trial","trial_index":30,"time_elapsed":135051,"internal_node_id":"0.0-19.0","task_version":"test-retest-t3"},{"Rune":"rune_06_ehwaz","Hex":"#ffcc3399","Correct":-1,"Choice":32,"RT":665.6750000256579,"Accuracy":0,"Outcome":"+10","Keys":[2165.9250000084285],"TotalKeys":1,"Block":1,"Trial":16,"Robot":2,"Valence":"Win","Action":"No-Go","Sham":1,"Color":"yellow","trial_type":"pit-trial","trial_index":31,"time_elapsed":138220,"internal_node_id":"0.0-20.0","task_version":"test-retest-t3"},{"Rune":"rune_06_ehwaz","Hex":"#ffcc3399","Correct":-1,"Choice":32,"RT":520.8649999985937,"Accuracy":0,"Outcome":"+1","Keys":[2021.7800000100397],"TotalKeys":1,"Block":1,"Trial":17,"Robot":2,"Valence":"Win","Action":"No-Go","Sham":0,"Color":"yellow","trial_type":"pit-trial","trial_index":32,"time_elapsed":141245,"internal_node_id":"0.0-21.0","task_version":"test-retest-t3"},{"Rune":"rune_06_cweord","Hex":"#3366ff99","Correct":32,"Choice":32,"RT":856.0699999798089,"Accuracy":1,"Outcome":"-1","Keys":[2356.2050000182353],"TotalKeys":1,"Block":1,"Trial":18,"Robot":3,"Valence":"Lose","Action":"Go","Sham":0,"Color":"blue","trial_type":"pit-trial","trial_index":33,"time_elapsed":144604,"internal_node_id":"0.0-22.0","task_version":"test-retest-t3"},{"Rune":"rune_06_berkanan","Hex":"#ffcc3399","Correct":32,"Choice":32,"RT":568.3100000023842,"Accuracy":1,"Outcome":"+10","Keys":[2069.3650000030175],"TotalKeys":1,"Block":1,"Trial":19,"Robot":1,"Valence":"Win","Action":"Go","Sham":0,"Color":"yellow","trial_type":"pit-trial","trial_index":34,"time_elapsed":147676,"internal_node_id":"0.0-23.0","task_version":"test-retest-t3"},{"Rune":"rune_06_ansuz","Hex":"#3366ff99","Correct":-1,"Choice":-1,"RT":-1,"Accuracy":1,"Outcome":"-10","Keys":[],"TotalKeys":0,"Block":1,"Trial":20,"Robot":4,"Valence":"Lose","Action":"No-Go","Sham":1,"Color":"blue","trial_type":"pit-trial","trial_index":35,"time_elapsed":151680,"internal_node_id":"0.0-24.0","task_version":"test-retest-t3"},{"Rune":"rune_06_ehwaz","Hex":"#ffcc3399","Correct":-1,"Choice":32,"RT":772.7799999993294,"Accuracy":0,"Outcome":"+10","Keys":[2273.474999994505],"TotalKeys":1,"Block":1,"Trial":21,"Robot":2,"Valence":"Win","Action":"No-Go","Sham":1,"Color":"yellow","trial_type":"pit-trial","trial_index":36,"time_elapsed":154956,"internal_node_id":"0.0-25.0","task_version":"test-retest-t3"},{"Rune":"rune_06_cweord","Hex":"#3366ff99","Correct":32,"Choice":32,"RT":648.8250000111293,"Accuracy":1,"Outcome":"-1","Keys":[2149.6400000178255],"TotalKeys":1,"Block":1,"Trial":22,"Robot":3,"Valence":"Lose","Action":"Go","Sham":0,"Color":"blue","trial_type":"pit-trial","trial_index":37,"time_elapsed":158108,"internal_node_id":"0.0-26.0","task_version":"test-retest-t3"},{"Rune":"rune_06_berkanan","Hex":"#ffcc3399","Correct":32,"Choice":32,"RT":376.7200000002049,"Accuracy":1,"Outcome":"+10","Keys":[1877.8149999852758],"TotalKeys":1,"Block":1,"Trial":23,"Robot":1,"Valence":"Win","Action":"Go","Sham":0,"Color":"yellow","trial_type":"pit-trial","trial_index":38,"time_elapsed":160989,"internal_node_id":"0.0-27.0","task_version":"test-retest-t3"},{"Rune":"rune_06_ansuz","Hex":"#3366ff99","Correct":-1,"Choice":32,"RT":1336.4650000003166,"Accuracy":0,"Outcome":"-1","Keys":[2836.52000001166],"TotalKeys":1,"Block":1,"Trial":24,"Robot":4,"Valence":"Lose","Action":"No-Go","Sham":1,"Color":"blue","trial_type":"pit-trial","trial_index":39,"time_elapsed":164828,"internal_node_id":"0.0-28.0","task_version":"test-retest-t3"},{"Rune":"rune_06_ehwaz","Hex":"#ffcc3399","Correct":-1,"Choice":32,"RT":288.42500000610016,"Accuracy":0,"Outcome":"+1","Keys":[1788.7649999756832],"TotalKeys":1,"Block":1,"Trial":25,"Robot":2,"Valence":"Win","Action":"No-Go","Sham":0,"Color":"yellow","trial_type":"pit-trial","trial_index":40,"time_elapsed":167620,"internal_node_id":"0.0-29.0","task_version":"test-retest-t3"},{"Rune":"rune_06_berkanan","Hex":"#ffcc3399","Correct":32,"Choice":32,"RT":264.6200000017416,"Accuracy":1,"Outcome":"+10","Keys":[1764.9600000004284],"TotalKeys":1,"Block":1,"Trial":26,"Robot":1,"Valence":"Win","Action":"Go","Sham":0,"Color":"yellow","trial_type":"pit-trial","trial_index":41,"time_elapsed":170388,"internal_node_id":"0.0-30.0","task_version":"test-retest-t3"},{"Rune":"rune_06_cweord","Hex":"#3366ff99","Correct":32,"Choice":-1,"RT":-1,"Accuracy":0,"Outcome":"-10","Keys":[],"TotalKeys":0,"Block":1,"Trial":27,"Robot":3,"Valence":"Lose","Action":"Go","Sham":0,"Color":"blue","trial_type":"pit-trial","trial_index":42,"time_elapsed":174393,"internal_node_id":"0.0-31.0","task_version":"test-retest-t3"},{"Rune":"rune_06_ansuz","Hex":"#3366ff99","Correct":-1,"Choice":32,"RT":1290.3499999956694,"Accuracy":0,"Outcome":"-10","Keys":[2792.619999992894],"TotalKeys":1,"Block":1,"Trial":28,"Robot":4,"Valence":"Lose","Action":"No-Go","Sham":0,"Color":"blue","trial_type":"pit-trial","trial_index":43,"time_elapsed":178188,"internal_node_id":"0.0-32.0","task_version":"test-retest-t3"},{"Rune":"rune_06_berkanan","Hex":"#ffcc3399","Correct":32,"Choice":32,"RT":353.5649999976158,"Accuracy":1,"Outcome":"+1","Keys":[1853.6299999977928],"TotalKeys":1,"Block":1,"Trial":29,"Robot":1,"Valence":"Win","Action":"Go","Sham":1,"Color":"yellow","trial_type":"pit-trial","trial_index":44,"time_elapsed":181045,"internal_node_id":"0.0-33.0","task_version":"test-retest-t3"},{"Rune":"rune_06_cweord","Hex":"#3366ff99","Correct":32,"Choice":32,"RT":1183.7499999965075,"Accuracy":1,"Outcome":"-1","Keys":[2685.0500000000466],"TotalKeys":1,"Block":1,"Trial":30,"Robot":3,"Valence":"Lose","Action":"Go","Sham":0,"Color":"blue","trial_type":"pit-trial","trial_index":45,"time_elapsed":184733,"internal_node_id":"0.0-34.0","task_version":"test-retest-t3"},{"Rune":"rune_06_ehwaz","Hex":"#ffcc3399","Correct":-1,"Choice":32,"RT":464.13000000757165,"Accuracy":0,"Outcome":"+1","Keys":[1964.5549999841023],"TotalKeys":1,"Block":1,"Trial":31,"Robot":2,"Valence":"Win","Action":"No-Go","Sham":0,"Color":"yellow","trial_type":"pit-trial","trial_index":46,"time_elapsed":187700,"internal_node_id":"0.0-35.0","task_version":"test-retest-t3"},{"Rune":"rune_06_ansuz","Hex":"#3366ff99","Correct":-1,"Choice":32,"RT":976.5649999899324,"Accuracy":0,"Outcome":"-10","Keys":[2477.359999989858],"TotalKeys":1,"Block":1,"Trial":32,"Robot":4,"Valence":"Lose","Action":"No-Go","Sham":0,"Color":"blue","trial_type":"pit-trial","trial_index":47,"time_elapsed":191180,"internal_node_id":"0.0-36.0","task_version":"test-retest-t3"},{"Rune":"rune_06_cweord","Hex":"#3366ff99","Correct":32,"Choice":32,"RT":1136.335000017425,"Accuracy":1,"Outcome":"-1","Keys":[2637.014999985695],"TotalKeys":1,"Block":1,"Trial":33,"Robot":3,"Valence":"Lose","Action":"Go","Sham":0,"Color":"blue","trial_type":"pit-trial","trial_index":48,"time_elapsed":194820,"internal_node_id":"0.0-37.0","task_version":"test-retest-t3"},{"Rune":"rune_06_ehwaz","Hex":"#ffcc3399","Correct":-1,"Choice":-1,"RT":-1,"Accuracy":1,"Outcome":"+10","Keys":[],"TotalKeys":0,"Block":1,"Trial":34,"Robot":2,"Valence":"Win","Action":"No-Go","Sham":0,"Color":"yellow","trial_type":"pit-trial","trial_index":49,"time_elapsed":198825,"internal_node_id":"0.0-38.0","task_version":"test-retest-t3"},{"Rune":"rune_06_berkanan","Hex":"#ffcc3399","Correct":32,"Choice":32,"RT":299.56500002299435,"Accuracy":1,"Outcome":"+10","Keys":[1800.0300000130665],"TotalKeys":1,"Block":1,"Trial":35,"Robot":1,"Valence":"Win","Action":"Go","Sham":0,"Color":"yellow","trial_type":"pit-trial","trial_index":50,"time_elapsed":201629,"internal_node_id":"0.0-39.0","task_version":"test-retest-t3"},{"Rune":"rune_06_ansuz","Hex":"#3366ff99","Correct":-1,"Choice":-1,"RT":-1,"Accuracy":1,"Outcome":"-1","Keys":[],"TotalKeys":0,"Block":1,"Trial":36,"Robot":4,"Valence":"Lose","Action":"No-Go","Sham":0,"Color":"blue","trial_type":"pit-trial","trial_index":51,"time_elapsed":205633,"internal_node_id":"0.0-40.0","task_version":"test-retest-t3"},{"Rune":"rune_06_berkanan","Hex":"#ffcc3399","Correct":32,"Choice":32,"RT":420.0399999972433,"Accuracy":1,"Outcome":"+10","Keys":[1920.410000020638],"TotalKeys":1,"Block":1,"Trial":37,"Robot":1,"Valence":"Win","Action":"Go","Sham":0,"Color":"yellow","trial_type":"pit-trial","trial_index":52,"time_elapsed":208556,"internal_node_id":"0.0-41.0","task_version":"test-retest-t3"},{"Rune":"rune_06_ehwaz","Hex":"#ffcc3399","Correct":-1,"Choice":32,"RT":720.274999999674,"Accuracy":0,"Outcome":"+1","Keys":[2220.904999994673],"TotalKeys":1,"Block":1,"Trial":38,"Robot":2,"Valence":"Win","Action":"No-Go","Sham":0,"Color":"yellow","trial_type":"pit-trial","trial_index":53,"time_elapsed":211780,"internal_node_id":"0.0-42.0","task_version":"test-retest-t3"},{"Rune":"rune_06_cweord","Hex":"#3366ff99","Correct":32,"Choice":32,"RT":791.5950000169687,"Accuracy":1,"Outcome":"-10","Keys":[2293.1549999921117],"TotalKeys":1,"Block":1,"Trial":39,"Robot":3,"Valence":"Lose","Action":"Go","Sham":1,"Color":"blue","trial_type":"pit-trial","trial_index":54,"time_elapsed":215077,"internal_node_id":"0.0-43.0","task_version":"test-retest-t3"},{"Rune":"rune_06_ansuz","Hex":"#3366ff99","Correct":-1,"Choice":32,"RT":1047.7050000044983,"Accuracy":0,"Outcome":"-10","Keys":[2548.6350000137463],"TotalKeys":1,"Block":1,"Trial":40,"Robot":4,"Valence":"Lose","Action":"No-Go","Sham":0,"Color":"blue","trial_type":"pit-trial","trial_index":55,"time_elapsed":218628,"internal_node_id":"0.0-44.0","task_version":"test-retest-t3"},{"Rune":"rune_06_ansuz","Hex":"#3366ff99","Correct":-1,"Choice":-1,"RT":-1,"Accuracy":1,"Outcome":"-10","Keys":[],"TotalKeys":0,"Block":1,"Trial":41,"Robot":4,"Valence":"Lose","Action":"No-Go","Sham":1,"Color":"blue","trial_type":"pit-trial","trial_index":56,"time_elapsed":222631,"internal_node_id":"0.0-45.0","task_version":"test-retest-t3"},{"Rune":"rune_06_cweord","Hex":"#3366ff99","Correct":32,"Choice":-1,"RT":-1,"Accuracy":0,"Outcome":"-10","Keys":[],"TotalKeys":0,"Block":1,"Trial":42,"Robot":3,"Valence":"Lose","Action":"Go","Sham":0,"Color":"blue","trial_type":"pit-trial","trial_index":57,"time_elapsed":226635,"internal_node_id":"0.0-46.0","task_version":"test-retest-t3"},{"Rune":"rune_06_ehwaz","Hex":"#ffcc3399","Correct":-1,"Choice":32,"RT":329.30499999201857,"Accuracy":0,"Outcome":"+1","Keys":[1830.7899999781512],"TotalKeys":1,"Block":1,"Trial":43,"Robot":2,"Valence":"Win","Action":"No-Go","Sham":0,"Color":"yellow","trial_type":"pit-trial","trial_index":58,"time_elapsed":229468,"internal_node_id":"0.0-47.0","task_version":"test-retest-t3"},{"Rune":"rune_06_berkanan","Hex":"#ffcc3399","Correct":32,"Choice":32,"RT":296.02999999769963,"Accuracy":1,"Outcome":"+10","Keys":[1797.3850000125822],"TotalKeys":1,"Block":1,"Trial":44,"Robot":1,"Valence":"Win","Action":"Go","Sham":0,"Color":"yellow","trial_type":"pit-trial","trial_index":59,"time_elapsed":232268,"internal_node_id":"0.0-48.0","task_version":"test-retest-t3"},{"Rune":"rune_06_ehwaz","Hex":"#ffcc3399","Correct":-1,"Choice":-1,"RT":-1,"Accuracy":1,"Outcome":"+10","Keys":[],"TotalKeys":0,"Block":1,"Trial":45,"Robot":2,"Valence":"Win","Action":"No-Go","Sham":0,"Color":"yellow","trial_type":"pit-trial","trial_index":60,"time_elapsed":236271,"internal_node_id":"0.0-49.0","task_version":"test-retest-t3"},{"Rune":"rune_06_berkanan","Hex":"#ffcc3399","Correct":32,"Choice":32,"RT":277.2549999936018,"Accuracy":1,"Outcome":"+10","Keys":[1777.4549999739975],"TotalKeys":1,"Block":1,"Trial":46,"Robot":1,"Valence":"Win","Action":"Go","Sham":0,"Color":"yellow","trial_type":"pit-trial","trial_index":61,"time_elapsed":239052,"internal_node_id":"0.0-50.0","task_version":"test-retest-t3"},{"Rune":"rune_06_cweord","Hex":"#3366ff99","Correct":32,"Choice":32,"RT":1072.905000008177,"Accuracy":1,"Outcome":"-10","Keys":[2573.019999981625],"TotalKeys":1,"Block":1,"Trial":47,"Robot":3,"Valence":"Lose","Action":"Go","Sham":1,"Color":"blue","trial_type":"pit-trial","trial_index":62,"time_elapsed":242628,"internal_node_id":"0.0-51.0","task_version":"test-retest-t3"},{"Rune":"rune_06_ansuz","Hex":"#3366ff99","Correct":-1,"Choice":-1,"RT":-1,"Accuracy":1,"Outcome":"-1","Keys":[],"TotalKeys":0,"Block":1,"Trial":48,"Robot":4,"Valence":"Lose","Action":"No-Go","Sham":0,"Color":"blue","trial_type":"pit-trial","trial_index":63,"time_elapsed":246632,"internal_node_id":"0.0-52.0","task_version":"test-retest-t3"},{"Rune":"rune_06_berkanan","Hex":"#ffcc3399","Correct":32,"Choice":32,"RT":492.14499999652617,"Accuracy":1,"Outcome":"+10","Keys":[1993.0900000035763],"TotalKeys":1,"Block":1,"Trial":49,"Robot":1,"Valence":"Win","Action":"Go","Sham":0,"Color":"yellow","trial_type":"pit-trial","trial_index":64,"time_elapsed":249628,"internal_node_id":"0.0-53.0","task_version":"test-retest-t3"},{"Rune":"rune_06_cweord","Hex":"#3366ff99","Correct":32,"Choice":32,"RT":736.8949999799952,"Accuracy":1,"Outcome":"-1","Keys":[2237.0999999984633],"TotalKeys":1,"Block":1,"Trial":50,"Robot":3,"Valence":"Lose","Action":"Go","Sham":0,"Color":"blue","trial_type":"pit-trial","trial_index":65,"time_elapsed":252868,"internal_node_id":"0.0-54.0","task_version":"test-retest-t3"},{"Rune":"rune_06_ehwaz","Hex":"#ffcc3399","Correct":-1,"Choice":-1,"RT":-1,"Accuracy":1,"Outcome":"+1","Keys":[],"TotalKeys":0,"Block":1,"Trial":51,"Robot":2,"Valence":"Win","Action":"No-Go","Sham":1,"Color":"yellow","trial_type":"pit-trial","trial_index":66,"time_elapsed":256871,"internal_node_id":"0.0-55.0","task_version":"test-retest-t3"},{"Rune":"rune_06_ansuz","Hex":"#3366ff99","Correct":-1,"Choice":-1,"RT":-1,"Accuracy":1,"Outcome":"-1","Keys":[],"TotalKeys":0,"Block":1,"Trial":52,"Robot":4,"Valence":"Lose","Action":"No-Go","Sham":0,"Color":"blue","trial_type":"pit-trial","trial_index":67,"time_elapsed":260875,"internal_node_id":"0.0-56.0","task_version":"test-retest-t3"},{"Rune":"rune_06_ehwaz","Hex":"#ffcc3399","Correct":-1,"Choice":-1,"RT":-1,"Accuracy":1,"Outcome":"+10","Keys":[],"TotalKeys":0,"Block":1,"Trial":53,"Robot":2,"Valence":"Win","Action":"No-Go","Sham":0,"Color":"yellow","trial_type":"pit-trial","trial_index":68,"time_elapsed":264878,"internal_node_id":"0.0-57.0","task_version":"test-retest-t3"},{"Rune":"rune_06_cweord","Hex":"#3366ff99","Correct":32,"Choice":-1,"RT":-1,"Accuracy":0,"Outcome":"-10","Keys":[],"TotalKeys":0,"Block":1,"Trial":54,"Robot":3,"Valence":"Lose","Action":"Go","Sham":0,"Color":"blue","trial_type":"pit-trial","trial_index":69,"time_elapsed":268884,"internal_node_id":"0.0-58.0","task_version":"test-retest-t3"},{"Rune":"rune_06_ansuz","Hex":"#3366ff99","Correct":-1,"Choice":-1,"RT":-1,"Accuracy":1,"Outcome":"-1","Keys":[],"TotalKeys":0,"Block":1,"Trial":55,"Robot":4,"Valence":"Lose","Action":"No-Go","Sham":0,"Color":"blue","trial_type":"pit-trial","trial_index":70,"time_elapsed":272888,"internal_node_id":"0.0-59.0","task_version":"test-retest-t3"},{"Rune":"rune_06_berkanan","Hex":"#ffcc3399","Correct":32,"Choice":32,"RT":308.5150000115391,"Accuracy":1,"Outcome":"+10","Keys":[1809.2049999977462],"TotalKeys":1,"Block":1,"Trial":56,"Robot":1,"Valence":"Win","Action":"Go","Sham":0,"Color":"yellow","trial_type":"pit-trial","trial_index":71,"time_elapsed":275700,"internal_node_id":"0.0-60.0","task_version":"test-retest-t3"},{"Rune":"rune_06_berkanan","Hex":"#ffcc3399","Correct":32,"Choice":32,"RT":552.7750000183005,"Accuracy":1,"Outcome":"+1","Keys":[2052.8099999937695],"TotalKeys":1,"Block":1,"Trial":57,"Robot":1,"Valence":"Win","Action":"Go","Sham":1,"Color":"yellow","trial_type":"pit-trial","trial_index":72,"time_elapsed":278755,"internal_node_id":"0.0-61.0","task_version":"test-retest-t3"},{"Rune":"rune_06_cweord","Hex":"#3366ff99","Correct":32,"Choice":32,"RT":721.6199999966193,"Accuracy":1,"Outcome":"-1","Keys":[2221.9249999907333],"TotalKeys":1,"Block":1,"Trial":58,"Robot":3,"Valence":"Lose","Action":"Go","Sham":0,"Color":"blue","trial_type":"pit-trial","trial_index":73,"time_elapsed":281979,"internal_node_id":"0.0-62.0","task_version":"test-retest-t3"},{"Rune":"rune_06_ehwaz","Hex":"#ffcc3399","Correct":-1,"Choice":32,"RT":465.29500000178814,"Accuracy":0,"Outcome":"+1","Keys":[1965.5749999801628],"TotalKeys":1,"Block":1,"Trial":59,"Robot":2,"Valence":"Win","Action":"No-Go","Sham":0,"Color":"yellow","trial_type":"pit-trial","trial_index":74,"time_elapsed":284947,"internal_node_id":"0.0-63.0","task_version":"test-retest-t3"},{"Rune":"rune_06_ansuz","Hex":"#3366ff99","Correct":-1,"Choice":-1,"RT":-1,"Accuracy":1,"Outcome":"-1","Keys":[],"TotalKeys":0,"Block":1,"Trial":60,"Robot":4,"Valence":"Lose","Action":"No-Go","Sham":0,"Color":"blue","trial_type":"pit-trial","trial_index":75,"time_elapsed":288951,"internal_node_id":"0.0-64.0","task_version":"test-retest-t3"},{"value":false,"trial_type":"call-function","trial_index":76,"time_elapsed":288953,"internal_node_id":"0.0-65.0","task_version":"test-retest-t3"},{"view_history":"[{\"page_index\":0,\"viewing_time\":2235.6699999945704},{\"page_index\":1,\"viewing_time\":2453.940000006696}]","rt":4689.96999997762,"trial_type":"pit-instructions","trial_index":77,"time_elapsed":293643,"internal_node_id":"0.0-66.0","task_version":"test-retest-t3"},{"Rune":"rune_06_cweord","Hex":"#3366ff99","Correct":32,"Choice":32,"RT":648.9850000070874,"Accuracy":1,"Outcome":"-1","Keys":[2149.860000004992],"TotalKeys":1,"Block":1,"Trial":61,"Robot":3,"Valence":"Lose","Action":"Go","Sham":0,"Color":"blue","trial_type":"pit-trial","trial_index":78,"time_elapsed":296796,"internal_node_id":"0.0-67.0","task_version":"test-retest-t3"},{"Rune":"rune_06_ansuz","Hex":"#3366ff99","Correct":-1,"Choice":-1,"RT":-1,"Accuracy":1,"Outcome":"-10","Keys":[],"TotalKeys":0,"Block":1,"Trial":62,"Robot":4,"Valence":"Lose","Action":"No-Go","Sham":1,"Color":"blue","trial_type":"pit-trial","trial_index":79,"time_elapsed":300801,"internal_node_id":"0.0-68.0","task_version":"test-retest-t3"},{"Rune":"rune_06_berkanan","Hex":"#ffcc3399","Correct":32,"Choice":32,"RT":467.05499998643063,"Accuracy":1,"Outcome":"+10","Keys":[1968.6599999840837],"TotalKeys":1,"Block":1,"Trial":63,"Robot":1,"Valence":"Win","Action":"Go","Sham":0,"Color":"yellow","trial_type":"pit-trial","trial_index":80,"time_elapsed":303772,"internal_node_id":"0.0-69.0","task_version":"test-retest-t3"},{"Rune":"rune_06_ehwaz","Hex":"#ffcc3399","Correct":-1,"Choice":-1,"RT":-1,"Accuracy":1,"Outcome":"+10","Keys":[],"TotalKeys":0,"Block":1,"Trial":64,"Robot":2,"Valence":"Win","Action":"No-Go","Sham":0,"Color":"yellow","trial_type":"pit-trial","trial_index":81,"time_elapsed":307777,"internal_node_id":"0.0-70.0","task_version":"test-retest-t3"},{"Rune":"rune_06_ehwaz","Hex":"#ffcc3399","Correct":-1,"Choice":-1,"RT":-1,"Accuracy":1,"Outcome":"+10","Keys":[],"TotalKeys":0,"Block":1,"Trial":65,"Robot":2,"Valence":"Win","Action":"No-Go","Sham":0,"Color":"yellow","trial_type":"pit-trial","trial_index":82,"time_elapsed":311780,"internal_node_id":"0.0-71.0","task_version":"test-retest-t3"},{"Rune":"rune_06_ansuz","Hex":"#3366ff99","Correct":-1,"Choice":-1,"RT":-1,"Accuracy":1,"Outcome":"-1","Keys":[],"TotalKeys":0,"Block":1,"Trial":66,"Robot":4,"Valence":"Lose","Action":"No-Go","Sham":0,"Color":"blue","trial_type":"pit-trial","trial_index":83,"time_elapsed":315784,"internal_node_id":"0.0-72.0","task_version":"test-retest-t3"},{"Rune":"rune_06_berkanan","Hex":"#ffcc3399","Correct":32,"Choice":32,"RT":380.8650000137277,"Accuracy":1,"Outcome":"+1","Keys":[1881.0299999895506],"TotalKeys":1,"Block":1,"Trial":67,"Robot":1,"Valence":"Win","Action":"Go","Sham":1,"Color":"yellow","trial_type":"pit-trial","trial_index":84,"time_elapsed":318669,"internal_node_id":"0.0-73.0","task_version":"test-retest-t3"},{"Rune":"rune_06_cweord","Hex":"#3366ff99","Correct":32,"Choice":32,"RT":344.264999992447,"Accuracy":1,"Outcome":"-1","Keys":[1844.4799999997485],"TotalKeys":1,"Block":1,"Trial":68,"Robot":3,"Valence":"Lose","Action":"Go","Sham":0,"Color":"blue","trial_type":"pit-trial","trial_index":85,"time_elapsed":321515,"internal_node_id":"0.0-74.0","task_version":"test-retest-t3"},{"Rune":"rune_06_cweord","Hex":"#3366ff99","Correct":32,"Choice":32,"RT":465.66499999607913,"Accuracy":1,"Outcome":"-1","Keys":[1966.0200000216719],"TotalKeys":1,"Block":1,"Trial":69,"Robot":3,"Valence":"Lose","Action":"Go","Sham":0,"Color":"blue","trial_type":"pit-trial","trial_index":86,"time_elapsed":324484,"internal_node_id":"0.0-75.0","task_version":"test-retest-t3"},{"Rune":"rune_06_ansuz","Hex":"#3366ff99","Correct":-1,"Choice":-1,"RT":-1,"Accuracy":1,"Outcome":"-1","Keys":[],"TotalKeys":0,"Block":1,"Trial":70,"Robot":4,"Valence":"Lose","Action":"No-Go","Sham":0,"Color":"blue","trial_type":"pit-trial","trial_index":87,"time_elapsed":328488,"internal_node_id":"0.0-76.0","task_version":"test-retest-t3"},{"Rune":"rune_06_ehwaz","Hex":"#ffcc3399","Correct":-1,"Choice":-1,"RT":-1,"Accuracy":1,"Outcome":"+1","Keys":[],"TotalKeys":0,"Block":1,"Trial":71,"Robot":2,"Valence":"Win","Action":"No-Go","Sham":1,"Color":"yellow","trial_type":"pit-trial","trial_index":88,"time_elapsed":332491,"internal_node_id":"0.0-77.0","task_version":"test-retest-t3"},{"Rune":"rune_06_berkanan","Hex":"#ffcc3399","Correct":32,"Choice":32,"RT":401.11499998602085,"Accuracy":1,"Outcome":"+10","Keys":[1901.914999994915],"TotalKeys":1,"Block":1,"Trial":72,"Robot":1,"Valence":"Win","Action":"Go","Sham":0,"Color":"yellow","trial_type":"pit-trial","trial_index":89,"time_elapsed":335395,"internal_node_id":"0.0-78.0","task_version":"test-retest-t3"},{"Rune":"rune_06_berkanan","Hex":"#ffcc3399","Correct":32,"Choice":32,"RT":528.8750000181608,"Accuracy":1,"Outcome":"+10","Keys":[2029.6550000202842],"TotalKeys":1,"Block":1,"Trial":73,"Robot":1,"Valence":"Win","Action":"Go","Sham":0,"Color":"yellow","trial_type":"pit-trial","trial_index":90,"time_elapsed":338428,"internal_node_id":"0.0-79.0","task_version":"test-retest-t3"},{"Rune":"rune_06_ehwaz","Hex":"#ffcc3399","Correct":-1,"Choice":-1,"RT":-1,"Accuracy":1,"Outcome":"+10","Keys":[],"TotalKeys":0,"Block":1,"Trial":74,"Robot":2,"Valence":"Win","Action":"No-Go","Sham":0,"Color":"yellow","trial_type":"pit-trial","trial_index":91,"time_elapsed":342431,"internal_node_id":"0.0-80.0","task_version":"test-retest-t3"},{"Rune":"rune_06_ansuz","Hex":"#3366ff99","Correct":-1,"Choice":-1,"RT":-1,"Accuracy":1,"Outcome":"-1","Keys":[],"TotalKeys":0,"Block":1,"Trial":75,"Robot":4,"Valence":"Lose","Action":"No-Go","Sham":0,"Color":"blue","trial_type":"pit-trial","trial_index":92,"time_elapsed":346435,"internal_node_id":"0.0-81.0","task_version":"test-retest-t3"},{"Rune":"rune_06_cweord","Hex":"#3366ff99","Correct":32,"Choice":32,"RT":376.7900000093505,"Accuracy":1,"Outcome":"-1","Keys":[1878.3500000135973],"TotalKeys":1,"Block":1,"Trial":76,"Robot":3,"Valence":"Lose","Action":"Go","Sham":0,"Color":"blue","trial_type":"pit-trial","trial_index":93,"time_elapsed":349317,"internal_node_id":"0.0-82.0","task_version":"test-retest-t3"},{"Rune":"rune_06_cweord","Hex":"#3366ff99","Correct":32,"Choice":32,"RT":504.41500000306405,"Accuracy":1,"Outcome":"-10","Keys":[2004.864999995334],"TotalKeys":1,"Block":1,"Trial":77,"Robot":3,"Valence":"Lose","Action":"Go","Sham":1,"Color":"blue","trial_type":"pit-trial","trial_index":94,"time_elapsed":352324,"internal_node_id":"0.0-83.0","task_version":"test-retest-t3"},{"Rune":"rune_06_ehwaz","Hex":"#ffcc3399","Correct":-1,"Choice":32,"RT":648.6199999926612,"Accuracy":0,"Outcome":"+1","Keys":[2149.0800000028685],"TotalKeys":1,"Block":1,"Trial":78,"Robot":2,"Valence":"Win","Action":"No-Go","Sham":0,"Color":"yellow","trial_type":"pit-trial","trial_index":95,"time_elapsed":355476,"internal_node_id":"0.0-84.0","task_version":"test-retest-t3"},{"Rune":"rune_06_ansuz","Hex":"#3366ff99","Correct":-1,"Choice":-1,"RT":-1,"Accuracy":1,"Outcome":"-1","Keys":[],"TotalKeys":0,"Block":1,"Trial":79,"Robot":4,"Valence":"Lose","Action":"No-Go","Sham":0,"Color":"blue","trial_type":"pit-trial","trial_index":96,"time_elapsed":359480,"internal_node_id":"0.0-85.0","task_version":"test-retest-t3"},{"Rune":"rune_06_berkanan","Hex":"#ffcc3399","Correct":32,"Choice":32,"RT":387.96500000171363,"Accuracy":1,"Outcome":"+10","Keys":[1889.8049999843352],"TotalKeys":1,"Block":1,"Trial":80,"Robot":1,"Valence":"Win","Action":"Go","Sham":0,"Color":"yellow","trial_type":"pit-trial","trial_index":97,"time_elapsed":362373,"internal_node_id":"0.0-86.0","task_version":"test-retest-t3"},{"Rune":"rune_06_cweord","Hex":"#3366ff99","Correct":32,"Choice":32,"RT":655.7500000053551,"Accuracy":1,"Outcome":"-1","Keys":[2156.409999995958],"TotalKeys":1,"Block":1,"Trial":81,"Robot":3,"Valence":"Lose","Action":"Go","Sham":0,"Color":"blue","trial_type":"pit-trial","trial_index":98,"time_elapsed":365532,"internal_node_id":"0.0-87.0","task_version":"test-retest-t3"},{"Rune":"rune_06_ansuz","Hex":"#3366ff99","Correct":-1,"Choice":-1,"RT":-1,"Accuracy":1,"Outcome":"-10","Keys":[],"TotalKeys":0,"Block":1,"Trial":82,"Robot":4,"Valence":"Lose","Action":"No-Go","Sham":1,"Color":"blue","trial_type":"pit-trial","trial_index":99,"time_elapsed":369535,"internal_node_id":"0.0-88.0","task_version":"test-retest-t3"},{"Rune":"rune_06_berkanan","Hex":"#ffcc3399","Correct":32,"Choice":32,"RT":494.7900000261143,"Accuracy":1,"Outcome":"+10","Keys":[1995.005000004312],"TotalKeys":1,"Block":1,"Trial":83,"Robot":1,"Valence":"Win","Action":"Go","Sham":0,"Color":"yellow","trial_type":"pit-trial","trial_index":100,"time_elapsed":372533,"internal_node_id":"0.0-89.0","task_version":"test-retest-t3"},{"Rune":"rune_06_ehwaz","Hex":"#ffcc3399","Correct":-1,"Choice":-1,"RT":-1,"Accuracy":1,"Outcome":"+10","Keys":[],"TotalKeys":0,"Block":1,"Trial":84,"Robot":2,"Valence":"Win","Action":"No-Go","Sham":0,"Color":"yellow","trial_type":"pit-trial","trial_index":101,"time_elapsed":376536,"internal_node_id":"0.0-90.0","task_version":"test-retest-t3"},{"Rune":"rune_06_ehwaz","Hex":"#ffcc3399","Correct":-1,"Choice":32,"RT":715.5100000090897,"Accuracy":0,"Outcome":"+1","Keys":[2216.389999986859],"TotalKeys":1,"Block":1,"Trial":85,"Robot":2,"Valence":"Win","Action":"No-Go","Sham":0,"Color":"yellow","trial_type":"pit-trial","trial_index":102,"time_elapsed":379756,"internal_node_id":"0.0-91.0","task_version":"test-retest-t3"},{"Rune":"rune_06_berkanan","Hex":"#ffcc3399","Correct":32,"Choice":32,"RT":529.2750000080559,"Accuracy":1,"Outcome":"+10","Keys":[2030.0249999854714],"TotalKeys":1,"Block":1,"Trial":86,"Robot":1,"Valence":"Win","Action":"Go","Sham":0,"Color":"yellow","trial_type":"pit-trial","trial_index":103,"time_elapsed":382789,"internal_node_id":"0.0-92.0","task_version":"test-retest-t3"},{"Rune":"rune_06_cweord","Hex":"#3366ff99","Correct":32,"Choice":32,"RT":608.7200000183657,"Accuracy":1,"Outcome":"-10","Keys":[2108.8650000165217],"TotalKeys":1,"Block":1,"Trial":87,"Robot":3,"Valence":"Lose","Action":"Go","Sham":1,"Color":"blue","trial_type":"pit-trial","trial_index":104,"time_elapsed":385901,"internal_node_id":"0.0-93.0","task_version":"test-retest-t3"},{"Rune":"rune_06_ansuz","Hex":"#3366ff99","Correct":-1,"Choice":32,"RT":280.3799999819603,"Accuracy":0,"Outcome":"-10","Keys":[1780.8249999943655],"TotalKeys":1,"Block":1,"Trial":88,"Robot":4,"Valence":"Lose","Action":"No-Go","Sham":0,"Color":"blue","trial_type":"pit-trial","trial_index":105,"time_elapsed":388684,"internal_node_id":"0.0-94.0","task_version":"test-retest-t3"},{"Rune":"rune_06_cweord","Hex":"#3366ff99","Correct":32,"Choice":-1,"RT":-1,"Accuracy":0,"Outcome":"-10","Keys":[],"TotalKeys":0,"Block":1,"Trial":89,"Robot":3,"Valence":"Lose","Action":"Go","Sham":0,"Color":"blue","trial_type":"pit-trial","trial_index":106,"time_elapsed":392688,"internal_node_id":"0.0-95.0","task_version":"test-retest-t3"},{"Rune":"rune_06_ehwaz","Hex":"#ffcc3399","Correct":-1,"Choice":32,"RT":572.7799999876879,"Accuracy":0,"Outcome":"+1","Keys":[2073.514999996405],"TotalKeys":1,"Block":1,"Trial":90,"Robot":2,"Valence":"Win","Action":"No-Go","Sham":0,"Color":"yellow","trial_type":"pit-trial","trial_index":107,"time_elapsed":395764,"internal_node_id":"0.0-96.0","task_version":"test-retest-t3"},{"Rune":"rune_06_berkanan","Hex":"#ffcc3399","Correct":32,"Choice":32,"RT":345.5400000093505,"Accuracy":1,"Outcome":"+1","Keys":[1845.6400000141002],"TotalKeys":1,"Block":1,"Trial":91,"Robot":1,"Valence":"Win","Action":"Go","Sham":1,"Color":"yellow","trial_type":"pit-trial","trial_index":108,"time_elapsed":398612,"internal_node_id":"0.0-97.0","task_version":"test-retest-t3"},{"Rune":"rune_06_ansuz","Hex":"#3366ff99","Correct":-1,"Choice":-1,"RT":-1,"Accuracy":1,"Outcome":"-1","Keys":[],"TotalKeys":0,"Block":1,"Trial":92,"Robot":4,"Valence":"Lose","Action":"No-Go","Sham":0,"Color":"blue","trial_type":"pit-trial","trial_index":109,"time_elapsed":402617,"internal_node_id":"0.0-98.0","task_version":"test-retest-t3"},{"Rune":"rune_06_cweord","Hex":"#3366ff99","Correct":32,"Choice":32,"RT":235.84500001743436,"Accuracy":1,"Outcome":"-1","Keys":[1736.479999992298],"TotalKeys":1,"Block":1,"Trial":93,"Robot":3,"Valence":"Lose","Action":"Go","Sham":0,"Color":"blue","trial_type":"pit-trial","trial_index":110,"time_elapsed":405356,"internal_node_id":"0.0-99.0","task_version":"test-retest-t3"},{"Rune":"rune_06_ehwaz","Hex":"#ffcc3399","Correct":-1,"Choice":-1,"RT":-1,"Accuracy":1,"Outcome":"+10","Keys":[],"TotalKeys":0,"Block":1,"Trial":94,"Robot":2,"Valence":"Win","Action":"No-Go","Sham":0,"Color":"yellow","trial_type":"pit-trial","trial_index":111,"time_elapsed":409359,"internal_node_id":"0.0-100.0","task_version":"test-retest-t3"},{"Rune":"rune_06_ansuz","Hex":"#3366ff99","Correct":-1,"Choice":-1,"RT":-1,"Accuracy":1,"Outcome":"-1","Keys":[],"TotalKeys":0,"Block":1,"Trial":95,"Robot":4,"Valence":"Lose","Action":"No-Go","Sham":0,"Color":"blue","trial_type":"pit-trial","trial_index":112,"time_elapsed":413363,"internal_node_id":"0.0-101.0","task_version":"test-retest-t3"},{"Rune":"rune_06_berkanan","Hex":"#ffcc3399","Correct":32,"Choice":32,"RT":200.31499999458902,"Accuracy":1,"Outcome":"+10","Keys":[1701.8499999830965],"TotalKeys":1,"Block":1,"Trial":96,"Robot":1,"Valence":"Win","Action":"Go","Sham":0,"Color":"yellow","trial_type":"pit-trial","trial_index":113,"time_elapsed":416068,"internal_node_id":"0.0-102.0","task_version":"test-retest-t3"},{"Rune":"rune_06_berkanan","Hex":"#ffcc3399","Correct":32,"Choice":32,"RT":376.3250000192784,"Accuracy":1,"Outcome":"+10","Keys":[1876.9999999785796],"TotalKeys":1,"Block":1,"Trial":97,"Robot":1,"Valence":"Win","Action":"Go","Sham":0,"Color":"yellow","trial_type":"pit-trial","trial_index":114,"time_elapsed":418947,"internal_node_id":"0.0-103.0","task_version":"test-retest-t3"},{"Rune":"rune_06_ehwaz","Hex":"#ffcc3399","Correct":-1,"Choice":-1,"RT":-1,"Accuracy":1,"Outcome":"+1","Keys":[],"TotalKeys":0,"Block":1,"Trial":98,"Robot":2,"Valence":"Win","Action":"No-Go","Sham":1,"Color":"yellow","trial_type":"pit-trial","trial_index":115,"time_elapsed":422951,"internal_node_id":"0.0-104.0","task_version":"test-retest-t3"},{"Rune":"rune_06_cweord","Hex":"#3366ff99","Correct":32,"Choice":32,"RT":397.9200000176206,"Accuracy":1,"Outcome":"-1","Keys":[1898.060000006808],"TotalKeys":1,"Block":1,"Trial":99,"Robot":3,"Valence":"Lose","Action":"Go","Sham":0,"Color":"blue","trial_type":"pit-trial","trial_index":116,"time_elapsed":425852,"internal_node_id":"0.0-105.0","task_version":"test-retest-t3"},{"Rune":"rune_06_ansuz","Hex":"#3366ff99","Correct":-1,"Choice":-1,"RT":-1,"Accuracy":1,"Outcome":"-1","Keys":[],"TotalKeys":0,"Block":1,"Trial":100,"Robot":4,"Valence":"Lose","Action":"No-Go","Sham":0,"Color":"blue","trial_type":"pit-trial","trial_index":117,"time_elapsed":429855,"internal_node_id":"0.0-106.0","task_version":"test-retest-t3"},{"Rune":"rune_06_ehwaz","Hex":"#ffcc3399","Correct":-1,"Choice":32,"RT":589.3450000148732,"Accuracy":0,"Outcome":"+1","Keys":[2089.590000017779],"TotalKeys":1,"Block":1,"Trial":101,"Robot":2,"Valence":"Win","Action":"No-Go","Sham":0,"Color":"yellow","trial_type":"pit-trial","trial_index":118,"time_elapsed":432947,"internal_node_id":"0.0-107.0","task_version":"test-retest-t3"},{"Rune":"rune_06_ansuz","Hex":"#3366ff99","Correct":-1,"Choice":-1,"RT":-1,"Accuracy":1,"Outcome":"-1","Keys":[],"TotalKeys":0,"Block":1,"Trial":102,"Robot":4,"Valence":"Lose","Action":"No-Go","Sham":0,"Color":"blue","trial_type":"pit-trial","trial_index":119,"time_elapsed":436950,"internal_node_id":"0.0-108.0","task_version":"test-retest-t3"},{"Rune":"rune_06_cweord","Hex":"#3366ff99","Correct":32,"Choice":32,"RT":438.9499999815598,"Accuracy":1,"Outcome":"-10","Keys":[1939.249999995809],"TotalKeys":1,"Block":1,"Trial":103,"Robot":3,"Valence":"Lose","Action":"Go","Sham":1,"Color":"blue","trial_type":"pit-trial","trial_index":120,"time_elapsed":439892,"internal_node_id":"0.0-109.0","task_version":"test-retest-t3"},{"Rune":"rune_06_berkanan","Hex":"#ffcc3399","Correct":32,"Choice":32,"RT":360.16499999095686,"Accuracy":1,"Outcome":"+1","Keys":[1860.6699999945704],"TotalKeys":1,"Block":1,"Trial":104,"Robot":1,"Valence":"Win","Action":"Go","Sham":1,"Color":"yellow","trial_type":"pit-trial","trial_index":121,"time_elapsed":442755,"internal_node_id":"0.0-110.0","task_version":"test-retest-t3"},{"Rune":"rune_06_ansuz","Hex":"#3366ff99","Correct":-1,"Choice":-1,"RT":-1,"Accuracy":1,"Outcome":"-1","Keys":[],"TotalKeys":0,"Block":1,"Trial":105,"Robot":4,"Valence":"Lose","Action":"No-Go","Sham":0,"Color":"blue","trial_type":"pit-trial","trial_index":122,"time_elapsed":446760,"internal_node_id":"0.0-111.0","task_version":"test-retest-t3"},{"Rune":"rune_06_cweord","Hex":"#3366ff99","Correct":32,"Choice":32,"RT":597.0950000046287,"Accuracy":1,"Outcome":"-1","Keys":[2097.3349999985658],"TotalKeys":1,"Block":1,"Trial":106,"Robot":3,"Valence":"Lose","Action":"Go","Sham":0,"Color":"blue","trial_type":"pit-trial","trial_index":123,"time_elapsed":449860,"internal_node_id":"0.0-112.0","task_version":"test-retest-t3"},{"Rune":"rune_06_ehwaz","Hex":"#ffcc3399","Correct":-1,"Choice":32,"RT":408.8799999735784,"Accuracy":0,"Outcome":"+1","Keys":[1908.9999999850988],"TotalKeys":1,"Block":1,"Trial":107,"Robot":2,"Valence":"Win","Action":"No-Go","Sham":0,"Color":"yellow","trial_type":"pit-trial","trial_index":124,"time_elapsed":452771,"internal_node_id":"0.0-113.0","task_version":"test-retest-t3"},{"Rune":"rune_06_berkanan","Hex":"#ffcc3399","Correct":32,"Choice":32,"RT":415.2600000088569,"Accuracy":1,"Outcome":"+10","Keys":[1917.2449999896344],"TotalKeys":1,"Block":1,"Trial":108,"Robot":1,"Valence":"Win","Action":"Go","Sham":0,"Color":"yellow","trial_type":"pit-trial","trial_index":125,"time_elapsed":455691,"internal_node_id":"0.0-114.0","task_version":"test-retest-t3"},{"Rune":"rune_06_berkanan","Hex":"#ffcc3399","Correct":32,"Choice":32,"RT":360.4449999984354,"Accuracy":1,"Outcome":"+10","Keys":[1861.3799999875482],"TotalKeys":1,"Block":1,"Trial":109,"Robot":1,"Valence":"Win","Action":"Go","Sham":0,"Color":"yellow","trial_type":"pit-trial","trial_index":126,"time_elapsed":458555,"internal_node_id":"0.0-115.0","task_version":"test-retest-t3"},{"Rune":"rune_06_ansuz","Hex":"#3366ff99","Correct":-1,"Choice":-1,"RT":-1,"Accuracy":1,"Outcome":"-10","Keys":[],"TotalKeys":0,"Block":1,"Trial":110,"Robot":4,"Valence":"Lose","Action":"No-Go","Sham":1,"Color":"blue","trial_type":"pit-trial","trial_index":127,"time_elapsed":462558,"internal_node_id":"0.0-116.0","task_version":"test-retest-t3"},{"Rune":"rune_06_cweord","Hex":"#3366ff99","Correct":32,"Choice":32,"RT":398.1799999892246,"Accuracy":1,"Outcome":"-1","Keys":[1898.3099999895785],"TotalKeys":1,"Block":1,"Trial":111,"Robot":3,"Valence":"Lose","Action":"Go","Sham":0,"Color":"blue","trial_type":"pit-trial","trial_index":128,"time_elapsed":465459,"internal_node_id":"0.0-117.0","task_version":"test-retest-t3"},{"Rune":"rune_06_ehwaz","Hex":"#ffcc3399","Correct":-1,"Choice":32,"RT":1232.3599999945145,"Accuracy":0,"Outcome":"+10","Keys":[2733.2400000013877],"TotalKeys":1,"Block":1,"Trial":112,"Robot":2,"Valence":"Win","Action":"No-Go","Sham":1,"Color":"yellow","trial_type":"pit-trial","trial_index":129,"time_elapsed":469196,"internal_node_id":"0.0-118.0","task_version":"test-retest-t3"},{"Rune":"rune_06_berkanan","Hex":"#ffcc3399","Correct":32,"Choice":32,"RT":456.1350000149105,"Accuracy":1,"Outcome":"+10","Keys":[1957.1299999952316],"TotalKeys":1,"Block":1,"Trial":113,"Robot":1,"Valence":"Win","Action":"Go","Sham":0,"Color":"yellow","trial_type":"pit-trial","trial_index":130,"time_elapsed":472155,"internal_node_id":"0.0-119.0","task_version":"test-retest-t3"},{"Rune":"rune_06_ansuz","Hex":"#3366ff99","Correct":-1,"Choice":-1,"RT":-1,"Accuracy":1,"Outcome":"-1","Keys":[],"TotalKeys":0,"Block":1,"Trial":114,"Robot":4,"Valence":"Lose","Action":"No-Go","Sham":0,"Color":"blue","trial_type":"pit-trial","trial_index":131,"time_elapsed":476159,"internal_node_id":"0.0-120.0","task_version":"test-retest-t3"},{"Rune":"rune_06_ehwaz","Hex":"#ffcc3399","Correct":-1,"Choice":32,"RT":965.1099999900907,"Accuracy":0,"Outcome":"+1","Keys":[2465.855000016745],"TotalKeys":1,"Block":1,"Trial":115,"Robot":2,"Valence":"Win","Action":"No-Go","Sham":0,"Color":"yellow","trial_type":"pit-trial","trial_index":132,"time_elapsed":479628,"internal_node_id":"0.0-121.0","task_version":"test-retest-t3"},{"Rune":"rune_06_cweord","Hex":"#3366ff99","Correct":32,"Choice":32,"RT":991.264999989653,"Accuracy":1,"Outcome":"-1","Keys":[2493.17499998142],"TotalKeys":1,"Block":1,"Trial":116,"Robot":3,"Valence":"Lose","Action":"Go","Sham":0,"Color":"blue","trial_type":"pit-trial","trial_index":133,"time_elapsed":483124,"internal_node_id":"0.0-122.0","task_version":"test-retest-t3"},{"Rune":"rune_06_berkanan","Hex":"#ffcc3399","Correct":32,"Choice":32,"RT":591.9700000085868,"Accuracy":1,"Outcome":"+10","Keys":[2093.6600000131875],"TotalKeys":1,"Block":1,"Trial":117,"Robot":1,"Valence":"Win","Action":"Go","Sham":0,"Color":"yellow","trial_type":"pit-trial","trial_index":134,"time_elapsed":486220,"internal_node_id":"0.0-123.0","task_version":"test-retest-t3"},{"Rune":"rune_06_ehwaz","Hex":"#ffcc3399","Correct":-1,"Choice":32,"RT":848.1949999986682,"Accuracy":0,"Outcome":"+1","Keys":[2348.454999999376],"TotalKeys":1,"Block":1,"Trial":118,"Robot":2,"Valence":"Win","Action":"No-Go","Sham":0,"Color":"yellow","trial_type":"pit-trial","trial_index":135,"time_elapsed":489572,"internal_node_id":"0.0-124.0","task_version":"test-retest-t3"},{"Rune":"rune_06_ansuz","Hex":"#3366ff99","Correct":-1,"Choice":-1,"RT":-1,"Accuracy":1,"Outcome":"-1","Keys":[],"TotalKeys":0,"Block":1,"Trial":119,"Robot":4,"Valence":"Lose","Action":"No-Go","Sham":0,"Color":"blue","trial_type":"pit-trial","trial_index":136,"time_elapsed":493575,"internal_node_id":"0.0-125.0","task_version":"test-retest-t3"},{"Rune":"rune_06_cweord","Hex":"#3366ff99","Correct":32,"Choice":32,"RT":629.4449999986682,"Accuracy":1,"Outcome":"-1","Keys":[2129.7499999927823],"TotalKeys":1,"Block":1,"Trial":120,"Robot":3,"Valence":"Lose","Action":"Go","Sham":0,"Color":"blue","trial_type":"pit-trial","trial_index":137,"time_elapsed":496708,"internal_node_id":"0.0-126.0","task_version":"test-retest-t3"},{"view_history":"[{\"page_index\":0,\"viewing_time\":4354.930000001332},{\"page_index\":1,\"viewing_time\":2107.7649999933783},{\"page_index\":2,\"viewing_time\":1261.190000019269}]","rt":7724.245000019437,"trial_type":"pit-instructions","trial_index":138,"time_elapsed":504433,"internal_node_id":"0.0-127.0","task_version":"test-retest-t3"},{"Rune":"rune_05_gebo","Hex":"#ffcc3399","Correct":-1,"Choice":32,"RT":634.6949999860954,"Accuracy":0,"Outcome":"+1","Keys":[2134.829999995418],"TotalKeys":1,"Block":2,"Trial":121,"Robot":2,"Valence":"Win","Action":"No-Go","Sham":0,"Color":"yellow","trial_type":"pit-trial","trial_index":139,"time_elapsed":507571,"internal_node_id":"0.0-128.0","task_version":"test-retest-t3"},{"Rune":"rune_05_jeran","Hex":"#3366ff99","Correct":32,"Choice":-1,"RT":-1,"Accuracy":0,"Outcome":"-1","Keys":[],"TotalKeys":0,"Block":2,"Trial":122,"Robot":3,"Valence":"Lose","Action":"Go","Sham":1,"Color":"blue","trial_type":"pit-trial","trial_index":140,"time_elapsed":511574,"internal_node_id":"0.0-129.0","task_version":"test-retest-t3"},{"Rune":"rune_05_tiwaz","Hex":"#ffcc3399","Correct":32,"Choice":32,"RT":654.3199999723583,"Accuracy":1,"Outcome":"+10","Keys":[2155.0400000123773],"TotalKeys":1,"Block":2,"Trial":123,"Robot":1,"Valence":"Win","Action":"Go","Sham":0,"Color":"yellow","trial_type":"pit-trial","trial_index":141,"time_elapsed":514732,"internal_node_id":"0.0-130.0","task_version":"test-retest-t3"},{"Rune":"rune_05_ior","Hex":"#3366ff99","Correct":-1,"Choice":32,"RT":888.0149999749847,"Accuracy":0,"Outcome":"-10","Keys":[2388.925000006566],"TotalKeys":1,"Block":2,"Trial":124,"Robot":4,"Valence":"Lose","Action":"No-Go","Sham":0,"Color":"blue","trial_type":"pit-trial","trial_index":142,"time_elapsed":518124,"internal_node_id":"0.0-131.0","task_version":"test-retest-t3"},{"Rune":"rune_05_jeran","Hex":"#3366ff99","Correct":32,"Choice":-1,"RT":-1,"Accuracy":0,"Outcome":"-10","Keys":[],"TotalKeys":0,"Block":2,"Trial":125,"Robot":3,"Valence":"Lose","Action":"Go","Sham":0,"Color":"blue","trial_type":"pit-trial","trial_index":143,"time_elapsed":522128,"internal_node_id":"0.0-132.0","task_version":"test-retest-t3"},{"Rune":"rune_05_gebo","Hex":"#ffcc3399","Correct":-1,"Choice":-1,"RT":-1,"Accuracy":1,"Outcome":"+10","Keys":[],"TotalKeys":0,"Block":2,"Trial":126,"Robot":2,"Valence":"Win","Action":"No-Go","Sham":0,"Color":"yellow","trial_type":"pit-trial","trial_index":144,"time_elapsed":526132,"internal_node_id":"0.0-133.0","task_version":"test-retest-t3"},{"Rune":"rune_05_tiwaz","Hex":"#ffcc3399","Correct":32,"Choice":32,"RT":431.5800000040326,"Accuracy":1,"Outcome":"+10","Keys":[1932.840000023134],"TotalKeys":1,"Block":2,"Trial":127,"Robot":1,"Valence":"Win","Action":"Go","Sham":0,"Color":"yellow","trial_type":"pit-trial","trial_index":145,"time_elapsed":529067,"internal_node_id":"0.0-134.0","task_version":"test-retest-t3"},{"Rune":"rune_05_ior","Hex":"#3366ff99","Correct":-1,"Choice":-1,"RT":-1,"Accuracy":1,"Outcome":"-1","Keys":[],"TotalKeys":0,"Block":2,"Trial":128,"Robot":4,"Valence":"Lose","Action":"No-Go","Sham":0,"Color":"blue","trial_type":"pit-trial","trial_index":146,"time_elapsed":533071,"internal_node_id":"0.0-135.0","task_version":"test-retest-t3"},{"Rune":"rune_05_jeran","Hex":"#3366ff99","Correct":32,"Choice":32,"RT":612.7700000070035,"Accuracy":1,"Outcome":"-1","Keys":[2113.5300000023562],"TotalKeys":1,"Block":2,"Trial":129,"Robot":3,"Valence":"Lose","Action":"Go","Sham":0,"Color":"blue","trial_type":"pit-trial","trial_index":147,"time_elapsed":536187,"internal_node_id":"0.0-136.0","task_version":"test-retest-t3"},{"Rune":"rune_05_ior","Hex":"#3366ff99","Correct":-1,"Choice":32,"RT":671.8799999798648,"Accuracy":0,"Outcome":"-10","Keys":[2173.6199999868404],"TotalKeys":1,"Block":2,"Trial":130,"Robot":4,"Valence":"Lose","Action":"No-Go","Sham":0,"Color":"blue","trial_type":"pit-trial","trial_index":148,"time_elapsed":539363,"internal_node_id":"0.0-137.0","task_version":"test-retest-t3"},{"Rune":"rune_05_gebo","Hex":"#ffcc3399","Correct":-1,"Choice":-1,"RT":-1,"Accuracy":1,"Outcome":"+10","Keys":[],"TotalKeys":0,"Block":2,"Trial":131,"Robot":2,"Valence":"Win","Action":"No-Go","Sham":0,"Color":"yellow","trial_type":"pit-trial","trial_index":149,"time_elapsed":543367,"internal_node_id":"0.0-138.0","task_version":"test-retest-t3"},{"Rune":"rune_05_tiwaz","Hex":"#ffcc3399","Correct":32,"Choice":32,"RT":299.6199999761302,"Accuracy":1,"Outcome":"+10","Keys":[1800.6549999990966],"TotalKeys":1,"Block":2,"Trial":132,"Robot":1,"Valence":"Win","Action":"Go","Sham":0,"Color":"yellow","trial_type":"pit-trial","trial_index":150,"time_elapsed":546170,"internal_node_id":"0.0-139.0","task_version":"test-retest-t3"},{"Rune":"rune_05_ior","Hex":"#3366ff99","Correct":-1,"Choice":-1,"RT":-1,"Accuracy":1,"Outcome":"-1","Keys":[],"TotalKeys":0,"Block":2,"Trial":133,"Robot":4,"Valence":"Lose","Action":"No-Go","Sham":0,"Color":"blue","trial_type":"pit-trial","trial_index":151,"time_elapsed":550175,"internal_node_id":"0.0-140.0","task_version":"test-retest-t3"},{"Rune":"rune_05_tiwaz","Hex":"#ffcc3399","Correct":32,"Choice":32,"RT":387.78000001912005,"Accuracy":1,"Outcome":"+1","Keys":[1889.274999994086],"TotalKeys":1,"Block":2,"Trial":134,"Robot":1,"Valence":"Win","Action":"Go","Sham":1,"Color":"yellow","trial_type":"pit-trial","trial_index":152,"time_elapsed":553068,"internal_node_id":"0.0-141.0","task_version":"test-retest-t3"},{"Rune":"rune_05_gebo","Hex":"#ffcc3399","Correct":-1,"Choice":-1,"RT":-1,"Accuracy":1,"Outcome":"+1","Keys":[],"TotalKeys":0,"Block":2,"Trial":135,"Robot":2,"Valence":"Win","Action":"No-Go","Sham":1,"Color":"yellow","trial_type":"pit-trial","trial_index":153,"time_elapsed":557072,"internal_node_id":"0.0-142.0","task_version":"test-retest-t3"},{"Rune":"rune_05_jeran","Hex":"#3366ff99","Correct":32,"Choice":-1,"RT":-1,"Accuracy":0,"Outcome":"-10","Keys":[],"TotalKeys":0,"Block":2,"Trial":136,"Robot":3,"Valence":"Lose","Action":"Go","Sham":0,"Color":"blue","trial_type":"pit-trial","trial_index":154,"time_elapsed":561075,"internal_node_id":"0.0-143.0","task_version":"test-retest-t3"},{"Rune":"rune_05_gebo","Hex":"#ffcc3399","Correct":-1,"Choice":32,"RT":880.1800000073854,"Accuracy":0,"Outcome":"+1","Keys":[2381.0649999941234],"TotalKeys":1,"Block":2,"Trial":137,"Robot":2,"Valence":"Win","Action":"No-Go","Sham":0,"Color":"yellow","trial_type":"pit-trial","trial_index":155,"time_elapsed":564460,"internal_node_id":"0.0-144.0","task_version":"test-retest-t3"},{"Rune":"rune_05_ior","Hex":"#3366ff99","Correct":-1,"Choice":32,"RT":856.5200000011828,"Accuracy":0,"Outcome":"-1","Keys":[2356.690000015078],"TotalKeys":1,"Block":2,"Trial":138,"Robot":4,"Valence":"Lose","Action":"No-Go","Sham":1,"Color":"blue","trial_type":"pit-trial","trial_index":156,"time_elapsed":567819,"internal_node_id":"0.0-145.0","task_version":"test-retest-t3"},{"Rune":"rune_05_jeran","Hex":"#3366ff99","Correct":32,"Choice":32,"RT":689.4549999851733,"Accuracy":1,"Outcome":"-1","Keys":[2190.130000002682],"TotalKeys":1,"Block":2,"Trial":139,"Robot":3,"Valence":"Lose","Action":"Go","Sham":0,"Color":"blue","trial_type":"pit-trial","trial_index":157,"time_elapsed":571011,"internal_node_id":"0.0-146.0","task_version":"test-retest-t3"},{"Rune":"rune_05_tiwaz","Hex":"#ffcc3399","Correct":32,"Choice":32,"RT":639.1599999915343,"Accuracy":1,"Outcome":"+10","Keys":[2140.895000018645],"TotalKeys":1,"Block":2,"Trial":140,"Robot":1,"Valence":"Win","Action":"Go","Sham":0,"Color":"yellow","trial_type":"pit-trial","trial_index":158,"time_elapsed":574155,"internal_node_id":"0.0-147.0","task_version":"test-retest-t3"},{"Rune":"rune_05_ior","Hex":"#3366ff99","Correct":-1,"Choice":32,"RT":569.3050000118092,"Accuracy":0,"Outcome":"-1","Keys":[2070.110000000568],"TotalKeys":1,"Block":2,"Trial":141,"Robot":4,"Valence":"Lose","Action":"No-Go","Sham":1,"Color":"blue","trial_type":"pit-trial","trial_index":159,"time_elapsed":577227,"internal_node_id":"0.0-148.0","task_version":"test-retest-t3"},{"Rune":"rune_05_tiwaz","Hex":"#ffcc3399","Correct":32,"Choice":32,"RT":552.5199999974575,"Accuracy":1,"Outcome":"+10","Keys":[2053.440000017872],"TotalKeys":1,"Block":2,"Trial":142,"Robot":1,"Valence":"Win","Action":"Go","Sham":0,"Color":"yellow","trial_type":"pit-trial","trial_index":160,"time_elapsed":580282,"internal_node_id":"0.0-149.0","task_version":"test-retest-t3"},{"Rune":"rune_05_gebo","Hex":"#ffcc3399","Correct":-1,"Choice":-1,"RT":-1,"Accuracy":1,"Outcome":"+1","Keys":[],"TotalKeys":0,"Block":2,"Trial":143,"Robot":2,"Valence":"Win","Action":"No-Go","Sham":1,"Color":"yellow","trial_type":"pit-trial","trial_index":161,"time_elapsed":584288,"internal_node_id":"0.0-150.0","task_version":"test-retest-t3"},{"Rune":"rune_05_jeran","Hex":"#3366ff99","Correct":32,"Choice":32,"RT":675.8800000243355,"Accuracy":1,"Outcome":"-1","Keys":[2177.0499999984168],"TotalKeys":1,"Block":2,"Trial":144,"Robot":3,"Valence":"Lose","Action":"Go","Sham":0,"Color":"blue","trial_type":"pit-trial","trial_index":162,"time_elapsed":587467,"internal_node_id":"0.0-151.0","task_version":"test-retest-t3"},{"Rune":"rune_05_jeran","Hex":"#3366ff99","Correct":32,"Choice":32,"RT":544.8150000011083,"Accuracy":1,"Outcome":"-1","Keys":[2045.97500001546],"TotalKeys":1,"Block":2,"Trial":145,"Robot":3,"Valence":"Lose","Action":"Go","Sham":0,"Color":"blue","trial_type":"pit-trial","trial_index":163,"time_elapsed":590515,"internal_node_id":"0.0-152.0","task_version":"test-retest-t3"},{"Rune":"rune_05_tiwaz","Hex":"#ffcc3399","Correct":32,"Choice":32,"RT":385.50500001292676,"Accuracy":1,"Outcome":"+10","Keys":[1885.985000000801],"TotalKeys":1,"Block":2,"Trial":146,"Robot":1,"Valence":"Win","Action":"Go","Sham":0,"Color":"yellow","trial_type":"pit-trial","trial_index":164,"time_elapsed":593404,"internal_node_id":"0.0-153.0","task_version":"test-retest-t3"},{"Rune":"rune_05_gebo","Hex":"#ffcc3399","Correct":-1,"Choice":-1,"RT":-1,"Accuracy":1,"Outcome":"+10","Keys":[],"TotalKeys":0,"Block":2,"Trial":147,"Robot":2,"Valence":"Win","Action":"No-Go","Sham":0,"Color":"yellow","trial_type":"pit-trial","trial_index":165,"time_elapsed":597408,"internal_node_id":"0.0-154.0","task_version":"test-retest-t3"},{"Rune":"rune_05_ior","Hex":"#3366ff99","Correct":-1,"Choice":32,"RT":947.5800000072923,"Accuracy":0,"Outcome":"-10","Keys":[2448.0900000198744],"TotalKeys":1,"Block":2,"Trial":148,"Robot":4,"Valence":"Lose","Action":"No-Go","Sham":0,"Color":"blue","trial_type":"pit-trial","trial_index":166,"time_elapsed":600859,"internal_node_id":"0.0-155.0","task_version":"test-retest-t3"},{"Rune":"rune_05_jeran","Hex":"#3366ff99","Correct":32,"Choice":32,"RT":703.5350000078324,"Accuracy":1,"Outcome":"-1","Keys":[2205.2649999968708],"TotalKeys":1,"Block":2,"Trial":149,"Robot":3,"Valence":"Lose","Action":"Go","Sham":0,"Color":"blue","trial_type":"pit-trial","trial_index":167,"time_elapsed":604066,"internal_node_id":"0.0-156.0","task_version":"test-retest-t3"},{"Rune":"rune_05_gebo","Hex":"#ffcc3399","Correct":-1,"Choice":-1,"RT":-1,"Accuracy":1,"Outcome":"+10","Keys":[],"TotalKeys":0,"Block":2,"Trial":150,"Robot":2,"Valence":"Win","Action":"No-Go","Sham":0,"Color":"yellow","trial_type":"pit-trial","trial_index":168,"time_elapsed":608071,"internal_node_id":"0.0-157.0","task_version":"test-retest-t3"},{"Rune":"rune_05_tiwaz","Hex":"#ffcc3399","Correct":32,"Choice":32,"RT":301.2250000028871,"Accuracy":1,"Outcome":"+1","Keys":[1802.0200000028126],"TotalKeys":1,"Block":2,"Trial":151,"Robot":1,"Valence":"Win","Action":"Go","Sham":1,"Color":"yellow","trial_type":"pit-trial","trial_index":169,"time_elapsed":610875,"internal_node_id":"0.0-158.0","task_version":"test-retest-t3"},{"Rune":"rune_05_ior","Hex":"#3366ff99","Correct":-1,"Choice":-1,"RT":-1,"Accuracy":1,"Outcome":"-1","Keys":[],"TotalKeys":0,"Block":2,"Trial":152,"Robot":4,"Valence":"Lose","Action":"No-Go","Sham":0,"Color":"blue","trial_type":"pit-trial","trial_index":170,"time_elapsed":614880,"internal_node_id":"0.0-159.0","task_version":"test-retest-t3"},{"Rune":"rune_05_ior","Hex":"#3366ff99","Correct":-1,"Choice":32,"RT":1330.9299999964423,"Accuracy":0,"Outcome":"-10","Keys":[2832.829999999376],"TotalKeys":1,"Block":2,"Trial":153,"Robot":4,"Valence":"Lose","Action":"No-Go","Sham":0,"Color":"blue","trial_type":"pit-trial","trial_index":171,"time_elapsed":618716,"internal_node_id":"0.0-160.0","task_version":"test-retest-t3"},{"Rune":"rune_05_tiwaz","Hex":"#ffcc3399","Correct":32,"Choice":32,"RT":311.5500000130851,"Accuracy":1,"Outcome":"+10","Keys":[1812.3349999950733],"TotalKeys":1,"Block":2,"Trial":154,"Robot":1,"Valence":"Win","Action":"Go","Sham":0,"Color":"yellow","trial_type":"pit-trial","trial_index":172,"time_elapsed":621531,"internal_node_id":"0.0-161.0","task_version":"test-retest-t3"},{"Rune":"rune_05_jeran","Hex":"#3366ff99","Correct":32,"Choice":32,"RT":536.9950000022072,"Accuracy":1,"Outcome":"-1","Keys":[2037.4100000190083],"TotalKeys":1,"Block":2,"Trial":155,"Robot":3,"Valence":"Lose","Action":"Go","Sham":0,"Color":"blue","trial_type":"pit-trial","trial_index":173,"time_elapsed":624571,"internal_node_id":"0.0-162.0","task_version":"test-retest-t3"},{"Rune":"rune_05_gebo","Hex":"#ffcc3399","Correct":-1,"Choice":-1,"RT":-1,"Accuracy":1,"Outcome":"+10","Keys":[],"TotalKeys":0,"Block":2,"Trial":156,"Robot":2,"Valence":"Win","Action":"No-Go","Sham":0,"Color":"yellow","trial_type":"pit-trial","trial_index":174,"time_elapsed":628575,"internal_node_id":"0.0-163.0","task_version":"test-retest-t3"},{"Rune":"rune_05_tiwaz","Hex":"#ffcc3399","Correct":32,"Choice":32,"RT":389.2749999940861,"Accuracy":1,"Outcome":"+10","Keys":[1889.9649999802932],"TotalKeys":1,"Block":2,"Trial":157,"Robot":1,"Valence":"Win","Action":"Go","Sham":0,"Color":"yellow","trial_type":"pit-trial","trial_index":175,"time_elapsed":631468,"internal_node_id":"0.0-164.0","task_version":"test-retest-t3"},{"Rune":"rune_05_jeran","Hex":"#3366ff99","Correct":32,"Choice":32,"RT":463.8400000112597,"Accuracy":1,"Outcome":"-10","Keys":[1964.3250000081025],"TotalKeys":1,"Block":2,"Trial":158,"Robot":3,"Valence":"Lose","Action":"Go","Sham":1,"Color":"blue","trial_type":"pit-trial","trial_index":176,"time_elapsed":634435,"internal_node_id":"0.0-165.0","task_version":"test-retest-t3"},{"Rune":"rune_05_gebo","Hex":"#ffcc3399","Correct":-1,"Choice":-1,"RT":-1,"Accuracy":1,"Outcome":"+10","Keys":[],"TotalKeys":0,"Block":2,"Trial":159,"Robot":2,"Valence":"Win","Action":"No-Go","Sham":0,"Color":"yellow","trial_type":"pit-trial","trial_index":177,"time_elapsed":638439,"internal_node_id":"0.0-166.0","task_version":"test-retest-t3"},{"Rune":"rune_05_ior","Hex":"#3366ff99","Correct":-1,"Choice":-1,"RT":-1,"Accuracy":1,"Outcome":"-1","Keys":[],"TotalKeys":0,"Block":2,"Trial":160,"Robot":4,"Valence":"Lose","Action":"No-Go","Sham":0,"Color":"blue","trial_type":"pit-trial","trial_index":178,"time_elapsed":642443,"internal_node_id":"0.0-167.0","task_version":"test-retest-t3"},{"Rune":"rune_05_ior","Hex":"#3366ff99","Correct":-1,"Choice":-1,"RT":-1,"Accuracy":1,"Outcome":"-10","Keys":[],"TotalKeys":0,"Block":2,"Trial":161,"Robot":4,"Valence":"Lose","Action":"No-Go","Sham":1,"Color":"blue","trial_type":"pit-trial","trial_index":179,"time_elapsed":646447,"internal_node_id":"0.0-168.0","task_version":"test-retest-t3"},{"Rune":"rune_05_tiwaz","Hex":"#ffcc3399","Correct":32,"Choice":32,"RT":333.05500002461486,"Accuracy":1,"Outcome":"+10","Keys":[1833.4500000055414],"TotalKeys":1,"Block":2,"Trial":162,"Robot":1,"Valence":"Win","Action":"Go","Sham":0,"Color":"yellow","trial_type":"pit-trial","trial_index":180,"time_elapsed":649283,"internal_node_id":"0.0-169.0","task_version":"test-retest-t3"},{"Rune":"rune_05_jeran","Hex":"#3366ff99","Correct":32,"Choice":32,"RT":536.3699999870732,"Accuracy":1,"Outcome":"-1","Keys":[2037.1549999981653],"TotalKeys":1,"Block":2,"Trial":163,"Robot":3,"Valence":"Lose","Action":"Go","Sham":0,"Color":"blue","trial_type":"pit-trial","trial_index":181,"time_elapsed":652323,"internal_node_id":"0.0-170.0","task_version":"test-retest-t3"},{"Rune":"rune_05_gebo","Hex":"#ffcc3399","Correct":-1,"Choice":-1,"RT":-1,"Accuracy":1,"Outcome":"+10","Keys":[],"TotalKeys":0,"Block":2,"Trial":164,"Robot":2,"Valence":"Win","Action":"No-Go","Sham":0,"Color":"yellow","trial_type":"pit-trial","trial_index":182,"time_elapsed":656327,"internal_node_id":"0.0-171.0","task_version":"test-retest-t3"},{"Rune":"rune_05_jeran","Hex":"#3366ff99","Correct":32,"Choice":32,"RT":445.0850000139326,"Accuracy":1,"Outcome":"-10","Keys":[1946.0149999940768],"TotalKeys":1,"Block":2,"Trial":165,"Robot":3,"Valence":"Lose","Action":"Go","Sham":1,"Color":"blue","trial_type":"pit-trial","trial_index":183,"time_elapsed":659275,"internal_node_id":"0.0-172.0","task_version":"test-retest-t3"},{"Rune":"rune_05_gebo","Hex":"#ffcc3399","Correct":-1,"Choice":-1,"RT":-1,"Accuracy":1,"Outcome":"+10","Keys":[],"TotalKeys":0,"Block":2,"Trial":166,"Robot":2,"Valence":"Win","Action":"No-Go","Sham":0,"Color":"yellow","trial_type":"pit-trial","trial_index":184,"time_elapsed":663280,"internal_node_id":"0.0-173.0","task_version":"test-retest-t3"},{"Rune":"rune_05_tiwaz","Hex":"#ffcc3399","Correct":32,"Choice":32,"RT":523.7800000177231,"Accuracy":1,"Outcome":"+10","Keys":[2025.0099999830127],"TotalKeys":1,"Block":2,"Trial":167,"Robot":1,"Valence":"Win","Action":"Go","Sham":0,"Color":"yellow","trial_type":"pit-trial","trial_index":185,"time_elapsed":666309,"internal_node_id":"0.0-174.0","task_version":"test-retest-t3"},{"Rune":"rune_05_ior","Hex":"#3366ff99","Correct":-1,"Choice":-1,"RT":-1,"Accuracy":1,"Outcome":"-1","Keys":[],"TotalKeys":0,"Block":2,"Trial":168,"Robot":4,"Valence":"Lose","Action":"No-Go","Sham":0,"Color":"blue","trial_type":"pit-trial","trial_index":186,"time_elapsed":670313,"internal_node_id":"0.0-175.0","task_version":"test-retest-t3"},{"Rune":"rune_05_jeran","Hex":"#3366ff99","Correct":32,"Choice":32,"RT":483.0849999852944,"Accuracy":1,"Outcome":"-1","Keys":[1983.6099999956787],"TotalKeys":1,"Block":2,"Trial":169,"Robot":3,"Valence":"Lose","Action":"Go","Sham":0,"Color":"blue","trial_type":"pit-trial","trial_index":187,"time_elapsed":673299,"internal_node_id":"0.0-176.0","task_version":"test-retest-t3"},{"Rune":"rune_05_gebo","Hex":"#ffcc3399","Correct":-1,"Choice":-1,"RT":-1,"Accuracy":1,"Outcome":"+1","Keys":[],"TotalKeys":0,"Block":2,"Trial":170,"Robot":2,"Valence":"Win","Action":"No-Go","Sham":1,"Color":"yellow","trial_type":"pit-trial","trial_index":188,"time_elapsed":677303,"internal_node_id":"0.0-177.0","task_version":"test-retest-t3"},{"Rune":"rune_05_ior","Hex":"#3366ff99","Correct":-1,"Choice":-1,"RT":-1,"Accuracy":1,"Outcome":"-1","Keys":[],"TotalKeys":0,"Block":2,"Trial":171,"Robot":4,"Valence":"Lose","Action":"No-Go","Sham":0,"Color":"blue","trial_type":"pit-trial","trial_index":189,"time_elapsed":681307,"internal_node_id":"0.0-178.0","task_version":"test-retest-t3"},{"Rune":"rune_05_tiwaz","Hex":"#ffcc3399","Correct":32,"Choice":32,"RT":256.1250000144355,"Accuracy":1,"Outcome":"+10","Keys":[1757.1250000037253],"TotalKeys":1,"Block":2,"Trial":172,"Robot":1,"Valence":"Win","Action":"Go","Sham":0,"Color":"yellow","trial_type":"pit-trial","trial_index":190,"time_elapsed":684068,"internal_node_id":"0.0-179.0","task_version":"test-retest-t3"},{"Rune":"rune_05_tiwaz","Hex":"#ffcc3399","Correct":32,"Choice":32,"RT":400.48499999102205,"Accuracy":1,"Outcome":"+10","Keys":[1900.5450000113342],"TotalKeys":1,"Block":2,"Trial":173,"Robot":1,"Valence":"Win","Action":"Go","Sham":0,"Color":"yellow","trial_type":"pit-trial","trial_index":191,"time_elapsed":686972,"internal_node_id":"0.0-180.0","task_version":"test-retest-t3"},{"Rune":"rune_05_jeran","Hex":"#3366ff99","Correct":32,"Choice":32,"RT":513.1600000022445,"Accuracy":1,"Outcome":"-1","Keys":[2013.5050000099],"TotalKeys":1,"Block":2,"Trial":174,"Robot":3,"Valence":"Lose","Action":"Go","Sham":0,"Color":"blue","trial_type":"pit-trial","trial_index":192,"time_elapsed":689988,"internal_node_id":"0.0-181.0","task_version":"test-retest-t3"},{"Rune":"rune_05_ior","Hex":"#3366ff99","Correct":-1,"Choice":-1,"RT":-1,"Accuracy":1,"Outcome":"-1","Keys":[],"TotalKeys":0,"Block":2,"Trial":175,"Robot":4,"Valence":"Lose","Action":"No-Go","Sham":0,"Color":"blue","trial_type":"pit-trial","trial_index":193,"time_elapsed":693993,"internal_node_id":"0.0-182.0","task_version":"test-retest-t3"},{"Rune":"rune_05_gebo","Hex":"#ffcc3399","Correct":-1,"Choice":32,"RT":611.479999992298,"Accuracy":0,"Outcome":"+1","Keys":[2111.880000011297],"TotalKeys":1,"Block":2,"Trial":176,"Robot":2,"Valence":"Win","Action":"No-Go","Sham":0,"Color":"yellow","trial_type":"pit-trial","trial_index":194,"time_elapsed":697108,"internal_node_id":"0.0-183.0","task_version":"test-retest-t3"},{"Rune":"rune_05_gebo","Hex":"#ffcc3399","Correct":-1,"Choice":-1,"RT":-1,"Accuracy":1,"Outcome":"+10","Keys":[],"TotalKeys":0,"Block":2,"Trial":177,"Robot":2,"Valence":"Win","Action":"No-Go","Sham":0,"Color":"yellow","trial_type":"pit-trial","trial_index":195,"time_elapsed":701112,"internal_node_id":"0.0-184.0","task_version":"test-retest-t3"},{"Rune":"rune_05_jeran","Hex":"#3366ff99","Correct":32,"Choice":32,"RT":483.06999998749234,"Accuracy":1,"Outcome":"-1","Keys":[1984.0100000146776],"TotalKeys":1,"Block":2,"Trial":178,"Robot":3,"Valence":"Lose","Action":"Go","Sham":0,"Color":"blue","trial_type":"pit-trial","trial_index":196,"time_elapsed":704100,"internal_node_id":"0.0-185.0","task_version":"test-retest-t3"},{"Rune":"rune_05_ior","Hex":"#3366ff99","Correct":-1,"Choice":-1,"RT":-1,"Accuracy":1,"Outcome":"-1","Keys":[],"TotalKeys":0,"Block":2,"Trial":179,"Robot":4,"Valence":"Lose","Action":"No-Go","Sham":0,"Color":"blue","trial_type":"pit-trial","trial_index":197,"time_elapsed":708105,"internal_node_id":"0.0-186.0","task_version":"test-retest-t3"},{"Rune":"rune_05_tiwaz","Hex":"#ffcc3399","Correct":32,"Choice":32,"RT":683.7749999831431,"Accuracy":1,"Outcome":"+1","Keys":[2184.095000004163],"TotalKeys":1,"Block":2,"Trial":180,"Robot":1,"Valence":"Win","Action":"Go","Sham":1,"Color":"yellow","trial_type":"pit-trial","trial_index":198,"time_elapsed":711292,"internal_node_id":"0.0-187.0","task_version":"test-retest-t3"},{"view_history":"[{\"page_index\":0,\"viewing_time\":2076.4950000157114},{\"page_index\":1,\"viewing_time\":934.9549999751616}]","rt":3011.8450000009034,"trial_type":"pit-instructions","trial_index":199,"time_elapsed":714305,"internal_node_id":"0.0-188.0","task_version":"test-retest-t3"},{"Rune":"rune_05_jeran","Hex":"#3366ff99","Correct":32,"Choice":32,"RT":714.6799999754876,"Accuracy":1,"Outcome":"-1","Keys":[2214.8850000230595],"TotalKeys":1,"Block":2,"Trial":181,"Robot":3,"Valence":"Lose","Action":"Go","Sham":0,"Color":"blue","trial_type":"pit-trial","trial_index":200,"time_elapsed":717523,"internal_node_id":"0.0-189.0","task_version":"test-retest-t3"},{"Rune":"rune_05_ior","Hex":"#3366ff99","Correct":-1,"Choice":-1,"RT":-1,"Accuracy":1,"Outcome":"-10","Keys":[],"TotalKeys":0,"Block":2,"Trial":182,"Robot":4,"Valence":"Lose","Action":"No-Go","Sham":1,"Color":"blue","trial_type":"pit-trial","trial_index":201,"time_elapsed":721525,"internal_node_id":"0.0-190.0","task_version":"test-retest-t3"},{"Rune":"rune_05_tiwaz","Hex":"#ffcc3399","Correct":32,"Choice":32,"RT":295.10499999742024,"Accuracy":1,"Outcome":"+10","Keys":[1795.2149999910034],"TotalKeys":1,"Block":2,"Trial":183,"Robot":1,"Valence":"Win","Action":"Go","Sham":0,"Color":"yellow","trial_type":"pit-trial","trial_index":202,"time_elapsed":724323,"internal_node_id":"0.0-191.0","task_version":"test-retest-t3"},{"Rune":"rune_05_gebo","Hex":"#ffcc3399","Correct":-1,"Choice":-1,"RT":-1,"Accuracy":1,"Outcome":"+10","Keys":[],"TotalKeys":0,"Block":2,"Trial":184,"Robot":2,"Valence":"Win","Action":"No-Go","Sham":0,"Color":"yellow","trial_type":"pit-trial","trial_index":203,"time_elapsed":728328,"internal_node_id":"0.0-192.0","task_version":"test-retest-t3"},{"Rune":"rune_05_jeran","Hex":"#3366ff99","Correct":32,"Choice":32,"RT":444.6099999768194,"Accuracy":1,"Outcome":"-1","Keys":[1944.7199999995064],"TotalKeys":1,"Block":2,"Trial":185,"Robot":3,"Valence":"Lose","Action":"Go","Sham":0,"Color":"blue","trial_type":"pit-trial","trial_index":204,"time_elapsed":731275,"internal_node_id":"0.0-193.0","task_version":"test-retest-t3"},{"Rune":"rune_05_tiwaz","Hex":"#ffcc3399","Correct":32,"Choice":32,"RT":424.31000000215136,"Accuracy":1,"Outcome":"+1","Keys":[1925.230000022566],"TotalKeys":1,"Block":2,"Trial":186,"Robot":1,"Valence":"Win","Action":"Go","Sham":1,"Color":"yellow","trial_type":"pit-trial","trial_index":205,"time_elapsed":734203,"internal_node_id":"0.0-194.0","task_version":"test-retest-t3"},{"Rune":"rune_05_ior","Hex":"#3366ff99","Correct":-1,"Choice":32,"RT":616.7249999998603,"Accuracy":0,"Outcome":"-10","Keys":[2117.7850000094622],"TotalKeys":1,"Block":2,"Trial":187,"Robot":4,"Valence":"Lose","Action":"No-Go","Sham":0,"Color":"blue","trial_type":"pit-trial","trial_index":206,"time_elapsed":737323,"internal_node_id":"0.0-195.0","task_version":"test-retest-t3"},{"Rune":"rune_05_gebo","Hex":"#ffcc3399","Correct":-1,"Choice":32,"RT":657.0049999863841,"Accuracy":0,"Outcome":"+1","Keys":[2157.0599999977276],"TotalKeys":1,"Block":2,"Trial":188,"Robot":2,"Valence":"Win","Action":"No-Go","Sham":0,"Color":"yellow","trial_type":"pit-trial","trial_index":207,"time_elapsed":740482,"internal_node_id":"0.0-196.0","task_version":"test-retest-t3"},{"Rune":"rune_05_gebo","Hex":"#ffcc3399","Correct":-1,"Choice":-1,"RT":-1,"Accuracy":1,"Outcome":"+1","Keys":[],"TotalKeys":0,"Block":2,"Trial":189,"Robot":2,"Valence":"Win","Action":"No-Go","Sham":1,"Color":"yellow","trial_type":"pit-trial","trial_index":208,"time_elapsed":744487,"internal_node_id":"0.0-197.0","task_version":"test-retest-t3"},{"Rune":"rune_05_jeran","Hex":"#3366ff99","Correct":32,"Choice":32,"RT":420.5049999873154,"Accuracy":1,"Outcome":"-1","Keys":[1921.4450000145007],"TotalKeys":1,"Block":2,"Trial":190,"Robot":3,"Valence":"Lose","Action":"Go","Sham":0,"Color":"blue","trial_type":"pit-trial","trial_index":209,"time_elapsed":747412,"internal_node_id":"0.0-198.0","task_version":"test-retest-t3"},{"Rune":"rune_05_ior","Hex":"#3366ff99","Correct":-1,"Choice":-1,"RT":-1,"Accuracy":1,"Outcome":"-1","Keys":[],"TotalKeys":0,"Block":2,"Trial":191,"Robot":4,"Valence":"Lose","Action":"No-Go","Sham":0,"Color":"blue","trial_type":"pit-trial","trial_index":210,"time_elapsed":751416,"internal_node_id":"0.0-199.0","task_version":"test-retest-t3"},{"Rune":"rune_05_tiwaz","Hex":"#ffcc3399","Correct":32,"Choice":32,"RT":340.234999981476,"Accuracy":1,"Outcome":"+10","Keys":[1840.2749999950174],"TotalKeys":1,"Block":2,"Trial":192,"Robot":1,"Valence":"Win","Action":"Go","Sham":0,"Color":"yellow","trial_type":"pit-trial","trial_index":211,"time_elapsed":754260,"internal_node_id":"0.0-200.0","task_version":"test-retest-t3"},{"Rune":"rune_05_tiwaz","Hex":"#ffcc3399","Correct":32,"Choice":32,"RT":247.59500002255663,"Accuracy":1,"Outcome":"+10","Keys":[1749.0250000264496],"TotalKeys":1,"Block":2,"Trial":193,"Robot":1,"Valence":"Win","Action":"Go","Sham":0,"Color":"yellow","trial_type":"pit-trial","trial_index":212,"time_elapsed":757011,"internal_node_id":"0.0-201.0","task_version":"test-retest-t3"},{"Rune":"rune_05_ior","Hex":"#3366ff99","Correct":-1,"Choice":-1,"RT":-1,"Accuracy":1,"Outcome":"-1","Keys":[],"TotalKeys":0,"Block":2,"Trial":194,"Robot":4,"Valence":"Lose","Action":"No-Go","Sham":0,"Color":"blue","trial_type":"pit-trial","trial_index":213,"time_elapsed":761014,"internal_node_id":"0.0-202.0","task_version":"test-retest-t3"},{"Rune":"rune_05_gebo","Hex":"#ffcc3399","Correct":-1,"Choice":32,"RT":446.74499999382533,"Accuracy":0,"Outcome":"+1","Keys":[1947.2050000040326],"TotalKeys":1,"Block":2,"Trial":195,"Robot":2,"Valence":"Win","Action":"No-Go","Sham":0,"Color":"yellow","trial_type":"pit-trial","trial_index":214,"time_elapsed":763964,"internal_node_id":"0.0-203.0","task_version":"test-retest-t3"},{"Rune":"rune_05_jeran","Hex":"#3366ff99","Correct":32,"Choice":32,"RT":487.9699999873992,"Accuracy":1,"Outcome":"-1","Keys":[1988.5549999889918],"TotalKeys":1,"Block":2,"Trial":196,"Robot":3,"Valence":"Lose","Action":"Go","Sham":0,"Color":"blue","trial_type":"pit-trial","trial_index":215,"time_elapsed":766955,"internal_node_id":"0.0-204.0","task_version":"test-retest-t3"},{"Rune":"rune_05_tiwaz","Hex":"#ffcc3399","Correct":32,"Choice":32,"RT":408.94000002299435,"Accuracy":1,"Outcome":"+10","Keys":[1909.6750000026077],"TotalKeys":1,"Block":2,"Trial":197,"Robot":1,"Valence":"Win","Action":"Go","Sham":0,"Color":"yellow","trial_type":"pit-trial","trial_index":216,"time_elapsed":769867,"internal_node_id":"0.0-205.0","task_version":"test-retest-t3"},{"Rune":"rune_05_gebo","Hex":"#ffcc3399","Correct":-1,"Choice":-1,"RT":-1,"Accuracy":1,"Outcome":"+10","Keys":[],"TotalKeys":0,"Block":2,"Trial":198,"Robot":2,"Valence":"Win","Action":"No-Go","Sham":0,"Color":"yellow","trial_type":"pit-trial","trial_index":217,"time_elapsed":773870,"internal_node_id":"0.0-206.0","task_version":"test-retest-t3"},{"Rune":"rune_05_jeran","Hex":"#3366ff99","Correct":32,"Choice":32,"RT":462.22499999566935,"Accuracy":1,"Outcome":"-10","Keys":[1962.2899999958463],"TotalKeys":1,"Block":2,"Trial":199,"Robot":3,"Valence":"Lose","Action":"Go","Sham":1,"Color":"blue","trial_type":"pit-trial","trial_index":218,"time_elapsed":776835,"internal_node_id":"0.0-207.0","task_version":"test-retest-t3"},{"Rune":"rune_05_ior","Hex":"#3366ff99","Correct":-1,"Choice":-1,"RT":-1,"Accuracy":1,"Outcome":"-1","Keys":[],"TotalKeys":0,"Block":2,"Trial":200,"Robot":4,"Valence":"Lose","Action":"No-Go","Sham":0,"Color":"blue","trial_type":"pit-trial","trial_index":219,"time_elapsed":780839,"internal_node_id":"0.0-208.0","task_version":"test-retest-t3"},{"Rune":"rune_05_tiwaz","Hex":"#ffcc3399","Correct":32,"Choice":32,"RT":763.6850000126287,"Accuracy":1,"Outcome":"+10","Keys":[2264.950000011595],"TotalKeys":1,"Block":2,"Trial":201,"Robot":1,"Valence":"Win","Action":"Go","Sham":0,"Color":"yellow","trial_type":"pit-trial","trial_index":220,"time_elapsed":784106,"internal_node_id":"0.0-209.0","task_version":"test-retest-t3"},{"Rune":"rune_05_ior","Hex":"#3366ff99","Correct":-1,"Choice":-1,"RT":-1,"Accuracy":1,"Outcome":"-10","Keys":[],"TotalKeys":0,"Block":2,"Trial":202,"Robot":4,"Valence":"Lose","Action":"No-Go","Sham":1,"Color":"blue","trial_type":"pit-trial","trial_index":221,"time_elapsed":788110,"internal_node_id":"0.0-210.0","task_version":"test-retest-t3"},{"Rune":"rune_05_gebo","Hex":"#ffcc3399","Correct":-1,"Choice":32,"RT":222.0450000022538,"Accuracy":0,"Outcome":"+1","Keys":[1722.3549999762326],"TotalKeys":1,"Block":2,"Trial":203,"Robot":2,"Valence":"Win","Action":"No-Go","Sham":0,"Color":"yellow","trial_type":"pit-trial","trial_index":222,"time_elapsed":790836,"internal_node_id":"0.0-211.0","task_version":"test-retest-t3"},{"Rune":"rune_05_jeran","Hex":"#3366ff99","Correct":32,"Choice":32,"RT":416.5849999990314,"Accuracy":1,"Outcome":"-1","Keys":[1916.9000000110827],"TotalKeys":1,"Block":2,"Trial":204,"Robot":3,"Valence":"Lose","Action":"Go","Sham":0,"Color":"blue","trial_type":"pit-trial","trial_index":223,"time_elapsed":793754,"internal_node_id":"0.0-212.0","task_version":"test-retest-t3"},{"Rune":"rune_05_ior","Hex":"#3366ff99","Correct":-1,"Choice":32,"RT":753.0400000105146,"Accuracy":0,"Outcome":"-10","Keys":[2253.9099999994505],"TotalKeys":1,"Block":2,"Trial":205,"Robot":4,"Valence":"Lose","Action":"No-Go","Sham":0,"Color":"blue","trial_type":"pit-trial","trial_index":224,"time_elapsed":797011,"internal_node_id":"0.0-213.0","task_version":"test-retest-t3"},{"Rune":"rune_05_gebo","Hex":"#ffcc3399","Correct":-1,"Choice":-1,"RT":-1,"Accuracy":1,"Outcome":"+10","Keys":[],"TotalKeys":0,"Block":2,"Trial":206,"Robot":2,"Valence":"Win","Action":"No-Go","Sham":0,"Color":"yellow","trial_type":"pit-trial","trial_index":225,"time_elapsed":801015,"internal_node_id":"0.0-214.0","task_version":"test-retest-t3"},{"Rune":"rune_05_tiwaz","Hex":"#ffcc3399","Correct":32,"Choice":32,"RT":197.8549999766983,"Accuracy":1,"Outcome":"+10","Keys":[1698.5200000053737],"TotalKeys":1,"Block":2,"Trial":207,"Robot":1,"Valence":"Win","Action":"Go","Sham":0,"Color":"yellow","trial_type":"pit-trial","trial_index":226,"time_elapsed":803716,"internal_node_id":"0.0-215.0","task_version":"test-retest-t3"},{"Rune":"rune_05_jeran","Hex":"#3366ff99","Correct":32,"Choice":32,"RT":383.37500000488944,"Accuracy":1,"Outcome":"-10","Keys":[1884.2050000093877],"TotalKeys":1,"Block":2,"Trial":208,"Robot":3,"Valence":"Lose","Action":"Go","Sham":1,"Color":"blue","trial_type":"pit-trial","trial_index":227,"time_elapsed":806603,"internal_node_id":"0.0-216.0","task_version":"test-retest-t3"},{"Rune":"rune_05_tiwaz","Hex":"#ffcc3399","Correct":32,"Choice":32,"RT":392.04000000609085,"Accuracy":1,"Outcome":"+1","Keys":[1893.3299999916926],"TotalKeys":1,"Block":2,"Trial":209,"Robot":1,"Valence":"Win","Action":"Go","Sham":1,"Color":"yellow","trial_type":"pit-trial","trial_index":228,"time_elapsed":809498,"internal_node_id":"0.0-217.0","task_version":"test-retest-t3"},{"Rune":"rune_05_jeran","Hex":"#3366ff99","Correct":32,"Choice":32,"RT":664.5950000092853,"Accuracy":1,"Outcome":"-1","Keys":[2165.99499998847],"TotalKeys":1,"Block":2,"Trial":210,"Robot":3,"Valence":"Lose","Action":"Go","Sham":0,"Color":"blue","trial_type":"pit-trial","trial_index":229,"time_elapsed":812667,"internal_node_id":"0.0-218.0","task_version":"test-retest-t3"},{"Rune":"rune_05_gebo","Hex":"#ffcc3399","Correct":-1,"Choice":-1,"RT":-1,"Accuracy":1,"Outcome":"+10","Keys":[],"TotalKeys":0,"Block":2,"Trial":211,"Robot":2,"Valence":"Win","Action":"No-Go","Sham":0,"Color":"yellow","trial_type":"pit-trial","trial_index":230,"time_elapsed":816671,"internal_node_id":"0.0-219.0","task_version":"test-retest-t3"},{"Rune":"rune_05_ior","Hex":"#3366ff99","Correct":-1,"Choice":-1,"RT":-1,"Accuracy":1,"Outcome":"-1","Keys":[],"TotalKeys":0,"Block":2,"Trial":212,"Robot":4,"Valence":"Lose","Action":"No-Go","Sham":0,"Color":"blue","trial_type":"pit-trial","trial_index":231,"time_elapsed":820676,"internal_node_id":"0.0-220.0","task_version":"test-retest-t3"},{"Rune":"rune_05_tiwaz","Hex":"#ffcc3399","Correct":32,"Choice":32,"RT":208.16999999806285,"Accuracy":1,"Outcome":"+10","Keys":[1708.279999991646],"TotalKeys":1,"Block":2,"Trial":213,"Robot":1,"Valence":"Win","Action":"Go","Sham":0,"Color":"yellow","trial_type":"pit-trial","trial_index":232,"time_elapsed":823387,"internal_node_id":"0.0-221.0","task_version":"test-retest-t3"},{"Rune":"rune_05_gebo","Hex":"#ffcc3399","Correct":-1,"Choice":-1,"RT":-1,"Accuracy":1,"Outcome":"+10","Keys":[],"TotalKeys":0,"Block":2,"Trial":214,"Robot":2,"Valence":"Win","Action":"No-Go","Sham":0,"Color":"yellow","trial_type":"pit-trial","trial_index":233,"time_elapsed":827390,"internal_node_id":"0.0-222.0","task_version":"test-retest-t3"},{"Rune":"rune_05_jeran","Hex":"#3366ff99","Correct":32,"Choice":32,"RT":445.13500001630746,"Accuracy":1,"Outcome":"-1","Keys":[1945.255000027828],"TotalKeys":1,"Block":2,"Trial":215,"Robot":3,"Valence":"Lose","Action":"Go","Sham":0,"Color":"blue","trial_type":"pit-trial","trial_index":234,"time_elapsed":830339,"internal_node_id":"0.0-223.0","task_version":"test-retest-t3"},{"Rune":"rune_05_ior","Hex":"#3366ff99","Correct":-1,"Choice":-1,"RT":-1,"Accuracy":1,"Outcome":"-1","Keys":[],"TotalKeys":0,"Block":2,"Trial":216,"Robot":4,"Valence":"Lose","Action":"No-Go","Sham":0,"Color":"blue","trial_type":"pit-trial","trial_index":235,"time_elapsed":834344,"internal_node_id":"0.0-224.0","task_version":"test-retest-t3"},{"Rune":"rune_05_gebo","Hex":"#ffcc3399","Correct":-1,"Choice":-1,"RT":-1,"Accuracy":1,"Outcome":"+1","Keys":[],"TotalKeys":0,"Block":2,"Trial":217,"Robot":2,"Valence":"Win","Action":"No-Go","Sham":1,"Color":"yellow","trial_type":"pit-trial","trial_index":236,"time_elapsed":838349,"internal_node_id":"0.0-225.0","task_version":"test-retest-t3"},{"Rune":"rune_05_ior","Hex":"#3366ff99","Correct":-1,"Choice":-1,"RT":-1,"Accuracy":1,"Outcome":"-1","Keys":[],"TotalKeys":0,"Block":2,"Trial":218,"Robot":4,"Valence":"Lose","Action":"No-Go","Sham":0,"Color":"blue","trial_type":"pit-trial","trial_index":237,"time_elapsed":842353,"internal_node_id":"0.0-226.0","task_version":"test-retest-t3"},{"Rune":"rune_05_jeran","Hex":"#3366ff99","Correct":32,"Choice":32,"RT":434.28499999572523,"Accuracy":1,"Outcome":"-1","Keys":[1934.849999990547],"TotalKeys":1,"Block":2,"Trial":219,"Robot":3,"Valence":"Lose","Action":"Go","Sham":0,"Color":"blue","trial_type":"pit-trial","trial_index":238,"time_elapsed":845290,"internal_node_id":"0.0-227.0","task_version":"test-retest-t3"},{"Rune":"rune_05_tiwaz","Hex":"#ffcc3399","Correct":32,"Choice":32,"RT":201.60499998019077,"Accuracy":1,"Outcome":"+10","Keys":[1701.8300000054296],"TotalKeys":1,"Block":2,"Trial":220,"Robot":1,"Valence":"Win","Action":"Go","Sham":0,"Color":"yellow","trial_type":"pit-trial","trial_index":239,"time_elapsed":847995,"internal_node_id":"0.0-228.0","task_version":"test-retest-t3"},{"Rune":"rune_05_gebo","Hex":"#ffcc3399","Correct":-1,"Choice":-1,"RT":-1,"Accuracy":1,"Outcome":"+10","Keys":[],"TotalKeys":0,"Block":2,"Trial":221,"Robot":2,"Valence":"Win","Action":"No-Go","Sham":0,"Color":"yellow","trial_type":"pit-trial","trial_index":240,"time_elapsed":851998,"internal_node_id":"0.0-229.0","task_version":"test-retest-t3"},{"Rune":"rune_05_ior","Hex":"#3366ff99","Correct":-1,"Choice":-1,"RT":-1,"Accuracy":1,"Outcome":"-1","Keys":[],"TotalKeys":0,"Block":2,"Trial":222,"Robot":4,"Valence":"Lose","Action":"No-Go","Sham":0,"Color":"blue","trial_type":"pit-trial","trial_index":241,"time_elapsed":856002,"internal_node_id":"0.0-230.0","task_version":"test-retest-t3"},{"Rune":"rune_05_jeran","Hex":"#3366ff99","Correct":32,"Choice":32,"RT":456.5099999890663,"Accuracy":1,"Outcome":"-10","Keys":[1957.6649999944493],"TotalKeys":1,"Block":2,"Trial":223,"Robot":3,"Valence":"Lose","Action":"Go","Sham":1,"Color":"blue","trial_type":"pit-trial","trial_index":242,"time_elapsed":858962,"internal_node_id":"0.0-231.0","task_version":"test-retest-t3"},{"Rune":"rune_05_tiwaz","Hex":"#ffcc3399","Correct":32,"Choice":32,"RT":329.00500000687316,"Accuracy":1,"Outcome":"+1","Keys":[1829.9000000115484],"TotalKeys":1,"Block":2,"Trial":224,"Robot":1,"Valence":"Win","Action":"Go","Sham":1,"Color":"yellow","trial_type":"pit-trial","trial_index":243,"time_elapsed":861795,"internal_node_id":"0.0-232.0","task_version":"test-retest-t3"},{"Rune":"rune_05_gebo","Hex":"#ffcc3399","Correct":-1,"Choice":-1,"RT":-1,"Accuracy":1,"Outcome":"+10","Keys":[],"TotalKeys":0,"Block":2,"Trial":225,"Robot":2,"Valence":"Win","Action":"No-Go","Sham":0,"Color":"yellow","trial_type":"pit-trial","trial_index":244,"time_elapsed":865798,"internal_node_id":"0.0-233.0","task_version":"test-retest-t3"},{"Rune":"rune_05_jeran","Hex":"#3366ff99","Correct":32,"Choice":32,"RT":397.57500000996515,"Accuracy":1,"Outcome":"-1","Keys":[1897.8250000218395],"TotalKeys":1,"Block":2,"Trial":226,"Robot":3,"Valence":"Lose","Action":"Go","Sham":0,"Color":"blue","trial_type":"pit-trial","trial_index":245,"time_elapsed":868698,"internal_node_id":"0.0-234.0","task_version":"test-retest-t3"},{"Rune":"rune_05_tiwaz","Hex":"#ffcc3399","Correct":32,"Choice":32,"RT":241.92499998025596,"Accuracy":1,"Outcome":"+10","Keys":[1741.9600000139326],"TotalKeys":1,"Block":2,"Trial":227,"Robot":1,"Valence":"Win","Action":"Go","Sham":0,"Color":"yellow","trial_type":"pit-trial","trial_index":246,"time_elapsed":871444,"internal_node_id":"0.0-235.0","task_version":"test-retest-t3"},{"Rune":"rune_05_ior","Hex":"#3366ff99","Correct":-1,"Choice":-1,"RT":-1,"Accuracy":1,"Outcome":"-1","Keys":[],"TotalKeys":0,"Block":2,"Trial":228,"Robot":4,"Valence":"Lose","Action":"No-Go","Sham":0,"Color":"blue","trial_type":"pit-trial","trial_index":247,"time_elapsed":875448,"internal_node_id":"0.0-236.0","task_version":"test-retest-t3"},{"Rune":"rune_05_tiwaz","Hex":"#ffcc3399","Correct":32,"Choice":32,"RT":323.7200000148732,"Accuracy":1,"Outcome":"+10","Keys":[1824.0650000225287],"TotalKeys":1,"Block":2,"Trial":229,"Robot":1,"Valence":"Win","Action":"Go","Sham":0,"Color":"yellow","trial_type":"pit-trial","trial_index":248,"time_elapsed":878275,"internal_node_id":"0.0-237.0","task_version":"test-retest-t3"},{"Rune":"rune_05_ior","Hex":"#3366ff99","Correct":-1,"Choice":-1,"RT":-1,"Accuracy":1,"Outcome":"-10","Keys":[],"TotalKeys":0,"Block":2,"Trial":230,"Robot":4,"Valence":"Lose","Action":"No-Go","Sham":1,"Color":"blue","trial_type":"pit-trial","trial_index":249,"time_elapsed":882279,"internal_node_id":"0.0-238.0","task_version":"test-retest-t3"},{"Rune":"rune_05_gebo","Hex":"#ffcc3399","Correct":-1,"Choice":-1,"RT":-1,"Accuracy":1,"Outcome":"+1","Keys":[],"TotalKeys":0,"Block":2,"Trial":231,"Robot":2,"Valence":"Win","Action":"No-Go","Sham":1,"Color":"yellow","trial_type":"pit-trial","trial_index":250,"time_elapsed":886282,"internal_node_id":"0.0-239.0","task_version":"test-retest-t3"},{"Rune":"rune_05_jeran","Hex":"#3366ff99","Correct":32,"Choice":32,"RT":425.2200000046287,"Accuracy":1,"Outcome":"-1","Keys":[1926.0950000025332],"TotalKeys":1,"Block":2,"Trial":232,"Robot":3,"Valence":"Lose","Action":"Go","Sham":0,"Color":"blue","trial_type":"pit-trial","trial_index":251,"time_elapsed":889211,"internal_node_id":"0.0-240.0","task_version":"test-retest-t3"},{"Rune":"rune_05_ior","Hex":"#3366ff99","Correct":-1,"Choice":-1,"RT":-1,"Accuracy":1,"Outcome":"-1","Keys":[],"TotalKeys":0,"Block":2,"Trial":233,"Robot":4,"Valence":"Lose","Action":"No-Go","Sham":0,"Color":"blue","trial_type":"pit-trial","trial_index":252,"time_elapsed":893216,"internal_node_id":"0.0-241.0","task_version":"test-retest-t3"},{"Rune":"rune_05_jeran","Hex":"#3366ff99","Correct":32,"Choice":32,"RT":436.165000020992,"Accuracy":1,"Outcome":"-1","Keys":[1936.2900000123773],"TotalKeys":1,"Block":2,"Trial":234,"Robot":3,"Valence":"Lose","Action":"Go","Sham":0,"Color":"blue","trial_type":"pit-trial","trial_index":253,"time_elapsed":896155,"internal_node_id":"0.0-242.0","task_version":"test-retest-t3"},{"Rune":"rune_05_tiwaz","Hex":"#ffcc3399","Correct":32,"Choice":32,"RT":224.00499999639578,"Accuracy":1,"Outcome":"+10","Keys":[1725.124999997206],"TotalKeys":1,"Block":2,"Trial":235,"Robot":1,"Valence":"Win","Action":"Go","Sham":0,"Color":"yellow","trial_type":"pit-trial","trial_index":254,"time_elapsed":898883,"internal_node_id":"0.0-243.0","task_version":"test-retest-t3"},{"Rune":"rune_05_gebo","Hex":"#ffcc3399","Correct":-1,"Choice":-1,"RT":-1,"Accuracy":1,"Outcome":"+10","Keys":[],"TotalKeys":0,"Block":2,"Trial":236,"Robot":2,"Valence":"Win","Action":"No-Go","Sham":0,"Color":"yellow","trial_type":"pit-trial","trial_index":255,"time_elapsed":902886,"internal_node_id":"0.0-244.0","task_version":"test-retest-t3"},{"Rune":"rune_05_tiwaz","Hex":"#ffcc3399","Correct":32,"Choice":32,"RT":253.91499997931533,"Accuracy":1,"Outcome":"+10","Keys":[1754.895000020042],"TotalKeys":1,"Block":2,"Trial":237,"Robot":1,"Valence":"Win","Action":"Go","Sham":0,"Color":"yellow","trial_type":"pit-trial","trial_index":256,"time_elapsed":905643,"internal_node_id":"0.0-245.0","task_version":"test-retest-t3"},{"Rune":"rune_05_gebo","Hex":"#ffcc3399","Correct":-1,"Choice":-1,"RT":-1,"Accuracy":1,"Outcome":"+10","Keys":[],"TotalKeys":0,"Block":2,"Trial":238,"Robot":2,"Valence":"Win","Action":"No-Go","Sham":0,"Color":"yellow","trial_type":"pit-trial","trial_index":257,"time_elapsed":909645,"internal_node_id":"0.0-246.0","task_version":"test-retest-t3"},{"Rune":"rune_05_jeran","Hex":"#3366ff99","Correct":32,"Choice":32,"RT":463.5100000014063,"Accuracy":1,"Outcome":"-1","Keys":[1963.8599999889266],"TotalKeys":1,"Block":2,"Trial":239,"Robot":3,"Valence":"Lose","Action":"Go","Sham":0,"Color":"blue","trial_type":"pit-trial","trial_index":258,"time_elapsed":912611,"internal_node_id":"0.0-247.0","task_version":"test-retest-t3"},{"Rune":"rune_05_ior","Hex":"#3366ff99","Correct":-1,"Choice":-1,"RT":-1,"Accuracy":1,"Outcome":"-1","Keys":[],"TotalKeys":0,"Block":2,"Trial":240,"Robot":4,"Valence":"Lose","Action":"No-Go","Sham":0,"Color":"blue","trial_type":"pit-trial","trial_index":259,"time_elapsed":916615,"internal_node_id":"0.0-248.0","task_version":"test-retest-t3"},{"view_history":"[{\"page_index\":0,\"viewing_time\":2468.554999999469}]","rt":2468.9150000049267,"trial_type":"pit-instructions","trial_index":260,"time_elapsed":919085,"internal_node_id":"0.0-249.0","task_version":"test-retest-t3"},{"rt":16336.844999983441,"responses":{"difficulty":"3","fun":"4","clarity":"5","strategy":"I just tried to remember the robots","feedback":"It went well."},"survey":"debrief","trial_type":"survey-debrief","trial_index":261,"time_elapsed":935424,"internal_node_id":"0.0-250.0","task_version":"test-retest-t3"},{"rt":7712.234999984503,"stimulus":"You earned a bonus of $1.19 out of $1.5.<br><br>Press any key to complete the experiment.","key_press":13,"trial_type":"html-keyboard-response","trial_index":262,"time_elapsed":943138,"internal_node_id":"0.0-251.0","task_version":"test-retest-t3","accuracy":0.7875,"bonus":1.19,"interactions":"[]"}]