[{"slider_type":"valence","raw_loc":314,"loc":0.128,"trial_type":"affective-slider","trial_index":0,"time_elapsed":5409,"internal_node_id":"0.0-0.0","task_version":"test-retest-t3"},{"responses":{"Q01":"2","Q08":"0","Q07":"2","Q04":"2","Q05":"2","Q02":"2","Q03":"2","Q06":"2"},"rt":9520.894999965094,"survey":"gad7","trial_type":"survey-template","trial_index":1,"time_elapsed":14935,"internal_node_id":"0.0-1.0","task_version":"test-retest-t3"},{"view_history":"[{\"page_index\":0,\"viewing_time\":2256.839999987278},{\"page_index\":1,\"viewing_time\":246.71500001568347},{\"page_index\":2,\"viewing_time\":322.0450000371784},{\"page_index\":3,\"viewing_time\":350.18999996827915},{\"page_index\":4,\"viewing_time\":1375.5649999948218},{\"page_index\":5,\"viewing_time\":412.1550000272691}]","rt":4964.240000001155,"trial_type":"pit-instructions","trial_index":2,"time_elapsed":19907,"internal_node_id":"0.0-2.0-0.0","task_version":"test-retest-t3"},{"Rune":"rune_00_ingz","Hex":"#FFFFF080","Correct":32,"Choice":32,"RT":251.41500000609085,"Accuracy":1,"Outcome":"+10","Keys":[1752.7850000187755,1940.070000011474,2081.880000012461],"TotalKeys":3,"Block":0,"Action":"Go","trial_type":"pit-trial","trial_index":3,"time_elapsed":22664,"internal_node_id":"0.0-2.0-1.0-0.0","task_version":"test-retest-t3"},{"Rune":"rune_00_ingz","Hex":"#FFFFF080","Correct":32,"Choice":32,"RT":103.21500001009554,"Accuracy":1,"Outcome":"+10","Keys":[721.5149999829009,866.7150000110269,1017.1850000042468,1202.3749999934807,1311.8499999982305,1462.085000006482,1603.949999960605,1713.41999998549,1859.809999994468,2004.3949999962933],"TotalKeys":10,"Block":0,"Action":"Go","trial_type":"pit-trial","trial_index":4,"time_elapsed":25271,"internal_node_id":"0.0-2.0-1.0-0.1","task_version":"test-retest-t3"},{"Rune":"rune_00_ingz","Hex":"#FFFFF080","Correct":32,"Choice":32,"RT":294.79000001447275,"Accuracy":1,"Outcome":"+10","Keys":[1795.925000042189,1955.6300000404008,2083.290000038687],"TotalKeys":3,"Block":0,"Action":"Go","trial_type":"pit-trial","trial_index":5,"time_elapsed":28071,"internal_node_id":"0.0-2.0-1.0-0.2","task_version":"test-retest-t3"},{"Rune":"rune_00_ingz","Hex":"#FFFFF080","Correct":32,"Choice":32,"RT":63.72499995632097,"Accuracy":1,"Outcome":"+10","Keys":[944.9900000472553,1108.3199999993667,1290.7100000302307,1421.715000004042,1564.9800000246614,1675.8600000175647,1804.7200000146404],"TotalKeys":7,"Block":0,"Action":"Go","trial_type":"pit-trial","trial_index":6,"time_elapsed":30641,"internal_node_id":"0.0-2.0-1.0-0.3","task_version":"test-retest-t3"},{"view_history":"[{\"page_index\":0,\"viewing_time\":3451.4149999595247}]","rt":3451.7549999873154,"trial_type":"pit-instructions","trial_index":7,"time_elapsed":34094,"internal_node_id":"0.0-2.0-2.0","task_version":"test-retest-t3"},{"Rune":"rune_00_isaz","Hex":"#FFFFF080","Correct":-1,"Choice":-1,"RT":-1,"Accuracy":1,"Outcome":"+10","Keys":[],"TotalKeys":0,"Block":0,"Action":"No-Go","trial_type":"pit-trial","trial_index":8,"time_elapsed":38099,"internal_node_id":"0.0-2.0-3.0-0.0","task_version":"test-retest-t3"},{"Rune":"rune_00_isaz","Hex":"#FFFFF080","Correct":-1,"Choice":-1,"RT":-1,"Accuracy":1,"Outcome":"+10","Keys":[],"TotalKeys":0,"Block":0,"Action":"No-Go","trial_type":"pit-trial","trial_index":9,"time_elapsed":42102,"internal_node_id":"0.0-2.0-3.0-0.1","task_version":"test-retest-t3"},{"Rune":"rune_00_isaz","Hex":"#FFFFF080","Correct":-1,"Choice":-1,"RT":-1,"Accuracy":1,"Outcome":"+10","Keys":[],"TotalKeys":0,"Block":0,"Action":"No-Go","trial_type":"pit-trial","trial_index":10,"time_elapsed":46106,"internal_node_id":"0.0-2.0-3.0-0.2","task_version":"test-retest-t3"},{"Rune":"rune_00_isaz","Hex":"#FFFFF080","Correct":-1,"Choice":-1,"RT":-1,"Accuracy":1,"Outcome":"+10","Keys":[],"TotalKeys":0,"Block":0,"Action":"No-Go","trial_type":"pit-trial","trial_index":11,"time_elapsed":50110,"internal_node_id":"0.0-2.0-3.0-0.3","task_version":"test-retest-t3"},{"view_history":"[{\"page_index\":0,\"viewing_time\":1358.8699999963865},{\"page_index\":1,\"viewing_time\":97462.53000001889},{\"page_index\":2,\"viewing_time\":486.19000002508983},{\"page_index\":3,\"viewing_time\":512.6549999695271},{\"page_index\":4,\"viewing_time\":384.955000015907},{\"page_index\":5,\"viewing_time\":377.21000000601634},{\"page_index\":6,\"viewing_time\":343.0250000092201},{\"page_index\":7,\"viewing_time\":740.010000008624}]","rt":101665.97000003094,"trial_type":"pit-instructions","trial_index":12,"time_elapsed":151777,"internal_node_id":"0.0-2.0-4.0","task_version":"test-retest-t3"},{"responses":["Do nothing","+10","-1","True","Yes"],"num_errors":0,"rt":17744.91999996826,"trial_type":"pit-comprehension","trial_index":13,"time_elapsed":169526,"internal_node_id":"0.0-2.0-5.0","task_version":"test-retest-t3"},{"trial_type":"call-function","trial_index":14,"time_elapsed":169529,"internal_node_id":"0.0-3.0","task_version":"test-retest-t3"},{"view_history":"[{\"page_index\":0,\"viewing_time\":1181.609999970533},{\"page_index\":1,\"viewing_time\":115.78000005101785},{\"page_index\":2,\"viewing_time\":44.439999968744814}]","rt":1342.1899999957532,"trial_type":"pit-instructions","trial_index":15,"time_elapsed":170873,"internal_node_id":"0.0-4.0","task_version":"test-retest-t3"},{"Rune":"rune_05_gebo","Hex":"#3366ff99","Correct":-1,"Choice":32,"RT":406.8950000219047,"Accuracy":0,"Outcome":"-10","Keys":[1907.9600000404753],"TotalKeys":1,"Block":1,"Trial":1,"Robot":4,"Valence":"Lose","Action":"No-Go","Sham":0,"Color":"blue","trial_type":"pit-trial","trial_index":16,"time_elapsed":173786,"internal_node_id":"0.0-5.0","task_version":"test-retest-t3"},{"Rune":"rune_05_jeran","Hex":"#ffcc3399","Correct":32,"Choice":32,"RT":577.919999952428,"Accuracy":1,"Outcome":"+1","Keys":[2079.425000003539],"TotalKeys":1,"Block":1,"Trial":2,"Robot":1,"Valence":"Win","Action":"Go","Sham":1,"Color":"yellow","trial_type":"pit-trial","trial_index":17,"time_elapsed":176868,"internal_node_id":"0.0-6.0","task_version":"test-retest-t3"},{"Rune":"rune_05_ior","Hex":"#ffcc3399","Correct":-1,"Choice":32,"RT":432.84999998286366,"Accuracy":0,"Outcome":"+1","Keys":[1933.7899999809451],"TotalKeys":1,"Block":1,"Trial":3,"Robot":2,"Valence":"Win","Action":"No-Go","Sham":0,"Color":"yellow","trial_type":"pit-trial","trial_index":18,"time_elapsed":179804,"internal_node_id":"0.0-7.0","task_version":"test-retest-t3"},{"Rune":"rune_05_tiwaz","Hex":"#3366ff99","Correct":32,"Choice":32,"RT":474.2499999701977,"Accuracy":1,"Outcome":"-1","Keys":[1974.4899999932386],"TotalKeys":1,"Block":1,"Trial":4,"Robot":3,"Valence":"Lose","Action":"Go","Sham":0,"Color":"blue","trial_type":"pit-trial","trial_index":19,"time_elapsed":182782,"internal_node_id":"0.0-8.0","task_version":"test-retest-t3"},{"Rune":"rune_05_ior","Hex":"#ffcc3399","Correct":-1,"Choice":-1,"RT":-1,"Accuracy":1,"Outcome":"+1","Keys":[],"TotalKeys":0,"Block":1,"Trial":5,"Robot":2,"Valence":"Win","Action":"No-Go","Sham":1,"Color":"yellow","trial_type":"pit-trial","trial_index":20,"time_elapsed":186787,"internal_node_id":"0.0-9.0","task_version":"test-retest-t3"},{"Rune":"rune_05_gebo","Hex":"#3366ff99","Correct":-1,"Choice":-1,"RT":-1,"Accuracy":1,"Outcome":"-1","Keys":[],"TotalKeys":0,"Block":1,"Trial":6,"Robot":4,"Valence":"Lose","Action":"No-Go","Sham":0,"Color":"blue","trial_type":"pit-trial","trial_index":21,"time_elapsed":190790,"internal_node_id":"0.0-10.0","task_version":"test-retest-t3"},{"Rune":"rune_05_jeran","Hex":"#ffcc3399","Correct":32,"Choice":-1,"RT":-1,"Accuracy":0,"Outcome":"+1","Keys":[],"TotalKeys":0,"Block":1,"Trial":7,"Robot":1,"Valence":"Win","Action":"Go","Sham":0,"Color":"yellow","trial_type":"pit-trial","trial_index":22,"time_elapsed":194795,"internal_node_id":"0.0-11.0","task_version":"test-retest-t3"},{"Rune":"rune_05_tiwaz","Hex":"#3366ff99","Correct":32,"Choice":32,"RT":748.7749999854714,"Accuracy":1,"Outcome":"-1","Keys":[2249.019999988377],"TotalKeys":1,"Block":1,"Trial":8,"Robot":3,"Valence":"Lose","Action":"Go","Sham":0,"Color":"blue","trial_type":"pit-trial","trial_index":23,"time_elapsed":198047,"internal_node_id":"0.0-12.0","task_version":"test-retest-t3"},{"Rune":"rune_05_ior","Hex":"#ffcc3399","Correct":-1,"Choice":32,"RT":555.0500000244938,"Accuracy":0,"Outcome":"+1","Keys":[2057.100000034552],"TotalKeys":1,"Block":1,"Trial":9,"Robot":2,"Valence":"Win","Action":"No-Go","Sham":0,"Color":"yellow","trial_type":"pit-trial","trial_index":24,"time_elapsed":201106,"internal_node_id":"0.0-13.0","task_version":"test-retest-t3"},{"Rune":"rune_05_tiwaz","Hex":"#3366ff99","Correct":32,"Choice":32,"RT":310.49999996321276,"Accuracy":1,"Outcome":"-10","Keys":[1812.4149999930523],"TotalKeys":1,"Block":1,"Trial":10,"Robot":3,"Valence":"Lose","Action":"Go","Sham":1,"Color":"blue","trial_type":"pit-trial","trial_index":25,"time_elapsed":203922,"internal_node_id":"0.0-14.0","task_version":"test-retest-t3"},{"Rune":"rune_05_gebo","Hex":"#3366ff99","Correct":-1,"Choice":-1,"RT":-1,"Accuracy":1,"Outcome":"-10","Keys":[],"TotalKeys":0,"Block":1,"Trial":11,"Robot":4,"Valence":"Lose","Action":"No-Go","Sham":1,"Color":"blue","trial_type":"pit-trial","trial_index":26,"time_elapsed":207926,"internal_node_id":"0.0-15.0","task_version":"test-retest-t3"},{"Rune":"rune_05_jeran","Hex":"#ffcc3399","Correct":32,"Choice":32,"RT":681.9550000363961,"Accuracy":1,"Outcome":"+10","Keys":[2182.444999984,2389.3900000257418],"TotalKeys":2,"Block":1,"Trial":12,"Robot":1,"Valence":"Win","Action":"Go","Sham":0,"Color":"yellow","trial_type":"pit-trial","trial_index":27,"time_elapsed":211111,"internal_node_id":"0.0-16.0","task_version":"test-retest-t3"},{"Rune":"rune_05_ior","Hex":"#ffcc3399","Correct":-1,"Choice":-1,"RT":-1,"Accuracy":1,"Outcome":"+10","Keys":[],"TotalKeys":0,"Block":1,"Trial":13,"Robot":2,"Valence":"Win","Action":"No-Go","Sham":0,"Color":"yellow","trial_type":"pit-trial","trial_index":28,"time_elapsed":215115,"internal_node_id":"0.0-17.0","task_version":"test-retest-t3"},{"Rune":"rune_05_jeran","Hex":"#ffcc3399","Correct":32,"Choice":32,"RT":708.4700000123121,"Accuracy":1,"Outcome":"+10","Keys":[2208.764999988489],"TotalKeys":1,"Block":1,"Trial":14,"Robot":1,"Valence":"Win","Action":"Go","Sham":0,"Color":"yellow","trial_type":"pit-trial","trial_index":29,"time_elapsed":218326,"internal_node_id":"0.0-18.0","task_version":"test-retest-t3"},{"Rune":"rune_05_gebo","Hex":"#3366ff99","Correct":-1,"Choice":-1,"RT":-1,"Accuracy":1,"Outcome":"-1","Keys":[],"TotalKeys":0,"Block":1,"Trial":15,"Robot":4,"Valence":"Lose","Action":"No-Go","Sham":0,"Color":"blue","trial_type":"pit-trial","trial_index":30,"time_elapsed":222330,"internal_node_id":"0.0-19.0","task_version":"test-retest-t3"},{"Rune":"rune_05_tiwaz","Hex":"#3366ff99","Correct":32,"Choice":32,"RT":614.2349999863654,"Accuracy":1,"Outcome":"-1","Keys":[2115.449999982957],"TotalKeys":1,"Block":1,"Trial":16,"Robot":3,"Valence":"Lose","Action":"Go","Sham":0,"Color":"blue","trial_type":"pit-trial","trial_index":31,"time_elapsed":225449,"internal_node_id":"0.0-20.0","task_version":"test-retest-t3"},{"Rune":"rune_05_ior","Hex":"#ffcc3399","Correct":-1,"Choice":-1,"RT":-1,"Accuracy":1,"Outcome":"+10","Keys":[],"TotalKeys":0,"Block":1,"Trial":17,"Robot":2,"Valence":"Win","Action":"No-Go","Sham":0,"Color":"yellow","trial_type":"pit-trial","trial_index":32,"time_elapsed":229453,"internal_node_id":"0.0-21.0","task_version":"test-retest-t3"},{"Rune":"rune_05_tiwaz","Hex":"#3366ff99","Correct":32,"Choice":32,"RT":484.230000001844,"Accuracy":1,"Outcome":"-1","Keys":[1985.660000005737],"TotalKeys":1,"Block":1,"Trial":18,"Robot":3,"Valence":"Lose","Action":"Go","Sham":0,"Color":"blue","trial_type":"pit-trial","trial_index":33,"time_elapsed":232440,"internal_node_id":"0.0-22.0","task_version":"test-retest-t3"},{"Rune":"rune_05_jeran","Hex":"#ffcc3399","Correct":32,"Choice":32,"RT":550.1149999909103,"Accuracy":1,"Outcome":"+10","Keys":[2051.809999975376],"TotalKeys":1,"Block":1,"Trial":19,"Robot":1,"Valence":"Win","Action":"Go","Sham":0,"Color":"yellow","trial_type":"pit-trial","trial_index":34,"time_elapsed":235494,"internal_node_id":"0.0-23.0","task_version":"test-retest-t3"},{"Rune":"rune_05_gebo","Hex":"#3366ff99","Correct":-1,"Choice":-1,"RT":-1,"Accuracy":1,"Outcome":"-1","Keys":[],"TotalKeys":0,"Block":1,"Trial":20,"Robot":4,"Valence":"Lose","Action":"No-Go","Sham":0,"Color":"blue","trial_type":"pit-trial","trial_index":35,"time_elapsed":239499,"internal_node_id":"0.0-24.0","task_version":"test-retest-t3"},{"Rune":"rune_05_jeran","Hex":"#ffcc3399","Correct":32,"Choice":32,"RT":712.1899999910966,"Accuracy":1,"Outcome":"+10","Keys":[2212.790000019595],"TotalKeys":1,"Block":1,"Trial":21,"Robot":1,"Valence":"Win","Action":"Go","Sham":0,"Color":"yellow","trial_type":"pit-trial","trial_index":36,"time_elapsed":242715,"internal_node_id":"0.0-25.0","task_version":"test-retest-t3"},{"Rune":"rune_05_ior","Hex":"#ffcc3399","Correct":-1,"Choice":-1,"RT":-1,"Accuracy":1,"Outcome":"+10","Keys":[],"TotalKeys":0,"Block":1,"Trial":22,"Robot":2,"Valence":"Win","Action":"No-Go","Sham":0,"Color":"yellow","trial_type":"pit-trial","trial_index":37,"time_elapsed":246720,"internal_node_id":"0.0-26.0","task_version":"test-retest-t3"},{"Rune":"rune_05_tiwaz","Hex":"#3366ff99","Correct":32,"Choice":32,"RT":501.93500000750646,"Accuracy":1,"Outcome":"-1","Keys":[2002.7700000209734],"TotalKeys":1,"Block":1,"Trial":23,"Robot":3,"Valence":"Lose","Action":"Go","Sham":0,"Color":"blue","trial_type":"pit-trial","trial_index":38,"time_elapsed":249725,"internal_node_id":"0.0-27.0","task_version":"test-retest-t3"},{"Rune":"rune_05_gebo","Hex":"#3366ff99","Correct":-1,"Choice":-1,"RT":-1,"Accuracy":1,"Outcome":"-1","Keys":[],"TotalKeys":0,"Block":1,"Trial":24,"Robot":4,"Valence":"Lose","Action":"No-Go","Sham":0,"Color":"blue","trial_type":"pit-trial","trial_index":39,"time_elapsed":253730,"internal_node_id":"0.0-28.0","task_version":"test-retest-t3"},{"Rune":"rune_05_gebo","Hex":"#3366ff99","Correct":-1,"Choice":-1,"RT":-1,"Accuracy":1,"Outcome":"-1","Keys":[],"TotalKeys":0,"Block":1,"Trial":25,"Robot":4,"Valence":"Lose","Action":"No-Go","Sham":0,"Color":"blue","trial_type":"pit-trial","trial_index":40,"time_elapsed":257733,"internal_node_id":"0.0-29.0","task_version":"test-retest-t3"},{"Rune":"rune_05_tiwaz","Hex":"#3366ff99","Correct":32,"Choice":32,"RT":473.06000004755333,"Accuracy":1,"Outcome":"-1","Keys":[1973.859999969136],"TotalKeys":1,"Block":1,"Trial":26,"Robot":3,"Valence":"Lose","Action":"Go","Sham":0,"Color":"blue","trial_type":"pit-trial","trial_index":41,"time_elapsed":260709,"internal_node_id":"0.0-30.0","task_version":"test-retest-t3"},{"Rune":"rune_05_jeran","Hex":"#ffcc3399","Correct":32,"Choice":32,"RT":539.7649999940768,"Accuracy":1,"Outcome":"+10","Keys":[2040.0900000240654],"TotalKeys":1,"Block":1,"Trial":27,"Robot":1,"Valence":"Win","Action":"Go","Sham":0,"Color":"yellow","trial_type":"pit-trial","trial_index":42,"time_elapsed":263752,"internal_node_id":"0.0-31.0","task_version":"test-retest-t3"},{"Rune":"rune_05_ior","Hex":"#ffcc3399","Correct":-1,"Choice":-1,"RT":-1,"Accuracy":1,"Outcome":"+10","Keys":[],"TotalKeys":0,"Block":1,"Trial":28,"Robot":2,"Valence":"Win","Action":"No-Go","Sham":0,"Color":"yellow","trial_type":"pit-trial","trial_index":43,"time_elapsed":267756,"internal_node_id":"0.0-32.0","task_version":"test-retest-t3"},{"Rune":"rune_05_tiwaz","Hex":"#3366ff99","Correct":32,"Choice":32,"RT":635.7900000293739,"Accuracy":1,"Outcome":"-1","Keys":[2137.2349999728613],"TotalKeys":1,"Block":1,"Trial":29,"Robot":3,"Valence":"Lose","Action":"Go","Sham":0,"Color":"blue","trial_type":"pit-trial","trial_index":44,"time_elapsed":270895,"internal_node_id":"0.0-33.0","task_version":"test-retest-t3"},{"Rune":"rune_05_ior","Hex":"#ffcc3399","Correct":-1,"Choice":-1,"RT":-1,"Accuracy":1,"Outcome":"+1","Keys":[],"TotalKeys":0,"Block":1,"Trial":30,"Robot":2,"Valence":"Win","Action":"No-Go","Sham":1,"Color":"yellow","trial_type":"pit-trial","trial_index":45,"time_elapsed":274900,"internal_node_id":"0.0-34.0","task_version":"test-retest-t3"},{"Rune":"rune_05_jeran","Hex":"#ffcc3399","Correct":32,"Choice":32,"RT":694.954999955371,"Accuracy":1,"Outcome":"+1","Keys":[2196.2749999947846],"TotalKeys":1,"Block":1,"Trial":31,"Robot":1,"Valence":"Win","Action":"Go","Sham":1,"Color":"yellow","trial_type":"pit-trial","trial_index":46,"time_elapsed":278099,"internal_node_id":"0.0-35.0","task_version":"test-retest-t3"},{"Rune":"rune_05_gebo","Hex":"#3366ff99","Correct":-1,"Choice":-1,"RT":-1,"Accuracy":1,"Outcome":"-1","Keys":[],"TotalKeys":0,"Block":1,"Trial":32,"Robot":4,"Valence":"Lose","Action":"No-Go","Sham":0,"Color":"blue","trial_type":"pit-trial","trial_index":47,"time_elapsed":282104,"internal_node_id":"0.0-36.0","task_version":"test-retest-t3"},{"Rune":"rune_05_tiwaz","Hex":"#3366ff99","Correct":32,"Choice":32,"RT":548.7049999646842,"Accuracy":1,"Outcome":"-10","Keys":[2050.3700000117533],"TotalKeys":1,"Block":1,"Trial":33,"Robot":3,"Valence":"Lose","Action":"Go","Sham":1,"Color":"blue","trial_type":"pit-trial","trial_index":48,"time_elapsed":285157,"internal_node_id":"0.0-37.0","task_version":"test-retest-t3"},{"Rune":"rune_05_gebo","Hex":"#3366ff99","Correct":-1,"Choice":-1,"RT":-1,"Accuracy":1,"Outcome":"-10","Keys":[],"TotalKeys":0,"Block":1,"Trial":34,"Robot":4,"Valence":"Lose","Action":"No-Go","Sham":1,"Color":"blue","trial_type":"pit-trial","trial_index":49,"time_elapsed":289162,"internal_node_id":"0.0-38.0","task_version":"test-retest-t3"},{"Rune":"rune_05_ior","Hex":"#ffcc3399","Correct":-1,"Choice":-1,"RT":-1,"Accuracy":1,"Outcome":"+10","Keys":[],"TotalKeys":0,"Block":1,"Trial":35,"Robot":2,"Valence":"Win","Action":"No-Go","Sham":0,"Color":"yellow","trial_type":"pit-trial","trial_index":50,"time_elapsed":293166,"internal_node_id":"0.0-39.0","task_version":"test-retest-t3"},{"Rune":"rune_05_jeran","Hex":"#ffcc3399","Correct":32,"Choice":32,"RT":767.0100000104867,"Accuracy":1,"Outcome":"+10","Keys":[2267.330000002403],"TotalKeys":1,"Block":1,"Trial":36,"Robot":1,"Valence":"Win","Action":"Go","Sham":0,"Color":"yellow","trial_type":"pit-trial","trial_index":51,"time_elapsed":296436,"internal_node_id":"0.0-40.0","task_version":"test-retest-t3"},{"Rune":"rune_05_ior","Hex":"#ffcc3399","Correct":-1,"Choice":-1,"RT":-1,"Accuracy":1,"Outcome":"+10","Keys":[],"TotalKeys":0,"Block":1,"Trial":37,"Robot":2,"Valence":"Win","Action":"No-Go","Sham":0,"Color":"yellow","trial_type":"pit-trial","trial_index":52,"time_elapsed":300439,"internal_node_id":"0.0-41.0","task_version":"test-retest-t3"},{"Rune":"rune_05_jeran","Hex":"#ffcc3399","Correct":32,"Choice":32,"RT":558.1149999634363,"Accuracy":1,"Outcome":"+10","Keys":[2058.340000046883],"TotalKeys":1,"Block":1,"Trial":38,"Robot":1,"Valence":"Win","Action":"Go","Sham":0,"Color":"yellow","trial_type":"pit-trial","trial_index":53,"time_elapsed":303500,"internal_node_id":"0.0-42.0","task_version":"test-retest-t3"},{"Rune":"rune_05_tiwaz","Hex":"#3366ff99","Correct":32,"Choice":32,"RT":356.45499994279817,"Accuracy":1,"Outcome":"-1","Keys":[1858.3750000107102],"TotalKeys":1,"Block":1,"Trial":39,"Robot":3,"Valence":"Lose","Action":"Go","Sham":0,"Color":"blue","trial_type":"pit-trial","trial_index":54,"time_elapsed":306362,"internal_node_id":"0.0-43.0","task_version":"test-retest-t3"},{"Rune":"rune_05_gebo","Hex":"#3366ff99","Correct":-1,"Choice":-1,"RT":-1,"Accuracy":1,"Outcome":"-1","Keys":[],"TotalKeys":0,"Block":1,"Trial":40,"Robot":4,"Valence":"Lose","Action":"No-Go","Sham":0,"Color":"blue","trial_type":"pit-trial","trial_index":55,"time_elapsed":310367,"internal_node_id":"0.0-44.0","task_version":"test-retest-t3"},{"Rune":"rune_05_gebo","Hex":"#3366ff99","Correct":-1,"Choice":-1,"RT":-1,"Accuracy":1,"Outcome":"-10","Keys":[],"TotalKeys":0,"Block":1,"Trial":41,"Robot":4,"Valence":"Lose","Action":"No-Go","Sham":1,"Color":"blue","trial_type":"pit-trial","trial_index":56,"time_elapsed":314371,"internal_node_id":"0.0-45.0","task_version":"test-retest-t3"},{"Rune":"rune_05_ior","Hex":"#ffcc3399","Correct":-1,"Choice":-1,"RT":-1,"Accuracy":1,"Outcome":"+10","Keys":[],"TotalKeys":0,"Block":1,"Trial":42,"Robot":2,"Valence":"Win","Action":"No-Go","Sham":0,"Color":"yellow","trial_type":"pit-trial","trial_index":57,"time_elapsed":318374,"internal_node_id":"0.0-46.0","task_version":"test-retest-t3"},{"Rune":"rune_05_tiwaz","Hex":"#3366ff99","Correct":32,"Choice":32,"RT":1008.9450000086799,"Accuracy":1,"Outcome":"-1","Keys":[2509.93500003824],"TotalKeys":1,"Block":1,"Trial":43,"Robot":3,"Valence":"Lose","Action":"Go","Sham":0,"Color":"blue","trial_type":"pit-trial","trial_index":58,"time_elapsed":321887,"internal_node_id":"0.0-47.0","task_version":"test-retest-t3"},{"Rune":"rune_05_jeran","Hex":"#ffcc3399","Correct":32,"Choice":32,"RT":399.2699999944307,"Accuracy":1,"Outcome":"+10","Keys":[1899.9499999918044],"TotalKeys":1,"Block":1,"Trial":44,"Robot":1,"Valence":"Win","Action":"Go","Sham":0,"Color":"yellow","trial_type":"pit-trial","trial_index":59,"time_elapsed":324791,"internal_node_id":"0.0-48.0","task_version":"test-retest-t3"},{"Rune":"rune_05_ior","Hex":"#ffcc3399","Correct":-1,"Choice":-1,"RT":-1,"Accuracy":1,"Outcome":"+10","Keys":[],"TotalKeys":0,"Block":1,"Trial":45,"Robot":2,"Valence":"Win","Action":"No-Go","Sham":0,"Color":"yellow","trial_type":"pit-trial","trial_index":60,"time_elapsed":328796,"internal_node_id":"0.0-49.0","task_version":"test-retest-t3"},{"Rune":"rune_05_gebo","Hex":"#3366ff99","Correct":-1,"Choice":-1,"RT":-1,"Accuracy":1,"Outcome":"-1","Keys":[],"TotalKeys":0,"Block":1,"Trial":46,"Robot":4,"Valence":"Lose","Action":"No-Go","Sham":0,"Color":"blue","trial_type":"pit-trial","trial_index":61,"time_elapsed":332799,"internal_node_id":"0.0-50.0","task_version":"test-retest-t3"},{"Rune":"rune_05_jeran","Hex":"#ffcc3399","Correct":32,"Choice":32,"RT":620.7949999952689,"Accuracy":1,"Outcome":"+10","Keys":[2121.0250000003725],"TotalKeys":1,"Block":1,"Trial":47,"Robot":1,"Valence":"Win","Action":"Go","Sham":0,"Color":"yellow","trial_type":"pit-trial","trial_index":62,"time_elapsed":335923,"internal_node_id":"0.0-51.0","task_version":"test-retest-t3"},{"Rune":"rune_05_tiwaz","Hex":"#3366ff99","Correct":32,"Choice":32,"RT":492.4650000175461,"Accuracy":1,"Outcome":"-1","Keys":[1993.4350000112318],"TotalKeys":1,"Block":1,"Trial":48,"Robot":3,"Valence":"Lose","Action":"Go","Sham":0,"Color":"blue","trial_type":"pit-trial","trial_index":63,"time_elapsed":338919,"internal_node_id":"0.0-52.0","task_version":"test-retest-t3"},{"Rune":"rune_05_jeran","Hex":"#ffcc3399","Correct":32,"Choice":32,"RT":550.4699999582954,"Accuracy":1,"Outcome":"+10","Keys":[2051.709999970626],"TotalKeys":1,"Block":1,"Trial":49,"Robot":1,"Valence":"Win","Action":"Go","Sham":0,"Color":"yellow","trial_type":"pit-trial","trial_index":64,"time_elapsed":341973,"internal_node_id":"0.0-53.0","task_version":"test-retest-t3"},{"Rune":"rune_05_gebo","Hex":"#3366ff99","Correct":-1,"Choice":-1,"RT":-1,"Accuracy":1,"Outcome":"-1","Keys":[],"TotalKeys":0,"Block":1,"Trial":50,"Robot":4,"Valence":"Lose","Action":"No-Go","Sham":0,"Color":"blue","trial_type":"pit-trial","trial_index":65,"time_elapsed":345977,"internal_node_id":"0.0-54.0","task_version":"test-retest-t3"},{"Rune":"rune_05_ior","Hex":"#ffcc3399","Correct":-1,"Choice":-1,"RT":-1,"Accuracy":1,"Outcome":"+10","Keys":[],"TotalKeys":0,"Block":1,"Trial":51,"Robot":2,"Valence":"Win","Action":"No-Go","Sham":0,"Color":"yellow","trial_type":"pit-trial","trial_index":66,"time_elapsed":349981,"internal_node_id":"0.0-55.0","task_version":"test-retest-t3"},{"Rune":"rune_05_tiwaz","Hex":"#3366ff99","Correct":32,"Choice":32,"RT":413.4499999927357,"Accuracy":1,"Outcome":"-1","Keys":[1914.5700000226498],"TotalKeys":1,"Block":1,"Trial":52,"Robot":3,"Valence":"Lose","Action":"Go","Sham":0,"Color":"blue","trial_type":"pit-trial","trial_index":67,"time_elapsed":352898,"internal_node_id":"0.0-56.0","task_version":"test-retest-t3"},{"Rune":"rune_05_gebo","Hex":"#3366ff99","Correct":-1,"Choice":-1,"RT":-1,"Accuracy":1,"Outcome":"-1","Keys":[],"TotalKeys":0,"Block":1,"Trial":53,"Robot":4,"Valence":"Lose","Action":"No-Go","Sham":0,"Color":"blue","trial_type":"pit-trial","trial_index":68,"time_elapsed":356902,"internal_node_id":"0.0-57.0","task_version":"test-retest-t3"},{"Rune":"rune_05_jeran","Hex":"#ffcc3399","Correct":32,"Choice":32,"RT":488.34999999962747,"Accuracy":1,"Outcome":"+1","Keys":[1989.380000042729],"TotalKeys":1,"Block":1,"Trial":54,"Robot":1,"Valence":"Win","Action":"Go","Sham":1,"Color":"yellow","trial_type":"pit-trial","trial_index":69,"time_elapsed":359898,"internal_node_id":"0.0-58.0","task_version":"test-retest-t3"},{"Rune":"rune_05_tiwaz","Hex":"#3366ff99","Correct":32,"Choice":32,"RT":726.0949999908917,"Accuracy":1,"Outcome":"-1","Keys":[2228.899999987334],"TotalKeys":1,"Block":1,"Trial":55,"Robot":3,"Valence":"Lose","Action":"Go","Sham":0,"Color":"blue","trial_type":"pit-trial","trial_index":70,"time_elapsed":363129,"internal_node_id":"0.0-59.0","task_version":"test-retest-t3"},{"Rune":"rune_05_ior","Hex":"#ffcc3399","Correct":-1,"Choice":-1,"RT":-1,"Accuracy":1,"Outcome":"+10","Keys":[],"TotalKeys":0,"Block":1,"Trial":56,"Robot":2,"Valence":"Win","Action":"No-Go","Sham":0,"Color":"yellow","trial_type":"pit-trial","trial_index":71,"time_elapsed":367131,"internal_node_id":"0.0-60.0","task_version":"test-retest-t3"},{"Rune":"rune_05_gebo","Hex":"#3366ff99","Correct":-1,"Choice":-1,"RT":-1,"Accuracy":1,"Outcome":"-1","Keys":[],"TotalKeys":0,"Block":1,"Trial":57,"Robot":4,"Valence":"Lose","Action":"No-Go","Sham":0,"Color":"blue","trial_type":"pit-trial","trial_index":72,"time_elapsed":371136,"internal_node_id":"0.0-61.0","task_version":"test-retest-t3"},{"Rune":"rune_05_jeran","Hex":"#ffcc3399","Correct":32,"Choice":32,"RT":472.38500003004447,"Accuracy":1,"Outcome":"+10","Keys":[1973.6249999841675],"TotalKeys":1,"Block":1,"Trial":58,"Robot":1,"Valence":"Win","Action":"Go","Sham":0,"Color":"yellow","trial_type":"pit-trial","trial_index":73,"time_elapsed":374112,"internal_node_id":"0.0-62.0","task_version":"test-retest-t3"},{"Rune":"rune_05_tiwaz","Hex":"#3366ff99","Correct":32,"Choice":32,"RT":468.6550000333227,"Accuracy":1,"Outcome":"-10","Keys":[1969.779999984894],"TotalKeys":1,"Block":1,"Trial":59,"Robot":3,"Valence":"Lose","Action":"Go","Sham":1,"Color":"blue","trial_type":"pit-trial","trial_index":74,"time_elapsed":377085,"internal_node_id":"0.0-63.0","task_version":"test-retest-t3"},{"Rune":"rune_05_ior","Hex":"#ffcc3399","Correct":-1,"Choice":-1,"RT":-1,"Accuracy":1,"Outcome":"+1","Keys":[],"TotalKeys":0,"Block":1,"Trial":60,"Robot":2,"Valence":"Win","Action":"No-Go","Sham":1,"Color":"yellow","trial_type":"pit-trial","trial_index":75,"time_elapsed":381090,"internal_node_id":"0.0-64.0","task_version":"test-retest-t3"},{"value":false,"trial_type":"call-function","trial_index":76,"time_elapsed":381092,"internal_node_id":"0.0-65.0","task_version":"test-retest-t3"},{"view_history":"[{\"page_index\":0,\"viewing_time\":269070.6599999685},{\"page_index\":1,\"viewing_time\":421.95500002708286}]","rt":269493.03000001237,"trial_type":"pit-instructions","trial_index":77,"time_elapsed":650586,"internal_node_id":"0.0-66.0","task_version":"test-retest-t3"},{"Rune":"rune_05_tiwaz","Hex":"#3366ff99","Correct":32,"Choice":32,"RT":451.4650000492111,"Accuracy":1,"Outcome":"-1","Keys":[1952.2200000355951],"TotalKeys":1,"Block":1,"Trial":61,"Robot":3,"Valence":"Lose","Action":"Go","Sham":0,"Color":"blue","trial_type":"pit-trial","trial_index":78,"time_elapsed":653543,"internal_node_id":"0.0-67.0","task_version":"test-retest-t3"},{"Rune":"rune_05_ior","Hex":"#ffcc3399","Correct":-1,"Choice":-1,"RT":-1,"Accuracy":1,"Outcome":"+10","Keys":[],"TotalKeys":0,"Block":1,"Trial":62,"Robot":2,"Valence":"Win","Action":"No-Go","Sham":0,"Color":"yellow","trial_type":"pit-trial","trial_index":79,"time_elapsed":657547,"internal_node_id":"0.0-68.0","task_version":"test-retest-t3"},{"Rune":"rune_05_gebo","Hex":"#3366ff99","Correct":-1,"Choice":-1,"RT":-1,"Accuracy":1,"Outcome":"-1","Keys":[],"TotalKeys":0,"Block":1,"Trial":63,"Robot":4,"Valence":"Lose","Action":"No-Go","Sham":0,"Color":"blue","trial_type":"pit-trial","trial_index":80,"time_elapsed":661552,"internal_node_id":"0.0-69.0","task_version":"test-retest-t3"},{"Rune":"rune_05_jeran","Hex":"#ffcc3399","Correct":32,"Choice":32,"RT":456.9999999948777,"Accuracy":1,"Outcome":"+10","Keys":[1958.5050000459887],"TotalKeys":1,"Block":1,"Trial":64,"Robot":1,"Valence":"Win","Action":"Go","Sham":0,"Color":"yellow","trial_type":"pit-trial","trial_index":81,"time_elapsed":664513,"internal_node_id":"0.0-70.0","task_version":"test-retest-t3"},{"Rune":"rune_05_jeran","Hex":"#ffcc3399","Correct":32,"Choice":32,"RT":608.1700000213459,"Accuracy":1,"Outcome":"+10","Keys":[2110.01500004204],"TotalKeys":1,"Block":1,"Trial":65,"Robot":1,"Valence":"Win","Action":"Go","Sham":0,"Color":"yellow","trial_type":"pit-trial","trial_index":82,"time_elapsed":667626,"internal_node_id":"0.0-71.0","task_version":"test-retest-t3"},{"Rune":"rune_05_tiwaz","Hex":"#3366ff99","Correct":32,"Choice":32,"RT":604.4550000224262,"Accuracy":1,"Outcome":"-1","Keys":[2106.3849999918602],"TotalKeys":1,"Block":1,"Trial":66,"Robot":3,"Valence":"Lose","Action":"Go","Sham":0,"Color":"blue","trial_type":"pit-trial","trial_index":83,"time_elapsed":670736,"internal_node_id":"0.0-72.0","task_version":"test-retest-t3"},{"Rune":"rune_05_gebo","Hex":"#3366ff99","Correct":-1,"Choice":-1,"RT":-1,"Accuracy":1,"Outcome":"-1","Keys":[],"TotalKeys":0,"Block":1,"Trial":67,"Robot":4,"Valence":"Lose","Action":"No-Go","Sham":0,"Color":"blue","trial_type":"pit-trial","trial_index":84,"time_elapsed":674741,"internal_node_id":"0.0-73.0","task_version":"test-retest-t3"},{"Rune":"rune_05_ior","Hex":"#ffcc3399","Correct":-1,"Choice":32,"RT":495.43499998981133,"Accuracy":0,"Outcome":"+10","Keys":[1996.3949999655597],"TotalKeys":1,"Block":1,"Trial":68,"Robot":2,"Valence":"Win","Action":"No-Go","Sham":1,"Color":"yellow","trial_type":"pit-trial","trial_index":85,"time_elapsed":677740,"internal_node_id":"0.0-74.0","task_version":"test-retest-t3"},{"Rune":"rune_05_gebo","Hex":"#3366ff99","Correct":-1,"Choice":-1,"RT":-1,"Accuracy":1,"Outcome":"-10","Keys":[],"TotalKeys":0,"Block":1,"Trial":69,"Robot":4,"Valence":"Lose","Action":"No-Go","Sham":1,"Color":"blue","trial_type":"pit-trial","trial_index":86,"time_elapsed":681746,"internal_node_id":"0.0-75.0","task_version":"test-retest-t3"},{"Rune":"rune_05_tiwaz","Hex":"#3366ff99","Correct":32,"Choice":32,"RT":407.3700000299141,"Accuracy":1,"Outcome":"-10","Keys":[1907.4499999987893],"TotalKeys":1,"Block":1,"Trial":70,"Robot":3,"Valence":"Lose","Action":"Go","Sham":1,"Color":"blue","trial_type":"pit-trial","trial_index":87,"time_elapsed":684656,"internal_node_id":"0.0-76.0","task_version":"test-retest-t3"},{"Rune":"rune_05_ior","Hex":"#ffcc3399","Correct":-1,"Choice":-1,"RT":-1,"Accuracy":1,"Outcome":"+10","Keys":[],"TotalKeys":0,"Block":1,"Trial":71,"Robot":2,"Valence":"Win","Action":"No-Go","Sham":0,"Color":"yellow","trial_type":"pit-trial","trial_index":88,"time_elapsed":688659,"internal_node_id":"0.0-77.0","task_version":"test-retest-t3"},{"Rune":"rune_05_jeran","Hex":"#ffcc3399","Correct":32,"Choice":32,"RT":698.9250000333413,"Accuracy":1,"Outcome":"+1","Keys":[2199.159999960102],"TotalKeys":1,"Block":1,"Trial":72,"Robot":1,"Valence":"Win","Action":"Go","Sham":1,"Color":"yellow","trial_type":"pit-trial","trial_index":89,"time_elapsed":691862,"internal_node_id":"0.0-78.0","task_version":"test-retest-t3"},{"Rune":"rune_05_gebo","Hex":"#3366ff99","Correct":-1,"Choice":-1,"RT":-1,"Accuracy":1,"Outcome":"-1","Keys":[],"TotalKeys":0,"Block":1,"Trial":73,"Robot":4,"Valence":"Lose","Action":"No-Go","Sham":0,"Color":"blue","trial_type":"pit-trial","trial_index":90,"time_elapsed":695865,"internal_node_id":"0.0-79.0","task_version":"test-retest-t3"},{"Rune":"rune_05_ior","Hex":"#ffcc3399","Correct":-1,"Choice":-1,"RT":-1,"Accuracy":1,"Outcome":"+10","Keys":[],"TotalKeys":0,"Block":1,"Trial":74,"Robot":2,"Valence":"Win","Action":"No-Go","Sham":0,"Color":"yellow","trial_type":"pit-trial","trial_index":91,"time_elapsed":699869,"internal_node_id":"0.0-80.0","task_version":"test-retest-t3"},{"Rune":"rune_05_tiwaz","Hex":"#3366ff99","Correct":32,"Choice":32,"RT":694.2600000184029,"Accuracy":1,"Outcome":"-1","Keys":[2194.7849999996834],"TotalKeys":1,"Block":1,"Trial":75,"Robot":3,"Valence":"Lose","Action":"Go","Sham":0,"Color":"blue","trial_type":"pit-trial","trial_index":92,"time_elapsed":703067,"internal_node_id":"0.0-81.0","task_version":"test-retest-t3"},{"Rune":"rune_05_jeran","Hex":"#ffcc3399","Correct":32,"Choice":-1,"RT":-1,"Accuracy":0,"Outcome":"+1","Keys":[3742.614999995567],"TotalKeys":1,"Block":1,"Trial":76,"Robot":1,"Valence":"Win","Action":"Go","Sham":0,"Color":"yellow","trial_type":"pit-trial","trial_index":93,"time_elapsed":707070,"internal_node_id":"0.0-82.0","task_version":"test-retest-t3"},{"Rune":"rune_05_tiwaz","Hex":"#3366ff99","Correct":32,"Choice":32,"RT":1153.8749999599531,"Accuracy":1,"Outcome":"-1","Keys":[2655.284999986179],"TotalKeys":1,"Block":1,"Trial":77,"Robot":3,"Valence":"Lose","Action":"Go","Sham":0,"Color":"blue","trial_type":"pit-trial","trial_index":94,"time_elapsed":710728,"internal_node_id":"0.0-83.0","task_version":"test-retest-t3"},{"Rune":"rune_05_gebo","Hex":"#3366ff99","Correct":-1,"Choice":-1,"RT":-1,"Accuracy":1,"Outcome":"-1","Keys":[],"TotalKeys":0,"Block":1,"Trial":78,"Robot":4,"Valence":"Lose","Action":"No-Go","Sham":0,"Color":"blue","trial_type":"pit-trial","trial_index":95,"time_elapsed":714732,"internal_node_id":"0.0-84.0","task_version":"test-retest-t3"},{"Rune":"rune_05_jeran","Hex":"#ffcc3399","Correct":32,"Choice":32,"RT":507.9699999769218,"Accuracy":1,"Outcome":"+10","Keys":[2009.1649999958463],"TotalKeys":1,"Block":1,"Trial":79,"Robot":1,"Valence":"Win","Action":"Go","Sham":0,"Color":"yellow","trial_type":"pit-trial","trial_index":96,"time_elapsed":717744,"internal_node_id":"0.0-85.0","task_version":"test-retest-t3"},{"Rune":"rune_05_ior","Hex":"#ffcc3399","Correct":-1,"Choice":-1,"RT":-1,"Accuracy":1,"Outcome":"+10","Keys":[],"TotalKeys":0,"Block":1,"Trial":80,"Robot":2,"Valence":"Win","Action":"No-Go","Sham":0,"Color":"yellow","trial_type":"pit-trial","trial_index":97,"time_elapsed":721749,"internal_node_id":"0.0-86.0","task_version":"test-retest-t3"},{"Rune":"rune_05_gebo","Hex":"#3366ff99","Correct":-1,"Choice":-1,"RT":-1,"Accuracy":1,"Outcome":"-1","Keys":[],"TotalKeys":0,"Block":1,"Trial":81,"Robot":4,"Valence":"Lose","Action":"No-Go","Sham":0,"Color":"blue","trial_type":"pit-trial","trial_index":98,"time_elapsed":725754,"internal_node_id":"0.0-87.0","task_version":"test-retest-t3"},{"Rune":"rune_05_jeran","Hex":"#ffcc3399","Correct":32,"Choice":32,"RT":789.7449999582022,"Accuracy":1,"Outcome":"+10","Keys":[2291.0699999774806],"TotalKeys":1,"Block":1,"Trial":82,"Robot":1,"Valence":"Win","Action":"Go","Sham":0,"Color":"yellow","trial_type":"pit-trial","trial_index":99,"time_elapsed":729047,"internal_node_id":"0.0-88.0","task_version":"test-retest-t3"},{"Rune":"rune_05_tiwaz","Hex":"#3366ff99","Correct":32,"Choice":32,"RT":646.9599999836646,"Accuracy":1,"Outcome":"-10","Keys":[2148.1849999981932],"TotalKeys":1,"Block":1,"Trial":83,"Robot":3,"Valence":"Lose","Action":"Go","Sham":1,"Color":"blue","trial_type":"pit-trial","trial_index":100,"time_elapsed":732198,"internal_node_id":"0.0-89.0","task_version":"test-retest-t3"},{"Rune":"rune_05_ior","Hex":"#ffcc3399","Correct":-1,"Choice":-1,"RT":-1,"Accuracy":1,"Outcome":"+10","Keys":[],"TotalKeys":0,"Block":1,"Trial":84,"Robot":2,"Valence":"Win","Action":"No-Go","Sham":0,"Color":"yellow","trial_type":"pit-trial","trial_index":101,"time_elapsed":736203,"internal_node_id":"0.0-90.0","task_version":"test-retest-t3"},{"Rune":"rune_05_jeran","Hex":"#ffcc3399","Correct":32,"Choice":32,"RT":1379.0249999728985,"Accuracy":1,"Outcome":"+10","Keys":[2880.1349999848753],"TotalKeys":1,"Block":1,"Trial":85,"Robot":1,"Valence":"Win","Action":"Go","Sham":0,"Color":"yellow","trial_type":"pit-trial","trial_index":102,"time_elapsed":740087,"internal_node_id":"0.0-91.0","task_version":"test-retest-t3"},{"Rune":"rune_05_ior","Hex":"#ffcc3399","Correct":-1,"Choice":-1,"RT":-1,"Accuracy":1,"Outcome":"+10","Keys":[],"TotalKeys":0,"Block":1,"Trial":86,"Robot":2,"Valence":"Win","Action":"No-Go","Sham":0,"Color":"yellow","trial_type":"pit-trial","trial_index":103,"time_elapsed":744091,"internal_node_id":"0.0-92.0","task_version":"test-retest-t3"},{"Rune":"rune_05_gebo","Hex":"#3366ff99","Correct":-1,"Choice":-1,"RT":-1,"Accuracy":1,"Outcome":"-1","Keys":[],"TotalKeys":0,"Block":1,"Trial":87,"Robot":4,"Valence":"Lose","Action":"No-Go","Sham":0,"Color":"blue","trial_type":"pit-trial","trial_index":104,"time_elapsed":748096,"internal_node_id":"0.0-93.0","task_version":"test-retest-t3"},{"Rune":"rune_05_tiwaz","Hex":"#3366ff99","Correct":32,"Choice":-1,"RT":-1,"Accuracy":0,"Outcome":"-10","Keys":[3244.520000007469],"TotalKeys":1,"Block":1,"Trial":88,"Robot":3,"Valence":"Lose","Action":"Go","Sham":0,"Color":"blue","trial_type":"pit-trial","trial_index":105,"time_elapsed":752100,"internal_node_id":"0.0-94.0","task_version":"test-retest-t3"},{"Rune":"rune_05_gebo","Hex":"#3366ff99","Correct":-1,"Choice":-1,"RT":-1,"Accuracy":1,"Outcome":"-1","Keys":[],"TotalKeys":0,"Block":1,"Trial":89,"Robot":4,"Valence":"Lose","Action":"No-Go","Sham":0,"Color":"blue","trial_type":"pit-trial","trial_index":106,"time_elapsed":756103,"internal_node_id":"0.0-95.0","task_version":"test-retest-t3"},{"Rune":"rune_05_ior","Hex":"#ffcc3399","Correct":-1,"Choice":-1,"RT":-1,"Accuracy":1,"Outcome":"+10","Keys":[],"TotalKeys":0,"Block":1,"Trial":90,"Robot":2,"Valence":"Win","Action":"No-Go","Sham":0,"Color":"yellow","trial_type":"pit-trial","trial_index":107,"time_elapsed":760109,"internal_node_id":"0.0-96.0","task_version":"test-retest-t3"},{"Rune":"rune_05_jeran","Hex":"#ffcc3399","Correct":32,"Choice":32,"RT":448.35999998031184,"Accuracy":1,"Outcome":"+1","Keys":[1949.8949999688193],"TotalKeys":1,"Block":1,"Trial":91,"Robot":1,"Valence":"Win","Action":"Go","Sham":1,"Color":"yellow","trial_type":"pit-trial","trial_index":108,"time_elapsed":763062,"internal_node_id":"0.0-97.0","task_version":"test-retest-t3"},{"Rune":"rune_05_tiwaz","Hex":"#3366ff99","Correct":32,"Choice":32,"RT":285.10999999707565,"Accuracy":1,"Outcome":"-1","Keys":[1785.8199999900535],"TotalKeys":1,"Block":1,"Trial":92,"Robot":3,"Valence":"Lose","Action":"Go","Sham":0,"Color":"blue","trial_type":"pit-trial","trial_index":109,"time_elapsed":765853,"internal_node_id":"0.0-98.0","task_version":"test-retest-t3"},{"Rune":"rune_05_jeran","Hex":"#ffcc3399","Correct":32,"Choice":32,"RT":952.7300000190735,"Accuracy":1,"Outcome":"+10","Keys":[2453.2800000160933],"TotalKeys":1,"Block":1,"Trial":93,"Robot":1,"Valence":"Win","Action":"Go","Sham":0,"Color":"yellow","trial_type":"pit-trial","trial_index":110,"time_elapsed":769309,"internal_node_id":"0.0-99.0","task_version":"test-retest-t3"},{"Rune":"rune_05_ior","Hex":"#ffcc3399","Correct":-1,"Choice":-1,"RT":-1,"Accuracy":1,"Outcome":"+10","Keys":[],"TotalKeys":0,"Block":1,"Trial":94,"Robot":2,"Valence":"Win","Action":"No-Go","Sham":0,"Color":"yellow","trial_type":"pit-trial","trial_index":111,"time_elapsed":773315,"internal_node_id":"0.0-100.0","task_version":"test-retest-t3"},{"Rune":"rune_05_gebo","Hex":"#3366ff99","Correct":-1,"Choice":-1,"RT":-1,"Accuracy":1,"Outcome":"-1","Keys":[],"TotalKeys":0,"Block":1,"Trial":95,"Robot":4,"Valence":"Lose","Action":"No-Go","Sham":0,"Color":"blue","trial_type":"pit-trial","trial_index":112,"time_elapsed":777318,"internal_node_id":"0.0-101.0","task_version":"test-retest-t3"},{"Rune":"rune_05_tiwaz","Hex":"#3366ff99","Correct":32,"Choice":32,"RT":503.4299999824725,"Accuracy":1,"Outcome":"-1","Keys":[2004.804999975022],"TotalKeys":1,"Block":1,"Trial":96,"Robot":3,"Valence":"Lose","Action":"Go","Sham":0,"Color":"blue","trial_type":"pit-trial","trial_index":113,"time_elapsed":780326,"internal_node_id":"0.0-102.0","task_version":"test-retest-t3"},{"Rune":"rune_05_ior","Hex":"#ffcc3399","Correct":-1,"Choice":-1,"RT":-1,"Accuracy":1,"Outcome":"+1","Keys":[],"TotalKeys":0,"Block":1,"Trial":97,"Robot":2,"Valence":"Win","Action":"No-Go","Sham":1,"Color":"yellow","trial_type":"pit-trial","trial_index":114,"time_elapsed":784331,"internal_node_id":"0.0-103.0","task_version":"test-retest-t3"},{"Rune":"rune_05_tiwaz","Hex":"#3366ff99","Correct":32,"Choice":32,"RT":501.9849999807775,"Accuracy":1,"Outcome":"-1","Keys":[2002.6150000048801],"TotalKeys":1,"Block":1,"Trial":98,"Robot":3,"Valence":"Lose","Action":"Go","Sham":0,"Color":"blue","trial_type":"pit-trial","trial_index":115,"time_elapsed":787336,"internal_node_id":"0.0-104.0","task_version":"test-retest-t3"},{"Rune":"rune_05_gebo","Hex":"#3366ff99","Correct":-1,"Choice":-1,"RT":-1,"Accuracy":1,"Outcome":"-10","Keys":[],"TotalKeys":0,"Block":1,"Trial":99,"Robot":4,"Valence":"Lose","Action":"No-Go","Sham":1,"Color":"blue","trial_type":"pit-trial","trial_index":116,"time_elapsed":791341,"internal_node_id":"0.0-105.0","task_version":"test-retest-t3"},{"Rune":"rune_05_jeran","Hex":"#ffcc3399","Correct":32,"Choice":32,"RT":757.9499999992549,"Accuracy":1,"Outcome":"+10","Keys":[2259.535000019241],"TotalKeys":1,"Block":1,"Trial":100,"Robot":1,"Valence":"Win","Action":"Go","Sham":0,"Color":"yellow","trial_type":"pit-trial","trial_index":117,"time_elapsed":794602,"internal_node_id":"0.0-106.0","task_version":"test-retest-t3"},{"Rune":"rune_05_ior","Hex":"#ffcc3399","Correct":-1,"Choice":-1,"RT":-1,"Accuracy":1,"Outcome":"+10","Keys":[],"TotalKeys":0,"Block":1,"Trial":101,"Robot":2,"Valence":"Win","Action":"No-Go","Sham":0,"Color":"yellow","trial_type":"pit-trial","trial_index":118,"time_elapsed":798605,"internal_node_id":"0.0-107.0","task_version":"test-retest-t3"},{"Rune":"rune_05_tiwaz","Hex":"#3366ff99","Correct":32,"Choice":32,"RT":509.8700000089593,"Accuracy":1,"Outcome":"-1","Keys":[2010.0350000429899],"TotalKeys":1,"Block":1,"Trial":102,"Robot":3,"Valence":"Lose","Action":"Go","Sham":0,"Color":"blue","trial_type":"pit-trial","trial_index":119,"time_elapsed":801617,"internal_node_id":"0.0-108.0","task_version":"test-retest-t3"},{"Rune":"rune_05_jeran","Hex":"#ffcc3399","Correct":32,"Choice":32,"RT":484.82499999227,"Accuracy":1,"Outcome":"+10","Keys":[1986.1399999936111],"TotalKeys":1,"Block":1,"Trial":103,"Robot":1,"Valence":"Win","Action":"Go","Sham":0,"Color":"yellow","trial_type":"pit-trial","trial_index":120,"time_elapsed":804606,"internal_node_id":"0.0-109.0","task_version":"test-retest-t3"},{"Rune":"rune_05_gebo","Hex":"#3366ff99","Correct":-1,"Choice":-1,"RT":-1,"Accuracy":1,"Outcome":"-1","Keys":[],"TotalKeys":0,"Block":1,"Trial":104,"Robot":4,"Valence":"Lose","Action":"No-Go","Sham":0,"Color":"blue","trial_type":"pit-trial","trial_index":121,"time_elapsed":808611,"internal_node_id":"0.0-110.0","task_version":"test-retest-t3"},{"Rune":"rune_05_jeran","Hex":"#ffcc3399","Correct":32,"Choice":32,"RT":642.5349999917671,"Accuracy":1,"Outcome":"+10","Keys":[2142.779999994673],"TotalKeys":1,"Block":1,"Trial":105,"Robot":1,"Valence":"Win","Action":"Go","Sham":0,"Color":"yellow","trial_type":"pit-trial","trial_index":122,"time_elapsed":811757,"internal_node_id":"0.0-111.0","task_version":"test-retest-t3"},{"Rune":"rune_05_ior","Hex":"#ffcc3399","Correct":-1,"Choice":-1,"RT":-1,"Accuracy":1,"Outcome":"+10","Keys":[],"TotalKeys":0,"Block":1,"Trial":106,"Robot":2,"Valence":"Win","Action":"No-Go","Sham":0,"Color":"yellow","trial_type":"pit-trial","trial_index":123,"time_elapsed":815761,"internal_node_id":"0.0-112.0","task_version":"test-retest-t3"},{"Rune":"rune_05_gebo","Hex":"#3366ff99","Correct":-1,"Choice":-1,"RT":-1,"Accuracy":1,"Outcome":"-1","Keys":[],"TotalKeys":0,"Block":1,"Trial":107,"Robot":4,"Valence":"Lose","Action":"No-Go","Sham":0,"Color":"blue","trial_type":"pit-trial","trial_index":124,"time_elapsed":819765,"internal_node_id":"0.0-113.0","task_version":"test-retest-t3"},{"Rune":"rune_05_tiwaz","Hex":"#3366ff99","Correct":32,"Choice":32,"RT":369.21999999322,"Accuracy":1,"Outcome":"-1","Keys":[1870.5250000348315],"TotalKeys":1,"Block":1,"Trial":108,"Robot":3,"Valence":"Lose","Action":"Go","Sham":0,"Color":"blue","trial_type":"pit-trial","trial_index":125,"time_elapsed":822639,"internal_node_id":"0.0-114.0","task_version":"test-retest-t3"},{"Rune":"rune_05_ior","Hex":"#ffcc3399","Correct":-1,"Choice":-1,"RT":-1,"Accuracy":1,"Outcome":"+10","Keys":[],"TotalKeys":0,"Block":1,"Trial":109,"Robot":2,"Valence":"Win","Action":"No-Go","Sham":0,"Color":"yellow","trial_type":"pit-trial","trial_index":126,"time_elapsed":826642,"internal_node_id":"0.0-115.0","task_version":"test-retest-t3"},{"Rune":"rune_05_tiwaz","Hex":"#3366ff99","Correct":32,"Choice":32,"RT":638.9299999573268,"Accuracy":1,"Outcome":"-10","Keys":[2140.305000008084],"TotalKeys":1,"Block":1,"Trial":110,"Robot":3,"Valence":"Lose","Action":"Go","Sham":1,"Color":"blue","trial_type":"pit-trial","trial_index":127,"time_elapsed":829786,"internal_node_id":"0.0-116.0","task_version":"test-retest-t3"},{"Rune":"rune_05_gebo","Hex":"#3366ff99","Correct":-1,"Choice":-1,"RT":-1,"Accuracy":1,"Outcome":"-1","Keys":[],"TotalKeys":0,"Block":1,"Trial":111,"Robot":4,"Valence":"Lose","Action":"No-Go","Sham":0,"Color":"blue","trial_type":"pit-trial","trial_index":128,"time_elapsed":833790,"internal_node_id":"0.0-117.0","task_version":"test-retest-t3"},{"Rune":"rune_05_jeran","Hex":"#ffcc3399","Correct":32,"Choice":32,"RT":447.69499998074025,"Accuracy":1,"Outcome":"+10","Keys":[1948.7850000150502],"TotalKeys":1,"Block":1,"Trial":112,"Robot":1,"Valence":"Win","Action":"Go","Sham":0,"Color":"yellow","trial_type":"pit-trial","trial_index":129,"time_elapsed":836743,"internal_node_id":"0.0-118.0","task_version":"test-retest-t3"},{"Rune":"rune_05_jeran","Hex":"#ffcc3399","Correct":32,"Choice":32,"RT":416.9850000180304,"Accuracy":1,"Outcome":"+1","Keys":[1917.7400000044145],"TotalKeys":1,"Block":1,"Trial":113,"Robot":1,"Valence":"Win","Action":"Go","Sham":1,"Color":"yellow","trial_type":"pit-trial","trial_index":130,"time_elapsed":839664,"internal_node_id":"0.0-119.0","task_version":"test-retest-t3"},{"Rune":"rune_05_tiwaz","Hex":"#3366ff99","Correct":32,"Choice":32,"RT":762.4150000046939,"Accuracy":1,"Outcome":"-1","Keys":[2263.8549999683164],"TotalKeys":1,"Block":1,"Trial":114,"Robot":3,"Valence":"Lose","Action":"Go","Sham":0,"Color":"blue","trial_type":"pit-trial","trial_index":131,"time_elapsed":842931,"internal_node_id":"0.0-120.0","task_version":"test-retest-t3"},{"Rune":"rune_05_ior","Hex":"#ffcc3399","Correct":-1,"Choice":-1,"RT":-1,"Accuracy":1,"Outcome":"+10","Keys":[],"TotalKeys":0,"Block":1,"Trial":115,"Robot":2,"Valence":"Win","Action":"No-Go","Sham":0,"Color":"yellow","trial_type":"pit-trial","trial_index":132,"time_elapsed":846935,"internal_node_id":"0.0-121.0","task_version":"test-retest-t3"},{"Rune":"rune_05_gebo","Hex":"#3366ff99","Correct":-1,"Choice":-1,"RT":-1,"Accuracy":1,"Outcome":"-1","Keys":[],"TotalKeys":0,"Block":1,"Trial":116,"Robot":4,"Valence":"Lose","Action":"No-Go","Sham":0,"Color":"blue","trial_type":"pit-trial","trial_index":133,"time_elapsed":850940,"internal_node_id":"0.0-122.0","task_version":"test-retest-t3"},{"Rune":"rune_05_ior","Hex":"#ffcc3399","Correct":-1,"Choice":-1,"RT":-1,"Accuracy":1,"Outcome":"+1","Keys":[],"TotalKeys":0,"Block":1,"Trial":117,"Robot":2,"Valence":"Win","Action":"No-Go","Sham":1,"Color":"yellow","trial_type":"pit-trial","trial_index":134,"time_elapsed":854944,"internal_node_id":"0.0-123.0","task_version":"test-retest-t3"},{"Rune":"rune_05_jeran","Hex":"#ffcc3399","Correct":32,"Choice":32,"RT":1325.3499999991618,"Accuracy":1,"Outcome":"+10","Keys":[2826.3349999906495,2971.7299999902025],"TotalKeys":2,"Block":1,"Trial":118,"Robot":1,"Valence":"Win","Action":"Go","Sham":0,"Color":"yellow","trial_type":"pit-trial","trial_index":135,"time_elapsed":858773,"internal_node_id":"0.0-124.0","task_version":"test-retest-t3"},{"Rune":"rune_05_gebo","Hex":"#3366ff99","Correct":-1,"Choice":-1,"RT":-1,"Accuracy":1,"Outcome":"-10","Keys":[],"TotalKeys":0,"Block":1,"Trial":119,"Robot":4,"Valence":"Lose","Action":"No-Go","Sham":1,"Color":"blue","trial_type":"pit-trial","trial_index":136,"time_elapsed":862778,"internal_node_id":"0.0-125.0","task_version":"test-retest-t3"},{"Rune":"rune_05_tiwaz","Hex":"#3366ff99","Correct":32,"Choice":32,"RT":408.0900000408292,"Accuracy":1,"Outcome":"-1","Keys":[1908.8300000294112],"TotalKeys":1,"Block":1,"Trial":120,"Robot":3,"Valence":"Lose","Action":"Go","Sham":0,"Color":"blue","trial_type":"pit-trial","trial_index":137,"time_elapsed":865689,"internal_node_id":"0.0-126.0","task_version":"test-retest-t3"},{"view_history":"[{\"page_index\":0,\"viewing_time\":7869.829999981448},{\"page_index\":1,\"viewing_time\":252.1100000012666},{\"page_index\":2,\"viewing_time\":275.42000001994893}]","rt":8397.724999987986,"trial_type":"pit-instructions","trial_index":138,"time_elapsed":874088,"internal_node_id":"0.0-127.0","task_version":"test-retest-t3"},{"Rune":"rune_06_ehwaz","Hex":"#ffcc3399","Correct":-1,"Choice":32,"RT":764.850000035949,"Accuracy":0,"Outcome":"+1","Keys":[2266.1649999790825],"TotalKeys":1,"Block":2,"Trial":121,"Robot":2,"Valence":"Win","Action":"No-Go","Sham":0,"Color":"yellow","trial_type":"pit-trial","trial_index":139,"time_elapsed":877358,"internal_node_id":"0.0-128.0","task_version":"test-retest-t3"},{"Rune":"rune_06_cweord","Hex":"#ffcc3399","Correct":32,"Choice":32,"RT":493.8700000056997,"Accuracy":1,"Outcome":"+1","Keys":[1994.8000000440516],"TotalKeys":1,"Block":2,"Trial":122,"Robot":1,"Valence":"Win","Action":"Go","Sham":1,"Color":"yellow","trial_type":"pit-trial","trial_index":140,"time_elapsed":880356,"internal_node_id":"0.0-129.0","task_version":"test-retest-t3"},{"Rune":"rune_06_ansuz","Hex":"#3366ff99","Correct":32,"Choice":32,"RT":577.6499999919906,"Accuracy":1,"Outcome":"-1","Keys":[2078.274999978021],"TotalKeys":1,"Block":2,"Trial":123,"Robot":3,"Valence":"Lose","Action":"Go","Sham":0,"Color":"blue","trial_type":"pit-trial","trial_index":141,"time_elapsed":883437,"internal_node_id":"0.0-130.0","task_version":"test-retest-t3"},{"Rune":"rune_06_berkanan","Hex":"#3366ff99","Correct":-1,"Choice":-1,"RT":-1,"Accuracy":1,"Outcome":"-1","Keys":[],"TotalKeys":0,"Block":2,"Trial":124,"Robot":4,"Valence":"Lose","Action":"No-Go","Sham":0,"Color":"blue","trial_type":"pit-trial","trial_index":142,"time_elapsed":887441,"internal_node_id":"0.0-131.0","task_version":"test-retest-t3"},{"Rune":"rune_06_ehwaz","Hex":"#ffcc3399","Correct":-1,"Choice":32,"RT":696.4150000130758,"Accuracy":0,"Outcome":"+10","Keys":[2197.634999989532],"TotalKeys":1,"Block":2,"Trial":125,"Robot":2,"Valence":"Win","Action":"No-Go","Sham":1,"Color":"yellow","trial_type":"pit-trial","trial_index":143,"time_elapsed":890642,"internal_node_id":"0.0-132.0","task_version":"test-retest-t3"},{"Rune":"rune_06_ansuz","Hex":"#3366ff99","Correct":32,"Choice":32,"RT":493.5549999936484,"Accuracy":1,"Outcome":"-1","Keys":[1994.0949999727309],"TotalKeys":1,"Block":2,"Trial":126,"Robot":3,"Valence":"Lose","Action":"Go","Sham":0,"Color":"blue","trial_type":"pit-trial","trial_index":144,"time_elapsed":893639,"internal_node_id":"0.0-133.0","task_version":"test-retest-t3"},{"Rune":"rune_06_berkanan","Hex":"#3366ff99","Correct":-1,"Choice":-1,"RT":-1,"Accuracy":1,"Outcome":"-1","Keys":[],"TotalKeys":0,"Block":2,"Trial":127,"Robot":4,"Valence":"Lose","Action":"No-Go","Sham":0,"Color":"blue","trial_type":"pit-trial","trial_index":145,"time_elapsed":897642,"internal_node_id":"0.0-134.0","task_version":"test-retest-t3"},{"Rune":"rune_06_cweord","Hex":"#ffcc3399","Correct":32,"Choice":-1,"RT":-1,"Accuracy":0,"Outcome":"+1","Keys":[],"TotalKeys":0,"Block":2,"Trial":128,"Robot":1,"Valence":"Win","Action":"Go","Sham":0,"Color":"yellow","trial_type":"pit-trial","trial_index":146,"time_elapsed":901646,"internal_node_id":"0.0-135.0","task_version":"test-retest-t3"},{"Rune":"rune_06_berkanan","Hex":"#3366ff99","Correct":-1,"Choice":-1,"RT":-1,"Accuracy":1,"Outcome":"-10","Keys":[],"TotalKeys":0,"Block":2,"Trial":129,"Robot":4,"Valence":"Lose","Action":"No-Go","Sham":1,"Color":"blue","trial_type":"pit-trial","trial_index":147,"time_elapsed":905651,"internal_node_id":"0.0-136.0","task_version":"test-retest-t3"},{"Rune":"rune_06_ansuz","Hex":"#3366ff99","Correct":32,"Choice":32,"RT":497.54499999107793,"Accuracy":1,"Outcome":"-10","Keys":[1998.0349999968894],"TotalKeys":1,"Block":2,"Trial":130,"Robot":3,"Valence":"Lose","Action":"Go","Sham":1,"Color":"blue","trial_type":"pit-trial","trial_index":148,"time_elapsed":908652,"internal_node_id":"0.0-137.0","task_version":"test-retest-t3"},{"Rune":"rune_06_ehwaz","Hex":"#ffcc3399","Correct":-1,"Choice":32,"RT":528.72500004014,"Accuracy":0,"Outcome":"+1","Keys":[2029.0600000298582],"TotalKeys":1,"Block":2,"Trial":131,"Robot":2,"Valence":"Win","Action":"No-Go","Sham":0,"Color":"yellow","trial_type":"pit-trial","trial_index":149,"time_elapsed":911684,"internal_node_id":"0.0-138.0","task_version":"test-retest-t3"},{"Rune":"rune_06_cweord","Hex":"#ffcc3399","Correct":32,"Choice":32,"RT":640.5249999952503,"Accuracy":1,"Outcome":"+10","Keys":[2141.97499997681],"TotalKeys":1,"Block":2,"Trial":132,"Robot":1,"Valence":"Win","Action":"Go","Sham":0,"Color":"yellow","trial_type":"pit-trial","trial_index":150,"time_elapsed":914830,"internal_node_id":"0.0-139.0","task_version":"test-retest-t3"},{"Rune":"rune_06_ansuz","Hex":"#3366ff99","Correct":32,"Choice":32,"RT":315.69499999750406,"Accuracy":1,"Outcome":"-1","Keys":[1816.4499999838881],"TotalKeys":1,"Block":2,"Trial":133,"Robot":3,"Valence":"Lose","Action":"Go","Sham":0,"Color":"blue","trial_type":"pit-trial","trial_index":151,"time_elapsed":917649,"internal_node_id":"0.0-140.0","task_version":"test-retest-t3"},{"Rune":"rune_06_berkanan","Hex":"#3366ff99","Correct":-1,"Choice":-1,"RT":-1,"Accuracy":1,"Outcome":"-1","Keys":[],"TotalKeys":0,"Block":2,"Trial":134,"Robot":4,"Valence":"Lose","Action":"No-Go","Sham":0,"Color":"blue","trial_type":"pit-trial","trial_index":152,"time_elapsed":921653,"internal_node_id":"0.0-141.0","task_version":"test-retest-t3"},{"Rune":"rune_06_ehwaz","Hex":"#ffcc3399","Correct":-1,"Choice":-1,"RT":-1,"Accuracy":1,"Outcome":"+10","Keys":[],"TotalKeys":0,"Block":2,"Trial":135,"Robot":2,"Valence":"Win","Action":"No-Go","Sham":0,"Color":"yellow","trial_type":"pit-trial","trial_index":153,"time_elapsed":925656,"internal_node_id":"0.0-142.0","task_version":"test-retest-t3"},{"Rune":"rune_06_cweord","Hex":"#ffcc3399","Correct":32,"Choice":32,"RT":395.5149999819696,"Accuracy":1,"Outcome":"+10","Keys":[1897.12999999756],"TotalKeys":1,"Block":2,"Trial":136,"Robot":1,"Valence":"Win","Action":"Go","Sham":0,"Color":"yellow","trial_type":"pit-trial","trial_index":154,"time_elapsed":928556,"internal_node_id":"0.0-143.0","task_version":"test-retest-t3"},{"Rune":"rune_06_ehwaz","Hex":"#ffcc3399","Correct":-1,"Choice":-1,"RT":-1,"Accuracy":1,"Outcome":"+10","Keys":[],"TotalKeys":0,"Block":2,"Trial":137,"Robot":2,"Valence":"Win","Action":"No-Go","Sham":0,"Color":"yellow","trial_type":"pit-trial","trial_index":155,"time_elapsed":932559,"internal_node_id":"0.0-144.0","task_version":"test-retest-t3"},{"Rune":"rune_06_cweord","Hex":"#ffcc3399","Correct":32,"Choice":32,"RT":539.844999962952,"Accuracy":1,"Outcome":"+10","Keys":[2040.7750000013039],"TotalKeys":1,"Block":2,"Trial":138,"Robot":1,"Valence":"Win","Action":"Go","Sham":0,"Color":"yellow","trial_type":"pit-trial","trial_index":156,"time_elapsed":935603,"internal_node_id":"0.0-145.0","task_version":"test-retest-t3"},{"Rune":"rune_06_ansuz","Hex":"#3366ff99","Correct":32,"Choice":32,"RT":579.0050000068732,"Accuracy":1,"Outcome":"-1","Keys":[2079.6700000064448],"TotalKeys":1,"Block":2,"Trial":139,"Robot":3,"Valence":"Lose","Action":"Go","Sham":0,"Color":"blue","trial_type":"pit-trial","trial_index":157,"time_elapsed":938686,"internal_node_id":"0.0-146.0","task_version":"test-retest-t3"},{"Rune":"rune_06_berkanan","Hex":"#3366ff99","Correct":-1,"Choice":-1,"RT":-1,"Accuracy":1,"Outcome":"-1","Keys":[],"TotalKeys":0,"Block":2,"Trial":140,"Robot":4,"Valence":"Lose","Action":"No-Go","Sham":0,"Color":"blue","trial_type":"pit-trial","trial_index":158,"time_elapsed":942691,"internal_node_id":"0.0-147.0","task_version":"test-retest-t3"},{"Rune":"rune_06_ehwaz","Hex":"#ffcc3399","Correct":-1,"Choice":-1,"RT":-1,"Accuracy":1,"Outcome":"+10","Keys":[],"TotalKeys":0,"Block":2,"Trial":141,"Robot":2,"Valence":"Win","Action":"No-Go","Sham":0,"Color":"yellow","trial_type":"pit-trial","trial_index":159,"time_elapsed":946696,"internal_node_id":"0.0-148.0","task_version":"test-retest-t3"},{"Rune":"rune_06_ansuz","Hex":"#3366ff99","Correct":32,"Choice":32,"RT":579.1949999984354,"Accuracy":1,"Outcome":"-1","Keys":[2079.634999972768],"TotalKeys":1,"Block":2,"Trial":142,"Robot":3,"Valence":"Lose","Action":"Go","Sham":0,"Color":"blue","trial_type":"pit-trial","trial_index":160,"time_elapsed":949778,"internal_node_id":"0.0-149.0","task_version":"test-retest-t3"},{"Rune":"rune_06_cweord","Hex":"#ffcc3399","Correct":32,"Choice":32,"RT":619.5799999986775,"Accuracy":1,"Outcome":"+10","Keys":[2120.340000023134],"TotalKeys":1,"Block":2,"Trial":143,"Robot":1,"Valence":"Win","Action":"Go","Sham":0,"Color":"yellow","trial_type":"pit-trial","trial_index":161,"time_elapsed":952901,"internal_node_id":"0.0-150.0","task_version":"test-retest-t3"},{"Rune":"rune_06_berkanan","Hex":"#3366ff99","Correct":-1,"Choice":-1,"RT":-1,"Accuracy":1,"Outcome":"-1","Keys":[],"TotalKeys":0,"Block":2,"Trial":144,"Robot":4,"Valence":"Lose","Action":"No-Go","Sham":0,"Color":"blue","trial_type":"pit-trial","trial_index":162,"time_elapsed":956905,"internal_node_id":"0.0-151.0","task_version":"test-retest-t3"},{"Rune":"rune_06_ansuz","Hex":"#3366ff99","Correct":32,"Choice":32,"RT":510.17999998293817,"Accuracy":1,"Outcome":"-1","Keys":[2010.6000000378117],"TotalKeys":1,"Block":2,"Trial":145,"Robot":3,"Valence":"Lose","Action":"Go","Sham":0,"Color":"blue","trial_type":"pit-trial","trial_index":163,"time_elapsed":959918,"internal_node_id":"0.0-152.0","task_version":"test-retest-t3"},{"Rune":"rune_06_berkanan","Hex":"#3366ff99","Correct":-1,"Choice":-1,"RT":-1,"Accuracy":1,"Outcome":"-1","Keys":[],"TotalKeys":0,"Block":2,"Trial":146,"Robot":4,"Valence":"Lose","Action":"No-Go","Sham":0,"Color":"blue","trial_type":"pit-trial","trial_index":164,"time_elapsed":963923,"internal_node_id":"0.0-153.0","task_version":"test-retest-t3"},{"Rune":"rune_06_cweord","Hex":"#ffcc3399","Correct":32,"Choice":32,"RT":606.0700000380166,"Accuracy":1,"Outcome":"+10","Keys":[2107.2949999943376],"TotalKeys":1,"Block":2,"Trial":147,"Robot":1,"Valence":"Win","Action":"Go","Sham":0,"Color":"yellow","trial_type":"pit-trial","trial_index":165,"time_elapsed":967032,"internal_node_id":"0.0-154.0","task_version":"test-retest-t3"},{"Rune":"rune_06_ehwaz","Hex":"#ffcc3399","Correct":-1,"Choice":-1,"RT":-1,"Accuracy":1,"Outcome":"+10","Keys":[],"TotalKeys":0,"Block":2,"Trial":148,"Robot":2,"Valence":"Win","Action":"No-Go","Sham":0,"Color":"yellow","trial_type":"pit-trial","trial_index":166,"time_elapsed":971036,"internal_node_id":"0.0-155.0","task_version":"test-retest-t3"},{"Rune":"rune_06_berkanan","Hex":"#3366ff99","Correct":-1,"Choice":-1,"RT":-1,"Accuracy":1,"Outcome":"-1","Keys":[],"TotalKeys":0,"Block":2,"Trial":149,"Robot":4,"Valence":"Lose","Action":"No-Go","Sham":0,"Color":"blue","trial_type":"pit-trial","trial_index":167,"time_elapsed":975038,"internal_node_id":"0.0-156.0","task_version":"test-retest-t3"},{"Rune":"rune_06_cweord","Hex":"#ffcc3399","Correct":32,"Choice":32,"RT":494.0550000173971,"Accuracy":1,"Outcome":"+1","Keys":[1995.2700000139885],"TotalKeys":1,"Block":2,"Trial":150,"Robot":1,"Valence":"Win","Action":"Go","Sham":1,"Color":"yellow","trial_type":"pit-trial","trial_index":168,"time_elapsed":978036,"internal_node_id":"0.0-157.0","task_version":"test-retest-t3"},{"Rune":"rune_06_ansuz","Hex":"#3366ff99","Correct":32,"Choice":32,"RT":644.449999963399,"Accuracy":1,"Outcome":"-1","Keys":[2145.985000010114],"TotalKeys":1,"Block":2,"Trial":151,"Robot":3,"Valence":"Lose","Action":"Go","Sham":0,"Color":"blue","trial_type":"pit-trial","trial_index":169,"time_elapsed":981185,"internal_node_id":"0.0-158.0","task_version":"test-retest-t3"},{"Rune":"rune_06_ehwaz","Hex":"#ffcc3399","Correct":-1,"Choice":-1,"RT":-1,"Accuracy":1,"Outcome":"+1","Keys":[],"TotalKeys":0,"Block":2,"Trial":152,"Robot":2,"Valence":"Win","Action":"No-Go","Sham":1,"Color":"yellow","trial_type":"pit-trial","trial_index":170,"time_elapsed":985190,"internal_node_id":"0.0-159.0","task_version":"test-retest-t3"},{"Rune":"rune_06_cweord","Hex":"#ffcc3399","Correct":32,"Choice":32,"RT":476.05499997735023,"Accuracy":1,"Outcome":"+10","Keys":[1976.8650000332855],"TotalKeys":1,"Block":2,"Trial":153,"Robot":1,"Valence":"Win","Action":"Go","Sham":0,"Color":"yellow","trial_type":"pit-trial","trial_index":171,"time_elapsed":988170,"internal_node_id":"0.0-160.0","task_version":"test-retest-t3"},{"Rune":"rune_06_berkanan","Hex":"#3366ff99","Correct":-1,"Choice":-1,"RT":-1,"Accuracy":1,"Outcome":"-10","Keys":[],"TotalKeys":0,"Block":2,"Trial":154,"Robot":4,"Valence":"Lose","Action":"No-Go","Sham":1,"Color":"blue","trial_type":"pit-trial","trial_index":172,"time_elapsed":992172,"internal_node_id":"0.0-161.0","task_version":"test-retest-t3"},{"Rune":"rune_06_ehwaz","Hex":"#ffcc3399","Correct":-1,"Choice":-1,"RT":-1,"Accuracy":1,"Outcome":"+10","Keys":[],"TotalKeys":0,"Block":2,"Trial":155,"Robot":2,"Valence":"Win","Action":"No-Go","Sham":0,"Color":"yellow","trial_type":"pit-trial","trial_index":173,"time_elapsed":996176,"internal_node_id":"0.0-162.0","task_version":"test-retest-t3"},{"Rune":"rune_06_ansuz","Hex":"#3366ff99","Correct":32,"Choice":32,"RT":454.085000033956,"Accuracy":1,"Outcome":"-10","Keys":[1955.5099999997765],"TotalKeys":1,"Block":2,"Trial":156,"Robot":3,"Valence":"Lose","Action":"Go","Sham":1,"Color":"blue","trial_type":"pit-trial","trial_index":174,"time_elapsed":999135,"internal_node_id":"0.0-163.0","task_version":"test-retest-t3"},{"Rune":"rune_06_cweord","Hex":"#ffcc3399","Correct":32,"Choice":32,"RT":668.1300000054762,"Accuracy":1,"Outcome":"+10","Keys":[2169.614999962505],"TotalKeys":1,"Block":2,"Trial":157,"Robot":1,"Valence":"Win","Action":"Go","Sham":0,"Color":"yellow","trial_type":"pit-trial","trial_index":175,"time_elapsed":1002307,"internal_node_id":"0.0-164.0","task_version":"test-retest-t3"},{"Rune":"rune_06_ansuz","Hex":"#3366ff99","Correct":32,"Choice":32,"RT":830.3600000217557,"Accuracy":1,"Outcome":"-1","Keys":[2332.1499999728985],"TotalKeys":1,"Block":2,"Trial":158,"Robot":3,"Valence":"Lose","Action":"Go","Sham":0,"Color":"blue","trial_type":"pit-trial","trial_index":176,"time_elapsed":1005643,"internal_node_id":"0.0-165.0","task_version":"test-retest-t3"},{"Rune":"rune_06_berkanan","Hex":"#3366ff99","Correct":-1,"Choice":-1,"RT":-1,"Accuracy":1,"Outcome":"-1","Keys":[],"TotalKeys":0,"Block":2,"Trial":159,"Robot":4,"Valence":"Lose","Action":"No-Go","Sham":0,"Color":"blue","trial_type":"pit-trial","trial_index":177,"time_elapsed":1009647,"internal_node_id":"0.0-166.0","task_version":"test-retest-t3"},{"Rune":"rune_06_ehwaz","Hex":"#ffcc3399","Correct":-1,"Choice":-1,"RT":-1,"Accuracy":1,"Outcome":"+10","Keys":[],"TotalKeys":0,"Block":2,"Trial":160,"Robot":2,"Valence":"Win","Action":"No-Go","Sham":0,"Color":"yellow","trial_type":"pit-trial","trial_index":178,"time_elapsed":1013653,"internal_node_id":"0.0-167.0","task_version":"test-retest-t3"},{"Rune":"rune_06_ehwaz","Hex":"#ffcc3399","Correct":-1,"Choice":-1,"RT":-1,"Accuracy":1,"Outcome":"+10","Keys":[],"TotalKeys":0,"Block":2,"Trial":161,"Robot":2,"Valence":"Win","Action":"No-Go","Sham":0,"Color":"yellow","trial_type":"pit-trial","trial_index":179,"time_elapsed":1017657,"internal_node_id":"0.0-168.0","task_version":"test-retest-t3"},{"Rune":"rune_06_ansuz","Hex":"#3366ff99","Correct":32,"Choice":32,"RT":810.3450000053272,"Accuracy":1,"Outcome":"-1","Keys":[2311.424999963492],"TotalKeys":1,"Block":2,"Trial":162,"Robot":3,"Valence":"Lose","Action":"Go","Sham":0,"Color":"blue","trial_type":"pit-trial","trial_index":180,"time_elapsed":1020972,"internal_node_id":"0.0-169.0","task_version":"test-retest-t3"},{"Rune":"rune_06_berkanan","Hex":"#3366ff99","Correct":-1,"Choice":-1,"RT":-1,"Accuracy":1,"Outcome":"-10","Keys":[],"TotalKeys":0,"Block":2,"Trial":163,"Robot":4,"Valence":"Lose","Action":"No-Go","Sham":1,"Color":"blue","trial_type":"pit-trial","trial_index":181,"time_elapsed":1024976,"internal_node_id":"0.0-170.0","task_version":"test-retest-t3"},{"Rune":"rune_06_cweord","Hex":"#ffcc3399","Correct":32,"Choice":32,"RT":459.74000002024695,"Accuracy":1,"Outcome":"+10","Keys":[1960.97999997437],"TotalKeys":1,"Block":2,"Trial":164,"Robot":1,"Valence":"Win","Action":"Go","Sham":0,"Color":"yellow","trial_type":"pit-trial","trial_index":182,"time_elapsed":1027940,"internal_node_id":"0.0-171.0","task_version":"test-retest-t3"},{"Rune":"rune_06_ansuz","Hex":"#3366ff99","Correct":32,"Choice":32,"RT":476.55500000109896,"Accuracy":1,"Outcome":"-1","Keys":[1977.6249999995343],"TotalKeys":1,"Block":2,"Trial":165,"Robot":3,"Valence":"Lose","Action":"Go","Sham":0,"Color":"blue","trial_type":"pit-trial","trial_index":183,"time_elapsed":1030921,"internal_node_id":"0.0-172.0","task_version":"test-retest-t3"},{"Rune":"rune_06_ehwaz","Hex":"#ffcc3399","Correct":-1,"Choice":-1,"RT":-1,"Accuracy":1,"Outcome":"+10","Keys":[],"TotalKeys":0,"Block":2,"Trial":166,"Robot":2,"Valence":"Win","Action":"No-Go","Sham":0,"Color":"yellow","trial_type":"pit-trial","trial_index":184,"time_elapsed":1034926,"internal_node_id":"0.0-173.0","task_version":"test-retest-t3"},{"Rune":"rune_06_berkanan","Hex":"#3366ff99","Correct":-1,"Choice":-1,"RT":-1,"Accuracy":1,"Outcome":"-1","Keys":[],"TotalKeys":0,"Block":2,"Trial":167,"Robot":4,"Valence":"Lose","Action":"No-Go","Sham":0,"Color":"blue","trial_type":"pit-trial","trial_index":185,"time_elapsed":1038932,"internal_node_id":"0.0-174.0","task_version":"test-retest-t3"},{"Rune":"rune_06_cweord","Hex":"#ffcc3399","Correct":32,"Choice":32,"RT":365.0049999705516,"Accuracy":1,"Outcome":"+10","Keys":[1866.4499999722466],"TotalKeys":1,"Block":2,"Trial":168,"Robot":1,"Valence":"Win","Action":"Go","Sham":0,"Color":"yellow","trial_type":"pit-trial","trial_index":186,"time_elapsed":1041802,"internal_node_id":"0.0-175.0","task_version":"test-retest-t3"},{"Rune":"rune_06_berkanan","Hex":"#3366ff99","Correct":-1,"Choice":-1,"RT":-1,"Accuracy":1,"Outcome":"-1","Keys":[],"TotalKeys":0,"Block":2,"Trial":169,"Robot":4,"Valence":"Lose","Action":"No-Go","Sham":0,"Color":"blue","trial_type":"pit-trial","trial_index":187,"time_elapsed":1045806,"internal_node_id":"0.0-176.0","task_version":"test-retest-t3"},{"Rune":"rune_06_cweord","Hex":"#ffcc3399","Correct":32,"Choice":32,"RT":735.7200000551529,"Accuracy":1,"Outcome":"+10","Keys":[2235.8949999907054],"TotalKeys":1,"Block":2,"Trial":170,"Robot":1,"Valence":"Win","Action":"Go","Sham":0,"Color":"yellow","trial_type":"pit-trial","trial_index":188,"time_elapsed":1049046,"internal_node_id":"0.0-177.0","task_version":"test-retest-t3"},{"Rune":"rune_06_ansuz","Hex":"#3366ff99","Correct":32,"Choice":32,"RT":668.9199999673292,"Accuracy":1,"Outcome":"-1","Keys":[2169.980000006035],"TotalKeys":1,"Block":2,"Trial":171,"Robot":3,"Valence":"Lose","Action":"Go","Sham":0,"Color":"blue","trial_type":"pit-trial","trial_index":189,"time_elapsed":1052219,"internal_node_id":"0.0-178.0","task_version":"test-retest-t3"},{"Rune":"rune_06_ehwaz","Hex":"#ffcc3399","Correct":-1,"Choice":-1,"RT":-1,"Accuracy":1,"Outcome":"+10","Keys":[],"TotalKeys":0,"Block":2,"Trial":172,"Robot":2,"Valence":"Win","Action":"No-Go","Sham":0,"Color":"yellow","trial_type":"pit-trial","trial_index":190,"time_elapsed":1056224,"internal_node_id":"0.0-179.0","task_version":"test-retest-t3"},{"Rune":"rune_06_ehwaz","Hex":"#ffcc3399","Correct":-1,"Choice":-1,"RT":-1,"Accuracy":1,"Outcome":"+10","Keys":[],"TotalKeys":0,"Block":2,"Trial":173,"Robot":2,"Valence":"Win","Action":"No-Go","Sham":0,"Color":"yellow","trial_type":"pit-trial","trial_index":191,"time_elapsed":1060228,"internal_node_id":"0.0-180.0","task_version":"test-retest-t3"},{"Rune":"rune_06_cweord","Hex":"#ffcc3399","Correct":32,"Choice":32,"RT":626.8400000408292,"Accuracy":1,"Outcome":"+1","Keys":[2128.4149999846704],"TotalKeys":1,"Block":2,"Trial":174,"Robot":1,"Valence":"Win","Action":"Go","Sham":1,"Color":"yellow","trial_type":"pit-trial","trial_index":192,"time_elapsed":1063359,"internal_node_id":"0.0-181.0","task_version":"test-retest-t3"},{"Rune":"rune_06_ansuz","Hex":"#3366ff99","Correct":32,"Choice":32,"RT":455.2549999789335,"Accuracy":1,"Outcome":"-1","Keys":[1956.0100000235252],"TotalKeys":1,"Block":2,"Trial":175,"Robot":3,"Valence":"Lose","Action":"Go","Sham":0,"Color":"blue","trial_type":"pit-trial","trial_index":193,"time_elapsed":1066318,"internal_node_id":"0.0-182.0","task_version":"test-retest-t3"},{"Rune":"rune_06_berkanan","Hex":"#3366ff99","Correct":-1,"Choice":-1,"RT":-1,"Accuracy":1,"Outcome":"-1","Keys":[],"TotalKeys":0,"Block":2,"Trial":176,"Robot":4,"Valence":"Lose","Action":"No-Go","Sham":0,"Color":"blue","trial_type":"pit-trial","trial_index":194,"time_elapsed":1070322,"internal_node_id":"0.0-183.0","task_version":"test-retest-t3"},{"Rune":"rune_06_cweord","Hex":"#ffcc3399","Correct":32,"Choice":32,"RT":412.3850000323728,"Accuracy":1,"Outcome":"+10","Keys":[1913.2600000011735],"TotalKeys":1,"Block":2,"Trial":177,"Robot":1,"Valence":"Win","Action":"Go","Sham":0,"Color":"yellow","trial_type":"pit-trial","trial_index":195,"time_elapsed":1073238,"internal_node_id":"0.0-184.0","task_version":"test-retest-t3"},{"Rune":"rune_06_ehwaz","Hex":"#ffcc3399","Correct":-1,"Choice":-1,"RT":-1,"Accuracy":1,"Outcome":"+1","Keys":[],"TotalKeys":0,"Block":2,"Trial":178,"Robot":2,"Valence":"Win","Action":"No-Go","Sham":1,"Color":"yellow","trial_type":"pit-trial","trial_index":196,"time_elapsed":1077242,"internal_node_id":"0.0-185.0","task_version":"test-retest-t3"},{"Rune":"rune_06_ansuz","Hex":"#3366ff99","Correct":32,"Choice":32,"RT":536.5350000211038,"Accuracy":1,"Outcome":"-10","Keys":[2036.705000034999],"TotalKeys":1,"Block":2,"Trial":179,"Robot":3,"Valence":"Lose","Action":"Go","Sham":1,"Color":"blue","trial_type":"pit-trial","trial_index":197,"time_elapsed":1080281,"internal_node_id":"0.0-186.0","task_version":"test-retest-t3"},{"Rune":"rune_06_berkanan","Hex":"#3366ff99","Correct":-1,"Choice":-1,"RT":-1,"Accuracy":1,"Outcome":"-1","Keys":[],"TotalKeys":0,"Block":2,"Trial":180,"Robot":4,"Valence":"Lose","Action":"No-Go","Sham":0,"Color":"blue","trial_type":"pit-trial","trial_index":198,"time_elapsed":1084284,"internal_node_id":"0.0-187.0","task_version":"test-retest-t3"},{"view_history":"[{\"page_index\":0,\"viewing_time\":51938.59999999404},{\"page_index\":1,\"viewing_time\":428.5299999755807}]","rt":52367.549999966286,"trial_type":"pit-instructions","trial_index":199,"time_elapsed":1136653,"internal_node_id":"0.0-188.0","task_version":"test-retest-t3"},{"Rune":"rune_06_berkanan","Hex":"#3366ff99","Correct":-1,"Choice":-1,"RT":-1,"Accuracy":1,"Outcome":"-1","Keys":[],"TotalKeys":0,"Block":2,"Trial":181,"Robot":4,"Valence":"Lose","Action":"No-Go","Sham":0,"Color":"blue","trial_type":"pit-trial","trial_index":200,"time_elapsed":1140661,"internal_node_id":"0.0-189.0","task_version":"test-retest-t3"},{"Rune":"rune_06_ehwaz","Hex":"#ffcc3399","Correct":-1,"Choice":-1,"RT":-1,"Accuracy":1,"Outcome":"+10","Keys":[],"TotalKeys":0,"Block":2,"Trial":182,"Robot":2,"Valence":"Win","Action":"No-Go","Sham":0,"Color":"yellow","trial_type":"pit-trial","trial_index":201,"time_elapsed":1144664,"internal_node_id":"0.0-190.0","task_version":"test-retest-t3"},{"Rune":"rune_06_ansuz","Hex":"#3366ff99","Correct":32,"Choice":32,"RT":641.414999961853,"Accuracy":1,"Outcome":"-1","Keys":[2142.814999970142],"TotalKeys":1,"Block":2,"Trial":183,"Robot":3,"Valence":"Lose","Action":"Go","Sham":0,"Color":"blue","trial_type":"pit-trial","trial_index":202,"time_elapsed":1147810,"internal_node_id":"0.0-191.0","task_version":"test-retest-t3"},{"Rune":"rune_06_cweord","Hex":"#ffcc3399","Correct":32,"Choice":-1,"RT":-1,"Accuracy":0,"Outcome":"+1","Keys":[3344.859999953769],"TotalKeys":1,"Block":2,"Trial":184,"Robot":1,"Valence":"Win","Action":"Go","Sham":0,"Color":"yellow","trial_type":"pit-trial","trial_index":203,"time_elapsed":1151814,"internal_node_id":"0.0-192.0","task_version":"test-retest-t3"},{"Rune":"rune_06_berkanan","Hex":"#3366ff99","Correct":-1,"Choice":-1,"RT":-1,"Accuracy":1,"Outcome":"-1","Keys":[],"TotalKeys":0,"Block":2,"Trial":185,"Robot":4,"Valence":"Lose","Action":"No-Go","Sham":0,"Color":"blue","trial_type":"pit-trial","trial_index":204,"time_elapsed":1155818,"internal_node_id":"0.0-193.0","task_version":"test-retest-t3"},{"Rune":"rune_06_cweord","Hex":"#ffcc3399","Correct":32,"Choice":32,"RT":482.5899999705143,"Accuracy":1,"Outcome":"+10","Keys":[1983.8699999963865],"TotalKeys":1,"Block":2,"Trial":186,"Robot":1,"Valence":"Win","Action":"Go","Sham":0,"Color":"yellow","trial_type":"pit-trial","trial_index":205,"time_elapsed":1158805,"internal_node_id":"0.0-194.0","task_version":"test-retest-t3"},{"Rune":"rune_06_ehwaz","Hex":"#ffcc3399","Correct":-1,"Choice":-1,"RT":-1,"Accuracy":1,"Outcome":"+1","Keys":[],"TotalKeys":0,"Block":2,"Trial":187,"Robot":2,"Valence":"Win","Action":"No-Go","Sham":1,"Color":"yellow","trial_type":"pit-trial","trial_index":206,"time_elapsed":1162808,"internal_node_id":"0.0-195.0","task_version":"test-retest-t3"},{"Rune":"rune_06_ansuz","Hex":"#3366ff99","Correct":32,"Choice":32,"RT":454.00999998673797,"Accuracy":1,"Outcome":"-1","Keys":[1955.3549999836832],"TotalKeys":1,"Block":2,"Trial":188,"Robot":3,"Valence":"Lose","Action":"Go","Sham":0,"Color":"blue","trial_type":"pit-trial","trial_index":207,"time_elapsed":1165766,"internal_node_id":"0.0-196.0","task_version":"test-retest-t3"},{"Rune":"rune_06_ansuz","Hex":"#3366ff99","Correct":32,"Choice":32,"RT":394.54499998828396,"Accuracy":1,"Outcome":"-10","Keys":[1895.1750000123866],"TotalKeys":1,"Block":2,"Trial":189,"Robot":3,"Valence":"Lose","Action":"Go","Sham":1,"Color":"blue","trial_type":"pit-trial","trial_index":208,"time_elapsed":1168663,"internal_node_id":"0.0-197.0","task_version":"test-retest-t3"},{"Rune":"rune_06_ehwaz","Hex":"#ffcc3399","Correct":-1,"Choice":-1,"RT":-1,"Accuracy":1,"Outcome":"+10","Keys":[],"TotalKeys":0,"Block":2,"Trial":190,"Robot":2,"Valence":"Win","Action":"No-Go","Sham":0,"Color":"yellow","trial_type":"pit-trial","trial_index":209,"time_elapsed":1172667,"internal_node_id":"0.0-198.0","task_version":"test-retest-t3"},{"Rune":"rune_06_cweord","Hex":"#ffcc3399","Correct":32,"Choice":32,"RT":412.75499999755993,"Accuracy":1,"Outcome":"+1","Keys":[1913.730000029318],"TotalKeys":1,"Block":2,"Trial":191,"Robot":1,"Valence":"Win","Action":"Go","Sham":1,"Color":"yellow","trial_type":"pit-trial","trial_index":210,"time_elapsed":1175584,"internal_node_id":"0.0-199.0","task_version":"test-retest-t3"},{"Rune":"rune_06_berkanan","Hex":"#3366ff99","Correct":-1,"Choice":-1,"RT":-1,"Accuracy":1,"Outcome":"-10","Keys":[],"TotalKeys":0,"Block":2,"Trial":192,"Robot":4,"Valence":"Lose","Action":"No-Go","Sham":1,"Color":"blue","trial_type":"pit-trial","trial_index":211,"time_elapsed":1179587,"internal_node_id":"0.0-200.0","task_version":"test-retest-t3"},{"Rune":"rune_06_cweord","Hex":"#ffcc3399","Correct":32,"Choice":32,"RT":487.90999996708706,"Accuracy":1,"Outcome":"+10","Keys":[1988.8999999966472],"TotalKeys":1,"Block":2,"Trial":193,"Robot":1,"Valence":"Win","Action":"Go","Sham":0,"Color":"yellow","trial_type":"pit-trial","trial_index":212,"time_elapsed":1182579,"internal_node_id":"0.0-201.0","task_version":"test-retest-t3"},{"Rune":"rune_06_berkanan","Hex":"#3366ff99","Correct":-1,"Choice":-1,"RT":-1,"Accuracy":1,"Outcome":"-1","Keys":[],"TotalKeys":0,"Block":2,"Trial":194,"Robot":4,"Valence":"Lose","Action":"No-Go","Sham":0,"Color":"blue","trial_type":"pit-trial","trial_index":213,"time_elapsed":1186583,"internal_node_id":"0.0-202.0","task_version":"test-retest-t3"},{"Rune":"rune_06_ehwaz","Hex":"#ffcc3399","Correct":-1,"Choice":-1,"RT":-1,"Accuracy":1,"Outcome":"+10","Keys":[],"TotalKeys":0,"Block":2,"Trial":195,"Robot":2,"Valence":"Win","Action":"No-Go","Sham":0,"Color":"yellow","trial_type":"pit-trial","trial_index":214,"time_elapsed":1190588,"internal_node_id":"0.0-203.0","task_version":"test-retest-t3"},{"Rune":"rune_06_ansuz","Hex":"#3366ff99","Correct":32,"Choice":32,"RT":433.4050000179559,"Accuracy":1,"Outcome":"-1","Keys":[1933.9100000215694],"TotalKeys":1,"Block":2,"Trial":196,"Robot":3,"Valence":"Lose","Action":"Go","Sham":0,"Color":"blue","trial_type":"pit-trial","trial_index":215,"time_elapsed":1193525,"internal_node_id":"0.0-204.0","task_version":"test-retest-t3"},{"Rune":"rune_06_cweord","Hex":"#ffcc3399","Correct":32,"Choice":32,"RT":485.6199999921955,"Accuracy":1,"Outcome":"+10","Keys":[1986.2250000005588],"TotalKeys":1,"Block":2,"Trial":197,"Robot":1,"Valence":"Win","Action":"Go","Sham":0,"Color":"yellow","trial_type":"pit-trial","trial_index":216,"time_elapsed":1196514,"internal_node_id":"0.0-205.0","task_version":"test-retest-t3"},{"Rune":"rune_06_ehwaz","Hex":"#ffcc3399","Correct":-1,"Choice":-1,"RT":-1,"Accuracy":1,"Outcome":"+10","Keys":[],"TotalKeys":0,"Block":2,"Trial":198,"Robot":2,"Valence":"Win","Action":"No-Go","Sham":0,"Color":"yellow","trial_type":"pit-trial","trial_index":217,"time_elapsed":1200518,"internal_node_id":"0.0-206.0","task_version":"test-retest-t3"},{"Rune":"rune_06_berkanan","Hex":"#3366ff99","Correct":-1,"Choice":-1,"RT":-1,"Accuracy":1,"Outcome":"-1","Keys":[],"TotalKeys":0,"Block":2,"Trial":199,"Robot":4,"Valence":"Lose","Action":"No-Go","Sham":0,"Color":"blue","trial_type":"pit-trial","trial_index":218,"time_elapsed":1204522,"internal_node_id":"0.0-207.0","task_version":"test-retest-t3"},{"Rune":"rune_06_ansuz","Hex":"#3366ff99","Correct":32,"Choice":32,"RT":1297.759999986738,"Accuracy":1,"Outcome":"-1","Keys":[2798.6950000049546],"TotalKeys":1,"Block":2,"Trial":200,"Robot":3,"Valence":"Lose","Action":"Go","Sham":0,"Color":"blue","trial_type":"pit-trial","trial_index":219,"time_elapsed":1208324,"internal_node_id":"0.0-208.0","task_version":"test-retest-t3"},{"Rune":"rune_06_cweord","Hex":"#ffcc3399","Correct":32,"Choice":32,"RT":407.92000002693385,"Accuracy":1,"Outcome":"+10","Keys":[1909.1950000147335],"TotalKeys":1,"Block":2,"Trial":201,"Robot":1,"Valence":"Win","Action":"Go","Sham":0,"Color":"yellow","trial_type":"pit-trial","trial_index":220,"time_elapsed":1211237,"internal_node_id":"0.0-209.0","task_version":"test-retest-t3"},{"Rune":"rune_06_ehwaz","Hex":"#ffcc3399","Correct":-1,"Choice":-1,"RT":-1,"Accuracy":1,"Outcome":"+10","Keys":[],"TotalKeys":0,"Block":2,"Trial":202,"Robot":2,"Valence":"Win","Action":"No-Go","Sham":0,"Color":"yellow","trial_type":"pit-trial","trial_index":221,"time_elapsed":1215240,"internal_node_id":"0.0-210.0","task_version":"test-retest-t3"},{"Rune":"rune_06_berkanan","Hex":"#3366ff99","Correct":-1,"Choice":-1,"RT":-1,"Accuracy":1,"Outcome":"-1","Keys":[],"TotalKeys":0,"Block":2,"Trial":203,"Robot":4,"Valence":"Lose","Action":"No-Go","Sham":0,"Color":"blue","trial_type":"pit-trial","trial_index":222,"time_elapsed":1219243,"internal_node_id":"0.0-211.0","task_version":"test-retest-t3"},{"Rune":"rune_06_ansuz","Hex":"#3366ff99","Correct":32,"Choice":32,"RT":396.40500000678,"Accuracy":1,"Outcome":"-10","Keys":[1897.2549999598414],"TotalKeys":1,"Block":2,"Trial":204,"Robot":3,"Valence":"Lose","Action":"Go","Sham":1,"Color":"blue","trial_type":"pit-trial","trial_index":223,"time_elapsed":1222143,"internal_node_id":"0.0-212.0","task_version":"test-retest-t3"},{"Rune":"rune_06_ehwaz","Hex":"#ffcc3399","Correct":-1,"Choice":-1,"RT":-1,"Accuracy":1,"Outcome":"+10","Keys":[],"TotalKeys":0,"Block":2,"Trial":205,"Robot":2,"Valence":"Win","Action":"No-Go","Sham":0,"Color":"yellow","trial_type":"pit-trial","trial_index":224,"time_elapsed":1226147,"internal_node_id":"0.0-213.0","task_version":"test-retest-t3"},{"Rune":"rune_06_cweord","Hex":"#ffcc3399","Correct":32,"Choice":32,"RT":634.3800000031479,"Accuracy":1,"Outcome":"+10","Keys":[2134.9600000539795],"TotalKeys":1,"Block":2,"Trial":206,"Robot":1,"Valence":"Win","Action":"Go","Sham":0,"Color":"yellow","trial_type":"pit-trial","trial_index":225,"time_elapsed":1229284,"internal_node_id":"0.0-214.0","task_version":"test-retest-t3"},{"Rune":"rune_06_ansuz","Hex":"#3366ff99","Correct":32,"Choice":32,"RT":1224.8499999986961,"Accuracy":1,"Outcome":"-1","Keys":[2726.005000004079],"TotalKeys":1,"Block":2,"Trial":207,"Robot":3,"Valence":"Lose","Action":"Go","Sham":0,"Color":"blue","trial_type":"pit-trial","trial_index":226,"time_elapsed":1233013,"internal_node_id":"0.0-215.0","task_version":"test-retest-t3"},{"Rune":"rune_06_berkanan","Hex":"#3366ff99","Correct":-1,"Choice":-1,"RT":-1,"Accuracy":1,"Outcome":"-1","Keys":[],"TotalKeys":0,"Block":2,"Trial":208,"Robot":4,"Valence":"Lose","Action":"No-Go","Sham":0,"Color":"blue","trial_type":"pit-trial","trial_index":227,"time_elapsed":1237016,"internal_node_id":"0.0-216.0","task_version":"test-retest-t3"},{"Rune":"rune_06_cweord","Hex":"#ffcc3399","Correct":32,"Choice":-1,"RT":-1,"Accuracy":0,"Outcome":"+10","Keys":[3348.104999982752],"TotalKeys":1,"Block":2,"Trial":209,"Robot":1,"Valence":"Win","Action":"Go","Sham":1,"Color":"yellow","trial_type":"pit-trial","trial_index":228,"time_elapsed":1241021,"internal_node_id":"0.0-217.0","task_version":"test-retest-t3"},{"Rune":"rune_06_ansuz","Hex":"#3366ff99","Correct":32,"Choice":32,"RT":848.5649999929592,"Accuracy":1,"Outcome":"-1","Keys":[2350.1600000308827],"TotalKeys":1,"Block":2,"Trial":210,"Robot":3,"Valence":"Lose","Action":"Go","Sham":0,"Color":"blue","trial_type":"pit-trial","trial_index":229,"time_elapsed":1244374,"internal_node_id":"0.0-218.0","task_version":"test-retest-t3"},{"Rune":"rune_06_ehwaz","Hex":"#ffcc3399","Correct":-1,"Choice":-1,"RT":-1,"Accuracy":1,"Outcome":"+10","Keys":[],"TotalKeys":0,"Block":2,"Trial":211,"Robot":2,"Valence":"Win","Action":"No-Go","Sham":0,"Color":"yellow","trial_type":"pit-trial","trial_index":230,"time_elapsed":1248378,"internal_node_id":"0.0-219.0","task_version":"test-retest-t3"},{"Rune":"rune_06_berkanan","Hex":"#3366ff99","Correct":-1,"Choice":-1,"RT":-1,"Accuracy":1,"Outcome":"-1","Keys":[],"TotalKeys":0,"Block":2,"Trial":212,"Robot":4,"Valence":"Lose","Action":"No-Go","Sham":0,"Color":"blue","trial_type":"pit-trial","trial_index":231,"time_elapsed":1252383,"internal_node_id":"0.0-220.0","task_version":"test-retest-t3"},{"Rune":"rune_06_ehwaz","Hex":"#ffcc3399","Correct":-1,"Choice":-1,"RT":-1,"Accuracy":1,"Outcome":"+10","Keys":[],"TotalKeys":0,"Block":2,"Trial":213,"Robot":2,"Valence":"Win","Action":"No-Go","Sham":0,"Color":"yellow","trial_type":"pit-trial","trial_index":232,"time_elapsed":1256386,"internal_node_id":"0.0-221.0","task_version":"test-retest-t3"},{"Rune":"rune_06_ansuz","Hex":"#3366ff99","Correct":32,"Choice":32,"RT":435.93500001588836,"Accuracy":1,"Outcome":"-1","Keys":[1936.1749999807216],"TotalKeys":1,"Block":2,"Trial":214,"Robot":3,"Valence":"Lose","Action":"Go","Sham":0,"Color":"blue","trial_type":"pit-trial","trial_index":233,"time_elapsed":1259325,"internal_node_id":"0.0-222.0","task_version":"test-retest-t3"},{"Rune":"rune_06_berkanan","Hex":"#3366ff99","Correct":-1,"Choice":-1,"RT":-1,"Accuracy":1,"Outcome":"-1","Keys":[],"TotalKeys":0,"Block":2,"Trial":215,"Robot":4,"Valence":"Lose","Action":"No-Go","Sham":0,"Color":"blue","trial_type":"pit-trial","trial_index":234,"time_elapsed":1263329,"internal_node_id":"0.0-223.0","task_version":"test-retest-t3"},{"Rune":"rune_06_cweord","Hex":"#ffcc3399","Correct":32,"Choice":32,"RT":696.7900000163354,"Accuracy":1,"Outcome":"+10","Keys":[2198.2600000337698],"TotalKeys":1,"Block":2,"Trial":216,"Robot":1,"Valence":"Win","Action":"Go","Sham":0,"Color":"yellow","trial_type":"pit-trial","trial_index":235,"time_elapsed":1266530,"internal_node_id":"0.0-224.0","task_version":"test-retest-t3"},{"Rune":"rune_06_ansuz","Hex":"#3366ff99","Correct":32,"Choice":32,"RT":463.6000000173226,"Accuracy":1,"Outcome":"-1","Keys":[1964.3849999993108],"TotalKeys":1,"Block":2,"Trial":217,"Robot":3,"Valence":"Lose","Action":"Go","Sham":0,"Color":"blue","trial_type":"pit-trial","trial_index":236,"time_elapsed":1269498,"internal_node_id":"0.0-225.0","task_version":"test-retest-t3"},{"Rune":"rune_06_berkanan","Hex":"#3366ff99","Correct":-1,"Choice":-1,"RT":-1,"Accuracy":1,"Outcome":"-10","Keys":[],"TotalKeys":0,"Block":2,"Trial":218,"Robot":4,"Valence":"Lose","Action":"No-Go","Sham":1,"Color":"blue","trial_type":"pit-trial","trial_index":237,"time_elapsed":1273502,"internal_node_id":"0.0-226.0","task_version":"test-retest-t3"},{"Rune":"rune_06_ehwaz","Hex":"#ffcc3399","Correct":-1,"Choice":-1,"RT":-1,"Accuracy":1,"Outcome":"+1","Keys":[],"TotalKeys":0,"Block":2,"Trial":219,"Robot":2,"Valence":"Win","Action":"No-Go","Sham":1,"Color":"yellow","trial_type":"pit-trial","trial_index":238,"time_elapsed":1277505,"internal_node_id":"0.0-227.0","task_version":"test-retest-t3"},{"Rune":"rune_06_cweord","Hex":"#ffcc3399","Correct":32,"Choice":32,"RT":361.2050000228919,"Accuracy":1,"Outcome":"+10","Keys":[1862.4600000330247],"TotalKeys":1,"Block":2,"Trial":220,"Robot":1,"Valence":"Win","Action":"Go","Sham":0,"Color":"yellow","trial_type":"pit-trial","trial_index":239,"time_elapsed":1280370,"internal_node_id":"0.0-228.0","task_version":"test-retest-t3"},{"Rune":"rune_06_ansuz","Hex":"#3366ff99","Correct":32,"Choice":32,"RT":425.97000004025176,"Accuracy":1,"Outcome":"-1","Keys":[1926.7749999999069],"TotalKeys":1,"Block":2,"Trial":221,"Robot":3,"Valence":"Lose","Action":"Go","Sham":0,"Color":"blue","trial_type":"pit-trial","trial_index":240,"time_elapsed":1283299,"internal_node_id":"0.0-229.0","task_version":"test-retest-t3"},{"Rune":"rune_06_cweord","Hex":"#ffcc3399","Correct":32,"Choice":32,"RT":466.73000004375353,"Accuracy":1,"Outcome":"+10","Keys":[1967.7299999748357],"TotalKeys":1,"Block":2,"Trial":222,"Robot":1,"Valence":"Win","Action":"Go","Sham":0,"Color":"yellow","trial_type":"pit-trial","trial_index":241,"time_elapsed":1286269,"internal_node_id":"0.0-230.0","task_version":"test-retest-t3"},{"Rune":"rune_06_berkanan","Hex":"#3366ff99","Correct":-1,"Choice":-1,"RT":-1,"Accuracy":1,"Outcome":"-1","Keys":[],"TotalKeys":0,"Block":2,"Trial":223,"Robot":4,"Valence":"Lose","Action":"No-Go","Sham":0,"Color":"blue","trial_type":"pit-trial","trial_index":242,"time_elapsed":1290274,"internal_node_id":"0.0-231.0","task_version":"test-retest-t3"},{"Rune":"rune_06_ehwaz","Hex":"#ffcc3399","Correct":-1,"Choice":-1,"RT":-1,"Accuracy":1,"Outcome":"+10","Keys":[],"TotalKeys":0,"Block":2,"Trial":224,"Robot":2,"Valence":"Win","Action":"No-Go","Sham":0,"Color":"yellow","trial_type":"pit-trial","trial_index":243,"time_elapsed":1294279,"internal_node_id":"0.0-232.0","task_version":"test-retest-t3"},{"Rune":"rune_06_ehwaz","Hex":"#ffcc3399","Correct":-1,"Choice":-1,"RT":-1,"Accuracy":1,"Outcome":"+10","Keys":[],"TotalKeys":0,"Block":2,"Trial":225,"Robot":2,"Valence":"Win","Action":"No-Go","Sham":0,"Color":"yellow","trial_type":"pit-trial","trial_index":244,"time_elapsed":1298283,"internal_node_id":"0.0-233.0","task_version":"test-retest-t3"},{"Rune":"rune_06_berkanan","Hex":"#3366ff99","Correct":-1,"Choice":-1,"RT":-1,"Accuracy":1,"Outcome":"-1","Keys":[],"TotalKeys":0,"Block":2,"Trial":226,"Robot":4,"Valence":"Lose","Action":"No-Go","Sham":0,"Color":"blue","trial_type":"pit-trial","trial_index":245,"time_elapsed":1302288,"internal_node_id":"0.0-234.0","task_version":"test-retest-t3"},{"Rune":"rune_06_ansuz","Hex":"#3366ff99","Correct":32,"Choice":32,"RT":531.4950000029057,"Accuracy":1,"Outcome":"-1","Keys":[2032.5200000079349],"TotalKeys":1,"Block":2,"Trial":227,"Robot":3,"Valence":"Lose","Action":"Go","Sham":0,"Color":"blue","trial_type":"pit-trial","trial_index":246,"time_elapsed":1305324,"internal_node_id":"0.0-235.0","task_version":"test-retest-t3"},{"Rune":"rune_06_cweord","Hex":"#ffcc3399","Correct":32,"Choice":32,"RT":349.44499999983236,"Accuracy":1,"Outcome":"+10","Keys":[1850.994999986142],"TotalKeys":1,"Block":2,"Trial":228,"Robot":1,"Valence":"Win","Action":"Go","Sham":0,"Color":"yellow","trial_type":"pit-trial","trial_index":247,"time_elapsed":1308177,"internal_node_id":"0.0-236.0","task_version":"test-retest-t3"},{"Rune":"rune_06_berkanan","Hex":"#3366ff99","Correct":-1,"Choice":-1,"RT":-1,"Accuracy":1,"Outcome":"-1","Keys":[],"TotalKeys":0,"Block":2,"Trial":229,"Robot":4,"Valence":"Lose","Action":"No-Go","Sham":0,"Color":"blue","trial_type":"pit-trial","trial_index":248,"time_elapsed":1312182,"internal_node_id":"0.0-237.0","task_version":"test-retest-t3"},{"Rune":"rune_06_cweord","Hex":"#ffcc3399","Correct":32,"Choice":32,"RT":482.2849999764003,"Accuracy":1,"Outcome":"+10","Keys":[1983.6399999912828],"TotalKeys":1,"Block":2,"Trial":230,"Robot":1,"Valence":"Win","Action":"Go","Sham":0,"Color":"yellow","trial_type":"pit-trial","trial_index":249,"time_elapsed":1315169,"internal_node_id":"0.0-238.0","task_version":"test-retest-t3"},{"Rune":"rune_06_ehwaz","Hex":"#ffcc3399","Correct":-1,"Choice":-1,"RT":-1,"Accuracy":1,"Outcome":"+10","Keys":[],"TotalKeys":0,"Block":2,"Trial":231,"Robot":2,"Valence":"Win","Action":"No-Go","Sham":0,"Color":"yellow","trial_type":"pit-trial","trial_index":250,"time_elapsed":1319172,"internal_node_id":"0.0-239.0","task_version":"test-retest-t3"},{"Rune":"rune_06_ansuz","Hex":"#3366ff99","Correct":32,"Choice":32,"RT":396.00000000791624,"Accuracy":1,"Outcome":"-10","Keys":[1896.550000004936],"TotalKeys":1,"Block":2,"Trial":232,"Robot":3,"Valence":"Lose","Action":"Go","Sham":1,"Color":"blue","trial_type":"pit-trial","trial_index":251,"time_elapsed":1322072,"internal_node_id":"0.0-240.0","task_version":"test-retest-t3"},{"Rune":"rune_06_ehwaz","Hex":"#ffcc3399","Correct":-1,"Choice":-1,"RT":-1,"Accuracy":1,"Outcome":"+10","Keys":[],"TotalKeys":0,"Block":2,"Trial":233,"Robot":2,"Valence":"Win","Action":"No-Go","Sham":0,"Color":"yellow","trial_type":"pit-trial","trial_index":252,"time_elapsed":1326077,"internal_node_id":"0.0-241.0","task_version":"test-retest-t3"},{"Rune":"rune_06_ansuz","Hex":"#3366ff99","Correct":32,"Choice":32,"RT":344.7699999669567,"Accuracy":1,"Outcome":"-1","Keys":[1846.1249999818392],"TotalKeys":1,"Block":2,"Trial":234,"Robot":3,"Valence":"Lose","Action":"Go","Sham":0,"Color":"blue","trial_type":"pit-trial","trial_index":253,"time_elapsed":1328926,"internal_node_id":"0.0-242.0","task_version":"test-retest-t3"},{"Rune":"rune_06_berkanan","Hex":"#3366ff99","Correct":-1,"Choice":-1,"RT":-1,"Accuracy":1,"Outcome":"-1","Keys":[],"TotalKeys":0,"Block":2,"Trial":235,"Robot":4,"Valence":"Lose","Action":"No-Go","Sham":0,"Color":"blue","trial_type":"pit-trial","trial_index":254,"time_elapsed":1332931,"internal_node_id":"0.0-243.0","task_version":"test-retest-t3"},{"Rune":"rune_06_cweord","Hex":"#ffcc3399","Correct":32,"Choice":32,"RT":347.46499999891967,"Accuracy":1,"Outcome":"+1","Keys":[1848.9349999581464],"TotalKeys":1,"Block":2,"Trial":236,"Robot":1,"Valence":"Win","Action":"Go","Sham":1,"Color":"yellow","trial_type":"pit-trial","trial_index":255,"time_elapsed":1335782,"internal_node_id":"0.0-244.0","task_version":"test-retest-t3"},{"Rune":"rune_06_ansuz","Hex":"#3366ff99","Correct":32,"Choice":32,"RT":402.0850000088103,"Accuracy":1,"Outcome":"-1","Keys":[1903.2599999918602],"TotalKeys":1,"Block":2,"Trial":237,"Robot":3,"Valence":"Lose","Action":"Go","Sham":0,"Color":"blue","trial_type":"pit-trial","trial_index":256,"time_elapsed":1338688,"internal_node_id":"0.0-245.0","task_version":"test-retest-t3"},{"Rune":"rune_06_berkanan","Hex":"#3366ff99","Correct":-1,"Choice":-1,"RT":-1,"Accuracy":1,"Outcome":"-10","Keys":[],"TotalKeys":0,"Block":2,"Trial":238,"Robot":4,"Valence":"Lose","Action":"No-Go","Sham":1,"Color":"blue","trial_type":"pit-trial","trial_index":257,"time_elapsed":1342692,"internal_node_id":"0.0-246.0","task_version":"test-retest-t3"},{"Rune":"rune_06_ehwaz","Hex":"#ffcc3399","Correct":-1,"Choice":-1,"RT":-1,"Accuracy":1,"Outcome":"+1","Keys":[],"TotalKeys":0,"Block":2,"Trial":239,"Robot":2,"Valence":"Win","Action":"No-Go","Sham":1,"Color":"yellow","trial_type":"pit-trial","trial_index":258,"time_elapsed":1346696,"internal_node_id":"0.0-247.0","task_version":"test-retest-t3"},{"Rune":"rune_06_cweord","Hex":"#ffcc3399","Correct":32,"Choice":32,"RT":269.28000000771135,"Accuracy":1,"Outcome":"+10","Keys":[1769.5249999524094],"TotalKeys":1,"Block":2,"Trial":240,"Robot":1,"Valence":"Win","Action":"Go","Sham":0,"Color":"yellow","trial_type":"pit-trial","trial_index":259,"time_elapsed":1349468,"internal_node_id":"0.0-248.0","task_version":"test-retest-t3"},{"view_history":"[{\"page_index\":0,\"viewing_time\":1210063.6500000255}]","rt":1210064.2000000225,"trial_type":"pit-instructions","trial_index":260,"time_elapsed":2559534,"internal_node_id":"0.0-249.0","task_version":"test-retest-t3"},{"rt":13564.49000001885,"responses":{"difficulty":"4","fun":"2","clarity":"5","strategy":"No, I did not.","feedback":""},"survey":"debrief","trial_type":"survey-debrief","trial_index":261,"time_elapsed":2573101,"internal_node_id":"0.0-250.0","task_version":"test-retest-t3"},{"rt":1836.1450000084005,"stimulus":"You earned a bonus of $1.42 out of $1.5.<br><br>Press any key to complete the experiment.","key_press":32,"trial_type":"html-keyboard-response","trial_index":262,"time_elapsed":2574940,"internal_node_id":"0.0-251.0","task_version":"test-retest-t3","accuracy":0.9458333333333333,"bonus":1.42,"interactions":"[{\"event\":\"blur\",\"trial\":12,\"time\":56487},{\"event\":\"focus\",\"trial\":12,\"time\":146901},{\"event\":\"blur\",\"trial\":77,\"time\":411973},{\"event\":\"focus\",\"trial\":77,\"time\":433815},{\"event\":\"blur\",\"trial\":77,\"time\":434764},{\"event\":\"focus\",\"trial\":77,\"time\":436511},{\"event\":\"blur\",\"trial\":77,\"time\":438215},{\"event\":\"focus\",\"trial\":77,\"time\":579890},{\"event\":\"blur\",\"trial\":77,\"time\":579893},{\"event\":\"focus\",\"trial\":77,\"time\":583761},{\"event\":\"blur\",\"trial\":77,\"time\":584870},{\"event\":\"focus\",\"trial\":77,\"time\":598071},{\"event\":\"blur\",\"trial\":77,\"time\":598148},{\"event\":\"focus\",\"trial\":77,\"time\":598440},{\"event\":\"blur\",\"trial\":77,\"time\":599697},{\"event\":\"focus\",\"trial\":77,\"time\":604907},{\"event\":\"blur\",\"trial\":77,\"time\":606376},{\"event\":\"focus\",\"trial\":77,\"time\":610426},{\"event\":\"blur\",\"trial\":77,\"time\":614324},{\"event\":\"focus\",\"trial\":77,\"time\":650090},{\"event\":\"blur\",\"trial\":199,\"time\":1091987},{\"event\":\"focus\",\"trial\":199,\"time\":1103243},{\"event\":\"blur\",\"trial\":199,\"time\":1103853},{\"event\":\"focus\",\"trial\":199,\"time\":1111913},{\"event\":\"blur\",\"trial\":199,\"time\":1113092},{\"event\":\"focus\",\"trial\":199,\"time\":1136162},{\"event\":\"blur\",\"trial\":219,\"time\":1204752},{\"event\":\"focus\",\"trial\":219,\"time\":1207018},{\"event\":\"blur\",\"trial\":260,\"time\":2078054},{\"event\":\"focus\",\"trial\":260,\"time\":2081879},{\"event\":\"blur\",\"trial\":260,\"time\":2084846},{\"event\":\"focus\",\"trial\":260,\"time\":2084890},{\"event\":\"blur\",\"trial\":260,\"time\":2084938},{\"event\":\"focus\",\"trial\":260,\"time\":2085002},{\"event\":\"blur\",\"trial\":260,\"time\":2085402},{\"event\":\"focus\",\"trial\":260,\"time\":2085422},{\"event\":\"blur\",\"trial\":260,\"time\":2085494},{\"event\":\"focus\",\"trial\":260,\"time\":2085494},{\"event\":\"blur\",\"trial\":260,\"time\":2085614},{\"event\":\"focus\",\"trial\":260,\"time\":2085631},{\"event\":\"blur\",\"trial\":260,\"time\":2086485},{\"event\":\"focus\",\"trial\":260,\"time\":2558317},{\"event\":\"blur\",\"trial\":261,\"time\":2561015},{\"event\":\"focus\",\"trial\":261,\"time\":2562962}]"}]