[{"view_history":"[{\"page_index\":0,\"viewing_time\":1744.1600000020117}]","rt":1744.4099999847822,"trial_type":"instructions","trial_index":0,"time_elapsed":1755,"internal_node_id":"0.0-0.0","task_version":"battery-v0.2-trt","session":3},{"slider_type":"valence","raw_loc":362,"loc":0.224,"trial_type":"affective-slider","trial_index":1,"time_elapsed":4927,"internal_node_id":"0.0-1.0","task_version":"battery-v0.2-trt","session":3},{"responses":{"Q06":"0","Q03":"2","Q02":"1","Q04":"2","Q01":"0","Q05":"1","Q08":"3","Q07":"2"},"rt":21255.265000043437,"item_order":[5,2,1,3,0,4,7,6],"radio_events":[2189.0450000064448,3351.1700000381097,4962.875000026543,9368.97000001045,10342.015000001993,14876.950000005309,15889.02500004042,17681.86000001151],"key_events":[],"mouse_events":[2189.0450000064448,3351.1700000381097,4962.875000026543,7904.940000036731,8805.990000022575,9368.97000001045,10342.015000001993,11943.900000012945,14876.950000005309,15889.02500004042,16860.344999993686,17681.86000001151,21254.065000044648],"straightlining":0.375,"zigzagging":0.5714285714285714,"survey":"dass_d","trial_type":"survey-template","trial_index":2,"time_elapsed":26184,"internal_node_id":"0.0-2.0","task_version":"battery-v0.2-trt","session":3,"infrequency":0},{"responses":{"Q03":"3","Q07":"1","Q01":"1","Q04":"1","Q05":"0","Q06":"2","Q08":"0","Q02":"1"},"rt":35367.88000003435,"item_order":[2,6,0,3,4,5,7,1],"radio_events":[2377.154999994673,3908.6499999975786,4461.370000033639,5263.035000010859,7757.105000026058,9117.72000003839,10539.99499999918,16983.995000016876],"key_events":[],"mouse_events":[2377.154999994673,3908.6499999975786,4461.370000033639,5263.035000010859,6474.915000027977,7757.105000026058,9117.72000003839,10539.99499999918,16661.684999999125,16983.995000016876,35366.92000000039],"straightlining":0.5,"zigzagging":0.2857142857142857,"survey":"gad7","trial_type":"survey-template","trial_index":3,"time_elapsed":61555,"internal_node_id":"0.0-3.0","task_version":"battery-v0.2-trt","session":3,"infrequency":0},{"view_history":"[{\"page_index\":0,\"viewing_time\":1907.87499997532},{\"page_index\":1,\"viewing_time\":1151.7050000256859},{\"page_index\":2,\"viewing_time\":1171.0500000044703},{\"page_index\":3,\"viewing_time\":1321.9349999562837},{\"page_index\":4,\"viewing_time\":1603.159999998752},{\"page_index\":5,\"viewing_time\":1321.8500000075437},{\"page_index\":6,\"viewing_time\":2010.9950000187382},{\"page_index\":7,\"viewing_time\":5622.964999987744},{\"page_index\":8,\"viewing_time\":4211.175000004005},{\"page_index\":9,\"viewing_time\":1341.9350000331178}]","rt":21665.06999998819,"trial_type":"pit-instructions","trial_index":4,"time_elapsed":83223,"internal_node_id":"0.0-4.0-0.0","task_version":"battery-v0.2-trt","session":3},{"rune":"1","rune_set":"elianto","hex":"#3366ff99","correct":32,"choice":32,"rt":307.1599999675527,"accuracy":1,"outcome":"+10","keys":[1807.9799999832176],"total_keys":1,"block":0,"practice":1,"trial_type":"pit-trial","trial_index":5,"time_elapsed":86234,"internal_node_id":"0.0-4.0-1.0-0.0","task_version":"battery-v0.2-trt","session":3},{"rune":"1","rune_set":"elianto","hex":"#3366ff99","correct":32,"choice":32,"rt":409.24000000813976,"accuracy":1,"outcome":"+10","keys":[1909.3449999927543],"total_keys":1,"block":0,"practice":1,"trial_type":"pit-trial","trial_index":6,"time_elapsed":89345,"internal_node_id":"0.0-4.0-1.1-0.1","task_version":"battery-v0.2-trt","session":3},{"rune":"1","rune_set":"elianto","hex":"#3366ff99","correct":32,"choice":32,"rt":264.61499999277294,"accuracy":1,"outcome":"+10","keys":[1766.379999986384],"total_keys":1,"block":0,"practice":1,"trial_type":"pit-trial","trial_index":7,"time_elapsed":92313,"internal_node_id":"0.0-4.0-1.2-0.2","task_version":"battery-v0.2-trt","session":3},{"rune":"1","rune_set":"elianto","hex":"#3366ff99","correct":32,"choice":32,"rt":297.11499996483326,"accuracy":1,"outcome":"+10","keys":[1798.369999974966],"total_keys":1,"block":0,"practice":1,"trial_type":"pit-trial","trial_index":8,"time_elapsed":95314,"internal_node_id":"0.0-4.0-1.3-0.3","task_version":"battery-v0.2-trt","session":3},{"trial_type":"call-function","trial_index":9,"time_elapsed":95315,"internal_node_id":"0.0-4.0-2.0","task_version":"battery-v0.2-trt","session":3},{"view_history":"[{\"page_index\":0,\"viewing_time\":3208.0999999889173},{\"page_index\":1,\"viewing_time\":881.9650000077672}]","rt":4090.3849999886006,"trial_type":"pit-instructions","trial_index":10,"time_elapsed":99405,"internal_node_id":"0.0-4.0-3.0","task_version":"battery-v0.2-trt","session":3},{"rune":"2","rune_set":"elianto","hex":"#3366ff99","correct":-1,"choice":-1,"rt":-1,"accuracy":1,"outcome":"+10","keys":[],"total_keys":0,"block":0,"practice":2,"trial_type":"pit-trial","trial_index":11,"time_elapsed":103407,"internal_node_id":"0.0-4.0-4.0-0.0","task_version":"battery-v0.2-trt","session":3},{"rune":"2","rune_set":"elianto","hex":"#3366ff99","correct":-1,"choice":-1,"rt":-1,"accuracy":1,"outcome":"+10","keys":[],"total_keys":0,"block":0,"practice":2,"trial_type":"pit-trial","trial_index":12,"time_elapsed":107412,"internal_node_id":"0.0-4.0-4.1-0.1","task_version":"battery-v0.2-trt","session":3},{"rune":"2","rune_set":"elianto","hex":"#3366ff99","correct":-1,"choice":-1,"rt":-1,"accuracy":1,"outcome":"+10","keys":[],"total_keys":0,"block":0,"practice":2,"trial_type":"pit-trial","trial_index":13,"time_elapsed":111416,"internal_node_id":"0.0-4.0-4.2-0.2","task_version":"battery-v0.2-trt","session":3},{"rune":"2","rune_set":"elianto","hex":"#3366ff99","correct":-1,"choice":-1,"rt":-1,"accuracy":1,"outcome":"+10","keys":[],"total_keys":0,"block":0,"practice":2,"trial_type":"pit-trial","trial_index":14,"time_elapsed":115420,"internal_node_id":"0.0-4.0-4.3-0.3","task_version":"battery-v0.2-trt","session":3},{"trial_type":"call-function","trial_index":15,"time_elapsed":115421,"internal_node_id":"0.0-4.0-5.0","task_version":"battery-v0.2-trt","session":3},{"view_history":"[{\"page_index\":0,\"viewing_time\":10461.59500000067},{\"page_index\":1,\"viewing_time\":1491.6500000399537}]","rt":11953.475000045728,"trial_type":"pit-instructions","trial_index":16,"time_elapsed":127375,"internal_node_id":"0.0-4.0-6.0","task_version":"battery-v0.2-trt","session":3},{"rune":"3","rune_set":"elianto","hex":"#f73b6a7A","correct":-1,"choice":32,"rt":746.4150000014342,"accuracy":0,"outcome":"-10","keys":[2248.2850000378676],"total_keys":1,"block":0,"practice":3,"trial_type":"pit-trial","trial_index":17,"time_elapsed":130826,"internal_node_id":"0.0-4.0-7.0-0.0","task_version":"battery-v0.2-trt","session":3},{"rune":"3","rune_set":"elianto","hex":"#f73b6a7A","correct":-1,"choice":-1,"rt":-1,"accuracy":1,"outcome":"-1","keys":[],"total_keys":0,"block":0,"practice":3,"trial_type":"pit-trial","trial_index":18,"time_elapsed":134830,"internal_node_id":"0.0-4.0-7.1-0.1","task_version":"battery-v0.2-trt","session":3},{"rune":"3","rune_set":"elianto","hex":"#f73b6a7A","correct":-1,"choice":-1,"rt":-1,"accuracy":1,"outcome":"-1","keys":[],"total_keys":0,"block":0,"practice":3,"trial_type":"pit-trial","trial_index":19,"time_elapsed":138833,"internal_node_id":"0.0-4.0-7.2-0.2","task_version":"battery-v0.2-trt","session":3},{"rune":"3","rune_set":"elianto","hex":"#f73b6a7A","correct":-1,"choice":-1,"rt":-1,"accuracy":1,"outcome":"-1","keys":[],"total_keys":0,"block":0,"practice":3,"trial_type":"pit-trial","trial_index":20,"time_elapsed":142836,"internal_node_id":"0.0-4.0-7.3-0.3","task_version":"battery-v0.2-trt","session":3},{"trial_type":"call-function","trial_index":21,"time_elapsed":142836,"internal_node_id":"0.0-4.0-8.0","task_version":"battery-v0.2-trt","session":3},{"view_history":"[{\"page_index\":0,\"viewing_time\":1378.0999999726191},{\"page_index\":1,\"viewing_time\":1021.7450000345707}]","rt":2400.0799999921583,"trial_type":"pit-instructions","trial_index":22,"time_elapsed":145237,"internal_node_id":"0.0-4.0-9.0","task_version":"battery-v0.2-trt","session":3},{"rune":"4","rune_set":"elianto","hex":"#f73b6a7A","correct":32,"choice":-1,"rt":-1,"accuracy":0,"outcome":"-10","keys":[],"total_keys":0,"block":0,"practice":4,"trial_type":"pit-trial","trial_index":23,"time_elapsed":149240,"internal_node_id":"0.0-4.0-10.0-0.0","task_version":"battery-v0.2-trt","session":3},{"rune":"4","rune_set":"elianto","hex":"#f73b6a7A","correct":32,"choice":32,"rt":33.844999969005585,"accuracy":1,"outcome":"-1","keys":[943.0900000152178,1534.6649999846704],"total_keys":2,"block":0,"practice":4,"trial_type":"pit-trial","trial_index":24,"time_elapsed":151979,"internal_node_id":"0.0-4.0-10.1-0.1","task_version":"battery-v0.2-trt","session":3},{"rune":"4","rune_set":"elianto","hex":"#f73b6a7A","correct":32,"choice":32,"rt":231.9850000203587,"accuracy":1,"outcome":"-1","keys":[1732.895000022836],"total_keys":1,"block":0,"practice":4,"trial_type":"pit-trial","trial_index":25,"time_elapsed":154914,"internal_node_id":"0.0-4.0-10.2-0.2","task_version":"battery-v0.2-trt","session":3},{"rune":"4","rune_set":"elianto","hex":"#f73b6a7A","correct":32,"choice":32,"rt":360.5849999585189,"accuracy":1,"outcome":"-1","keys":[1862.0399999781512],"total_keys":1,"block":0,"practice":4,"trial_type":"pit-trial","trial_index":26,"time_elapsed":157978,"internal_node_id":"0.0-4.0-10.3-0.3","task_version":"battery-v0.2-trt","session":3},{"trial_type":"call-function","trial_index":27,"time_elapsed":157978,"internal_node_id":"0.0-4.0-11.0","task_version":"battery-v0.2-trt","session":3},{"view_history":"[{\"page_index\":0,\"viewing_time\":988.405000010971},{\"page_index\":1,\"viewing_time\":1212.8500000108033},{\"page_index\":2,\"viewing_time\":1513.1299999775365},{\"page_index\":3,\"viewing_time\":961.8450000416487},{\"page_index\":4,\"viewing_time\":1322.1799999591894},{\"page_index\":5,\"viewing_time\":791.7600000509992}]","rt":6790.430000051856,"trial_type":"pit-instructions","trial_index":28,"time_elapsed":164769,"internal_node_id":"0.0-4.0-12.0","task_version":"battery-v0.2-trt","session":3},{"responses":["Press SPACE","+10","-1","True","True"],"num_errors":0,"rt":14891.8999999878,"trial_type":"pit-comprehension","trial_index":29,"time_elapsed":179663,"internal_node_id":"0.0-4.0-13.0","task_version":"battery-v0.2-trt","session":3},{"view_history":"[{\"page_index\":0,\"viewing_time\":1440.5799999949522},{\"page_index\":1,\"viewing_time\":1551.7199999885634}]","rt":2992.5749999820255,"trial_type":"pit-instructions","trial_index":30,"time_elapsed":182657,"internal_node_id":"0.0-5.0","task_version":"battery-v0.2-trt","session":3},{"rune":"R","rune_set":"elianto","hex":"#3366ff99","correct":-1,"choice":32,"rt":216.93500003311783,"accuracy":0,"outcome":"+1","keys":[1717.9650000180118],"total_keys":1,"block":1,"trial":1,"stimulus":1,"robot":2,"valence":"win","action":"no-go","sham":0,"trial_type":"pit-trial","trial_index":31,"time_elapsed":185578,"internal_node_id":"0.0-6.0","task_version":"battery-v0.2-trt","session":3},{"rune":"M","rune_set":"elianto","hex":"#3366ff99","correct":-1,"choice":32,"rt":520.9199999808334,"accuracy":0,"outcome":"+1","keys":[2022.0550000085495],"total_keys":1,"block":1,"trial":2,"stimulus":0,"robot":2,"valence":"win","action":"no-go","sham":0,"trial_type":"pit-trial","trial_index":32,"time_elapsed":188802,"internal_node_id":"0.0-7.0","task_version":"battery-v0.2-trt","session":3},{"rune":"H","rune_set":"elianto","hex":"#f73b6a7A","correct":32,"choice":32,"rt":912.7599999774247,"accuracy":1,"outcome":"-1","keys":[2413.005000038538],"total_keys":1,"block":1,"trial":3,"stimulus":3,"robot":3,"valence":"lose","action":"go","sham":0,"trial_type":"pit-trial","trial_index":33,"time_elapsed":192417,"internal_node_id":"0.0-8.0","task_version":"battery-v0.2-trt","session":3},{"rune":"Y","rune_set":"elianto","hex":"#3366ff99","correct":32,"choice":32,"rt":912.819999968633,"accuracy":1,"outcome":"+10","keys":[2414.27999996813],"total_keys":1,"block":1,"trial":4,"stimulus":2,"robot":1,"valence":"win","action":"go","sham":0,"trial_type":"pit-trial","trial_index":34,"time_elapsed":196034,"internal_node_id":"0.0-9.0","task_version":"battery-v0.2-trt","session":3},{"rune":"R","rune_set":"elianto","hex":"#3366ff99","correct":-1,"choice":-1,"rt":-1,"accuracy":1,"outcome":"+10","keys":[],"total_keys":0,"block":1,"trial":5,"stimulus":1,"robot":2,"valence":"win","action":"no-go","sham":0,"trial_type":"pit-trial","trial_index":35,"time_elapsed":200036,"internal_node_id":"0.0-10.0","task_version":"battery-v0.2-trt","session":3},{"rune":"H","rune_set":"elianto","hex":"#f73b6a7A","correct":32,"choice":32,"rt":597.5399999879301,"accuracy":1,"outcome":"-1","keys":[2098.9249999984168],"total_keys":1,"block":1,"trial":6,"stimulus":3,"robot":3,"valence":"lose","action":"go","sham":0,"trial_type":"pit-trial","trial_index":36,"time_elapsed":203338,"internal_node_id":"0.0-11.0","task_version":"battery-v0.2-trt","session":3},{"rune":"M","rune_set":"elianto","hex":"#3366ff99","correct":-1,"choice":-1,"rt":-1,"accuracy":1,"outcome":"+10","keys":[],"total_keys":0,"block":1,"trial":7,"stimulus":0,"robot":2,"valence":"win","action":"no-go","sham":0,"trial_type":"pit-trial","trial_index":37,"time_elapsed":207342,"internal_node_id":"0.0-12.0","task_version":"battery-v0.2-trt","session":3},{"rune":"Y","rune_set":"elianto","hex":"#3366ff99","correct":32,"choice":32,"rt":1035.8700000215322,"accuracy":1,"outcome":"+10","keys":[2537.575000023935],"total_keys":1,"block":1,"trial":8,"stimulus":2,"robot":1,"valence":"win","action":"go","sham":0,"trial_type":"pit-trial","trial_index":38,"time_elapsed":211081,"internal_node_id":"0.0-13.0","task_version":"battery-v0.2-trt","session":3},{"rune":"R","rune_set":"elianto","hex":"#3366ff99","correct":-1,"choice":-1,"rt":-1,"accuracy":1,"outcome":"+1","keys":[],"total_keys":0,"block":1,"trial":9,"stimulus":1,"robot":2,"valence":"win","action":"no-go","sham":1,"trial_type":"pit-trial","trial_index":39,"time_elapsed":215085,"internal_node_id":"0.0-14.0","task_version":"battery-v0.2-trt","session":3},{"rune":"H","rune_set":"elianto","hex":"#f73b6a7A","correct":32,"choice":32,"rt":468.66999997291714,"accuracy":1,"outcome":"-1","keys":[1970.4649999621324],"total_keys":1,"block":1,"trial":10,"stimulus":3,"robot":3,"valence":"lose","action":"go","sham":0,"trial_type":"pit-trial","trial_index":40,"time_elapsed":218257,"internal_node_id":"0.0-15.0","task_version":"battery-v0.2-trt","session":3},{"rune":"M","rune_set":"elianto","hex":"#3366ff99","correct":-1,"choice":-1,"rt":-1,"accuracy":1,"outcome":"+10","keys":[],"total_keys":0,"block":1,"trial":11,"stimulus":0,"robot":2,"valence":"win","action":"no-go","sham":0,"trial_type":"pit-trial","trial_index":41,"time_elapsed":222260,"internal_node_id":"0.0-16.0","task_version":"battery-v0.2-trt","session":3},{"rune":"Y","rune_set":"elianto","hex":"#3366ff99","correct":32,"choice":32,"rt":806.174999976065,"accuracy":1,"outcome":"+1","keys":[2307.0400000433438],"total_keys":1,"block":1,"trial":12,"stimulus":2,"robot":1,"valence":"win","action":"go","sham":1,"trial_type":"pit-trial","trial_index":42,"time_elapsed":225769,"internal_node_id":"0.0-17.0","task_version":"battery-v0.2-trt","session":3},{"rune":"M","rune_set":"elianto","hex":"#3366ff99","correct":-1,"choice":-1,"rt":-1,"accuracy":1,"outcome":"+10","keys":[],"total_keys":0,"block":1,"trial":13,"stimulus":0,"robot":2,"valence":"win","action":"no-go","sham":0,"trial_type":"pit-trial","trial_index":43,"time_elapsed":229772,"internal_node_id":"0.0-18.0","task_version":"battery-v0.2-trt","session":3},{"rune":"H","rune_set":"elianto","hex":"#f73b6a7A","correct":32,"choice":32,"rt":526.2899999506772,"accuracy":1,"outcome":"-1","keys":[2026.9950000219978],"total_keys":1,"block":1,"trial":14,"stimulus":3,"robot":3,"valence":"lose","action":"go","sham":0,"trial_type":"pit-trial","trial_index":44,"time_elapsed":233001,"internal_node_id":"0.0-19.0","task_version":"battery-v0.2-trt","session":3},{"rune":"R","rune_set":"elianto","hex":"#3366ff99","correct":-1,"choice":-1,"rt":-1,"accuracy":1,"outcome":"+10","keys":[],"total_keys":0,"block":1,"trial":15,"stimulus":1,"robot":2,"valence":"win","action":"no-go","sham":0,"trial_type":"pit-trial","trial_index":45,"time_elapsed":237003,"internal_node_id":"0.0-20.0","task_version":"battery-v0.2-trt","session":3},{"rune":"Y","rune_set":"elianto","hex":"#3366ff99","correct":32,"choice":32,"rt":774.9699999694712,"accuracy":1,"outcome":"+10","keys":[2275.9550000191666],"total_keys":1,"block":1,"trial":16,"stimulus":2,"robot":1,"valence":"win","action":"go","sham":0,"trial_type":"pit-trial","trial_index":46,"time_elapsed":240481,"internal_node_id":"0.0-21.0","task_version":"battery-v0.2-trt","session":3},{"rune":"R","rune_set":"elianto","hex":"#3366ff99","correct":-1,"choice":-1,"rt":-1,"accuracy":1,"outcome":"+10","keys":[],"total_keys":0,"block":1,"trial":17,"stimulus":1,"robot":2,"valence":"win","action":"no-go","sham":0,"trial_type":"pit-trial","trial_index":47,"time_elapsed":244486,"internal_node_id":"0.0-22.0","task_version":"battery-v0.2-trt","session":3},{"rune":"M","rune_set":"elianto","hex":"#3366ff99","correct":-1,"choice":-1,"rt":-1,"accuracy":1,"outcome":"+10","keys":[],"total_keys":0,"block":1,"trial":18,"stimulus":0,"robot":2,"valence":"win","action":"no-go","sham":0,"trial_type":"pit-trial","trial_index":48,"time_elapsed":248490,"internal_node_id":"0.0-23.0","task_version":"battery-v0.2-trt","session":3},{"rune":"H","rune_set":"elianto","hex":"#f73b6a7A","correct":32,"choice":32,"rt":599.4300000020303,"accuracy":1,"outcome":"-1","keys":[2100.399999995716],"total_keys":1,"block":1,"trial":19,"stimulus":3,"robot":3,"valence":"lose","action":"go","sham":0,"trial_type":"pit-trial","trial_index":49,"time_elapsed":251794,"internal_node_id":"0.0-24.0","task_version":"battery-v0.2-trt","session":3},{"rune":"Y","rune_set":"elianto","hex":"#3366ff99","correct":32,"choice":-1,"rt":-1,"accuracy":0,"outcome":"+1","keys":[],"total_keys":0,"block":1,"trial":20,"stimulus":2,"robot":1,"valence":"win","action":"go","sham":0,"trial_type":"pit-trial","trial_index":50,"time_elapsed":255797,"internal_node_id":"0.0-25.0","task_version":"battery-v0.2-trt","session":3},{"rune":"M","rune_set":"elianto","hex":"#3366ff99","correct":-1,"choice":-1,"rt":-1,"accuracy":1,"outcome":"+10","keys":[],"total_keys":0,"block":1,"trial":21,"stimulus":0,"robot":2,"valence":"win","action":"no-go","sham":0,"trial_type":"pit-trial","trial_index":51,"time_elapsed":259801,"internal_node_id":"0.0-26.0","task_version":"battery-v0.2-trt","session":3},{"rune":"H","rune_set":"elianto","hex":"#f73b6a7A","correct":32,"choice":32,"rt":425.1100000110455,"accuracy":1,"outcome":"-1","keys":[1926.6649999772198],"total_keys":1,"block":1,"trial":22,"stimulus":3,"robot":3,"valence":"lose","action":"go","sham":0,"trial_type":"pit-trial","trial_index":52,"time_elapsed":262929,"internal_node_id":"0.0-27.0","task_version":"battery-v0.2-trt","session":3},{"rune":"R","rune_set":"elianto","hex":"#3366ff99","correct":-1,"choice":-1,"rt":-1,"accuracy":1,"outcome":"+1","keys":[],"total_keys":0,"block":1,"trial":23,"stimulus":1,"robot":2,"valence":"win","action":"no-go","sham":1,"trial_type":"pit-trial","trial_index":53,"time_elapsed":266933,"internal_node_id":"0.0-28.0","task_version":"battery-v0.2-trt","session":3},{"rune":"Y","rune_set":"elianto","hex":"#3366ff99","correct":32,"choice":32,"rt":412.58500004187226,"accuracy":1,"outcome":"+10","keys":[1913.7599999667145],"total_keys":1,"block":1,"trial":24,"stimulus":2,"robot":1,"valence":"win","action":"go","sham":0,"trial_type":"pit-trial","trial_index":54,"time_elapsed":270050,"internal_node_id":"0.0-29.0","task_version":"battery-v0.2-trt","session":3},{"rune":"R","rune_set":"elianto","hex":"#3366ff99","correct":-1,"choice":-1,"rt":-1,"accuracy":1,"outcome":"+10","keys":[],"total_keys":0,"block":1,"trial":25,"stimulus":1,"robot":2,"valence":"win","action":"no-go","sham":0,"trial_type":"pit-trial","trial_index":55,"time_elapsed":274053,"internal_node_id":"0.0-30.0","task_version":"battery-v0.2-trt","session":3},{"rune":"Y","rune_set":"elianto","hex":"#3366ff99","correct":32,"choice":32,"rt":684.769999992568,"accuracy":1,"outcome":"+10","keys":[2185.505000001285],"total_keys":1,"block":1,"trial":26,"stimulus":2,"robot":1,"valence":"win","action":"go","sham":0,"trial_type":"pit-trial","trial_index":56,"time_elapsed":277440,"internal_node_id":"0.0-31.0","task_version":"battery-v0.2-trt","session":3},{"rune":"H","rune_set":"elianto","hex":"#f73b6a7A","correct":32,"choice":32,"rt":490.33000000054017,"accuracy":1,"outcome":"-10","keys":[1990.6099999789149],"total_keys":1,"block":1,"trial":27,"stimulus":3,"robot":3,"valence":"lose","action":"go","sham":1,"trial_type":"pit-trial","trial_index":57,"time_elapsed":280634,"internal_node_id":"0.0-32.0","task_version":"battery-v0.2-trt","session":3},{"rune":"M","rune_set":"elianto","hex":"#3366ff99","correct":-1,"choice":-1,"rt":-1,"accuracy":1,"outcome":"+10","keys":[],"total_keys":0,"block":1,"trial":28,"stimulus":0,"robot":2,"valence":"win","action":"no-go","sham":0,"trial_type":"pit-trial","trial_index":58,"time_elapsed":284637,"internal_node_id":"0.0-33.0","task_version":"battery-v0.2-trt","session":3},{"rune":"H","rune_set":"elianto","hex":"#f73b6a7A","correct":32,"choice":32,"rt":485.4349999804981,"accuracy":1,"outcome":"-1","keys":[1986.3299999851733],"total_keys":1,"block":1,"trial":29,"stimulus":3,"robot":3,"valence":"lose","action":"go","sham":0,"trial_type":"pit-trial","trial_index":59,"time_elapsed":287825,"internal_node_id":"0.0-34.0","task_version":"battery-v0.2-trt","session":3},{"rune":"M","rune_set":"elianto","hex":"#3366ff99","correct":-1,"choice":-1,"rt":-1,"accuracy":1,"outcome":"+10","keys":[],"total_keys":0,"block":1,"trial":30,"stimulus":0,"robot":2,"valence":"win","action":"no-go","sham":0,"trial_type":"pit-trial","trial_index":60,"time_elapsed":291829,"internal_node_id":"0.0-35.0","task_version":"battery-v0.2-trt","session":3},{"rune":"R","rune_set":"elianto","hex":"#3366ff99","correct":-1,"choice":-1,"rt":-1,"accuracy":1,"outcome":"+10","keys":[],"total_keys":0,"block":1,"trial":31,"stimulus":1,"robot":2,"valence":"win","action":"no-go","sham":0,"trial_type":"pit-trial","trial_index":61,"time_elapsed":295833,"internal_node_id":"0.0-36.0","task_version":"battery-v0.2-trt","session":3},{"rune":"Y","rune_set":"elianto","hex":"#3366ff99","correct":32,"choice":32,"rt":816.835000005085,"accuracy":1,"outcome":"+1","keys":[2317.6499999826774],"total_keys":1,"block":1,"trial":32,"stimulus":2,"robot":1,"valence":"win","action":"go","sham":1,"trial_type":"pit-trial","trial_index":62,"time_elapsed":299354,"internal_node_id":"0.0-37.0","task_version":"battery-v0.2-trt","session":3},{"rune":"M","rune_set":"elianto","hex":"#3366ff99","correct":-1,"choice":-1,"rt":-1,"accuracy":1,"outcome":"+1","keys":[],"total_keys":0,"block":1,"trial":33,"stimulus":0,"robot":2,"valence":"win","action":"no-go","sham":1,"trial_type":"pit-trial","trial_index":63,"time_elapsed":303357,"internal_node_id":"0.0-38.0","task_version":"battery-v0.2-trt","session":3},{"rune":"Y","rune_set":"elianto","hex":"#3366ff99","correct":32,"choice":32,"rt":1099.35500001302,"accuracy":1,"outcome":"+10","keys":[2601.150000002235],"total_keys":1,"block":1,"trial":34,"stimulus":2,"robot":1,"valence":"win","action":"go","sham":0,"trial_type":"pit-trial","trial_index":64,"time_elapsed":307162,"internal_node_id":"0.0-39.0","task_version":"battery-v0.2-trt","session":3},{"rune":"C","rune_set":"elianto","hex":"#f73b6a7A","correct":32,"choice":32,"rt":1095.0249999877997,"accuracy":1,"outcome":"-10","keys":[2596.040000033099],"total_keys":1,"block":1,"trial":35,"stimulus":5,"robot":3,"valence":"lose","action":"go","sham":1,"trial_type":"pit-trial","trial_index":65,"time_elapsed":310960,"internal_node_id":"0.0-40.0","task_version":"battery-v0.2-trt","session":3},{"rune":"Z","rune_set":"elianto","hex":"#f73b6a7A","correct":-1,"choice":32,"rt":1017.8750000195578,"accuracy":0,"outcome":"-1","keys":[2518.2199999690056],"total_keys":1,"block":1,"trial":36,"stimulus":4,"robot":4,"valence":"lose","action":"no-go","sham":1,"trial_type":"pit-trial","trial_index":66,"time_elapsed":314681,"internal_node_id":"0.0-41.0","task_version":"battery-v0.2-trt","session":3},{"rune":"Y","rune_set":"elianto","hex":"#3366ff99","correct":32,"choice":32,"rt":655.3149999817833,"accuracy":1,"outcome":"+10","keys":[2157.100000011269],"total_keys":1,"block":1,"trial":37,"stimulus":2,"robot":1,"valence":"win","action":"go","sham":0,"trial_type":"pit-trial","trial_index":67,"time_elapsed":318041,"internal_node_id":"0.0-42.0","task_version":"battery-v0.2-trt","session":3},{"rune":"C","rune_set":"elianto","hex":"#f73b6a7A","correct":32,"choice":-1,"rt":-1,"accuracy":0,"outcome":"-10","keys":[],"total_keys":0,"block":1,"trial":38,"stimulus":5,"robot":3,"valence":"lose","action":"go","sham":0,"trial_type":"pit-trial","trial_index":68,"time_elapsed":322044,"internal_node_id":"0.0-43.0","task_version":"battery-v0.2-trt","session":3},{"rune":"Z","rune_set":"elianto","hex":"#f73b6a7A","correct":-1,"choice":32,"rt":1006.2349999789149,"accuracy":0,"outcome":"-10","keys":[2506.7649999982677],"total_keys":1,"block":1,"trial":39,"stimulus":4,"robot":4,"valence":"lose","action":"no-go","sham":0,"trial_type":"pit-trial","trial_index":69,"time_elapsed":325753,"internal_node_id":"0.0-44.0","task_version":"battery-v0.2-trt","session":3},{"rune":"M","rune_set":"elianto","hex":"#3366ff99","correct":-1,"choice":-1,"rt":-1,"accuracy":1,"outcome":"+10","keys":[],"total_keys":0,"block":1,"trial":40,"stimulus":0,"robot":2,"valence":"win","action":"no-go","sham":0,"trial_type":"pit-trial","trial_index":70,"time_elapsed":329756,"internal_node_id":"0.0-45.0","task_version":"battery-v0.2-trt","session":3},{"rune":"Y","rune_set":"elianto","hex":"#3366ff99","correct":32,"choice":32,"rt":597.7100000018254,"accuracy":1,"outcome":"+10","keys":[2098.7249999889173],"total_keys":1,"block":1,"trial":41,"stimulus":2,"robot":1,"valence":"win","action":"go","sham":0,"trial_type":"pit-trial","trial_index":71,"time_elapsed":333056,"internal_node_id":"0.0-46.0","task_version":"battery-v0.2-trt","session":3},{"rune":"C","rune_set":"elianto","hex":"#f73b6a7A","correct":32,"choice":-1,"rt":-1,"accuracy":0,"outcome":"-10","keys":[],"total_keys":0,"block":1,"trial":42,"stimulus":5,"robot":3,"valence":"lose","action":"go","sham":0,"trial_type":"pit-trial","trial_index":72,"time_elapsed":337060,"internal_node_id":"0.0-47.0","task_version":"battery-v0.2-trt","session":3},{"rune":"Z","rune_set":"elianto","hex":"#f73b6a7A","correct":-1,"choice":32,"rt":630.0599999958649,"accuracy":0,"outcome":"-10","keys":[2130.349999992177],"total_keys":1,"block":1,"trial":43,"stimulus":4,"robot":4,"valence":"lose","action":"no-go","sham":0,"trial_type":"pit-trial","trial_index":73,"time_elapsed":340392,"internal_node_id":"0.0-48.0","task_version":"battery-v0.2-trt","session":3},{"rune":"B","rune_set":"elianto","hex":"#3366ff99","correct":-1,"choice":32,"rt":841.115000017453,"accuracy":0,"outcome":"+1","keys":[2342.145000002347],"total_keys":1,"block":1,"trial":44,"stimulus":6,"robot":2,"valence":"win","action":"no-go","sham":0,"trial_type":"pit-trial","trial_index":74,"time_elapsed":343936,"internal_node_id":"0.0-49.0","task_version":"battery-v0.2-trt","session":3},{"rune":"Y","rune_set":"elianto","hex":"#3366ff99","correct":32,"choice":32,"rt":624.0550000220537,"accuracy":1,"outcome":"+10","keys":[2125.9399999980815],"total_keys":1,"block":1,"trial":45,"stimulus":2,"robot":1,"valence":"win","action":"go","sham":0,"trial_type":"pit-trial","trial_index":75,"time_elapsed":347264,"internal_node_id":"0.0-50.0","task_version":"battery-v0.2-trt","session":3},{"rune":"C","rune_set":"elianto","hex":"#f73b6a7A","correct":32,"choice":-1,"rt":-1,"accuracy":0,"outcome":"-10","keys":[],"total_keys":0,"block":1,"trial":46,"stimulus":5,"robot":3,"valence":"lose","action":"go","sham":0,"trial_type":"pit-trial","trial_index":76,"time_elapsed":351271,"internal_node_id":"0.0-51.0","task_version":"battery-v0.2-trt","session":3},{"rune":"B","rune_set":"elianto","hex":"#3366ff99","correct":-1,"choice":-1,"rt":-1,"accuracy":1,"outcome":"+1","keys":[],"total_keys":0,"block":1,"trial":47,"stimulus":6,"robot":2,"valence":"win","action":"no-go","sham":1,"trial_type":"pit-trial","trial_index":77,"time_elapsed":355273,"internal_node_id":"0.0-52.0","task_version":"battery-v0.2-trt","session":3},{"rune":"Z","rune_set":"elianto","hex":"#f73b6a7A","correct":-1,"choice":-1,"rt":-1,"accuracy":1,"outcome":"-1","keys":[],"total_keys":0,"block":1,"trial":48,"stimulus":4,"robot":4,"valence":"lose","action":"no-go","sham":0,"trial_type":"pit-trial","trial_index":78,"time_elapsed":359276,"internal_node_id":"0.0-53.0","task_version":"battery-v0.2-trt","session":3},{"rune":"B","rune_set":"elianto","hex":"#3366ff99","correct":-1,"choice":32,"rt":693.8199999858625,"accuracy":0,"outcome":"+10","keys":[2193.874999997206],"total_keys":1,"block":1,"trial":49,"stimulus":6,"robot":2,"valence":"win","action":"no-go","sham":1,"trial_type":"pit-trial","trial_index":79,"time_elapsed":362672,"internal_node_id":"0.0-54.0","task_version":"battery-v0.2-trt","session":3},{"rune":"C","rune_set":"elianto","hex":"#f73b6a7A","correct":32,"choice":-1,"rt":-1,"accuracy":0,"outcome":"-10","keys":[],"total_keys":0,"block":1,"trial":50,"stimulus":5,"robot":3,"valence":"lose","action":"go","sham":0,"trial_type":"pit-trial","trial_index":80,"time_elapsed":366674,"internal_node_id":"0.0-55.0","task_version":"battery-v0.2-trt","session":3},{"rune":"T","rune_set":"elianto","hex":"#f73b6a7A","correct":-1,"choice":32,"rt":782.8100000042468,"accuracy":0,"outcome":"-10","keys":[2283.9249999960884],"total_keys":1,"block":1,"trial":51,"stimulus":7,"robot":4,"valence":"lose","action":"no-go","sham":0,"trial_type":"pit-trial","trial_index":81,"time_elapsed":370161,"internal_node_id":"0.0-56.0","task_version":"battery-v0.2-trt","session":3},{"rune":"Z","rune_set":"elianto","hex":"#f73b6a7A","correct":-1,"choice":32,"rt":999.7550000553019,"accuracy":0,"outcome":"-10","keys":[2501.654999970924],"total_keys":1,"block":1,"trial":52,"stimulus":4,"robot":4,"valence":"lose","action":"no-go","sham":0,"trial_type":"pit-trial","trial_index":82,"time_elapsed":373864,"internal_node_id":"0.0-57.0","task_version":"battery-v0.2-trt","session":3},{"rune":"C","rune_set":"elianto","hex":"#f73b6a7A","correct":32,"choice":32,"rt":576.6899999580346,"accuracy":1,"outcome":"-1","keys":[2078.064999950584],"total_keys":1,"block":1,"trial":53,"stimulus":5,"robot":3,"valence":"lose","action":"go","sham":0,"trial_type":"pit-trial","trial_index":83,"time_elapsed":377145,"internal_node_id":"0.0-58.0","task_version":"battery-v0.2-trt","session":3},{"rune":"T","rune_set":"elianto","hex":"#f73b6a7A","correct":-1,"choice":-1,"rt":-1,"accuracy":1,"outcome":"-1","keys":[],"total_keys":0,"block":1,"trial":54,"stimulus":7,"robot":4,"valence":"lose","action":"no-go","sham":0,"trial_type":"pit-trial","trial_index":84,"time_elapsed":381148,"internal_node_id":"0.0-59.0","task_version":"battery-v0.2-trt","session":3},{"rune":"B","rune_set":"elianto","hex":"#3366ff99","correct":-1,"choice":32,"rt":613.8800000189804,"accuracy":0,"outcome":"+10","keys":[2113.8950000167824],"total_keys":1,"block":1,"trial":55,"stimulus":6,"robot":2,"valence":"win","action":"no-go","sham":1,"trial_type":"pit-trial","trial_index":85,"time_elapsed":384465,"internal_node_id":"0.0-60.0","task_version":"battery-v0.2-trt","session":3},{"rune":"Z","rune_set":"elianto","hex":"#f73b6a7A","correct":-1,"choice":32,"rt":392.94500002870336,"accuracy":0,"outcome":"-10","keys":[1893.389999982901],"total_keys":1,"block":1,"trial":56,"stimulus":4,"robot":4,"valence":"lose","action":"no-go","sham":0,"trial_type":"pit-trial","trial_index":86,"time_elapsed":387561,"internal_node_id":"0.0-61.0","task_version":"battery-v0.2-trt","session":3},{"rune":"C","rune_set":"elianto","hex":"#f73b6a7A","correct":32,"choice":32,"rt":687.6650000340305,"accuracy":1,"outcome":"-10","keys":[2189.520000014454],"total_keys":1,"block":1,"trial":57,"stimulus":5,"robot":3,"valence":"lose","action":"go","sham":1,"trial_type":"pit-trial","trial_index":87,"time_elapsed":390952,"internal_node_id":"0.0-62.0","task_version":"battery-v0.2-trt","session":3},{"rune":"B","rune_set":"elianto","hex":"#3366ff99","correct":-1,"choice":32,"rt":816.690000006929,"accuracy":0,"outcome":"+10","keys":[2317.4249999574386],"total_keys":1,"block":1,"trial":58,"stimulus":6,"robot":2,"valence":"win","action":"no-go","sham":1,"trial_type":"pit-trial","trial_index":88,"time_elapsed":394473,"internal_node_id":"0.0-63.0","task_version":"battery-v0.2-trt","session":3},{"rune":"T","rune_set":"elianto","hex":"#f73b6a7A","correct":-1,"choice":-1,"rt":-1,"accuracy":1,"outcome":"-10","keys":[],"total_keys":0,"block":1,"trial":59,"stimulus":7,"robot":4,"valence":"lose","action":"no-go","sham":1,"trial_type":"pit-trial","trial_index":89,"time_elapsed":398475,"internal_node_id":"0.0-64.0","task_version":"battery-v0.2-trt","session":3},{"rune":"Z","rune_set":"elianto","hex":"#f73b6a7A","correct":-1,"choice":32,"rt":662.8599999821745,"accuracy":0,"outcome":"-10","keys":[2162.9250000114553],"total_keys":1,"block":1,"trial":60,"stimulus":4,"robot":4,"valence":"lose","action":"no-go","sham":0,"trial_type":"pit-trial","trial_index":90,"time_elapsed":401840,"internal_node_id":"0.0-65.0","task_version":"battery-v0.2-trt","session":3},{"rune":"B","rune_set":"elianto","hex":"#3366ff99","correct":-1,"choice":32,"rt":1081.7249999963678,"accuracy":0,"outcome":"+1","keys":[2582.425000029616],"total_keys":1,"block":1,"trial":61,"stimulus":6,"robot":2,"valence":"win","action":"no-go","sham":0,"trial_type":"pit-trial","trial_index":91,"time_elapsed":405625,"internal_node_id":"0.0-66.0","task_version":"battery-v0.2-trt","session":3},{"rune":"Z","rune_set":"elianto","hex":"#f73b6a7A","correct":-1,"choice":-1,"rt":-1,"accuracy":1,"outcome":"-1","keys":[],"total_keys":0,"block":1,"trial":62,"stimulus":4,"robot":4,"valence":"lose","action":"no-go","sham":0,"trial_type":"pit-trial","trial_index":92,"time_elapsed":409628,"internal_node_id":"0.0-67.0","task_version":"battery-v0.2-trt","session":3},{"rune":"C","rune_set":"elianto","hex":"#f73b6a7A","correct":32,"choice":32,"rt":1069.149999995716,"accuracy":1,"outcome":"-10","keys":[2570.605000015348],"total_keys":1,"block":1,"trial":63,"stimulus":5,"robot":3,"valence":"lose","action":"go","sham":1,"trial_type":"pit-trial","trial_index":93,"time_elapsed":413400,"internal_node_id":"0.0-68.0","task_version":"battery-v0.2-trt","session":3},{"rune":"T","rune_set":"elianto","hex":"#f73b6a7A","correct":-1,"choice":-1,"rt":-1,"accuracy":1,"outcome":"-1","keys":[],"total_keys":0,"block":1,"trial":64,"stimulus":7,"robot":4,"valence":"lose","action":"no-go","sham":0,"trial_type":"pit-trial","trial_index":94,"time_elapsed":417404,"internal_node_id":"0.0-69.0","task_version":"battery-v0.2-trt","session":3},{"rune":"Z","rune_set":"elianto","hex":"#f73b6a7A","correct":-1,"choice":32,"rt":445.4900000127964,"accuracy":0,"outcome":"-10","keys":[1946.0550000076182],"total_keys":1,"block":1,"trial":65,"stimulus":4,"robot":4,"valence":"lose","action":"no-go","sham":0,"trial_type":"pit-trial","trial_index":95,"time_elapsed":420553,"internal_node_id":"0.0-70.0","task_version":"battery-v0.2-trt","session":3},{"rune":"T","rune_set":"elianto","hex":"#f73b6a7A","correct":-1,"choice":-1,"rt":-1,"accuracy":1,"outcome":"-10","keys":[],"total_keys":0,"block":1,"trial":66,"stimulus":7,"robot":4,"valence":"lose","action":"no-go","sham":1,"trial_type":"pit-trial","trial_index":96,"time_elapsed":424556,"internal_node_id":"0.0-71.0","task_version":"battery-v0.2-trt","session":3},{"rune":"B","rune_set":"elianto","hex":"#3366ff99","correct":-1,"choice":32,"rt":493.1049999431707,"accuracy":0,"outcome":"+10","keys":[1993.6699999962002],"total_keys":1,"block":1,"trial":67,"stimulus":6,"robot":2,"valence":"win","action":"no-go","sham":1,"trial_type":"pit-trial","trial_index":97,"time_elapsed":427752,"internal_node_id":"0.0-72.0","task_version":"battery-v0.2-trt","session":3},{"rune":"C","rune_set":"elianto","hex":"#f73b6a7A","correct":32,"choice":32,"rt":497.47500004014,"accuracy":1,"outcome":"-1","keys":[1998.4499999554828],"total_keys":1,"block":1,"trial":68,"stimulus":5,"robot":3,"valence":"lose","action":"go","sham":0,"trial_type":"pit-trial","trial_index":98,"time_elapsed":430953,"internal_node_id":"0.0-73.0","task_version":"battery-v0.2-trt","session":3},{"rune":"Z","rune_set":"elianto","hex":"#f73b6a7A","correct":-1,"choice":32,"rt":353.3649999881163,"accuracy":0,"outcome":"-10","keys":[1853.4750000108033],"total_keys":1,"block":1,"trial":69,"stimulus":4,"robot":4,"valence":"lose","action":"no-go","sham":0,"trial_type":"pit-trial","trial_index":99,"time_elapsed":434009,"internal_node_id":"0.0-74.0","task_version":"battery-v0.2-trt","session":3},{"rune":"T","rune_set":"elianto","hex":"#f73b6a7A","correct":-1,"choice":-1,"rt":-1,"accuracy":1,"outcome":"-1","keys":[],"total_keys":0,"block":1,"trial":70,"stimulus":7,"robot":4,"valence":"lose","action":"no-go","sham":0,"trial_type":"pit-trial","trial_index":100,"time_elapsed":438013,"internal_node_id":"0.0-75.0","task_version":"battery-v0.2-trt","session":3},{"rune":"B","rune_set":"elianto","hex":"#3366ff99","correct":-1,"choice":32,"rt":460.40999999968335,"accuracy":0,"outcome":"+1","keys":[1961.0649999813177],"total_keys":1,"block":1,"trial":71,"stimulus":6,"robot":2,"valence":"win","action":"no-go","sham":0,"trial_type":"pit-trial","trial_index":101,"time_elapsed":441177,"internal_node_id":"0.0-76.0","task_version":"battery-v0.2-trt","session":3},{"rune":"C","rune_set":"elianto","hex":"#f73b6a7A","correct":32,"choice":32,"rt":320.2399999718182,"accuracy":1,"outcome":"-1","keys":[1821.4649999863468],"total_keys":1,"block":1,"trial":72,"stimulus":5,"robot":3,"valence":"lose","action":"go","sham":0,"trial_type":"pit-trial","trial_index":102,"time_elapsed":444201,"internal_node_id":"0.0-77.0","task_version":"battery-v0.2-trt","session":3},{"rune":"B","rune_set":"elianto","hex":"#3366ff99","correct":-1,"choice":32,"rt":456.4799999934621,"accuracy":0,"outcome":"+1","keys":[1956.9299999857321],"total_keys":1,"block":1,"trial":73,"stimulus":6,"robot":2,"valence":"win","action":"no-go","sham":0,"trial_type":"pit-trial","trial_index":103,"time_elapsed":447360,"internal_node_id":"0.0-78.0","task_version":"battery-v0.2-trt","session":3},{"rune":"T","rune_set":"elianto","hex":"#f73b6a7A","correct":-1,"choice":-1,"rt":-1,"accuracy":1,"outcome":"-10","keys":[],"total_keys":0,"block":1,"trial":74,"stimulus":7,"robot":4,"valence":"lose","action":"no-go","sham":1,"trial_type":"pit-trial","trial_index":104,"time_elapsed":451363,"internal_node_id":"0.0-79.0","task_version":"battery-v0.2-trt","session":3},{"rune":"X","rune_set":"elianto","hex":"#f73b6a7A","correct":-1,"choice":32,"rt":854.7699999762699,"accuracy":0,"outcome":"-1","keys":[2355.1950000110082],"total_keys":1,"block":1,"trial":75,"stimulus":8,"robot":4,"valence":"lose","action":"no-go","sham":1,"trial_type":"pit-trial","trial_index":105,"time_elapsed":454921,"internal_node_id":"0.0-80.0","task_version":"battery-v0.2-trt","session":3},{"rune":"C","rune_set":"elianto","hex":"#f73b6a7A","correct":32,"choice":32,"rt":463.564999983646,"accuracy":1,"outcome":"-1","keys":[1965.485000051558],"total_keys":1,"block":1,"trial":76,"stimulus":5,"robot":3,"valence":"lose","action":"go","sham":0,"trial_type":"pit-trial","trial_index":106,"time_elapsed":458088,"internal_node_id":"0.0-81.0","task_version":"battery-v0.2-trt","session":3},{"rune":"C","rune_set":"elianto","hex":"#f73b6a7A","correct":32,"choice":32,"rt":665.7400000258349,"accuracy":1,"outcome":"-1","keys":[2165.804999996908],"total_keys":1,"block":1,"trial":77,"stimulus":5,"robot":3,"valence":"lose","action":"go","sham":0,"trial_type":"pit-trial","trial_index":107,"time_elapsed":461457,"internal_node_id":"0.0-82.0","task_version":"battery-v0.2-trt","session":3},{"rune":"T","rune_set":"elianto","hex":"#f73b6a7A","correct":-1,"choice":-1,"rt":-1,"accuracy":1,"outcome":"-10","keys":[],"total_keys":0,"block":1,"trial":78,"stimulus":7,"robot":4,"valence":"lose","action":"no-go","sham":1,"trial_type":"pit-trial","trial_index":108,"time_elapsed":465461,"internal_node_id":"0.0-83.0","task_version":"battery-v0.2-trt","session":3},{"rune":"X","rune_set":"elianto","hex":"#f73b6a7A","correct":-1,"choice":32,"rt":899.8500000452623,"accuracy":0,"outcome":"-10","keys":[2400.9300000034273],"total_keys":1,"block":1,"trial":79,"stimulus":8,"robot":4,"valence":"lose","action":"no-go","sham":0,"trial_type":"pit-trial","trial_index":109,"time_elapsed":469064,"internal_node_id":"0.0-84.0","task_version":"battery-v0.2-trt","session":3},{"rune":"B","rune_set":"elianto","hex":"#3366ff99","correct":-1,"choice":32,"rt":536.4049999625422,"accuracy":0,"outcome":"+1","keys":[2037.7199999638833],"total_keys":1,"block":1,"trial":80,"stimulus":6,"robot":2,"valence":"win","action":"no-go","sham":0,"trial_type":"pit-trial","trial_index":110,"time_elapsed":472304,"internal_node_id":"0.0-85.0","task_version":"battery-v0.2-trt","session":3},{"rune":"F","rune_set":"elianto","hex":"#3366ff99","correct":32,"choice":32,"rt":809.5800000010058,"accuracy":1,"outcome":"+10","keys":[2310.4199999943376],"total_keys":1,"block":1,"trial":81,"stimulus":9,"robot":1,"valence":"win","action":"go","sham":0,"trial_type":"pit-trial","trial_index":111,"time_elapsed":475816,"internal_node_id":"0.0-86.0","task_version":"battery-v0.2-trt","session":3},{"rune":"N","rune_set":"elianto","hex":"#f73b6a7A","correct":32,"choice":32,"rt":1066.240000014659,"accuracy":1,"outcome":"-1","keys":[2566.3400000194088],"total_keys":1,"block":1,"trial":82,"stimulus":10,"robot":3,"valence":"lose","action":"go","sham":0,"trial_type":"pit-trial","trial_index":112,"time_elapsed":479584,"internal_node_id":"0.0-87.0","task_version":"battery-v0.2-trt","session":3},{"rune":"X","rune_set":"elianto","hex":"#f73b6a7A","correct":-1,"choice":32,"rt":1009.8199999774806,"accuracy":0,"outcome":"-10","keys":[2510.4550000396557],"total_keys":1,"block":1,"trial":83,"stimulus":8,"robot":4,"valence":"lose","action":"no-go","sham":0,"trial_type":"pit-trial","trial_index":113,"time_elapsed":483296,"internal_node_id":"0.0-88.0","task_version":"battery-v0.2-trt","session":3},{"rune":"B","rune_set":"elianto","hex":"#3366ff99","correct":-1,"choice":32,"rt":608.9050000300631,"accuracy":0,"outcome":"+1","keys":[2110.3100000182167],"total_keys":1,"block":1,"trial":84,"stimulus":6,"robot":2,"valence":"win","action":"no-go","sham":0,"trial_type":"pit-trial","trial_index":114,"time_elapsed":486609,"internal_node_id":"0.0-89.0","task_version":"battery-v0.2-trt","session":3},{"rune":"N","rune_set":"elianto","hex":"#f73b6a7A","correct":32,"choice":32,"rt":775.614999991376,"accuracy":1,"outcome":"-1","keys":[2277.1599999978207],"total_keys":1,"block":1,"trial":85,"stimulus":10,"robot":3,"valence":"lose","action":"go","sham":0,"trial_type":"pit-trial","trial_index":115,"time_elapsed":490089,"internal_node_id":"0.0-90.0","task_version":"battery-v0.2-trt","session":3},{"rune":"B","rune_set":"elianto","hex":"#3366ff99","correct":-1,"choice":32,"rt":625.049999973271,"accuracy":0,"outcome":"+1","keys":[2125.159999995958],"total_keys":1,"block":1,"trial":86,"stimulus":6,"robot":2,"valence":"win","action":"no-go","sham":0,"trial_type":"pit-trial","trial_index":116,"time_elapsed":493416,"internal_node_id":"0.0-91.0","task_version":"battery-v0.2-trt","session":3},{"rune":"X","rune_set":"elianto","hex":"#f73b6a7A","correct":-1,"choice":32,"rt":554.210000031162,"accuracy":0,"outcome":"-10","keys":[2054.3450000113808],"total_keys":1,"block":1,"trial":87,"stimulus":8,"robot":4,"valence":"lose","action":"no-go","sham":0,"trial_type":"pit-trial","trial_index":117,"time_elapsed":496672,"internal_node_id":"0.0-92.0","task_version":"battery-v0.2-trt","session":3},{"rune":"F","rune_set":"elianto","hex":"#3366ff99","correct":32,"choice":32,"rt":762.0150000439025,"accuracy":1,"outcome":"+10","keys":[2262.2250000131316],"total_keys":1,"block":1,"trial":88,"stimulus":9,"robot":1,"valence":"win","action":"go","sham":0,"trial_type":"pit-trial","trial_index":118,"time_elapsed":500136,"internal_node_id":"0.0-93.0","task_version":"battery-v0.2-trt","session":3},{"rune":"N","rune_set":"elianto","hex":"#f73b6a7A","correct":32,"choice":32,"rt":889.8000000044703,"accuracy":1,"outcome":"-1","keys":[2390.560000028927],"total_keys":1,"block":1,"trial":89,"stimulus":10,"robot":3,"valence":"lose","action":"go","sham":0,"trial_type":"pit-trial","trial_index":119,"time_elapsed":503729,"internal_node_id":"0.0-94.0","task_version":"battery-v0.2-trt","session":3},{"rune":"Q","rune_set":"elianto","hex":"#3366ff99","correct":32,"choice":32,"rt":584.610000019893,"accuracy":1,"outcome":"+10","keys":[2085.2799999993294],"total_keys":1,"block":1,"trial":90,"stimulus":11,"robot":1,"valence":"win","action":"go","sham":0,"trial_type":"pit-trial","trial_index":120,"time_elapsed":507017,"internal_node_id":"0.0-95.0","task_version":"battery-v0.2-trt","session":3},{"rune":"F","rune_set":"elianto","hex":"#3366ff99","correct":32,"choice":32,"rt":599.6150000137277,"accuracy":1,"outcome":"+10","keys":[2101.1449999641627],"total_keys":1,"block":1,"trial":91,"stimulus":9,"robot":1,"valence":"win","action":"go","sham":0,"trial_type":"pit-trial","trial_index":121,"time_elapsed":510321,"internal_node_id":"0.0-96.0","task_version":"battery-v0.2-trt","session":3},{"rune":"X","rune_set":"elianto","hex":"#f73b6a7A","correct":-1,"choice":32,"rt":728.739999991376,"accuracy":0,"outcome":"-1","keys":[2228.914999985136],"total_keys":1,"block":1,"trial":92,"stimulus":8,"robot":4,"valence":"lose","action":"no-go","sham":1,"trial_type":"pit-trial","trial_index":122,"time_elapsed":513753,"internal_node_id":"0.0-97.0","task_version":"battery-v0.2-trt","session":3},{"rune":"N","rune_set":"elianto","hex":"#f73b6a7A","correct":32,"choice":32,"rt":719.9649999965914,"accuracy":1,"outcome":"-1","keys":[2220.8899999968708],"total_keys":1,"block":1,"trial":93,"stimulus":10,"robot":3,"valence":"lose","action":"go","sham":0,"trial_type":"pit-trial","trial_index":123,"time_elapsed":517176,"internal_node_id":"0.0-98.0","task_version":"battery-v0.2-trt","session":3},{"rune":"Q","rune_set":"elianto","hex":"#3366ff99","correct":32,"choice":32,"rt":791.9650000403635,"accuracy":1,"outcome":"+10","keys":[2293.7800000072457],"total_keys":1,"block":1,"trial":94,"stimulus":11,"robot":1,"valence":"win","action":"go","sham":0,"trial_type":"pit-trial","trial_index":124,"time_elapsed":520672,"internal_node_id":"0.0-99.0","task_version":"battery-v0.2-trt","session":3},{"rune":"X","rune_set":"elianto","hex":"#f73b6a7A","correct":-1,"choice":32,"rt":487.9499999806285,"accuracy":0,"outcome":"-10","keys":[1989.8399999947287],"total_keys":1,"block":1,"trial":95,"stimulus":8,"robot":4,"valence":"lose","action":"no-go","sham":0,"trial_type":"pit-trial","trial_index":125,"time_elapsed":523864,"internal_node_id":"0.0-100.0","task_version":"battery-v0.2-trt","session":3},{"rune":"F","rune_set":"elianto","hex":"#3366ff99","correct":32,"choice":32,"rt":744.6899999631569,"accuracy":1,"outcome":"+10","keys":[2245.9299999754876],"total_keys":1,"block":1,"trial":96,"stimulus":9,"robot":1,"valence":"win","action":"go","sham":0,"trial_type":"pit-trial","trial_index":126,"time_elapsed":527312,"internal_node_id":"0.0-101.0","task_version":"battery-v0.2-trt","session":3},{"rune":"N","rune_set":"elianto","hex":"#f73b6a7A","correct":32,"choice":32,"rt":768.1450000382029,"accuracy":1,"outcome":"-10","keys":[2270.0199999962933],"total_keys":1,"block":1,"trial":97,"stimulus":10,"robot":3,"valence":"lose","action":"go","sham":1,"trial_type":"pit-trial","trial_index":127,"time_elapsed":530784,"internal_node_id":"0.0-102.0","task_version":"battery-v0.2-trt","session":3},{"rune":"F","rune_set":"elianto","hex":"#3366ff99","correct":32,"choice":32,"rt":504.24999999813735,"accuracy":1,"outcome":"+1","keys":[2005.2400000276975],"total_keys":1,"block":1,"trial":98,"stimulus":9,"robot":1,"valence":"win","action":"go","sham":1,"trial_type":"pit-trial","trial_index":128,"time_elapsed":533991,"internal_node_id":"0.0-103.0","task_version":"battery-v0.2-trt","session":3},{"rune":"X","rune_set":"elianto","hex":"#f73b6a7A","correct":-1,"choice":32,"rt":569.710000010673,"accuracy":0,"outcome":"-10","keys":[2070.815000042785],"total_keys":1,"block":1,"trial":99,"stimulus":8,"robot":4,"valence":"lose","action":"no-go","sham":0,"trial_type":"pit-trial","trial_index":129,"time_elapsed":537265,"internal_node_id":"0.0-104.0","task_version":"battery-v0.2-trt","session":3},{"rune":"Q","rune_set":"elianto","hex":"#3366ff99","correct":32,"choice":32,"rt":776.8550000037067,"accuracy":1,"outcome":"+10","keys":[2277.1349999820814],"total_keys":1,"block":1,"trial":100,"stimulus":11,"robot":1,"valence":"win","action":"go","sham":0,"trial_type":"pit-trial","trial_index":130,"time_elapsed":540744,"internal_node_id":"0.0-105.0","task_version":"battery-v0.2-trt","session":3},{"rune":"N","rune_set":"elianto","hex":"#f73b6a7A","correct":32,"choice":32,"rt":593.7200000043958,"accuracy":1,"outcome":"-10","keys":[2094.0300000365824],"total_keys":1,"block":1,"trial":101,"stimulus":10,"robot":3,"valence":"lose","action":"go","sham":1,"trial_type":"pit-trial","trial_index":131,"time_elapsed":544040,"internal_node_id":"0.0-106.0","task_version":"battery-v0.2-trt","session":3},{"rune":"Q","rune_set":"elianto","hex":"#3366ff99","correct":32,"choice":32,"rt":681.2449999852106,"accuracy":1,"outcome":"+10","keys":[2181.6949999774806],"total_keys":1,"block":1,"trial":102,"stimulus":11,"robot":1,"valence":"win","action":"go","sham":0,"trial_type":"pit-trial","trial_index":132,"time_elapsed":547424,"internal_node_id":"0.0-107.0","task_version":"battery-v0.2-trt","session":3},{"rune":"X","rune_set":"elianto","hex":"#f73b6a7A","correct":-1,"choice":32,"rt":560.6350000016391,"accuracy":0,"outcome":"-1","keys":[2061.504999990575],"total_keys":1,"block":1,"trial":103,"stimulus":8,"robot":4,"valence":"lose","action":"no-go","sham":1,"trial_type":"pit-trial","trial_index":133,"time_elapsed":550688,"internal_node_id":"0.0-108.0","task_version":"battery-v0.2-trt","session":3},{"rune":"F","rune_set":"elianto","hex":"#3366ff99","correct":32,"choice":32,"rt":496.40000000363216,"accuracy":1,"outcome":"+10","keys":[1997.4999999976717],"total_keys":1,"block":1,"trial":104,"stimulus":9,"robot":1,"valence":"win","action":"go","sham":0,"trial_type":"pit-trial","trial_index":134,"time_elapsed":553888,"internal_node_id":"0.0-109.0","task_version":"battery-v0.2-trt","session":3},{"rune":"Q","rune_set":"elianto","hex":"#3366ff99","correct":32,"choice":32,"rt":512.0049999677576,"accuracy":1,"outcome":"+10","keys":[2013.5599999921396],"total_keys":1,"block":1,"trial":105,"stimulus":11,"robot":1,"valence":"win","action":"go","sham":0,"trial_type":"pit-trial","trial_index":135,"time_elapsed":557105,"internal_node_id":"0.0-110.0","task_version":"battery-v0.2-trt","session":3},{"rune":"N","rune_set":"elianto","hex":"#f73b6a7A","correct":32,"choice":32,"rt":734.8749999655411,"accuracy":1,"outcome":"-1","keys":[2236.36500001885],"total_keys":1,"block":1,"trial":106,"stimulus":10,"robot":3,"valence":"lose","action":"go","sham":0,"trial_type":"pit-trial","trial_index":136,"time_elapsed":560544,"internal_node_id":"0.0-111.0","task_version":"battery-v0.2-trt","session":3},{"rune":"X","rune_set":"elianto","hex":"#f73b6a7A","correct":-1,"choice":32,"rt":624.8699999996461,"accuracy":0,"outcome":"-10","keys":[2125.9250000002794],"total_keys":1,"block":1,"trial":107,"stimulus":8,"robot":4,"valence":"lose","action":"no-go","sham":0,"trial_type":"pit-trial","trial_index":137,"time_elapsed":563872,"internal_node_id":"0.0-112.0","task_version":"battery-v0.2-trt","session":3},{"rune":"F","rune_set":"elianto","hex":"#3366ff99","correct":32,"choice":32,"rt":432.3350000195205,"accuracy":1,"outcome":"+10","keys":[1933.3699999842793],"total_keys":1,"block":1,"trial":108,"stimulus":9,"robot":1,"valence":"win","action":"go","sham":0,"trial_type":"pit-trial","trial_index":138,"time_elapsed":567009,"internal_node_id":"0.0-113.0","task_version":"battery-v0.2-trt","session":3},{"rune":"X","rune_set":"elianto","hex":"#f73b6a7A","correct":-1,"choice":32,"rt":848.740000044927,"accuracy":0,"outcome":"-10","keys":[2348.8049999577925],"total_keys":1,"block":1,"trial":109,"stimulus":8,"robot":4,"valence":"lose","action":"no-go","sham":0,"trial_type":"pit-trial","trial_index":139,"time_elapsed":570561,"internal_node_id":"0.0-114.0","task_version":"battery-v0.2-trt","session":3},{"rune":"N","rune_set":"elianto","hex":"#f73b6a7A","correct":32,"choice":32,"rt":599.6450000093319,"accuracy":1,"outcome":"-1","keys":[2100.8399999700487],"total_keys":1,"block":1,"trial":110,"stimulus":10,"robot":3,"valence":"lose","action":"go","sham":0,"trial_type":"pit-trial","trial_index":140,"time_elapsed":573864,"internal_node_id":"0.0-115.0","task_version":"battery-v0.2-trt","session":3},{"rune":"F","rune_set":"elianto","hex":"#3366ff99","correct":32,"choice":32,"rt":457.3400000226684,"accuracy":1,"outcome":"+1","keys":[1958.7149999570101],"total_keys":1,"block":1,"trial":111,"stimulus":9,"robot":1,"valence":"win","action":"go","sham":1,"trial_type":"pit-trial","trial_index":141,"time_elapsed":577024,"internal_node_id":"0.0-116.0","task_version":"battery-v0.2-trt","session":3},{"rune":"Q","rune_set":"elianto","hex":"#3366ff99","correct":32,"choice":32,"rt":448.80999997258186,"accuracy":1,"outcome":"+10","keys":[1949.8099999618717],"total_keys":1,"block":1,"trial":112,"stimulus":11,"robot":1,"valence":"win","action":"go","sham":0,"trial_type":"pit-trial","trial_index":142,"time_elapsed":580176,"internal_node_id":"0.0-117.0","task_version":"battery-v0.2-trt","session":3},{"rune":"N","rune_set":"elianto","hex":"#f73b6a7A","correct":32,"choice":32,"rt":586.2300000153482,"accuracy":1,"outcome":"-1","keys":[2086.6099999984726],"total_keys":1,"block":1,"trial":113,"stimulus":10,"robot":3,"valence":"lose","action":"go","sham":0,"trial_type":"pit-trial","trial_index":143,"time_elapsed":583465,"internal_node_id":"0.0-118.0","task_version":"battery-v0.2-trt","session":3},{"rune":"Q","rune_set":"elianto","hex":"#3366ff99","correct":32,"choice":32,"rt":455.9199999785051,"accuracy":1,"outcome":"+10","keys":[1957.5750000076368],"total_keys":1,"block":1,"trial":114,"stimulus":11,"robot":1,"valence":"win","action":"go","sham":0,"trial_type":"pit-trial","trial_index":144,"time_elapsed":586624,"internal_node_id":"0.0-119.0","task_version":"battery-v0.2-trt","session":3},{"rune":"F","rune_set":"elianto","hex":"#3366ff99","correct":32,"choice":32,"rt":576.2250000261702,"accuracy":1,"outcome":"+10","keys":[2077.85000000149],"total_keys":1,"block":1,"trial":115,"stimulus":9,"robot":1,"valence":"win","action":"go","sham":0,"trial_type":"pit-trial","trial_index":145,"time_elapsed":589905,"internal_node_id":"0.0-120.0","task_version":"battery-v0.2-trt","session":3},{"rune":"X","rune_set":"elianto","hex":"#f73b6a7A","correct":-1,"choice":-1,"rt":-1,"accuracy":1,"outcome":"-1","keys":[],"total_keys":0,"block":1,"trial":116,"stimulus":8,"robot":4,"valence":"lose","action":"no-go","sham":0,"trial_type":"pit-trial","trial_index":146,"time_elapsed":593908,"internal_node_id":"0.0-121.0","task_version":"battery-v0.2-trt","session":3},{"rune":"N","rune_set":"elianto","hex":"#f73b6a7A","correct":32,"choice":32,"rt":644.4899999769405,"accuracy":1,"outcome":"-1","keys":[2145.8550000097603],"total_keys":1,"block":1,"trial":117,"stimulus":10,"robot":3,"valence":"lose","action":"go","sham":0,"trial_type":"pit-trial","trial_index":147,"time_elapsed":597257,"internal_node_id":"0.0-122.0","task_version":"battery-v0.2-trt","session":3},{"rune":"X","rune_set":"elianto","hex":"#f73b6a7A","correct":-1,"choice":-1,"rt":-1,"accuracy":1,"outcome":"-1","keys":[],"total_keys":0,"block":1,"trial":118,"stimulus":8,"robot":4,"valence":"lose","action":"no-go","sham":0,"trial_type":"pit-trial","trial_index":148,"time_elapsed":601261,"internal_node_id":"0.0-123.0","task_version":"battery-v0.2-trt","session":3},{"rune":"Q","rune_set":"elianto","hex":"#3366ff99","correct":32,"choice":32,"rt":427.23000003024936,"accuracy":1,"outcome":"+1","keys":[1929.00499998359],"total_keys":1,"block":1,"trial":119,"stimulus":11,"robot":1,"valence":"win","action":"go","sham":1,"trial_type":"pit-trial","trial_index":149,"time_elapsed":604392,"internal_node_id":"0.0-124.0","task_version":"battery-v0.2-trt","session":3},{"rune":"F","rune_set":"elianto","hex":"#3366ff99","correct":32,"choice":32,"rt":426.1749999714084,"accuracy":1,"outcome":"+1","keys":[1926.2200000230223],"total_keys":1,"block":1,"trial":120,"stimulus":9,"robot":1,"valence":"win","action":"go","sham":1,"trial_type":"pit-trial","trial_index":150,"time_elapsed":607520,"internal_node_id":"0.0-125.0","task_version":"battery-v0.2-trt","session":3},{"view_history":"[{\"page_index\":0,\"viewing_time\":43394.64000001317},{\"page_index\":1,\"viewing_time\":1552.0999999716878}]","rt":44947.08499999251,"trial_type":"pit-instructions","trial_index":151,"time_elapsed":652468,"internal_node_id":"0.0-126.0","task_version":"battery-v0.2-trt","session":3},{"rune":"D","rune_set":"elianto","hex":"#f73b6a7A","correct":-1,"choice":32,"rt":611.5299999946728,"accuracy":0,"outcome":"-10","keys":[2113.0750000011176],"total_keys":1,"block":2,"trial":121,"stimulus":2,"robot":4,"valence":"lose","action":"no-go","sham":0,"trial_type":"pit-trial","trial_index":152,"time_elapsed":655784,"internal_node_id":"0.0-127.0","task_version":"battery-v0.2-trt","session":3},{"rune":"J","rune_set":"elianto","hex":"#f73b6a7A","correct":32,"choice":32,"rt":487.3700000462122,"accuracy":1,"outcome":"-10","keys":[1989.2300000065006],"total_keys":1,"block":2,"trial":122,"stimulus":1,"robot":3,"valence":"lose","action":"go","sham":1,"trial_type":"pit-trial","trial_index":153,"time_elapsed":658976,"internal_node_id":"0.0-128.0","task_version":"battery-v0.2-trt","session":3},{"rune":"V","rune_set":"elianto","hex":"#3366ff99","correct":-1,"choice":32,"rt":328.3999999985099,"accuracy":0,"outcome":"+1","keys":[1829.3749999720603],"total_keys":1,"block":2,"trial":123,"stimulus":0,"robot":2,"valence":"win","action":"no-go","sham":0,"trial_type":"pit-trial","trial_index":154,"time_elapsed":662007,"internal_node_id":"0.0-129.0","task_version":"battery-v0.2-trt","session":3},{"rune":"K","rune_set":"elianto","hex":"#3366ff99","correct":32,"choice":32,"rt":456.5549999824725,"accuracy":1,"outcome":"+10","keys":[1958.2500000251457],"total_keys":1,"block":2,"trial":124,"stimulus":3,"robot":1,"valence":"win","action":"go","sham":0,"trial_type":"pit-trial","trial_index":155,"time_elapsed":665167,"internal_node_id":"0.0-130.0","task_version":"battery-v0.2-trt","session":3},{"rune":"D","rune_set":"elianto","hex":"#f73b6a7A","correct":-1,"choice":-1,"rt":-1,"accuracy":1,"outcome":"-1","keys":[],"total_keys":0,"block":2,"trial":125,"stimulus":2,"robot":4,"valence":"lose","action":"no-go","sham":0,"trial_type":"pit-trial","trial_index":156,"time_elapsed":669171,"internal_node_id":"0.0-131.0","task_version":"battery-v0.2-trt","session":3},{"rune":"K","rune_set":"elianto","hex":"#3366ff99","correct":32,"choice":32,"rt":701.8149999785237,"accuracy":1,"outcome":"+10","keys":[2202.6049999985844],"total_keys":1,"block":2,"trial":126,"stimulus":3,"robot":1,"valence":"win","action":"go","sham":0,"trial_type":"pit-trial","trial_index":157,"time_elapsed":672576,"internal_node_id":"0.0-132.0","task_version":"battery-v0.2-trt","session":3},{"rune":"J","rune_set":"elianto","hex":"#f73b6a7A","correct":32,"choice":-1,"rt":-1,"accuracy":0,"outcome":"-1","keys":[],"total_keys":0,"block":2,"trial":127,"stimulus":1,"robot":3,"valence":"lose","action":"go","sham":1,"trial_type":"pit-trial","trial_index":158,"time_elapsed":676580,"internal_node_id":"0.0-133.0","task_version":"battery-v0.2-trt","session":3},{"rune":"V","rune_set":"elianto","hex":"#3366ff99","correct":-1,"choice":32,"rt":804.8549999948591,"accuracy":0,"outcome":"+1","keys":[2305.6199999991804],"total_keys":1,"block":2,"trial":128,"stimulus":0,"robot":2,"valence":"win","action":"no-go","sham":0,"trial_type":"pit-trial","trial_index":159,"time_elapsed":680089,"internal_node_id":"0.0-134.0","task_version":"battery-v0.2-trt","session":3},{"rune":"V","rune_set":"elianto","hex":"#3366ff99","correct":-1,"choice":-1,"rt":-1,"accuracy":1,"outcome":"+10","keys":[],"total_keys":0,"block":2,"trial":129,"stimulus":0,"robot":2,"valence":"win","action":"no-go","sham":0,"trial_type":"pit-trial","trial_index":160,"time_elapsed":684093,"internal_node_id":"0.0-135.0","task_version":"battery-v0.2-trt","session":3},{"rune":"D","rune_set":"elianto","hex":"#f73b6a7A","correct":-1,"choice":-1,"rt":-1,"accuracy":1,"outcome":"-1","keys":[],"total_keys":0,"block":2,"trial":130,"stimulus":2,"robot":4,"valence":"lose","action":"no-go","sham":0,"trial_type":"pit-trial","trial_index":161,"time_elapsed":688097,"internal_node_id":"0.0-136.0","task_version":"battery-v0.2-trt","session":3},{"rune":"K","rune_set":"elianto","hex":"#3366ff99","correct":32,"choice":32,"rt":312.0950000011362,"accuracy":1,"outcome":"+10","keys":[1812.3649999615736],"total_keys":1,"block":2,"trial":131,"stimulus":3,"robot":1,"valence":"win","action":"go","sham":0,"trial_type":"pit-trial","trial_index":162,"time_elapsed":691112,"internal_node_id":"0.0-137.0","task_version":"battery-v0.2-trt","session":3},{"rune":"J","rune_set":"elianto","hex":"#f73b6a7A","correct":32,"choice":-1,"rt":-1,"accuracy":0,"outcome":"-10","keys":[],"total_keys":0,"block":2,"trial":132,"stimulus":1,"robot":3,"valence":"lose","action":"go","sham":0,"trial_type":"pit-trial","trial_index":163,"time_elapsed":695116,"internal_node_id":"0.0-138.0","task_version":"battery-v0.2-trt","session":3},{"rune":"D","rune_set":"elianto","hex":"#f73b6a7A","correct":-1,"choice":-1,"rt":-1,"accuracy":1,"outcome":"-1","keys":[],"total_keys":0,"block":2,"trial":133,"stimulus":2,"robot":4,"valence":"lose","action":"no-go","sham":0,"trial_type":"pit-trial","trial_index":164,"time_elapsed":699120,"internal_node_id":"0.0-139.0","task_version":"battery-v0.2-trt","session":3},{"rune":"V","rune_set":"elianto","hex":"#3366ff99","correct":-1,"choice":-1,"rt":-1,"accuracy":1,"outcome":"+10","keys":[],"total_keys":0,"block":2,"trial":134,"stimulus":0,"robot":2,"valence":"win","action":"no-go","sham":0,"trial_type":"pit-trial","trial_index":165,"time_elapsed":703122,"internal_node_id":"0.0-140.0","task_version":"battery-v0.2-trt","session":3},{"rune":"J","rune_set":"elianto","hex":"#f73b6a7A","correct":32,"choice":32,"rt":398.4249999630265,"accuracy":1,"outcome":"-1","keys":[1899.5949999662116],"total_keys":1,"block":2,"trial":135,"stimulus":1,"robot":3,"valence":"lose","action":"go","sham":0,"trial_type":"pit-trial","trial_index":166,"time_elapsed":706224,"internal_node_id":"0.0-141.0","task_version":"battery-v0.2-trt","session":3},{"rune":"K","rune_set":"elianto","hex":"#3366ff99","correct":32,"choice":32,"rt":353.20499999215826,"accuracy":1,"outcome":"+10","keys":[1853.2549999654293],"total_keys":1,"block":2,"trial":136,"stimulus":3,"robot":1,"valence":"win","action":"go","sham":0,"trial_type":"pit-trial","trial_index":167,"time_elapsed":709280,"internal_node_id":"0.0-142.0","task_version":"battery-v0.2-trt","session":3},{"rune":"K","rune_set":"elianto","hex":"#3366ff99","correct":32,"choice":32,"rt":561.0199999646284,"accuracy":1,"outcome":"+10","keys":[2061.3199999788776],"total_keys":1,"block":2,"trial":137,"stimulus":3,"robot":1,"valence":"win","action":"go","sham":0,"trial_type":"pit-trial","trial_index":168,"time_elapsed":712544,"internal_node_id":"0.0-143.0","task_version":"battery-v0.2-trt","session":3},{"rune":"D","rune_set":"elianto","hex":"#f73b6a7A","correct":-1,"choice":-1,"rt":-1,"accuracy":1,"outcome":"-1","keys":[],"total_keys":0,"block":2,"trial":138,"stimulus":2,"robot":4,"valence":"lose","action":"no-go","sham":0,"trial_type":"pit-trial","trial_index":169,"time_elapsed":716549,"internal_node_id":"0.0-144.0","task_version":"battery-v0.2-trt","session":3},{"rune":"V","rune_set":"elianto","hex":"#3366ff99","correct":-1,"choice":-1,"rt":-1,"accuracy":1,"outcome":"+10","keys":[],"total_keys":0,"block":2,"trial":139,"stimulus":0,"robot":2,"valence":"win","action":"no-go","sham":0,"trial_type":"pit-trial","trial_index":170,"time_elapsed":720553,"internal_node_id":"0.0-145.0","task_version":"battery-v0.2-trt","session":3},{"rune":"J","rune_set":"elianto","hex":"#f73b6a7A","correct":32,"choice":32,"rt":368.2099999859929,"accuracy":1,"outcome":"-10","keys":[1869.3249999778345],"total_keys":1,"block":2,"trial":140,"stimulus":1,"robot":3,"valence":"lose","action":"go","sham":1,"trial_type":"pit-trial","trial_index":171,"time_elapsed":723624,"internal_node_id":"0.0-146.0","task_version":"battery-v0.2-trt","session":3},{"rune":"K","rune_set":"elianto","hex":"#3366ff99","correct":32,"choice":32,"rt":272.4900000030175,"accuracy":1,"outcome":"+10","keys":[1773.894999991171],"total_keys":1,"block":2,"trial":141,"stimulus":3,"robot":1,"valence":"win","action":"go","sham":0,"trial_type":"pit-trial","trial_index":172,"time_elapsed":726599,"internal_node_id":"0.0-147.0","task_version":"battery-v0.2-trt","session":3},{"rune":"J","rune_set":"elianto","hex":"#f73b6a7A","correct":32,"choice":-1,"rt":-1,"accuracy":0,"outcome":"-1","keys":[],"total_keys":0,"block":2,"trial":142,"stimulus":1,"robot":3,"valence":"lose","action":"go","sham":1,"trial_type":"pit-trial","trial_index":173,"time_elapsed":730603,"internal_node_id":"0.0-148.0","task_version":"battery-v0.2-trt","session":3},{"rune":"D","rune_set":"elianto","hex":"#f73b6a7A","correct":-1,"choice":-1,"rt":-1,"accuracy":1,"outcome":"-10","keys":[],"total_keys":0,"block":2,"trial":143,"stimulus":2,"robot":4,"valence":"lose","action":"no-go","sham":1,"trial_type":"pit-trial","trial_index":174,"time_elapsed":734607,"internal_node_id":"0.0-149.0","task_version":"battery-v0.2-trt","session":3},{"rune":"V","rune_set":"elianto","hex":"#3366ff99","correct":-1,"choice":-1,"rt":-1,"accuracy":1,"outcome":"+10","keys":[],"total_keys":0,"block":2,"trial":144,"stimulus":0,"robot":2,"valence":"win","action":"no-go","sham":0,"trial_type":"pit-trial","trial_index":175,"time_elapsed":738610,"internal_node_id":"0.0-150.0","task_version":"battery-v0.2-trt","session":3},{"rune":"K","rune_set":"elianto","hex":"#3366ff99","correct":32,"choice":32,"rt":327.82000000588596,"accuracy":1,"outcome":"+1","keys":[1828.0500000109896],"total_keys":1,"block":2,"trial":145,"stimulus":3,"robot":1,"valence":"win","action":"go","sham":1,"trial_type":"pit-trial","trial_index":176,"time_elapsed":741639,"internal_node_id":"0.0-151.0","task_version":"battery-v0.2-trt","session":3},{"rune":"V","rune_set":"elianto","hex":"#3366ff99","correct":-1,"choice":-1,"rt":-1,"accuracy":1,"outcome":"+10","keys":[],"total_keys":0,"block":2,"trial":146,"stimulus":0,"robot":2,"valence":"win","action":"no-go","sham":0,"trial_type":"pit-trial","trial_index":177,"time_elapsed":745643,"internal_node_id":"0.0-152.0","task_version":"battery-v0.2-trt","session":3},{"rune":"D","rune_set":"elianto","hex":"#f73b6a7A","correct":-1,"choice":-1,"rt":-1,"accuracy":1,"outcome":"-1","keys":[],"total_keys":0,"block":2,"trial":147,"stimulus":2,"robot":4,"valence":"lose","action":"no-go","sham":0,"trial_type":"pit-trial","trial_index":178,"time_elapsed":749645,"internal_node_id":"0.0-153.0","task_version":"battery-v0.2-trt","session":3},{"rune":"J","rune_set":"elianto","hex":"#f73b6a7A","correct":32,"choice":-1,"rt":-1,"accuracy":0,"outcome":"-10","keys":[],"total_keys":0,"block":2,"trial":148,"stimulus":1,"robot":3,"valence":"lose","action":"go","sham":0,"trial_type":"pit-trial","trial_index":179,"time_elapsed":753650,"internal_node_id":"0.0-154.0","task_version":"battery-v0.2-trt","session":3},{"rune":"J","rune_set":"elianto","hex":"#f73b6a7A","correct":32,"choice":32,"rt":454.1149999713525,"accuracy":1,"outcome":"-1","keys":[1955.7349999668077],"total_keys":1,"block":2,"trial":149,"stimulus":1,"robot":3,"valence":"lose","action":"go","sham":0,"trial_type":"pit-trial","trial_index":180,"time_elapsed":756808,"internal_node_id":"0.0-155.0","task_version":"battery-v0.2-trt","session":3},{"rune":"V","rune_set":"elianto","hex":"#3366ff99","correct":-1,"choice":-1,"rt":-1,"accuracy":1,"outcome":"+10","keys":[],"total_keys":0,"block":2,"trial":150,"stimulus":0,"robot":2,"valence":"win","action":"no-go","sham":0,"trial_type":"pit-trial","trial_index":181,"time_elapsed":760811,"internal_node_id":"0.0-156.0","task_version":"battery-v0.2-trt","session":3},{"rune":"D","rune_set":"elianto","hex":"#f73b6a7A","correct":-1,"choice":-1,"rt":-1,"accuracy":1,"outcome":"-10","keys":[],"total_keys":0,"block":2,"trial":151,"stimulus":2,"robot":4,"valence":"lose","action":"no-go","sham":1,"trial_type":"pit-trial","trial_index":182,"time_elapsed":764815,"internal_node_id":"0.0-157.0","task_version":"battery-v0.2-trt","session":3},{"rune":"K","rune_set":"elianto","hex":"#3366ff99","correct":32,"choice":32,"rt":385.37500001257285,"accuracy":1,"outcome":"+10","keys":[1886.6600000183098],"total_keys":1,"block":2,"trial":152,"stimulus":3,"robot":1,"valence":"win","action":"go","sham":0,"trial_type":"pit-trial","trial_index":183,"time_elapsed":767905,"internal_node_id":"0.0-158.0","task_version":"battery-v0.2-trt","session":3},{"rune":"E","rune_set":"elianto","hex":"#f73b6a7A","correct":32,"choice":32,"rt":655.8400000212714,"accuracy":1,"outcome":"-1","keys":[2156.6449999809265],"total_keys":1,"block":2,"trial":153,"stimulus":4,"robot":3,"valence":"lose","action":"go","sham":0,"trial_type":"pit-trial","trial_index":184,"time_elapsed":771263,"internal_node_id":"0.0-159.0","task_version":"battery-v0.2-trt","session":3},{"rune":"J","rune_set":"elianto","hex":"#f73b6a7A","correct":32,"choice":32,"rt":402.2850000183098,"accuracy":1,"outcome":"-1","keys":[1902.3099999758415],"total_keys":1,"block":2,"trial":154,"stimulus":1,"robot":3,"valence":"lose","action":"go","sham":0,"trial_type":"pit-trial","trial_index":185,"time_elapsed":774367,"internal_node_id":"0.0-160.0","task_version":"battery-v0.2-trt","session":3},{"rune":"W","rune_set":"elianto","hex":"#f73b6a7A","correct":-1,"choice":-1,"rt":-1,"accuracy":1,"outcome":"-1","keys":[],"total_keys":0,"block":2,"trial":155,"stimulus":5,"robot":4,"valence":"lose","action":"no-go","sham":0,"trial_type":"pit-trial","trial_index":186,"time_elapsed":778371,"internal_node_id":"0.0-161.0","task_version":"battery-v0.2-trt","session":3},{"rune":"D","rune_set":"elianto","hex":"#f73b6a7A","correct":-1,"choice":-1,"rt":-1,"accuracy":1,"outcome":"-1","keys":[],"total_keys":0,"block":2,"trial":156,"stimulus":2,"robot":4,"valence":"lose","action":"no-go","sham":0,"trial_type":"pit-trial","trial_index":187,"time_elapsed":782373,"internal_node_id":"0.0-162.0","task_version":"battery-v0.2-trt","session":3},{"rune":"E","rune_set":"elianto","hex":"#f73b6a7A","correct":32,"choice":32,"rt":1018.8699999707751,"accuracy":1,"outcome":"-1","keys":[2519.6349999750964],"total_keys":1,"block":2,"trial":157,"stimulus":4,"robot":3,"valence":"lose","action":"go","sham":0,"trial_type":"pit-trial","trial_index":188,"time_elapsed":786095,"internal_node_id":"0.0-163.0","task_version":"battery-v0.2-trt","session":3},{"rune":"W","rune_set":"elianto","hex":"#f73b6a7A","correct":-1,"choice":-1,"rt":-1,"accuracy":1,"outcome":"-1","keys":[],"total_keys":0,"block":2,"trial":158,"stimulus":5,"robot":4,"valence":"lose","action":"no-go","sham":0,"trial_type":"pit-trial","trial_index":189,"time_elapsed":790098,"internal_node_id":"0.0-164.0","task_version":"battery-v0.2-trt","session":3},{"rune":"J","rune_set":"elianto","hex":"#f73b6a7A","correct":32,"choice":32,"rt":845.7749999943189,"accuracy":1,"outcome":"-1","keys":[2346.8599999905564],"total_keys":1,"block":2,"trial":159,"stimulus":1,"robot":3,"valence":"lose","action":"go","sham":0,"trial_type":"pit-trial","trial_index":190,"time_elapsed":793648,"internal_node_id":"0.0-165.0","task_version":"battery-v0.2-trt","session":3},{"rune":"D","rune_set":"elianto","hex":"#f73b6a7A","correct":-1,"choice":-1,"rt":-1,"accuracy":1,"outcome":"-1","keys":[],"total_keys":0,"block":2,"trial":160,"stimulus":2,"robot":4,"valence":"lose","action":"no-go","sham":0,"trial_type":"pit-trial","trial_index":191,"time_elapsed":797650,"internal_node_id":"0.0-166.0","task_version":"battery-v0.2-trt","session":3},{"rune":"E","rune_set":"elianto","hex":"#f73b6a7A","correct":32,"choice":32,"rt":558.0000000190921,"accuracy":1,"outcome":"-1","keys":[2059.3550000339746],"total_keys":1,"block":2,"trial":161,"stimulus":4,"robot":3,"valence":"lose","action":"go","sham":0,"trial_type":"pit-trial","trial_index":192,"time_elapsed":800911,"internal_node_id":"0.0-167.0","task_version":"battery-v0.2-trt","session":3},{"rune":"S","rune_set":"elianto","hex":"#3366ff99","correct":-1,"choice":32,"rt":857.224999985192,"accuracy":0,"outcome":"+1","keys":[2357.8299999935552],"total_keys":1,"block":2,"trial":162,"stimulus":6,"robot":2,"valence":"win","action":"no-go","sham":0,"trial_type":"pit-trial","trial_index":193,"time_elapsed":804471,"internal_node_id":"0.0-168.0","task_version":"battery-v0.2-trt","session":3},{"rune":"D","rune_set":"elianto","hex":"#f73b6a7A","correct":-1,"choice":-1,"rt":-1,"accuracy":1,"outcome":"-10","keys":[],"total_keys":0,"block":2,"trial":163,"stimulus":2,"robot":4,"valence":"lose","action":"no-go","sham":1,"trial_type":"pit-trial","trial_index":194,"time_elapsed":808472,"internal_node_id":"0.0-169.0","task_version":"battery-v0.2-trt","session":3},{"rune":"W","rune_set":"elianto","hex":"#f73b6a7A","correct":-1,"choice":32,"rt":791.3849999895319,"accuracy":0,"outcome":"-10","keys":[2292.5650000106543],"total_keys":1,"block":2,"trial":164,"stimulus":5,"robot":4,"valence":"lose","action":"no-go","sham":0,"trial_type":"pit-trial","trial_index":195,"time_elapsed":811966,"internal_node_id":"0.0-170.0","task_version":"battery-v0.2-trt","session":3},{"rune":"W","rune_set":"elianto","hex":"#f73b6a7A","correct":-1,"choice":32,"rt":593.1850000051782,"accuracy":0,"outcome":"-1","keys":[2094.494999968447],"total_keys":1,"block":2,"trial":165,"stimulus":5,"robot":4,"valence":"lose","action":"no-go","sham":1,"trial_type":"pit-trial","trial_index":196,"time_elapsed":815263,"internal_node_id":"0.0-171.0","task_version":"battery-v0.2-trt","session":3},{"rune":"S","rune_set":"elianto","hex":"#3366ff99","correct":-1,"choice":-1,"rt":-1,"accuracy":1,"outcome":"+10","keys":[],"total_keys":0,"block":2,"trial":166,"stimulus":6,"robot":2,"valence":"win","action":"no-go","sham":0,"trial_type":"pit-trial","trial_index":197,"time_elapsed":819266,"internal_node_id":"0.0-172.0","task_version":"battery-v0.2-trt","session":3},{"rune":"D","rune_set":"elianto","hex":"#f73b6a7A","correct":-1,"choice":-1,"rt":-1,"accuracy":1,"outcome":"-1","keys":[],"total_keys":0,"block":2,"trial":167,"stimulus":2,"robot":4,"valence":"lose","action":"no-go","sham":0,"trial_type":"pit-trial","trial_index":198,"time_elapsed":823270,"internal_node_id":"0.0-173.0","task_version":"battery-v0.2-trt","session":3},{"rune":"E","rune_set":"elianto","hex":"#f73b6a7A","correct":32,"choice":32,"rt":770.650000020396,"accuracy":1,"outcome":"-1","keys":[2271.435000002384],"total_keys":1,"block":2,"trial":168,"stimulus":4,"robot":3,"valence":"lose","action":"go","sham":0,"trial_type":"pit-trial","trial_index":199,"time_elapsed":826742,"internal_node_id":"0.0-174.0","task_version":"battery-v0.2-trt","session":3},{"rune":"S","rune_set":"elianto","hex":"#3366ff99","correct":-1,"choice":32,"rt":1185.2249999647029,"accuracy":0,"outcome":"+10","keys":[2686.6099999751896],"total_keys":1,"block":2,"trial":169,"stimulus":6,"robot":2,"valence":"win","action":"no-go","sham":1,"trial_type":"pit-trial","trial_index":200,"time_elapsed":830632,"internal_node_id":"0.0-175.0","task_version":"battery-v0.2-trt","session":3},{"rune":"W","rune_set":"elianto","hex":"#f73b6a7A","correct":-1,"choice":32,"rt":776.8200000282377,"accuracy":0,"outcome":"-10","keys":[2278.2749999896623],"total_keys":1,"block":2,"trial":170,"stimulus":5,"robot":4,"valence":"lose","action":"no-go","sham":0,"trial_type":"pit-trial","trial_index":201,"time_elapsed":834111,"internal_node_id":"0.0-176.0","task_version":"battery-v0.2-trt","session":3},{"rune":"P","rune_set":"elianto","hex":"#3366ff99","correct":32,"choice":32,"rt":714.0200000139885,"accuracy":1,"outcome":"+10","keys":[2214.154999994207],"total_keys":1,"block":2,"trial":171,"stimulus":7,"robot":1,"valence":"win","action":"go","sham":0,"trial_type":"pit-trial","trial_index":202,"time_elapsed":837528,"internal_node_id":"0.0-177.0","task_version":"battery-v0.2-trt","session":3},{"rune":"E","rune_set":"elianto","hex":"#f73b6a7A","correct":32,"choice":32,"rt":1137.7650000504218,"accuracy":1,"outcome":"-10","keys":[2637.879999994766],"total_keys":1,"block":2,"trial":172,"stimulus":4,"robot":3,"valence":"lose","action":"go","sham":1,"trial_type":"pit-trial","trial_index":203,"time_elapsed":841368,"internal_node_id":"0.0-178.0","task_version":"battery-v0.2-trt","session":3},{"rune":"E","rune_set":"elianto","hex":"#f73b6a7A","correct":32,"choice":32,"rt":528.7649999954738,"accuracy":1,"outcome":"-1","keys":[2029.70999997342],"total_keys":1,"block":2,"trial":173,"stimulus":4,"robot":3,"valence":"lose","action":"go","sham":0,"trial_type":"pit-trial","trial_index":204,"time_elapsed":844601,"internal_node_id":"0.0-179.0","task_version":"battery-v0.2-trt","session":3},{"rune":"W","rune_set":"elianto","hex":"#f73b6a7A","correct":-1,"choice":32,"rt":423.9850000012666,"accuracy":0,"outcome":"-10","keys":[1925.0349999638274],"total_keys":1,"block":2,"trial":174,"stimulus":5,"robot":4,"valence":"lose","action":"no-go","sham":0,"trial_type":"pit-trial","trial_index":205,"time_elapsed":847727,"internal_node_id":"0.0-180.0","task_version":"battery-v0.2-trt","session":3},{"rune":"P","rune_set":"elianto","hex":"#3366ff99","correct":32,"choice":32,"rt":481.4349999651313,"accuracy":1,"outcome":"+10","keys":[1981.8749999976717],"total_keys":1,"block":2,"trial":175,"stimulus":7,"robot":1,"valence":"win","action":"go","sham":0,"trial_type":"pit-trial","trial_index":206,"time_elapsed":850913,"internal_node_id":"0.0-181.0","task_version":"battery-v0.2-trt","session":3},{"rune":"S","rune_set":"elianto","hex":"#3366ff99","correct":-1,"choice":32,"rt":496.1699999985285,"accuracy":0,"outcome":"+1","keys":[1996.9699999783188],"total_keys":1,"block":2,"trial":176,"stimulus":6,"robot":2,"valence":"win","action":"no-go","sham":0,"trial_type":"pit-trial","trial_index":207,"time_elapsed":854112,"internal_node_id":"0.0-182.0","task_version":"battery-v0.2-trt","session":3},{"rune":"E","rune_set":"elianto","hex":"#f73b6a7A","correct":32,"choice":32,"rt":544.9699999880977,"accuracy":1,"outcome":"-1","keys":[2045.6750000012107],"total_keys":1,"block":2,"trial":177,"stimulus":4,"robot":3,"valence":"lose","action":"go","sham":0,"trial_type":"pit-trial","trial_index":208,"time_elapsed":857360,"internal_node_id":"0.0-183.0","task_version":"battery-v0.2-trt","session":3},{"rune":"S","rune_set":"elianto","hex":"#3366ff99","correct":-1,"choice":32,"rt":529.2300000437535,"accuracy":0,"outcome":"+1","keys":[2029.3100000126287],"total_keys":1,"block":2,"trial":178,"stimulus":6,"robot":2,"valence":"win","action":"no-go","sham":0,"trial_type":"pit-trial","trial_index":209,"time_elapsed":860592,"internal_node_id":"0.0-184.0","task_version":"battery-v0.2-trt","session":3},{"rune":"P","rune_set":"elianto","hex":"#3366ff99","correct":32,"choice":32,"rt":457.1599999908358,"accuracy":1,"outcome":"+10","keys":[1957.2099999641068],"total_keys":1,"block":2,"trial":179,"stimulus":7,"robot":1,"valence":"win","action":"go","sham":0,"trial_type":"pit-trial","trial_index":210,"time_elapsed":863751,"internal_node_id":"0.0-185.0","task_version":"battery-v0.2-trt","session":3},{"rune":"W","rune_set":"elianto","hex":"#f73b6a7A","correct":-1,"choice":-1,"rt":-1,"accuracy":1,"outcome":"-1","keys":[],"total_keys":0,"block":2,"trial":180,"stimulus":5,"robot":4,"valence":"lose","action":"no-go","sham":0,"trial_type":"pit-trial","trial_index":211,"time_elapsed":867754,"internal_node_id":"0.0-186.0","task_version":"battery-v0.2-trt","session":3},{"rune":"S","rune_set":"elianto","hex":"#3366ff99","correct":-1,"choice":-1,"rt":-1,"accuracy":1,"outcome":"+10","keys":[],"total_keys":0,"block":2,"trial":181,"stimulus":6,"robot":2,"valence":"win","action":"no-go","sham":0,"trial_type":"pit-trial","trial_index":212,"time_elapsed":871758,"internal_node_id":"0.0-187.0","task_version":"battery-v0.2-trt","session":3},{"rune":"W","rune_set":"elianto","hex":"#f73b6a7A","correct":-1,"choice":-1,"rt":-1,"accuracy":1,"outcome":"-1","keys":[2943.1449999683537],"total_keys":1,"block":2,"trial":182,"stimulus":5,"robot":4,"valence":"lose","action":"no-go","sham":0,"trial_type":"pit-trial","trial_index":213,"time_elapsed":875762,"internal_node_id":"0.0-188.0","task_version":"battery-v0.2-trt","session":3},{"rune":"E","rune_set":"elianto","hex":"#f73b6a7A","correct":32,"choice":32,"rt":517.4249999690801,"accuracy":1,"outcome":"-1","keys":[2019.2249999963678],"total_keys":1,"block":2,"trial":183,"stimulus":4,"robot":3,"valence":"lose","action":"go","sham":0,"trial_type":"pit-trial","trial_index":214,"time_elapsed":878984,"internal_node_id":"0.0-189.0","task_version":"battery-v0.2-trt","session":3},{"rune":"P","rune_set":"elianto","hex":"#3366ff99","correct":32,"choice":32,"rt":776.8400000059046,"accuracy":1,"outcome":"+10","keys":[2277.590000012424],"total_keys":1,"block":2,"trial":184,"stimulus":7,"robot":1,"valence":"win","action":"go","sham":0,"trial_type":"pit-trial","trial_index":215,"time_elapsed":882463,"internal_node_id":"0.0-190.0","task_version":"battery-v0.2-trt","session":3},{"rune":"W","rune_set":"elianto","hex":"#f73b6a7A","correct":-1,"choice":-1,"rt":-1,"accuracy":1,"outcome":"-1","keys":[],"total_keys":0,"block":2,"trial":185,"stimulus":5,"robot":4,"valence":"lose","action":"no-go","sham":0,"trial_type":"pit-trial","trial_index":216,"time_elapsed":886464,"internal_node_id":"0.0-191.0","task_version":"battery-v0.2-trt","session":3},{"rune":"S","rune_set":"elianto","hex":"#3366ff99","correct":-1,"choice":-1,"rt":-1,"accuracy":1,"outcome":"+10","keys":[],"total_keys":0,"block":2,"trial":186,"stimulus":6,"robot":2,"valence":"win","action":"no-go","sham":0,"trial_type":"pit-trial","trial_index":217,"time_elapsed":890467,"internal_node_id":"0.0-192.0","task_version":"battery-v0.2-trt","session":3},{"rune":"E","rune_set":"elianto","hex":"#f73b6a7A","correct":32,"choice":32,"rt":932.0600000210106,"accuracy":1,"outcome":"-1","keys":[2433.720000030007],"total_keys":1,"block":2,"trial":187,"stimulus":4,"robot":3,"valence":"lose","action":"go","sham":0,"trial_type":"pit-trial","trial_index":218,"time_elapsed":894103,"internal_node_id":"0.0-193.0","task_version":"battery-v0.2-trt","session":3},{"rune":"P","rune_set":"elianto","hex":"#3366ff99","correct":32,"choice":32,"rt":320.6450000288896,"accuracy":1,"outcome":"+10","keys":[1821.4150000130758],"total_keys":1,"block":2,"trial":188,"stimulus":7,"robot":1,"valence":"win","action":"go","sham":0,"trial_type":"pit-trial","trial_index":219,"time_elapsed":897128,"internal_node_id":"0.0-194.0","task_version":"battery-v0.2-trt","session":3},{"rune":"S","rune_set":"elianto","hex":"#3366ff99","correct":-1,"choice":-1,"rt":-1,"accuracy":1,"outcome":"+10","keys":[],"total_keys":0,"block":2,"trial":189,"stimulus":6,"robot":2,"valence":"win","action":"no-go","sham":0,"trial_type":"pit-trial","trial_index":220,"time_elapsed":901132,"internal_node_id":"0.0-195.0","task_version":"battery-v0.2-trt","session":3},{"rune":"E","rune_set":"elianto","hex":"#f73b6a7A","correct":32,"choice":32,"rt":492.98999999882653,"accuracy":1,"outcome":"-1","keys":[1993.659999978263],"total_keys":1,"block":2,"trial":190,"stimulus":4,"robot":3,"valence":"lose","action":"go","sham":0,"trial_type":"pit-trial","trial_index":221,"time_elapsed":904327,"internal_node_id":"0.0-196.0","task_version":"battery-v0.2-trt","session":3},{"rune":"W","rune_set":"elianto","hex":"#f73b6a7A","correct":-1,"choice":32,"rt":752.8700000257231,"accuracy":0,"outcome":"-10","keys":[2253.8150000036694],"total_keys":1,"block":2,"trial":191,"stimulus":5,"robot":4,"valence":"lose","action":"no-go","sham":0,"trial_type":"pit-trial","trial_index":222,"time_elapsed":907782,"internal_node_id":"0.0-197.0","task_version":"battery-v0.2-trt","session":3},{"rune":"P","rune_set":"elianto","hex":"#3366ff99","correct":32,"choice":32,"rt":409.10500002792105,"accuracy":1,"outcome":"+10","keys":[1910.9649999882095],"total_keys":1,"block":2,"trial":192,"stimulus":7,"robot":1,"valence":"win","action":"go","sham":0,"trial_type":"pit-trial","trial_index":223,"time_elapsed":910896,"internal_node_id":"0.0-198.0","task_version":"battery-v0.2-trt","session":3},{"rune":"S","rune_set":"elianto","hex":"#3366ff99","correct":-1,"choice":-1,"rt":-1,"accuracy":1,"outcome":"+10","keys":[],"total_keys":0,"block":2,"trial":193,"stimulus":6,"robot":2,"valence":"win","action":"no-go","sham":0,"trial_type":"pit-trial","trial_index":224,"time_elapsed":914898,"internal_node_id":"0.0-199.0","task_version":"battery-v0.2-trt","session":3},{"rune":"E","rune_set":"elianto","hex":"#f73b6a7A","correct":32,"choice":32,"rt":478.80500002065673,"accuracy":1,"outcome":"-1","keys":[1978.9899999741465],"total_keys":1,"block":2,"trial":194,"stimulus":4,"robot":3,"valence":"lose","action":"go","sham":0,"trial_type":"pit-trial","trial_index":225,"time_elapsed":918080,"internal_node_id":"0.0-200.0","task_version":"battery-v0.2-trt","session":3},{"rune":"P","rune_set":"elianto","hex":"#3366ff99","correct":32,"choice":32,"rt":456.12500002607703,"accuracy":1,"outcome":"+10","keys":[1957.2449999977835],"total_keys":1,"block":2,"trial":195,"stimulus":7,"robot":1,"valence":"win","action":"go","sham":0,"trial_type":"pit-trial","trial_index":226,"time_elapsed":921239,"internal_node_id":"0.0-201.0","task_version":"battery-v0.2-trt","session":3},{"rune":"G","rune_set":"elianto","hex":"#3366ff99","correct":32,"choice":32,"rt":768.9850000315346,"accuracy":1,"outcome":"+10","keys":[2270.1449999585748],"total_keys":1,"block":2,"trial":196,"stimulus":8,"robot":1,"valence":"win","action":"go","sham":0,"trial_type":"pit-trial","trial_index":227,"time_elapsed":924712,"internal_node_id":"0.0-202.0","task_version":"battery-v0.2-trt","session":3},{"rune":"S","rune_set":"elianto","hex":"#3366ff99","correct":-1,"choice":-1,"rt":-1,"accuracy":1,"outcome":"+10","keys":[],"total_keys":0,"block":2,"trial":197,"stimulus":6,"robot":2,"valence":"win","action":"no-go","sham":0,"trial_type":"pit-trial","trial_index":228,"time_elapsed":928714,"internal_node_id":"0.0-203.0","task_version":"battery-v0.2-trt","session":3},{"rune":"E","rune_set":"elianto","hex":"#f73b6a7A","correct":32,"choice":32,"rt":525.8150000008754,"accuracy":1,"outcome":"-1","keys":[2026.964999968186],"total_keys":1,"block":2,"trial":198,"stimulus":4,"robot":3,"valence":"lose","action":"go","sham":0,"trial_type":"pit-trial","trial_index":229,"time_elapsed":931943,"internal_node_id":"0.0-204.0","task_version":"battery-v0.2-trt","session":3},{"rune":"G","rune_set":"elianto","hex":"#3366ff99","correct":32,"choice":32,"rt":592.3700000275858,"accuracy":1,"outcome":"+1","keys":[2094.039999996312],"total_keys":1,"block":2,"trial":199,"stimulus":8,"robot":1,"valence":"win","action":"go","sham":1,"trial_type":"pit-trial","trial_index":230,"time_elapsed":935239,"internal_node_id":"0.0-205.0","task_version":"battery-v0.2-trt","session":3},{"rune":"P","rune_set":"elianto","hex":"#3366ff99","correct":32,"choice":32,"rt":410.09499999927357,"accuracy":1,"outcome":"+10","keys":[1910.1799999480136],"total_keys":1,"block":2,"trial":200,"stimulus":7,"robot":1,"valence":"win","action":"go","sham":0,"trial_type":"pit-trial","trial_index":231,"time_elapsed":938351,"internal_node_id":"0.0-206.0","task_version":"battery-v0.2-trt","session":3},{"rune":"P","rune_set":"elianto","hex":"#3366ff99","correct":32,"choice":32,"rt":617.6699999487028,"accuracy":1,"outcome":"+1","keys":[2118.2999999728054],"total_keys":1,"block":2,"trial":201,"stimulus":7,"robot":1,"valence":"win","action":"go","sham":1,"trial_type":"pit-trial","trial_index":232,"time_elapsed":941672,"internal_node_id":"0.0-207.0","task_version":"battery-v0.2-trt","session":3},{"rune":"A","rune_set":"elianto","hex":"#3366ff99","correct":-1,"choice":32,"rt":720.499999995809,"accuracy":0,"outcome":"+1","keys":[2221.3099999935366],"total_keys":1,"block":2,"trial":202,"stimulus":9,"robot":2,"valence":"win","action":"no-go","sham":0,"trial_type":"pit-trial","trial_index":233,"time_elapsed":945096,"internal_node_id":"0.0-208.0","task_version":"battery-v0.2-trt","session":3},{"rune":"S","rune_set":"elianto","hex":"#3366ff99","correct":-1,"choice":-1,"rt":-1,"accuracy":1,"outcome":"+10","keys":[],"total_keys":0,"block":2,"trial":203,"stimulus":6,"robot":2,"valence":"win","action":"no-go","sham":0,"trial_type":"pit-trial","trial_index":234,"time_elapsed":949099,"internal_node_id":"0.0-209.0","task_version":"battery-v0.2-trt","session":3},{"rune":"G","rune_set":"elianto","hex":"#3366ff99","correct":32,"choice":32,"rt":693.0150000262074,"accuracy":1,"outcome":"+10","keys":[2193.710000021383],"total_keys":1,"block":2,"trial":204,"stimulus":8,"robot":1,"valence":"win","action":"go","sham":0,"trial_type":"pit-trial","trial_index":235,"time_elapsed":952495,"internal_node_id":"0.0-210.0","task_version":"battery-v0.2-trt","session":3},{"rune":"A","rune_set":"elianto","hex":"#3366ff99","correct":-1,"choice":-1,"rt":-1,"accuracy":1,"outcome":"+10","keys":[],"total_keys":0,"block":2,"trial":205,"stimulus":9,"robot":2,"valence":"win","action":"no-go","sham":0,"trial_type":"pit-trial","trial_index":236,"time_elapsed":956499,"internal_node_id":"0.0-211.0","task_version":"battery-v0.2-trt","session":3},{"rune":"S","rune_set":"elianto","hex":"#3366ff99","correct":-1,"choice":-1,"rt":-1,"accuracy":1,"outcome":"+10","keys":[],"total_keys":0,"block":2,"trial":206,"stimulus":6,"robot":2,"valence":"win","action":"no-go","sham":0,"trial_type":"pit-trial","trial_index":237,"time_elapsed":960502,"internal_node_id":"0.0-212.0","task_version":"battery-v0.2-trt","session":3},{"rune":"P","rune_set":"elianto","hex":"#3366ff99","correct":32,"choice":32,"rt":617.0249999850057,"accuracy":1,"outcome":"+1","keys":[2118.075000005774],"total_keys":1,"block":2,"trial":207,"stimulus":7,"robot":1,"valence":"win","action":"go","sham":1,"trial_type":"pit-trial","trial_index":238,"time_elapsed":963823,"internal_node_id":"0.0-213.0","task_version":"battery-v0.2-trt","session":3},{"rune":"G","rune_set":"elianto","hex":"#3366ff99","correct":32,"choice":32,"rt":537.2299999580719,"accuracy":1,"outcome":"+10","keys":[2037.47999999905],"total_keys":1,"block":2,"trial":208,"stimulus":8,"robot":1,"valence":"win","action":"go","sham":0,"trial_type":"pit-trial","trial_index":239,"time_elapsed":967062,"internal_node_id":"0.0-214.0","task_version":"battery-v0.2-trt","session":3},{"rune":"G","rune_set":"elianto","hex":"#3366ff99","correct":32,"choice":32,"rt":602.0850000204518,"accuracy":1,"outcome":"+10","keys":[2102.6249999995343],"total_keys":1,"block":2,"trial":209,"stimulus":8,"robot":1,"valence":"win","action":"go","sham":0,"trial_type":"pit-trial","trial_index":240,"time_elapsed":970367,"internal_node_id":"0.0-215.0","task_version":"battery-v0.2-trt","session":3},{"rune":"L","rune_set":"elianto","hex":"#f73b6a7A","correct":32,"choice":-1,"rt":-1,"accuracy":0,"outcome":"-10","keys":[],"total_keys":0,"block":2,"trial":210,"stimulus":10,"robot":3,"valence":"lose","action":"go","sham":0,"trial_type":"pit-trial","trial_index":241,"time_elapsed":974370,"internal_node_id":"0.0-216.0","task_version":"battery-v0.2-trt","session":3},{"rune":"A","rune_set":"elianto","hex":"#3366ff99","correct":-1,"choice":-1,"rt":-1,"accuracy":1,"outcome":"+10","keys":[],"total_keys":0,"block":2,"trial":211,"stimulus":9,"robot":2,"valence":"win","action":"no-go","sham":0,"trial_type":"pit-trial","trial_index":242,"time_elapsed":978374,"internal_node_id":"0.0-217.0","task_version":"battery-v0.2-trt","session":3},{"rune":"U","rune_set":"elianto","hex":"#f73b6a7A","correct":-1,"choice":32,"rt":794.3099999683909,"accuracy":0,"outcome":"-10","keys":[2294.8449999676086],"total_keys":1,"block":2,"trial":212,"stimulus":11,"robot":4,"valence":"lose","action":"no-go","sham":0,"trial_type":"pit-trial","trial_index":243,"time_elapsed":981871,"internal_node_id":"0.0-218.0","task_version":"battery-v0.2-trt","session":3},{"rune":"A","rune_set":"elianto","hex":"#3366ff99","correct":-1,"choice":-1,"rt":-1,"accuracy":1,"outcome":"+10","keys":[],"total_keys":0,"block":2,"trial":213,"stimulus":9,"robot":2,"valence":"win","action":"no-go","sham":0,"trial_type":"pit-trial","trial_index":244,"time_elapsed":985874,"internal_node_id":"0.0-219.0","task_version":"battery-v0.2-trt","session":3},{"rune":"U","rune_set":"elianto","hex":"#f73b6a7A","correct":-1,"choice":-1,"rt":-1,"accuracy":1,"outcome":"-1","keys":[],"total_keys":0,"block":2,"trial":214,"stimulus":11,"robot":4,"valence":"lose","action":"no-go","sham":0,"trial_type":"pit-trial","trial_index":245,"time_elapsed":989877,"internal_node_id":"0.0-220.0","task_version":"battery-v0.2-trt","session":3},{"rune":"G","rune_set":"elianto","hex":"#3366ff99","correct":32,"choice":-1,"rt":-1,"accuracy":0,"outcome":"+1","keys":[2847.719999961555],"total_keys":1,"block":2,"trial":215,"stimulus":8,"robot":1,"valence":"win","action":"go","sham":0,"trial_type":"pit-trial","trial_index":246,"time_elapsed":993880,"internal_node_id":"0.0-221.0","task_version":"battery-v0.2-trt","session":3},{"rune":"L","rune_set":"elianto","hex":"#f73b6a7A","correct":32,"choice":32,"rt":926.6500000376254,"accuracy":1,"outcome":"-1","keys":[2428.0450000078417],"total_keys":1,"block":2,"trial":216,"stimulus":10,"robot":3,"valence":"lose","action":"go","sham":0,"trial_type":"pit-trial","trial_index":247,"time_elapsed":997511,"internal_node_id":"0.0-222.0","task_version":"battery-v0.2-trt","session":3},{"rune":"A","rune_set":"elianto","hex":"#3366ff99","correct":-1,"choice":-1,"rt":-1,"accuracy":1,"outcome":"+10","keys":[],"total_keys":0,"block":2,"trial":217,"stimulus":9,"robot":2,"valence":"win","action":"no-go","sham":0,"trial_type":"pit-trial","trial_index":248,"time_elapsed":1001515,"internal_node_id":"0.0-223.0","task_version":"battery-v0.2-trt","session":3},{"rune":"U","rune_set":"elianto","hex":"#f73b6a7A","correct":-1,"choice":-1,"rt":-1,"accuracy":1,"outcome":"-1","keys":[],"total_keys":0,"block":2,"trial":218,"stimulus":11,"robot":4,"valence":"lose","action":"no-go","sham":0,"trial_type":"pit-trial","trial_index":249,"time_elapsed":1005517,"internal_node_id":"0.0-224.0","task_version":"battery-v0.2-trt","session":3},{"rune":"G","rune_set":"elianto","hex":"#3366ff99","correct":32,"choice":32,"rt":657.8250000020489,"accuracy":1,"outcome":"+10","keys":[2158.8950000004843],"total_keys":1,"block":2,"trial":219,"stimulus":8,"robot":1,"valence":"win","action":"go","sham":0,"trial_type":"pit-trial","trial_index":250,"time_elapsed":1008879,"internal_node_id":"0.0-225.0","task_version":"battery-v0.2-trt","session":3},{"rune":"L","rune_set":"elianto","hex":"#f73b6a7A","correct":32,"choice":32,"rt":688.785000005737,"accuracy":1,"outcome":"-1","keys":[2189.4749999628402],"total_keys":1,"block":2,"trial":220,"stimulus":10,"robot":3,"valence":"lose","action":"go","sham":0,"trial_type":"pit-trial","trial_index":251,"time_elapsed":1012272,"internal_node_id":"0.0-226.0","task_version":"battery-v0.2-trt","session":3},{"rune":"A","rune_set":"elianto","hex":"#3366ff99","correct":-1,"choice":-1,"rt":-1,"accuracy":1,"outcome":"+1","keys":[],"total_keys":0,"block":2,"trial":221,"stimulus":9,"robot":2,"valence":"win","action":"no-go","sham":1,"trial_type":"pit-trial","trial_index":252,"time_elapsed":1016276,"internal_node_id":"0.0-227.0","task_version":"battery-v0.2-trt","session":3},{"rune":"U","rune_set":"elianto","hex":"#f73b6a7A","correct":-1,"choice":32,"rt":412.79999999096617,"accuracy":0,"outcome":"-10","keys":[1913.6799999978393],"total_keys":1,"block":2,"trial":222,"stimulus":11,"robot":4,"valence":"lose","action":"no-go","sham":0,"trial_type":"pit-trial","trial_index":253,"time_elapsed":1019391,"internal_node_id":"0.0-228.0","task_version":"battery-v0.2-trt","session":3},{"rune":"L","rune_set":"elianto","hex":"#f73b6a7A","correct":32,"choice":32,"rt":527.3900000029244,"accuracy":1,"outcome":"-1","keys":[2029.2200000258163],"total_keys":1,"block":2,"trial":223,"stimulus":10,"robot":3,"valence":"lose","action":"go","sham":0,"trial_type":"pit-trial","trial_index":254,"time_elapsed":1022623,"internal_node_id":"0.0-229.0","task_version":"battery-v0.2-trt","session":3},{"rune":"G","rune_set":"elianto","hex":"#3366ff99","correct":32,"choice":32,"rt":824.9800000339746,"accuracy":1,"outcome":"+10","keys":[2325.7699999958277],"total_keys":1,"block":2,"trial":224,"stimulus":8,"robot":1,"valence":"win","action":"go","sham":0,"trial_type":"pit-trial","trial_index":255,"time_elapsed":1026151,"internal_node_id":"0.0-230.0","task_version":"battery-v0.2-trt","session":3},{"rune":"U","rune_set":"elianto","hex":"#f73b6a7A","correct":-1,"choice":32,"rt":928.1300000147894,"accuracy":0,"outcome":"-10","keys":[2430.0599999842234],"total_keys":1,"block":2,"trial":225,"stimulus":11,"robot":4,"valence":"lose","action":"no-go","sham":0,"trial_type":"pit-trial","trial_index":256,"time_elapsed":1029783,"internal_node_id":"0.0-231.0","task_version":"battery-v0.2-trt","session":3},{"rune":"G","rune_set":"elianto","hex":"#3366ff99","correct":32,"choice":32,"rt":777.2000000113621,"accuracy":1,"outcome":"+1","keys":[2277.4599999538623],"total_keys":1,"block":2,"trial":226,"stimulus":8,"robot":1,"valence":"win","action":"go","sham":1,"trial_type":"pit-trial","trial_index":257,"time_elapsed":1033264,"internal_node_id":"0.0-232.0","task_version":"battery-v0.2-trt","session":3},{"rune":"A","rune_set":"elianto","hex":"#3366ff99","correct":-1,"choice":-1,"rt":-1,"accuracy":1,"outcome":"+10","keys":[],"total_keys":0,"block":2,"trial":227,"stimulus":9,"robot":2,"valence":"win","action":"no-go","sham":0,"trial_type":"pit-trial","trial_index":258,"time_elapsed":1037268,"internal_node_id":"0.0-233.0","task_version":"battery-v0.2-trt","session":3},{"rune":"L","rune_set":"elianto","hex":"#f73b6a7A","correct":32,"choice":32,"rt":620.2850000117905,"accuracy":1,"outcome":"-1","keys":[2121.0299999802373],"total_keys":1,"block":2,"trial":228,"stimulus":10,"robot":3,"valence":"lose","action":"go","sham":0,"trial_type":"pit-trial","trial_index":259,"time_elapsed":1040591,"internal_node_id":"0.0-234.0","task_version":"battery-v0.2-trt","session":3},{"rune":"L","rune_set":"elianto","hex":"#f73b6a7A","correct":32,"choice":32,"rt":655.365000013262,"accuracy":1,"outcome":"-10","keys":[2157.2700000251643],"total_keys":1,"block":2,"trial":229,"stimulus":10,"robot":3,"valence":"lose","action":"go","sham":1,"trial_type":"pit-trial","trial_index":260,"time_elapsed":1043951,"internal_node_id":"0.0-235.0","task_version":"battery-v0.2-trt","session":3},{"rune":"A","rune_set":"elianto","hex":"#3366ff99","correct":-1,"choice":-1,"rt":-1,"accuracy":1,"outcome":"+10","keys":[],"total_keys":0,"block":2,"trial":230,"stimulus":9,"robot":2,"valence":"win","action":"no-go","sham":0,"trial_type":"pit-trial","trial_index":261,"time_elapsed":1047955,"internal_node_id":"0.0-236.0","task_version":"battery-v0.2-trt","session":3},{"rune":"U","rune_set":"elianto","hex":"#f73b6a7A","corr