[{"view_history":"[{\"page_index\":0,\"viewing_time\":2779.9700000032317}]","rt":2780.1800000015646,"trial_type":"instructions","trial_index":0,"time_elapsed":2789,"internal_node_id":"0.0-0.0","task_version":"battery-v0.2-trt","session":3},{"slider_type":"valence","raw_loc":622,"loc":0.744,"trial_type":"affective-slider","trial_index":1,"time_elapsed":5977,"internal_node_id":"0.0-1.0","task_version":"battery-v0.2-trt","session":3},{"responses":{"Q05":"0","Q02":"0","Q06":"0","Q08":"0","Q03":"0","Q07":"0","Q01":"0","Q04":"0"},"rt":8911.074999981793,"item_order":[4,1,5,7,2,6,0,3],"radio_events":[2426.21499998495,3066.594999982044,3646.324999979697,4194.539999996778,5586.459999991348,6494.56999998074,7142.509999976028,7774.499999999534],"key_events":[2426.21499998495,3066.594999982044,3646.324999979697,4194.539999996778,5586.459999991348,6494.56999998074,7142.509999976028,7774.499999999534,8910.379999986617],"mouse_events":[],"straightlining":1,"zigzagging":0,"survey":"gad7","trial_type":"survey-template","trial_index":2,"time_elapsed":14890,"internal_node_id":"0.0-2.0","task_version":"battery-v0.2-trt","session":3,"infrequency":0},{"responses":{"Q06":"0","Q07":"0","Q05":"0","Q03":"0","Q01":"0","Q08":"3","Q02":"0","Q04":"0"},"rt":12624.964999995427,"item_order":[5,6,4,2,0,7,1,3],"radio_events":[1421.5450000192504,2076.390000001993,3244.7399999946356,3976.630000019213,4540.825000003679,5108.6599999980535,5524.4649999949615,7596.710000012536,10600.345000013476],"key_events":[1421.5450000192504,2076.390000001993,3244.7399999946356,3976.630000019213,4540.825000003679,5108.6599999980535,5524.4649999949615,7596.710000012536,10600.345000013476,12624.364999996033],"mouse_events":[],"straightlining":0.875,"zigzagging":0.2857142857142857,"survey":"dass_d","trial_type":"survey-template","trial_index":3,"time_elapsed":27516,"internal_node_id":"0.0-3.0","task_version":"battery-v0.2-trt","session":3,"infrequency":0},{"view_history":"[{\"page_index\":0,\"viewing_time\":2631.2899999902584},{\"page_index\":1,\"viewing_time\":3533.990000025369},{\"page_index\":2,\"viewing_time\":2434.094999975059},{\"page_index\":3,\"viewing_time\":3362.9650000075344},{\"page_index\":4,\"viewing_time\":2161.9099999952596},{\"page_index\":5,\"viewing_time\":1712.0100000174716},{\"page_index\":6,\"viewing_time\":2737.8199999802746},{\"page_index\":7,\"viewing_time\":4981.180000002496},{\"page_index\":8,\"viewing_time\":5972.050000011222},{\"page_index\":9,\"viewing_time\":1197.859999985667}]","rt":30725.47000000486,"trial_type":"pit-instructions","trial_index":4,"time_elapsed":58244,"internal_node_id":"0.0-4.0-0.0","task_version":"battery-v0.2-trt","session":3},{"rune":"1","rune_set":"elianto","hex":"#3366ff99","correct":32,"choice":32,"rt":656.5750000008848,"accuracy":1,"outcome":"+10","keys":[2156.6400000010617],"total_keys":1,"block":0,"practice":1,"trial_type":"pit-trial","trial_index":5,"time_elapsed":61604,"internal_node_id":"0.0-4.0-1.0-0.0","task_version":"battery-v0.2-trt","session":3},{"rune":"1","rune_set":"elianto","hex":"#3366ff99","correct":32,"choice":32,"rt":273.9149999979418,"accuracy":1,"outcome":"+10","keys":[1775.679999991553],"total_keys":1,"block":0,"practice":1,"trial_type":"pit-trial","trial_index":6,"time_elapsed":64582,"internal_node_id":"0.0-4.0-1.1-0.1","task_version":"battery-v0.2-trt","session":3},{"rune":"1","rune_set":"elianto","hex":"#3366ff99","correct":32,"choice":32,"rt":216.16500001982786,"accuracy":1,"outcome":"+10","keys":[1717.6299999991897],"total_keys":1,"block":0,"practice":1,"trial_type":"pit-trial","trial_index":7,"time_elapsed":67502,"internal_node_id":"0.0-4.0-1.2-0.2","task_version":"battery-v0.2-trt","session":3},{"rune":"1","rune_set":"elianto","hex":"#3366ff99","correct":32,"choice":32,"rt":167.58999999728985,"accuracy":1,"outcome":"+10","keys":[1669.2349999793805],"total_keys":1,"block":0,"practice":1,"trial_type":"pit-trial","trial_index":8,"time_elapsed":70372,"internal_node_id":"0.0-4.0-1.3-0.3","task_version":"battery-v0.2-trt","session":3},{"trial_type":"call-function","trial_index":9,"time_elapsed":70372,"internal_node_id":"0.0-4.0-2.0","task_version":"battery-v0.2-trt","session":3},{"view_history":"[{\"page_index\":0,\"viewing_time\":3182.475000008708},{\"page_index\":1,\"viewing_time\":4288.024999987101}]","rt":7470.709999994142,"trial_type":"pit-instructions","trial_index":10,"time_elapsed":77843,"internal_node_id":"0.0-4.0-3.0","task_version":"battery-v0.2-trt","session":3},{"rune":"2","rune_set":"elianto","hex":"#3366ff99","correct":-1,"choice":-1,"rt":-1,"accuracy":1,"outcome":"+10","keys":[],"total_keys":0,"block":0,"practice":2,"trial_type":"pit-trial","trial_index":11,"time_elapsed":81846,"internal_node_id":"0.0-4.0-4.0-0.0","task_version":"battery-v0.2-trt","session":3},{"rune":"2","rune_set":"elianto","hex":"#3366ff99","correct":-1,"choice":-1,"rt":-1,"accuracy":1,"outcome":"+10","keys":[],"total_keys":0,"block":0,"practice":2,"trial_type":"pit-trial","trial_index":12,"time_elapsed":85849,"internal_node_id":"0.0-4.0-4.1-0.1","task_version":"battery-v0.2-trt","session":3},{"rune":"2","rune_set":"elianto","hex":"#3366ff99","correct":-1,"choice":-1,"rt":-1,"accuracy":1,"outcome":"+10","keys":[],"total_keys":0,"block":0,"practice":2,"trial_type":"pit-trial","trial_index":13,"time_elapsed":89852,"internal_node_id":"0.0-4.0-4.2-0.2","task_version":"battery-v0.2-trt","session":3},{"rune":"2","rune_set":"elianto","hex":"#3366ff99","correct":-1,"choice":-1,"rt":-1,"accuracy":1,"outcome":"+10","keys":[],"total_keys":0,"block":0,"practice":2,"trial_type":"pit-trial","trial_index":14,"time_elapsed":93854,"internal_node_id":"0.0-4.0-4.3-0.3","task_version":"battery-v0.2-trt","session":3},{"trial_type":"call-function","trial_index":15,"time_elapsed":93855,"internal_node_id":"0.0-4.0-5.0","task_version":"battery-v0.2-trt","session":3},{"view_history":"[{\"page_index\":0,\"viewing_time\":2150.070000003325},{\"page_index\":1,\"viewing_time\":892.8299999970477}]","rt":3043.1450000032783,"trial_type":"pit-instructions","trial_index":16,"time_elapsed":96898,"internal_node_id":"0.0-4.0-6.0","task_version":"battery-v0.2-trt","session":3},{"rune":"3","rune_set":"elianto","hex":"#f73b6a7A","correct":-1,"choice":32,"rt":429.76999998791143,"accuracy":0,"outcome":"-10","keys":[1930.3150000050664],"total_keys":1,"block":0,"practice":3,"trial_type":"pit-trial","trial_index":17,"time_elapsed":100030,"internal_node_id":"0.0-4.0-7.0-0.0","task_version":"battery-v0.2-trt","session":3},{"rune":"3","rune_set":"elianto","hex":"#f73b6a7A","correct":-1,"choice":-1,"rt":-1,"accuracy":1,"outcome":"-1","keys":[],"total_keys":0,"block":0,"practice":3,"trial_type":"pit-trial","trial_index":18,"time_elapsed":104035,"internal_node_id":"0.0-4.0-7.1-0.1","task_version":"battery-v0.2-trt","session":3},{"rune":"3","rune_set":"elianto","hex":"#f73b6a7A","correct":-1,"choice":-1,"rt":-1,"accuracy":1,"outcome":"-1","keys":[],"total_keys":0,"block":0,"practice":3,"trial_type":"pit-trial","trial_index":19,"time_elapsed":108039,"internal_node_id":"0.0-4.0-7.2-0.2","task_version":"battery-v0.2-trt","session":3},{"rune":"3","rune_set":"elianto","hex":"#f73b6a7A","correct":-1,"choice":-1,"rt":-1,"accuracy":1,"outcome":"-1","keys":[],"total_keys":0,"block":0,"practice":3,"trial_type":"pit-trial","trial_index":20,"time_elapsed":112042,"internal_node_id":"0.0-4.0-7.3-0.3","task_version":"battery-v0.2-trt","session":3},{"trial_type":"call-function","trial_index":21,"time_elapsed":112042,"internal_node_id":"0.0-4.0-8.0","task_version":"battery-v0.2-trt","session":3},{"view_history":"[{\"page_index\":0,\"viewing_time\":1882.964999997057},{\"page_index\":1,\"viewing_time\":1513.0950000020675}]","rt":3396.2699999974575,"trial_type":"pit-instructions","trial_index":22,"time_elapsed":115439,"internal_node_id":"0.0-4.0-9.0","task_version":"battery-v0.2-trt","session":3},{"rune":"4","rune_set":"elianto","hex":"#f73b6a7A","correct":32,"choice":32,"rt":436.5949999773875,"accuracy":1,"outcome":"-1","keys":[1937.290000001667],"total_keys":1,"block":0,"practice":4,"trial_type":"pit-trial","trial_index":23,"time_elapsed":118577,"internal_node_id":"0.0-4.0-10.0-0.0","task_version":"battery-v0.2-trt","session":3},{"rune":"4","rune_set":"elianto","hex":"#f73b6a7A","correct":32,"choice":32,"rt":320.9999999962747,"accuracy":1,"outcome":"-1","keys":[1821.5499999932945],"total_keys":1,"block":0,"practice":4,"trial_type":"pit-trial","trial_index":24,"time_elapsed":121601,"internal_node_id":"0.0-4.0-10.1-0.1","task_version":"battery-v0.2-trt","session":3},{"rune":"4","rune_set":"elianto","hex":"#f73b6a7A","correct":32,"choice":32,"rt":346.0049999994226,"accuracy":1,"outcome":"-1","keys":[1846.529999980703],"total_keys":1,"block":0,"practice":4,"trial_type":"pit-trial","trial_index":25,"time_elapsed":124649,"internal_node_id":"0.0-4.0-10.2-0.2","task_version":"battery-v0.2-trt","session":3},{"rune":"4","rune_set":"elianto","hex":"#f73b6a7A","correct":32,"choice":32,"rt":269.09499999601394,"accuracy":1,"outcome":"-1","keys":[1769.9699999939185],"total_keys":1,"block":0,"practice":4,"trial_type":"pit-trial","trial_index":26,"time_elapsed":127620,"internal_node_id":"0.0-4.0-10.3-0.3","task_version":"battery-v0.2-trt","session":3},{"trial_type":"call-function","trial_index":27,"time_elapsed":127620,"internal_node_id":"0.0-4.0-11.0","task_version":"battery-v0.2-trt","session":3},{"view_history":"[{\"page_index\":0,\"viewing_time\":2990.9000000043306},{\"page_index\":1,\"viewing_time\":1670.8400000061374},{\"page_index\":2,\"viewing_time\":1406.1149999906775},{\"page_index\":3,\"viewing_time\":1275.0400000077207},{\"page_index\":4,\"viewing_time\":1297.084999998333},{\"page_index\":5,\"viewing_time\":1274.8450000071898}]","rt":9915.035000012722,"trial_type":"pit-instructions","trial_index":28,"time_elapsed":137536,"internal_node_id":"0.0-4.0-12.0","task_version":"battery-v0.2-trt","session":3},{"responses":["Press SPACE","+10","-1","True","True"],"num_errors":0,"rt":17846.059999981662,"trial_type":"pit-comprehension","trial_index":29,"time_elapsed":155383,"internal_node_id":"0.0-4.0-13.0","task_version":"battery-v0.2-trt","session":3},{"view_history":"[{\"page_index\":0,\"viewing_time\":3419.9050000170246},{\"page_index\":1,\"viewing_time\":3785.9299999836367}]","rt":7206.050000007963,"trial_type":"pit-instructions","trial_index":30,"time_elapsed":162592,"internal_node_id":"0.0-5.0","task_version":"battery-v0.2-trt","session":3},{"rune":"F","rune_set":"elianto","hex":"#f73b6a7A","correct":-1,"choice":32,"rt":474.79499998735264,"accuracy":0,"outcome":"-10","keys":[1975.800000014715],"total_keys":1,"block":1,"trial":1,"stimulus":2,"robot":4,"valence":"lose","action":"no-go","sham":0,"trial_type":"pit-trial","trial_index":31,"time_elapsed":165770,"internal_node_id":"0.0-6.0","task_version":"battery-v0.2-trt","session":3},{"rune":"X","rune_set":"elianto","hex":"#3366ff99","correct":32,"choice":32,"rt":537.1599999780301,"accuracy":1,"outcome":"+10","keys":[2037.865000020247],"total_keys":1,"block":1,"trial":2,"stimulus":3,"robot":1,"valence":"win","action":"go","sham":0,"trial_type":"pit-trial","trial_index":32,"time_elapsed":169010,"internal_node_id":"0.0-7.0","task_version":"battery-v0.2-trt","session":3},{"rune":"Q","rune_set":"elianto","hex":"#3366ff99","correct":-1,"choice":32,"rt":654.5249999908265,"accuracy":0,"outcome":"+1","keys":[2154.7149999823887],"total_keys":1,"block":1,"trial":3,"stimulus":0,"robot":2,"valence":"win","action":"no-go","sham":0,"trial_type":"pit-trial","trial_index":33,"time_elapsed":172366,"internal_node_id":"0.0-8.0","task_version":"battery-v0.2-trt","session":3},{"rune":"N","rune_set":"elianto","hex":"#f73b6a7A","correct":32,"choice":-1,"rt":-1,"accuracy":0,"outcome":"-10","keys":[],"total_keys":0,"block":1,"trial":4,"stimulus":1,"robot":3,"valence":"lose","action":"go","sham":0,"trial_type":"pit-trial","trial_index":34,"time_elapsed":176368,"internal_node_id":"0.0-9.0","task_version":"battery-v0.2-trt","session":3},{"rune":"N","rune_set":"elianto","hex":"#f73b6a7A","correct":32,"choice":32,"rt":754.4749999942724,"accuracy":1,"outcome":"-1","keys":[2254.740000003949],"total_keys":1,"block":1,"trial":5,"stimulus":1,"robot":3,"valence":"lose","action":"go","sham":0,"trial_type":"pit-trial","trial_index":35,"time_elapsed":179824,"internal_node_id":"0.0-10.0","task_version":"battery-v0.2-trt","session":3},{"rune":"X","rune_set":"elianto","hex":"#3366ff99","correct":32,"choice":32,"rt":801.7099999997299,"accuracy":1,"outcome":"+10","keys":[2302.735000004759],"total_keys":1,"block":1,"trial":6,"stimulus":3,"robot":1,"valence":"win","action":"go","sham":0,"trial_type":"pit-trial","trial_index":36,"time_elapsed":183329,"internal_node_id":"0.0-11.0","task_version":"battery-v0.2-trt","session":3},{"rune":"Q","rune_set":"elianto","hex":"#3366ff99","correct":-1,"choice":-1,"rt":-1,"accuracy":1,"outcome":"+10","keys":[],"total_keys":0,"block":1,"trial":7,"stimulus":0,"robot":2,"valence":"win","action":"no-go","sham":0,"trial_type":"pit-trial","trial_index":37,"time_elapsed":187334,"internal_node_id":"0.0-12.0","task_version":"battery-v0.2-trt","session":3},{"rune":"F","rune_set":"elianto","hex":"#f73b6a7A","correct":-1,"choice":32,"rt":1204.1750000207685,"accuracy":0,"outcome":"-10","keys":[2704.3349999876227],"total_keys":1,"block":1,"trial":8,"stimulus":2,"robot":4,"valence":"lose","action":"no-go","sham":0,"trial_type":"pit-trial","trial_index":38,"time_elapsed":191240,"internal_node_id":"0.0-13.0","task_version":"battery-v0.2-trt","session":3},{"rune":"Q","rune_set":"elianto","hex":"#3366ff99","correct":-1,"choice":32,"rt":970.1000000059139,"accuracy":0,"outcome":"+1","keys":[2470.115000003716],"total_keys":1,"block":1,"trial":9,"stimulus":0,"robot":2,"valence":"win","action":"no-go","sham":0,"trial_type":"pit-trial","trial_index":39,"time_elapsed":194912,"internal_node_id":"0.0-14.0","task_version":"battery-v0.2-trt","session":3},{"rune":"X","rune_set":"elianto","hex":"#3366ff99","correct":32,"choice":32,"rt":805.4300000076182,"accuracy":1,"outcome":"+10","keys":[2305.7449999905657],"total_keys":1,"block":1,"trial":10,"stimulus":3,"robot":1,"valence":"win","action":"go","sham":0,"trial_type":"pit-trial","trial_index":40,"time_elapsed":198420,"internal_node_id":"0.0-15.0","task_version":"battery-v0.2-trt","session":3},{"rune":"F","rune_set":"elianto","hex":"#f73b6a7A","correct":-1,"choice":-1,"rt":-1,"accuracy":1,"outcome":"-10","keys":[],"total_keys":0,"block":1,"trial":11,"stimulus":2,"robot":4,"valence":"lose","action":"no-go","sham":1,"trial_type":"pit-trial","trial_index":41,"time_elapsed":202423,"internal_node_id":"0.0-16.0","task_version":"battery-v0.2-trt","session":3},{"rune":"N","rune_set":"elianto","hex":"#f73b6a7A","correct":32,"choice":32,"rt":678.249999997206,"accuracy":1,"outcome":"-1","keys":[2178.3249999862164],"total_keys":1,"block":1,"trial":12,"stimulus":1,"robot":3,"valence":"lose","action":"go","sham":0,"trial_type":"pit-trial","trial_index":42,"time_elapsed":205804,"internal_node_id":"0.0-17.0","task_version":"battery-v0.2-trt","session":3},{"rune":"Q","rune_set":"elianto","hex":"#3366ff99","correct":-1,"choice":-1,"rt":-1,"accuracy":1,"outcome":"+10","keys":[],"total_keys":0,"block":1,"trial":13,"stimulus":0,"robot":2,"valence":"win","action":"no-go","sham":0,"trial_type":"pit-trial","trial_index":43,"time_elapsed":209805,"internal_node_id":"0.0-18.0","task_version":"battery-v0.2-trt","session":3},{"rune":"N","rune_set":"elianto","hex":"#f73b6a7A","correct":32,"choice":32,"rt":1021.6199999849778,"accuracy":1,"outcome":"-1","keys":[2522.575000009965],"total_keys":1,"block":1,"trial":14,"stimulus":1,"robot":3,"valence":"lose","action":"go","sham":0,"trial_type":"pit-trial","trial_index":44,"time_elapsed":213529,"internal_node_id":"0.0-19.0","task_version":"battery-v0.2-trt","session":3},{"rune":"F","rune_set":"elianto","hex":"#f73b6a7A","correct":-1,"choice":-1,"rt":-1,"accuracy":1,"outcome":"-1","keys":[],"total_keys":0,"block":1,"trial":15,"stimulus":2,"robot":4,"valence":"lose","action":"no-go","sham":0,"trial_type":"pit-trial","trial_index":45,"time_elapsed":217531,"internal_node_id":"0.0-20.0","task_version":"battery-v0.2-trt","session":3},{"rune":"X","rune_set":"elianto","hex":"#3366ff99","correct":32,"choice":32,"rt":775.0299999897834,"accuracy":1,"outcome":"+10","keys":[2276.914999994915],"total_keys":1,"block":1,"trial":16,"stimulus":3,"robot":1,"valence":"win","action":"go","sham":0,"trial_type":"pit-trial","trial_index":46,"time_elapsed":221010,"internal_node_id":"0.0-21.0","task_version":"battery-v0.2-trt","session":3},{"rune":"F","rune_set":"elianto","hex":"#f73b6a7A","correct":-1,"choice":-1,"rt":-1,"accuracy":1,"outcome":"-1","keys":[],"total_keys":0,"block":1,"trial":17,"stimulus":2,"robot":4,"valence":"lose","action":"no-go","sham":0,"trial_type":"pit-trial","trial_index":47,"time_elapsed":225012,"internal_node_id":"0.0-22.0","task_version":"battery-v0.2-trt","session":3},{"rune":"N","rune_set":"elianto","hex":"#f73b6a7A","correct":32,"choice":32,"rt":745.1250000158325,"accuracy":1,"outcome":"-1","keys":[2246.785000024829],"total_keys":1,"block":1,"trial":18,"stimulus":1,"robot":3,"valence":"lose","action":"go","sham":0,"trial_type":"pit-trial","trial_index":48,"time_elapsed":228462,"internal_node_id":"0.0-23.0","task_version":"battery-v0.2-trt","session":3},{"rune":"X","rune_set":"elianto","hex":"#3366ff99","correct":32,"choice":32,"rt":669.064999994589,"accuracy":1,"outcome":"+10","keys":[2169.6850000007544],"total_keys":1,"block":1,"trial":19,"stimulus":3,"robot":1,"valence":"win","action":"go","sham":0,"trial_type":"pit-trial","trial_index":49,"time_elapsed":231832,"internal_node_id":"0.0-24.0","task_version":"battery-v0.2-trt","session":3},{"rune":"Q","rune_set":"elianto","hex":"#3366ff99","correct":-1,"choice":-1,"rt":-1,"accuracy":1,"outcome":"+10","keys":[],"total_keys":0,"block":1,"trial":20,"stimulus":0,"robot":2,"valence":"win","action":"no-go","sham":0,"trial_type":"pit-trial","trial_index":50,"time_elapsed":235837,"internal_node_id":"0.0-25.0","task_version":"battery-v0.2-trt","session":3},{"rune":"X","rune_set":"elianto","hex":"#3366ff99","correct":32,"choice":32,"rt":549.1250000195578,"accuracy":1,"outcome":"+1","keys":[2049.1800000017975],"total_keys":1,"block":1,"trial":21,"stimulus":3,"robot":1,"valence":"win","action":"go","sham":1,"trial_type":"pit-trial","trial_index":51,"time_elapsed":239089,"internal_node_id":"0.0-26.0","task_version":"battery-v0.2-trt","session":3},{"rune":"Q","rune_set":"elianto","hex":"#3366ff99","correct":-1,"choice":-1,"rt":-1,"accuracy":1,"outcome":"+10","keys":[],"total_keys":0,"block":1,"trial":22,"stimulus":0,"robot":2,"valence":"win","action":"no-go","sham":0,"trial_type":"pit-trial","trial_index":52,"time_elapsed":243090,"internal_node_id":"0.0-27.0","task_version":"battery-v0.2-trt","session":3},{"rune":"F","rune_set":"elianto","hex":"#f73b6a7A","correct":-1,"choice":32,"rt":694.4099999964237,"accuracy":0,"outcome":"-1","keys":[2195.644999999786],"total_keys":1,"block":1,"trial":23,"stimulus":2,"robot":4,"valence":"lose","action":"no-go","sham":1,"trial_type":"pit-trial","trial_index":53,"time_elapsed":246488,"internal_node_id":"0.0-28.0","task_version":"battery-v0.2-trt","session":3},{"rune":"N","rune_set":"elianto","hex":"#f73b6a7A","correct":32,"choice":32,"rt":453.00000000861473,"accuracy":1,"outcome":"-10","keys":[1954.1150000004563],"total_keys":1,"block":1,"trial":24,"stimulus":1,"robot":3,"valence":"lose","action":"go","sham":1,"trial_type":"pit-trial","trial_index":54,"time_elapsed":249644,"internal_node_id":"0.0-29.0","task_version":"battery-v0.2-trt","session":3},{"rune":"X","rune_set":"elianto","hex":"#3366ff99","correct":32,"choice":32,"rt":595.934999990277,"accuracy":1,"outcome":"+10","keys":[2096.7150000215042],"total_keys":1,"block":1,"trial":25,"stimulus":3,"robot":1,"valence":"win","action":"go","sham":0,"trial_type":"pit-trial","trial_index":55,"time_elapsed":252944,"internal_node_id":"0.0-30.0","task_version":"battery-v0.2-trt","session":3},{"rune":"N","rune_set":"elianto","hex":"#f73b6a7A","correct":32,"choice":-1,"rt":-1,"accuracy":0,"outcome":"-1","keys":[],"total_keys":0,"block":1,"trial":26,"stimulus":1,"robot":3,"valence":"lose","action":"go","sham":1,"trial_type":"pit-trial","trial_index":56,"time_elapsed":256946,"internal_node_id":"0.0-31.0","task_version":"battery-v0.2-trt","session":3},{"rune":"F","rune_set":"elianto","hex":"#f73b6a7A","correct":-1,"choice":32,"rt":609.1449999948964,"accuracy":0,"outcome":"-10","keys":[2110.849999997299],"total_keys":1,"block":1,"trial":27,"stimulus":2,"robot":4,"valence":"lose","action":"no-go","sham":0,"trial_type":"pit-trial","trial_index":57,"time_elapsed":260259,"internal_node_id":"0.0-32.0","task_version":"battery-v0.2-trt","session":3},{"rune":"Q","rune_set":"elianto","hex":"#3366ff99","correct":-1,"choice":-1,"rt":-1,"accuracy":1,"outcome":"+10","keys":[],"total_keys":0,"block":1,"trial":28,"stimulus":0,"robot":2,"valence":"win","action":"no-go","sham":0,"trial_type":"pit-trial","trial_index":58,"time_elapsed":264262,"internal_node_id":"0.0-33.0","task_version":"battery-v0.2-trt","session":3},{"rune":"Q","rune_set":"elianto","hex":"#3366ff99","correct":-1,"choice":32,"rt":1079.809999995632,"accuracy":0,"outcome":"+1","keys":[2581.5200000070035],"total_keys":1,"block":1,"trial":29,"stimulus":0,"robot":2,"valence":"win","action":"no-go","sham":0,"trial_type":"pit-trial","trial_index":59,"time_elapsed":268046,"internal_node_id":"0.0-34.0","task_version":"battery-v0.2-trt","session":3},{"rune":"X","rune_set":"elianto","hex":"#3366ff99","correct":32,"choice":32,"rt":661.5999999921769,"accuracy":1,"outcome":"+10","keys":[2162.4599999922793],"total_keys":1,"block":1,"trial":30,"stimulus":3,"robot":1,"valence":"win","action":"go","sham":0,"trial_type":"pit-trial","trial_index":60,"time_elapsed":271410,"internal_node_id":"0.0-35.0","task_version":"battery-v0.2-trt","session":3},{"rune":"F","rune_set":"elianto","hex":"#f73b6a7A","correct":-1,"choice":-1,"rt":-1,"accuracy":1,"outcome":"-10","keys":[],"total_keys":0,"block":1,"trial":31,"stimulus":2,"robot":4,"valence":"lose","action":"no-go","sham":1,"trial_type":"pit-trial","trial_index":61,"time_elapsed":275412,"internal_node_id":"0.0-36.0","task_version":"battery-v0.2-trt","session":3},{"rune":"N","rune_set":"elianto","hex":"#f73b6a7A","correct":32,"choice":32,"rt":643.5550000169314,"accuracy":1,"outcome":"-1","keys":[2143.6199999880046],"total_keys":1,"block":1,"trial":32,"stimulus":1,"robot":3,"valence":"lose","action":"go","sham":0,"trial_type":"pit-trial","trial_index":62,"time_elapsed":278757,"internal_node_id":"0.0-37.0","task_version":"battery-v0.2-trt","session":3},{"rune":"N","rune_set":"elianto","hex":"#f73b6a7A","correct":32,"choice":32,"rt":713.9500000048429,"accuracy":1,"outcome":"-10","keys":[2214.1849999898113],"total_keys":1,"block":1,"trial":33,"stimulus":1,"robot":3,"valence":"lose","action":"go","sham":1,"trial_type":"pit-trial","trial_index":63,"time_elapsed":282174,"internal_node_id":"0.0-38.0","task_version":"battery-v0.2-trt","session":3},{"rune":"F","rune_set":"elianto","hex":"#f73b6a7A","correct":-1,"choice":32,"rt":888.0449999996927,"accuracy":0,"outcome":"-10","keys":[2389.1200000070967],"total_keys":1,"block":1,"trial":34,"stimulus":2,"robot":4,"valence":"lose","action":"no-go","sham":0,"trial_type":"pit-trial","trial_index":64,"time_elapsed":285765,"internal_node_id":"0.0-39.0","task_version":"battery-v0.2-trt","session":3},{"rune":"B","rune_set":"elianto","hex":"#f73b6a7A","correct":-1,"choice":-1,"rt":-1,"accuracy":1,"outcome":"-1","keys":[],"total_keys":0,"block":1,"trial":35,"stimulus":5,"robot":4,"valence":"lose","action":"no-go","sham":0,"trial_type":"pit-trial","trial_index":65,"time_elapsed":289768,"internal_node_id":"0.0-40.0","task_version":"battery-v0.2-trt","session":3},{"rune":"T","rune_set":"elianto","hex":"#f73b6a7A","correct":32,"choice":32,"rt":802.3549999925308,"accuracy":1,"outcome":"-1","keys":[2302.4250000016764],"total_keys":1,"block":1,"trial":36,"stimulus":4,"robot":3,"valence":"lose","action":"go","sham":0,"trial_type":"pit-trial","trial_index":66,"time_elapsed":293271,"internal_node_id":"0.0-41.0","task_version":"battery-v0.2-trt","session":3},{"rune":"F","rune_set":"elianto","hex":"#f73b6a7A","correct":-1,"choice":32,"rt":1157.820000022184,"accuracy":0,"outcome":"-10","keys":[2658.4600000060163],"total_keys":1,"block":1,"trial":37,"stimulus":2,"robot":4,"valence":"lose","action":"no-go","sham":0,"trial_type":"pit-trial","trial_index":67,"time_elapsed":297131,"internal_node_id":"0.0-42.0","task_version":"battery-v0.2-trt","session":3},{"rune":"B","rune_set":"elianto","hex":"#f73b6a7A","correct":-1,"choice":-1,"rt":-1,"accuracy":1,"outcome":"-1","keys":[],"total_keys":0,"block":1,"trial":38,"stimulus":5,"robot":4,"valence":"lose","action":"no-go","sham":0,"trial_type":"pit-trial","trial_index":68,"time_elapsed":301134,"internal_node_id":"0.0-43.0","task_version":"battery-v0.2-trt","session":3},{"rune":"N","rune_set":"elianto","hex":"#f73b6a7A","correct":32,"choice":32,"rt":682.7999999804888,"accuracy":1,"outcome":"-1","keys":[2182.8200000163633],"total_keys":1,"block":1,"trial":39,"stimulus":1,"robot":3,"valence":"lose","action":"go","sham":0,"trial_type":"pit-trial","trial_index":69,"time_elapsed":304519,"internal_node_id":"0.0-44.0","task_version":"battery-v0.2-trt","session":3},{"rune":"T","rune_set":"elianto","hex":"#f73b6a7A","correct":32,"choice":-1,"rt":-1,"accuracy":0,"outcome":"-10","keys":[],"total_keys":0,"block":1,"trial":40,"stimulus":4,"robot":3,"valence":"lose","action":"go","sham":0,"trial_type":"pit-trial","trial_index":70,"time_elapsed":308524,"internal_node_id":"0.0-45.0","task_version":"battery-v0.2-trt","session":3},{"rune":"C","rune_set":"elianto","hex":"#3366ff99","correct":-1,"choice":-1,"rt":-1,"accuracy":1,"outcome":"+10","keys":[],"total_keys":0,"block":1,"trial":41,"stimulus":6,"robot":2,"valence":"win","action":"no-go","sham":0,"trial_type":"pit-trial","trial_index":71,"time_elapsed":312527,"internal_node_id":"0.0-46.0","task_version":"battery-v0.2-trt","session":3},{"rune":"T","rune_set":"elianto","hex":"#f73b6a7A","correct":32,"choice":32,"rt":665.5399999872316,"accuracy":1,"outcome":"-1","keys":[2166.175000020303],"total_keys":1,"block":1,"trial":42,"stimulus":4,"robot":3,"valence":"lose","action":"go","sham":0,"trial_type":"pit-trial","trial_index":72,"time_elapsed":315894,"internal_node_id":"0.0-47.0","task_version":"battery-v0.2-trt","session":3},{"rune":"F","rune_set":"elianto","hex":"#f73b6a7A","correct":-1,"choice":32,"rt":797.4500000127591,"accuracy":0,"outcome":"-10","keys":[2297.8250000160187],"total_keys":1,"block":1,"trial":43,"stimulus":2,"robot":4,"valence":"lose","action":"no-go","sham":0,"trial_type":"pit-trial","trial_index":73,"time_elapsed":319395,"internal_node_id":"0.0-48.0","task_version":"battery-v0.2-trt","session":3},{"rune":"B","rune_set":"elianto","hex":"#f73b6a7A","correct":-1,"choice":-1,"rt":-1,"accuracy":1,"outcome":"-1","keys":[],"total_keys":0,"block":1,"trial":44,"stimulus":5,"robot":4,"valence":"lose","action":"no-go","sham":0,"trial_type":"pit-trial","trial_index":74,"time_elapsed":323397,"internal_node_id":"0.0-49.0","task_version":"battery-v0.2-trt","session":3},{"rune":"C","rune_set":"elianto","hex":"#3366ff99","correct":-1,"choice":32,"rt":703.0500000109896,"accuracy":0,"outcome":"+1","keys":[2203.414999996312],"total_keys":1,"block":1,"trial":45,"stimulus":6,"robot":2,"valence":"win","action":"no-go","sham":0,"trial_type":"pit-trial","trial_index":75,"time_elapsed":326804,"internal_node_id":"0.0-50.0","task_version":"battery-v0.2-trt","session":3},{"rune":"T","rune_set":"elianto","hex":"#f73b6a7A","correct":32,"choice":-1,"rt":-1,"accuracy":0,"outcome":"-1","keys":[],"total_keys":0,"block":1,"trial":46,"stimulus":4,"robot":3,"valence":"lose","action":"go","sham":1,"trial_type":"pit-trial","trial_index":76,"time_elapsed":330807,"internal_node_id":"0.0-51.0","task_version":"battery-v0.2-trt","session":3},{"rune":"B","rune_set":"elianto","hex":"#f73b6a7A","correct":-1,"choice":-1,"rt":-1,"accuracy":1,"outcome":"-1","keys":[],"total_keys":0,"block":1,"trial":47,"stimulus":5,"robot":4,"valence":"lose","action":"no-go","sham":0,"trial_type":"pit-trial","trial_index":77,"time_elapsed":334810,"internal_node_id":"0.0-52.0","task_version":"battery-v0.2-trt","session":3},{"rune":"F","rune_set":"elianto","hex":"#f73b6a7A","correct":-1,"choice":32,"rt":924.395000009099,"accuracy":0,"outcome":"-10","keys":[2424.5349999982864],"total_keys":1,"block":1,"trial":48,"stimulus":2,"robot":4,"valence":"lose","action":"no-go","sham":0,"trial_type":"pit-trial","trial_index":78,"time_elapsed":338437,"internal_node_id":"0.0-53.0","task_version":"battery-v0.2-trt","session":3},{"rune":"Z","rune_set":"elianto","hex":"#3366ff99","correct":32,"choice":32,"rt":704.02499998454,"accuracy":1,"outcome":"+10","keys":[2204.8200000135694],"total_keys":1,"block":1,"trial":49,"stimulus":7,"robot":1,"valence":"win","action":"go","sham":0,"trial_type":"pit-trial","trial_index":79,"time_elapsed":341844,"internal_node_id":"0.0-54.0","task_version":"battery-v0.2-trt","session":3},{"rune":"C","rune_set":"elianto","hex":"#3366ff99","correct":-1,"choice":-1,"rt":-1,"accuracy":1,"outcome":"+10","keys":[],"total_keys":0,"block":1,"trial":50,"stimulus":6,"robot":2,"valence":"win","action":"no-go","sham":0,"trial_type":"pit-trial","trial_index":80,"time_elapsed":345848,"internal_node_id":"0.0-55.0","task_version":"battery-v0.2-trt","session":3},{"rune":"T","rune_set":"elianto","hex":"#f73b6a7A","correct":32,"choice":32,"rt":897.2150000045076,"accuracy":1,"outcome":"-1","keys":[2397.949999984121],"total_keys":1,"block":1,"trial":51,"stimulus":4,"robot":3,"valence":"lose","action":"go","sham":0,"trial_type":"pit-trial","trial_index":81,"time_elapsed":349447,"internal_node_id":"0.0-56.0","task_version":"battery-v0.2-trt","session":3},{"rune":"B","rune_set":"elianto","hex":"#f73b6a7A","correct":-1,"choice":32,"rt":829.0350000024773,"accuracy":0,"outcome":"-10","keys":[2329.7899999888614],"total_keys":1,"block":1,"trial":52,"stimulus":5,"robot":4,"valence":"lose","action":"no-go","sham":0,"trial_type":"pit-trial","trial_index":82,"time_elapsed":352979,"internal_node_id":"0.0-57.0","task_version":"battery-v0.2-trt","session":3},{"rune":"B","rune_set":"elianto","hex":"#f73b6a7A","correct":-1,"choice":-1,"rt":-1,"accuracy":1,"outcome":"-1","keys":[],"total_keys":0,"block":1,"trial":53,"stimulus":5,"robot":4,"valence":"lose","action":"no-go","sham":0,"trial_type":"pit-trial","trial_index":83,"time_elapsed":356981,"internal_node_id":"0.0-58.0","task_version":"battery-v0.2-trt","session":3},{"rune":"C","rune_set":"elianto","hex":"#3366ff99","correct":-1,"choice":32,"rt":863.1400000012945,"accuracy":0,"outcome":"+1","keys":[2363.6699999915436],"total_keys":1,"block":1,"trial":54,"stimulus":6,"robot":2,"valence":"win","action":"no-go","sham":0,"trial_type":"pit-trial","trial_index":84,"time_elapsed":360546,"internal_node_id":"0.0-59.0","task_version":"battery-v0.2-trt","session":3},{"rune":"T","rune_set":"elianto","hex":"#f73b6a7A","correct":32,"choice":-1,"rt":-1,"accuracy":0,"outcome":"-1","keys":[],"total_keys":0,"block":1,"trial":55,"stimulus":4,"robot":3,"valence":"lose","action":"go","sham":1,"trial_type":"pit-trial","trial_index":85,"time_elapsed":364549,"internal_node_id":"0.0-60.0","task_version":"battery-v0.2-trt","session":3},{"rune":"Z","rune_set":"elianto","hex":"#3366ff99","correct":32,"choice":-1,"rt":-1,"accuracy":0,"outcome":"+10","keys":[],"total_keys":0,"block":1,"trial":56,"stimulus":7,"robot":1,"valence":"win","action":"go","sham":1,"trial_type":"pit-trial","trial_index":86,"time_elapsed":368552,"internal_node_id":"0.0-61.0","task_version":"battery-v0.2-trt","session":3},{"rune":"B","rune_set":"elianto","hex":"#f73b6a7A","correct":-1,"choice":32,"rt":662.9900000116322,"accuracy":0,"outcome":"-10","keys":[2163.8200000161305],"total_keys":1,"block":1,"trial":57,"stimulus":5,"robot":4,"valence":"lose","action":"no-go","sham":0,"trial_type":"pit-trial","trial_index":87,"time_elapsed":371918,"internal_node_id":"0.0-62.0","task_version":"battery-v0.2-trt","session":3},{"rune":"T","rune_set":"elianto","hex":"#f73b6a7A","correct":32,"choice":32,"rt":696.7749999894295,"accuracy":1,"outcome":"-1","keys":[2197.374999988824],"total_keys":1,"block":1,"trial":58,"stimulus":4,"robot":3,"valence":"lose","action":"go","sham":0,"trial_type":"pit-trial","trial_index":88,"time_elapsed":375317,"internal_node_id":"0.0-63.0","task_version":"battery-v0.2-trt","session":3},{"rune":"Z","rune_set":"elianto","hex":"#3366ff99","correct":32,"choice":-1,"rt":-1,"accuracy":0,"outcome":"+10","keys":[],"total_keys":0,"block":1,"trial":59,"stimulus":7,"robot":1,"valence":"win","action":"go","sham":1,"trial_type":"pit-trial","trial_index":89,"time_elapsed":379319,"internal_node_id":"0.0-64.0","task_version":"battery-v0.2-trt","session":3},{"rune":"C","rune_set":"elianto","hex":"#3366ff99","correct":-1,"choice":32,"rt":759.8399999842513,"accuracy":0,"outcome":"+1","keys":[2259.8500000021886],"total_keys":1,"block":1,"trial":60,"stimulus":6,"robot":2,"valence":"win","action":"no-go","sham":0,"trial_type":"pit-trial","trial_index":90,"time_elapsed":382781,"internal_node_id":"0.0-65.0","task_version":"battery-v0.2-trt","session":3},{"rune":"C","rune_set":"elianto","hex":"#3366ff99","correct":-1,"choice":-1,"rt":-1,"accuracy":1,"outcome":"+10","keys":[],"total_keys":0,"block":1,"trial":61,"stimulus":6,"robot":2,"valence":"win","action":"no-go","sham":0,"trial_type":"pit-trial","trial_index":91,"time_elapsed":386784,"internal_node_id":"0.0-66.0","task_version":"battery-v0.2-trt","session":3},{"rune":"B","rune_set":"elianto","hex":"#f73b6a7A","correct":-1,"choice":32,"rt":749.0249999973457,"accuracy":0,"outcome":"-10","keys":[2250.4299999854993],"total_keys":1,"block":1,"trial":62,"stimulus":5,"robot":4,"valence":"lose","action":"no-go","sham":0,"trial_type":"pit-trial","trial_index":92,"time_elapsed":390236,"internal_node_id":"0.0-67.0","task_version":"battery-v0.2-trt","session":3},{"rune":"T","rune_set":"elianto","hex":"#f73b6a7A","correct":32,"choice":32,"rt":546.2450000050012,"accuracy":1,"outcome":"-1","keys":[2046.2850000185426],"total_keys":1,"block":1,"trial":63,"stimulus":4,"robot":3,"valence":"lose","action":"go","sham":0,"trial_type":"pit-trial","trial_index":93,"time_elapsed":393483,"internal_node_id":"0.0-68.0","task_version":"battery-v0.2-trt","session":3},{"rune":"Z","rune_set":"elianto","hex":"#3366ff99","correct":32,"choice":-1,"rt":-1,"accuracy":0,"outcome":"+1","keys":[],"total_keys":0,"block":1,"trial":64,"stimulus":7,"robot":1,"valence":"win","action":"go","sham":0,"trial_type":"pit-trial","trial_index":94,"time_elapsed":397486,"internal_node_id":"0.0-69.0","task_version":"battery-v0.2-trt","session":3},{"rune":"T","rune_set":"elianto","hex":"#f73b6a7A","correct":32,"choice":32,"rt":659.4700000132434,"accuracy":1,"outcome":"-1","keys":[2160.3049999976065],"total_keys":1,"block":1,"trial":65,"stimulus":4,"robot":3,"valence":"lose","action":"go","sham":0,"trial_type":"pit-trial","trial_index":95,"time_elapsed":400848,"internal_node_id":"0.0-70.0","task_version":"battery-v0.2-trt","session":3},{"rune":"B","rune_set":"elianto","hex":"#f73b6a7A","correct":-1,"choice":-1,"rt":-1,"accuracy":1,"outcome":"-1","keys":[],"total_keys":0,"block":1,"trial":66,"stimulus":5,"robot":4,"valence":"lose","action":"no-go","sham":0,"trial_type":"pit-trial","trial_index":96,"time_elapsed":404850,"internal_node_id":"0.0-71.0","task_version":"battery-v0.2-trt","session":3},{"rune":"Z","rune_set":"elianto","hex":"#3366ff99","correct":32,"choice":-1,"rt":-1,"accuracy":0,"outcome":"+1","keys":[],"total_keys":0,"block":1,"trial":67,"stimulus":7,"robot":1,"valence":"win","action":"go","sham":0,"trial_type":"pit-trial","trial_index":97,"time_elapsed":408854,"internal_node_id":"0.0-72.0","task_version":"battery-v0.2-trt","session":3},{"rune":"C","rune_set":"elianto","hex":"#3366ff99","correct":-1,"choice":-1,"rt":-1,"accuracy":1,"outcome":"+10","keys":[],"total_keys":0,"block":1,"trial":68,"stimulus":6,"robot":2,"valence":"win","action":"no-go","sham":0,"trial_type":"pit-trial","trial_index":98,"time_elapsed":412856,"internal_node_id":"0.0-73.0","task_version":"battery-v0.2-trt","session":3},{"rune":"Z","rune_set":"elianto","hex":"#3366ff99","correct":32,"choice":32,"rt":468.79499999340624,"accuracy":1,"outcome":"+10","keys":[1968.849999975646],"total_keys":1,"block":1,"trial":69,"stimulus":7,"robot":1,"valence":"win","action":"go","sham":0,"trial_type":"pit-trial","trial_index":99,"time_elapsed":416027,"internal_node_id":"0.0-74.0","task_version":"battery-v0.2-trt","session":3},{"rune":"T","rune_set":"elianto","hex":"#f73b6a7A","correct":32,"choice":32,"rt":792.4850000126753,"accuracy":1,"outcome":"-1","keys":[2292.6900000020396],"total_keys":1,"block":1,"trial":70,"stimulus":4,"robot":3,"valence":"lose","action":"go","sham":0,"trial_type":"pit-trial","trial_index":100,"time_elapsed":419521,"internal_node_id":"0.0-75.0","task_version":"battery-v0.2-trt","session":3},{"rune":"B","rune_set":"elianto","hex":"#f73b6a7A","correct":-1,"choice":-1,"rt":-1,"accuracy":1,"outcome":"-10","keys":[],"total_keys":0,"block":1,"trial":71,"stimulus":5,"robot":4,"valence":"lose","action":"no-go","sham":1,"trial_type":"pit-trial","trial_index":101,"time_elapsed":423525,"internal_node_id":"0.0-76.0","task_version":"battery-v0.2-trt","session":3},{"rune":"C","rune_set":"elianto","hex":"#3366ff99","correct":-1,"choice":32,"rt":481.5449999878183,"accuracy":0,"outcome":"+10","keys":[1982.7950000180863],"total_keys":1,"block":1,"trial":72,"stimulus":6,"robot":2,"valence":"win","action":"no-go","sham":1,"trial_type":"pit-trial","trial_index":102,"time_elapsed":426710,"internal_node_id":"0.0-77.0","task_version":"battery-v0.2-trt","session":3},{"rune":"H","rune_set":"elianto","hex":"#3366ff99","correct":32,"choice":32,"rt":817.7600000053644,"accuracy":1,"outcome":"+1","keys":[2317.849999992177],"total_keys":1,"block":1,"trial":73,"stimulus":8,"robot":1,"valence":"win","action":"go","sham":1,"trial_type":"pit-trial","trial_index":103,"time_elapsed":430230,"internal_node_id":"0.0-78.0","task_version":"battery-v0.2-trt","session":3},{"rune":"Z","rune_set":"elianto","hex":"#3366ff99","correct":32,"choice":32,"rt":644.3750000034925,"accuracy":1,"outcome":"+10","keys":[2145.0999999942724],"total_keys":1,"block":1,"trial":74,"stimulus":7,"robot":1,"valence":"win","action":"go","sham":0,"trial_type":"pit-trial","trial_index":104,"time_elapsed":433577,"internal_node_id":"0.0-79.0","task_version":"battery-v0.2-trt","session":3},{"rune":"C","rune_set":"elianto","hex":"#3366ff99","correct":-1,"choice":-1,"rt":-1,"accuracy":1,"outcome":"+10","keys":[],"total_keys":0,"block":1,"trial":75,"stimulus":6,"robot":2,"valence":"win","action":"no-go","sham":0,"trial_type":"pit-trial","trial_index":105,"time_elapsed":437581,"internal_node_id":"0.0-80.0","task_version":"battery-v0.2-trt","session":3},{"rune":"T","rune_set":"elianto","hex":"#f73b6a7A","correct":32,"choice":32,"rt":557.3800000129268,"accuracy":1,"outcome":"-1","keys":[2057.93999999878],"total_keys":1,"block":1,"trial":76,"stimulus":4,"robot":3,"valence":"lose","action":"go","sham":0,"trial_type":"pit-trial","trial_index":106,"time_elapsed":440841,"internal_node_id":"0.0-81.0","task_version":"battery-v0.2-trt","session":3},{"rune":"H","rune_set":"elianto","hex":"#3366ff99","correct":32,"choice":-1,"rt":-1,"accuracy":0,"outcome":"+10","keys":[],"total_keys":0,"block":1,"trial":77,"stimulus":8,"robot":1,"valence":"win","action":"go","sham":1,"trial_type":"pit-trial","trial_index":107,"time_elapsed":444844,"internal_node_id":"0.0-82.0","task_version":"battery-v0.2-trt","session":3},{"rune":"C","rune_set":"elianto","hex":"#3366ff99","correct":-1,"choice":-1,"rt":-1,"accuracy":1,"outcome":"+10","keys":[],"total_keys":0,"block":1,"trial":78,"stimulus":6,"robot":2,"valence":"win","action":"no-go","sham":0,"trial_type":"pit-trial","trial_index":108,"time_elapsed":448846,"internal_node_id":"0.0-83.0","task_version":"battery-v0.2-trt","session":3},{"rune":"Z","rune_set":"elianto","hex":"#3366ff99","correct":32,"choice":32,"rt":767.1799999952782,"accuracy":1,"outcome":"+10","keys":[2267.3049999866635],"total_keys":1,"block":1,"trial":79,"stimulus":7,"robot":1,"valence":"win","action":"go","sham":0,"trial_type":"pit-trial","trial_index":109,"time_elapsed":452316,"internal_node_id":"0.0-84.0","task_version":"battery-v0.2-trt","session":3},{"rune":"T","rune_set":"elianto","hex":"#f73b6a7A","correct":32,"choice":32,"rt":461.6999999852851,"accuracy":1,"outcome":"-10","keys":[1961.8300000147428],"total_keys":1,"block":1,"trial":80,"stimulus":4,"robot":3,"valence":"lose","action":"go","sham":1,"trial_type":"pit-trial","trial_index":110,"time_elapsed":455479,"internal_node_id":"0.0-85.0","task_version":"battery-v0.2-trt","session":3},{"rune":"H","rune_set":"elianto","hex":"#3366ff99","correct":32,"choice":32,"rt":588.965000002645,"accuracy":1,"outcome":"+10","keys":[2089.8900000029244],"total_keys":1,"block":1,"trial":81,"stimulus":8,"robot":1,"valence":"win","action":"go","sham":0,"trial_type":"pit-trial","trial_index":111,"time_elapsed":458771,"internal_node_id":"0.0-86.0","task_version":"battery-v0.2-trt","session":3},{"rune":"C","rune_set":"elianto","hex":"#3366ff99","correct":-1,"choice":-1,"rt":-1,"accuracy":1,"outcome":"+10","keys":[],"total_keys":0,"block":1,"trial":82,"stimulus":6,"robot":2,"valence":"win","action":"no-go","sham":0,"trial_type":"pit-trial","trial_index":112,"time_elapsed":462773,"internal_node_id":"0.0-87.0","task_version":"battery-v0.2-trt","session":3},{"rune":"Z","rune_set":"elianto","hex":"#3366ff99","correct":32,"choice":32,"rt":783.5249999770895,"accuracy":1,"outcome":"+10","keys":[2283.6149999930058],"total_keys":1,"block":1,"trial":83,"stimulus":7,"robot":1,"valence":"win","action":"go","sham":0,"trial_type":"pit-trial","trial_index":113,"time_elapsed":466259,"internal_node_id":"0.0-88.0","task_version":"battery-v0.2-trt","session":3},{"rune":"Y","rune_set":"elianto","hex":"#3366ff99","correct":-1,"choice":-1,"rt":-1,"accuracy":1,"outcome":"+10","keys":[],"total_keys":0,"block":1,"trial":84,"stimulus":9,"robot":2,"valence":"win","action":"no-go","sham":0,"trial_type":"pit-trial","trial_index":114,"time_elapsed":470261,"internal_node_id":"0.0-89.0","task_version":"battery-v0.2-trt","session":3},{"rune":"Y","rune_set":"elianto","hex":"#3366ff99","correct":-1,"choice":-1,"rt":-1,"accuracy":1,"outcome":"+10","keys":[],"total_keys":0,"block":1,"trial":85,"stimulus":9,"robot":2,"valence":"win","action":"no-go","sham":0,"trial_type":"pit-trial","trial_index":115,"time_elapsed":474265,"internal_node_id":"0.0-90.0","task_version":"battery-v0.2-trt","session":3},{"rune":"C","rune_set":"elianto","hex":"#3366ff99","correct":-1,"choice":-1,"rt":-1,"accuracy":1,"outcome":"+10","keys":[],"total_keys":0,"block":1,"trial":86,"stimulus":6,"robot":2,"valence":"win","action":"no-go","sham":0,"trial_type":"pit-trial","trial_index":116,"time_elapsed":478267,"internal_node_id":"0.0-91.0","task_version":"battery-v0.2-trt","session":3},{"rune":"Z","rune_set":"elianto","hex":"#3366ff99","correct":32,"choice":32,"rt":807.135000010021,"accuracy":1,"outcome":"+10","keys":[2307.7250000205822],"total_keys":1,"block":1,"trial":87,"stimulus":7,"robot":1,"valence":"win","action":"go","sham":0,"trial_type":"pit-trial","trial_index":117,"time_elapsed":481776,"internal_node_id":"0.0-92.0","task_version":"battery-v0.2-trt","session":3},{"rune":"H","rune_set":"elianto","hex":"#3366ff99","correct":32,"choice":-1,"rt":-1,"accuracy":0,"outcome":"+1","keys":[],"total_keys":0,"block":1,"trial":88,"stimulus":8,"robot":1,"valence":"win","action":"go","sham":0,"trial_type":"pit-trial","trial_index":118,"time_elapsed":485779,"internal_node_id":"0.0-93.0","task_version":"battery-v0.2-trt","session":3},{"rune":"Y","rune_set":"elianto","hex":"#3366ff99","correct":-1,"choice":-1,"rt":-1,"accuracy":1,"outcome":"+10","keys":[],"total_keys":0,"block":1,"trial":89,"stimulus":9,"robot":2,"valence":"win","action":"no-go","sham":0,"trial_type":"pit-trial","trial_index":119,"time_elapsed":489782,"internal_node_id":"0.0-94.0","task_version":"battery-v0.2-trt","session":3},{"rune":"R","rune_set":"elianto","hex":"#f73b6a7A","correct":32,"choice":32,"rt":1094.8199999984354,"accuracy":1,"outcome":"-1","keys":[2596.354999986943],"total_keys":1,"block":1,"trial":90,"stimulus":10,"robot":3,"valence":"lose","action":"go","sham":0,"trial_type":"pit-trial","trial_index":120,"time_elapsed":493581,"internal_node_id":"0.0-95.0","task_version":"battery-v0.2-trt","session":3},{"rune":"H","rune_set":"elianto","hex":"#3366ff99","correct":32,"choice":32,"rt":944.7550000040792,"accuracy":1,"outcome":"+10","keys":[2444.8149999952875],"total_keys":1,"block":1,"trial":91,"stimulus":8,"robot":1,"valence":"win","action":"go","sham":0,"trial_type":"pit-trial","trial_index":121,"time_elapsed":497227,"internal_node_id":"0.0-96.0","task_version":"battery-v0.2-trt","session":3},{"rune":"M","rune_set":"elianto","hex":"#f73b6a7A","correct":-1,"choice":-1,"rt":-1,"accuracy":1,"outcome":"-1","keys":[],"total_keys":0,"block":1,"trial":92,"stimulus":11,"robot":4,"valence":"lose","action":"no-go","sham":0,"trial_type":"pit-trial","trial_index":122,"time_elapsed":501230,"internal_node_id":"0.0-97.0","task_version":"battery-v0.2-trt","session":3},{"rune":"H","rune_set":"elianto","hex":"#3366ff99","correct":32,"choice":32,"rt":638.730000006035,"accuracy":1,"outcome":"+10","keys":[2139.244999998482],"total_keys":1,"block":1,"trial":93,"stimulus":8,"robot":1,"valence":"win","action":"go","sham":0,"trial_type":"pit-trial","trial_index":123,"time_elapsed":504572,"internal_node_id":"0.0-98.0","task_version":"battery-v0.2-trt","session":3},{"rune":"M","rune_set":"elianto","hex":"#f73b6a7A","correct":-1,"choice":-1,"rt":-1,"accuracy":1,"outcome":"-1","keys":[],"total_keys":0,"block":1,"trial":94,"stimulus":11,"robot":4,"valence":"lose","action":"no-go","sham":0,"trial_type":"pit-trial","trial_index":124,"time_elapsed":508575,"internal_node_id":"0.0-99.0","task_version":"battery-v0.2-trt","session":3},{"rune":"Y","rune_set":"elianto","hex":"#3366ff99","correct":-1,"choice":32,"rt":877.1450000058394,"accuracy":0,"outcome":"+10","keys":[2377.39499998861],"total_keys":1,"block":1,"trial":95,"stimulus":9,"robot":2,"valence":"win","action":"no-go","sham":1,"trial_type":"pit-trial","trial_index":125,"time_elapsed":512155,"internal_node_id":"0.0-100.0","task_version":"battery-v0.2-trt","session":3},{"rune":"R","rune_set":"elianto","hex":"#f73b6a7A","correct":32,"choice":32,"rt":997.750000009546,"accuracy":1,"outcome":"-1","keys":[2498.1100000150036],"total_keys":1,"block":1,"trial":96,"stimulus":10,"robot":3,"valence":"lose","action":"go","sham":0,"trial_type":"pit-trial","trial_index":126,"time_elapsed":515854,"internal_node_id":"0.0-101.0","task_version":"battery-v0.2-trt","session":3},{"rune":"Y","rune_set":"elianto","hex":"#3366ff99","correct":-1,"choice":-1,"rt":-1,"accuracy":1,"outcome":"+10","keys":[],"total_keys":0,"block":1,"trial":97,"stimulus":9,"robot":2,"valence":"win","action":"no-go","sham":0,"trial_type":"pit-trial","trial_index":127,"time_elapsed":519857,"internal_node_id":"0.0-102.0","task_version":"battery-v0.2-trt","session":3},{"rune":"R","rune_set":"elianto","hex":"#f73b6a7A","correct":32,"choice":32,"rt":586.4149999979418,"accuracy":1,"outcome":"-1","keys":[2086.700000014389],"total_keys":1,"block":1,"trial":98,"stimulus":10,"robot":3,"valence":"lose","action":"go","sham":0,"trial_type":"pit-trial","trial_index":128,"time_elapsed":523145,"internal_node_id":"0.0-103.0","task_version":"battery-v0.2-trt","session":3},{"rune":"H","rune_set":"elianto","hex":"#3366ff99","correct":32,"choice":32,"rt":602.1600000094622,"accuracy":1,"outcome":"+10","keys":[2102.1699999982957],"total_keys":1,"block":1,"trial":99,"stimulus":8,"robot":1,"valence":"win","action":"go","sham":0,"trial_type":"pit-trial","trial_index":129,"time_elapsed":526449,"internal_node_id":"0.0-104.0","task_version":"battery-v0.2-trt","session":3},{"rune":"M","rune_set":"elianto","hex":"#f73b6a7A","correct":-1,"choice":-1,"rt":-1,"accuracy":1,"outcome":"-1","keys":[],"total_keys":0,"block":1,"trial":100,"stimulus":11,"robot":4,"valence":"lose","action":"no-go","sham":0,"trial_type":"pit-trial","trial_index":130,"time_elapsed":530452,"internal_node_id":"0.0-105.0","task_version":"battery-v0.2-trt","session":3},{"rune":"M","rune_set":"elianto","hex":"#f73b6a7A","correct":-1,"choice":-1,"rt":-1,"accuracy":1,"outcome":"-10","keys":[],"total_keys":0,"block":1,"trial":101,"stimulus":11,"robot":4,"valence":"lose","action":"no-go","sham":1,"trial_type":"pit-trial","trial_index":131,"time_elapsed":534455,"internal_node_id":"0.0-106.0","task_version":"battery-v0.2-trt","session":3},{"rune":"R","rune_set":"elianto","hex":"#f73b6a7A","correct":32,"choice":32,"rt":578.2949999847915,"accuracy":1,"outcome":"-1","keys":[2079.744999995455],"total_keys":1,"block":1,"trial":102,"stimulus":10,"robot":3,"valence":"lose","action":"go","sham":0,"trial_type":"pit-trial","trial_index":132,"time_elapsed":537737,"internal_node_id":"0.0-107.0","task_version":"battery-v0.2-trt","session":3},{"rune":"Y","rune_set":"elianto","hex":"#3366ff99","correct":-1,"choice":32,"rt":712.8150000062305,"accuracy":0,"outcome":"+1","keys":[2213.7799999909475],"total_keys":1,"block":1,"trial":103,"stimulus":9,"robot":2,"valence":"win","action":"no-go","sham":0,"trial_type":"pit-trial","trial_index":133,"time_elapsed":541152,"internal_node_id":"0.0-108.0","task_version":"battery-v0.2-trt","session":3},{"rune":"H","rune_set":"elianto","hex":"#3366ff99","correct":32,"choice":32,"rt":873.5799999849405,"accuracy":1,"outcome":"+10","keys":[2374.649999983376],"total_keys":1,"block":1,"trial":104,"stimulus":8,"robot":1,"valence":"win","action":"go","sham":0,"trial_type":"pit-trial","trial_index":134,"time_elapsed":544728,"internal_node_id":"0.0-109.0","task_version":"battery-v0.2-trt","session":3},{"rune":"H","rune_set":"elianto","hex":"#3366ff99","correct":32,"choice":32,"rt":429.0949999995064,"accuracy":1,"outcome":"+10","keys":[1929.405000002589],"total_keys":1,"block":1,"trial":105,"stimulus":8,"robot":1,"valence":"win","action":"go","sham":0,"trial_type":"pit-trial","trial_index":135,"time_elapsed":547860,"internal_node_id":"0.0-110.0","task_version":"battery-v0.2-trt","session":3},{"rune":"Y","rune_set":"elianto","hex":"#3366ff99","correct":-1,"choice":-1,"rt":-1,"accuracy":1,"outcome":"+10","keys":[],"total_keys":0,"block":1,"trial":106,"stimulus":9,"robot":2,"valence":"win","action":"no-go","sham":0,"trial_type":"pit-trial","trial_index":136,"time_elapsed":551864,"internal_node_id":"0.0-111.0","task_version":"battery-v0.2-trt","session":3},{"rune":"M","rune_set":"elianto","hex":"#f73b6a7A","correct":-1,"choice":-1,"rt":-1,"accuracy":1,"outcome":"-1","keys":[],"total_keys":0,"block":1,"trial":107,"stimulus":11,"robot":4,"valence":"lose","action":"no-go","sham":0,"trial_type":"pit-trial","trial_index":137,"time_elapsed":555866,"internal_node_id":"0.0-112.0","task_version":"battery-v0.2-trt","session":3},{"rune":"R","rune_set":"elianto","hex":"#f73b6a7A","correct":32,"choice":32,"rt":585.4749999998603,"accuracy":1,"outcome":"-1","keys":[2086.7099999741185],"total_keys":1,"block":1,"trial":108,"stimulus":10,"robot":3,"valence":"lose","action":"go","sham":0,"trial_type":"pit-trial","trial_index":138,"time_elapsed":559154,"internal_node_id":"0.0-113.0","task_version":"battery-v0.2-trt","session":3},{"rune":"R","rune_set":"elianto","hex":"#f73b6a7A","correct":32,"choice":32,"rt":454.1250000183936,"accuracy":1,"outcome":"-1","keys":[1954.2249999940395],"total_keys":1,"block":1,"trial":109,"stimulus":10,"robot":3,"valence":"lose","action":"go","sham":0,"trial_type":"pit-trial","trial_index":139,"time_elapsed":562310,"internal_node_id":"0.0-114.0","task_version":"battery-v0.2-trt","session":3},{"rune":"H","rune_set":"elianto","hex":"#3366ff99","correct":32,"choice":32,"rt":849.4099999952596,"accuracy":1,"outcome":"+10","keys":[2350.225000001956],"total_keys":1,"block":1,"trial":110,"stimulus":8,"robot":1,"valence":"win","action":"go","sham":0,"trial_type":"pit-trial","trial_index":140,"time_elapsed":565862,"internal_node_id":"0.0-115.0","task_version":"battery-v0.2-trt","session":3},{"rune":"M","rune_set":"elianto","hex":"#f73b6a7A","correct":-1,"choice":-1,"rt":-1,"accuracy":1,"outcome":"-1","keys":[],"total_keys":0,"block":1,"trial":111,"stimulus":11,"robot":4,"valence":"lose","action":"no-go","sham":0,"trial_type":"pit-trial","trial_index":141,"time_elapsed":569864,"internal_node_id":"0.0-116.0","task_version":"battery-v0.2-trt","session":3},{"rune":"Y","rune_set":"elianto","hex":"#3366ff99","correct":-1,"choice":32,"rt":965.6649999960791,"accuracy":0,"outcome":"+1","keys":[2467.1350000135135],"total_keys":1,"block":1,"trial":112,"stimulus":9,"robot":2,"valence":"win","action":"no-go","sham":0,"trial_type":"pit-trial","trial_index":142,"time_elapsed":573533,"internal_node_id":"0.0-117.0","task_version":"battery-v0.2-trt","session":3},{"rune":"R","rune_set":"elianto","hex":"#f73b6a7A","correct":32,"choice":32,"rt":720.4700000002049,"accuracy":1,"outcome":"-1","keys":[2222.3850000009406],"total_keys":1,"block":1,"trial":113,"stimulus":10,"robot":3,"valence":"lose","action":"go","sham":0,"trial_type":"pit-trial","trial_index":143,"time_elapsed":576957,"internal_node_id":"0.0-118.0","task_version":"battery-v0.2-trt","session":3},{"rune":"Y","rune_set":"elianto","hex":"#3366ff99","correct":-1,"choice":-1,"rt":-1,"accuracy":1,"outcome":"+10","keys":[],"total_keys":0,"block":1,"trial":114,"stimulus":9,"robot":2,"valence":"win","action":"no-go","sham":0,"trial_type":"pit-trial","trial_index":144,"time_elapsed":580959,"internal_node_id":"0.0-119.0","task_version":"battery-v0.2-trt","session":3},{"rune":"H","rune_set":"elianto","hex":"#3366ff99","correct":32,"choice":32,"rt":671.6850000084378,"accuracy":1,"outcome":"+10","keys":[2172.0600000116974],"total_keys":1,"block":1,"trial":115,"stimulus":8,"robot":1,"valence":"win","action":"go","sham":0,"trial_type":"pit-trial","trial_index":145,"time_elapsed":584333,"internal_node_id":"0.0-120.0","task_version":"battery-v0.2-trt","session":3},{"rune":"M","rune_set":"elianto","hex":"#f73b6a7A","correct":-1,"choice":-1,"rt":-1,"accuracy":1,"outcome":"-10","keys":[],"total_keys":0,"block":1,"trial":116,"stimulus":11,"robot":4,"valence":"lose","action":"no-go","sham":1,"trial_type":"pit-trial","trial_index":146,"time_elapsed":588336,"internal_node_id":"0.0-121.0","task_version":"battery-v0.2-trt","session":3},{"rune":"M","rune_set":"elianto","hex":"#f73b6a7A","correct":-1,"choice":-1,"rt":-1,"accuracy":1,"outcome":"-1","keys":[],"total_keys":0,"block":1,"trial":117,"stimulus":11,"robot":4,"valence":"lose","action":"no-go","sham":0,"trial_type":"pit-trial","trial_index":147,"time_elapsed":592339,"internal_node_id":"0.0-122.0","task_version":"battery-v0.2-trt","session":3},{"rune":"Y","rune_set":"elianto","hex":"#3366ff99","correct":-1,"choice":-1,"rt":-1,"accuracy":1,"outcome":"+1","keys":[],"total_keys":0,"block":1,"trial":118,"stimulus":9,"robot":2,"valence":"win","action":"no-go","sham":1,"trial_type":"pit-trial","trial_index":148,"time_elapsed":596341,"internal_node_id":"0.0-123.0","task_version":"battery-v0.2-trt","session":3},{"rune":"R","rune_set":"elianto","hex":"#f73b6a7A","correct":32,"choice":32,"rt":447.905000008177,"accuracy":1,"outcome":"-1","keys":[1948.405000002822],"total_keys":1,"block":1,"trial":119,"stimulus":10,"robot":3,"valence":"lose","action":"go","sham":0,"trial_type":"pit-trial","trial_index":149,"time_elapsed":599492,"internal_node_id":"0.0-124.0","task_version":"battery-v0.2-trt","session":3},{"rune":"H","rune_set":"elianto","hex":"#3366ff99","correct":32,"choice":32,"rt":452.8500000014901,"accuracy":1,"outcome":"+10","keys":[1954.0350000024773],"total_keys":1,"block":1,"trial":120,"stimulus":8,"robot":1,"valence":"win","action":"go","sham":0,"trial_type":"pit-trial","trial_index":150,"time_elapsed":602647,"internal_node_id":"0.0-125.0","task_version":"battery-v0.2-trt","session":3},{"view_history":"[{\"page_index\":0,\"viewing_time\":503622.4649999931},{\"page_index\":1,\"viewing_time\":1535.9349999926053}]","rt":505158.694999991,"trial_type":"pit-instructions","trial_index":151,"time_elapsed":1107806,"internal_node_id":"0.0-126.0","task_version":"battery-v0.2-trt","session":3},{"rune":"U","rune_set":"elianto","hex":"#3366ff99","correct":-1,"choice":32,"rt":573.1900000246242,"accuracy":0,"outcome":"+1","keys":[2073.225000000093],"total_keys":1,"block":2,"trial":121,"stimulus":0,"robot":2,"valence":"win","action":"no-go","sham":0,"trial_type":"pit-trial","trial_index":152,"time_elapsed":1111084,"internal_node_id":"0.0-127.0","task_version":"battery-v0.2-trt","session":3},{"rune":"G","rune_set":"elianto","hex":"#f73b6a7A","correct":32,"choice":32,"rt":772.2800000046846,"accuracy":1,"outcome":"-1","keys":[2273.1349999958184],"total_keys":1,"block":2,"trial":122,"stimulus":3,"robot":3,"valence":"lose","action":"go","sham":0,"trial_type":"pit-trial","trial_index":153,"time_elapsed":1114559,"internal_node_id":"0.0-128.0","task_version":"battery-v0.2-trt","session":3},{"rune":"L","rune_set":"elianto","hex":"#3366ff99","correct":-1,"choice":32,"rt":944.4349999830592,"accuracy":0,"outcome":"+10","keys":[2445.9900000074413],"total_keys":1,"block":2,"trial":123,"stimulus":1,"robot":2,"valence":"win","action":"no-go","sham":1,"trial_type":"pit-trial","trial_index":154,"time_elapsed":1118207,"internal_node_id":"0.0-129.0","task_version":"battery-v0.2-trt","session":3},{"rune":"A","rune_set":"elianto","hex":"#3366ff99","correct":32,"choice":-1,"rt":-1,"accuracy":0,"outcome":"+1","keys":[],"total_keys":0,"block":2,"trial":124,"stimulus":2,"robot":1,"valence":"win","action":"go","sham":0,"trial_type":"pit-trial","trial_index":155,"time_elapsed":1122210,"internal_node_id":"0.0-130.0","task_version":"battery-v0.2-trt","session":3},{"rune":"A","rune_set":"elianto","hex":"#3366ff99","correct":32,"choice":32,"rt":612.554999999702,"accuracy":1,"outcome":"+10","keys":[2113.424999988638],"total_keys":1,"block":2,"trial":125,"stimulus":2,"robot":1,"valence":"win","action":"go","sham":0,"trial_type":"pit-trial","trial_index":156,"time_elapsed":1125525,"internal_node_id":"0.0-131.0","task_version":"battery-v0.2-trt","session":3},{"rune":"L","rune_set":"elianto","hex":"#3366ff99","correct":-1,"choice":32,"rt":910.0899999903049,"accuracy":0,"outcome":"+10","keys":[2410.379999986617],"total_keys":1,"block":2,"trial":126,"stimulus":1,"robot":2,"valence":"win","action":"no-go","sham":1,"trial_type":"pit-trial","trial_index":157,"time_elapsed":1129137,"internal_node_id":"0.0-132.0","task_version":"battery-v0.2-trt","session":3},{"rune":"G","rune_set":"elianto","hex":"#f73b6a7A","correct":32,"choice":-1,"rt":-1,"accuracy":0,"outcome":"-10","keys":[],"total_keys":0,"block":2,"trial":127,"stimulus":3,"robot":3,"valence":"lose","action":"go","sham":0,"trial_type":"pit-trial","trial_index":158,"time_elapsed":1133140,"internal_node_id":"0.0-133.0","task_version":"battery-v0.2-trt","session":3},{"rune":"U","rune_set":"elianto","hex":"#3366ff99","correct":-1,"choice":-1,"rt":-1,"accuracy":1,"outcome":"+10","keys":[],"total_keys":0,"block":2,"trial":128,"stimulus":0,"robot":2,"valence":"win","action":"no-go","sham":0,"trial_type":"pit-trial","trial_index":159,"time_elapsed":1137143,"internal_node_id":"0.0-134.0","task_version":"battery-v0.2-trt","session":3},{"rune":"U","rune_set":"elianto","hex":"#3366ff99","correct":-1,"choice":-1,"rt":-1,"accuracy":1,"outcome":"+1","keys":[],"total_keys":0,"block":2,"trial":129,"stimulus":0,"robot":2,"valence":"win","action":"no-go","sham":1,"trial_type":"pit-trial","trial_index":160,"time_elapsed":1141145,"internal_node_id":"0.0-135.0","task_version":"battery-v0.2-trt","session":3},{"rune":"G","rune_set":"elianto","hex":"#f73b6a7A","correct":32,"choice":32,"rt":585.3599999973085,"accuracy":1,"outcome":"-10","keys":[2086.2550000019837],"total_keys":1,"block":2,"trial":130,"stimulus":3,"robot":3,"valence":"lose","action":"go","sham":1,"trial_type":"pit-trial","trial_index":161,"time_elapsed":1144433,"internal_node_id":"0.0-136.0","task_version":"battery-v0.2-trt","session":3},{"rune":"A","rune_set":"elianto","hex":"#3366ff99","correct":32,"choice":32,"rt":1068.6149999964982,"accuracy":1,"outcome":"+10","keys":[2568.9950000087265],"total_keys":1,"block":2,"trial":131,"stimulus":2,"robot":1,"valence":"win","action":"go","sham":0,"trial_type":"pit-trial","trial_index":162,"time_elapsed":1148205,"internal_node_id":"0.0-137.0","task_version":"battery-v0.2-trt","session":3},{"rune":"L","rune_set":"elianto","hex":"#3366ff99","correct":-1,"choice":32,"rt":657.0899999933317,"accuracy":0,"outcome":"+1","keys":[2157.3050000006333],"total_keys":1,"block":2,"trial":132,"stimulus":1,"robot":2,"valence":"win","action":"no-go","sham":0,"trial_type":"pit-trial","trial_index":163,"time_elapsed":1151564,"internal_node_id":"0.0-138.0","task_version":"battery-v0.2-trt","session":3},{"rune":"A","rune_set":"elianto","hex":"#3366ff99","correct":32,"choice":32,"rt":528.5600000061095,"accuracy":1,"outcome":"+10","keys":[2029.4050000084098],"total_keys":1,"block":2,"trial":133,"stimulus":2,"robot":1,"valence":"win","action":"go","sham":0,"trial_type":"pit-trial","trial_index":164,"time_elapsed":1154796,"internal_node_id":"0.0-139.0","task_version":"battery-v0.2-trt","session":3},{"rune":"L","rune_set":"elianto","hex":"#3366ff99","correct":-1,"choice":32,"rt":468.67000000202097,"accuracy":0,"outcome":"+10","keys":[1969.5449999999255],"total_keys":1,"block":2,"trial":134,"stimulus":1,"robot":2,"valence":"win","action":"no-go","sham":1,"trial_type":"pit-trial","trial_index":165,"time_elapsed":1157968,"internal_node_id":"0.0-140.0","task_version":"battery-v0.2-trt","session":3},{"rune":"U","rune_set":"elianto","hex":"#3366ff99","correct":-1,"choice":-1,"rt":-1,"accuracy":1,"outcome":"+1","keys":[],"total_keys":0,"block":2,"trial":135,"stimulus":0,"robot":2,"valence":"win","action":"no-go","sham":1,"trial_type":"pit-trial","trial_index":166,"time_elapsed":1161971,"internal_node_id":"0.0-141.0","task_version":"battery-v0.2-trt","session":3},{"rune":"G","rune_set":"elianto","hex":"#f73b6a7A","correct":32,"choice":32,"rt":639.6700000041164,"accuracy":1,"outcome":"-1","keys":[2141.494999988936],"total_keys":1,"block":2,"trial":136,"stimulus":3,"robot":3,"valence":"lose","action":"go","sham":0,"trial_type":"pit-trial","trial_index":167,"time_elapsed":1165315,"internal_node_id":"0.0-142.0","task_version":"battery-v0.2-trt","session":3},{"rune":"U","rune_set":"elianto","hex":"#3366ff99","correct":-1,"choice":-1,"rt":-1,"accuracy":1,"outcome":"+10","keys":[],"total_keys":0,"block":2,"trial":137,"stimulus":0,"robot":2,"valence":"win","action":"no-go","sham":0,"trial_type":"pit-trial","trial_index":168,"time_elapsed":1169318,"internal_node_id":"0.0-143.0","task_version":"battery-v0.2-trt","session":3},{"rune":"A","rune_set":"elianto","hex":"#3366ff99","correct":32,"choice":32,"rt":485.9149999974761,"accuracy":1,"outcome":"+1","keys":[1987.040000007255],"total_keys":1,"block":2,"trial":138,"stimulus":2,"robot":1,"valence":"win","action":"go","sham":1,"trial_type":"pit-trial","trial_index":169,"time_elapsed":1172506,"internal_node_id":"0.0-144.0","task_version":"battery-v0.2-trt","session":3},{"rune":"G","rune_set":"elianto","hex":"#f73b6a7A","correct":32,"choice":32,"rt":598.4999999927823,"accuracy":1,"outcome":"-1","keys":[2098.805000016],"total_keys":1,"block":2,"trial":139,"stimulus":3,"robot":3,"valence":"lose","action":"go","sham":0,"trial_type":"pit-trial","trial_index":170,"time_elapsed":1175807,"internal_node_id":"0.0-145.0","task_version":"battery-v0.2-trt","session":3},{"rune":"L","rune_set":"elianto","hex":"#3366ff99","correct":-1,"choice":32,"rt":540.065000008326,"accuracy":0,"outcome":"+1","keys":[2040.9399999771267],"total_keys":1,"block":2,"trial":140,"stimulus":1,"robot":2,"valence":"win","action":"no-go","sham":0,"trial_type":"pit-trial","trial_index":171,"time_elapsed":1179050,"internal_node_id":"0.0-146.0","task_version":"battery-v0.2-trt","session":3},{"rune":"L","rune_set":"elianto","hex":"#3366ff99","correct":-1,"choice":32,"rt":269.59499999065883,"accuracy":0,"outcome":"+1","keys":[1770.7400000072084],"total_keys":1,"block":2,"trial":141,"stimulus":1,"robot":2,"valence":"win","action":"no-go","sham":0,"trial_type":"pit-trial","trial_index":172,"time_elapsed":1182022,"internal_node_id":"0.0-147.0","task_version":"battery-v0.2-trt","session":3},{"rune":"A","rune_set":"elianto","hex":"#3366ff99","correct":32,"choice":32,"rt":561.2850000034086,"accuracy":1,"outcome":"+1","keys":[2061.5149999794085],"total_keys":1,"block":2,"trial":142,"stimulus":2,"robot":1,"valence":"win","action":"go","sham":1,"trial_type":"pit-trial","trial_index":173,"time_elapsed":1185285,"internal_node_id":"0.0-148.0","task_version":"battery-v0.2-trt","session":3},{"rune":"U","rune_set":"elianto","hex":"#3366ff99","correct":-1,"choice":-1,"rt":-1,"accuracy":1,"outcome":"+10","keys":[],"total_keys":0,"block":2,"trial":143,"stimulus":0,"robot":2,"valence":"win","action":"no-go","sham":0,"trial_type":"pit-trial","trial_index":174,"time_elapsed":1189288,"internal_node_id":"0.0-149.0","task_version":"battery-v0.2-trt","session":3},{"rune":"G","rune_set":"elianto","hex":"#f73b6a7A","correct":32,"choice":32,"rt":1073.51999997627,"accuracy":1,"outcome":"-1","keys":[2574.0850000001956],"total_keys":1,"block":2,"trial":144,"stimulus":3,"robot":3,"valence":"lose","action":"go","sham":0,"trial_type":"pit-trial","trial_index":175,"time_elapsed":1193064,"internal_node_id":"0.0-150.0","task_version":"battery-v0.2-trt","session":3},{"rune":"G","rune_set":"elianto","hex":"#f73b6a7A","correct":32,"choice":32,"rt":608.860000007553,"accuracy":1,"outcome":"-1","keys":[2110.4099999938626],"total_keys":1,"block":2,"trial":145,"stimulus":3,"robot":3,"valence":"lose","action":"go","sham":0,"trial_type":"pit-trial","trial_index":176,"time_elapsed":1196377,"internal_node_id":"0.0-151.0","task_version":"battery-v0.2-trt","session":3},{"rune":"U","rune_set":"elianto","hex":"#3366ff99","correct":-1,"choice":-1,"rt":-1,"accuracy":1,"outcome":"+10","keys":[],"total_keys":0,"block":2,"trial":146,"stimulus":0,"robot":2,"valence":"win","action":"no-go","sham":0,"trial_type":"pit-trial","trial_index":177,"time_elapsed":1200381,"internal_node_id":"0.0-152.0","task_version":"battery-v0.2-trt","session":3},{"rune":"A","rune_set":"elianto","hex":"#3366ff99","correct":32,"choice":32,"rt":723.679999995511,"accuracy":1,"outcome":"+1","keys":[2224.6350000204984],"total_keys":1,"block":2,"trial":147,"stimulus":2,"robot":1,"valence":"win","action":"go","sham":1,"trial_type":"pit-trial","trial_index":178,"time_elapsed":1203808,"internal_node_id":"0.0-153.0","task_version":"battery-v0.2-trt","session":3},{"rune":"L","rune_set":"elianto","hex":"#3366ff99","correct":-1,"choice":-1,"rt":-1,"accuracy":1,"outcome":"+10","keys":[],"total_keys":0,"block":2,"trial":148,"stimulus":1,"robot":2,"valence":"win","action":"no-go","sham":0,"trial_type":"pit-trial","trial_index":179,"time_elapsed":1207810,"internal_node_id":"0.0-154.0","task_version":"battery-v0.2-trt","session":3},{"rune":"G","rune_set":"elianto","hex":"#f73b6a7A","correct":32,"choice":-1,"rt":-1,"accuracy":0,"outcome":"-10","keys":[2891.8349999876227],"total_keys":1,"block":2,"trial":149,"stimulus":3,"robot":3,"valence":"lose","action":"go","sham":0,"trial_type":"pit-trial","trial_index":180,"time_elapsed":1211814,"internal_node_id":"0.0-155.0","task_version":"battery-v0.2-trt","session":3},{"rune":"A","rune_set":"elianto","hex":"#3366ff99","correct":32,"choice":-1,"rt":-1,"accuracy":0,"outcome":"+1","keys":[],"total_keys":0,"block":2,"trial":150,"stimulus":2,"robot":1,"valence":"win","action":"go","sham":0,"trial_type":"pit-trial","trial_index":181,"time_elapsed":1215816,"internal_node_id":"0.0-156.0","task_version":"battery-v0.2-trt","session":3},{"rune":"L","rune_set":"elianto","hex":"#3366ff99","correct":-1,"choice":-1,"rt":-1,"accuracy":1,"outcome":"+10","keys":[],"total_keys":0,"block":2,"trial":151,"stimulus":1,"robot":2,"valence":"win","action":"no-go","sham":0,"trial_type":"pit-trial","trial_index":182,"time_elapsed":1219820,"internal_node_id":"0.0-157.0","task_version":"battery-v0.2-trt","session":3},{"rune":"U","rune_set":"elianto","hex":"#3366ff99","correct":-1,"choice":32,"rt":803.4500000067055,"accuracy":0,"outcome":"+1","keys":[2304.570000007516],"total_keys":1,"block":2,"trial":152,"stimulus":0,"robot":2,"valence":"win","action":"no-go","sham":0,"trial_type":"pit-trial","trial_index":183,"time_elapsed":1223325,"internal_node_id":"0.0-158.0","task_version":"battery-v0.2-trt","session":3},{"rune":"U","rune_set":"elianto","hex":"#3366ff99","correct":-1,"choice":-1,"rt":-1,"accuracy":1,"outcome":"+10","keys":[],"total_keys":0,"block":2,"trial":153,"stimulus":0,"robot":2,"valence":"win","action":"no-go","sham":0,"trial_type":"pit-trial","trial_index":184,"time_elapsed":1227328,"internal_node_id":"0.0-159.0","task_version":"battery-v0.2-trt","session":3},{"rune":"P","rune_set":"elianto","hex":"#f73b6a7A","correct":-1,"choice":32,"rt":900.5250000045635,"accuracy":0,"outcome":"-10","keys":[2400.5449999822304],"total_keys":1,"block":2,"trial":154,"stimulus":4,"robot":4,"valence":"lose","action":"no-go","sham":0,"trial_type":"pit-trial","trial_index":185,"time_elapsed":1230930,"internal_node_id":"0.0-160.0","task_version":"battery-v0.2-trt","session":3},{"rune":"A","rune_set":"elianto","hex":"#3366ff99","correct":32,"choice":-1,"rt":-1,"accuracy":0,"outcome":"+1","keys":[],"total_keys":0,"block":2,"trial":155,"stimulus":2,"robot":1,"valence":"win","action":"go","sham":0,"trial_type":"pit-trial","trial_index":186,"time_elapsed":1234934,"internal_node_id":"0.0-161.0","task_version":"battery-v0.2-trt","session":3},{"rune":"S","rune_set":"elianto","hex":"#f73b6a7A","correct":32,"choice":32,"rt":992.7700000116602,"accuracy":1,"outcome":"-1","keys":[2493.1700000015553],"total_keys":1,"block":2,"trial":156,"stimulus":5,"robot":3,"valence":"lose","action":"go","sham":0,"trial_type":"pit-trial","trial_index":187,"time_elapsed":1238629,"internal_node_id":"0.0-162.0","task_version":"battery-v0.2-trt","session":3},{"rune":"S","rune_set":"elianto","hex":"#f73b6a7A","correct":32,"choice":32,"rt":411.3950000028126,"accuracy":1,"outcome":"-1","keys":[1913.1349999806844],"total_keys":1,"block":2,"trial":157,"stimulus":5,"robot":3,"valence":"lose","action":"go","sham":0,"trial_type":"pit-trial","trial_index":188,"time_elapsed":1241744,"internal_node_id":"0.0-163.0","task_version":"battery-v0.2-trt","session":3},{"rune":"A","rune_set":"elianto","hex":"#3366ff99","correct":32,"choice":32,"rt":569.4050000165589,"accuracy":1,"outcome":"+10","keys":[2071.1299999966286],"total_keys":1,"block":2,"trial":158,"stimulus":2,"robot":1,"valence":"win","action":"go","sham":0,"trial_type":"pit-trial","trial_index":189,"time_elapsed":1245016,"internal_node_id":"0.0-164.0","task_version":"battery-v0.2-trt","session":3},{"rune":"U","rune_set":"elianto","hex":"#3366ff99","correct":-1,"choice":-1,"rt":-1,"accuracy":1,"outcome":"+10","keys":[],"total_keys":0,"block":2,"trial":159,"stimulus":0,"robot":2,"valence":"win","action":"no-go","sham":0,"trial_type":"pit-trial","trial_index":190,"time_elapsed":1249019,"internal_node_id":"0.0-165.0","task_version":"battery-v0.2-trt","session":3},{"rune":"P","rune_set":"elianto","hex":"#f73b6a7A","correct":-1,"choice":32,"rt":764.9099999980535,"accuracy":0,"outcome":"-10","keys":[2266.444999986561],"total_keys":1,"block":2,"trial":160,"stimulus":4,"robot":4,"valence":"lose","action":"no-go","sham":0,"trial_type":"pit-trial","trial_index":191,"time_elapsed":1252487,"internal_node_id":"0.0-166.0","task_version":"battery-v0.2-trt","session":3},{"rune":"A","rune_set":"elianto","hex":"#3366ff99","correct":32,"choice":32,"rt":745.6100000126753,"accuracy":1,"outcome":"+10","keys":[2246.224999980768],"total_keys":1,"block":2,"trial":161,"stimulus":2,"robot":1,"valence":"win","action":"go","sham":0,"trial_type":"pit-trial","trial_index":192,"time_elapsed":1255936,"internal_node_id":"0.0-167.0","task_version":"battery-v0.2-trt","session":3},{"rune":"W","rune_set":"elianto","hex":"#3366ff99","correct":-1,"choice":-1,"rt":-1,"accuracy":1,"outcome":"+10","keys":[],"total_keys":0,"block":2,"trial":162,"stimulus":6,"robot":2,"valence":"win","action":"no-go","sham":0,"trial_type":"pit-trial","trial_index":193,"time_elapsed":1259938,"internal_node_id":"0.0-168.0","task_version":"battery-v0.2-trt","session":3},{"rune":"P","rune_set":"elianto","hex":"#f73b6a7A","correct":-1,"choice":32,"rt":662.3550000076648,"accuracy":0,"outcome":"-10","keys":[2162.9899999825284],"total_keys":1,"block":2,"trial":163,"stimulus":4,"robot":4,"valence":"lose","action":"no-go","sham":0,"trial_type":"pit-trial","trial_index":194,"time_elapsed":1263303,"internal_node_id":"0.0-169.0","task_version":"battery-v0.2-trt","session":3},{"rune":"S","rune_set":"elianto","hex":"#f73b6a7A","correct":32,"choice":32,"rt":1087.5050000031479,"accuracy":1,"outcome":"-1","keys":[2589.059999998426],"total_keys":1,"block":2,"trial":164,"stimulus":5,"robot":3,"valence":"lose","action":"go","sham":0,"trial_type":"pit-trial","trial_index":195,"time_elapsed":1267094,"internal_node_id":"0.0-170.0","task_version":"battery-v0.2-trt","session":3},{"rune":"P","rune_set":"elianto","hex":"#f73b6a7A","correct":-1,"choice":-1,"rt":-1,"accuracy":1,"outcome":"-10","keys":[],"total_keys":0,"block":2,"trial":165,"stimulus":4,"robot":4,"valence":"lose","action":"no-go","sham":1,"trial_type":"pit-trial","trial_index":196,"time_elapsed":1271097,"internal_node_id":"0.0-171.0","task_version":"battery-v0.2-trt","session":3},{"rune":"S","rune_set":"elianto","hex":"#f73b6a7A","correct":32,"choice":32,"rt":779.5099999930244,"accuracy":1,"outcome":"-1","keys":[2279.8900000052527],"total_keys":1,"block":2,"trial":166,"stimulus":5,"robot":3,"valence":"lose","action":"go","sham":0,"trial_type":"pit-trial","trial_index":197,"time_elapsed":1274579,"internal_node_id":"0.0-172.0","task_version":"battery-v0.2-trt","session":3},{"rune":"A","rune_set":"elianto","hex":"#3366ff99","correct":32,"choice":32,"rt":648.1350000249222,"accuracy":1,"outcome":"+10","keys":[2149.455000006128],"total_keys":1,"block":2,"trial":167,"stimulus":2,"robot":1,"valence":"win","action":"go","sham":0,"trial_type":"pit-trial","trial_index":198,"time_elapsed":1277930,"internal_node_id":"0.0-173.0","task_version":"battery-v0.2-trt","session":3},{"rune":"W","rune_set":"elianto","hex":"#3366ff99","correct":-1,"choice":-1,"rt":-1,"accuracy":1,"outcome":"+1","keys":[],"total_keys":0,"block":2,"trial":168,"stimulus":6,"robot":2,"valence":"win","action":"no-go","sham":1,"trial_type":"pit-trial","trial_index":199,"time_elapsed":1281933,"internal_node_id":"0.0-174.0","task_version":"battery-v0.2-trt","session":3},{"rune":"P","rune_set":"elianto","hex":"#f73b6a7A","correct":-1,"choice":32,"rt":548.5549999866635,"accuracy":0,"outcome":"-1","keys":[2050.105000002077],"total_keys":1,"block":2,"trial":169,"stimulus":4,"robot":4,"valence":"lose","action":"no-go","sham":1,"trial_type":"pit-trial","trial_index":200,"time_elapsed":1285185,"internal_node_id":"0.0-175.0","task_version":"battery-v0.2-trt","session":3},{"rune":"W","rune_set":"elianto","hex":"#3366ff99","correct":-1,"choice":-1,"rt":-1,"accuracy":1,"outcome":"+1","keys":[],"total_keys":0,"block":2,"trial":170,"stimulus":6,"robot":2,"valence":"win","action":"no-go","sham":1,"trial_type":"pit-trial","trial_index":201,"time_elapsed":1289187,"internal_node_id":"0.0-176.0","task_version":"battery-v0.2-trt","session":3},{"rune":"E","rune_set":"elianto","hex":"#f73b6a7A","correct":-1,"choice":32,"rt":915.3749999823049,"accuracy":0,"outcome":"-1","keys":[2415.5350000073668],"total_keys":1,"block":2,"trial":171,"stimulus":7,"robot":4,"valence":"lose","action":"no-go","sham":1,"trial_type":"pit-trial","trial_index":202,"time_elapsed":1292804,"internal_node_id":"0.0-177.0","task_version":"battery-v0.2-trt","session":3},{"rune":"S","rune_set":"elianto","hex":"#f73b6a7A","correct":32,"choice":32,"rt":581.5199999778997,"accuracy":1,"outcome":"-1","keys":[2082.4399999983143],"total_keys":1,"block":2,"trial":172,"stimulus":5,"robot":3,"valence":"lose","action":"go","sham":0,"trial_type":"pit-trial","trial_index":203,"time_elapsed":1296089,"internal_node_id":"0.0-178.0","task_version":"battery-v0.2-trt","session":3},{"rune":"S","rune_set":"elianto","hex":"#f73b6a7A","correct":32,"choice":32,"rt":617.1899999899324,"accuracy":1,"outcome":"-1","keys":[2117.454999999609],"total_keys":1,"block":2,"trial":173,"stimulus":5,"robot":3,"valence":"lose","action":"go","sham":0,"trial_type":"pit-trial","trial_index":204,"time_elapsed":1299408,"internal_node_id":"0.0-179.0","task_version":"battery-v0.2-trt","session":3},{"rune":"W","rune_set":"elianto","hex":"#3366ff99","correct":-1,"choice":32,"rt":441.1149999941699,"accuracy":0,"outcome":"+1","keys":[1941.8949999962933],"total_keys":1,"block":2,"trial":174,"stimulus":6,"robot":2,"valence":"win","action":"no-go","sham":0,"trial_type":"pit-trial","trial_index":205,"time_elapsed":1302552,"internal_node_id":"0.0-180.0","task_version":"battery-v0.2-trt","session":3},{"rune":"P","rune_set":"elianto","hex":"#f73b6a7A","correct":-1,"choice":32,"rt":416.1149999999907,"accuracy":0,"outcome":"-10","keys":[1916.9999999867287],"total_keys":1,"block":2,"trial":175,"stimulus":4,"robot":4,"valence":"lose","action":"no-go","sham":0,"trial_type":"pit-trial","trial_index":206,"time_elapsed":1305671,"internal_node_id":"0.0-181.0","task_version":"battery-v0.2-trt","session":3},{"rune":"E","rune_set":"elianto","hex":"#f73b6a7A","correct":-1,"choice":32,"rt":494.03499998152256,"accuracy":0,"outcome":"-10","keys":[1994.0850000130013],"total_keys":1,"block":2,"trial":176,"stimulus":7,"robot":4,"valence":"lose","action":"no-go","sham":0,"trial_type":"pit-trial","trial_index":207,"time_elapsed":1308867,"internal_node_id":"0.0-182.0","task_version":"battery-v0.2-trt","session":3},{"rune":"S","rune_set":"elianto","hex":"#f73b6a7A","correct":32,"choice":32,"rt":480.97999999299645,"accuracy":1,"outcome":"-1","keys":[1982.224999985192],"total_keys":1,"block":2,"trial":177,"stimulus":5,"robot":3,"valence":"lose","action":"go","sham":0,"trial_type":"pit-trial","trial_index":208,"time_elapsed":1312051,"internal_node_id":"0.0-183.0","task_version":"battery-v0.2-trt","session":3},{"rune":"W","rune_set":"elianto","hex":"#3366ff99","correct":-1,"choice":32,"rt":504.78499999735504,"accuracy":0,"outcome":"+10","keys":[2006.2599999946542],"total_keys":1,"block":2,"trial":178,"stimulus":6,"robot":2,"valence":"win","action":"no-go","sham":1,"trial_type":"pit-trial","trial_index":209,"time_elapsed":1315260,"internal_node_id":"0.0-184.0","task_version":"battery-v0.2-trt","session":3},{"rune":"P","rune_set":"elianto","hex":"#f73b6a7A","correct":-1,"choice":32,"rt":855.569999985164,"accuracy":0,"outcome":"-10","keys":[2356.31000000285],"total_keys":1,"block":2,"trial":179,"stimulus":4,"robot":4,"valence":"lose","action":"no-go","sham":0,"trial_type":"pit-trial","trial_index":210,"time_elapsed":1318818,"internal_node_id":"0.0-185.0","task_version":"battery-v0.2-trt","session":3},{"rune":"E","rune_set":"elianto","hex":"#f73b6a7A","correct":-1,"choice":32,"rt":462.1749999932945,"accuracy":0,"outcome":"-10","keys":[1963.2600000186358],"total_keys":1,"block":2,"trial":180,"stimulus":7,"robot":4,"valence":"lose","action":"no-go","sham":0,"trial_type":"pit-trial","trial_index":211,"time_elapsed":1321984,"internal_node_id":"0.0-186.0","task_version":"battery-v0.2-trt","session":3},{"rune":"P","rune_set":"elianto","hex":"#f73b6a7A","correct":-1,"choice":-1,"rt":-1,"accuracy":1,"outcome":"-1","keys":[],"total_keys":0,"block":2,"trial":181,"stimulus":4,"robot":4,"valence":"lose","action":"no-go","sham":0,"trial_type":"pit-trial","trial_index":212,"time_elapsed":1325986,"internal_node_id":"0.0-187.0","task_version":"battery-v0.2-trt","session":3},{"rune":"E","rune_set":"elianto","hex":"#f73b6a7A","correct":-1,"choice":-1,"rt":-1,"accuracy":1,"outcome":"-10","keys":[],"total_keys":0,"block":2,"trial":182,"stimulus":7,"robot":4,"valence":"lose","action":"no-go","sham":1,"trial_type":"pit-trial","trial_index":213,"time_elapsed":1329990,"internal_node_id":"0.0-188.0","task_version":"battery-v0.2-trt","session":3},{"rune":"S","rune_set":"elianto","hex":"#f73b6a7A","correct":32,"choice":32,"rt":920.125000004191,"accuracy":1,"outcome":"-1","keys":[2421.9000000157394],"total_keys":1,"block":2,"trial":183,"stimulus":5,"robot":3,"valence":"lose","action":"go","sham":0,"trial_type":"pit-trial","trial_index":214,"time_elapsed":1333614,"internal_node_id":"0.0-189.0","task_version":"battery-v0.2-trt","session":3},{"rune":"W","rune_set":"elianto","hex":"#3366ff99","correct":-1,"choice":32,"rt":897.1200000087265,"accuracy":0,"outcome":"+1","keys":[2397.704999981215],"total_keys":1,"block":2,"trial":184,"stimulus":6,"robot":2,"valence":"win","action":"no-go","sham":0,"trial_type":"pit-trial","trial_index":215,"time_elapsed":1337213,"internal_node_id":"0.0-190.0","task_version":"battery-v0.2-trt","session":3},{"rune":"S","rune_set":"elianto","hex":"#f73b6a7A","correct":32,"choice":32,"rt":734.4649999868125,"accuracy":1,"outcome":"-10","keys":[2235.3250000160187],"total_keys":1,"block":2,"trial":185,"stimulus":5,"robot":3,"valence":"lose","action":"go","sham":1,"trial_type":"pit-trial","trial_index":216,"time_elapsed":1340650,"internal_node_id":"0.0-191.0","task_version":"battery-v0.2-trt","session":3},{"rune":"P","rune_set":"elianto","hex":"#f73b6a7A","correct":-1,"choice":32,"rt":783.209999994142,"accuracy":0,"outcome":"-10","keys":[2284.0849999920465],"total_keys":1,"block":2,"trial":186,"stimulus":4,"robot":4,"valence":"lose","action":"no-go","sham":0,"trial_type":"pit-trial","trial_index":217,"time_elapsed":1344137,"internal_node_id":"0.0-192.0","task_version":"battery-v0.2-trt","session":3},{"rune":"E","rune_set":"elianto","hex":"#f73b6a7A","correct":-1,"choice":-1,"rt":-1,"accuracy":1,"outcome":"-1","keys":[],"total_keys":0,"block":2,"trial":187,"stimulus":7,"robot":4,"valence":"lose","action":"no-go","sham":0,"trial_type":"pit-trial","trial_index":218,"time_elapsed":1348140,"internal_node_id":"0.0-193.0","task_version":"battery-v0.2-trt","session":3},{"rune":"W","rune_set":"elianto","hex":"#3366ff99","correct":-1,"choice":-1,"rt":-1,"accuracy":1,"outcome":"+10","keys":[],"total_keys":0,"block":2,"trial":188,"stimulus":6,"robot":2,"valence":"win","action":"no-go","sham":0,"trial_type":"pit-trial","trial_index":219,"time_elapsed":1352143,"internal_node_id":"0.0-194.0","task_version":"battery-v0.2-trt","session":3},{"rune":"P","rune_set":"elianto","hex":"#f73b6a7A","correct":-1,"choice":-1,"rt":-1,"accuracy":1,"outcome":"-1","keys":[],"total_keys":0,"block":2,"trial":189,"stimulus":4,"robot":4,"valence":"lose","action":"no-go","sham":0,"trial_type":"pit-trial","trial_index":220,"time_elapsed":1356146,"internal_node_id":"0.0-195.0","task_version":"battery-v0.2-trt","session":3},{"rune":"W","rune_set":"elianto","hex":"#3366ff99","correct":-1,"choice":-1,"rt":-1,"accuracy":1,"outcome":"+10","keys":[],"total_keys":0,"block":2,"trial":190,"stimulus":6,"robot":2,"valence":"win","action":"no-go","sham":0,"trial_type":"pit-trial","trial_index":221,"time_elapsed":1360148,"internal_node_id":"0.0-196.0","task_version":"battery-v0.2-trt","session":3},{"rune":"E","rune_set":"elianto","hex":"#f73b6a7A","correct":-1,"choice":-1,"rt":-1,"accuracy":1,"outcome":"-1","keys":[],"total_keys":0,"block":2,"trial":191,"stimulus":7,"robot":4,"valence":"lose","action":"no-go","sham":0,"trial_type":"pit-trial","trial_index":222,"time_elapsed":1364151,"internal_node_id":"0.0-197.0","task_version":"battery-v0.2-trt","session":3},{"rune":"S","rune_set":"elianto","hex":"#f73b6a7A","correct":32,"choice":32,"rt":705.7600000116508,"accuracy":1,"outcome":"-10","keys":[2206.1399999947753],"total_keys":1,"block":2,"trial":192,"stimulus":5,"robot":3,"valence":"lose","action":"go","sham":1,"trial_type":"pit-trial","trial_index":223,"time_elapsed":1367560,"internal_node_id":"0.0-198.0","task_version":"battery-v0.2-trt","session":3},{"rune":"E","rune_set":"elianto","hex":"#f73b6a7A","correct":-1,"choice":-1,"rt":-1,"accuracy":1,"outcome":"-1","keys":[],"total_keys":0,"block":2,"trial":193,"stimulus":7,"robot":4,"valence":"lose","action":"no-go","sham":0,"trial_type":"pit-trial","trial_index":224,"time_elapsed":1371563,"internal_node_id":"0.0-199.0","task_version":"battery-v0.2-trt","session":3},{"rune":"W","rune_set":"elianto","hex":"#3366ff99","correct":-1,"choice":-1,"rt":-1,"accuracy":1,"outcome":"+10","keys":[],"total_keys":0,"block":2,"trial":194,"stimulus":6,"robot":2,"valence":"win","action":"no-go","sham":0,"trial_type":"pit-trial","trial_index":225,"time_elapsed":1375565,"internal_node_id":"0.0-200.0","task_version":"battery-v0.2-trt","session":3},{"rune":"K","rune_set":"elianto","hex":"#f73b6a7A","correct":-1,"choice":32,"rt":774.5250000152737,"accuracy":0,"outcome":"-10","keys":[2275.085000001127],"total_keys":1,"block":2,"trial":195,"stimulus":8,"robot":4,"valence":"lose","action":"no-go","sham":0,"trial_type":"pit-trial","trial_index":226,"time_elapsed":1379042,"internal_node_id":"0.0-201.0","task_version":"battery-v0.2-trt","session":3},{"rune":"S","rune_set":"elianto","hex":"#f73b6a7A","correct":32,"choice":32,"rt":716.0549999971408,"accuracy":1,"outcome":"-1","keys":[2217.044999997597],"total_keys":1,"block":2,"trial":196,"stimulus":5,"robot":3,"valence":"lose","action":"go","sham":0,"trial_type":"pit-trial","trial_index":227,"time_elapsed":1382461,"internal_node_id":"0.0-202.0","task_version":"battery-v0.2-trt","session":3},{"rune":"S","rune_set":"elianto","hex":"#f73b6a7A","correct":32,"choice":32,"rt":992.7449999959208,"accuracy":1,"outcome":"-1","keys":[2494.1300000064075],"total_keys":1,"block":2,"trial":197,"stimulus":5,"robot":3,"valence":"lose","action":"go","sham":0,"trial_type":"pit-trial","trial_index":228,"time_elapsed":1386157,"internal_node_id":"0.0-203.0","task_version":"battery-v0.2-trt","session":3},{"rune":"E","rune_set":"elianto","hex":"#f73b6a7A","correct":-1,"choice":-1,"rt":-1,"accuracy":1,"outcome":"-1","keys":[],"total_keys":0,"block":2,"trial":198,"stimulus":7,"robot":4,"valence":"lose","action":"no-go","sham":0,"trial_type":"pit-trial","trial_index":229,"time_elapsed":1390160,"internal_node_id":"0.0-204.0","task_version":"battery-v0.2-trt","session":3},{"rune":"K","rune_set":"elianto","hex":"#f73b6a7A","correct":-1,"choice":-1,"rt":-1,"accuracy":1,"outcome":"-10","keys":[],"total_keys":0,"block":2,"trial":199,"stimulus":8,"robot":4,"valence":"lose","action":"no-go","sham":1,"trial_type":"pit-trial","trial_index":230,"time_elapsed":1394162,"internal_node_id":"0.0-205.0","task_version":"battery-v0.2-trt","session":3},{"rune":"W","rune_set":"elianto","hex":"#3366ff99","correct":-1,"choice":-1,"rt":-1,"accuracy":1,"outcome":"+10","keys":[],"total_keys":0,"block":2,"trial":200,"stimulus":6,"robot":2,"valence":"win","action":"no-go","sham":0,"trial_type":"pit-trial","trial_index":231,"time_elapsed":1398165,"internal_node_id":"0.0-206.0","task_version":"battery-v0.2-trt","session":3},{"rune":"D","rune_set":"elianto","hex":"#3366ff99","correct":32,"choice":32,"rt":640.1949999853969,"accuracy":1,"outcome":"+1","keys":[2141.379999986384],"total_keys":1,"block":2,"trial":201,"stimulus":9,"robot":1,"valence":"win","action":"go","sham":1,"trial_type":"pit-trial","trial_index":232,"time_elapsed":1401508,"internal_node_id":"0.0-207.0","task_version":"battery-v0.2-trt","session":3},{"rune":"W","rune_set":"elianto","hex":"#3366ff99","correct":-1,"choice":-1,"rt":-1,"accuracy":1,"outcome":"+10","keys":[],"total_keys":0,"block":2,"trial":202,"stimulus":6,"robot":2,"valence":"win","action":"no-go","sham":0,"trial_type":"pit-trial","trial_index":233,"time_elapsed":1405510,"internal_node_id":"0.0-208.0","task_version":"battery-v0.2-trt","session":3},{"rune":"K","rune_set":"elianto","hex":"#f73b6a7A","correct":-1,"choice":32,"rt":1049.1099999926519,"accuracy":0,"outcome":"-1","keys":[2550.695000012638],"total_keys":1,"block":2,"trial":203,"stimulus":8,"robot":4,"valence":"lose","action":"no-go","sham":1,"trial_type":"pit-trial","trial_index":234,"time_elapsed":1409264,"internal_node_id":"0.0-209.0","task_version":"battery-v0.2-trt","session":3},{"rune":"J","rune_set":"elianto","hex":"#f73b6a7A","correct":32,"choice":-1,"rt":-1,"accuracy":0,"outcome":"-1","keys":[],"total_keys":0,"block":2,"trial":204,"stimulus":10,"robot":3,"valence":"lose","action":"go","sham":1,"trial_type":"pit-trial","trial_index":235,"time_elapsed":1413266,"internal_node_id":"0.0-210.0","task_version":"battery-v0.2-trt","session":3},{"rune":"J","rune_set":"elianto","hex":"#f73b6a7A","correct":32,"choice":-1,"rt":-1,"accuracy":0,"outcome":"-1","keys":[],"total_keys":0,"block":2,"trial":205,"stimulus":10,"robot":3,"valence":"lose","action":"go","sham":1,"trial_type":"pit-trial","trial_index":236,"time_elapsed":1417269,"internal_node_id":"0.0-211.0","task_version":"battery-v0.2-trt","session":3},{"rune":"K","rune_set":"elianto","hex":"#f73b6a7A","correct":-1,"choice":-1,"rt":-1,"accuracy":1,"outcome":"-10","keys":[],"total_keys":0,"block":2,"trial":206,"stimulus":8,"robot":4,"valence":"lose","action":"no-go","sham":1,"trial_type":"pit-trial","trial_index":237,"time_elapsed":1421271,"internal_node_id":"0.0-212.0","task_version":"battery-v0.2-trt","session":3},{"rune":"W","rune_set":"elianto","hex":"#3366ff99","correct":-1,"choice":-1,"rt":-1,"accuracy":1,"outcome":"+10","keys":[],"total_keys":0,"block":2,"trial":207,"stimulus":6,"robot":2,"valence":"win","action":"no-go","sham":0,"trial_type":"pit-trial","trial_index":238,"time_elapsed":1425274,"internal_node_id":"0.0-213.0","task_version":"battery-v0.2-trt","session":3},{"rune":"D","rune_set":"elianto","hex":"#3366ff99","correct":32,"choice":-1,"rt":-1,"accuracy":0,"outcome":"+1","keys":[],"total_keys":0,"block":2,"trial":208,"stimulus":9,"robot":1,"valence":"win","action":"go","sham":0,"trial_type":"pit-trial","trial_index":239,"time_elapsed":1429278,"internal_node_id":"0.0-214.0","task_version":"battery-v0.2-trt","session":3},{"rune":"J","rune_set":"elianto","hex":"#f73b6a7A","correct":32,"choice":-1,"rt":-1,"accuracy":0,"outcome":"-1","keys":[],"total_keys":0,"block":2,"trial":209,"stimulus":10,"robot":3,"valence":"lose","action":"go","sham":1,"trial_type":"pit-trial","trial_index":240,"time_elapsed":1433282,"internal_node_id":"0.0-215.0","task_version":"battery-v0.2-trt","session":3},{"rune":"K","rune_set":"elianto","hex":"#f73b6a7A","correct":-1,"choice":-1,"rt":-1,"accuracy":1,"outcome":"-1","keys":[],"total_keys":0,"block":2,"trial":210,"stimulus":8,"robot":4,"valence":"lose","action":"no-go","sham":0,"trial_type":"pit-trial","trial_index":241,"time_elapsed":1437285,"internal_node_id":"0.0-216.0","task_version":"battery-v0.2-trt","session":3},{"rune":"D","rune_set":"elianto","hex":"#3366ff99","correct":32,"choice":32,"rt":885.0950000050943,"accuracy":1,"outcome":"+1","keys":[2386.035000003176],"total_keys":1,"block":2,"trial":211,"stimulus":9,"robot":1,"valence":"win","action":"go","sham":1,"trial_type":"pit-trial","trial_index":242,"time_elapsed":1440873,"internal_node_id":"0.0-217.0","task_version":"battery-v0.2-trt","session":3},{"rune":"V","rune_set":"elianto","hex":"#3366ff99","correct":32,"choice":32,"rt":873.0849999992643,"accuracy":1,"outcome":"+1","keys":[2374.145000008866],"total_keys":1,"block":2,"trial":212,"stimulus":11,"robot":1,"valence":"win","action":"go","sham":1,"trial_type":"pit-trial","trial_index":243,"time_elapsed":1444449,"internal_node_id":"0.0-218.0","task_version":"battery-v0.2-trt","session":3},{"rune":"J","rune_set":"elianto","hex":"#f73b6a7A","correct":32,"choice":-1,"rt":-1,"accuracy":0,"outcome":"-10","keys":[],"total_keys":0,"block":2,"trial":213,"stimulus":10,"robot":3,"valence":"lose","action":"go","sham":0,"trial_type":"pit-trial","trial_index":244,"time_elapsed":1448452,"internal_node_id":"0.0-219.0","task_version":"battery-v0.2-trt","session":3},{"rune":"D","rune_set":"elianto","hex":"#3366ff99","correct":32,"choice":-1,"rt":-1,"accuracy":0,"outcome":"+1","keys":[],"total_keys":0,"block":2,"trial":214,"stimulus":9,"robot":1,"valence":"win","action":"go","sham":0,"trial_type":"pit-trial","trial_index":245,"time_elapsed":1452455,"internal_node_id":"0.0-220.0","task_version":"battery-v0.2-trt","session":3},{"rune":"V","rune_set":"elianto","hex":"#3366ff99","correct":32,"choice":-1,"rt":-1,"accuracy":0,"outcome":"+1","keys":[],"total_keys":0,"block":2,"trial":215,"stimulus":11,"robot":1,"valence":"win","action":"go","sham":0,"trial_type":"pit-trial","trial_index":246,"time_elapsed":1456457,"internal_node_id":"0.0-221.0","task_version":"battery-v0.2-trt","session":3},{"rune":"K","rune_set":"elianto","hex":"#f73b6a7A","correct":-1,"choice":-1,"rt":-1,"accuracy":1,"outcome":"-1","keys":[],"total_keys":0,"block":2,"trial":216,"stimulus":8,"robot":4,"valence":"lose","action":"no-go","sham":0,"trial_type":"pit-trial","trial_index":247,"time_elapsed":1460461,"internal_node_id":"0.0-222.0","task_version":"battery-v0.2-trt","session":3},{"rune":"D","rune_set":"elianto","hex":"#3366ff99","correct":32,"choice":32,"rt":787.6950000063516,"accuracy":1,"outcome":"+10","keys":[2287.990000011632],"total_keys":1,"block":2,"trial":217,"stimulus":9,"robot":1,"valence":"win","action":"go","sham":0,"trial_type":"pit-trial","trial_index":248,"time_elapsed":1463952,"internal_node_id":"0.0-223.0","task_version":"battery-v0.2-trt","session":3},{"rune":"V","rune_set":"elianto","hex":"#3366ff99","correct":32,"choice":32,"rt":560.6449999904726,"accuracy":1,"outcome":"+10","keys":[2061.299999972107],"total_keys":1,"block":2,"trial":218,"stimulus":11,"robot":1,"valence":"win","action":"go","sham":0,"trial_type":"pit-trial","trial_index":249,"time_elapsed":1467214,"internal_node_id":"0.0-224.0","task_version":"battery-v0.2-trt","session":3},{"rune":"K","rune_set":"elianto","hex":"#f73b6a7A","correct":-1,"choice":32,"rt":650.4249999998137,"accuracy":0,"outcome":"-10","keys":[2150.6050000025425],"total_keys":1,"block":2,"trial":219,"stimulus":8,"robot":4,"valence":"lose","action":"no-go","sham":0,"trial_type":"pit-trial","trial_index":250,"time_elapsed":1470566,"internal_node_id":"0.0-225.0","task_version":"battery-v0.2-trt","session":3},{"rune":"J","rune_set":"elianto","hex":"#f73b6a7A","correct":32,"choice":32,"rt":621.6100000019651,"accuracy":1,"outcome":"-1","keys":[2122.015000000829],"total_keys":1,"block":2,"trial":220,"stimulus":10,"robot":3,"valence":"lose","action":"go","sham":0,"trial_type":"pit-trial","trial_index":251,"time_elapsed":1473889,"internal_node_id":"0.0-226.0","task_version":"battery-v0.2-trt","session":3},{"rune":"D","rune_set":"elianto","hex":"#3366ff99","correct":32,"choice":32,"rt":685.8449999999721,"accuracy":1,"outcome":"+10","keys":[2186.650000017835],"total_keys":1,"block":2,"trial":221,"stimulus":9,"robot":1,"valence":"win","action":"go","sham":0,"trial_type":"pit-trial","trial_index":252,"time_elapsed":1477278,"internal_node_id":"0.0-227.0","task_version":"battery-v0.2-trt","session":3},{"rune":"J","rune_set":"elianto","hex":"#f73b6a7A","correct":32,"choice":-1,"rt":-1,"accuracy":0,"outcome":"-10","keys":[],"total_keys":0,"block":2,"trial":222,"stimulus":10,"robot":3,"valence":"lose","action":"go","sham":0,"trial_type":"pit-trial","trial_index":253,"time_elapsed":1481279,"internal_node_id":"0.0-228.0","task_version":"battery-v0.2-trt","session":3},{"rune":"V","rune_set":"elianto","hex":"#3366ff99","correct":32,"choice":32,"rt":526.9099999859463,"accuracy":1,"outcome":"+10","keys":[2028.1949999916833],"total_keys":1,"block":2,"trial":223,"stimulus":11,"robot":1,"valence":"win","action":"go","sham":0,"trial_type":"pit-trial","trial_index":254,"time_elapsed":1484509,"internal_node_id":"0.0-229.0","task_version":"battery-v0.2-trt","session":3},{"rune":"K","rune_set":"elianto","hex":"#f73b6a7A","correct":-1,"choice":-1,"rt":-1,"accuracy":1,"outcome":"-1","keys":[],"total_keys":0,"block":2,"trial":224,"stimulus":8,"robot":4,"valence":"lose","action":"no-go","sham":0,"trial_type":"pit-trial","trial_index":255,"time_elapsed":1488512,"internal_node_id":"0.0-230.0","task_version":"battery-v0.2-trt","session":3},{"rune":"D","rune_set":"elianto","hex":"#3366ff99","correct":32,"choice":32,"rt":521.7600000032689,"accuracy":1,"outcome":"+10","keys":[2022.7400000148918],"total_keys":1,"block":2,"trial":225,"stimulus":9,"robot":1,"valence":"win","action":"go","sham":0,"trial_type":"pit-trial","trial_index":256,"time_elapsed":1491736,"internal_node_id":"0.0-231.0","task_version":"battery-v0.2-trt","session":3},{"rune":"V","rune_set":"elianto","hex":"#3366ff99","correct":32,"choice":-1,"rt":-1,"accuracy":0,"outcome":"+1","keys":[],"total_keys":0,"block":2,"trial":226,"stimulus":11,"robot":1,"valence":"win","action":"go","sham":0,"trial_type":"pit-trial","trial_index":257,"time_elapsed":1495738,"internal_node_id":"0.0-232.0","task_version":"battery-v0.2-trt","session":3},{"rune":"J","rune_set":"elianto","hex":"#f73b6a7A","correct":32,"choice":32,"rt":1203.3450000162702,"accuracy":1,"outcome":"-1","keys":[2703.8699999975506],"total_keys":1,"block":2,"trial":227,"stimulus":10,"robot":3,"valence":"lose","action":"go","sham":0,"trial_type":"pit-trial","trial_index":258,"time_elapsed":1499643,"internal_node_id":"0.0-233.0","task_version":"battery-v0.2-trt","session":3},{"rune":"K","rune_set":"elianto","hex":"#f73b6a7A","correct":-1,"choice":32,"rt":854.3350000109058,"accuracy":0,"outcome":"-10","keys":[2354.749999998603],"total_keys":1,"block":2,"trial":228,"stimulus":8,"robot":4,"valence":"lose","action":"no-go","sham":0,"trial_type":"pit-trial","trial_index":259,"time_elapsed":1503200,"internal_node_id":"0.0-234.0","task_version":"battery-v0.2-trt","session":3},{"rune":"D","rune_set":"elianto","hex":"#3366ff99","correct":32,"choice":32,"rt":512.8400000103284,"accuracy":1,"outcome":"+10","keys":[2013.7699999904726],"total_keys":1,"block":2,"trial":229,"stimulus":9,"robot":1,"valence":"win","action":"go","sham":0,"trial_type":"pit-trial","trial_index":260,"time_elapsed":1506416,"internal_node_id":"0.0-235.0","task_version":"battery-v0.2-trt","session":3},{"rune":"K","rune_set":"elianto","hex":"#f73b6a7A","correct":-1,"choice":-1,"rt":-1,"accuracy":1,"outcome":"-1","keys":[],"total_keys":0,"block":2,"trial":230,"stimulus":8,"robot":4,"valence":"lose","action":"no-go","sham":0,"trial_type":"pit-trial","trial_index":261,"time_elapsed":1510420,"internal_node_id":"0.0-236.0","task_version":"battery-v0.2-trt","session":3},{"rune":"J","rune_set":"elianto","hex":"#f73b6a7A","correct":32,"choice":32,"rt":812.5450000225101,"accuracy":1,"outcome":"-1","keys":[2313.209999992978],"total_keys":1,"block":2,"trial":231,"stimulus":10,"robot":3,"valence":"lose","action":"go","sham":0,"trial_type":"pit-trial","trial_index":262,"time_elapsed":1513936,"internal_node_id":"0.0-237.0","task_version":"battery-v0.2-trt","session":3},{"rune":"V","rune_set":"elianto","hex":"#3366ff99","correct":32,"choice":32,"rt":816.5299999818671,"accuracy":1,"outcome":"+10","keys":[2317.219999997178],"total_keys":1,"block":2,"trial":232,"stimulus":11,"robot":1,"valence":"win","action":"go","sham":0,"trial_type":"pit-trial","trial_index":263,"time_elapsed":1517