[{"view_history":"[{\"page_index\":0,\"viewing_time\":34717.31}]","rt":34721.144999995886,"trial_type":"instructions","trial_index":0,"time_elapsed":34815,"internal_node_id":"0.0-0.0","task_version":"battery-v0.2-trt","session":3},{"slider_type":"valence","raw_loc":598.1110997856995,"loc":0.696222199571399,"trial_type":"affective-slider","trial_index":1,"time_elapsed":57502,"internal_node_id":"0.0-1.0","task_version":"battery-v0.2-trt","session":3},{"responses":{"Q03":"0","Q02":"0","Q01":"1","Q04":"1","Q05":"1","Q06":"1","Q08":"0","Q07":"0"},"rt":16951.1199999979,"item_order":[2,1,0,3,4,5,7,6],"radio_events":[5613.554999996268,6185.879999997269,6939.484999995329,7759.244999993825,8767.540000000736,9696.069999998144,11091.724999998405,13043.399999995017,16040.61499999807],"key_events":[],"mouse_events":[3869.7249999968335,4845.354999997653,5236.989999997604,5613.554999996268,6185.879999997269,6939.484999995329,7759.244999993825,8767.540000000736,9696.069999998144,11091.724999998405,12223.699999995006,13043.399999995017,16040.61499999807,16655.619999997725,16945.28999999602],"straightlining":0.5,"zigzagging":0.2857142857142857,"survey":"gad7","trial_type":"survey-template","trial_index":2,"time_elapsed":74473,"internal_node_id":"0.0-2.0","task_version":"battery-v0.2-trt","session":3,"infrequency":0},{"responses":{"Q01":"1","Q02":"1","Q07":"0","Q05":"1","Q08":"0","Q03":"1","Q04":"1","Q06":"0"},"rt":22573.56499999878,"item_order":[0,1,6,4,7,2,3,5],"radio_events":[11889.275000001362,14149.984999996377,15016.344999996363,16250.254999999015,17807.764999997744,19357.089999997697,20196.530000001076,21826.84500000323],"key_events":[],"mouse_events":[11889.275000001362,13091.54000000126,14149.984999996377,15016.344999996363,16250.254999999015,17807.764999997744,19357.089999997697,20196.530000001076,21826.84500000323,22569.295000001148],"straightlining":0.625,"zigzagging":0.7142857142857143,"survey":"dass_d","trial_type":"survey-template","trial_index":3,"time_elapsed":97089,"internal_node_id":"0.0-3.0","task_version":"battery-v0.2-trt","session":3,"infrequency":1},{"view_history":"[{\"page_index\":0,\"viewing_time\":42230.964999995194},{\"page_index\":1,\"viewing_time\":2113.9249999978347},{\"page_index\":2,\"viewing_time\":937.8150000047754},{\"page_index\":3,\"viewing_time\":1615.799999999581},{\"page_index\":4,\"viewing_time\":4060.3899999987334},{\"page_index\":5,\"viewing_time\":1971.174999998766},{\"page_index\":6,\"viewing_time\":1216.5549999990617},{\"page_index\":7,\"viewing_time\":2651.610000000801},{\"page_index\":8,\"viewing_time\":713.7300000031246},{\"page_index\":9,\"viewing_time\":4983.379999997851}]","rt":62501.41999999323,"trial_type":"pit-instructions","trial_index":4,"time_elapsed":159633,"internal_node_id":"0.0-4.0-0.0","task_version":"battery-v0.2-trt","session":3},{"rune":"1","rune_set":"elianto","hex":"#3366ff99","correct":32,"choice":32,"rt":373.91000000206986,"accuracy":1,"outcome":"+10","keys":[1884.424999996554],"total_keys":1,"block":0,"practice":1,"trial_type":"pit-trial","trial_index":5,"time_elapsed":162764,"internal_node_id":"0.0-4.0-1.0-0.0","task_version":"battery-v0.2-trt","session":3},{"rune":"1","rune_set":"elianto","hex":"#3366ff99","correct":32,"choice":32,"rt":313.48499999876367,"accuracy":1,"outcome":"+10","keys":[1814.6249999990687],"total_keys":1,"block":0,"practice":1,"trial_type":"pit-trial","trial_index":6,"time_elapsed":165801,"internal_node_id":"0.0-4.0-1.1-0.1","task_version":"battery-v0.2-trt","session":3},{"rune":"1","rune_set":"elianto","hex":"#3366ff99","correct":32,"choice":32,"rt":280.29000000242377,"accuracy":1,"outcome":"+10","keys":[1780.7549999997718],"total_keys":1,"block":0,"practice":1,"trial_type":"pit-trial","trial_index":7,"time_elapsed":168818,"internal_node_id":"0.0-4.0-1.2-0.2","task_version":"battery-v0.2-trt","session":3},{"rune":"1","rune_set":"elianto","hex":"#3366ff99","correct":32,"choice":32,"rt":222.03499999886844,"accuracy":1,"outcome":"+10","keys":[1724.709999994957],"total_keys":1,"block":0,"practice":1,"trial_type":"pit-trial","trial_index":8,"time_elapsed":171795,"internal_node_id":"0.0-4.0-1.3-0.3","task_version":"battery-v0.2-trt","session":3},{"trial_type":"call-function","trial_index":9,"time_elapsed":171824,"internal_node_id":"0.0-4.0-2.0","task_version":"battery-v0.2-trt","session":3},{"view_history":"[{\"page_index\":0,\"viewing_time\":2455.369999996037},{\"page_index\":1,\"viewing_time\":1184.0050000027986}]","rt":3648.5499999980675,"trial_type":"pit-instructions","trial_index":10,"time_elapsed":175475,"internal_node_id":"0.0-4.0-3.0","task_version":"battery-v0.2-trt","session":3},{"rune":"2","rune_set":"elianto","hex":"#3366ff99","correct":-1,"choice":-1,"rt":-1,"accuracy":1,"outcome":"+10","keys":[],"total_keys":0,"block":0,"practice":2,"trial_type":"pit-trial","trial_index":11,"time_elapsed":179496,"internal_node_id":"0.0-4.0-4.0-0.0","task_version":"battery-v0.2-trt","session":3},{"rune":"2","rune_set":"elianto","hex":"#3366ff99","correct":-1,"choice":-1,"rt":-1,"accuracy":1,"outcome":"+10","keys":[],"total_keys":0,"block":0,"practice":2,"trial_type":"pit-trial","trial_index":12,"time_elapsed":183541,"internal_node_id":"0.0-4.0-4.1-0.1","task_version":"battery-v0.2-trt","session":3},{"rune":"2","rune_set":"elianto","hex":"#3366ff99","correct":-1,"choice":-1,"rt":-1,"accuracy":1,"outcome":"+10","keys":[],"total_keys":0,"block":0,"practice":2,"trial_type":"pit-trial","trial_index":13,"time_elapsed":187566,"internal_node_id":"0.0-4.0-4.2-0.2","task_version":"battery-v0.2-trt","session":3},{"rune":"2","rune_set":"elianto","hex":"#3366ff99","correct":-1,"choice":-1,"rt":-1,"accuracy":1,"outcome":"+10","keys":[],"total_keys":0,"block":0,"practice":2,"trial_type":"pit-trial","trial_index":14,"time_elapsed":191597,"internal_node_id":"0.0-4.0-4.3-0.3","task_version":"battery-v0.2-trt","session":3},{"trial_type":"call-function","trial_index":15,"time_elapsed":191631,"internal_node_id":"0.0-4.0-5.0","task_version":"battery-v0.2-trt","session":3},{"view_history":"[{\"page_index\":0,\"viewing_time\":7740.975000000617},{\"page_index\":1,\"viewing_time\":2064.055000002554}]","rt":9806.440000000293,"trial_type":"pit-instructions","trial_index":16,"time_elapsed":201445,"internal_node_id":"0.0-4.0-6.0","task_version":"battery-v0.2-trt","session":3},{"rune":"3","rune_set":"elianto","hex":"#f73b6a7A","correct":-1,"choice":32,"rt":318.6199999981909,"accuracy":0,"outcome":"-10","keys":[1817.8049999987707],"total_keys":1,"block":0,"practice":3,"trial_type":"pit-trial","trial_index":17,"time_elapsed":204491,"internal_node_id":"0.0-4.0-7.0-0.0","task_version":"battery-v0.2-trt","session":3},{"rune":"3","rune_set":"elianto","hex":"#f73b6a7A","correct":-1,"choice":-1,"rt":-1,"accuracy":1,"outcome":"-1","keys":[],"total_keys":0,"block":0,"practice":3,"trial_type":"pit-trial","trial_index":18,"time_elapsed":208510,"internal_node_id":"0.0-4.0-7.1-0.1","task_version":"battery-v0.2-trt","session":3},{"rune":"3","rune_set":"elianto","hex":"#f73b6a7A","correct":-1,"choice":-1,"rt":-1,"accuracy":1,"outcome":"-1","keys":[],"total_keys":0,"block":0,"practice":3,"trial_type":"pit-trial","trial_index":19,"time_elapsed":212533,"internal_node_id":"0.0-4.0-7.2-0.2","task_version":"battery-v0.2-trt","session":3},{"rune":"3","rune_set":"elianto","hex":"#f73b6a7A","correct":-1,"choice":-1,"rt":-1,"accuracy":1,"outcome":"-1","keys":[],"total_keys":0,"block":0,"practice":3,"trial_type":"pit-trial","trial_index":20,"time_elapsed":216576,"internal_node_id":"0.0-4.0-7.3-0.3","task_version":"battery-v0.2-trt","session":3},{"trial_type":"call-function","trial_index":21,"time_elapsed":216608,"internal_node_id":"0.0-4.0-8.0","task_version":"battery-v0.2-trt","session":3},{"view_history":"[{\"page_index\":0,\"viewing_time\":2888.489999997546},{\"page_index\":1,\"viewing_time\":1770.0299999996787}]","rt":4663.739999996324,"trial_type":"pit-instructions","trial_index":22,"time_elapsed":221275,"internal_node_id":"0.0-4.0-9.0","task_version":"battery-v0.2-trt","session":3},{"rune":"4","rune_set":"elianto","hex":"#f73b6a7A","correct":32,"choice":32,"rt":266.25500000227476,"accuracy":1,"outcome":"-1","keys":[1767.6750000027823],"total_keys":1,"block":0,"practice":4,"trial_type":"pit-trial","trial_index":23,"time_elapsed":224265,"internal_node_id":"0.0-4.0-10.0-0.0","task_version":"battery-v0.2-trt","session":3},{"rune":"4","rune_set":"elianto","hex":"#f73b6a7A","correct":32,"choice":32,"rt":225.1749999995809,"accuracy":1,"outcome":"-1","keys":[1725.4200000024866],"total_keys":1,"block":0,"practice":4,"trial_type":"pit-trial","trial_index":24,"time_elapsed":227218,"internal_node_id":"0.0-4.0-10.1-0.1","task_version":"battery-v0.2-trt","session":3},{"rune":"4","rune_set":"elianto","hex":"#f73b6a7A","correct":32,"choice":32,"rt":215.46500000113156,"accuracy":1,"outcome":"-1","keys":[1726.925000002666],"total_keys":1,"block":0,"practice":4,"trial_type":"pit-trial","trial_index":25,"time_elapsed":230163,"internal_node_id":"0.0-4.0-10.2-0.2","task_version":"battery-v0.2-trt","session":3},{"rune":"4","rune_set":"elianto","hex":"#f73b6a7A","correct":32,"choice":32,"rt":294.5499999987078,"accuracy":1,"outcome":"-1","keys":[1795.0049999999464],"total_keys":1,"block":0,"practice":4,"trial_type":"pit-trial","trial_index":26,"time_elapsed":233197,"internal_node_id":"0.0-4.0-10.3-0.3","task_version":"battery-v0.2-trt","session":3},{"trial_type":"call-function","trial_index":27,"time_elapsed":233220,"internal_node_id":"0.0-4.0-11.0","task_version":"battery-v0.2-trt","session":3},{"view_history":"[{\"page_index\":0,\"viewing_time\":1951.9799999980023},{\"page_index\":1,\"viewing_time\":3442.2100000010687},{\"page_index\":2,\"viewing_time\":3503.550000001269},{\"page_index\":3,\"viewing_time\":2640.65500000288},{\"page_index\":4,\"viewing_time\":1902.1499999944353},{\"page_index\":5,\"viewing_time\":987.3800000059418}]","rt":14431.745000001683,"trial_type":"pit-instructions","trial_index":28,"time_elapsed":247659,"internal_node_id":"0.0-4.0-12.0","task_version":"battery-v0.2-trt","session":3},{"responses":["Press SPACE","+10","-1","True","True"],"num_errors":0,"rt":12145.52000000549,"trial_type":"pit-comprehension","trial_index":29,"time_elapsed":259916,"internal_node_id":"0.0-4.0-13.0","task_version":"battery-v0.2-trt","session":3},{"view_history":"[{\"page_index\":0,\"viewing_time\":2224.5550000006915},{\"page_index\":1,\"viewing_time\":149113.60000000423}]","rt":151343.10499999992,"trial_type":"pit-instructions","trial_index":30,"time_elapsed":411286,"internal_node_id":"0.0-5.0","task_version":"battery-v0.2-trt","session":3},{"rune":"B","rune_set":"bacs1","hex":"#3366ff99","correct":-1,"choice":32,"rt":1054.260000004433,"accuracy":0,"outcome":"+1","keys":[2563.7900000001537],"total_keys":1,"block":1,"trial":1,"stimulus":0,"robot":2,"valence":"win","action":"no-go","sham":0,"trial_type":"pit-trial","trial_index":31,"time_elapsed":415099,"internal_node_id":"0.0-6.0","task_version":"battery-v0.2-trt","session":3},{"rune":"J","rune_set":"bacs1","hex":"#3366ff99","correct":32,"choice":32,"rt":708.890000001702,"accuracy":1,"outcome":"+10","keys":[2209.1849999997066],"total_keys":1,"block":1,"trial":2,"stimulus":2,"robot":1,"valence":"win","action":"go","sham":0,"trial_type":"pit-trial","trial_index":32,"time_elapsed":418540,"internal_node_id":"0.0-7.0","task_version":"battery-v0.2-trt","session":3},{"rune":"Z","rune_set":"bacs1","hex":"#3366ff99","correct":-1,"choice":-1,"rt":-1,"accuracy":1,"outcome":"+10","keys":[],"total_keys":0,"block":1,"trial":3,"stimulus":1,"robot":2,"valence":"win","action":"no-go","sham":0,"trial_type":"pit-trial","trial_index":33,"time_elapsed":422591,"internal_node_id":"0.0-8.0","task_version":"battery-v0.2-trt","session":3},{"rune":"R","rune_set":"bacs1","hex":"#f73b6a7A","correct":32,"choice":32,"rt":704.0049999995972,"accuracy":1,"outcome":"-1","keys":[2204.9299999998766],"total_keys":1,"block":1,"trial":4,"stimulus":3,"robot":3,"valence":"lose","action":"go","sham":0,"trial_type":"pit-trial","trial_index":34,"time_elapsed":426028,"internal_node_id":"0.0-9.0","task_version":"battery-v0.2-trt","session":3},{"rune":"Z","rune_set":"bacs1","hex":"#3366ff99","correct":-1,"choice":-1,"rt":-1,"accuracy":1,"outcome":"+10","keys":[],"total_keys":0,"block":1,"trial":5,"stimulus":1,"robot":2,"valence":"win","action":"no-go","sham":0,"trial_type":"pit-trial","trial_index":35,"time_elapsed":430051,"internal_node_id":"0.0-10.0","task_version":"battery-v0.2-trt","session":3},{"rune":"R","rune_set":"bacs1","hex":"#f73b6a7A","correct":32,"choice":32,"rt":657.9449999990175,"accuracy":1,"outcome":"-1","keys":[2160.459999999148],"total_keys":1,"block":1,"trial":6,"stimulus":3,"robot":3,"valence":"lose","action":"go","sham":0,"trial_type":"pit-trial","trial_index":36,"time_elapsed":433442,"internal_node_id":"0.0-11.0","task_version":"battery-v0.2-trt","session":3},{"rune":"B","rune_set":"bacs1","hex":"#3366ff99","correct":-1,"choice":32,"rt":845.4150000034133,"accuracy":0,"outcome":"+1","keys":[2345.8150000005844],"total_keys":1,"block":1,"trial":7,"stimulus":0,"robot":2,"valence":"win","action":"no-go","sham":0,"trial_type":"pit-trial","trial_index":37,"time_elapsed":437025,"internal_node_id":"0.0-12.0","task_version":"battery-v0.2-trt","session":3},{"rune":"J","rune_set":"bacs1","hex":"#3366ff99","correct":32,"choice":32,"rt":881.5300000060233,"accuracy":1,"outcome":"+10","keys":[2383.7249999996857],"total_keys":1,"block":1,"trial":8,"stimulus":2,"robot":1,"valence":"win","action":"go","sham":0,"trial_type":"pit-trial","trial_index":38,"time_elapsed":440635,"internal_node_id":"0.0-13.0","task_version":"battery-v0.2-trt","session":3},{"rune":"B","rune_set":"bacs1","hex":"#3366ff99","correct":-1,"choice":-1,"rt":-1,"accuracy":1,"outcome":"+10","keys":[],"total_keys":0,"block":1,"trial":9,"stimulus":0,"robot":2,"valence":"win","action":"no-go","sham":0,"trial_type":"pit-trial","trial_index":39,"time_elapsed":444658,"internal_node_id":"0.0-14.0","task_version":"battery-v0.2-trt","session":3},{"rune":"Z","rune_set":"bacs1","hex":"#3366ff99","correct":-1,"choice":32,"rt":850.6200000047102,"accuracy":0,"outcome":"+1","keys":[2350.7449999960954],"total_keys":1,"block":1,"trial":10,"stimulus":1,"robot":2,"valence":"win","action":"no-go","sham":0,"trial_type":"pit-trial","trial_index":40,"time_elapsed":448251,"internal_node_id":"0.0-15.0","task_version":"battery-v0.2-trt","session":3},{"rune":"R","rune_set":"bacs1","hex":"#f73b6a7A","correct":32,"choice":32,"rt":1134.3200000046636,"accuracy":1,"outcome":"-1","keys":[2635.0749999983236],"total_keys":1,"block":1,"trial":11,"stimulus":3,"robot":3,"valence":"lose","action":"go","sham":0,"trial_type":"pit-trial","trial_index":41,"time_elapsed":452116,"internal_node_id":"0.0-16.0","task_version":"battery-v0.2-trt","session":3},{"rune":"J","rune_set":"bacs1","hex":"#3366ff99","correct":32,"choice":32,"rt":998.3250000004773,"accuracy":1,"outcome":"+10","keys":[2498.1599999955506],"total_keys":1,"block":1,"trial":12,"stimulus":2,"robot":1,"valence":"win","action":"go","sham":0,"trial_type":"pit-trial","trial_index":42,"time_elapsed":455857,"internal_node_id":"0.0-17.0","task_version":"battery-v0.2-trt","session":3},{"rune":"B","rune_set":"bacs1","hex":"#3366ff99","correct":-1,"choice":-1,"rt":-1,"accuracy":1,"outcome":"+10","keys":[],"total_keys":0,"block":1,"trial":13,"stimulus":0,"robot":2,"valence":"win","action":"no-go","sham":0,"trial_type":"pit-trial","trial_index":43,"time_elapsed":459912,"internal_node_id":"0.0-18.0","task_version":"battery-v0.2-trt","session":3},{"rune":"R","rune_set":"bacs1","hex":"#f73b6a7A","correct":32,"choice":32,"rt":521.8849999946542,"accuracy":1,"outcome":"-1","keys":[2060.685000004014],"total_keys":1,"block":1,"trial":14,"stimulus":3,"robot":3,"valence":"lose","action":"go","sham":0,"trial_type":"pit-trial","trial_index":44,"time_elapsed":463199,"internal_node_id":"0.0-19.0","task_version":"battery-v0.2-trt","session":3},{"rune":"Z","rune_set":"bacs1","hex":"#3366ff99","correct":-1,"choice":-1,"rt":-1,"accuracy":1,"outcome":"+1","keys":[],"total_keys":0,"block":1,"trial":15,"stimulus":1,"robot":2,"valence":"win","action":"no-go","sham":1,"trial_type":"pit-trial","trial_index":45,"time_elapsed":467256,"internal_node_id":"0.0-20.0","task_version":"battery-v0.2-trt","session":3},{"rune":"J","rune_set":"bacs1","hex":"#3366ff99","correct":32,"choice":32,"rt":705.1750000027823,"accuracy":1,"outcome":"+10","keys":[2205.4800000041723],"total_keys":1,"block":1,"trial":16,"stimulus":2,"robot":1,"valence":"win","action":"go","sham":0,"trial_type":"pit-trial","trial_index":46,"time_elapsed":470683,"internal_node_id":"0.0-21.0","task_version":"battery-v0.2-trt","session":3},{"rune":"Z","rune_set":"bacs1","hex":"#3366ff99","correct":-1,"choice":32,"rt":418.4800000002724,"accuracy":0,"outcome":"+1","keys":[1918.6850000041886],"total_keys":1,"block":1,"trial":17,"stimulus":1,"robot":2,"valence":"win","action":"no-go","sham":0,"trial_type":"pit-trial","trial_index":47,"time_elapsed":473826,"internal_node_id":"0.0-22.0","task_version":"battery-v0.2-trt","session":3},{"rune":"J","rune_set":"bacs1","hex":"#3366ff99","correct":32,"choice":32,"rt":572.2250000035274,"accuracy":1,"outcome":"+10","keys":[2072.81000000512],"total_keys":1,"block":1,"trial":18,"stimulus":2,"robot":1,"valence":"win","action":"go","sham":0,"trial_type":"pit-trial","trial_index":48,"time_elapsed":477122,"internal_node_id":"0.0-23.0","task_version":"battery-v0.2-trt","session":3},{"rune":"B","rune_set":"bacs1","hex":"#3366ff99","correct":-1,"choice":32,"rt":397.9650000037509,"accuracy":0,"outcome":"+1","keys":[1898.0899999951362],"total_keys":1,"block":1,"trial":19,"stimulus":0,"robot":2,"valence":"win","action":"no-go","sham":0,"trial_type":"pit-trial","trial_index":49,"time_elapsed":480264,"internal_node_id":"0.0-24.0","task_version":"battery-v0.2-trt","session":3},{"rune":"R","rune_set":"bacs1","hex":"#f73b6a7A","correct":32,"choice":32,"rt":781.2750000011874,"accuracy":1,"outcome":"-10","keys":[2279.54999999929],"total_keys":1,"block":1,"trial":20,"stimulus":3,"robot":3,"valence":"lose","action":"go","sham":1,"trial_type":"pit-trial","trial_index":50,"time_elapsed":483778,"internal_node_id":"0.0-25.0","task_version":"battery-v0.2-trt","session":3},{"rune":"R","rune_set":"bacs1","hex":"#f73b6a7A","correct":32,"choice":-1,"rt":-1,"accuracy":0,"outcome":"-10","keys":[],"total_keys":0,"block":1,"trial":21,"stimulus":3,"robot":3,"valence":"lose","action":"go","sham":0,"trial_type":"pit-trial","trial_index":51,"time_elapsed":487808,"internal_node_id":"0.0-26.0","task_version":"battery-v0.2-trt","session":3},{"rune":"J","rune_set":"bacs1","hex":"#3366ff99","correct":32,"choice":32,"rt":1215.4850000006263,"accuracy":1,"outcome":"+10","keys":[2717.69000000495],"total_keys":1,"block":1,"trial":22,"stimulus":2,"robot":1,"valence":"win","action":"go","sham":0,"trial_type":"pit-trial","trial_index":52,"time_elapsed":491748,"internal_node_id":"0.0-27.0","task_version":"battery-v0.2-trt","session":3},{"rune":"B","rune_set":"bacs1","hex":"#3366ff99","correct":-1,"choice":32,"rt":852.1049999981187,"accuracy":0,"outcome":"+1","keys":[2352.6700000002165],"total_keys":1,"block":1,"trial":23,"stimulus":0,"robot":2,"valence":"win","action":"no-go","sham":0,"trial_type":"pit-trial","trial_index":53,"time_elapsed":495331,"internal_node_id":"0.0-28.0","task_version":"battery-v0.2-trt","session":3},{"rune":"Z","rune_set":"bacs1","hex":"#3366ff99","correct":-1,"choice":-1,"rt":-1,"accuracy":1,"outcome":"+10","keys":[],"total_keys":0,"block":1,"trial":24,"stimulus":1,"robot":2,"valence":"win","action":"no-go","sham":0,"trial_type":"pit-trial","trial_index":54,"time_elapsed":499346,"internal_node_id":"0.0-29.0","task_version":"battery-v0.2-trt","session":3},{"rune":"Z","rune_set":"bacs1","hex":"#3366ff99","correct":-1,"choice":-1,"rt":-1,"accuracy":1,"outcome":"+1","keys":[],"total_keys":0,"block":1,"trial":25,"stimulus":1,"robot":2,"valence":"win","action":"no-go","sham":1,"trial_type":"pit-trial","trial_index":55,"time_elapsed":503365,"internal_node_id":"0.0-30.0","task_version":"battery-v0.2-trt","session":3},{"rune":"J","rune_set":"bacs1","hex":"#3366ff99","correct":32,"choice":32,"rt":720.0249999950756,"accuracy":1,"outcome":"+10","keys":[2220.3999999983353],"total_keys":1,"block":1,"trial":26,"stimulus":2,"robot":1,"valence":"win","action":"go","sham":0,"trial_type":"pit-trial","trial_index":56,"time_elapsed":506851,"internal_node_id":"0.0-31.0","task_version":"battery-v0.2-trt","session":3},{"rune":"B","rune_set":"bacs1","hex":"#3366ff99","correct":-1,"choice":-1,"rt":-1,"accuracy":1,"outcome":"+10","keys":[],"total_keys":0,"block":1,"trial":27,"stimulus":0,"robot":2,"valence":"win","action":"no-go","sham":0,"trial_type":"pit-trial","trial_index":57,"time_elapsed":510874,"internal_node_id":"0.0-32.0","task_version":"battery-v0.2-trt","session":3},{"rune":"R","rune_set":"bacs1","hex":"#f73b6a7A","correct":32,"choice":32,"rt":1102.5700000027427,"accuracy":1,"outcome":"-1","keys":[2603.690000003553],"total_keys":1,"block":1,"trial":28,"stimulus":3,"robot":3,"valence":"lose","action":"go","sham":0,"trial_type":"pit-trial","trial_index":58,"time_elapsed":514697,"internal_node_id":"0.0-33.0","task_version":"battery-v0.2-trt","session":3},{"rune":"Z","rune_set":"bacs1","hex":"#3366ff99","correct":-1,"choice":-1,"rt":-1,"accuracy":1,"outcome":"+10","keys":[],"total_keys":0,"block":1,"trial":29,"stimulus":1,"robot":2,"valence":"win","action":"no-go","sham":0,"trial_type":"pit-trial","trial_index":59,"time_elapsed":518735,"internal_node_id":"0.0-34.0","task_version":"battery-v0.2-trt","session":3},{"rune":"B","rune_set":"bacs1","hex":"#3366ff99","correct":-1,"choice":-1,"rt":-1,"accuracy":1,"outcome":"+10","keys":[],"total_keys":0,"block":1,"trial":30,"stimulus":0,"robot":2,"valence":"win","action":"no-go","sham":0,"trial_type":"pit-trial","trial_index":60,"time_elapsed":522754,"internal_node_id":"0.0-35.0","task_version":"battery-v0.2-trt","session":3},{"rune":"R","rune_set":"bacs1","hex":"#f73b6a7A","correct":32,"choice":32,"rt":716.4800000027753,"accuracy":1,"outcome":"-10","keys":[2218.1400000044378],"total_keys":1,"block":1,"trial":31,"stimulus":3,"robot":3,"valence":"lose","action":"go","sham":1,"trial_type":"pit-trial","trial_index":61,"time_elapsed":526202,"internal_node_id":"0.0-36.0","task_version":"battery-v0.2-trt","session":3},{"rune":"J","rune_set":"bacs1","hex":"#3366ff99","correct":32,"choice":32,"rt":572.1649999978254,"accuracy":1,"outcome":"+10","keys":[2071.844999998575],"total_keys":1,"block":1,"trial":32,"stimulus":2,"robot":1,"valence":"win","action":"go","sham":0,"trial_type":"pit-trial","trial_index":62,"time_elapsed":529498,"internal_node_id":"0.0-37.0","task_version":"battery-v0.2-trt","session":3},{"rune":"E","rune_set":"bacs1","hex":"#f73b6a7A","correct":32,"choice":-1,"rt":-1,"accuracy":0,"outcome":"-1","keys":[],"total_keys":0,"block":1,"trial":33,"stimulus":5,"robot":3,"valence":"lose","action":"go","sham":1,"trial_type":"pit-trial","trial_index":63,"time_elapsed":533530,"internal_node_id":"0.0-38.0","task_version":"battery-v0.2-trt","session":3},{"rune":"V","rune_set":"bacs1","hex":"#f73b6a7A","correct":-1,"choice":32,"rt":872.4899999942863,"accuracy":0,"outcome":"-10","keys":[2374.105000002659],"total_keys":1,"block":1,"trial":34,"stimulus":4,"robot":4,"valence":"lose","action":"no-go","sham":0,"trial_type":"pit-trial","trial_index":64,"time_elapsed":537127,"internal_node_id":"0.0-39.0","task_version":"battery-v0.2-trt","session":3},{"rune":"J","rune_set":"bacs1","hex":"#3366ff99","correct":32,"choice":32,"rt":697.3600000056904,"accuracy":1,"outcome":"+1","keys":[2200.7900000025984],"total_keys":1,"block":1,"trial":35,"stimulus":2,"robot":1,"valence":"win","action":"go","sham":1,"trial_type":"pit-trial","trial_index":65,"time_elapsed":540572,"internal_node_id":"0.0-40.0","task_version":"battery-v0.2-trt","session":3},{"rune":"B","rune_set":"bacs1","hex":"#3366ff99","correct":-1,"choice":-1,"rt":-1,"accuracy":1,"outcome":"+10","keys":[],"total_keys":0,"block":1,"trial":36,"stimulus":0,"robot":2,"valence":"win","action":"no-go","sham":0,"trial_type":"pit-trial","trial_index":66,"time_elapsed":544593,"internal_node_id":"0.0-41.0","task_version":"battery-v0.2-trt","session":3},{"rune":"E","rune_set":"bacs1","hex":"#f73b6a7A","correct":32,"choice":-1,"rt":-1,"accuracy":0,"outcome":"-1","keys":[],"total_keys":0,"block":1,"trial":37,"stimulus":5,"robot":3,"valence":"lose","action":"go","sham":1,"trial_type":"pit-trial","trial_index":67,"time_elapsed":548646,"internal_node_id":"0.0-42.0","task_version":"battery-v0.2-trt","session":3},{"rune":"V","rune_set":"bacs1","hex":"#f73b6a7A","correct":-1,"choice":32,"rt":778.9699999995064,"accuracy":0,"outcome":"-10","keys":[2279.034999999567],"total_keys":1,"block":1,"trial":38,"stimulus":4,"robot":4,"valence":"lose","action":"no-go","sham":0,"trial_type":"pit-trial","trial_index":68,"time_elapsed":552143,"internal_node_id":"0.0-43.0","task_version":"battery-v0.2-trt","session":3},{"rune":"J","rune_set":"bacs1","hex":"#3366ff99","correct":32,"choice":32,"rt":601.4899999937043,"accuracy":1,"outcome":"+10","keys":[2113.515000004554],"total_keys":1,"block":1,"trial":39,"stimulus":2,"robot":1,"valence":"win","action":"go","sham":0,"trial_type":"pit-trial","trial_index":69,"time_elapsed":555477,"internal_node_id":"0.0-44.0","task_version":"battery-v0.2-trt","session":3},{"rune":"B","rune_set":"bacs1","hex":"#3366ff99","correct":-1,"choice":-1,"rt":-1,"accuracy":1,"outcome":"+10","keys":[],"total_keys":0,"block":1,"trial":40,"stimulus":0,"robot":2,"valence":"win","action":"no-go","sham":0,"trial_type":"pit-trial","trial_index":70,"time_elapsed":559506,"internal_node_id":"0.0-45.0","task_version":"battery-v0.2-trt","session":3},{"rune":"J","rune_set":"bacs1","hex":"#3366ff99","correct":32,"choice":32,"rt":666.1650000023656,"accuracy":1,"outcome":"+10","keys":[2166.235000004177],"total_keys":1,"block":1,"trial":41,"stimulus":2,"robot":1,"valence":"win","action":"go","sham":0,"trial_type":"pit-trial","trial_index":71,"time_elapsed":562918,"internal_node_id":"0.0-46.0","task_version":"battery-v0.2-trt","session":3},{"rune":"E","rune_set":"bacs1","hex":"#f73b6a7A","correct":32,"choice":-1,"rt":-1,"accuracy":0,"outcome":"-10","keys":[],"total_keys":0,"block":1,"trial":42,"stimulus":5,"robot":3,"valence":"lose","action":"go","sham":0,"trial_type":"pit-trial","trial_index":72,"time_elapsed":566936,"internal_node_id":"0.0-47.0","task_version":"battery-v0.2-trt","session":3},{"rune":"V","rune_set":"bacs1","hex":"#f73b6a7A","correct":-1,"choice":-1,"rt":-1,"accuracy":1,"outcome":"-1","keys":[],"total_keys":0,"block":1,"trial":43,"stimulus":4,"robot":4,"valence":"lose","action":"no-go","sham":0,"trial_type":"pit-trial","trial_index":73,"time_elapsed":570968,"internal_node_id":"0.0-48.0","task_version":"battery-v0.2-trt","session":3},{"rune":"T","rune_set":"bacs1","hex":"#3366ff99","correct":-1,"choice":32,"rt":951.969999994617,"accuracy":0,"outcome":"+1","keys":[2449.479999995674],"total_keys":1,"block":1,"trial":44,"stimulus":6,"robot":2,"valence":"win","action":"no-go","sham":0,"trial_type":"pit-trial","trial_index":74,"time_elapsed":574649,"internal_node_id":"0.0-49.0","task_version":"battery-v0.2-trt","session":3},{"rune":"T","rune_set":"bacs1","hex":"#3366ff99","correct":-1,"choice":-1,"rt":-1,"accuracy":1,"outcome":"+10","keys":[],"total_keys":0,"block":1,"trial":45,"stimulus":6,"robot":2,"valence":"win","action":"no-go","sham":0,"trial_type":"pit-trial","trial_index":75,"time_elapsed":578670,"internal_node_id":"0.0-50.0","task_version":"battery-v0.2-trt","session":3},{"rune":"V","rune_set":"bacs1","hex":"#f73b6a7A","correct":-1,"choice":-1,"rt":-1,"accuracy":1,"outcome":"-1","keys":[],"total_keys":0,"block":1,"trial":46,"stimulus":4,"robot":4,"valence":"lose","action":"no-go","sham":0,"trial_type":"pit-trial","trial_index":76,"time_elapsed":582691,"internal_node_id":"0.0-51.0","task_version":"battery-v0.2-trt","session":3},{"rune":"J","rune_set":"bacs1","hex":"#3366ff99","correct":32,"choice":32,"rt":615.7549999989569,"accuracy":1,"outcome":"+10","keys":[2115.829999995185],"total_keys":1,"block":1,"trial":47,"stimulus":2,"robot":1,"valence":"win","action":"go","sham":0,"trial_type":"pit-trial","trial_index":77,"time_elapsed":586039,"internal_node_id":"0.0-52.0","task_version":"battery-v0.2-trt","session":3},{"rune":"E","rune_set":"bacs1","hex":"#f73b6a7A","correct":32,"choice":-1,"rt":-1,"accuracy":0,"outcome":"-10","keys":[],"total_keys":0,"block":1,"trial":48,"stimulus":5,"robot":3,"valence":"lose","action":"go","sham":0,"trial_type":"pit-trial","trial_index":78,"time_elapsed":590088,"internal_node_id":"0.0-53.0","task_version":"battery-v0.2-trt","session":3},{"rune":"F","rune_set":"bacs1","hex":"#f73b6a7A","correct":-1,"choice":32,"rt":776.7000000021653,"accuracy":0,"outcome":"-10","keys":[2276.8550000037067],"total_keys":1,"block":1,"trial":49,"stimulus":7,"robot":4,"valence":"lose","action":"no-go","sham":0,"trial_type":"pit-trial","trial_index":79,"time_elapsed":593600,"internal_node_id":"0.0-54.0","task_version":"battery-v0.2-trt","session":3},{"rune":"E","rune_set":"bacs1","hex":"#f73b6a7A","correct":32,"choice":-1,"rt":-1,"accuracy":0,"outcome":"-10","keys":[],"total_keys":0,"block":1,"trial":50,"stimulus":5,"robot":3,"valence":"lose","action":"go","sham":0,"trial_type":"pit-trial","trial_index":80,"time_elapsed":597620,"internal_node_id":"0.0-55.0","task_version":"battery-v0.2-trt","session":3},{"rune":"V","rune_set":"bacs1","hex":"#f73b6a7A","correct":-1,"choice":-1,"rt":-1,"accuracy":1,"outcome":"-1","keys":[],"total_keys":0,"block":1,"trial":51,"stimulus":4,"robot":4,"valence":"lose","action":"no-go","sham":0,"trial_type":"pit-trial","trial_index":81,"time_elapsed":601660,"internal_node_id":"0.0-56.0","task_version":"battery-v0.2-trt","session":3},{"rune":"T","rune_set":"bacs1","hex":"#3366ff99","correct":-1,"choice":32,"rt":1084.3800000002375,"accuracy":0,"outcome":"+1","keys":[2593.2150000007823],"total_keys":1,"block":1,"trial":52,"stimulus":6,"robot":2,"valence":"win","action":"no-go","sham":0,"trial_type":"pit-trial","trial_index":82,"time_elapsed":605488,"internal_node_id":"0.0-57.0","task_version":"battery-v0.2-trt","session":3},{"rune":"F","rune_set":"bacs1","hex":"#f73b6a7A","correct":-1,"choice":-1,"rt":-1,"accuracy":1,"outcome":"-1","keys":[],"total_keys":0,"block":1,"trial":53,"stimulus":7,"robot":4,"valence":"lose","action":"no-go","sham":0,"trial_type":"pit-trial","trial_index":83,"time_elapsed":609526,"internal_node_id":"0.0-58.0","task_version":"battery-v0.2-trt","session":3},{"rune":"T","rune_set":"bacs1","hex":"#3366ff99","correct":-1,"choice":-1,"rt":-1,"accuracy":1,"outcome":"+10","keys":[],"total_keys":0,"block":1,"trial":54,"stimulus":6,"robot":2,"valence":"win","action":"no-go","sham":0,"trial_type":"pit-trial","trial_index":84,"time_elapsed":613551,"internal_node_id":"0.0-59.0","task_version":"battery-v0.2-trt","session":3},{"rune":"V","rune_set":"bacs1","hex":"#f73b6a7A","correct":-1,"choice":-1,"rt":-1,"accuracy":1,"outcome":"-1","keys":[],"total_keys":0,"block":1,"trial":55,"stimulus":4,"robot":4,"valence":"lose","action":"no-go","sham":0,"trial_type":"pit-trial","trial_index":85,"time_elapsed":617588,"internal_node_id":"0.0-60.0","task_version":"battery-v0.2-trt","session":3},{"rune":"E","rune_set":"bacs1","hex":"#f73b6a7A","correct":32,"choice":32,"rt":745.9149999995716,"accuracy":1,"outcome":"-10","keys":[2236.635000001057],"total_keys":1,"block":1,"trial":56,"stimulus":5,"robot":3,"valence":"lose","action":"go","sham":1,"trial_type":"pit-trial","trial_index":86,"time_elapsed":621086,"internal_node_id":"0.0-61.0","task_version":"battery-v0.2-trt","session":3},{"rune":"T","rune_set":"bacs1","hex":"#3366ff99","correct":-1,"choice":-1,"rt":-1,"accuracy":1,"outcome":"+10","keys":[],"total_keys":0,"block":1,"trial":57,"stimulus":6,"robot":2,"valence":"win","action":"no-go","sham":0,"trial_type":"pit-trial","trial_index":87,"time_elapsed":625121,"internal_node_id":"0.0-62.0","task_version":"battery-v0.2-trt","session":3},{"rune":"V","rune_set":"bacs1","hex":"#f73b6a7A","correct":-1,"choice":-1,"rt":-1,"accuracy":1,"outcome":"-1","keys":[],"total_keys":0,"block":1,"trial":58,"stimulus":4,"robot":4,"valence":"lose","action":"no-go","sham":0,"trial_type":"pit-trial","trial_index":88,"time_elapsed":629183,"internal_node_id":"0.0-63.0","task_version":"battery-v0.2-trt","session":3},{"rune":"E","rune_set":"bacs1","hex":"#f73b6a7A","correct":32,"choice":-1,"rt":-1,"accuracy":0,"outcome":"-10","keys":[],"total_keys":0,"block":1,"trial":59,"stimulus":5,"robot":3,"valence":"lose","action":"go","sham":0,"trial_type":"pit-trial","trial_index":89,"time_elapsed":633228,"internal_node_id":"0.0-64.0","task_version":"battery-v0.2-trt","session":3},{"rune":"F","rune_set":"bacs1","hex":"#f73b6a7A","correct":-1,"choice":-1,"rt":-1,"accuracy":1,"outcome":"-10","keys":[],"total_keys":0,"block":1,"trial":60,"stimulus":7,"robot":4,"valence":"lose","action":"no-go","sham":1,"trial_type":"pit-trial","trial_index":90,"time_elapsed":637249,"internal_node_id":"0.0-65.0","task_version":"battery-v0.2-trt","session":3},{"rune":"F","rune_set":"bacs1","hex":"#f73b6a7A","correct":-1,"choice":32,"rt":576.4850000051083,"accuracy":0,"outcome":"-10","keys":[2077.545000000042],"total_keys":1,"block":1,"trial":61,"stimulus":7,"robot":4,"valence":"lose","action":"no-go","sham":0,"trial_type":"pit-trial","trial_index":91,"time_elapsed":640548,"internal_node_id":"0.0-66.0","task_version":"battery-v0.2-trt","session":3},{"rune":"T","rune_set":"bacs1","hex":"#3366ff99","correct":-1,"choice":-1,"rt":-1,"accuracy":1,"outcome":"+10","keys":[],"total_keys":0,"block":1,"trial":62,"stimulus":6,"robot":2,"valence":"win","action":"no-go","sham":0,"trial_type":"pit-trial","trial_index":92,"time_elapsed":644567,"internal_node_id":"0.0-67.0","task_version":"battery-v0.2-trt","session":3},{"rune":"E","rune_set":"bacs1","hex":"#f73b6a7A","correct":32,"choice":-1,"rt":-1,"accuracy":0,"outcome":"-10","keys":[],"total_keys":0,"block":1,"trial":63,"stimulus":5,"robot":3,"valence":"lose","action":"go","sham":0,"trial_type":"pit-trial","trial_index":93,"time_elapsed":648617,"internal_node_id":"0.0-68.0","task_version":"battery-v0.2-trt","session":3},{"rune":"V","rune_set":"bacs1","hex":"#f73b6a7A","correct":-1,"choice":-1,"rt":-1,"accuracy":1,"outcome":"-1","keys":[],"total_keys":0,"block":1,"trial":64,"stimulus":4,"robot":4,"valence":"lose","action":"no-go","sham":0,"trial_type":"pit-trial","trial_index":94,"time_elapsed":652631,"internal_node_id":"0.0-69.0","task_version":"battery-v0.2-trt","session":3},{"rune":"F","rune_set":"bacs1","hex":"#f73b6a7A","correct":-1,"choice":-1,"rt":-1,"accuracy":1,"outcome":"-1","keys":[],"total_keys":0,"block":1,"trial":65,"stimulus":7,"robot":4,"valence":"lose","action":"no-go","sham":0,"trial_type":"pit-trial","trial_index":95,"time_elapsed":656652,"internal_node_id":"0.0-70.0","task_version":"battery-v0.2-trt","session":3},{"rune":"T","rune_set":"bacs1","hex":"#3366ff99","correct":-1,"choice":-1,"rt":-1,"accuracy":1,"outcome":"+10","keys":[],"total_keys":0,"block":1,"trial":66,"stimulus":6,"robot":2,"valence":"win","action":"no-go","sham":0,"trial_type":"pit-trial","trial_index":96,"time_elapsed":660683,"internal_node_id":"0.0-71.0","task_version":"battery-v0.2-trt","session":3},{"rune":"E","rune_set":"bacs1","hex":"#f73b6a7A","correct":32,"choice":-1,"rt":-1,"accuracy":0,"outcome":"-10","keys":[],"total_keys":0,"block":1,"trial":67,"stimulus":5,"robot":3,"valence":"lose","action":"go","sham":0,"trial_type":"pit-trial","trial_index":97,"time_elapsed":664708,"internal_node_id":"0.0-72.0","task_version":"battery-v0.2-trt","session":3},{"rune":"V","rune_set":"bacs1","hex":"#f73b6a7A","correct":-1,"choice":-1,"rt":-1,"accuracy":1,"outcome":"-1","keys":[],"total_keys":0,"block":1,"trial":68,"stimulus":4,"robot":4,"valence":"lose","action":"no-go","sham":0,"trial_type":"pit-trial","trial_index":98,"time_elapsed":668743,"internal_node_id":"0.0-73.0","task_version":"battery-v0.2-trt","session":3},{"rune":"T","rune_set":"bacs1","hex":"#3366ff99","correct":-1,"choice":-1,"rt":-1,"accuracy":1,"outcome":"+10","keys":[],"total_keys":0,"block":1,"trial":69,"stimulus":6,"robot":2,"valence":"win","action":"no-go","sham":0,"trial_type":"pit-trial","trial_index":99,"time_elapsed":672765,"internal_node_id":"0.0-74.0","task_version":"battery-v0.2-trt","session":3},{"rune":"V","rune_set":"bacs1","hex":"#f73b6a7A","correct":-1,"choice":-1,"rt":-1,"accuracy":1,"outcome":"-1","keys":[],"total_keys":0,"block":1,"trial":70,"stimulus":4,"robot":4,"valence":"lose","action":"no-go","sham":0,"trial_type":"pit-trial","trial_index":100,"time_elapsed":676794,"internal_node_id":"0.0-75.0","task_version":"battery-v0.2-trt","session":3},{"rune":"E","rune_set":"bacs1","hex":"#f73b6a7A","correct":32,"choice":32,"rt":815.1649999999208,"accuracy":1,"outcome":"-1","keys":[2315.354999998817],"total_keys":1,"block":1,"trial":71,"stimulus":5,"robot":3,"valence":"lose","action":"go","sham":0,"trial_type":"pit-trial","trial_index":101,"time_elapsed":680331,"internal_node_id":"0.0-76.0","task_version":"battery-v0.2-trt","session":3},{"rune":"F","rune_set":"bacs1","hex":"#f73b6a7A","correct":-1,"choice":-1,"rt":-1,"accuracy":1,"outcome":"-1","keys":[],"total_keys":0,"block":1,"trial":72,"stimulus":7,"robot":4,"valence":"lose","action":"no-go","sham":0,"trial_type":"pit-trial","trial_index":102,"time_elapsed":684354,"internal_node_id":"0.0-77.0","task_version":"battery-v0.2-trt","session":3},{"rune":"T","rune_set":"bacs1","hex":"#3366ff99","correct":-1,"choice":-1,"rt":-1,"accuracy":1,"outcome":"+10","keys":[],"total_keys":0,"block":1,"trial":73,"stimulus":6,"robot":2,"valence":"win","action":"no-go","sham":0,"trial_type":"pit-trial","trial_index":103,"time_elapsed":688370,"internal_node_id":"0.0-78.0","task_version":"battery-v0.2-trt","session":3},{"rune":"E","rune_set":"bacs1","hex":"#f73b6a7A","correct":32,"choice":32,"rt":854.2500000039581,"accuracy":1,"outcome":"-1","keys":[2354.545000002021],"total_keys":1,"block":1,"trial":74,"stimulus":5,"robot":3,"valence":"lose","action":"go","sham":0,"trial_type":"pit-trial","trial_index":104,"time_elapsed":691964,"internal_node_id":"0.0-79.0","task_version":"battery-v0.2-trt","session":3},{"rune":"A","rune_set":"bacs1","hex":"#f73b6a7A","correct":-1,"choice":-1,"rt":-1,"accuracy":1,"outcome":"-1","keys":[],"total_keys":0,"block":1,"trial":75,"stimulus":8,"robot":4,"valence":"lose","action":"no-go","sham":0,"trial_type":"pit-trial","trial_index":105,"time_elapsed":695978,"internal_node_id":"0.0-80.0","task_version":"battery-v0.2-trt","session":3},{"rune":"F","rune_set":"bacs1","hex":"#f73b6a7A","correct":-1,"choice":-1,"rt":-1,"accuracy":1,"outcome":"-10","keys":[],"total_keys":0,"block":1,"trial":76,"stimulus":7,"robot":4,"valence":"lose","action":"no-go","sham":1,"trial_type":"pit-trial","trial_index":106,"time_elapsed":700000,"internal_node_id":"0.0-81.0","task_version":"battery-v0.2-trt","session":3},{"rune":"F","rune_set":"bacs1","hex":"#f73b6a7A","correct":-1,"choice":32,"rt":582.0949999978766,"accuracy":0,"outcome":"-10","keys":[2082.155000003637],"total_keys":1,"block":1,"trial":77,"stimulus":7,"robot":4,"valence":"lose","action":"no-go","sham":0,"trial_type":"pit-trial","trial_index":107,"time_elapsed":703302,"internal_node_id":"0.0-82.0","task_version":"battery-v0.2-trt","session":3},{"rune":"T","rune_set":"bacs1","hex":"#3366ff99","correct":-1,"choice":-1,"rt":-1,"accuracy":1,"outcome":"+1","keys":[],"total_keys":0,"block":1,"trial":78,"stimulus":6,"robot":2,"valence":"win","action":"no-go","sham":1,"trial_type":"pit-trial","trial_index":108,"time_elapsed":707326,"internal_node_id":"0.0-83.0","task_version":"battery-v0.2-trt","session":3},{"rune":"E","rune_set":"bacs1","hex":"#f73b6a7A","correct":32,"choice":32,"rt":762.4949999954551,"accuracy":1,"outcome":"-1","keys":[2262.5650000046007],"total_keys":1,"block":1,"trial":79,"stimulus":5,"robot":3,"valence":"lose","action":"go","sham":0,"trial_type":"pit-trial","trial_index":109,"time_elapsed":710819,"internal_node_id":"0.0-84.0","task_version":"battery-v0.2-trt","session":3},{"rune":"A","rune_set":"bacs1","hex":"#f73b6a7A","correct":-1,"choice":-1,"rt":-1,"accuracy":1,"outcome":"-1","keys":[],"total_keys":0,"block":1,"trial":80,"stimulus":8,"robot":4,"valence":"lose","action":"no-go","sham":0,"trial_type":"pit-trial","trial_index":110,"time_elapsed":714840,"internal_node_id":"0.0-85.0","task_version":"battery-v0.2-trt","session":3},{"rune":"A","rune_set":"bacs1","hex":"#f73b6a7A","correct":-1,"choice":-1,"rt":-1,"accuracy":1,"outcome":"-1","keys":[],"total_keys":0,"block":1,"trial":81,"stimulus":8,"robot":4,"valence":"lose","action":"no-go","sham":0,"trial_type":"pit-trial","trial_index":111,"time_elapsed":718856,"internal_node_id":"0.0-86.0","task_version":"battery-v0.2-trt","session":3},{"rune":"L","rune_set":"bacs1","hex":"#f73b6a7A","correct":32,"choice":32,"rt":774.0600000034319,"accuracy":1,"outcome":"-1","keys":[2293.455000006361],"total_keys":1,"block":1,"trial":82,"stimulus":10,"robot":3,"valence":"lose","action":"go","sham":0,"trial_type":"pit-trial","trial_index":112,"time_elapsed":722390,"internal_node_id":"0.0-87.0","task_version":"battery-v0.2-trt","session":3},{"rune":"T","rune_set":"bacs1","hex":"#3366ff99","correct":-1,"choice":-1,"rt":-1,"accuracy":1,"outcome":"+10","keys":[],"total_keys":0,"block":1,"trial":83,"stimulus":6,"robot":2,"valence":"win","action":"no-go","sham":0,"trial_type":"pit-trial","trial_index":113,"time_elapsed":726405,"internal_node_id":"0.0-88.0","task_version":"battery-v0.2-trt","session":3},{"rune":"C","rune_set":"bacs1","hex":"#3366ff99","correct":32,"choice":-1,"rt":-1,"accuracy":0,"outcome":"+1","keys":[],"total_keys":0,"block":1,"trial":84,"stimulus":9,"robot":1,"valence":"win","action":"go","sham":0,"trial_type":"pit-trial","trial_index":114,"time_elapsed":730488,"internal_node_id":"0.0-89.0","task_version":"battery-v0.2-trt","session":3},{"rune":"L","rune_set":"bacs1","hex":"#f73b6a7A","correct":32,"choice":32,"rt":1215.8649999982445,"accuracy":1,"outcome":"-1","keys":[2716.030000003171],"total_keys":1,"block":1,"trial":85,"stimulus":10,"robot":3,"valence":"lose","action":"go","sham":0,"trial_type":"pit-trial","trial_index":115,"time_elapsed":734469,"internal_node_id":"0.0-90.0","task_version":"battery-v0.2-trt","session":3},{"rune":"A","rune_set":"bacs1","hex":"#f73b6a7A","correct":-1,"choice":-1,"rt":-1,"accuracy":1,"outcome":"-1","keys":[],"total_keys":0,"block":1,"trial":86,"stimulus":8,"robot":4,"valence":"lose","action":"no-go","sham":0,"trial_type":"pit-trial","trial_index":116,"time_elapsed":738504,"internal_node_id":"0.0-91.0","task_version":"battery-v0.2-trt","session":3},{"rune":"T","rune_set":"bacs1","hex":"#3366ff99","correct":-1,"choice":-1,"rt":-1,"accuracy":1,"outcome":"+10","keys":[],"total_keys":0,"block":1,"trial":87,"stimulus":6,"robot":2,"valence":"win","action":"no-go","sham":0,"trial_type":"pit-trial","trial_index":117,"time_elapsed":742524,"internal_node_id":"0.0-92.0","task_version":"battery-v0.2-trt","session":3},{"rune":"C","rune_set":"bacs1","hex":"#3366ff99","correct":32,"choice":-1,"rt":-1,"accuracy":0,"outcome":"+1","keys":[],"total_keys":0,"block":1,"trial":88,"stimulus":9,"robot":1,"valence":"win","action":"go","sham":0,"trial_type":"pit-trial","trial_index":118,"time_elapsed":746542,"internal_node_id":"0.0-93.0","task_version":"battery-v0.2-trt","session":3},{"rune":"A","rune_set":"bacs1","hex":"#f73b6a7A","correct":-1,"choice":-1,"rt":-1,"accuracy":1,"outcome":"-10","keys":[],"total_keys":0,"block":1,"trial":89,"stimulus":8,"robot":4,"valence":"lose","action":"no-go","sham":1,"trial_type":"pit-trial","trial_index":119,"time_elapsed":750560,"internal_node_id":"0.0-94.0","task_version":"battery-v0.2-trt","session":3},{"rune":"L","rune_set":"bacs1","hex":"#f73b6a7A","correct":32,"choice":32,"rt":893.904999997234,"accuracy":1,"outcome":"-1","keys":[2394.8650000019697],"total_keys":1,"block":1,"trial":90,"stimulus":10,"robot":3,"valence":"lose","action":"go","sham":0,"trial_type":"pit-trial","trial_index":120,"time_elapsed":754190,"internal_node_id":"0.0-95.0","task_version":"battery-v0.2-trt","session":3},{"rune":"C","rune_set":"bacs1","hex":"#3366ff99","correct":32,"choice":32,"rt":1037.9150000008522,"accuracy":1,"outcome":"+10","keys":[2538.0050000021],"total_keys":1,"block":1,"trial":91,"stimulus":9,"robot":1,"valence":"win","action":"go","sham":0,"trial_type":"pit-trial","trial_index":121,"time_elapsed":757954,"internal_node_id":"0.0-96.0","task_version":"battery-v0.2-trt","session":3},{"rune":"Q","rune_set":"bacs1","hex":"#3366ff99","correct":32,"choice":32,"rt":1038.880000000121,"accuracy":1,"outcome":"+10","keys":[2539.179999999702],"total_keys":1,"block":1,"trial":92,"stimulus":11,"robot":1,"valence":"win","action":"go","sham":0,"trial_type":"pit-trial","trial_index":122,"time_elapsed":761730,"internal_node_id":"0.0-97.0","task_version":"battery-v0.2-trt","session":3},{"rune":"Q","rune_set":"bacs1","hex":"#3366ff99","correct":32,"choice":32,"rt":642.9600000046194,"accuracy":1,"outcome":"+10","keys":[2150.2200000032317],"total_keys":1,"block":1,"trial":93,"stimulus":11,"robot":1,"valence":"win","action":"go","sham":0,"trial_type":"pit-trial","trial_index":123,"time_elapsed":765129,"internal_node_id":"0.0-98.0","task_version":"battery-v0.2-trt","session":3},{"rune":"A","rune_set":"bacs1","hex":"#f73b6a7A","correct":-1,"choice":-1,"rt":-1,"accuracy":1,"outcome":"-1","keys":[],"total_keys":0,"block":1,"trial":94,"stimulus":8,"robot":4,"valence":"lose","action":"no-go","sham":0,"trial_type":"pit-trial","trial_index":124,"time_elapsed":769149,"internal_node_id":"0.0-99.0","task_version":"battery-v0.2-trt","session":3},{"rune":"L","rune_set":"bacs1","hex":"#f73b6a7A","correct":32,"choice":32,"rt":894.9700000011362,"accuracy":1,"outcome":"-10","keys":[2398.0450000016717],"total_keys":1,"block":1,"trial":95,"stimulus":10,"robot":3,"valence":"lose","action":"go","sham":1,"trial_type":"pit-trial","trial_index":125,"time_elapsed":772771,"internal_node_id":"0.0-100.0","task_version":"battery-v0.2-trt","session":3},{"rune":"C","rune_set":"bacs1","hex":"#3366ff99","correct":32,"choice":32,"rt":739.4150000037625,"accuracy":1,"outcome":"+10","keys":[2239.5399999950314],"total_keys":1,"block":1,"trial":96,"stimulus":9,"robot":1,"valence":"win","action":"go","sham":0,"trial_type":"pit-trial","trial_index":126,"time_elapsed":776236,"internal_node_id":"0.0-101.0","task_version":"battery-v0.2-trt","session":3},{"rune":"Q","rune_set":"bacs1","hex":"#3366ff99","correct":32,"choice":32,"rt":913.300000000163,"accuracy":1,"outcome":"+10","keys":[2413.410000000964],"total_keys":1,"block":1,"trial":97,"stimulus":11,"robot":1,"valence":"win","action":"go","sham":0,"trial_type":"pit-trial","trial_index":127,"time_elapsed":779868,"internal_node_id":"0.0-102.0","task_version":"battery-v0.2-trt","session":3},{"rune":"C","rune_set":"bacs1","hex":"#3366ff99","correct":32,"choice":32,"rt":736.305000005872,"accuracy":1,"outcome":"+10","keys":[2237.8950000056066],"total_keys":1,"block":1,"trial":98,"stimulus":9,"robot":1,"valence":"win","action":"go","sham":0,"trial_type":"pit-trial","trial_index":128,"time_elapsed":783369,"internal_node_id":"0.0-103.0","task_version":"battery-v0.2-trt","session":3},{"rune":"A","rune_set":"bacs1","hex":"#f73b6a7A","correct":-1,"choice":-1,"rt":-1,"accuracy":1,"outcome":"-1","keys":[],"total_keys":0,"block":1,"trial":99,"stimulus":8,"robot":4,"valence":"lose","action":"no-go","sham":0,"trial_type":"pit-trial","trial_index":129,"time_elapsed":787394,"internal_node_id":"0.0-104.0","task_version":"battery-v0.2-trt","session":3},{"rune":"L","rune_set":"bacs1","hex":"#f73b6a7A","correct":32,"choice":32,"rt":757.0649999978486,"accuracy":1,"outcome":"-1","keys":[2280.8949999962933],"total_keys":1,"block":1,"trial":100,"stimulus":10,"robot":3,"valence":"lose","action":"go","sham":0,"trial_type":"pit-trial","trial_index":130,"time_elapsed":790937,"internal_node_id":"0.0-105.0","task_version":"battery-v0.2-trt","session":3},{"rune":"L","rune_set":"bacs1","hex":"#f73b6a7A","correct":32,"choice":32,"rt":537.9249999969034,"accuracy":1,"outcome":"-1","keys":[2039.4999999989523],"total_keys":1,"block":1,"trial":101,"stimulus":10,"robot":3,"valence":"lose","action":"go","sham":0,"trial_type":"pit-trial","trial_index":131,"time_elapsed":794205,"internal_node_id":"0.0-106.0","task_version":"battery-v0.2-trt","session":3},{"rune":"Q","rune_set":"bacs1","hex":"#3366ff99","correct":32,"choice":32,"rt":716.6399999987334,"accuracy":1,"outcome":"+10","keys":[2216.6700000015553],"total_keys":1,"block":1,"trial":102,"stimulus":11,"robot":1,"valence":"win","action":"go","sham":0,"trial_type":"pit-trial","trial_index":132,"time_elapsed":797680,"internal_node_id":"0.0-107.0","task_version":"battery-v0.2-trt","session":3},{"rune":"A","rune_set":"bacs1","hex":"#f73b6a7A","correct":-1,"choice":-1,"rt":-1,"accuracy":1,"outcome":"-1","keys":[],"total_keys":0,"block":1,"trial":103,"stimulus":8,"robot":4,"valence":"lose","action":"no-go","sham":0,"trial_type":"pit-trial","trial_index":133,"time_elapsed":801708,"internal_node_id":"0.0-108.0","task_version":"battery-v0.2-trt","session":3},{"rune":"C","rune_set":"bacs1","hex":"#3366ff99","correct":32,"choice":32,"rt":618.3249999957625,"accuracy":1,"outcome":"+10","keys":[2118.719999998575],"total_keys":1,"block":1,"trial":104,"stimulus":9,"robot":1,"valence":"win","action":"go","sham":0,"trial_type":"pit-trial","trial_index":134,"time_elapsed":805043,"internal_node_id":"0.0-109.0","task_version":"battery-v0.2-trt","session":3},{"rune":"A","rune_set":"bacs1","hex":"#f73b6a7A","correct":-1,"choice":-1,"rt":-1,"accuracy":1,"outcome":"-1","keys":[],"total_keys":0,"block":1,"trial":105,"stimulus":8,"robot":4,"valence":"lose","action":"no-go","sham":0,"trial_type":"pit-trial","trial_index":135,"time_elapsed":809082,"internal_node_id":"0.0-110.0","task_version":"battery-v0.2-trt","session":3},{"rune":"C","rune_set":"bacs1","hex":"#3366ff99","correct":32,"choice":32,"rt":540.5499999978347,"accuracy":1,"outcome":"+10","keys":[2041.3849999967497],"total_keys":1,"block":1,"trial":106,"stimulus":9,"robot":1,"valence":"win","action":"go","sham":0,"trial_type":"pit-trial","trial_index":136,"time_elapsed":812355,"internal_node_id":"0.0-111.0","task_version":"battery-v0.2-trt","session":3},{"rune":"Q","rune_set":"bacs1","hex":"#3366ff99","correct":32,"choice":32,"rt":538.2799999932759,"accuracy":1,"outcome":"+10","keys":[2038.384999999893],"total_keys":1,"block":1,"trial":107,"stimulus":11,"robot":1,"valence":"win","action":"go","sham":0,"trial_type":"pit-trial","trial_index":137,"time_elapsed":815626,"internal_node_id":"0.0-112.0","task_version":"battery-v0.2-trt","session":3},{"rune":"L","rune_set":"bacs1","hex":"#f73b6a7A","correct":32,"choice":32,"rt":585.5900000024121,"accuracy":1,"outcome":"-1","keys":[2085.480000001495],"total_keys":1,"block":1,"trial":108,"stimulus":10,"robot":3,"valence":"lose","action":"go","sham":0,"trial_type":"pit-trial","trial_index":138,"time_elapsed":818938,"internal_node_id":"0.0-113.0","task_version":"battery-v0.2-trt","session":3},{"rune":"L","rune_set":"bacs1","hex":"#f73b6a7A","correct":32,"choice":32,"rt":701.4400000043679,"accuracy":1,"outcome":"-1","keys":[2209.555000001332],"total_keys":1,"block":1,"trial":109,"stimulus":10,"robot":3,"valence":"lose","action":"go","sham":0,"trial_type":"pit-trial","trial_index":139,"time_elapsed":822379,"internal_node_id":"0.0-114.0","task_version":"battery-v0.2-trt","session":3},{"rune":"A","rune_set":"bacs1","hex":"#f73b6a7A","correct":-1,"choice":-1,"rt":-1,"accuracy":1,"outcome":"-1","keys":[],"total_keys":0,"block":1,"trial":110,"stimulus":8,"robot":4,"valence":"lose","action":"no-go","sham":0,"trial_type":"pit-trial","trial_index":140,"time_elapsed":826422,"internal_node_id":"0.0-115.0","task_version":"battery-v0.2-trt","session":3},{"rune":"C","rune_set":"bacs1","hex":"#3366ff99","correct":32,"choice":32,"rt":709.9999999991851,"accuracy":1,"outcome":"+10","keys":[2228.7050000012387],"total_keys":1,"block":1,"trial":111,"stimulus":9,"robot":1,"valence":"win","action":"go","sham":0,"trial_type":"pit-trial","trial_index":141,"time_elapsed":829888,"internal_node_id":"0.0-116.0","task_version":"battery-v0.2-trt","session":3},{"rune":"Q","rune_set":"bacs1","hex":"#3366ff99","correct":32,"choice":32,"rt":716.1150000029011,"accuracy":1,"outcome":"+1","keys":[2216.185000004829],"total_keys":1,"block":1,"trial":112,"stimulus":11,"robot":1,"valence":"win","action":"go","sham":1,"trial_type":"pit-trial","trial_index":142,"time_elapsed":833338,"internal_node_id":"0.0-117.0","task_version":"battery-v0.2-trt","session":3},{"rune":"Q","rune_set":"bacs1","hex":"#3366ff99","correct":32,"choice":32,"rt":520.2649999991991,"accuracy":1,"outcome":"+10","keys":[2021.3299999958836],"total_keys":1,"block":1,"trial":113,"stimulus":11,"robot":1,"valence":"win","action":"go","sham":0,"trial_type":"pit-trial","trial_index":143,"time_elapsed":836652,"internal_node_id":"0.0-118.0","task_version":"battery-v0.2-trt","session":3},{"rune":"C","rune_set":"bacs1","hex":"#3366ff99","correct":32,"choice":32,"rt":639.6549999990966,"accuracy":1,"outcome":"+10","keys":[2139.7550000038464],"total_keys":1,"block":1,"trial":114,"stimulus":9,"robot":1,"valence":"win","action":"go","sham":0,"trial_type":"pit-trial","trial_index":144,"time_elapsed":840021,"internal_node_id":"0.0-119.0","task_version":"battery-v0.2-trt","session":3},{"rune":"L","rune_set":"bacs1","hex":"#f73b6a7A","correct":32,"choice":32,"rt":593.670000002021,"accuracy":1,"outcome":"-1","keys":[2094.7199999936856],"total_keys":1,"block":1,"trial":115,"stimulus":10,"robot":3,"valence":"lose","action":"go","sham":0,"trial_type":"pit-trial","trial_index":145,"time_elapsed":843356,"internal_node_id":"0.0-120.0","task_version":"battery-v0.2-trt","session":3},{"rune":"A","rune_set":"bacs1","hex":"#f73b6a7A","correct":-1,"choice":-1,"rt":-1,"accuracy":1,"outcome":"-1","keys":[],"total_keys":0,"block":1,"trial":116,"stimulus":8,"robot":4,"valence":"lose","action":"no-go","sham":0,"trial_type":"pit-trial","trial_index":146,"time_elapsed":847409,"internal_node_id":"0.0-121.0","task_version":"battery-v0.2-trt","session":3},{"rune":"A","rune_set":"bacs1","hex":"#f73b6a7A","correct":-1,"choice":-1,"rt":-1,"accuracy":1,"outcome":"-10","keys":[],"total_keys":0,"block":1,"trial":117,"stimulus":8,"robot":4,"valence":"lose","action":"no-go","sham":1,"trial_type":"pit-trial","trial_index":147,"time_elapsed":851434,"internal_node_id":"0.0-122.0","task_version":"battery-v0.2-trt","session":3},{"rune":"C","rune_set":"bacs1","hex":"#3366ff99","correct":32,"choice":32,"rt":713.980000000447,"accuracy":1,"outcome":"+10","keys":[2214.164999997476],"total_keys":1,"block":1,"trial":118,"stimulus":9,"robot":1,"valence":"win","action":"go","sham":0,"trial_type":"pit-trial","trial_index":148,"time_elapsed":854877,"internal_node_id":"0.0-123.0","task_version":"battery-v0.2-trt","session":3},{"rune":"Q","rune_set":"bacs1","hex":"#3366ff99","correct":32,"choice":32,"rt":576.2649999959394,"accuracy":1,"outcome":"+10","keys":[2076.600000000326],"total_keys":1,"block":1,"trial":119,"stimulus":11,"robot":1,"valence":"win","action":"go","sham":0,"trial_type":"pit-trial","trial_index":149,"time_elapsed":858171,"internal_node_id":"0.0-124.0","task_version":"battery-v0.2-trt","session":3},{"rune":"L","rune_set":"bacs1","hex":"#f73b6a7A","correct":32,"choice":32,"rt":611.1699999965494,"accuracy":1,"outcome":"-1","keys":[2118.4500000016997],"total_keys":1,"block":1,"trial":120,"stimulus":10,"robot":3,"valence":"lose","action":"go","sham":0,"trial_type":"pit-trial","trial_index":150,"time_elapsed":861506,"internal_node_id":"0.0-125.0","task_version":"battery-v0.2-trt","session":3},{"view_history":"[{\"page_index\":0,\"viewing_time\":29129.775000001187},{\"page_index\":1,\"viewing_time\":114999.98000000056}]","rt":144134.36999999976,"trial_type":"pit-instructions","trial_index":151,"time_elapsed":1005664,"internal_node_id":"0.0-126.0","task_version":"battery-v0.2-trt","session":3},{"rune":"O","rune_set":"bacs1","hex":"#3366ff99","correct":32,"choice":32,"rt":813.8449999969453,"accuracy":1,"outcome":"+10","keys":[2314.06499999878],"total_keys":1,"block":2,"trial":121,"stimulus":3,"robot":1,"valence":"win","action":"go","sham":0,"trial_type":"pit-trial","trial_index":152,"time_elapsed":1009249,"internal_node_id":"0.0-127.0","task_version":"battery-v0.2-trt","session":3},{"rune":"N","rune_set":"bacs1","hex":"#3366ff99","correct":-1,"choice":-1,"rt":-1,"accuracy":1,"outcome":"+10","keys":[],"total_keys":0,"block":2,"trial":122,"stimulus":0,"robot":2,"valence":"win","action":"no-go","sham":0,"trial_type":"pit-trial","trial_index":153,"time_elapsed":1013289,"internal_node_id":"0.0-128.0","task_version":"battery-v0.2-trt","session":3},{"rune":"G","rune_set":"bacs1","hex":"#f73b6a7A","correct":32,"choice":-1,"rt":-1,"accuracy":0,"outcome":"-1","keys":[],"total_keys":0,"block":2,"trial":123,"stimulus":1,"robot":3,"valence":"lose","action":"go","sham":1,"trial_type":"pit-trial","trial_index":154,"time_elapsed":1017323,"internal_node_id":"0.0-129.0","task_version":"battery-v0.2-trt","session":3},{"rune":"I","rune_set":"bacs1","hex":"#f73b6a7A","correct":-1,"choice":32,"rt":925.0949999988079,"accuracy":0,"outcome":"-10","keys":[2428.555000005872],"total_keys":1,"block":2,"trial":124,"stimulus":2,"robot":4,"valence":"lose","action":"no-go","sham":0,"trial_type":"pit-trial","trial_index":155,"time_elapsed":1021006,"internal_node_id":"0.0-130.0","task_version":"battery-v0.2-trt","session":3},{"rune":"G","rune_set":"bacs1","hex":"#f73b6a7A","correct":32,"choice":-1,"rt":-1,"accuracy":0,"outcome":"-10","keys":[],"total_keys":0,"block":2,"trial":125,"stimulus":1,"robot":3,"valence":"lose","action":"go","sham":0,"trial_type":"pit-trial","trial_index":156,"time_elapsed":1025044,"internal_node_id":"0.0-131.0","task_version":"battery-v0.2-trt","session":3},{"rune":"I","rune_set":"bacs1","hex":"#f73b6a7A","correct":-1,"choice":-1,"rt":-1,"accuracy":1,"outcome":"-1","keys":[],"total_keys":0,"block":2,"trial":126,"stimulus":2,"robot":4,"valence":"lose","action":"no-go","sham":0,"trial_type":"pit-trial","trial_index":157,"time_elapsed":1029097,"internal_node_id":"0.0-132.0","task_version":"battery-v0.2-trt","session":3},{"rune":"O","rune_set":"bacs1","hex":"#3366ff99","correct":32,"choice":32,"rt":866.7199999981094,"accuracy":1,"outcome":"+10","keys":[2366.860000001965],"total_keys":1,"block":2,"trial":127,"stimulus":3,"robot":1,"valence":"win","action":"go","sham":0,"trial_type":"pit-trial","trial_index":158,"time_elapsed":1032711,"internal_node_id":"0.0-133.0","task_version":"battery-v0.2-trt","session":3},{"rune":"N","rune_set":"bacs1","hex":"#3366ff99","correct":-1,"choice":-1,"rt":-1,"accuracy":1,"outcome":"+10","keys":[],"total_keys":0,"block":2,"trial":128,"stimulus":0,"robot":2,"valence":"win","action":"no-go","sham":0,"trial_type":"pit-trial","trial_index":159,"time_elapsed":1036761,"internal_node_id":"0.0-134.0","task_version":"battery-v0.2-trt","session":3},{"rune":"I","rune_set":"bacs1","hex":"#f73b6a7A","correct":-1,"choice":-1,"rt":-1,"accuracy":1,"outcome":"-1","keys":[],"total_keys":0,"block":2,"trial":129,"stimulus":2,"robot":4,"valence":"lose","action":"no-go","sham":0,"trial_type":"pit-trial","trial_index":160,"time_elapsed":1040795,"internal_node_id":"0.0-135.0","task_version":"battery-v0.2-trt","session":3},{"rune":"G","rune_set":"bacs1","hex":"#f73b6a7A","correct":32,"choice":32,"rt":778.3500000004424,"accuracy":1,"outcome":"-1","keys":[2281.654999998864],"total_keys":1,"block":2,"trial":130,"stimulus":1,"robot":3,"valence":"lose","action":"go","sham":0,"trial_type":"pit-trial","trial_index":161,"time_elapsed":1044307,"internal_node_id":"0.0-136.0","task_version":"battery-v0.2-trt","session":3},{"rune":"O","rune_set":"bacs1","hex":"#3366ff99","correct":32,"choice":32,"rt":632.9299999999348,"accuracy":1,"outcome":"+10","keys":[2133.2650000040885],"total_keys":1,"block":2,"trial":131,"stimulus":3,"robot":1,"valence":"win","action":"go","sham":0,"trial_type":"pit-trial","trial_index":162,"time_elapsed":1047658,"internal_node_id":"0.0-137.0","task_version":"battery-v0.2-trt","session":3},{"rune":"N","rune_set":"bacs1","hex":"#3366ff99","correct":-1,"choice":-1,"rt":-1,"accuracy":1,"outcome":"+1","keys":[],"total_keys":0,"block":2,"trial":132,"stimulus":0,"robot":2,"valence":"win","action":"no-go","sham":1,"trial_type":"pit-trial","trial_index":163,"time_elapsed":1051717,"internal_node_id":"0.0-138.0","task_version":"battery-v0.2-trt","session":3},{"rune":"O","rune_set":"bacs1","hex":"#3366ff99","correct":32,"choice":32,"rt":586.8049999987707,"accuracy":1,"outcome":"+10","keys":[2086.9300000048243],"total_keys":1,"block":2,"trial":133,"stimulus":3,"robot":1,"valence":"win","action":"go","sham":0,"trial_type":"pit-trial","trial_index":164,"time_elapsed":1055023,"internal_node_id":"0.0-139.0","task_version":"battery-v0.2-trt","session":3},{"rune":"G","rune_set":"bacs1","hex":"#f73b6a7A","correct":32,"choice":-1,"rt":-1,"accuracy":0,"outcome":"-10","keys":[],"total_keys":0,"block":2,"trial":134,"stimulus":1,"robot":3,"valence":"lose","action":"go","sham":0,"trial_type":"pit-trial","trial_index":165,"time_elapsed":1059042,"internal_node_id":"0.0-140.0","task_version":"battery-v0.2-trt","session":3},{"rune":"N","rune_set":"bacs1","hex":"#3366ff99","correct":-1,"choice":-1,"rt":-1,"accuracy":1,"outcome":"+10","keys":[],"total_keys":0,"block":2,"trial":135,"stimulus":0,"robot":2,"valence":"win","action":"no-go","sham":0,"trial_type":"pit-trial","trial_index":166,"time_elapsed":1063065,"internal_node_id":"0.0-141.0","task_version":"battery-v0.2-trt","session":3},{"rune":"I","rune_set":"bacs1","hex":"#f73b6a7A","correct":-1,"choice":32,"rt":1037.365000003716,"accuracy":0,"outcome":"-10","keys":[2537.294999994803],"total_keys":1,"block":2,"trial":136,"stimulus":2,"robot":4,"valence":"lose","action":"no-go","sham":0,"trial_type":"pit-trial","trial_index":167,"time_elapsed":1066820,"internal_node_id":"0.0-142.0","task_version":"battery-v0.2-trt","session":3},{"rune":"G","rune_set":"bacs1","hex":"#f73b6a7A","correct":32,"choice":32,"rt":513.3700000005774,"accuracy":1,"outcome":"-10","keys":[2017.3649999997579],"total_keys":1,"block":2,"trial":137,"stimulus":1,"robot":3,"valence":"lose","action":"go","sham":1,"trial_type":"pit-trial","trial_index":168,"time_elapsed":1070076,"internal_node_id":"0.0-143.0","task_version":"battery-v0.2-trt","session":3},{"rune":"O","rune_set":"bacs1","hex":"#3366ff99","correct":32,"choice":32,"rt":595.8800000008196,"accuracy":1,"outcome":"+1","keys":[2098.150000005029],"total_keys":1,"block":2,"trial":138,"stimulus":3,"robot":1,"valence":"win","action":"go","sham":1,"trial_type":"pit-trial","trial_index":169,"time_elapsed":1073403,"internal_node_id":"0.0-144.0","task_version":"battery-v0.2-trt","session":3},{"rune":"I","rune_set":"bacs1","hex":"#f73b6a7A","correct":-1,"choice":32,"rt":1106.8450000020675,"accuracy":0,"outcome":"-10","keys":[2622.9849999942817],"total_keys":1,"block":2,"trial":139,"stimulus":2,"robot":4,"valence":"lose","action":"no-go","sham":0,"trial_type":"pit-trial","trial_index":170,"time_elapsed":1077245,"internal_node_id":"0.0-145.0","task_version":"battery-v0.2-trt","session":3},{"rune":"N","rune_set":"bacs1","hex":"#3366ff99","correct":-1,"choice":-1,"rt":-1,"accuracy":1,"outcome":"+10","keys":[],"total_keys":0,"block":2,"trial":140,"stimulus":0,"robot":2,"valence":"win","action":"no-go","sham":0,"trial_type":"pit-trial","trial_index":171,"time_elapsed":1081261,"internal_node_id":"0.0-146.0","task_version":"battery-v0.2-trt","session":3},{"rune":"G","rune_set":"bacs1","hex":"#f73b6a7A","correct":32,"choice":32,"rt":763.5250000022352,"accuracy":1,"outcome":"-1","keys":[2264.870000006398],"total_keys":1,"block":2,"trial":141,"stimulus":1,"robot":3,"valence":"lose","action":"go","sham":0,"trial_type":"pit-trial","trial_index":172,"time_elapsed":1084752,"internal_node_id":"0.0-147.0","task_version":"battery-v0.2-trt","session":3},{"rune":"O","rune_set":"bacs1","hex":"#3366ff99","correct":32,"choice":32,"rt":574.6250000011642,"accuracy":1,"outcome":"+10","keys":[2075.199999999255],"total_keys":1,"block":2,"trial":142,"stimulus":3,"robot":1,"valence":"win","action":"go","sham":0,"trial_type":"pit-trial","trial_index":173,"time_elapsed":1088045,"internal_node_id":"0.0-148.0","task_version":"battery-v0.2-trt","session":3},{"rune":"N","rune_set":"bacs1","hex":"#3366ff99","correct":-1,"choice":-1,"rt":-1,"accuracy":1,"outcome":"+10","keys":[],"total_keys":0,"block":2,"trial":143,"stimulus":0,"robot":2,"valence":"win","action":"no-go","sham":0,"trial_type":"pit-trial","trial_index":174,"time_elapsed":1092073,"internal_node_id":"0.0-149.0","task_version":"battery-v0.2-trt","session":3},{"rune":"I","rune_set":"bacs1","hex":"#f73b6a7A","correct":-1,"choice":-1,"rt":-1,"accuracy":1,"outcome":"-1","keys":[],"total_keys":0,"block":2,"trial":144,"stimulus":2,"robot":4,"valence":"lose","action":"no-go","sham":0,"trial_type":"pit-trial","trial_index":175,"time_elapsed":1096097,"internal_node_id":"0.0-150.0","task_version":"battery-v0.2-trt","session":3},{"rune":"N","rune_set":"bacs1","hex":"#3366ff99","correct":-1,"choice":-1,"rt":-1,"accuracy":1,"outcome":"+10","keys":[],"total_keys":0,"block":2,"trial":145,"stimulus":0,"robot":2,"valence":"win","action":"no-go","sham":0,"trial_type":"pit-trial","trial_index":176,"time_elapsed":1100120,"internal_node_id":"0.0-151.0","task_version":"battery-v0.2-trt","session":3},{"rune":"G","rune_set":"bacs1","hex":"#f73b6a7A","correct":32,"choice":32,"rt":866.6049999955576,"accuracy":1,"outcome":"-1","keys":[2369.4649999961257],"total_keys":1,"block":2,"trial":146,"stimulus":1,"robot":3,"valence":"lose","action":"go","sham":0,"trial_type":"pit-trial","trial_index":177,"time_elapsed":1103706,"internal_node_id":"0.0-152.0","task_version":"battery-v0.2-trt","session":3},{"rune":"I","rune_set":"bacs1","hex":"#f73b6a7A","correct":-1,"choice":-1,"rt":-1,"accuracy":1,"outcome":"-1","keys":[],"total_keys":0,"block":2,"trial":147,"stimulus":2,"robot":4,"valence":"lose","action":"no-go","sham":0,"trial_type":"pit-trial","trial_index":178,"time_elapsed":1107787,"internal_node_id":"0.0-153.0","task_version":"battery-v0.2-trt","session":3},{"rune":"O","rune_set":"bacs1","hex":"#3366ff99","correct":32,"choice":32,"rt":500.7949999999255,"accuracy":1,"outcome":"+10","keys":[2003.6150000013877],"total_keys":1,"block":2,"trial":148,"stimulus":3,"robot":1,"valence":"win","action":"go","sham":0,"trial_type":"pit-trial","trial_index":179,"time_elapsed":1111014,"internal_node_id":"0.0-154.0","task_version":"battery-v0.2-trt","session":3},{"rune":"O","rune_set":"bacs1","hex":"#3366ff99","correct":32,"choice":32,"rt":598.2149999982212,"accuracy":1,"outcome":"+10","keys":[2099.4599999976344],"total_keys":1,"block":2,"trial":149,"stimulus":3,"robot":1,"valence":"win","action":"go","sham":0,"trial_type":"pit-trial","trial_index":180,"time_elapsed":1114331,"internal_node_id":"0.0-155.0","task_version":"battery-v0.2-trt","session":3},{"rune":"I","rune_set":"bacs1","hex":"#f73b6a7A","correct":-1,"choice":-1,"rt":-1,"accuracy":1,"outcome":"-1","keys":[],"total_keys":0,"block":2,"trial":150,"stimulus":2,"robot":4,"valence":"lose","action":"no-go","sham":0,"trial_type":"pit-trial","trial_index":181,"time_elapsed":1118346,"internal_node_id":"0.0-156.0","task_version":"battery-v0.2-trt","session":3},{"rune":"N","rune_set":"bacs1","hex":"#3366ff99","correct":-1,"choice":-1,"rt":-1,"accuracy":1,"outcome":"+10","keys":[],"total_keys":0,"block":2,"trial":151,"stimulus":0,"robot":2,"valence":"win","action":"no-go","sham":0,"trial_type":"pit-trial","trial_index":182,"time_elapsed":1122380,"internal_node_id":"0.0-157.0","task_version":"battery-v0.2-trt","session":3},{"rune":"G","rune_set":"bacs1","hex":"#f73b6a7A","correct":32,"choice":32,"rt":728.6000000019558,"accuracy":1,"outcome":"-1","keys":[2227.885000000242],"total_keys":1,"block":2,"trial":152,"stimulus":1,"robot":3,"valence":"lose","action":"go","sham":0,"trial_type":"pit-trial","trial_index":183,"time_elapsed":1125829,"internal_node_id":"0.0-158.0","task_version":"battery-v0.2-trt","session":3},{"rune":"D","rune_set":"bacs1","hex":"#f73b6a7A","correct":32,"choice":-1,"rt":-1,"accuracy":0,"outcome":"-10","keys":[],"total_keys":0,"block":2,"trial":153,"stimulus":4,"robot":3,"valence":"lose","action":"go","sham":0,"trial_type":"pit-trial","trial_index":184,"time_elapsed":1129889,"internal_node_id":"0.0-159.0","task_version":"battery-v0.2-trt","session":3},{"rune":"K","rune_set":"bacs1","hex":"#f73b6a7A","correct":-1,"choice":32,"rt":711.9600000004284,"accuracy":0,"outcome":"-10","keys":[2212.075000003213],"total_keys":1,"block":2,"trial":154,"stimulus":5,"robot":4,"valence":"lose","action":"no-go","sham":0,"trial_type":"pit-trial","trial_index":185,"time_elapsed":1133406,"internal_node_id":"0.0-160.0","task_version":"battery-v0.2-trt","session":3},{"rune":"G","rune_set":"bacs1","hex":"#f73b6a7A","correct":32,"choice":32,"rt":793.3750000011642,"accuracy":1,"outcome":"-10","keys":[2293.649999999441],"total_keys":1,"block":2,"trial":155,"stimulus":1,"robot":3,"valence":"lose","action":"go","sham":1,"trial_type":"pit-trial","trial_index":186,"time_elapsed":1136948,"internal_node_id":"0.0-161.0","task_version":"battery-v0.2-trt","session":3},{"rune":"I","rune_set":"bacs1","hex":"#f73b6a7A","correct":-1,"choice":-1,"rt":-1,"accuracy":1,"outcome":"-1","keys":[],"total_keys":0,"block":2,"trial":156,"stimulus":2,"robot":4,"valence":"lose","action":"no-go","sham":0,"trial_type":"pit-trial","trial_index":187,"time_elapsed":1140990,"internal_node_id":"0.0-162.0","task_version":"battery-v0.2-trt","session":3},{"rune":"D","rune_set":"bacs1","hex":"#f73b6a7A","correct":32,"choice":-1,"rt":-1,"accuracy":0,"outcome":"-10","keys":[3679.400000000838],"total_keys":1,"block":2,"trial":157,"stimulus":4,"robot":3,"valence":"lose","action":"go","sham":0,"trial_type":"pit-trial","trial_index":188,"time_elapsed":1145019,"internal_node_id":"0.0-163.0","task_version":"battery-v0.2-trt","session":3},{"rune":"G","rune_set":"bacs1","hex":"#f73b6a7A","correct":32,"choice":32,"rt":676.8650000011548,"accuracy":1,"outcome":"-1","keys":[2176.9600000043865],"total_keys":1,"block":2,"trial":158,"stimulus":1,"robot":3,"valence":"lose","action":"go","sham":0,"trial_type":"pit-trial","trial_index":189,"time_elapsed":1148493,"internal_node_id":"0.0-164.0","task_version":"battery-v0.2-trt","session":3},{"rune":"I","rune_set":"bacs1","hex":"#f73b6a7A","correct":-1,"choice":-1,"rt":-1,"accuracy":1,"outcome":"-10","keys":[],"total_keys":0,"block":2,"trial":159,"stimulus":2,"robot":4,"valence":"lose","action":"no-go","sham":1,"trial_type":"pit-trial","trial_index":190,"time_elapsed":1152513,"internal_node_id":"0.0-165.0","task_version":"battery-v0.2-trt","session":3},{"rune":"K","rune_set":"bacs1","hex":"#f73b6a7A","correct":-1,"choice":32,"rt":912.3699999980163,"accuracy":0,"outcome":"-10","keys":[2414.5300000018906],"total_keys":1,"block":2,"trial":160,"stimulus":5,"robot":4,"valence":"lose","action":"no-go","sham":0,"trial_type":"pit-trial","trial_index":191,"time_elapsed":1156163,"internal_node_id":"0.0-166.0","task_version":"battery-v0.2-trt","session":3},{"rune":"I","rune_set":"bacs1","hex":"#f73b6a7A","correct":-1,"choice":-1,"rt":-1,"accuracy":1,"outcome":"-1","keys":[],"total_keys":0,"block":2,"trial":161,"stimulus":2,"robot":4,"valence":"lose","action":"no-go","sham":0,"trial_type":"pit-trial","trial_index":192,"time_elapsed":1160190,"internal_node_id":"0.0-167.0","task_version":"battery-v0.2-trt","session":3},{"rune":"S","rune_set":"bacs1","hex":"#3366ff99","correct":-1,"choice":32,"rt":959.215000002645,"accuracy":0,"outcome":"+1","keys":[2463.765000000596],"total_keys":1,"block":2,"trial":162,"stimulus":6,"robot":2,"valence":"win","action":"no-go","sham":0,"trial_type":"pit-trial","trial_index":193,"time_elapsed":1163891,"internal_node_id":"0.0-168.0","task_version":"battery-v0.2-trt","session":3},{"rune":"D","rune_set":"bacs1","hex":"#f73b6a7A","correct":32,"choice":32,"rt":1051.4049999983981,"accuracy":1,"outcome":"-1","keys":[2551.544999994803],"total_keys":1,"block":2,"trial":163,"stimulus":4,"robot":3,"valence":"lose","action":"go","sham":0,"trial_type":"pit-trial","trial_index":194,"time_elapsed":1167669,"internal_node_id":"0.0-169.0","task_version":"battery-v0.2-trt","session":3},{"rune":"K","rune_set":"bacs1","hex":"#f73b6a7A","correct":-1,"choice":-1,"rt":-1,"accuracy":1,"outcome":"-1","keys":[],"total_keys":0,"block":2,"trial":164,"stimulus":5,"robot":4,"valence":"lose","action":"no-go","sham":0,"trial_type":"pit-trial","trial_index":195,"time_elapsed":1171685,"internal_node_id":"0.0-170.0","task_version":"battery-v0.2-trt","session":3},{"rune":"I","rune_set":"bacs1","hex":"#f73b6a7A","correct":-1,"choice":-1,"rt":-1,"accuracy":1,"outcome":"-1","keys":[],"total_keys":0,"block":2,"trial":165,"stimulus":2,"robot":4,"valence":"lose","action":"no-go","sham":0,"trial_type":"pit-trial","trial_index":196,"time_elapsed":1175747,"internal_node_id":"0.0-171.0","task_version":"battery-v0.2-trt","session":3},{"rune":"D","rune_set":"bacs1","hex":"#f73b6a7A","correct":32,"choice":32,"rt":999.6650000028312,"accuracy":1,"outcome":"-1","keys":[2499.8449999983422],"total_keys":1,"block":2,"trial":166,"stimulus":4,"robot":3,"valence":"lose","action":"go","sham":0,"trial_type":"pit-trial","trial_index":197,"time_elapsed":1179469,"internal_node_id":"0.0-172.0","task_version":"battery-v0.2-trt","session":3},{"rune":"S","rune_set":"bacs1","hex":"#3366ff99","correct":-1,"choice":32,"rt":1012.569999998901,"accuracy":0,"outcome":"+1","keys":[2517.345000000205],"total_keys":1,"block":2,"trial":167,"stimulus":6,"robot":2,"valence":"win","action":"no-go","sham":0,"trial_type":"pit-trial","trial_index":198,"time_elapsed":1183211,"internal_node_id":"0.0-173.0","task_version":"battery-v0.2-trt","session":3},{"rune":"K","rune_set":"bacs1","hex":"#f73b6a7A","correct":-1,"choice":-1,"rt":-1,"accuracy":1,"outcome":"-1","keys":[],"total_keys":0,"block":2,"trial":168,"stimulus":5,"robot":4,"valence":"lose","action":"no-go","sham":0,"trial_type":"pit-trial","trial_index":199,"time_elapsed":1187236,"internal_node_id":"0.0-174.0","task_version":"battery-v0.2-trt","session":3},{"rune":"K","rune_set":"bacs1","hex":"#f73b6a7A","correct":-1,"choice":-1,"rt":-1,"accuracy":1,"outcome":"-1","keys":[],"total_keys":0,"block":2,"trial":169,"stimulus":5,"robot":4,"valence":"lose","action":"no-go","sham":0,"trial_type":"pit-trial","trial_index":200,"time_elapsed":1191250,"internal_node_id":"0.0-175.0","task_version":"battery-v0.2-trt","session":3},{"rune":"S","rune_set":"bacs1","hex":"#3366ff99","correct":-1,"choice":-1,"rt":-1,"accuracy":1,"outcome":"+10","keys":[2807.47500000149],"total_keys":1,"block":2,"trial":170,"stimulus":6,"robot":2,"valence":"win","action":"no-go","sham":0,"trial_type":"pit-trial","trial_index":201,"time_elapsed":1195276,"internal_node_id":"0.0-176.0","task_version":"battery-v0.2-trt","session":3},{"rune":"D","rune_set":"bacs1","hex":"#f73b6a7A","correct":32,"choice":32,"rt":1045.6850000047125,"accuracy":1,"outcome":"-10","keys":[2549.3400000049733],"total_keys":1,"block":2,"trial":171,"stimulus":4,"robot":3,"valence":"lose","action":"go","sham":1,"trial_type":"pit-trial","trial_index":202,"time_elapsed":1199042,"internal_node_id":"0.0-177.0","task_version":"battery-v0.2-trt","session":3},{"rune":"U","rune_set":"bacs1","hex":"#3366ff99","correct":32,"choice":32,"rt":773.4950000012759,"accuracy":1,"outcome":"+10","keys":[2273.594999998575],"total_keys":1,"block":2,"trial":172,"stimulus":7,"robot":1,"valence":"win","action":"go","sham":0,"trial_type":"pit-trial","trial_index":203,"time_elapsed":1202548,"internal_node_id":"0.0-178.0","task_version":"battery-v0.2-trt","session":3},{"rune":"D","rune_set":"bacs1","hex":"#f73b6a7A","correct":32,"choice":32,"rt":914.1149999997579,"accuracy":1,"outcome":"-1","keys":[2414.7300000039395],"total_keys":1,"block":2,"trial":173,"stimulus":4,"robot":3,"valence":"lose","action":"go","sham":0,"trial_type":"pit-trial","trial_index":204,"time_elapsed":1206205,"internal_node_id":"0.0-179.0","task_version":"battery-v0.2-trt","session":3},{"rune":"S","rune_set":"bacs1","hex":"#3366ff99","correct":-1,"choice":32,"rt":791.0049999991897,"accuracy":0,"outcome":"+1","keys":[2291.100000001956],"total_keys":1,"block":2,"trial":174,"stimulus":6,"robot":2,"valence":"win","action":"no-go","sham":0,"trial_type":"pit-trial","trial_index":205,"time_elapsed":1209713,"internal_node_id":"0.0-180.0","task_version":"battery-v0.2-trt","session":3},{"rune":"K","rune_set":"bacs1","hex":"#f73b6a7A","correct":-1,"choice":-1,"rt":-1,"accuracy":1,"outcome":"-1","keys":[],"total_keys":0,"block":2,"trial":175,"stimulus":5,"robot":4,"valence":"lose","action":"no-go","sham":0,"trial_type":"pit-trial","trial_index":206,"time_elapsed":1213736,"internal_node_id":"0.0-181.0","task_version":"battery-v0.2-trt","session":3},{"rune":"U","rune_set":"bacs1","hex":"#3366ff99","correct":32,"choice":32,"rt":1138.2400000002235,"accuracy":1,"outcome":"+1","keys":[2643.1099999973085],"total_keys":1,"block":2,"trial":176,"stimulus":7,"robot":1,"valence":"win","action":"go","sham":1,"trial_type":"pit-trial","trial_index":207,"time_elapsed":1217613,"internal_node_id":"0.0-182.0","task_version":"battery-v0.2-trt","session":3},{"rune":"D","rune_set":"bacs1","hex":"#f73b6a7A","correct":32,"choice":32,"rt":1065.4649999996182,"accuracy":1,"outcome":"-1","keys":[2565.58000000217],"total_keys":1,"block":2,"trial":177,"stimulus":4,"robot":3,"valence":"lose","action":"go","sham":0,"trial_type":"pit-trial","trial_index":208,"time_elapsed":1221394,"internal_node_id":"0.0-183.0","task_version":"battery-v0.2-trt","session":3},{"rune":"U","rune_set":"bacs1","hex":"#3366ff99","correct":32,"choice":-1,"rt":-1,"accuracy":0,"outcome":"+1","keys":[],"total_keys":0,"block":2,"trial":178,"stimulus":7,"robot":1,"valence":"win","action":"go","sham":0,"trial_type":"pit-trial","trial_index":209,"time_elapsed":1225410,"internal_node_id":"0.0-184.0","task_version":"battery-v0.2-trt","session":3},{"rune":"S","rune_set":"bacs1","hex":"#3366ff99","correct":-1,"choice":32,"rt":1125.4100000006147,"accuracy":0,"outcome":"+1","keys":[2630.2800000049174],"total_keys":1,"block":2,"trial":179,"stimulus":6,"robot":2,"valence":"win","action":"no-go","sham":0,"trial_type":"pit-trial","trial_index":210,"time_elapsed":1229258,"internal_node_id":"0.0-185.0","task_version":"battery-v0.2-trt","session":3},{"rune":"K","rune_set":"bacs1","hex":"#f73b6a7A","correct":-1,"choice":-1,"rt":-1,"accuracy":1,"outcome":"-10","keys":[],"total_keys":0,"block":2,"trial":180,"stimulus":5,"robot":4,"valence":"lose","action":"no-go","sham":1,"trial_type":"pit-trial","trial_index":211,"time_elapsed":1233293,"internal_node_id":"0.0-186.0","task_version":"battery-v0.2-trt","session":3},{"rune":"K","rune_set":"bacs1","hex":"#f73b6a7A","correct":-1,"choice":-1,"rt":-1,"accuracy":1,"outcome":"-10","keys":[],"total_keys":0,"block":2,"trial":181,"stimulus":5,"robot":4,"valence":"lose","action":"no-go","sham":1,"trial_type":"pit-trial","trial_index":212,"time_elapsed":1237335,"internal_node_id":"0.0-187.0","task_version":"battery-v0.2-trt","session":3},{"rune":"S","rune_set":"bacs1","hex":"#3366ff99","correct":-1,"choice":32,"rt":1176.695000001695,"accuracy":0,"outcome":"+1","keys":[2684.8150000006426],"total_keys":1,"block":2,"trial":182,"stimulus":6,"robot":2,"valence":"win","action":"no-go","sham":0,"trial_type":"pit-trial","trial_index":213,"time_elapsed":1241294,"internal_node_id":"0.0-188.0","task_version":"battery-v0.2-trt","session":3},{"rune":"U","rune_set":"bacs1","hex":"#3366ff99","correct":32,"choice":32,"rt":1266.1350000053644,"accuracy":1,"outcome":"+10","keys":[2769.3749999962747],"total_keys":1,"block":2,"trial":183,"stimulus":7,"robot":1,"valence":"win","action":"go","sham":0,"trial_type":"pit-trial","trial_index":214,"time_elapsed":1245306,"internal_node_id":"0.0-189.0","task_version":"battery-v0.2-trt","session":3},{"rune":"D","rune_set":"bacs1","hex":"#f73b6a7A","correct":32,"choice":32,"rt":1189.4549999998417,"accuracy":1,"outcome":"-1","keys":[2689.9800000027753],"total_keys":1,"block":2,"trial":184,"stimulus":4,"robot":3,"valence":"lose","action":"go","sham":0,"trial_type":"pit-trial","trial_index":215,"time_elapsed":1249221,"internal_node_id":"0.0-190.0","task_version":"battery-v0.2-trt","session":3},{"rune":"D","rune_set":"bacs1","hex":"#f73b6a7A","correct":32,"choice":32,"rt":624.1999999983236,"accuracy":1,"outcome":"-1","keys":[2124.2799999963026],"total_keys":1,"block":2,"trial":185,"stimulus":4,"robot":3,"valence":"lose","action":"go","sham":0,"trial_type":"pit-trial","trial_index":216,"time_elapsed":1252565,"internal_node_id":"0.0-191.0","task_version":"battery-v0.2-trt","session":3},{"rune":"U","rune_set":"bacs1","hex":"#3366ff99","correct":32,"choice":32,"rt":772.3950000000186,"accuracy":1,"outcome":"+10","keys":[2272.484999994049],"total_keys":1,"block":2,"trial":186,"stimulus":7,"robot":1,"valence":"win","action":"go","sham":0,"trial_type":"pit-trial","trial_index":217,"time_elapsed":1256059,"internal_node_id":"0.0-192.0","task_version":"battery-v0.2-trt","session":3},{"rune":"K","rune_set":"bacs1","hex":"#f73b6a7A","correct":-1,"choice":-1,"rt":-1,"accuracy":1,"outcome":"-1","keys":[],"total_keys":0,"block":2,"trial":187,"stimulus":5,"robot":4,"valence":"lose","action":"no-go","sham":0,"trial_type":"pit-trial","trial_index":218,"time_elapsed":1260076,"internal_node_id":"0.0-193.0","task_version":"battery-v0.2-trt","session":3},{"rune":"S","rune_set":"bacs1","hex":"#3366ff99","correct":-1,"choice":32,"rt":974.6599999999162,"accuracy":0,"outcome":"+10","keys":[2473.460000001127],"total_keys":1,"block":2,"trial":188,"stimulus":6,"robot":2,"valence":"win","action":"no-go","sham":1,"trial_type":"pit-trial","trial_index":219,"time_elapsed":1263786,"internal_node_id":"0.0-194.0","task_version":"battery-v0.2-trt","session":3},{"rune":"D","rune_set":"bacs1","hex":"#f73b6a7A","correct":32,"choice":32,"rt":740.8199999991339,"accuracy":1,"outcome":"-1","keys":[2243.974999997532],"total_keys":1,"block":2,"trial":189,"stimulus":4,"robot":3,"valence":"lose","action":"go","sham":0,"trial_type":"pit-trial","trial_index":220,"time_elapsed":1267266,"internal_node_id":"0.0-195.0","task_version":"battery-v0.2-trt","session":3},{"rune":"U","rune_set":"bacs1","hex":"#3366ff99","correct":32,"choice":32,"rt":965.570000000298,"accuracy":1,"outcome":"+10","keys":[2465.690000004368],"total_keys":1,"block":2,"trial":190,"stimulus":7,"robot":1,"valence":"win","action":"go","sham":0,"trial_type":"pit-trial","trial_index":221,"time_elapsed":1270955,"internal_node_id":"0.0-196.0","task_version":"battery-v0.2-trt","session":3},{"rune":"S","rune_set":"bacs1","hex":"#3366ff99","correct":-1,"choice":-1,"rt":-1,"accuracy":1,"outcome":"+1","keys":[],"total_keys":0,"block":2,"trial":191,"stimulus":6,"robot":2,"valence":"win","action":"no-go","sham":1,"trial_type":"pit-trial","trial_index":222,"time_elapsed":1275025,"internal_node_id":"0.0-197.0","task_version":"battery-v0.2-trt","session":3},{"rune":"K","rune_set":"bacs1","hex":"#f73b6a7A","correct":-1,"choice":-1,"rt":-1,"accuracy":1,"outcome":"-1","keys":[],"total_keys":0,"block":2,"trial":192,"stimulus":5,"robot":4,"valence":"lose","action":"no-go","sham":0,"trial_type":"pit-trial","trial_index":223,"time_elapsed":1279072,"internal_node_id":"0.0-198.0","task_version":"battery-v0.2-trt","session":3},{"rune":"D","rune_set":"bacs1","hex":"#f73b6a7A","correct":32,"choice":32,"rt":672.2550000050105,"accuracy":1,"outcome":"-10","keys":[2174.7149999935646],"total_keys":1,"block":2,"trial":193,"stimulus":4,"robot":3,"valence":"lose","action":"go","sham":1,"trial_type":"pit-trial","trial_index":224,"time_elapsed":1282531,"internal_node_id":"0.0-199.0","task_version":"battery-v0.2-trt","session":3},{"rune":"U","rune_set":"bacs1","hex":"#3366ff99","correct":32,"choice":32,"rt":741.4550000031013,"accuracy":1,"outcome":"+10","keys":[2240.98499999661],"total_keys":1,"block":2,"trial":194,"stimulus":7,"robot":1,"valence":"win","action":"go","sham":0,"trial_type":"pit-trial","trial_index":225,"time_elapsed":1285988,"internal_node_id":"0.0-200.0","task_version":"battery-v0.2-trt","session":3},{"rune":"M","rune_set":"bacs1","hex":"#3366ff99","correct":32,"choice":32,"rt":750.5449999955017,"accuracy":1,"outcome":"+10","keys":[2254.0450000015553],"total_keys":1,"block":2,"trial":195,"stimulus":8,"robot":1,"valence":"win","action":"go","sham":0,"trial_type":"pit-trial","trial_index":226,"time_elapsed":1289460,"internal_node_id":"0.0-201.0","task_version":"battery-v0.2-trt","session":3},{"rune":"S","rune_set":"bacs1","hex":"#3366ff99","correct":-1,"choice":-1,"rt":-1,"accuracy":1,"outcome":"+10","keys":[],"total_keys":0,"block":2,"trial":196,"stimulus":6,"robot":2,"valence":"win","action":"no-go","sham":0,"trial_type":"pit-trial","trial_index":227,"time_elapsed":1293481,"internal_node_id":"0.0-202.0","task_version":"battery-v0.2-trt","session":3},{"rune":"M","rune_set":"bacs1","hex":"#3366ff99","correct":32,"choice":32,"rt":1005.7999999988824,"accuracy":1,"outcome":"+10","keys":[2505.810000002384],"total_keys":1,"block":2,"trial":197,"stimulus":8,"robot":1,"valence":"win","action":"go","sham":0,"trial_type":"pit-trial","trial_index":228,"time_elapsed":1297224,"internal_node_id":"0.0-203.0","task_version":"battery-v0.2-trt","session":3},{"rune":"D","rune_set":"bacs1","hex":"#f73b6a7A","correct":32,"choice":32,"rt":778.2749999968801,"accuracy":1,"outcome":"-1","keys":[2279.85500000068],"total_keys":1,"block":2,"trial":198,"stimulus":4,"robot":3,"valence":"lose","action":"go","sham":0,"trial_type":"pit-trial","trial_index":229,"time_elapsed":1300723,"internal_node_id":"0.0-204.0","task_version":"battery-v0.2-trt","session":3},{"rune":"U","rune_set":"bacs1","hex":"#3366ff99","correct":32,"choice":32,"rt":838.4050000021234,"accuracy":1,"outcome":"+10","keys":[2338.53500000271],"total_keys":1,"block":2,"trial":199,"stimulus":7,"robot":1,"valence":"win","action":"go","sham":0,"trial_type":"pit-trial","trial_index":230,"time_elapsed":1304282,"internal_node_id":"0.0-205.0","task_version":"battery-v0.2-trt","session":3},{"rune":"S","rune_set":"bacs1","hex":"#3366ff99","correct":-1,"choice":-1,"rt":-1,"accuracy":1,"outcome":"+10","keys":[],"total_keys":0,"block":2,"trial":200,"stimulus":6,"robot":2,"valence":"win","action":"no-go","sham":0,"trial_type":"pit-trial","trial_index":231,"time_elapsed":1308310,"internal_node_id":"0.0-206.0","task_version":"battery-v0.2-trt","session":3},{"rune":"M","rune_set":"bacs1","hex":"#3366ff99","correct":32,"choice":32,"rt":1001.8449999988079,"accuracy":1,"outcome":"+10","keys":[2505.9049999979325],"total_keys":1,"block":2,"trial":201,"stimulus":8,"robot":1,"valence":"win","action":"go","sham":0,"trial_type":"pit-trial","trial_index":232,"time_elapsed":1312069,"internal_node_id":"0.0-207.0","task_version":"battery-v0.2-trt","session":3},{"rune":"U","rune_set":"bacs1","hex":"#3366ff99","correct":32,"choice":32,"rt":747.3800000008196,"accuracy":1,"outcome":"+10","keys":[2249.445000001462],"total_keys":1,"block":2,"trial":202,"stimulus":7,"robot":1,"valence":"win","action":"go","sham":0,"trial_type":"pit-trial","trial_index":233,"time_elapsed":1315539,"internal_node_id":"0.0-208.0","task_version":"battery-v0.2-trt","session":3},{"rune":"S","rune_set":"bacs1","hex":"#3366ff99","correct":-1,"choice":-1,"rt":-1,"accuracy":1,"outcome":"+1","keys":[],"total_keys":0,"block":2,"trial":203,"stimulus":6,"robot":2,"valence":"win","action":"no-go","sham":1,"trial_type":"pit-trial","trial_index":234,"time_elapsed":1319560,"internal_node_id":"0.0-209.0","task_version":"battery-v0.2-trt","session":3},{"rune":"P","rune_set":"bacs1","hex":"#3366ff99","correct":-1,"choice":32,"rt":1033.0250000040978,"accuracy":0,"outcome":"+1","keys":[2533.060000001453],"total_keys":1,"block":2,"trial":204,"stimulus":9,"robot":2,"valence":"win","action":"no-go","sham":0,"trial_type":"pit-trial","trial_index":235,"time_elapsed":1323322,"internal_node_id":"0.0-210.0","task_version":"battery-v0.2-trt","session":3},{"rune":"S","rune_set":"bacs1","hex":"#3366ff99","correct":-1,"choice":-1,"rt":-1,"accuracy":1,"outcome":"+10","keys":[],"total_keys":0,"block":2,"trial":205,"stimulus":6,"robot":2,"valence":"win","action":"no-go","sham":0,"trial_type":"pit-trial","trial_index":236,"time_elapsed":1327360,"internal_node_id":"0.0-211.0","task_version":"battery-v0.2-trt","session":3},{"rune":"M","rune_set":"bacs1","hex":"#3366ff99","correct":32,"choice":32,"rt":683.9600000020582,"accuracy":1,"outcome":"+1","keys":[2184.05500000529],"total_keys":1,"block":2,"trial":206,"stimulus":8,"robot":1,"valence":"win","action":"go","sham":1,"trial_type":"pit-trial","trial_index":237,"time_elapsed":1330772,"internal_node_id":"0.0-212.0","task_version":"battery-v0.2-trt","session":3},{"rune":"P","rune_set":"bacs1","hex":"#3366ff99","correct":-1,"choice":-1,"rt":-1,"accuracy":1,"outcome":"+1","keys":[],"total_keys":0,"block":2,"trial":207,"stimulus":9,"robot":2,"valence":"win","action":"no-go","sham":1,"trial_type":"pit-trial","trial_index":238,"time_elapsed":1334804,"internal_node_id":"0.0-213.0","task_version":"battery-v0.2-trt","session":3},{"rune":"U","rune_set":"bacs1","hex":"#3366ff99","correct":32,"choice":32,"rt":616.5650000036694,"accuracy":1,"outcome":"+10","keys":[2122.5750000013504],"total_keys":1,"block":2,"trial":208,"stimulus":7,"robot":1,"valence":"win","action":"go","sham":0,"trial_type":"pit-trial","trial_index":239,"time_elapsed":1338150,"internal_node_id":"0.0-214.0","task_version":"battery-v0.2-trt","session":3},{"rune":"Y","rune_set":"bacs1","hex":"#f73b6a7A","correct":-1,"choice":-1,"rt":-1,"accuracy":1,"outcome":"-1","keys":[],"total_keys":0,"block":2,"trial":209,"stimulus":11,"robot":4,"valence":"lose","action":"no-go","sham":0,"trial_type":"pit-trial","trial_index":240,"time_elapsed":1342219,"internal_node_id":"0.0-215.0","task_version":"battery-v0.2-trt","session":3},{"rune":"H","rune_set":"bacs1","hex":"#f73b6a7A","correct":32,"choice":32,"rt":777.3500000038184,"accuracy":1,"outcome":"-10","keys":[2279.340000001015],"total_keys":1,"block":2,"trial":210,"stimulus":10,"robot":3,"valence":"lose","action":"go","sham":1,"trial_type":"pit-trial","trial_index":241,"time_elapsed":1345747,"internal_node_id":"0.0-216.0","task_version":"battery-v0.2-trt","session":3},{"rune":"P","rune_set":"bacs1","hex":"#3366ff99","correct":-1,"choice":32,"rt":1293.8150000046007,"accuracy":0,"outcome":"+1","keys":[2793.924999998184],"total_keys":1,"block":2,"trial":211,"stimulus":9,"robot":2,"valence":"win","action":"no-go","sham":0,"trial_type":"pit-trial","trial_index":242,"time_elapsed":1349761,"internal_node_id":"0.0-217.0","task_version":"battery-v0.2-trt","session":3},{"rune":"M","rune_set":"bacs1","hex":"#3366ff99","correct":32,"choice":32,"rt":724.2000000041444,"accuracy":1,"outcome":"+10","keys":[2224.6200000008103],"total_keys":1,"block":2,"trial":212,"stimulus":8,"robot":1,"valence":"win","action":"go","sham":0,"trial_type":"pit-trial","trial_index":243,"time_elapsed":1353228,"internal_node_id":"0.0-218.0","task_version":"battery-v0.2-trt","session":3},{"rune":"Y","rune_set":"bacs1","hex":"#f73b6a7A","correct":-1,"choice":32,"rt":970.9500000027474,"accuracy":0,"outcome":"-10","keys":[2482.589999999851],"total_keys":1,"block":2,"trial":213,"stimulus":11,"robot":4,"valence":"lose","action":"no-go","sham":0,"trial_type":"pit-trial","trial_index":244,"time_elapsed":1356941,"internal_node_id":"0.0-219.0","task_version":"battery-v0.2-trt","session":3},{"rune":"P","rune_set":"bacs1","hex":"#3366ff99","correct":-1,"choice":-1,"rt":-1,"accuracy":1,"outcome":"+10","keys":[],"total_keys":0,"block":2,"trial":214,"stimulus":9,"robot":2,"valence":"win","action":"no-go","sham":0,"trial_type":"pit-trial","trial_index":245,"time_elapsed":1360959,"internal_node_id":"0.0-220.0","task_version":"battery-v0.2-trt","session":3},{"rune":"M","rune_set":"bacs1","hex":"#3366ff99","correct":32,"choice":32,"rt":590.9249999967869,"accuracy":1,"outcome":"+10","keys":[2099.3499999968335],"total_keys":1,"block":2,"trial":215,"stimulus":8,"robot":1,"valence":"win","action":"go","sham":0,"trial_type":"pit-trial","trial_index":246,"time_elapsed":1364281,"internal_node_id":"0.0-221.0","task_version":"battery-v0.2-trt","session":3},{"rune":"H","rune_set":"bacs1","hex":"#f73b6a7A","correct":32,"choice":32,"rt":853.5600000030827,"accuracy":1,"outcome":"-1","keys":[2356.8250000027474],"total_keys":1,"block":2,"trial":216,"stimulus":10,"robot":3,"valence":"lose","action":"go","sham":0,"trial_type":"pit-trial","trial_index":247,"time_elapsed":1367932,"internal_node_id":"0.0-222.0","task_version":"battery-v0.2-trt","session":3},{"rune":"M","rune_set":"bacs1","hex":"#3366ff99","correct":32,"choice":32,"rt":672.8049999945797,"accuracy":1,"outcome":"+1","keys":[2176.3799999970943],"total_keys":1,"block":2,"trial":217,"stimulus":8,"robot":1,"valence":"win","action":"go","sham":1,"trial_type":"pit-trial","trial_index":248,"time_elapsed":1371333,"internal_node_id":"0.0-223.0","task_version":"battery-v0.2-trt","session":3},{"rune":"Y","rune_set":"bacs1","hex":"#f73b6a7A","correct":-1,"choice":-1,"rt":-1,"accuracy":1,"outcome":"-1","keys":[],"total_keys":0,"block":2,"trial":218,"stimulus":11,"robot":4,"valence":"lose","action":"no-go","sham":0,"trial_type":"pit-trial","trial_index":249,"time_elapsed":1375350,"internal_node_id":"0.0-224.0","task_version":"battery-v0.2-trt","session":3},{"rune":"H","rune_set":"bacs1","hex":"#f73b6a7A","correct":32,"choice":32,"rt":476.11499999742955,"accuracy":1,"outcome":"-1","keys":[1976.2100000006612],"total_keys":1,"block":2,"trial":219,"stimulus":10,"robot":3,"valence":"lose","action":"go","sham":0,"trial_type":"pit-trial","trial_index":250,"time_elapsed":1378548,"internal_node_id":"0.0-225.0","task_version":"battery-v0.2-trt","session":3},{"rune":"P","rune_set":"bacs1","hex":"#3366ff99","correct":-1,"choice":32,"rt":898.8000000028405,"accuracy":0,"outcome":"+1","keys":[2398.9050000016578],"total_keys":1,"block":2,"trial":220,"stimulus":9,"robot":2,"valence":"win","action":"no-go","sham":0,"trial_type":"pit-trial","trial_index":251,"time_elapsed":1382178,"internal_node_id":"0.0-226.0","task_version":"battery-v0.2-trt","session":3},{"rune":"Y","rune_set":"bacs1","hex":"#f73b6a7A","correct":-1,"choice":-1,"rt":-1,"accuracy":1,"outcome":"-1","keys":[],"total_keys":0,"block":2,"trial":221,"stimulus":11,"robot":4,"valence":"lose","action":"no-go","sham":0,"trial_type":"pit-trial","trial_index":252,"time_elapsed":1386205,"internal_node_id":"0.0-227.0","task_version":"battery-v0.2-trt","session":3},{"rune":"M","rune_set":"bacs1","hex":"#3366ff99","correct":32,"choice":32,"rt":580.5150000015274,"accuracy":1,"outcome":"+1","keys":[2084.694999997737],"total_keys":1,"block":2,"trial":222,"stimulus":8,"robot":1,"valence":"win","action":"go","sham":1,"trial_type":"pit-trial","trial_index":253,"time_elapsed":1389531,"internal_node_id":"0.0-228.0","task_version":"battery-v0.2-trt","session":3},{"rune":"H","rune_set":"bacs1","hex":"#f73b6a7A","correct":32,"choice":32,"rt":642.205000003567,"accuracy":1,"outcome":"-10","keys":[2148.444999998901],"total_keys":1,"block":2,"trial":223,"stimulus":10,"robot":3,"valence":"lose","action":"go","sham":1,"trial_type":"pit-trial","trial_index":254,"time_elapsed":1392900,"internal_node_id":"0.0-229.0","task_version":"battery-v0.2-trt","session":3},{"rune":"P","rune_set":"bacs1","hex":"#3366ff99","correct":-1,"choice":32,"rt":1061.7899999998044,"accuracy":0,"outcome":"+1","keys":[2561.9349999977276],"total_keys":1,"block":2,"trial":224,"stimulus":9,"robot":2,"valence":"win","action":"no-go","sham":0,"trial_type":"pit-trial","trial_index":255,"time_elapsed":1396682,"internal_node_id":"0.0-230.0","task_version":"battery-v0.2-trt","session":3},{"rune":"M","rune_set":"bacs1","hex":"#3366ff99","correct":32,"choice":32,"rt":588.1599999992177,"accuracy":1,"outcome":"+10","keys":[2088.3200000026263],"total_keys":1,"block":2,"trial":225,"stimulus":8,"robot":1,"valence":"win","action":"go","sham":0,"trial_type":"pit-trial","trial_index":256,"time_elapsed":1400001,"internal_node_id":"0.0-231.0","task_version":"battery-v0.2-trt","session":3},{"rune":"P","rune_set":"bacs1","hex":"#3366ff99","correct":-1,"choice":-1,"rt":-1,"accuracy":1,"outcome":"+10","keys":[],"total_keys":0,"block":2,"trial":226,"stimulus":9,"robot":2,"valence":"win","action":"no-go","sham":0,"trial_type":"pit-trial","trial_index":257,"time_elapsed":1404022,"internal_node_id":"0.0-232.0","task_version":"battery-v0.2-trt","session":3},{"rune":"H","rune_set":"bacs1","hex":"#f73b6a7A","correct":32,"choice":32,"rt":1200.5700000009965,"accuracy":1,"outcome":"-1","keys":[2700.6750000002794],"total_keys":1,"block":2,"trial":227,"stimulus":10,"robot":3,"valence":"lose","action":"go","sham":0,"trial_type":"pit-trial","trial_index":258,"time_elapsed":1407937,"internal_node_id":"0.0-233.0","task_version":"battery-v0.2-trt","session":3},{"rune":"Y","rune_set":"bacs1","hex":"#f73b6a7A","correct":-1,"choice":-1,"rt":-1,"accuracy":1,"outcome":"-1","keys":[],"total_keys":0,"block":2,"trial":228,"stimulus":11,"robot":4,"valence":"lose","action":"no-go","sham":0,"trial_type":"pit-trial","trial_index":259,"time_elapsed":1411983,"internal_node_id":"0.0-234.0","task_version":"battery-v0.2-trt","session":3},{"rune":"Y","rune_set":"bacs1","hex":"#f73b6a7A","correct":-1,"choice":-1,"rt":-1,"accuracy":1,"outcome":"-1","keys":[],"total_keys":0,"block":2,"trial":229,"stimulus":11,"robot":4,"valence":"lose","action":"no-go","sham":0,"trial_type":"pit-trial","trial_index":260,"time_elapsed":1416027,"internal_node_id":"0.0-235.0","task_version":"battery-v0.2-trt","session":3},{"rune":"H","rune_set":"bacs1","hex":"#f73b6a7A","correct":32,"choice":32,"rt":640.8650000011548,"accuracy":1,"outcome":"-1","keys":[2140.974999994738],"total_keys":1,"block":2,"trial":230,"stimulus":10,"robot":3,"valence":"lose","action":"go","sham":0,"trial_type":"pit-trial","trial_index":261,"time_elapsed":1419388,"internal_node_id":"0.0-236.0","task_version":"battery-v0.2-trt","session":3},{"rune":"P","rune_set":"bacs1","hex":"#3366ff99","correct":-1,"choice":-1,"rt":-1,"accuracy":1,"outcome":"+10","keys":[],"total_keys":0,"block":2,"trial":231,"stimulus":9,"robot":2,"valence":"win","action":"no-go","sham":0,"trial_type":"pit-trial","trial_index":262,"time_elapsed":1423424,"internal_node_id":"0.0-237.0","task_version":"battery-v0.2-trt","session":3},{"rune":"M","rune_set":"bacs1","hex":"#3366ff99","correct":32,"choice":32,"rt":596.7049999963492,"accuracy":1,"outcome":"+10","keys":[2104.999999995809],"total_keys":1,"block":2,"trial":232,"stimulus":8,"robot":1,"valence":"win","action":"go","sham":0,"trial_type":"pit-trial","trial_index":263,"time_elapsed":1426770,"internal_node_id":"0.0-238.0","task_version":"battery-v0.2-trt","session":3},{"rune":"P","rune_set":"bacs1","hex":"#3366ff99","correct":-1,"choice":-1,"rt":-1,"accuracy":1,"outcome":"+10","keys":[],"total_keys":0,"block":2,"trial":233,"stimulus":9,"robot":2,"valence":"win","action":"no-go","sham":0,"trial_type":"pit-trial","trial_index":264,"time_elapsed":1430788,"internal_node_id":"0.0-239.0","task_version":"battery-v0.2-trt","session":3},{"rune":"H","rune_set":"bacs1","hex":"#f73b6a7A","correct":32,"