[{"view_history":"[{\"page_index\":0,\"viewing_time\":1862.8399999870453}]","rt":1863.1949999835342,"trial_type":"instructions","trial_index":0,"time_elapsed":1886,"internal_node_id":"0.0-0.0","task_version":"battery-v0.2-trt","session":3},{"slider_type":"valence","raw_loc":668,"loc":0.836,"trial_type":"affective-slider","trial_index":1,"time_elapsed":5447,"internal_node_id":"0.0-1.0","task_version":"battery-v0.2-trt","session":3},{"responses":{"Q06":"1","Q04":"1","Q08":"3","Q01":"0","Q02":"0","Q05":"1","Q03":"1","Q07":"0"},"rt":23687.99500001478,"item_order":[5,3,7,0,1,4,2,6],"radio_events":[5754.710000008345,7220.715000003111,8778.350000007777,11634.525000001304,13538.339999999152,17528.725000011036,19314.88000001991,21855.240000004414],"key_events":[],"mouse_events":[5754.710000008345,7220.715000003111,8778.350000007777,11634.525000001304,13538.339999999152,14716.35500001139,17528.725000011036,19314.88000001991,21855.240000004414,23685.525000008056],"straightlining":0.5,"zigzagging":0.42857142857142855,"survey":"dass_d","trial_type":"survey-template","trial_index":2,"time_elapsed":29140,"internal_node_id":"0.0-2.0","task_version":"battery-v0.2-trt","session":3,"infrequency":0},{"responses":{"Q04":"0","Q05":"0","Q06":"0","Q08":"0","Q07":"0","Q02":"0","Q03":"0","Q01":"0"},"rt":18368.319999979576,"item_order":[3,4,5,7,6,1,2,0],"radio_events":[5562.114999978803,7113.6149999802,11150.119999976596,12427.969999989728,13677.459999977145,14829.15000000503,15972.28499999619,16966.545000002952],"key_events":[],"mouse_events":[3105.4449999937788,4333.024999999907,5562.114999978803,7113.6149999802,9956.544999993639,11150.119999976596,12427.969999989728,13677.459999977145,14829.15000000503,15972.28499999619,16966.545000002952,18366.539999988163],"straightlining":1,"zigzagging":0,"survey":"gad7","trial_type":"survey-template","trial_index":3,"time_elapsed":47511,"internal_node_id":"0.0-3.0","task_version":"battery-v0.2-trt","session":3,"infrequency":0},{"view_history":"[{\"page_index\":0,\"viewing_time\":2746.1599999805912},{\"page_index\":1,\"viewing_time\":1541.9800000090618},{\"page_index\":2,\"viewing_time\":2285.230000008596},{\"page_index\":3,\"viewing_time\":3259.235000004992},{\"page_index\":4,\"viewing_time\":3223.3649999834597},{\"page_index\":5,\"viewing_time\":2631.794999993872},{\"page_index\":6,\"viewing_time\":1964.9350000254344},{\"page_index\":7,\"viewing_time\":5861.164999980247},{\"page_index\":8,\"viewing_time\":2980.375000013737},{\"page_index\":9,\"viewing_time\":2575.3850000037346}]","rt":29070.544999995036,"trial_type":"pit-instructions","trial_index":4,"time_elapsed":76587,"internal_node_id":"0.0-4.0-0.0","task_version":"battery-v0.2-trt","session":3},{"rune":"1","rune_set":"elianto","hex":"#3366ff99","correct":32,"choice":-1,"rt":-1,"accuracy":0,"outcome":"+1","keys":[],"total_keys":0,"block":0,"practice":1,"trial_type":"pit-trial","trial_index":5,"time_elapsed":80595,"internal_node_id":"0.0-4.0-1.0-0.0","task_version":"battery-v0.2-trt","session":3},{"rune":"1","rune_set":"elianto","hex":"#3366ff99","correct":32,"choice":-1,"rt":-1,"accuracy":0,"outcome":"+1","keys":[],"total_keys":0,"block":0,"practice":1,"trial_type":"pit-trial","trial_index":6,"time_elapsed":84599,"internal_node_id":"0.0-4.0-1.1-0.1","task_version":"battery-v0.2-trt","session":3},{"rune":"1","rune_set":"elianto","hex":"#3366ff99","correct":32,"choice":-1,"rt":-1,"accuracy":0,"outcome":"+1","keys":[],"total_keys":0,"block":0,"practice":1,"trial_type":"pit-trial","trial_index":7,"time_elapsed":88603,"internal_node_id":"0.0-4.0-1.2-0.2","task_version":"battery-v0.2-trt","session":3},{"rune":"1","rune_set":"elianto","hex":"#3366ff99","correct":32,"choice":32,"rt":348.42999998363666,"accuracy":1,"outcome":"+10","keys":[1849.370000010822],"total_keys":1,"block":0,"practice":1,"trial_type":"pit-trial","trial_index":8,"time_elapsed":91655,"internal_node_id":"0.0-4.0-1.3-0.3","task_version":"battery-v0.2-trt","session":3},{"rune":"1","rune_set":"elianto","hex":"#3366ff99","correct":32,"choice":32,"rt":432.30499999481253,"accuracy":1,"outcome":"+10","keys":[1932.604999979958],"total_keys":1,"block":0,"practice":1,"trial_type":"pit-trial","trial_index":9,"time_elapsed":94791,"internal_node_id":"0.0-4.0-1.4-0.4","task_version":"battery-v0.2-trt","session":3},{"rune":"1","rune_set":"elianto","hex":"#3366ff99","correct":32,"choice":32,"rt":489.449999993667,"accuracy":1,"outcome":"+10","keys":[1272.7449999947567,1989.8000000102911],"total_keys":2,"block":0,"practice":1,"trial_type":"pit-trial","trial_index":10,"time_elapsed":97985,"internal_node_id":"0.0-4.0-1.5-0.5","task_version":"battery-v0.2-trt","session":3},{"trial_type":"call-function","trial_index":11,"time_elapsed":97986,"internal_node_id":"0.0-4.0-2.0","task_version":"battery-v0.2-trt","session":3},{"view_history":"[{\"page_index\":0,\"viewing_time\":5171.94999998901},{\"page_index\":1,\"viewing_time\":1751.3449999969453}]","rt":6924.024999985704,"trial_type":"pit-instructions","trial_index":12,"time_elapsed":104911,"internal_node_id":"0.0-4.0-3.0","task_version":"battery-v0.2-trt","session":3},{"rune":"2","rune_set":"elianto","hex":"#3366ff99","correct":-1,"choice":32,"rt":613.5450000001583,"accuracy":0,"outcome":"+1","keys":[2114.430000016],"total_keys":1,"block":0,"practice":2,"trial_type":"pit-trial","trial_index":13,"time_elapsed":108229,"internal_node_id":"0.0-4.0-4.0-0.0","task_version":"battery-v0.2-trt","session":3},{"rune":"2","rune_set":"elianto","hex":"#3366ff99","correct":-1,"choice":32,"rt":632.4249999888707,"accuracy":0,"outcome":"+1","keys":[2132.800000021234],"total_keys":1,"block":0,"practice":2,"trial_type":"pit-trial","trial_index":14,"time_elapsed":111566,"internal_node_id":"0.0-4.0-4.1-0.1","task_version":"battery-v0.2-trt","session":3},{"rune":"2","rune_set":"elianto","hex":"#3366ff99","correct":-1,"choice":-1,"rt":-1,"accuracy":1,"outcome":"+10","keys":[],"total_keys":0,"block":0,"practice":2,"trial_type":"pit-trial","trial_index":15,"time_elapsed":115571,"internal_node_id":"0.0-4.0-4.2-0.2","task_version":"battery-v0.2-trt","session":3},{"rune":"2","rune_set":"elianto","hex":"#3366ff99","correct":-1,"choice":-1,"rt":-1,"accuracy":1,"outcome":"+10","keys":[],"total_keys":0,"block":0,"practice":2,"trial_type":"pit-trial","trial_index":16,"time_elapsed":119576,"internal_node_id":"0.0-4.0-4.3-0.3","task_version":"battery-v0.2-trt","session":3},{"rune":"2","rune_set":"elianto","hex":"#3366ff99","correct":-1,"choice":-1,"rt":-1,"accuracy":1,"outcome":"+10","keys":[],"total_keys":0,"block":0,"practice":2,"trial_type":"pit-trial","trial_index":17,"time_elapsed":123580,"internal_node_id":"0.0-4.0-4.4-0.4","task_version":"battery-v0.2-trt","session":3},{"trial_type":"call-function","trial_index":18,"time_elapsed":123581,"internal_node_id":"0.0-4.0-5.0","task_version":"battery-v0.2-trt","session":3},{"view_history":"[{\"page_index\":0,\"viewing_time\":4462.440000002971},{\"page_index\":1,\"viewing_time\":1463.0550000001676}]","rt":5926.169999991544,"trial_type":"pit-instructions","trial_index":19,"time_elapsed":129508,"internal_node_id":"0.0-4.0-6.0","task_version":"battery-v0.2-trt","session":3},{"rune":"3","rune_set":"elianto","hex":"#f73b6a7A","correct":-1,"choice":32,"rt":398.879999993369,"accuracy":0,"outcome":"-10","keys":[1899.490000010701],"total_keys":1,"block":0,"practice":3,"trial_type":"pit-trial","trial_index":20,"time_elapsed":132611,"internal_node_id":"0.0-4.0-7.0-0.0","task_version":"battery-v0.2-trt","session":3},{"rune":"3","rune_set":"elianto","hex":"#f73b6a7A","correct":-1,"choice":-1,"rt":-1,"accuracy":1,"outcome":"-1","keys":[],"total_keys":0,"block":0,"practice":3,"trial_type":"pit-trial","trial_index":21,"time_elapsed":136616,"internal_node_id":"0.0-4.0-7.1-0.1","task_version":"battery-v0.2-trt","session":3},{"rune":"3","rune_set":"elianto","hex":"#f73b6a7A","correct":-1,"choice":-1,"rt":-1,"accuracy":1,"outcome":"-1","keys":[],"total_keys":0,"block":0,"practice":3,"trial_type":"pit-trial","trial_index":22,"time_elapsed":140620,"internal_node_id":"0.0-4.0-7.2-0.2","task_version":"battery-v0.2-trt","session":3},{"rune":"3","rune_set":"elianto","hex":"#f73b6a7A","correct":-1,"choice":-1,"rt":-1,"accuracy":1,"outcome":"-1","keys":[],"total_keys":0,"block":0,"practice":3,"trial_type":"pit-trial","trial_index":23,"time_elapsed":144624,"internal_node_id":"0.0-4.0-7.3-0.3","task_version":"battery-v0.2-trt","session":3},{"trial_type":"call-function","trial_index":24,"time_elapsed":144626,"internal_node_id":"0.0-4.0-8.0","task_version":"battery-v0.2-trt","session":3},{"view_history":"[{\"page_index\":0,\"viewing_time\":3004.220000002533},{\"page_index\":1,\"viewing_time\":1147.8400000196416}]","rt":4152.73500001058,"trial_type":"pit-instructions","trial_index":25,"time_elapsed":148779,"internal_node_id":"0.0-4.0-9.0","task_version":"battery-v0.2-trt","session":3},{"rune":"4","rune_set":"elianto","hex":"#f73b6a7A","correct":32,"choice":32,"rt":342.4599999852944,"accuracy":1,"outcome":"-1","keys":[1845.100000005914],"total_keys":1,"block":0,"practice":4,"trial_type":"pit-trial","trial_index":26,"time_elapsed":151828,"internal_node_id":"0.0-4.0-10.0-0.0","task_version":"battery-v0.2-trt","session":3},{"rune":"4","rune_set":"elianto","hex":"#f73b6a7A","correct":32,"choice":32,"rt":230.29000000678934,"accuracy":1,"outcome":"-1","keys":[1730.5749999941327],"total_keys":1,"block":0,"practice":4,"trial_type":"pit-trial","trial_index":27,"time_elapsed":154763,"internal_node_id":"0.0-4.0-10.1-0.1","task_version":"battery-v0.2-trt","session":3},{"rune":"4","rune_set":"elianto","hex":"#f73b6a7A","correct":32,"choice":32,"rt":269.5250000106171,"accuracy":1,"outcome":"-1","keys":[1769.9649999849498],"total_keys":1,"block":0,"practice":4,"trial_type":"pit-trial","trial_index":28,"time_elapsed":157736,"internal_node_id":"0.0-4.0-10.2-0.2","task_version":"battery-v0.2-trt","session":3},{"rune":"4","rune_set":"elianto","hex":"#f73b6a7A","correct":32,"choice":32,"rt":557.200000010198,"accuracy":1,"outcome":"-1","keys":[1495.3650000097696,2057.910000003176],"total_keys":2,"block":0,"practice":4,"trial_type":"pit-trial","trial_index":29,"time_elapsed":160997,"internal_node_id":"0.0-4.0-10.3-0.3","task_version":"battery-v0.2-trt","session":3},{"trial_type":"call-function","trial_index":30,"time_elapsed":160998,"internal_node_id":"0.0-4.0-11.0","task_version":"battery-v0.2-trt","session":3},{"view_history":"[{\"page_index\":0,\"viewing_time\":2392.1449999907054},{\"page_index\":1,\"viewing_time\":1197.5300000049174},{\"page_index\":2,\"viewing_time\":1495.2599999960512},{\"page_index\":3,\"viewing_time\":1161.5400000009686},{\"page_index\":4,\"viewing_time\":2457.2899999911897},{\"page_index\":5,\"viewing_time\":1530.4199999955017}]","rt":10234.895000001416,"trial_type":"pit-instructions","trial_index":31,"time_elapsed":171233,"internal_node_id":"0.0-4.0-12.0","task_version":"battery-v0.2-trt","session":3},{"responses":["Press SPACE","+10","-1","True","True"],"num_errors":0,"rt":16022.090000013122,"trial_type":"pit-comprehension","trial_index":32,"time_elapsed":187261,"internal_node_id":"0.0-4.0-13.0","task_version":"battery-v0.2-trt","session":3},{"view_history":"[{\"page_index\":0,\"viewing_time\":1969.6250000270084},{\"page_index\":1,\"viewing_time\":1899.2099999741185}]","rt":3869.5450000232086,"trial_type":"pit-instructions","trial_index":33,"time_elapsed":191134,"internal_node_id":"0.0-5.0","task_version":"battery-v0.2-trt","session":3},{"rune":"K","rune_set":"elianto","hex":"#3366ff99","correct":32,"choice":32,"rt":646.0849999857601,"accuracy":1,"outcome":"+1","keys":[2147.3449999757577],"total_keys":1,"block":1,"trial":1,"stimulus":3,"robot":1,"valence":"win","action":"go","sham":1,"trial_type":"pit-trial","trial_index":34,"time_elapsed":194487,"internal_node_id":"0.0-6.0","task_version":"battery-v0.2-trt","session":3},{"rune":"V","rune_set":"elianto","hex":"#3366ff99","correct":-1,"choice":32,"rt":432.8399999940302,"accuracy":0,"outcome":"+1","keys":[1933.43500001356],"total_keys":1,"block":1,"trial":2,"stimulus":0,"robot":2,"valence":"win","action":"no-go","sham":0,"trial_type":"pit-trial","trial_index":35,"time_elapsed":197625,"internal_node_id":"0.0-7.0","task_version":"battery-v0.2-trt","session":3},{"rune":"J","rune_set":"elianto","hex":"#f73b6a7A","correct":32,"choice":32,"rt":599.1199999989476,"accuracy":1,"outcome":"-1","keys":[2099.415000004228],"total_keys":1,"block":1,"trial":3,"stimulus":1,"robot":3,"valence":"lose","action":"go","sham":0,"trial_type":"pit-trial","trial_index":36,"time_elapsed":200927,"internal_node_id":"0.0-8.0","task_version":"battery-v0.2-trt","session":3},{"rune":"D","rune_set":"elianto","hex":"#f73b6a7A","correct":-1,"choice":32,"rt":423.3550000062678,"accuracy":0,"outcome":"-10","keys":[1923.800000018673],"total_keys":1,"block":1,"trial":4,"stimulus":2,"robot":4,"valence":"lose","action":"no-go","sham":0,"trial_type":"pit-trial","trial_index":37,"time_elapsed":204054,"internal_node_id":"0.0-9.0","task_version":"battery-v0.2-trt","session":3},{"rune":"J","rune_set":"elianto","hex":"#f73b6a7A","correct":32,"choice":32,"rt":540.6099999963772,"accuracy":1,"outcome":"-1","keys":[2040.8400000014808],"total_keys":1,"block":1,"trial":5,"stimulus":1,"robot":3,"valence":"lose","action":"go","sham":0,"trial_type":"pit-trial","trial_index":38,"time_elapsed":207296,"internal_node_id":"0.0-10.0","task_version":"battery-v0.2-trt","session":3},{"rune":"D","rune_set":"elianto","hex":"#f73b6a7A","correct":-1,"choice":32,"rt":654.9049999739509,"accuracy":0,"outcome":"-1","keys":[2155.380000011064],"total_keys":1,"block":1,"trial":6,"stimulus":2,"robot":4,"valence":"lose","action":"no-go","sham":1,"trial_type":"pit-trial","trial_index":39,"time_elapsed":210655,"internal_node_id":"0.0-11.0","task_version":"battery-v0.2-trt","session":3},{"rune":"V","rune_set":"elianto","hex":"#3366ff99","correct":-1,"choice":32,"rt":702.4299999757204,"accuracy":0,"outcome":"+1","keys":[2202.6649999897927],"total_keys":1,"block":1,"trial":7,"stimulus":0,"robot":2,"valence":"win","action":"no-go","sham":0,"trial_type":"pit-trial","trial_index":40,"time_elapsed":214061,"internal_node_id":"0.0-12.0","task_version":"battery-v0.2-trt","session":3},{"rune":"K","rune_set":"elianto","hex":"#3366ff99","correct":32,"choice":-1,"rt":-1,"accuracy":0,"outcome":"+10","keys":[],"total_keys":0,"block":1,"trial":8,"stimulus":3,"robot":1,"valence":"win","action":"go","sham":1,"trial_type":"pit-trial","trial_index":41,"time_elapsed":218065,"internal_node_id":"0.0-13.0","task_version":"battery-v0.2-trt","session":3},{"rune":"D","rune_set":"elianto","hex":"#f73b6a7A","correct":-1,"choice":-1,"rt":-1,"accuracy":1,"outcome":"-1","keys":[],"total_keys":0,"block":1,"trial":9,"stimulus":2,"robot":4,"valence":"lose","action":"no-go","sham":0,"trial_type":"pit-trial","trial_index":42,"time_elapsed":222069,"internal_node_id":"0.0-14.0","task_version":"battery-v0.2-trt","session":3},{"rune":"J","rune_set":"elianto","hex":"#f73b6a7A","correct":32,"choice":32,"rt":471.82999999495223,"accuracy":1,"outcome":"-10","keys":[1971.9050000130665],"total_keys":1,"block":1,"trial":10,"stimulus":1,"robot":3,"valence":"lose","action":"go","sham":1,"trial_type":"pit-trial","trial_index":43,"time_elapsed":225245,"internal_node_id":"0.0-15.0","task_version":"battery-v0.2-trt","session":3},{"rune":"K","rune_set":"elianto","hex":"#3366ff99","correct":32,"choice":-1,"rt":-1,"accuracy":0,"outcome":"+1","keys":[],"total_keys":0,"block":1,"trial":11,"stimulus":3,"robot":1,"valence":"win","action":"go","sham":0,"trial_type":"pit-trial","trial_index":44,"time_elapsed":229248,"internal_node_id":"0.0-16.0","task_version":"battery-v0.2-trt","session":3},{"rune":"V","rune_set":"elianto","hex":"#3366ff99","correct":-1,"choice":32,"rt":488.32500001299195,"accuracy":0,"outcome":"+1","keys":[1988.8799999898765],"total_keys":1,"block":1,"trial":12,"stimulus":0,"robot":2,"valence":"win","action":"no-go","sham":0,"trial_type":"pit-trial","trial_index":45,"time_elapsed":232440,"internal_node_id":"0.0-17.0","task_version":"battery-v0.2-trt","session":3},{"rune":"J","rune_set":"elianto","hex":"#f73b6a7A","correct":32,"choice":32,"rt":713.1599999847822,"accuracy":1,"outcome":"-1","keys":[2213.4249999944586],"total_keys":1,"block":1,"trial":13,"stimulus":1,"robot":3,"valence":"lose","action":"go","sham":0,"trial_type":"pit-trial","trial_index":46,"time_elapsed":235857,"internal_node_id":"0.0-18.0","task_version":"battery-v0.2-trt","session":3},{"rune":"D","rune_set":"elianto","hex":"#f73b6a7A","correct":-1,"choice":-1,"rt":-1,"accuracy":1,"outcome":"-1","keys":[],"total_keys":0,"block":1,"trial":14,"stimulus":2,"robot":4,"valence":"lose","action":"no-go","sham":0,"trial_type":"pit-trial","trial_index":47,"time_elapsed":239859,"internal_node_id":"0.0-19.0","task_version":"battery-v0.2-trt","session":3},{"rune":"V","rune_set":"elianto","hex":"#3366ff99","correct":-1,"choice":32,"rt":304.95499999960884,"accuracy":0,"outcome":"+1","keys":[1805.7449999905657],"total_keys":1,"block":1,"trial":15,"stimulus":0,"robot":2,"valence":"win","action":"no-go","sham":0,"trial_type":"pit-trial","trial_index":48,"time_elapsed":242869,"internal_node_id":"0.0-20.0","task_version":"battery-v0.2-trt","session":3},{"rune":"K","rune_set":"elianto","hex":"#3366ff99","correct":32,"choice":32,"rt":550.4349999828264,"accuracy":1,"outcome":"+10","keys":[2050.9100000199396],"total_keys":1,"block":1,"trial":16,"stimulus":3,"robot":1,"valence":"win","action":"go","sham":0,"trial_type":"pit-trial","trial_index":49,"time_elapsed":246124,"internal_node_id":"0.0-21.0","task_version":"battery-v0.2-trt","session":3},{"rune":"V","rune_set":"elianto","hex":"#3366ff99","correct":-1,"choice":-1,"rt":-1,"accuracy":1,"outcome":"+10","keys":[],"total_keys":0,"block":1,"trial":17,"stimulus":0,"robot":2,"valence":"win","action":"no-go","sham":0,"trial_type":"pit-trial","trial_index":50,"time_elapsed":250129,"internal_node_id":"0.0-22.0","task_version":"battery-v0.2-trt","session":3},{"rune":"J","rune_set":"elianto","hex":"#f73b6a7A","correct":32,"choice":32,"rt":448.2999999891035,"accuracy":1,"outcome":"-1","keys":[1948.835000017425],"total_keys":1,"block":1,"trial":18,"stimulus":1,"robot":3,"valence":"lose","action":"go","sham":0,"trial_type":"pit-trial","trial_index":51,"time_elapsed":253281,"internal_node_id":"0.0-23.0","task_version":"battery-v0.2-trt","session":3},{"rune":"D","rune_set":"elianto","hex":"#f73b6a7A","correct":-1,"choice":-1,"rt":-1,"accuracy":1,"outcome":"-1","keys":[],"total_keys":0,"block":1,"trial":19,"stimulus":2,"robot":4,"valence":"lose","action":"no-go","sham":0,"trial_type":"pit-trial","trial_index":52,"time_elapsed":257286,"internal_node_id":"0.0-24.0","task_version":"battery-v0.2-trt","session":3},{"rune":"K","rune_set":"elianto","hex":"#3366ff99","correct":32,"choice":32,"rt":413.1350000097882,"accuracy":1,"outcome":"+10","keys":[1913.235000014538],"total_keys":1,"block":1,"trial":20,"stimulus":3,"robot":1,"valence":"win","action":"go","sham":0,"trial_type":"pit-trial","trial_index":53,"time_elapsed":260403,"internal_node_id":"0.0-25.0","task_version":"battery-v0.2-trt","session":3},{"rune":"D","rune_set":"elianto","hex":"#f73b6a7A","correct":-1,"choice":-1,"rt":-1,"accuracy":1,"outcome":"-1","keys":[],"total_keys":0,"block":1,"trial":21,"stimulus":2,"robot":4,"valence":"lose","action":"no-go","sham":0,"trial_type":"pit-trial","trial_index":54,"time_elapsed":264407,"internal_node_id":"0.0-26.0","task_version":"battery-v0.2-trt","session":3},{"rune":"V","rune_set":"elianto","hex":"#3366ff99","correct":-1,"choice":32,"rt":462.39499998046085,"accuracy":0,"outcome":"+1","keys":[1964.3799999903422],"total_keys":1,"block":1,"trial":22,"stimulus":0,"robot":2,"valence":"win","action":"no-go","sham":0,"trial_type":"pit-trial","trial_index":55,"time_elapsed":267575,"internal_node_id":"0.0-27.0","task_version":"battery-v0.2-trt","session":3},{"rune":"K","rune_set":"elianto","hex":"#3366ff99","correct":32,"choice":32,"rt":597.4550000100862,"accuracy":1,"outcome":"+10","keys":[2097.86000000895],"total_keys":1,"block":1,"trial":23,"stimulus":3,"robot":1,"valence":"win","action":"go","sham":0,"trial_type":"pit-trial","trial_index":56,"time_elapsed":270877,"internal_node_id":"0.0-28.0","task_version":"battery-v0.2-trt","session":3},{"rune":"J","rune_set":"elianto","hex":"#f73b6a7A","correct":32,"choice":32,"rt":383.9050000242423,"accuracy":1,"outcome":"-10","keys":[1883.9200000220444],"total_keys":1,"block":1,"trial":24,"stimulus":1,"robot":3,"valence":"lose","action":"go","sham":1,"trial_type":"pit-trial","trial_index":57,"time_elapsed":273964,"internal_node_id":"0.0-29.0","task_version":"battery-v0.2-trt","session":3},{"rune":"J","rune_set":"elianto","hex":"#f73b6a7A","correct":32,"choice":32,"rt":472.1199999912642,"accuracy":1,"outcome":"-1","keys":[1973.150000005262],"total_keys":1,"block":1,"trial":25,"stimulus":1,"robot":3,"valence":"lose","action":"go","sham":0,"trial_type":"pit-trial","trial_index":58,"time_elapsed":277141,"internal_node_id":"0.0-30.0","task_version":"battery-v0.2-trt","session":3},{"rune":"K","rune_set":"elianto","hex":"#3366ff99","correct":32,"choice":32,"rt":968.9450000005309,"accuracy":1,"outcome":"+10","keys":[2469.2750000103842],"total_keys":1,"block":1,"trial":26,"stimulus":3,"robot":1,"valence":"win","action":"go","sham":0,"trial_type":"pit-trial","trial_index":59,"time_elapsed":280812,"internal_node_id":"0.0-31.0","task_version":"battery-v0.2-trt","session":3},{"rune":"D","rune_set":"elianto","hex":"#f73b6a7A","correct":-1,"choice":-1,"rt":-1,"accuracy":1,"outcome":"-10","keys":[],"total_keys":0,"block":1,"trial":27,"stimulus":2,"robot":4,"valence":"lose","action":"no-go","sham":1,"trial_type":"pit-trial","trial_index":60,"time_elapsed":284817,"internal_node_id":"0.0-32.0","task_version":"battery-v0.2-trt","session":3},{"rune":"V","rune_set":"elianto","hex":"#3366ff99","correct":-1,"choice":32,"rt":450.4749999905471,"accuracy":0,"outcome":"+1","keys":[1952.064999990398],"total_keys":1,"block":1,"trial":28,"stimulus":0,"robot":2,"valence":"win","action":"no-go","sham":0,"trial_type":"pit-trial","trial_index":61,"time_elapsed":287972,"internal_node_id":"0.0-33.0","task_version":"battery-v0.2-trt","session":3},{"rune":"V","rune_set":"elianto","hex":"#3366ff99","correct":-1,"choice":32,"rt":684.6800000057556,"accuracy":0,"outcome":"+1","keys":[2185.1600000227336],"total_keys":1,"block":1,"trial":29,"stimulus":0,"robot":2,"valence":"win","action":"no-go","sham":0,"trial_type":"pit-trial","trial_index":62,"time_elapsed":291359,"internal_node_id":"0.0-34.0","task_version":"battery-v0.2-trt","session":3},{"rune":"J","rune_set":"elianto","hex":"#f73b6a7A","correct":32,"choice":-1,"rt":-1,"accuracy":0,"outcome":"-10","keys":[],"total_keys":0,"block":1,"trial":30,"stimulus":1,"robot":3,"valence":"lose","action":"go","sham":0,"trial_type":"pit-trial","trial_index":63,"time_elapsed":295363,"internal_node_id":"0.0-35.0","task_version":"battery-v0.2-trt","session":3},{"rune":"D","rune_set":"elianto","hex":"#f73b6a7A","correct":-1,"choice":32,"rt":450.3649999969639,"accuracy":0,"outcome":"-10","keys":[1951.7200000118464],"total_keys":1,"block":1,"trial":31,"stimulus":2,"robot":4,"valence":"lose","action":"no-go","sham":0,"trial_type":"pit-trial","trial_index":64,"time_elapsed":298520,"internal_node_id":"0.0-36.0","task_version":"battery-v0.2-trt","session":3},{"rune":"K","rune_set":"elianto","hex":"#3366ff99","correct":32,"choice":32,"rt":890.4899999906775,"accuracy":1,"outcome":"+1","keys":[2390.805000002729],"total_keys":1,"block":1,"trial":32,"stimulus":3,"robot":1,"valence":"win","action":"go","sham":1,"trial_type":"pit-trial","trial_index":65,"time_elapsed":302115,"internal_node_id":"0.0-37.0","task_version":"battery-v0.2-trt","session":3},{"rune":"D","rune_set":"elianto","hex":"#f73b6a7A","correct":-1,"choice":-1,"rt":-1,"accuracy":1,"outcome":"-1","keys":[],"total_keys":0,"block":1,"trial":33,"stimulus":2,"robot":4,"valence":"lose","action":"no-go","sham":0,"trial_type":"pit-trial","trial_index":66,"time_elapsed":306121,"internal_node_id":"0.0-38.0","task_version":"battery-v0.2-trt","session":3},{"rune":"W","rune_set":"elianto","hex":"#f73b6a7A","correct":-1,"choice":32,"rt":594.7199999936856,"accuracy":0,"outcome":"-1","keys":[2095.4950000159442],"total_keys":1,"block":1,"trial":34,"stimulus":5,"robot":4,"valence":"lose","action":"no-go","sham":1,"trial_type":"pit-trial","trial_index":67,"time_elapsed":309420,"internal_node_id":"0.0-39.0","task_version":"battery-v0.2-trt","session":3},{"rune":"J","rune_set":"elianto","hex":"#f73b6a7A","correct":32,"choice":32,"rt":1010.9950000187382,"accuracy":1,"outcome":"-1","keys":[2512.350000004517],"total_keys":1,"block":1,"trial":35,"stimulus":1,"robot":3,"valence":"lose","action":"go","sham":0,"trial_type":"pit-trial","trial_index":68,"time_elapsed":313135,"internal_node_id":"0.0-40.0","task_version":"battery-v0.2-trt","session":3},{"rune":"E","rune_set":"elianto","hex":"#f73b6a7A","correct":32,"choice":32,"rt":682.7199999825098,"accuracy":1,"outcome":"-1","keys":[2182.715000002645],"total_keys":1,"block":1,"trial":36,"stimulus":4,"robot":3,"valence":"lose","action":"go","sham":0,"trial_type":"pit-trial","trial_index":69,"time_elapsed":316520,"internal_node_id":"0.0-41.0","task_version":"battery-v0.2-trt","session":3},{"rune":"D","rune_set":"elianto","hex":"#f73b6a7A","correct":-1,"choice":-1,"rt":-1,"accuracy":1,"outcome":"-1","keys":[],"total_keys":0,"block":1,"trial":37,"stimulus":2,"robot":4,"valence":"lose","action":"no-go","sham":0,"trial_type":"pit-trial","trial_index":70,"time_elapsed":320524,"internal_node_id":"0.0-42.0","task_version":"battery-v0.2-trt","session":3},{"rune":"J","rune_set":"elianto","hex":"#f73b6a7A","correct":32,"choice":32,"rt":768.6850000172853,"accuracy":1,"outcome":"-1","keys":[2269.3450000078883],"total_keys":1,"block":1,"trial":38,"stimulus":1,"robot":3,"valence":"lose","action":"go","sham":0,"trial_type":"pit-trial","trial_index":71,"time_elapsed":323997,"internal_node_id":"0.0-43.0","task_version":"battery-v0.2-trt","session":3},{"rune":"E","rune_set":"elianto","hex":"#f73b6a7A","correct":32,"choice":32,"rt":478.1549999897834,"accuracy":1,"outcome":"-10","keys":[1978.5400000109803],"total_keys":1,"block":1,"trial":39,"stimulus":4,"robot":3,"valence":"lose","action":"go","sham":1,"trial_type":"pit-trial","trial_index":72,"time_elapsed":327179,"internal_node_id":"0.0-44.0","task_version":"battery-v0.2-trt","session":3},{"rune":"W","rune_set":"elianto","hex":"#f73b6a7A","correct":-1,"choice":32,"rt":417.68000001320615,"accuracy":0,"outcome":"-10","keys":[1917.8200000023935],"total_keys":1,"block":1,"trial":40,"stimulus":5,"robot":4,"valence":"lose","action":"no-go","sham":0,"trial_type":"pit-trial","trial_index":73,"time_elapsed":330300,"internal_node_id":"0.0-45.0","task_version":"battery-v0.2-trt","session":3},{"rune":"S","rune_set":"elianto","hex":"#3366ff99","correct":-1,"choice":32,"rt":445.9999999962747,"accuracy":0,"outcome":"+1","keys":[1946.1199999786913],"total_keys":1,"block":1,"trial":41,"stimulus":6,"robot":2,"valence":"win","action":"no-go","sham":0,"trial_type":"pit-trial","trial_index":74,"time_elapsed":333449,"internal_node_id":"0.0-46.0","task_version":"battery-v0.2-trt","session":3},{"rune":"E","rune_set":"elianto","hex":"#f73b6a7A","correct":32,"choice":32,"rt":524.7549999912735,"accuracy":1,"outcome":"-1","keys":[2024.7800000070129],"total_keys":1,"block":1,"trial":42,"stimulus":4,"robot":3,"valence":"lose","action":"go","sham":0,"trial_type":"pit-trial","trial_index":75,"time_elapsed":336678,"internal_node_id":"0.0-47.0","task_version":"battery-v0.2-trt","session":3},{"rune":"W","rune_set":"elianto","hex":"#f73b6a7A","correct":-1,"choice":32,"rt":535.6299999984913,"accuracy":0,"outcome":"-10","keys":[2035.9100000059698],"total_keys":1,"block":1,"trial":43,"stimulus":5,"robot":4,"valence":"lose","action":"no-go","sham":0,"trial_type":"pit-trial","trial_index":76,"time_elapsed":339918,"internal_node_id":"0.0-48.0","task_version":"battery-v0.2-trt","session":3},{"rune":"D","rune_set":"elianto","hex":"#f73b6a7A","correct":-1,"choice":-1,"rt":-1,"accuracy":1,"outcome":"-1","keys":[],"total_keys":0,"block":1,"trial":44,"stimulus":2,"robot":4,"valence":"lose","action":"no-go","sham":0,"trial_type":"pit-trial","trial_index":77,"time_elapsed":343922,"internal_node_id":"0.0-49.0","task_version":"battery-v0.2-trt","session":3},{"rune":"W","rune_set":"elianto","hex":"#f73b6a7A","correct":-1,"choice":32,"rt":757.2550000040792,"accuracy":0,"outcome":"-10","keys":[2257.580000004964],"total_keys":1,"block":1,"trial":45,"stimulus":5,"robot":4,"valence":"lose","action":"no-go","sham":0,"trial_type":"pit-trial","trial_index":78,"time_elapsed":347382,"internal_node_id":"0.0-50.0","task_version":"battery-v0.2-trt","session":3},{"rune":"D","rune_set":"elianto","hex":"#f73b6a7A","correct":-1,"choice":-1,"rt":-1,"accuracy":1,"outcome":"-1","keys":[],"total_keys":0,"block":1,"trial":46,"stimulus":2,"robot":4,"valence":"lose","action":"no-go","sham":0,"trial_type":"pit-trial","trial_index":79,"time_elapsed":351386,"internal_node_id":"0.0-51.0","task_version":"battery-v0.2-trt","session":3},{"rune":"E","rune_set":"elianto","hex":"#f73b6a7A","correct":32,"choice":32,"rt":667.730000015581,"accuracy":1,"outcome":"-1","keys":[2168.1149999785703],"total_keys":1,"block":1,"trial":47,"stimulus":4,"robot":3,"valence":"lose","action":"go","sham":0,"trial_type":"pit-trial","trial_index":80,"time_elapsed":354759,"internal_node_id":"0.0-52.0","task_version":"battery-v0.2-trt","session":3},{"rune":"S","rune_set":"elianto","hex":"#3366ff99","correct":-1,"choice":32,"rt":452.44500000262633,"accuracy":0,"outcome":"+1","keys":[1952.8599999903236],"total_keys":1,"block":1,"trial":48,"stimulus":6,"robot":2,"valence":"win","action":"no-go","sham":0,"trial_type":"pit-trial","trial_index":81,"time_elapsed":357915,"internal_node_id":"0.0-53.0","task_version":"battery-v0.2-trt","session":3},{"rune":"P","rune_set":"elianto","hex":"#3366ff99","correct":32,"choice":32,"rt":573.2550000248011,"accuracy":1,"outcome":"+10","keys":[2075.1650000165682],"total_keys":1,"block":1,"trial":49,"stimulus":7,"robot":1,"valence":"win","action":"go","sham":0,"trial_type":"pit-trial","trial_index":82,"time_elapsed":361194,"internal_node_id":"0.0-54.0","task_version":"battery-v0.2-trt","session":3},{"rune":"S","rune_set":"elianto","hex":"#3366ff99","correct":-1,"choice":32,"rt":440.86499998229556,"accuracy":0,"outcome":"+1","keys":[1941.9699999853037],"total_keys":1,"block":1,"trial":50,"stimulus":6,"robot":2,"valence":"win","action":"no-go","sham":0,"trial_type":"pit-trial","trial_index":83,"time_elapsed":364340,"internal_node_id":"0.0-55.0","task_version":"battery-v0.2-trt","session":3},{"rune":"W","rune_set":"elianto","hex":"#f73b6a7A","correct":-1,"choice":32,"rt":731.8450000020675,"accuracy":0,"outcome":"-10","keys":[2232.814999995753],"total_keys":1,"block":1,"trial":51,"stimulus":5,"robot":4,"valence":"lose","action":"no-go","sham":0,"trial_type":"pit-trial","trial_index":84,"time_elapsed":367775,"internal_node_id":"0.0-56.0","task_version":"battery-v0.2-trt","session":3},{"rune":"E","rune_set":"elianto","hex":"#f73b6a7A","correct":32,"choice":32,"rt":509.3150000029709,"accuracy":1,"outcome":"-1","keys":[2010.3550000058021],"total_keys":1,"block":1,"trial":52,"stimulus":4,"robot":3,"valence":"lose","action":"go","sham":0,"trial_type":"pit-trial","trial_index":85,"time_elapsed":370990,"internal_node_id":"0.0-57.0","task_version":"battery-v0.2-trt","session":3},{"rune":"P","rune_set":"elianto","hex":"#3366ff99","correct":32,"choice":32,"rt":616.5050000126939,"accuracy":1,"outcome":"+10","keys":[2117.289999994682],"total_keys":1,"block":1,"trial":53,"stimulus":7,"robot":1,"valence":"win","action":"go","sham":0,"trial_type":"pit-trial","trial_index":86,"time_elapsed":374311,"internal_node_id":"0.0-58.0","task_version":"battery-v0.2-trt","session":3},{"rune":"S","rune_set":"elianto","hex":"#3366ff99","correct":-1,"choice":-1,"rt":-1,"accuracy":1,"outcome":"+10","keys":[],"total_keys":0,"block":1,"trial":54,"stimulus":6,"robot":2,"valence":"win","action":"no-go","sham":0,"trial_type":"pit-trial","trial_index":87,"time_elapsed":378315,"internal_node_id":"0.0-59.0","task_version":"battery-v0.2-trt","session":3},{"rune":"E","rune_set":"elianto","hex":"#f73b6a7A","correct":32,"choice":32,"rt":651.1149999860208,"accuracy":1,"outcome":"-1","keys":[2151.624999998603],"total_keys":1,"block":1,"trial":55,"stimulus":4,"robot":3,"valence":"lose","action":"go","sham":0,"trial_type":"pit-trial","trial_index":88,"time_elapsed":381669,"internal_node_id":"0.0-60.0","task_version":"battery-v0.2-trt","session":3},{"rune":"W","rune_set":"elianto","hex":"#f73b6a7A","correct":-1,"choice":-1,"rt":-1,"accuracy":1,"outcome":"-10","keys":[],"total_keys":0,"block":1,"trial":56,"stimulus":5,"robot":4,"valence":"lose","action":"no-go","sham":1,"trial_type":"pit-trial","trial_index":89,"time_elapsed":385674,"internal_node_id":"0.0-61.0","task_version":"battery-v0.2-trt","session":3},{"rune":"E","rune_set":"elianto","hex":"#f73b6a7A","correct":32,"choice":32,"rt":595.4349999956321,"accuracy":1,"outcome":"-10","keys":[2096.994999999879],"total_keys":1,"block":1,"trial":57,"stimulus":4,"robot":3,"valence":"lose","action":"go","sham":1,"trial_type":"pit-trial","trial_index":90,"time_elapsed":388975,"internal_node_id":"0.0-62.0","task_version":"battery-v0.2-trt","session":3},{"rune":"P","rune_set":"elianto","hex":"#3366ff99","correct":32,"choice":32,"rt":429.84000002616085,"accuracy":1,"outcome":"+10","keys":[1930.4699999920558],"total_keys":1,"block":1,"trial":58,"stimulus":7,"robot":1,"valence":"win","action":"go","sham":0,"trial_type":"pit-trial","trial_index":91,"time_elapsed":392109,"internal_node_id":"0.0-63.0","task_version":"battery-v0.2-trt","session":3},{"rune":"S","rune_set":"elianto","hex":"#3366ff99","correct":-1,"choice":32,"rt":576.839999994263,"accuracy":0,"outcome":"+10","keys":[2076.855000021169],"total_keys":1,"block":1,"trial":59,"stimulus":6,"robot":2,"valence":"win","action":"no-go","sham":1,"trial_type":"pit-trial","trial_index":92,"time_elapsed":395390,"internal_node_id":"0.0-64.0","task_version":"battery-v0.2-trt","session":3},{"rune":"W","rune_set":"elianto","hex":"#f73b6a7A","correct":-1,"choice":-1,"rt":-1,"accuracy":1,"outcome":"-1","keys":[],"total_keys":0,"block":1,"trial":60,"stimulus":5,"robot":4,"valence":"lose","action":"no-go","sham":0,"trial_type":"pit-trial","trial_index":93,"time_elapsed":399394,"internal_node_id":"0.0-65.0","task_version":"battery-v0.2-trt","session":3},{"rune":"S","rune_set":"elianto","hex":"#3366ff99","correct":-1,"choice":32,"rt":441.7799999937415,"accuracy":0,"outcome":"+1","keys":[1942.6749999984168],"total_keys":1,"block":1,"trial":61,"stimulus":6,"robot":2,"valence":"win","action":"no-go","sham":0,"trial_type":"pit-trial","trial_index":94,"time_elapsed":402540,"internal_node_id":"0.0-66.0","task_version":"battery-v0.2-trt","session":3},{"rune":"W","rune_set":"elianto","hex":"#f73b6a7A","correct":-1,"choice":-1,"rt":-1,"accuracy":1,"outcome":"-1","keys":[],"total_keys":0,"block":1,"trial":62,"stimulus":5,"robot":4,"valence":"lose","action":"no-go","sham":0,"trial_type":"pit-trial","trial_index":95,"time_elapsed":406544,"internal_node_id":"0.0-67.0","task_version":"battery-v0.2-trt","session":3},{"rune":"E","rune_set":"elianto","hex":"#f73b6a7A","correct":32,"choice":32,"rt":603.3099999767728,"accuracy":1,"outcome":"-1","keys":[2103.4400000062305],"total_keys":1,"block":1,"trial":63,"stimulus":4,"robot":3,"valence":"lose","action":"go","sham":0,"trial_type":"pit-trial","trial_index":96,"time_elapsed":409851,"internal_node_id":"0.0-68.0","task_version":"battery-v0.2-trt","session":3},{"rune":"P","rune_set":"elianto","hex":"#3366ff99","correct":32,"choice":32,"rt":536.9749999954365,"accuracy":1,"outcome":"+10","keys":[2037.6350000151433],"total_keys":1,"block":1,"trial":64,"stimulus":7,"robot":1,"valence":"win","action":"go","sham":0,"trial_type":"pit-trial","trial_index":97,"time_elapsed":413092,"internal_node_id":"0.0-69.0","task_version":"battery-v0.2-trt","session":3},{"rune":"E","rune_set":"elianto","hex":"#f73b6a7A","correct":32,"choice":32,"rt":791.1650000023656,"accuracy":1,"outcome":"-1","keys":[2291.975000000093],"total_keys":1,"block":1,"trial":65,"stimulus":4,"robot":3,"valence":"lose","action":"go","sham":0,"trial_type":"pit-trial","trial_index":98,"time_elapsed":416587,"internal_node_id":"0.0-70.0","task_version":"battery-v0.2-trt","session":3},{"rune":"S","rune_set":"elianto","hex":"#3366ff99","correct":-1,"choice":-1,"rt":-1,"accuracy":1,"outcome":"+10","keys":[],"total_keys":0,"block":1,"trial":66,"stimulus":6,"robot":2,"valence":"win","action":"no-go","sham":0,"trial_type":"pit-trial","trial_index":99,"time_elapsed":420590,"internal_node_id":"0.0-71.0","task_version":"battery-v0.2-trt","session":3},{"rune":"P","rune_set":"elianto","hex":"#3366ff99","correct":32,"choice":32,"rt":380.925000004936,"accuracy":1,"outcome":"+10","keys":[1881.6600000136532],"total_keys":1,"block":1,"trial":67,"stimulus":7,"robot":1,"valence":"win","action":"go","sham":0,"trial_type":"pit-trial","trial_index":100,"time_elapsed":423676,"internal_node_id":"0.0-72.0","task_version":"battery-v0.2-trt","session":3},{"rune":"W","rune_set":"elianto","hex":"#f73b6a7A","correct":-1,"choice":-1,"rt":-1,"accuracy":1,"outcome":"-1","keys":[],"total_keys":0,"block":1,"trial":68,"stimulus":5,"robot":4,"valence":"lose","action":"no-go","sham":0,"trial_type":"pit-trial","trial_index":101,"time_elapsed":427680,"internal_node_id":"0.0-73.0","task_version":"battery-v0.2-trt","session":3},{"rune":"S","rune_set":"elianto","hex":"#3366ff99","correct":-1,"choice":32,"rt":479.8900000168942,"accuracy":0,"outcome":"+1","keys":[1982.1450000163168],"total_keys":1,"block":1,"trial":69,"stimulus":6,"robot":2,"valence":"win","action":"no-go","sham":0,"trial_type":"pit-trial","trial_index":102,"time_elapsed":430866,"internal_node_id":"0.0-74.0","task_version":"battery-v0.2-trt","session":3},{"rune":"P","rune_set":"elianto","hex":"#3366ff99","correct":32,"choice":32,"rt":517.6250000076834,"accuracy":1,"outcome":"+10","keys":[2018.2049999712035],"total_keys":1,"block":1,"trial":70,"stimulus":7,"robot":1,"valence":"win","action":"go","sham":0,"trial_type":"pit-trial","trial_index":103,"time_elapsed":434088,"internal_node_id":"0.0-75.0","task_version":"battery-v0.2-trt","session":3},{"rune":"W","rune_set":"elianto","hex":"#f73b6a7A","correct":-1,"choice":-1,"rt":-1,"accuracy":1,"outcome":"-1","keys":[],"total_keys":0,"block":1,"trial":71,"stimulus":5,"robot":4,"valence":"lose","action":"no-go","sham":0,"trial_type":"pit-trial","trial_index":104,"time_elapsed":438091,"internal_node_id":"0.0-76.0","task_version":"battery-v0.2-trt","session":3},{"rune":"E","rune_set":"elianto","hex":"#f73b6a7A","correct":32,"choice":32,"rt":884.9999999802094,"accuracy":1,"outcome":"-1","keys":[2385.3050000034273],"total_keys":1,"block":1,"trial":72,"stimulus":4,"robot":3,"valence":"lose","action":"go","sham":0,"trial_type":"pit-trial","trial_index":105,"time_elapsed":441681,"internal_node_id":"0.0-77.0","task_version":"battery-v0.2-trt","session":3},{"rune":"E","rune_set":"elianto","hex":"#f73b6a7A","correct":32,"choice":32,"rt":528.3300000010058,"accuracy":1,"outcome":"-1","keys":[2028.565000015078],"total_keys":1,"block":1,"trial":73,"stimulus":4,"robot":3,"valence":"lose","action":"go","sham":0,"trial_type":"pit-trial","trial_index":106,"time_elapsed":444913,"internal_node_id":"0.0-78.0","task_version":"battery-v0.2-trt","session":3},{"rune":"P","rune_set":"elianto","hex":"#3366ff99","correct":32,"choice":32,"rt":556.4149999991059,"accuracy":1,"outcome":"+10","keys":[2057.2200000169687],"total_keys":1,"block":1,"trial":74,"stimulus":7,"robot":1,"valence":"win","action":"go","sham":0,"trial_type":"pit-trial","trial_index":107,"time_elapsed":448173,"internal_node_id":"0.0-79.0","task_version":"battery-v0.2-trt","session":3},{"rune":"S","rune_set":"elianto","hex":"#3366ff99","correct":-1,"choice":-1,"rt":-1,"accuracy":1,"outcome":"+10","keys":[],"total_keys":0,"block":1,"trial":75,"stimulus":6,"robot":2,"valence":"win","action":"no-go","sham":0,"trial_type":"pit-trial","trial_index":108,"time_elapsed":452178,"internal_node_id":"0.0-80.0","task_version":"battery-v0.2-trt","session":3},{"rune":"G","rune_set":"elianto","hex":"#3366ff99","correct":32,"choice":32,"rt":384.0850000269711,"accuracy":1,"outcome":"+10","keys":[1884.6049999992829],"total_keys":1,"block":1,"trial":76,"stimulus":8,"robot":1,"valence":"win","action":"go","sham":0,"trial_type":"pit-trial","trial_index":109,"time_elapsed":455266,"internal_node_id":"0.0-81.0","task_version":"battery-v0.2-trt","session":3},{"rune":"E","rune_set":"elianto","hex":"#f73b6a7A","correct":32,"choice":32,"rt":652.8849999886006,"accuracy":1,"outcome":"-1","keys":[2152.9499999887776],"total_keys":1,"block":1,"trial":77,"stimulus":4,"robot":3,"valence":"lose","action":"go","sham":0,"trial_type":"pit-trial","trial_index":110,"time_elapsed":458622,"internal_node_id":"0.0-82.0","task_version":"battery-v0.2-trt","session":3},{"rune":"G","rune_set":"elianto","hex":"#3366ff99","correct":32,"choice":32,"rt":559.2049999977462,"accuracy":1,"outcome":"+10","keys":[2059.5699999830686],"total_keys":1,"block":1,"trial":78,"stimulus":8,"robot":1,"valence":"win","action":"go","sham":0,"trial_type":"pit-trial","trial_index":111,"time_elapsed":461886,"internal_node_id":"0.0-83.0","task_version":"battery-v0.2-trt","session":3},{"rune":"S","rune_set":"elianto","hex":"#3366ff99","correct":-1,"choice":-1,"rt":-1,"accuracy":1,"outcome":"+10","keys":[],"total_keys":0,"block":1,"trial":79,"stimulus":6,"robot":2,"valence":"win","action":"no-go","sham":0,"trial_type":"pit-trial","trial_index":112,"time_elapsed":465890,"internal_node_id":"0.0-84.0","task_version":"battery-v0.2-trt","session":3},{"rune":"P","rune_set":"elianto","hex":"#3366ff99","correct":32,"choice":32,"rt":595.5199999734759,"accuracy":1,"outcome":"+10","keys":[2095.754999987548],"total_keys":1,"block":1,"trial":80,"stimulus":7,"robot":1,"valence":"win","action":"go","sham":0,"trial_type":"pit-trial","trial_index":113,"time_elapsed":469189,"internal_node_id":"0.0-85.0","task_version":"battery-v0.2-trt","session":3},{"rune":"S","rune_set":"elianto","hex":"#3366ff99","correct":-1,"choice":-1,"rt":-1,"accuracy":1,"outcome":"+10","keys":[],"total_keys":0,"block":1,"trial":81,"stimulus":6,"robot":2,"valence":"win","action":"no-go","sham":0,"trial_type":"pit-trial","trial_index":114,"time_elapsed":473194,"internal_node_id":"0.0-86.0","task_version":"battery-v0.2-trt","session":3},{"rune":"G","rune_set":"elianto","hex":"#3366ff99","correct":32,"choice":32,"rt":497.23499998799525,"accuracy":1,"outcome":"+10","keys":[1998.8600000215229],"total_keys":1,"block":1,"trial":82,"stimulus":8,"robot":1,"valence":"win","action":"go","sham":0,"trial_type":"pit-trial","trial_index":115,"time_elapsed":476396,"internal_node_id":"0.0-87.0","task_version":"battery-v0.2-trt","session":3},{"rune":"P","rune_set":"elianto","hex":"#3366ff99","correct":32,"choice":32,"rt":1049.76500000339,"accuracy":1,"outcome":"+10","keys":[2551.225000002887],"total_keys":1,"block":1,"trial":83,"stimulus":7,"robot":1,"valence":"win","action":"go","sham":0,"trial_type":"pit-trial","trial_index":116,"time_elapsed":480151,"internal_node_id":"0.0-88.0","task_version":"battery-v0.2-trt","session":3},{"rune":"A","rune_set":"elianto","hex":"#3366ff99","correct":-1,"choice":32,"rt":670.8999999973457,"accuracy":0,"outcome":"+1","keys":[2171.3849999941885],"total_keys":1,"block":1,"trial":84,"stimulus":9,"robot":2,"valence":"win","action":"no-go","sham":0,"trial_type":"pit-trial","trial_index":117,"time_elapsed":483526,"internal_node_id":"0.0-89.0","task_version":"battery-v0.2-trt","session":3},{"rune":"G","rune_set":"elianto","hex":"#3366ff99","correct":32,"choice":32,"rt":906.5650000120513,"accuracy":1,"outcome":"+10","keys":[2407.2250000026543],"total_keys":1,"block":1,"trial":85,"stimulus":8,"robot":1,"valence":"win","action":"go","sham":0,"trial_type":"pit-trial","trial_index":118,"time_elapsed":487137,"internal_node_id":"0.0-90.0","task_version":"battery-v0.2-trt","session":3},{"rune":"S","rune_set":"elianto","hex":"#3366ff99","correct":-1,"choice":-1,"rt":-1,"accuracy":1,"outcome":"+10","keys":[],"total_keys":0,"block":1,"trial":86,"stimulus":6,"robot":2,"valence":"win","action":"no-go","sham":0,"trial_type":"pit-trial","trial_index":119,"time_elapsed":491142,"internal_node_id":"0.0-91.0","task_version":"battery-v0.2-trt","session":3},{"rune":"A","rune_set":"elianto","hex":"#3366ff99","correct":-1,"choice":32,"rt":499.9649999954272,"accuracy":0,"outcome":"+1","keys":[2000.3900000010617],"total_keys":1,"block":1,"trial":87,"stimulus":9,"robot":2,"valence":"win","action":"no-go","sham":0,"trial_type":"pit-trial","trial_index":120,"time_elapsed":494346,"internal_node_id":"0.0-92.0","task_version":"battery-v0.2-trt","session":3},{"rune":"P","rune_set":"elianto","hex":"#3366ff99","correct":32,"choice":32,"rt":10.424999985843897,"accuracy":1,"outcome":"+10","keys":[1511.4100000064354],"total_keys":1,"block":1,"trial":88,"stimulus":7,"robot":1,"valence":"win","action":"go","sham":0,"trial_type":"pit-trial","trial_index":121,"time_elapsed":497061,"internal_node_id":"0.0-93.0","task_version":"battery-v0.2-trt","session":3},{"rune":"L","rune_set":"elianto","hex":"#f73b6a7A","correct":32,"choice":32,"rt":547.9850000119768,"accuracy":1,"outcome":"-1","keys":[2049.044999992475],"total_keys":1,"block":1,"trial":89,"stimulus":10,"robot":3,"valence":"lose","action":"go","sham":0,"trial_type":"pit-trial","trial_index":122,"time_elapsed":500313,"internal_node_id":"0.0-94.0","task_version":"battery-v0.2-trt","session":3},{"rune":"A","rune_set":"elianto","hex":"#3366ff99","correct":-1,"choice":-1,"rt":-1,"accuracy":1,"outcome":"+10","keys":[],"total_keys":0,"block":1,"trial":90,"stimulus":9,"robot":2,"valence":"win","action":"no-go","sham":0,"trial_type":"pit-trial","trial_index":123,"time_elapsed":504317,"internal_node_id":"0.0-95.0","task_version":"battery-v0.2-trt","session":3},{"rune":"G","rune_set":"elianto","hex":"#3366ff99","correct":32,"choice":32,"rt":543.8849999918602,"accuracy":1,"outcome":"+10","keys":[2044.1649999993388],"total_keys":1,"block":1,"trial":91,"stimulus":8,"robot":1,"valence":"win","action":"go","sham":0,"trial_type":"pit-trial","trial_index":124,"time_elapsed":507564,"internal_node_id":"0.0-96.0","task_version":"battery-v0.2-trt","session":3},{"rune":"U","rune_set":"elianto","hex":"#f73b6a7A","correct":-1,"choice":-1,"rt":-1,"accuracy":1,"outcome":"-1","keys":[],"total_keys":0,"block":1,"trial":92,"stimulus":11,"robot":4,"valence":"lose","action":"no-go","sham":0,"trial_type":"pit-trial","trial_index":125,"time_elapsed":511569,"internal_node_id":"0.0-97.0","task_version":"battery-v0.2-trt","session":3},{"rune":"G","rune_set":"elianto","hex":"#3366ff99","correct":32,"choice":32,"rt":433.0900000059046,"accuracy":1,"outcome":"+10","keys":[1933.8649999990594],"total_keys":1,"block":1,"trial":93,"stimulus":8,"robot":1,"valence":"win","action":"go","sham":0,"trial_type":"pit-trial","trial_index":126,"time_elapsed":514705,"internal_node_id":"0.0-98.0","task_version":"battery-v0.2-trt","session":3},{"rune":"L","rune_set":"elianto","hex":"#f73b6a7A","correct":32,"choice":32,"rt":779.0950000053272,"accuracy":1,"outcome":"-1","keys":[2279.5350000087637],"total_keys":1,"block":1,"trial":94,"stimulus":10,"robot":3,"valence":"lose","action":"go","sham":0,"trial_type":"pit-trial","trial_index":127,"time_elapsed":518189,"internal_node_id":"0.0-99.0","task_version":"battery-v0.2-trt","session":3},{"rune":"U","rune_set":"elianto","hex":"#f73b6a7A","correct":-1,"choice":32,"rt":581.5099999890663,"accuracy":0,"outcome":"-10","keys":[2082.0550000062212],"total_keys":1,"block":1,"trial":95,"stimulus":11,"robot":4,"valence":"lose","action":"no-go","sham":0,"trial_type":"pit-trial","trial_index":128,"time_elapsed":521474,"internal_node_id":"0.0-100.0","task_version":"battery-v0.2-trt","session":3},{"rune":"A","rune_set":"elianto","hex":"#3366ff99","correct":-1,"choice":-1,"rt":-1,"accuracy":1,"outcome":"+10","keys":[],"total_keys":0,"block":1,"trial":96,"stimulus":9,"robot":2,"valence":"win","action":"no-go","sham":0,"trial_type":"pit-trial","trial_index":129,"time_elapsed":525478,"internal_node_id":"0.0-101.0","task_version":"battery-v0.2-trt","session":3},{"rune":"G","rune_set":"elianto","hex":"#3366ff99","correct":32,"choice":32,"rt":442.26999999955297,"accuracy":1,"outcome":"+10","keys":[1942.9499999969266],"total_keys":1,"block":1,"trial":97,"stimulus":8,"robot":1,"valence":"win","action":"go","sham":0,"trial_type":"pit-trial","trial_index":130,"time_elapsed":528623,"internal_node_id":"0.0-102.0","task_version":"battery-v0.2-trt","session":3},{"rune":"L","rune_set":"elianto","hex":"#f73b6a7A","correct":32,"choice":-1,"rt":-1,"accuracy":0,"outcome":"-10","keys":[],"total_keys":0,"block":1,"trial":98,"stimulus":10,"robot":3,"valence":"lose","action":"go","sham":0,"trial_type":"pit-trial","trial_index":131,"time_elapsed":532626,"internal_node_id":"0.0-103.0","task_version":"battery-v0.2-trt","session":3},{"rune":"A","rune_set":"elianto","hex":"#3366ff99","correct":-1,"choice":32,"rt":428.8700000033714,"accuracy":0,"outcome":"+1","keys":[1930.5099999764934],"total_keys":1,"block":1,"trial":99,"stimulus":9,"robot":2,"valence":"win","action":"no-go","sham":0,"trial_type":"pit-trial","trial_index":132,"time_elapsed":535760,"internal_node_id":"0.0-104.0","task_version":"battery-v0.2-trt","session":3},{"rune":"U","rune_set":"elianto","hex":"#f73b6a7A","correct":-1,"choice":32,"rt":768.9099999843165,"accuracy":0,"outcome":"-10","keys":[2269.0549999824725],"total_keys":1,"block":1,"trial":100,"stimulus":11,"robot":4,"valence":"lose","action":"no-go","sham":0,"trial_type":"pit-trial","trial_index":133,"time_elapsed":539232,"internal_node_id":"0.0-105.0","task_version":"battery-v0.2-trt","session":3},{"rune":"U","rune_set":"elianto","hex":"#f73b6a7A","correct":-1,"choice":-1,"rt":-1,"accuracy":1,"outcome":"-1","keys":[],"total_keys":0,"block":1,"trial":101,"stimulus":11,"robot":4,"valence":"lose","action":"no-go","sham":0,"trial_type":"pit-trial","trial_index":134,"time_elapsed":543236,"internal_node_id":"0.0-106.0","task_version":"battery-v0.2-trt","session":3},{"rune":"A","rune_set":"elianto","hex":"#3366ff99","correct":-1,"choice":32,"rt":552.3099999991246,"accuracy":0,"outcome":"+1","keys":[2052.430000010645],"total_keys":1,"block":1,"trial":102,"stimulus":9,"robot":2,"valence":"win","action":"no-go","sham":0,"trial_type":"pit-trial","trial_index":135,"time_elapsed":546492,"internal_node_id":"0.0-107.0","task_version":"battery-v0.2-trt","session":3},{"rune":"G","rune_set":"elianto","hex":"#3366ff99","correct":32,"choice":32,"rt":413.96000000531785,"accuracy":1,"outcome":"+10","keys":[1914.7099999827333],"total_keys":1,"block":1,"trial":103,"stimulus":8,"robot":1,"valence":"win","action":"go","sham":0,"trial_type":"pit-trial","trial_index":136,"time_elapsed":549610,"internal_node_id":"0.0-108.0","task_version":"battery-v0.2-trt","session":3},{"rune":"L","rune_set":"elianto","hex":"#f73b6a7A","correct":32,"choice":-1,"rt":-1,"accuracy":0,"outcome":"-10","keys":[],"total_keys":0,"block":1,"trial":104,"stimulus":10,"robot":3,"valence":"lose","action":"go","sham":0,"trial_type":"pit-trial","trial_index":137,"time_elapsed":553613,"internal_node_id":"0.0-109.0","task_version":"battery-v0.2-trt","session":3},{"rune":"A","rune_set":"elianto","hex":"#3366ff99","correct":-1,"choice":-1,"rt":-1,"accuracy":1,"outcome":"+10","keys":[],"total_keys":0,"block":1,"trial":105,"stimulus":9,"robot":2,"valence":"win","action":"no-go","sham":0,"trial_type":"pit-trial","trial_index":138,"time_elapsed":557618,"internal_node_id":"0.0-110.0","task_version":"battery-v0.2-trt","session":3},{"rune":"U","rune_set":"elianto","hex":"#f73b6a7A","correct":-1,"choice":-1,"rt":-1,"accuracy":1,"outcome":"-1","keys":[],"total_keys":0,"block":1,"trial":106,"stimulus":11,"robot":4,"valence":"lose","action":"no-go","sham":0,"trial_type":"pit-trial","trial_index":139,"time_elapsed":561622,"internal_node_id":"0.0-111.0","task_version":"battery-v0.2-trt","session":3},{"rune":"L","rune_set":"elianto","hex":"#f73b6a7A","correct":32,"choice":32,"rt":664.7700000030454,"accuracy":1,"outcome":"-1","keys":[2165.674999996554],"total_keys":1,"block":1,"trial":107,"stimulus":10,"robot":3,"valence":"lose","action":"go","sham":0,"trial_type":"pit-trial","trial_index":140,"time_elapsed":564990,"internal_node_id":"0.0-112.0","task_version":"battery-v0.2-trt","session":3},{"rune":"G","rune_set":"elianto","hex":"#3366ff99","correct":32,"choice":-1,"rt":-1,"accuracy":0,"outcome":"+1","keys":[],"total_keys":0,"block":1,"trial":108,"stimulus":8,"robot":1,"valence":"win","action":"go","sham":0,"trial_type":"pit-trial","trial_index":141,"time_elapsed":568994,"internal_node_id":"0.0-113.0","task_version":"battery-v0.2-trt","session":3},{"rune":"U","rune_set":"elianto","hex":"#f73b6a7A","correct":-1,"choice":32,"rt":921.2650000117719,"accuracy":0,"outcome":"-1","keys":[2421.6899999883026],"total_keys":1,"block":1,"trial":109,"stimulus":11,"robot":4,"valence":"lose","action":"no-go","sham":1,"trial_type":"pit-trial","trial_index":142,"time_elapsed":572619,"internal_node_id":"0.0-114.0","task_version":"battery-v0.2-trt","session":3},{"rune":"G","rune_set":"elianto","hex":"#3366ff99","correct":32,"choice":32,"rt":498.9800000039395,"accuracy":1,"outcome":"+10","keys":[1999.5250000210945],"total_keys":1,"block":1,"trial":110,"stimulus":8,"robot":1,"valence":"win","action":"go","sham":0,"trial_type":"pit-trial","trial_index":143,"time_elapsed":575822,"internal_node_id":"0.0-115.0","task_version":"battery-v0.2-trt","session":3},{"rune":"L","rune_set":"elianto","hex":"#f73b6a7A","correct":32,"choice":-1,"rt":-1,"accuracy":0,"outcome":"-10","keys":[],"total_keys":0,"block":1,"trial":111,"stimulus":10,"robot":3,"valence":"lose","action":"go","sham":0,"trial_type":"pit-trial","trial_index":144,"time_elapsed":579826,"internal_node_id":"0.0-116.0","task_version":"battery-v0.2-trt","session":3},{"rune":"A","rune_set":"elianto","hex":"#3366ff99","correct":-1,"choice":32,"rt":348.31000000122003,"accuracy":0,"outcome":"+1","keys":[1849.0600000077393],"total_keys":1,"block":1,"trial":112,"stimulus":9,"robot":2,"valence":"win","action":"no-go","sham":0,"trial_type":"pit-trial","trial_index":145,"time_elapsed":582878,"internal_node_id":"0.0-117.0","task_version":"battery-v0.2-trt","session":3},{"rune":"L","rune_set":"elianto","hex":"#f73b6a7A","correct":32,"choice":32,"rt":639.035000000149,"accuracy":1,"outcome":"-1","keys":[2139.5400000037625],"total_keys":1,"block":1,"trial":113,"stimulus":10,"robot":3,"valence":"lose","action":"go","sham":0,"trial_type":"pit-trial","trial_index":146,"time_elapsed":586220,"internal_node_id":"0.0-118.0","task_version":"battery-v0.2-trt","session":3},{"rune":"U","rune_set":"elianto","hex":"#f73b6a7A","correct":-1,"choice":32,"rt":784.8350000276696,"accuracy":0,"outcome":"-10","keys":[2286.88499997952],"total_keys":1,"block":1,"trial":114,"stimulus":11,"robot":4,"valence":"lose","action":"no-go","sham":0,"trial_type":"pit-trial","trial_index":147,"time_elapsed":589710,"internal_node_id":"0.0-119.0","task_version":"battery-v0.2-trt","session":3},{"rune":"A","rune_set":"elianto","hex":"#3366ff99","correct":-1,"choice":-1,"rt":-1,"accuracy":1,"outcome":"+10","keys":[],"total_keys":0,"block":1,"trial":115,"stimulus":9,"robot":2,"valence":"win","action":"no-go","sham":0,"trial_type":"pit-trial","trial_index":148,"time_elapsed":593713,"internal_node_id":"0.0-120.0","task_version":"battery-v0.2-trt","session":3},{"rune":"G","rune_set":"elianto","hex":"#3366ff99","correct":32,"choice":32,"rt":449.7300000221003,"accuracy":1,"outcome":"+10","keys":[1950.1750000054017],"total_keys":1,"block":1,"trial":116,"stimulus":8,"robot":1,"valence":"win","action":"go","sham":0,"trial_type":"pit-trial","trial_index":149,"time_elapsed":596868,"internal_node_id":"0.0-121.0","task_version":"battery-v0.2-trt","session":3},{"rune":"U","rune_set":"elianto","hex":"#f73b6a7A","correct":-1,"choice":32,"rt":994.5500000030734,"accuracy":0,"outcome":"-1","keys":[2495.2200000116136],"total_keys":1,"block":1,"trial":117,"stimulus":11,"robot":4,"valence":"lose","action":"no-go","sham":1,"trial_type":"pit-trial","trial_index":150,"time_elapsed":600567,"internal_node_id":"0.0-122.0","task_version":"battery-v0.2-trt","session":3},{"rune":"G","rune_set":"elianto","hex":"#3366ff99","correct":32,"choice":32,"rt":558.4450000023935,"accuracy":1,"outcome":"+10","keys":[2058.9700000127777],"total_keys":1,"block":1,"trial":118,"stimulus":8,"robot":1,"valence":"win","action":"go","sham":0,"trial_type":"pit-trial","trial_index":151,"time_elapsed":603829,"internal_node_id":"0.0-123.0","task_version":"battery-v0.2-trt","session":3},{"rune":"L","rune_set":"elianto","hex":"#f73b6a7A","correct":32,"choice":32,"rt":696.9899999967311,"accuracy":1,"outcome":"-1","keys":[2197.779999987688],"total_keys":1,"block":1,"trial":119,"stimulus":10,"robot":3,"valence":"lose","action":"go","sham":0,"trial_type":"pit-trial","trial_index":152,"time_elapsed":607230,"internal_node_id":"0.0-124.0","task_version":"battery-v0.2-trt","session":3},{"rune":"A","rune_set":"elianto","hex":"#3366ff99","correct":-1,"choice":32,"rt":527.620000008028,"accuracy":0,"outcome":"+1","keys":[2028.5649999859743],"total_keys":1,"block":1,"trial":120,"stimulus":9,"robot":2,"valence":"win","action":"no-go","sham":0,"trial_type":"pit-trial","trial_index":153,"time_elapsed":610462,"internal_node_id":"0.0-125.0","task_version":"battery-v0.2-trt","session":3},{"view_history":"[{\"page_index\":0,\"viewing_time\":6838.629999983823},{\"page_index\":1,\"viewing_time\":3988.0550000234507}]","rt":10827.33499997994,"trial_type":"pit-instructions","trial_index":154,"time_elapsed":621291,"internal_node_id":"0.0-126.0","task_version":"battery-v0.2-trt","session":3},{"rune":"N","rune_set":"elianto","hex":"#3366ff99","correct":-1,"choice":-1,"rt":-1,"accuracy":1,"outcome":"+1","keys":[],"total_keys":0,"block":2,"trial":121,"stimulus":1,"robot":2,"valence":"win","action":"no-go","sham":1,"trial_type":"pit-trial","trial_index":155,"time_elapsed":625298,"internal_node_id":"0.0-127.0","task_version":"battery-v0.2-trt","session":3},{"rune":"X","rune_set":"elianto","hex":"#f73b6a7A","correct":32,"choice":32,"rt":606.8599999998696,"accuracy":1,"outcome":"-1","keys":[2106.9600000046194],"total_keys":1,"block":2,"trial":122,"stimulus":3,"robot":3,"valence":"lose","action":"go","sham":0,"trial_type":"pit-trial","trial_index":156,"time_elapsed":628609,"internal_node_id":"0.0-128.0","task_version":"battery-v0.2-trt","session":3},{"rune":"Q","rune_set":"elianto","hex":"#3366ff99","correct":-1,"choice":32,"rt":709.7050000156742,"accuracy":0,"outcome":"+1","keys":[2210.465000011027],"total_keys":1,"block":2,"trial":123,"stimulus":0,"robot":2,"valence":"win","action":"no-go","sham":0,"trial_type":"pit-trial","trial_index":157,"time_elapsed":632023,"internal_node_id":"0.0-129.0","task_version":"battery-v0.2-trt","session":3},{"rune":"F","rune_set":"elianto","hex":"#3366ff99","correct":32,"choice":32,"rt":489.2099999997299,"accuracy":1,"outcome":"+1","keys":[1990.3300000005402],"total_keys":1,"block":2,"trial":124,"stimulus":2,"robot":1,"valence":"win","action":"go","sham":1,"trial_type":"pit-trial","trial_index":158,"time_elapsed":635217,"internal_node_id":"0.0-130.0","task_version":"battery-v0.2-trt","session":3},{"rune":"Q","rune_set":"elianto","hex":"#3366ff99","correct":-1,"choice":32,"rt":407.4300000211224,"accuracy":0,"outcome":"+1","keys":[1909.3400000128895],"total_keys":1,"block":2,"trial":125,"stimulus":0,"robot":2,"valence":"win","action":"no-go","sham":0,"trial_type":"pit-trial","trial_index":159,"time_elapsed":638330,"internal_node_id":"0.0-131.0","task_version":"battery-v0.2-trt","session":3},{"rune":"N","rune_set":"elianto","hex":"#3366ff99","correct":-1,"choice":32,"rt":564.5049999875482,"accuracy":0,"outcome":"+10","keys":[2064.5650000078604],"total_keys":1,"block":2,"trial":126,"stimulus":1,"robot":2,"valence":"win","action":"no-go","sham":1,"trial_type":"pit-trial","trial_index":160,"time_elapsed":641596,"internal_node_id":"0.0-132.0","task_version":"battery-v0.2-trt","session":3},{"rune":"F","rune_set":"elianto","hex":"#3366ff99","correct":32,"choice":-1,"rt":-1,"accuracy":0,"outcome":"+1","keys":[],"total_keys":0,"block":2,"trial":127,"stimulus":2,"robot":1,"valence":"win","action":"go","sham":0,"trial_type":"pit-trial","trial_index":161,"time_elapsed":645599,"internal_node_id":"0.0-133.0","task_version":"battery-v0.2-trt","session":3},{"rune":"X","rune_set":"elianto","hex":"#f73b6a7A","correct":32,"choice":32,"rt":463.8649999978952,"accuracy":1,"outcome":"-1","keys":[1965.6700000050478],"total_keys":1,"block":2,"trial":128,"stimulus":3,"robot":3,"valence":"lose","action":"go","sham":0,"trial_type":"pit-trial","trial_index":162,"time_elapsed":648767,"internal_node_id":"0.0-134.0","task_version":"battery-v0.2-trt","session":3},{"rune":"Q","rune_set":"elianto","hex":"#3366ff99","correct":-1,"choice":32,"rt":645.8850000053644,"accuracy":0,"outcome":"+1","keys":[2147.5700000009965],"total_keys":1,"block":2,"trial":129,"stimulus":0,"robot":2,"valence":"win","action":"no-go","sham":0,"trial_type":"pit-trial","trial_index":163,"time_elapsed":652119,"internal_node_id":"0.0-135.0","task_version":"battery-v0.2-trt","session":3},{"rune":"F","rune_set":"elianto","hex":"#3366ff99","correct":32,"choice":-1,"rt":-1,"accuracy":0,"outcome":"+1","keys":[],"total_keys":0,"block":2,"trial":130,"stimulus":2,"robot":1,"valence":"win","action":"go","sham":0,"trial_type":"pit-trial","trial_index":164,"time_elapsed":656124,"internal_node_id":"0.0-136.0","task_version":"battery-v0.2-trt","session":3},{"rune":"N","rune_set":"elianto","hex":"#3366ff99","correct":-1,"choice":32,"rt":799.6649999986403,"accuracy":0,"outcome":"+1","keys":[2300.2350000024308],"total_keys":1,"block":2,"trial":131,"stimulus":1,"robot":2,"valence":"win","action":"no-go","sham":0,"trial_type":"pit-trial","trial_index":165,"time_elapsed":659628,"internal_node_id":"0.0-137.0","task_version":"battery-v0.2-trt","session":3},{"rune":"X","rune_set":"elianto","hex":"#f73b6a7A","correct":32,"choice":32,"rt":732.2049999784213,"accuracy":1,"outcome":"-1","keys":[2232.480000006035],"total_keys":1,"block":2,"trial":132,"stimulus":3,"robot":3,"valence":"lose","action":"go","sham":0,"trial_type":"pit-trial","trial_index":166,"time_elapsed":663063,"internal_node_id":"0.0-138.0","task_version":"battery-v0.2-trt","session":3},{"rune":"N","rune_set":"elianto","hex":"#3366ff99","correct":-1,"choice":32,"rt":515.1049999985844,"accuracy":0,"outcome":"+1","keys":[2016.2200000195298],"total_keys":1,"block":2,"trial":133,"stimulus":1,"robot":2,"valence":"win","action":"no-go","sham":0,"trial_type":"pit-trial","trial_index":167,"time_elapsed":666283,"internal_node_id":"0.0-139.0","task_version":"battery-v0.2-trt","session":3},{"rune":"F","rune_set":"elianto","hex":"#3366ff99","correct":32,"choice":32,"rt":538.6050000088289,"accuracy":1,"outcome":"+10","keys":[2038.8350000139326],"total_keys":1,"block":2,"trial":134,"stimulus":2,"robot":1,"valence":"win","action":"go","sham":0,"trial_type":"pit-trial","trial_index":168,"time_elapsed":669526,"internal_node_id":"0.0-140.0","task_version":"battery-v0.2-trt","session":3},{"rune":"Q","rune_set":"elianto","hex":"#3366ff99","correct":-1,"choice":-1,"rt":-1,"accuracy":1,"outcome":"+10","keys":[],"total_keys":0,"block":2,"trial":135,"stimulus":0,"robot":2,"valence":"win","action":"no-go","sham":0,"trial_type":"pit-trial","trial_index":169,"time_elapsed":673530,"internal_node_id":"0.0-141.0","task_version":"battery-v0.2-trt","session":3},{"rune":"X","rune_set":"elianto","hex":"#f73b6a7A","correct":32,"choice":32,"rt":527.2100000001956,"accuracy":1,"outcome":"-1","keys":[2028.8700000091922],"total_keys":1,"block":2,"trial":136,"stimulus":3,"robot":3,"valence":"lose","action":"go","sham":0,"trial_type":"pit-trial","trial_index":170,"time_elapsed":676762,"internal_node_id":"0.0-142.0","task_version":"battery-v0.2-trt","session":3},{"rune":"X","rune_set":"elianto","hex":"#f73b6a7A","correct":32,"choice":32,"rt":318.98500001989305,"accuracy":1,"outcome":"-1","keys":[1819.4800000055693],"total_keys":1,"block":2,"trial":137,"stimulus":3,"robot":3,"valence":"lose","action":"go","sham":0,"trial_type":"pit-trial","trial_index":171,"time_elapsed":679785,"internal_node_id":"0.0-143.0","task_version":"battery-v0.2-trt","session":3},{"rune":"F","rune_set":"elianto","hex":"#3366ff99","correct":32,"choice":32,"rt":766.2699999928009,"accuracy":1,"outcome":"+10","keys":[2267.404999991413],"total_keys":1,"block":2,"trial":138,"stimulus":2,"robot":1,"valence":"win","action":"go","sham":0,"trial_type":"pit-trial","trial_index":172,"time_elapsed":683256,"internal_node_id":"0.0-144.0","task_version":"battery-v0.2-trt","session":3},{"rune":"N","rune_set":"elianto","hex":"#3366ff99","correct":-1,"choice":-1,"rt":-1,"accuracy":1,"outcome":"+10","keys":[],"total_keys":0,"block":2,"trial":139,"stimulus":1,"robot":2,"valence":"win","action":"no-go","sham":0,"trial_type":"pit-trial","trial_index":173,"time_elapsed":687260,"internal_node_id":"0.0-145.0","task_version":"battery-v0.2-trt","session":3},{"rune":"Q","rune_set":"elianto","hex":"#3366ff99","correct":-1,"choice":-1,"rt":-1,"accuracy":1,"outcome":"+10","keys":[],"total_keys":0,"block":2,"trial":140,"stimulus":0,"robot":2,"valence":"win","action":"no-go","sham":0,"trial_type":"pit-trial","trial_index":174,"time_elapsed":691264,"internal_node_id":"0.0-146.0","task_version":"battery-v0.2-trt","session":3},{"rune":"N","rune_set":"elianto","hex":"#3366ff99","correct":-1,"choice":32,"rt":527.3800000140909,"accuracy":0,"outcome":"+1","keys":[2027.8749999997672],"total_keys":1,"block":2,"trial":141,"stimulus":1,"robot":2,"valence":"win","action":"no-go","sham":0,"trial_type":"pit-trial","trial_index":175,"time_elapsed":694495,"internal_node_id":"0.0-147.0","task_version":"battery-v0.2-trt","session":3},{"rune":"Q","rune_set":"elianto","hex":"#3366ff99","correct":-1,"choice":-1,"rt":-1,"accuracy":1,"outcome":"+10","keys":[],"total_keys":0,"block":2,"trial":142,"stimulus":0,"robot":2,"valence":"win","action":"no-go","sham":0,"trial_type":"pit-trial","trial_index":176,"time_elapsed":698499,"internal_node_id":"0.0-148.0","task_version":"battery-v0.2-trt","session":3},{"rune":"F","rune_set":"elianto","hex":"#3366ff99","correct":32,"choice":32,"rt":473.7099999911152,"accuracy":1,"outcome":"+1","keys":[1974.2799999949057],"total_keys":1,"block":2,"trial":143,"stimulus":2,"robot":1,"valence":"win","action":"go","sham":1,"trial_type":"pit-trial","trial_index":177,"time_elapsed":701676,"internal_node_id":"0.0-149.0","task_version":"battery-v0.2-trt","session":3},{"rune":"X","rune_set":"elianto","hex":"#f73b6a7A","correct":32,"choice":32,"rt":652.9949999821838,"accuracy":1,"outcome":"-1","keys":[2153.0799999891315],"total_keys":1,"block":2,"trial":144,"stimulus":3,"robot":3,"valence":"lose","action":"go","sham":0,"trial_type":"pit-trial","trial_index":178,"time_elapsed":705033,"internal_node_id":"0.0-150.0","task_version":"battery-v0.2-trt","session":3},{"rune":"X","rune_set":"elianto","hex":"#f73b6a7A","correct":32,"choice":32,"rt":417.8599999868311,"accuracy":1,"outcome":"-10","keys":[1918.5099999886006],"total_keys":1,"block":2,"trial":145,"stimulus":3,"robot":3,"valence":"lose","action":"go","sham":1,"trial_type":"pit-trial","trial_index":179,"time_elapsed":708156,"internal_node_id":"0.0-151.0","task_version":"battery-v0.2-trt","session":3},{"rune":"F","rune_set":"elianto","hex":"#3366ff99","correct":32,"choice":32,"rt":477.679999981774,"accuracy":1,"outcome":"+10","keys":[1979.4850000180304],"total_keys":1,"block":2,"trial":146,"stimulus":2,"robot":1,"valence":"win","action":"go","sham":0,"trial_type":"pit-trial","trial_index":180,"time_elapsed":711339,"internal_node_id":"0.0-152.0","task_version":"battery-v0.2-trt","session":3},{"rune":"N","rune_set":"elianto","hex":"#3366ff99","correct":-1,"choice":32,"rt":656.9650000019465,"accuracy":0,"outcome":"+1","keys":[2157.905000000028],"total_keys":1,"block":2,"trial":147,"stimulus":1,"robot":2,"valence":"win","action":"no-go","sham":0,"trial_type":"pit-trial","trial_index":181,"time_elapsed":714700,"internal_node_id":"0.0-153.0","task_version":"battery-v0.2-trt","session":3},{"rune":"Q","rune_set":"elianto","hex":"#3366ff99","correct":-1,"choice":-1,"rt":-1,"accuracy":1,"outcome":"+1","keys":[],"total_keys":0,"block":2,"trial":148,"stimulus":0,"robot":2,"valence":"win","action":"no-go","sham":1,"trial_type":"pit-trial","trial_index":182,"time_elapsed":718705,"internal_node_id":"0.0-154.0","task_version":"battery-v0.2-trt","session":3},{"rune":"F","rune_set":"elianto","hex":"#3366ff99","correct":32,"choice":32,"rt":357.7649999933783,"accuracy":1,"outcome":"+1","keys":[1858.299999992596],"total_keys":1,"block":2,"trial":149,"stimulus":2,"robot":1,"valence":"win","action":"go","sham":1,"trial_type":"pit-trial","trial_index":183,"time_elapsed":721769,"internal_node_id":"0.0-155.0","task_version":"battery-v0.2-trt","session":3},{"rune":"X","rune_set":"elianto","hex":"#f73b6a7A","correct":32,"choice":32,"rt":599.8050000052899,"accuracy":1,"outcome":"-1","keys":[2100.7099999987986],"total_keys":1,"block":2,"trial":150,"stimulus":3,"robot":3,"valence":"lose","action":"go","sham":0,"trial_type":"pit-trial","trial_index":184,"time_elapsed":725073,"internal_node_id":"0.0-156.0","task_version":"battery-v0.2-trt","session":3},{"rune":"Q","rune_set":"elianto","hex":"#3366ff99","correct":-1,"choice":-1,"rt":-1,"accuracy":1,"outcome":"+10","keys":[],"total_keys":0,"block":2,"trial":151,"stimulus":0,"robot":2,"valence":"win","action":"no-go","sham":0,"trial_type":"pit-trial","trial_index":185,"time_elapsed":729078,"internal_node_id":"0.0-157.0","task_version":"battery-v0.2-trt","session":3},{"rune":"N","rune_set":"elianto","hex":"#3366ff99","correct":-1,"choice":32,"rt":743.9249999879394,"accuracy":0,"outcome":"+10","keys":[2246.8450000160374],"total_keys":1,"block":2,"trial":152,"stimulus":1,"robot":2,"valence":"win","action":"no-go","sham":1,"trial_type":"pit-trial","trial_index":186,"time_elapsed":732528,"internal_node_id":"0.0-158.0","task_version":"battery-v0.2-trt","session":3},{"rune":"F","rune_set":"elianto","hex":"#3366ff99","correct":32,"choice":32,"rt":482.77500001131557,"accuracy":1,"outcome":"+10","keys":[1984.5950000162702],"total_keys":1,"block":2,"trial":153,"stimulus":2,"robot":1,"valence":"win","action":"go","sham":0,"trial_type":"pit-trial","trial_index":187,"time_elapsed":735716,"internal_node_id":"0.0-159.0","task_version":"battery-v0.2-trt","session":3},{"rune":"Q","rune_set":"elianto","hex":"#3366ff99","correct":-1,"choice":-1,"rt":-1,"accuracy":1,"outcome":"+1","keys":[],"total_keys":0,"block":2,"trial":154,"stimulus":0,"robot":2,"valence":"win","action":"no-go","sham":1,"trial_type":"pit-trial","trial_index":188,"time_elapsed":739721,"internal_node_id":"0.0-160.0","task_version":"battery-v0.2-trt","session":3},{"rune":"B","rune_set":"elianto","hex":"#f73b6a7A","correct":32,"choice":32,"rt":586.5500000072643,"accuracy":1,"outcome":"-1","keys":[2087.004999979399],"total_keys":1,"block":2,"trial":155,"stimulus":5,"robot":3,"valence":"lose","action":"go","sham":0,"trial_type":"pit-trial","trial_index":189,"time_elapsed":743011,"internal_node_id":"0.0-161.0","task_version":"battery-v0.2-trt","session":3},{"rune":"T","rune_set":"elianto","hex":"#f73b6a7A","correct":-1,"choice":32,"rt":508.44999999389984,"accuracy":0,"outcome":"-10","keys":[2009.2799999983981],"total_keys":1,"block":2,"trial":156,"stimulus":4,"robot":4,"valence":"lose","action":"no-go","sham":0,"trial_type":"pit-trial","trial_index":190,"time_elapsed":746223,"internal_node_id":"0.0-162.0","task_version":"battery-v0.2-trt","session":3},{"rune":"F","rune_set":"elianto","hex":"#3366ff99","correct":32,"choice":32,"rt":698.8399999972899,"accuracy":1,"outcome":"+1","keys":[2199.6049999725074],"total_keys":1,"block":2,"trial":157,"stimulus":2,"robot":1,"valence":"win","action":"go","sham":1,"trial_type":"pit-trial","trial_index":191,"time_elapsed":749627,"internal_node_id":"0.0-163.0","task_version":"battery-v0.2-trt","session":3},{"rune":"Q","rune_set":"elianto","hex":"#3366ff99","correct":-1,"choice":-1,"rt":-1,"accuracy":1,"outcome":"+10","keys":[],"total_keys":0,"block":2,"trial":158,"stimulus":0,"robot":2,"valence":"win","action":"no-go","sham":0,"trial_type":"pit-trial","trial_index":192,"time_elapsed":753630,"internal_node_id":"0.0-164.0","task_version":"battery-v0.2-trt","session":3},{"rune":"T","rune_set":"elianto","hex":"#f73b6a7A","correct":-1,"choice":32,"rt":577.4700000183657,"accuracy":0,"outcome":"-1","keys":[2077.965000004042],"total_keys":1,"block":2,"trial":159,"stimulus":4,"robot":4,"valence":"lose","action":"no-go","sham":1,"trial_type":"pit-trial","trial_index":193,"time_elapsed":756911,"internal_node_id":"0.0-165.0","task_version":"battery-v0.2-trt","session":3},{"rune":"B","rune_set":"elianto","hex":"#f73b6a7A","correct":32,"choice":32,"rt":776.1600000085309,"accuracy":1,"outcome":"-1","keys":[2277.189999993425],"total_keys":1,"block":2,"trial":160,"stimulus":5,"robot":3,"valence":"lose","action":"go","sham":0,"trial_type":"pit-trial","trial_index":194,"time_elapsed":760392,"internal_node_id":"0.0-166.0","task_version":"battery-v0.2-trt","session":3},{"rune":"F","rune_set":"elianto","hex":"#3366ff99","correct":32,"choice":-1,"rt":-1,"accuracy":0,"outcome":"+10","keys":[],"total_keys":0,"block":2,"trial":161,"stimulus":2,"robot":1,"valence":"win","action":"go","sham":1,"trial_type":"pit-trial","trial_index":195,"time_elapsed":764397,"internal_node_id":"0.0-167.0","task_version":"battery-v0.2-trt","session":3},{"rune":"B","rune_set":"elianto","hex":"#f73b6a7A","correct":32,"choice":32,"rt":727.195000014035,"accuracy":1,"outcome":"-10","keys":[2227.8000000223983],"total_keys":1,"block":2,"trial":162,"stimulus":5,"robot":3,"valence":"lose","action":"go","sham":1,"trial_type":"pit-trial","trial_index":196,"time_elapsed":767828,"internal_node_id":"0.0-168.0","task_version":"battery-v0.2-trt","session":3},{"rune":"T","rune_set":"elianto","hex":"#f73b6a7A","correct":-1,"choice":32,"rt":483.18499999004416,"accuracy":0,"outcome":"-1","keys":[1983.2350000215229],"total_keys":1,"block":2,"trial":163,"stimulus":4,"robot":4,"valence":"lose","action":"no-go","sham":1,"trial_type":"pit-trial","trial_index":197,"time_elapsed":771015,"internal_node_id":"0.0-169.0","task_version":"battery-v0.2-trt","session":3},{"rune":"C","rune_set":"elianto","hex":"#3366ff99","correct":-1,"choice":32,"rt":711.3050000043586,"accuracy":0,"outcome":"+1","keys":[2211.3550000067335],"total_keys":1,"block":2,"trial":164,"stimulus":6,"robot":2,"valence":"win","action":"no-go","sham":0,"trial_type":"pit-trial","trial_index":198,"time_elapsed":774429,"internal_node_id":"0.0-170.0","task_version":"battery-v0.2-trt","session":3},{"rune":"T","rune_set":"elianto","hex":"#f73b6a7A","correct":-1,"choice":32,"rt":723.3650000125635,"accuracy":0,"outcome":"-10","keys":[2224.244999990333],"total_keys":1,"block":2,"trial":165,"stimulus":4,"robot":4,"valence":"lose","action":"no-go","sham":0,"trial_type":"pit-trial","trial_index":199,"time_elapsed":777858,"internal_node_id":"0.0-171.0","task_version":"battery-v0.2-trt","session":3},{"rune":"B","rune_set":"elianto","hex":"#f73b6a7A","correct":32,"choice":32,"rt":930.5699999968056,"accuracy":1,"outcome":"-10","keys":[2430.6849999993574],"total_keys":1,"block":2,"trial":166,"stimulus":5,"robot":3,"valence":"lose","action":"go","sham":1,"trial_type":"pit-trial","trial_index":200,"time_elapsed":781491,"internal_node_id":"0.0-172.0","task_version":"battery-v0.2-trt","session":3},{"rune":"C","rune_set":"elianto","hex":"#3366ff99","correct":-1,"choice":32,"rt":632.9050000058487,"accuracy":0,"outcome":"+1","keys":[2133.5700000054203],"total_keys":1,"block":2,"trial":167,"stimulus":6,"robot":2,"valence":"win","action":"no-go","sham":0,"trial_type":"pit-trial","trial_index":201,"time_elapsed":784827,"internal_node_id":"0.0-173.0","task_version":"battery-v0.2-trt","session":3},{"rune":"F","rune_set":"elianto","hex":"#3366ff99","correct":32,"choice":32,"rt":677.5999999954365,"accuracy":1,"outcome":"+10","keys":[2178.475000022445],"total_keys":1,"block":2,"trial":168,"stimulus":2,"robot":1,"valence":"win","action":"go","sham":0,"trial_type":"pit-trial","trial_index":202,"time_elapsed":788209,"internal_node_id":"0.0-174.0","task_version":"battery-v0.2-trt","session":3},{"rune":"C","rune_set":"elianto","hex":"#3366ff99","correct":-1,"choice":-1,"rt":-1,"accuracy":1,"outcome":"+1","keys":[],"total_keys":0,"block":2,"trial":169,"stimulus":6,"robot":2,"valence":"win","action":"no-go","sham":1,"trial_type":"pit-trial","trial_index":203,"time_elapsed":792213,"internal_node_id":"0.0-175.0","task_version":"battery-v0.2-trt","session":3},{"rune":"Z","rune_set":"elianto","hex":"#f73b6a7A","correct":-1,"choice":32,"rt":496.60499999299645,"accuracy":0,"outcome":"-10","keys":[1998.4300000069197],"total_keys":1,"block":2,"trial":170,"stimulus":7,"robot":4,"valence":"lose","action":"no-go","sham":0,"trial_type":"pit-trial","trial_index":204,"time_elapsed":795415,"internal_node_id":"0.0-176.0","task_version":"battery-v0.2-trt","session":3},{"rune":"T","rune_set":"elianto","hex":"#f73b6a7A","correct":-1,"choice":32,"rt":509.00499999988824,"accuracy":0,"outcome":"-1","keys":[2009.6100000082515],"total_keys":1,"block":2,"trial":171,"stimulus":4,"robot":4,"valence":"lose","action":"no-go","sham":1,"trial_type":"pit-trial","trial_index":205,"time_elapsed":798629,"internal_node_id":"0.0-177.0","task_version":"battery-v0.2-trt","session":3},{"rune":"B","rune_set":"elianto","hex":"#f73b6a7A","correct":32,"choice":32,"rt":500.82499999552965,"accuracy":1,"outcome":"-1","keys":[2001.4749999972992],"total_keys":1,"block":2,"trial":172,"stimulus":5,"robot":3,"valence":"lose","action":"go","sham":0,"trial_type":"pit-trial","trial_index":206,"time_elapsed":801833,"internal_node_id":"0.0-178.0","task_version":"battery-v0.2-trt","session":3},{"rune":"B","rune_set":"elianto","hex":"#f73b6a7A","correct":32,"choice":32,"rt":449.7949999931734,"accuracy":1,"outcome":"-1","keys":[1950.700000015786],"total_keys":1,"block":2,"trial":173,"stimulus":5,"robot":3,"valence":"lose","action":"go","sham":0,"trial_type":"pit-trial","trial_index":207,"time_elapsed":804988,"internal_node_id":"0.0-179.0","task_version":"battery-v0.2-trt","session":3},{"rune":"Z","rune_set":"elianto","hex":"#f73b6a7A","correct":-1,"choice":32,"rt":548.1199999921955,"accuracy":0,"outcome":"-10","keys":[2048.2800000172574],"total_keys":1,"block":2,"trial":174,"stimulus":7,"robot":4,"valence":"lose","action":"no-go","sham":0,"trial_type":"pit-trial","trial_index":208,"time_elapsed":808239,"internal_node_id":"0.0-180.0","task_version":"battery-v0.2-trt","session":3},{"rune":"T","rune_set":"elianto","hex":"#f73b6a7A","correct":-1,"choice":32,"rt":443.30499999341555,"accuracy":0,"outcome":"-10","keys":[1944.229999993695],"total_keys":1,"block":2,"trial":175,"stimulus":4,"robot":4,"valence":"lose","action":"no-go","sham":0,"trial_type":"pit-trial","trial_index":209,"time_elapsed":811386,"internal_node_id":"0.0-181.0","task_version":"battery-v0.2-trt","session":3},{"rune":"C","rune_set":"elianto","hex":"#3366ff99","correct":-1,"choice":32,"rt":776.1999999929685,"accuracy":0,"outcome":"+1","keys":[2277.9049999953713],"total_keys":1,"block":2,"trial":176,"stimulus":6,"robot":2,"valence":"win","action":"no-go","sham":0,"trial_type":"pit-trial","trial_index":210,"time_elapsed":814867,"internal_node_id":"0.0-182.0","task_version":"battery-v0.2-trt","session":3},{"rune":"C","rune_set":"elianto","hex":"#3366ff99","correct":-1,"choice":-1,"rt":-1,"accuracy":1,"outcome":"+10","keys":[],"total_keys":0,"block":2,"trial":177,"stimulus":6,"robot":2,"valence":"win","action":"no-go","sham":0,"trial_type":"pit-trial","trial_index":211,"time_elapsed":818870,"internal_node_id":"0.0-183.0","task_version":"battery-v0.2-trt","session":3},{"rune":"T","rune_set":"elianto","hex":"#f73b6a7A","correct":-1,"choice":32,"rt":517.874999990454,"accuracy":0,"outcome":"-10","keys":[2018.51500000339],"total_keys":1,"block":2,"trial":178,"stimulus":4,"robot":4,"valence":"lose","action":"no-go","sham":0,"trial_type":"pit-trial","trial_index":212,"time_elapsed":822091,"internal_node_id":"0.0-184.0","task_version":"battery-v0.2-trt","session":3},{"rune":"Z","rune_set":"elianto","hex":"#f73b6a7A","correct":-1,"choice":32,"rt":443.715000001248,"accuracy":0,"outcome":"-10","keys":[1945.0200000137556],"total_keys":1,"block":2,"trial":179,"stimulus":7,"robot":4,"valence":"lose","action":"no-go","sham":0,"trial_type":"pit-trial","trial_index":213,"time_elapsed":825240,"internal_node_id":"0.0-185.0","task_version":"battery-v0.2-trt","session":3},{"rune":"B","rune_set":"elianto","hex":"#f73b6a7A","correct":32,"choice":32,"rt":434.04000002192333,"accuracy":1,"outcome":"-1","keys":[1934.5049999828916],"total_keys":1,"block":2,"trial":180,"stimulus":5,"robot":3,"valence":"lose","action":"go","sham":0,"trial_type":"pit-trial","trial_index":214,"time_elapsed":828379,"internal_node_id":"0.0-186.0","task_version":"battery-v0.2-trt","session":3},{"rune":"T","rune_set":"elianto","hex":"#f73b6a7A","correct":-1,"choice":32,"rt":626.3449999969453,"accuracy":0,"outcome":"-10","keys":[2127.005000016652],"total_keys":1,"block":2,"trial":181,"stimulus":4,"robot":4,"valence":"lose","action":"no-go","sham":0,"trial_type":"pit-trial","trial_index":215,"time_elapsed":831709,"internal_node_id":"0.0-187.0","task_version":"battery-v0.2-trt","session":3},{"rune":"B","rune_set":"elianto","hex":"#f73b6a7A","correct":32,"choice":32,"rt":409.14000000339,"accuracy":1,"outcome":"-1","keys":[1909.334999974817],"total_keys":1,"block":2,"trial":182,"stimulus":5,"robot":3,"valence":"lose","action":"go","sham":0,"trial_type":"pit-trial","trial_index":216,"time_elapsed":834823,"internal_node_id":"0.0-188.0","task_version":"battery-v0.2-trt","session":3},{"rune":"Z","rune_set":"elianto","hex":"#f73b6a7A","correct":-1,"choice":32,"rt":466.8850000016391,"accuracy":0,"outcome":"-10","keys":[1968.075000011595],"total_keys":1,"block":2,"trial":183,"stimulus":7,"robot":4,"valence":"lose","action":"no-go","sham":0,"trial_type":"pit-trial","trial_index":217,"time_elapsed":837994,"internal_node_id":"0.0-189.0","task_version":"battery-v0.2-trt","session":3},{"rune":"C","rune_set":"elianto","hex":"#3366ff99","correct":-1,"choice":-1,"rt":-1,"accuracy":1,"outcome":"+10","keys":[],"total_keys":0,"block":2,"trial":184,"stimulus":6,"robot":2,"valence":"win","action":"no-go","sham":0,"trial_type":"pit-trial","trial_index":218,"time_elapsed":841997,"internal_node_id":"0.0-190.0","task_version":"battery-v0.2-trt","session":3},{"rune":"B","rune_set":"elianto","hex":"#f73b6a7A","correct":32,"choice":32,"rt":534.0900000010151,"accuracy":1,"outcome":"-1","keys":[2034.5450000022538],"total_keys":1,"block":2,"trial":185,"stimulus":5,"robot":3,"valence":"lose","action":"go","sham":0,"trial_type":"pit-trial","trial_index":219,"time_elapsed":845235,"internal_node_id":"0.0-191.0","task_version":"battery-v0.2-trt","session":3},{"rune":"C","rune_set":"elianto","hex":"#3366ff99","correct":-1,"choice":-1,"rt":-1,"accuracy":1,"outcome":"+10","keys":[],"total_keys":0,"block":2,"trial":186,"stimulus":6,"robot":2,"valence":"win","action":"no-go","sham":0,"trial_type":"pit-trial","trial_index":220,"time_elapsed":849239,"internal_node_id":"0.0-192.0","task_version":"battery-v0.2-trt","session":3},{"rune":"T","rune_set":"elianto","hex":"#f73b6a7A","correct":-1,"choice":32,"rt":558.7899999809451,"accuracy":0,"outcome":"-10","keys":[2061.6700000246055],"total_keys":1,"block":2,"trial":187,"stimulus":4,"robot":4,"valence":"lose","action":"no-go","sham":0,"trial_type":"pit-trial","trial_index":221,"time_elapsed":852505,"internal_node_id":"0.0-193.0","task_version":"battery-v0.2-trt","session":3},{"rune":"Z","rune_set":"elianto","hex":"#f73b6a7A","correct":-1,"choice":32,"rt":443.5149999917485,"accuracy":0,"outcome":"-10","keys":[1944.3750000209548],"total_keys":1,"block":2,"trial":188,"stimulus":7,"robot":4,"valence":"lose","action":"no-go","sham":0,"trial_type":"pit-trial","trial_index":222,"time_elapsed":855653,"internal_node_id":"0.0-194.0","task_version":"battery-v0.2-trt","session":3},{"rune":"T","rune_set":"elianto","hex":"#f73b6a7A","correct":-1,"choice":32,"rt":621.145000011893,"accuracy":0,"outcome":"-10","keys":[2122.1499999810476],"total_keys":1,"block":2,"trial":189,"stimulus":4,"robot":4,"valence":"lose","action":"no-go","sham":0,"trial_type":"pit-trial","trial_index":223,"time_elapsed":858979,"internal_node_id":"0.0-195.0","task_version":"battery-v0.2-trt","session":3},{"rune":"C","rune_set":"elianto","hex":"#3366ff99","correct":-1,"choice":-1,"rt":-1,"accuracy":1,"outcome":"+1","keys":[],"total_keys":0,"block":2,"trial":190,"stimulus":6,"robot":2,"valence":"win","action":"no-go","sham":1,"trial_type":"pit-trial","trial_index":224,"time_elapsed":862983,"internal_node_id":"0.0-196.0","task_version":"battery-v0.2-trt","session":3},{"rune":"Z","rune_set":"elianto","hex":"#f73b6a7A","correct":-1,"choice":32,"rt":527.5449999899138,"accuracy":0,"outcome":"-10","keys":[2027.6399999856949],"total_keys":1,"block":2,"trial":191,"stimulus":7,"robot":4,"valence":"lose","action":"no-go","sham":0,"trial_type":"pit-trial","trial_index":225,"time_elapsed":866215,"internal_node_id":"0.0-197.0","task_version":"battery-v0.2-trt","session":3},{"rune":"B","rune_set":"elianto","hex":"#f73b6a7A","correct":32,"choice":32,"rt":463.42999997432344,"accuracy":1,"outcome":"-10","keys":[1963.4950000036042],"total_keys":1,"block":2,"trial":192,"stimulus":5,"robot":3,"valence":"lose","action":"go","sham":1,"trial_type":"pit-trial","trial_index":226,"time_elapsed":869382,"internal_node_id":"0.0-198.0","task_version":"battery-v0.2-trt","session":3},{"rune":"H","rune_set":"elianto","hex":"#f73b6a7A","correct":-1,"choice":32,"rt":567.6800000073854,"accuracy":0,"outcome":"-10","keys":[2068.2899999956135],"total_keys":1,"block":2,"trial":193,"stimulus":8,"robot":4,"valence":"lose","action":"no-go","sham":0,"trial_type":"pit-trial","trial_index":227,"time_elapsed":872654,"internal_node_id":"0.0-199.0","task_version":"battery-v0.2-trt","session":3},{"rune":"Z","rune_set":"elianto","hex":"#f73b6a7A","correct":-1,"choice":32,"rt":482.53000000840984,"accuracy":0,"outcome":"-10","keys":[1982.9000000027008],"total_keys":1,"block":2,"trial":194,"stimulus":7,"robot":4,"valence":"lose","action":"no-go","sham":0,"trial_type":"pit-trial","trial_index":228,"time_elapsed":875840,"internal_node_id":"0.0-200.0","task_version":"battery-v0.2-trt","session":3},{"rune":"B","rune_set":"elianto","hex":"#f73b6a7A","correct":32,"choice":32,"rt":572.9899999860208,"accuracy":1,"outcome":"-10","keys":[2073.919999995269],"total_keys":1,"block":2,"trial":195,"stimulus":5,"robot":3,"valence":"lose","action":"go","sham":1,"trial_type":"pit-trial","trial_index":229,"time_elapsed":879117,"internal_node_id":"0.0-201.0","task_version":"battery-v0.2-trt","session":3},{"rune":"C","rune_set":"elianto","hex":"#3366ff99","correct":-1,"choice":-1,"rt":-1,"accuracy":1,"outcome":"+1","keys":[],"total_keys":0,"block":2,"trial":196,"stimulus":6,"robot":2,"valence":"win","action":"no-go","sham":1,"trial_type":"pit-trial","trial_index":230,"time_elapsed":883121,"internal_node_id":"0.0-202.0","task_version":"battery-v0.2-trt","session":3},{"rune":"C","rune_set":"elianto","hex":"#3366ff99","correct":-1,"choice":32,"rt":393.66500001051463,"accuracy":0,"outcome":"+1","keys":[1894.68999998644],"total_keys":1,"block":2,"trial":197,"stimulus":6,"robot":2,"valence":"win","action":"no-go","sham":0,"trial_type":"pit-trial","trial_index":231,"time_elapsed":886219,"internal_node_id":"0.0-203.0","task_version":"battery-v0.2-trt","session":3},{"rune":"Z","rune_set":"elianto","hex":"#f73b6a7A","correct":-1,"choice":32,"rt":538.090000016382,"accuracy":0,"outcome":"-1","keys":[2038.7449999980163],"total_keys":1,"block":2,"trial":198,"stimulus":7,"robot":4,"valence":"lose","action":"no-go","sham":1,"trial_type":"pit-trial","trial_index":232,"time_elapsed":889461,"internal_node_id":"0.0-204.0","task_version":"battery-v0.2-trt","session":3},{"rune":"H","rune_set":"elianto","hex":"#f73b6a7A","correct":-1,"choice":32,"rt":567.6749999984168,"accuracy":0,"outcome":"-1","keys":[2068.6099999875296,2316.8149999983143],"total_keys":2,"block":2,"trial":199,"stimulus":8,"robot":4,"valence":"lose","action":"no-go","sham":1,"trial_type":"pit-trial","trial_index":233,"time_elapsed":892734,"internal_node_id":"0.0-205.0","task_version":"battery-v0.2-trt","session":3},{"rune":"B","rune_set":"elianto","hex":"#f73b6a7A","correct":32,"choice":32,"rt":383.54000000981614,"accuracy":1,"outcome":"-1","keys":[1883.6650000012014],"total_keys":1,"block":2,"trial":200,"stimulus":5,"robot":3,"valence":"lose","action":"go","sham":0,"trial_type":"pit-trial","trial_index":234,"time_elapsed":895822,"internal_node_id":"0.0-206.0","task_version":"battery-v0.2-trt","session":3},{"rune":"C","rune_set":"elianto","hex":"#3366ff99","correct":-1,"choice":-1,"rt":-1,"accuracy":1,"outcome":"+10","keys":[],"total_keys":0,"block":2,"trial":201,"stimulus":6,"robot":2,"valence":"win","action":"no-go","sham":0,"trial_type":"pit-trial","trial_index":235,"time_elapsed":899827,"internal_node_id":"0.0-207.0","task_version":"battery-v0.2-trt","session":3},{"rune":"Y","rune_set":"elianto","hex":"#3366ff99","correct":32,"choice":32,"rt":451.02000000770204,"accuracy":1,"outcome":"+10","keys":[1951.5600000158884],"total_keys":1,"block":2,"trial":202,"stimulus":9,"robot":1,"valence":"win","action":"go","sham":0,"trial_type":"pit-trial","trial_index":236,"time_elapsed":902982,"internal_node_id":"0.0-208.0","task_version":"battery-v0.2-trt","session":3},{"rune":"H","rune_set":"elianto","hex":"#f73b6a7A","correct":-1,"choice":32,"rt":702.0349999947939,"accuracy":0,"outcome":"-10","keys":[2202.270000008866],"total_keys":1,"block":2,"trial":203,"stimulus":8,"robot":4,"valence":"lose","action":"no-go","sham":0,"trial_type":"pit-trial","trial_index":237,"time_elapsed":906389,"internal_node_id":"0.0-209.0","task_version":"battery-v0.2-trt","session":3},{"rune":"R","rune_set":"elianto","hex":"#f73b6a7A","correct":32,"choice":32,"rt":506.8350000074133,"accuracy":1,"outcome":"-1","keys":[2008.6049999808893],"total_keys":1,"block":2,"trial":204,"stimulus":10,"robot":3,"valence":"lose","action":"go","sham":0,"trial_type":"pit-trial","trial_index":238,"time_elapsed":909600,"internal_node_id":"0.0-210.0","task_version":"battery-v0.2-trt","session":3},{"rune":"R","rune_set":"elianto","hex":"#f73b6a7A","correct":32,"choice":32,"rt":424.3000000133179,"accuracy":1,"outcome":"-1","keys":[1924.8599999991711],"total_keys":1,"block":2,"trial":205,"stimulus":10,"robot":3,"valence":"lose","action":"go","sham":0,"trial_type":"pit-trial","trial_index":239,"time_elapsed":912728,"internal_node_id":"0.0-211.0","task_version":"battery-v0.2-trt","session":3},{"rune":"H","rune_set":"elianto","hex":"#f73b6a7A","correct":-1,"choice":32,"rt":672.164999996312,"accuracy":0,"outcome":"-10","keys":[2172.279999998864],"total_keys":1,"block":2,"trial":206,"stimulus":8,"robot":4,"valence":"lose","action":"no-go","sham":0,"trial_type":"pit-trial","trial_index":240,"time_elapsed":916104,"internal_node_id":"0.0-212.0","task_version":"battery-v0.2-trt","session":3},{"rune":"Y","rune_set":"elianto","hex":"#3366ff99","correct":32,"choice":32,"rt":449.0200000000186,"accuracy":1,"outcome":"+1","keys":[1950.089999998454],"total_keys":1,"block":2,"trial":207,"stimulus":9,"robot":1,"valence":"win","action":"go","sham":1,"trial_type":"pit-trial","trial_index":241,"time_elapsed":919258,"internal_node_id":"0.0-213.0","task_version":"battery-v0.2-trt","session":3},{"rune":"C","rune_set":"elianto","hex":"#3366ff99","correct":-1,"choice":-1,"rt":-1,"accuracy":1,"outcome":"+10","keys":[],"total_keys":0,"block":2,"trial":208,"stimulus":6,"robot":2,"valence":"win","action":"no-go","sham":0,"trial_type":"pit-trial","trial_index":242,"time_elapsed":923264,"internal_node_id":"0.0-214.0","task_version":"battery-v0.2-trt","session":3},{"rune":"Y","rune_set":"elianto","hex":"#3366ff99","correct":32,"choice":32,"rt":602.8149999910966,"accuracy":1,"outcome":"+10","keys":[2104.4399999955203],"total_keys":1,"block":2,"trial":209,"stimulus":9,"robot":1,"valence":"win","action":"go","sham":0,"trial_type":"pit-trial","trial_index":243,"time_elapsed":926571,"internal_node_id":"0.0-215.0","task_version":"battery-v0.2-trt","session":3},{"rune":"M","rune_set":"elianto","hex":"#3366ff99","correct":32,"choice":32,"rt":558.5600000049453,"accuracy":1,"outcome":"+10","keys":[2059.290000004694],"total_keys":1,"block":2,"trial":210,"stimulus":11,"robot":1,"valence":"win","action":"go","sham":0,"trial_type":"pit-trial","trial_index":244,"time_elapsed":929833,"internal_node_id":"0.0-216.0","task_version":"battery-v0.2-trt","session":3},{"rune":"R","rune_set":"elianto","hex":"#f73b6a7A","correct":32,"choice":32,"rt":710.7149999937974,"accuracy":1,"outcome":"-1","keys":[2211.5950000006706],"total_keys":1,"block":2,"trial":211,"stimulus":10,"robot":3,"valence":"lose","action":"go","sham":0,"trial_type":"pit-trial","trial_index":245,"time_elapsed":933249,"internal_node_id":"0.0-217.0","task_version":"battery-v0.2-trt","session":3},{"rune":"H","rune_set":"elianto","hex":"#f73b6a7A","correct":-1,"choice":32,"rt":584.2000000120606,"accuracy":0,"outcome":"-10","keys":[2084.5749999862164],"total_keys":1,"block":2,"trial":212,"stimulus":8,"robot":4,"valence":"lose","action":"no-go","sham":0,"trial_type":"pit-trial","trial_index":246,"time_elapsed":936538,"internal_node_id":"0.0-218.0","task_version":"battery-v0.2-trt","session":3},{"rune":"R","rune_set":"elianto","hex":"#f73b6a7A","correct":32,"choice":32,"rt":452.6450000121258,"accuracy":1,"outcome":"-1","keys":[1952.770000003511],"total_keys":1,"block":2,"trial":213,"stimulus":10,"robot":3,"valence":"lose","action":"go","sham":0,"trial_type":"pit-trial","trial_index":247,"time_elapsed":939693,"internal_node_id":"0.0-219.0","task_version":"battery-v0.2-trt","session":3},{"rune":"M","rune_set":"elianto","hex":"#3366ff99","correct":32,"choice":32,"rt":703.7049999926239,"accuracy":1,"outcome":"+10","keys":[2204.055000009248],"total_keys":1,"block":2,"trial":214,"stimulus":11,"robot":1,"valence":"win","action":"go","sham":0,"trial_type":"pit-trial","trial_index":248,"time_elapsed":943101,"internal_node_id":"0.0-220.0","task_version":"battery-v0.2-trt","session":3},{"rune":"H","rune_set":"elianto","hex":"#f73b6a7A","correct":-1,"choice":32,"rt":677.1650000009686,"accuracy":0,"outcome":"-1","keys":[2177.384999988135],"total_keys":1,"block":2,"trial":215,"stimulus":8,"robot":4,"valence":"lose","action":"no-go","sham":1,"trial_type":"pit-trial","trial_index":249,"time_elapsed":946482,"internal_node_id":"0.0-221.0","task_version":"battery-v0.2-trt","session":3},{"rune":"Y","rune_set":"elianto","hex":"#3366ff99","correct":32,"choice":32,"rt":573.4700000029989,"accuracy":1,"outcome":"+10","keys":[2074.0200000000186],"total_keys":1,"block":2,"trial":216,"stimulus":9,"robot":1,"valence":"win","action":"go","sham":0,"trial_type":"pit-trial","trial_index":250,"time_elapsed":949759,"internal_node_id":"0.0-222.0","task_version":"battery-v0.2-trt","session":3},{"rune":"Y","rune_set":"elianto","hex":"#3366ff99","correct":32,"choice":32,"rt":491.94000000716187,"accuracy":1,"outcome":"+10","keys":[1993.4899999934714],"total_keys":1,"block":2,"trial":217,"stimulus":9,"robot":1,"valence":"win","action":"go","sham":0,"trial_type":"pit-trial","trial_index":251,"time_elapsed":952957,"internal_node_id":"0.0-223.0","task_version":"battery-v0.2-trt","session":3},{"rune":"H","rune_set":"elianto","hex":"#f73b6a7A","correct":-1,"choice":32,"rt":617.0550000097137,"accuracy":0,"outcome":"-10","keys":[2117.645000020275],"total_keys":1,"block":2,"trial":218,"stimulus":8,"robot":4,"valence":"lose","action":"no-go","sham":0,"trial_type":"pit-trial","trial_index":252,"time_elapsed":956278,"internal_node_id":"0.0-224.0","task_version":"battery-v0.2-trt","session":3},{"rune":"R","rune_set":"elianto","hex":"#f73b6a7A","correct":32,"choice":32,"rt":562.610000022687,"accuracy":1,"outcome":"-1","keys":[2063.5500000207685],"total_keys":1,"block":2,"trial":219,"stimulus":10,"robot":3,"valence":"lose","action":"go","sham":0,"trial_type":"pit-trial","trial_index":253,"time_elapsed":959545,"internal_node_id":"0.0-225.0","task_version":"battery-v0.2-trt","session":3},{"rune":"M","rune_set":"elianto","hex":"#3366ff99","correct":32,"choice":32,"rt":504.6649999858346,"accuracy":1,"outcome":"+1","keys":[2004.8399999795947],"total_keys":1,"block":2,"trial":220,"stimulus":11,"robot":1,"valence":"win","action":"go","sham":1,"trial_type":"pit-trial","trial_index":254,"time_elapsed":962753,"internal_node_id":"0.0-226.0","task_version":"battery-v0.2-trt","session":3},{"rune":"H","rune_set":"elianto","hex":"#f73b6a7A","correct":-1,"choice":32,"rt":470.53500000038184,"accuracy":0,"outcome":"-10","keys":[1971.2799999979325],"total_keys":1,"block":2,"trial":221,"stimulus":8,"robot":4,"valence":"lose","action":"no-go","sham":0,"trial_type":"pit-trial","trial_index":255,"time_elapsed":965929,"internal_node_id":"0.0-227.0","task_version":"battery-v0.2-trt","session":3},{"rune":"Y","rune_set":"elianto","hex":"#3366ff99","correct":32,"choice":32,"rt":434.0199999860488,"accuracy":1,"outcome":"+1","keys":[1934.7899999993388],"total_keys":1,"block":2,"trial":222,"stimulus":9,"robot":1,"valence":"win","action":"go","sham":1,"trial_type":"pit-trial","trial_index":256,"time_elapsed":969067,"internal_node_id":"0.0-228.0","task_version":"battery-v0.2-trt","session":3},{"rune":"M","rune_set":"elianto","hex":"#3366ff99","correct":32,"choice":32,"rt":417.73499999544583,"accuracy":1,"outcome":"+10","keys":[1918.6700000136625],"total_keys":1,"block":2,"trial":223,"stimulus":11,"robot":1,"valence":"win","action":"go","sham":0,"trial_type":"pit-trial","trial_index":257,"time_elapsed":972189,"internal_node_id":"0.0-229.0","task_version":"battery-v0.2-trt","session":3},{"rune":"R","rune_set":"elianto","hex":"#f73b6a7A","correct":32,"choice":32,"rt":535.0650000036694,"accuracy":1,"outcome":"-1","keys":[2035.7000000076368],"total_keys":1,"block":2,"trial":224,"stimulus":10,"robot":3,"valence":"lose","action":"go","sham":0,"trial_type":"pit-trial","trial_index":258,"time_elapsed":975429,"internal_node_id":"0.0-230.0","task_version":"battery-v0.2-trt","session":3},{"rune":"R","rune_set":"elianto","hex":"#f73b6a7A","correct":32,"choice":32,"rt":611.3750000076834,"accuracy":1,"outcome":"-1","keys":[2112.235000007786],"total_keys":1,"block":2,"trial":225,"stimulus":10,"robot":3,"valence":"lose","action":"go","sham":0,"trial_type":"pit-trial","trial_index":259,"time_elapsed":978744,"internal_node_id":"0.0-231.0","task_version":"battery-v0.2-trt","session":3},{"rune":"Y","rune_set":"elianto","hex":"#3366ff99","correct":32,"choice":32,"rt":531.8649999971967,"accuracy":1,"outcome":"+10","keys":[2032.9649999912363],"total_keys":1,"block":2,"trial":226,"stimulus":9,"robot":1,"valence":"win","action":"go","sham":0,"trial_type":"pit-trial","trial_index":260,"time_elapsed":981981,"internal_node_id":"0.0-232.0","task_version":"battery-v0.2-trt","sess