[{"view_history":"[{\"page_index\":0,\"viewing_time\":3577.0400000037625}]","rt":3578.015000006417,"trial_type":"instructions","trial_index":0,"time_elapsed":3590,"internal_node_id":"0.0-0.0","task_version":"battery-v0.2-trt","session":3},{"slider_type":"valence","raw_loc":598,"loc":0.696,"trial_type":"affective-slider","trial_index":1,"time_elapsed":6562,"internal_node_id":"0.0-1.0","task_version":"battery-v0.2-trt","session":3},{"responses":{"Q07":"0","Q04":"0","Q01":"0","Q02":"0","Q05":"0","Q08":"3","Q06":"0","Q03":"0"},"rt":21332.46999999392,"item_order":[6,3,0,1,4,7,5,2],"radio_events":[4211.02499999688,4963.145000001532,7646.934999997029,10370.809999993071,14598.490000003949,16606.734999993932,19182.5300000055,19942.37499999872],"key_events":[],"mouse_events":[2963.0550000001676,3651.064999998198,4211.02499999688,4963.145000001532,6751.065000004019,7646.934999997029,8846.934999994119,10370.809999993071,14094.719999993686,14598.490000003949,16606.734999993932,19182.5300000055,19942.37499999872,21330.38499999384],"straightlining":0.875,"zigzagging":0.2857142857142857,"survey":"dass_d","trial_type":"survey-template","trial_index":2,"time_elapsed":27901,"internal_node_id":"0.0-2.0","task_version":"battery-v0.2-trt","session":3,"infrequency":0},{"responses":{"Q05":"0","Q01":"0","Q03":"1","Q04":"0","Q02":"0","Q08":"0","Q06":"1","Q07":"0"},"rt":17756.640000006882,"item_order":[4,0,2,3,1,7,5,6],"radio_events":[3207.445000007283,6591.484999997192,7323.56499999878,8531.409999995958,10867.660000003525,11819.224999999278,14443.289999995613,15575.064999997267,17075.1750000054],"key_events":[],"mouse_events":[3207.445000007283,6591.484999997192,7323.56499999878,8531.409999995958,9667.654999997467,10867.660000003525,11819.224999999278,14443.289999995613,15575.064999997267,17075.1750000054,17755.059999995865],"straightlining":0.75,"zigzagging":0.5714285714285714,"survey":"gad7","trial_type":"survey-template","trial_index":3,"time_elapsed":45664,"internal_node_id":"0.0-3.0","task_version":"battery-v0.2-trt","session":3,"infrequency":0},{"view_history":"[{\"page_index\":0,\"viewing_time\":44138.64000000467},{\"page_index\":1,\"viewing_time\":2733.584999994491},{\"page_index\":2,\"viewing_time\":3653.85500001139},{\"page_index\":3,\"viewing_time\":5200.089999998454},{\"page_index\":4,\"viewing_time\":8255.984999996144},{\"page_index\":5,\"viewing_time\":3399.9100000073668},{\"page_index\":6,\"viewing_time\":3119.9499999929685},{\"page_index\":7,\"viewing_time\":10579.870000001392},{\"page_index\":8,\"viewing_time\":6167.929999995977},{\"page_index\":9,\"viewing_time\":5295.830000002752}]","rt":92546.38500000874,"trial_type":"pit-instructions","trial_index":4,"time_elapsed":138212,"internal_node_id":"0.0-4.0-0.0","task_version":"battery-v0.2-trt","session":3},{"rune":"1","rune_set":"elianto","hex":"#3366ff99","correct":32,"choice":32,"rt":642.3499999946216,"accuracy":1,"outcome":"+10","keys":[2143.4100000042235],"total_keys":1,"block":0,"practice":1,"trial_type":"pit-trial","trial_index":5,"time_elapsed":141561,"internal_node_id":"0.0-4.0-1.0-0.0","task_version":"battery-v0.2-trt","session":3},{"rune":"1","rune_set":"elianto","hex":"#3366ff99","correct":32,"choice":32,"rt":666.6350000014063,"accuracy":1,"outcome":"+10","keys":[2167.905000009341],"total_keys":1,"block":0,"practice":1,"trial_type":"pit-trial","trial_index":6,"time_elapsed":144933,"internal_node_id":"0.0-4.0-1.1-0.1","task_version":"battery-v0.2-trt","session":3},{"rune":"1","rune_set":"elianto","hex":"#3366ff99","correct":32,"choice":32,"rt":589.6950000023935,"accuracy":1,"outcome":"+10","keys":[2090.974999999162],"total_keys":1,"block":0,"practice":1,"trial_type":"pit-trial","trial_index":7,"time_elapsed":148227,"internal_node_id":"0.0-4.0-1.2-0.2","task_version":"battery-v0.2-trt","session":3},{"rune":"1","rune_set":"elianto","hex":"#3366ff99","correct":32,"choice":32,"rt":601.3349999993807,"accuracy":1,"outcome":"+10","keys":[2102.3299999942537],"total_keys":1,"block":0,"practice":1,"trial_type":"pit-trial","trial_index":8,"time_elapsed":151532,"internal_node_id":"0.0-4.0-1.3-0.3","task_version":"battery-v0.2-trt","session":3},{"trial_type":"call-function","trial_index":9,"time_elapsed":151534,"internal_node_id":"0.0-4.0-2.0","task_version":"battery-v0.2-trt","session":3},{"view_history":"[{\"page_index\":0,\"viewing_time\":6372.665000002598},{\"page_index\":1,\"viewing_time\":1632.0850000047358}]","rt":8005.2750000031665,"trial_type":"pit-instructions","trial_index":10,"time_elapsed":159540,"internal_node_id":"0.0-4.0-3.0","task_version":"battery-v0.2-trt","session":3},{"rune":"2","rune_set":"elianto","hex":"#3366ff99","correct":-1,"choice":32,"rt":960.5800000135787,"accuracy":0,"outcome":"+1","keys":[2460.6800000037765],"total_keys":1,"block":0,"practice":2,"trial_type":"pit-trial","trial_index":11,"time_elapsed":163204,"internal_node_id":"0.0-4.0-4.0-0.0","task_version":"battery-v0.2-trt","session":3},{"rune":"2","rune_set":"elianto","hex":"#3366ff99","correct":-1,"choice":-1,"rt":-1,"accuracy":1,"outcome":"+10","keys":[],"total_keys":0,"block":0,"practice":2,"trial_type":"pit-trial","trial_index":12,"time_elapsed":167210,"internal_node_id":"0.0-4.0-4.1-0.1","task_version":"battery-v0.2-trt","session":3},{"rune":"2","rune_set":"elianto","hex":"#3366ff99","correct":-1,"choice":-1,"rt":-1,"accuracy":1,"outcome":"+10","keys":[],"total_keys":0,"block":0,"practice":2,"trial_type":"pit-trial","trial_index":13,"time_elapsed":171216,"internal_node_id":"0.0-4.0-4.2-0.2","task_version":"battery-v0.2-trt","session":3},{"rune":"2","rune_set":"elianto","hex":"#3366ff99","correct":-1,"choice":-1,"rt":-1,"accuracy":1,"outcome":"+10","keys":[],"total_keys":0,"block":0,"practice":2,"trial_type":"pit-trial","trial_index":14,"time_elapsed":175221,"internal_node_id":"0.0-4.0-4.3-0.3","task_version":"battery-v0.2-trt","session":3},{"trial_type":"call-function","trial_index":15,"time_elapsed":175222,"internal_node_id":"0.0-4.0-5.0","task_version":"battery-v0.2-trt","session":3},{"view_history":"[{\"page_index\":0,\"viewing_time\":4899.870000008377},{\"page_index\":1,\"viewing_time\":3544.190000000526}]","rt":8444.63500000711,"trial_type":"pit-instructions","trial_index":16,"time_elapsed":183668,"internal_node_id":"0.0-4.0-6.0","task_version":"battery-v0.2-trt","session":3},{"rune":"3","rune_set":"elianto","hex":"#f73b6a7A","correct":-1,"choice":-1,"rt":-1,"accuracy":1,"outcome":"-1","keys":[],"total_keys":0,"block":0,"practice":3,"trial_type":"pit-trial","trial_index":17,"time_elapsed":187672,"internal_node_id":"0.0-4.0-7.0-0.0","task_version":"battery-v0.2-trt","session":3},{"rune":"3","rune_set":"elianto","hex":"#f73b6a7A","correct":-1,"choice":32,"rt":210.6950000015786,"accuracy":0,"outcome":"-10","keys":[1145.329999999376,1711.009999999078],"total_keys":2,"block":0,"practice":3,"trial_type":"pit-trial","trial_index":18,"time_elapsed":190587,"internal_node_id":"0.0-4.0-7.1-0.1","task_version":"battery-v0.2-trt","session":3},{"rune":"3","rune_set":"elianto","hex":"#f73b6a7A","correct":-1,"choice":-1,"rt":-1,"accuracy":1,"outcome":"-1","keys":[],"total_keys":0,"block":0,"practice":3,"trial_type":"pit-trial","trial_index":19,"time_elapsed":194595,"internal_node_id":"0.0-4.0-7.2-0.2","task_version":"battery-v0.2-trt","session":3},{"rune":"3","rune_set":"elianto","hex":"#f73b6a7A","correct":-1,"choice":-1,"rt":-1,"accuracy":1,"outcome":"-1","keys":[],"total_keys":0,"block":0,"practice":3,"trial_type":"pit-trial","trial_index":20,"time_elapsed":198600,"internal_node_id":"0.0-4.0-7.3-0.3","task_version":"battery-v0.2-trt","session":3},{"rune":"3","rune_set":"elianto","hex":"#f73b6a7A","correct":-1,"choice":-1,"rt":-1,"accuracy":1,"outcome":"-1","keys":[],"total_keys":0,"block":0,"practice":3,"trial_type":"pit-trial","trial_index":21,"time_elapsed":202603,"internal_node_id":"0.0-4.0-7.4-0.4","task_version":"battery-v0.2-trt","session":3},{"trial_type":"call-function","trial_index":22,"time_elapsed":202604,"internal_node_id":"0.0-4.0-8.0","task_version":"battery-v0.2-trt","session":3},{"view_history":"[{\"page_index\":0,\"viewing_time\":5097.7249999996275},{\"page_index\":1,\"viewing_time\":5199.57000001159}]","rt":10297.870000009425,"trial_type":"pit-instructions","trial_index":23,"time_elapsed":212903,"internal_node_id":"0.0-4.0-9.0","task_version":"battery-v0.2-trt","session":3},{"rune":"4","rune_set":"elianto","hex":"#f73b6a7A","correct":32,"choice":32,"rt":1095.4800000035902,"accuracy":1,"outcome":"-1","keys":[2595.965000000433],"total_keys":1,"block":0,"practice":4,"trial_type":"pit-trial","trial_index":24,"time_elapsed":216703,"internal_node_id":"0.0-4.0-10.0-0.0","task_version":"battery-v0.2-trt","session":3},{"rune":"4","rune_set":"elianto","hex":"#f73b6a7A","correct":32,"choice":32,"rt":261.10000000335276,"accuracy":1,"outcome":"-1","keys":[1762.5600000028498],"total_keys":1,"block":0,"practice":4,"trial_type":"pit-trial","trial_index":25,"time_elapsed":219671,"internal_node_id":"0.0-4.0-10.1-0.1","task_version":"battery-v0.2-trt","session":3},{"rune":"4","rune_set":"elianto","hex":"#f73b6a7A","correct":32,"choice":32,"rt":221.92999999970198,"accuracy":1,"outcome":"-1","keys":[1285.4200000001583,1722.5599999947008],"total_keys":2,"block":0,"practice":4,"trial_type":"pit-trial","trial_index":26,"time_elapsed":222597,"internal_node_id":"0.0-4.0-10.2-0.2","task_version":"battery-v0.2-trt","session":3},{"rune":"4","rune_set":"elianto","hex":"#f73b6a7A","correct":32,"choice":-1,"rt":-1,"accuracy":0,"outcome":"-10","keys":[],"total_keys":0,"block":0,"practice":4,"trial_type":"pit-trial","trial_index":27,"time_elapsed":226601,"internal_node_id":"0.0-4.0-10.3-0.3","task_version":"battery-v0.2-trt","session":3},{"rune":"4","rune_set":"elianto","hex":"#f73b6a7A","correct":32,"choice":32,"rt":328.26000000932254,"accuracy":1,"outcome":"-1","keys":[1828.9300000033109],"total_keys":1,"block":0,"practice":4,"trial_type":"pit-trial","trial_index":28,"time_elapsed":229633,"internal_node_id":"0.0-4.0-10.4-0.4","task_version":"battery-v0.2-trt","session":3},{"rune":"4","rune_set":"elianto","hex":"#f73b6a7A","correct":32,"choice":32,"rt":313.65500000538304,"accuracy":1,"outcome":"-1","keys":[1814.2700000025798],"total_keys":1,"block":0,"practice":4,"trial_type":"pit-trial","trial_index":29,"time_elapsed":232651,"internal_node_id":"0.0-4.0-10.5-0.5","task_version":"battery-v0.2-trt","session":3},{"rune":"4","rune_set":"elianto","hex":"#f73b6a7A","correct":32,"choice":32,"rt":330.92999999644235,"accuracy":1,"outcome":"-1","keys":[1831.674999993993],"total_keys":1,"block":0,"practice":4,"trial_type":"pit-trial","trial_index":30,"time_elapsed":235687,"internal_node_id":"0.0-4.0-10.6-0.6","task_version":"battery-v0.2-trt","session":3},{"trial_type":"call-function","trial_index":31,"time_elapsed":235689,"internal_node_id":"0.0-4.0-11.0","task_version":"battery-v0.2-trt","session":3},{"view_history":"[{\"page_index\":0,\"viewing_time\":1800.810000000638},{\"page_index\":1,\"viewing_time\":1296.1950000026263},{\"page_index\":2,\"viewing_time\":1639.920000001439},{\"page_index\":3,\"viewing_time\":975.9499999927357},{\"page_index\":4,\"viewing_time\":2041.045000005397},{\"page_index\":5,\"viewing_time\":1052.8849999973318}]","rt":8807.62500000128,"trial_type":"pit-instructions","trial_index":32,"time_elapsed":244497,"internal_node_id":"0.0-4.0-12.0","task_version":"battery-v0.2-trt","session":3},{"responses":["Press SPACE","-10","-1","True","True"],"num_errors":1,"rt":18837.23999999347,"trial_type":"pit-comprehension","trial_index":33,"time_elapsed":263340,"internal_node_id":"0.0-4.0-13.0","task_version":"battery-v0.2-trt","session":3},{"view_history":"[{\"page_index\":0,\"viewing_time\":1640.719999995781},{\"page_index\":1,\"viewing_time\":4831.650000007357}]","rt":6472.930000003544,"trial_type":"pit-instructions","trial_index":34,"time_elapsed":269818,"internal_node_id":"0.0-5.0","task_version":"battery-v0.2-trt","session":3},{"rune":"D","rune_set":"elianto","hex":"#3366ff99","correct":32,"choice":32,"rt":1265.6799999967916,"accuracy":1,"outcome":"+10","keys":[2767.1750000008615],"total_keys":1,"block":1,"trial":1,"stimulus":2,"robot":1,"valence":"win","action":"go","sham":0,"trial_type":"pit-trial","trial_index":35,"time_elapsed":273790,"internal_node_id":"0.0-6.0","task_version":"battery-v0.2-trt","session":3},{"rune":"K","rune_set":"elianto","hex":"#f73b6a7A","correct":32,"choice":-1,"rt":-1,"accuracy":0,"outcome":"-10","keys":[],"total_keys":0,"block":1,"trial":2,"stimulus":3,"robot":3,"valence":"lose","action":"go","sham":0,"trial_type":"pit-trial","trial_index":36,"time_elapsed":277795,"internal_node_id":"0.0-7.0","task_version":"battery-v0.2-trt","session":3},{"rune":"J","rune_set":"elianto","hex":"#3366ff99","correct":-1,"choice":32,"rt":557.0049999951152,"accuracy":0,"outcome":"+1","keys":[2057.2600000014063],"total_keys":1,"block":1,"trial":3,"stimulus":1,"robot":2,"valence":"win","action":"no-go","sham":0,"trial_type":"pit-trial","trial_index":37,"time_elapsed":281056,"internal_node_id":"0.0-8.0","task_version":"battery-v0.2-trt","session":3},{"rune":"V","rune_set":"elianto","hex":"#3366ff99","correct":-1,"choice":32,"rt":679.1049999883398,"accuracy":0,"outcome":"+10","keys":[2180.0849999999627],"total_keys":1,"block":1,"trial":4,"stimulus":0,"robot":2,"valence":"win","action":"no-go","sham":1,"trial_type":"pit-trial","trial_index":38,"time_elapsed":284440,"internal_node_id":"0.0-9.0","task_version":"battery-v0.2-trt","session":3},{"rune":"D","rune_set":"elianto","hex":"#3366ff99","correct":32,"choice":32,"rt":511.5100000111852,"accuracy":1,"outcome":"+10","keys":[2011.7049999971641],"total_keys":1,"block":1,"trial":5,"stimulus":2,"robot":1,"valence":"win","action":"go","sham":0,"trial_type":"pit-trial","trial_index":39,"time_elapsed":287655,"internal_node_id":"0.0-10.0","task_version":"battery-v0.2-trt","session":3},{"rune":"J","rune_set":"elianto","hex":"#3366ff99","correct":-1,"choice":32,"rt":352.73500000766944,"accuracy":0,"outcome":"+10","keys":[1853.1499999953667],"total_keys":1,"block":1,"trial":6,"stimulus":1,"robot":2,"valence":"win","action":"no-go","sham":1,"trial_type":"pit-trial","trial_index":40,"time_elapsed":290711,"internal_node_id":"0.0-11.0","task_version":"battery-v0.2-trt","session":3},{"rune":"K","rune_set":"elianto","hex":"#f73b6a7A","correct":32,"choice":32,"rt":828.3400000073016,"accuracy":1,"outcome":"-10","keys":[2328.7600000039674],"total_keys":1,"block":1,"trial":7,"stimulus":3,"robot":3,"valence":"lose","action":"go","sham":1,"trial_type":"pit-trial","trial_index":41,"time_elapsed":294243,"internal_node_id":"0.0-12.0","task_version":"battery-v0.2-trt","session":3},{"rune":"V","rune_set":"elianto","hex":"#3366ff99","correct":-1,"choice":32,"rt":452.0849999971688,"accuracy":0,"outcome":"+1","keys":[1952.8500000014901],"total_keys":1,"block":1,"trial":8,"stimulus":0,"robot":2,"valence":"win","action":"no-go","sham":0,"trial_type":"pit-trial","trial_index":42,"time_elapsed":297399,"internal_node_id":"0.0-13.0","task_version":"battery-v0.2-trt","session":3},{"rune":"J","rune_set":"elianto","hex":"#3366ff99","correct":-1,"choice":-1,"rt":-1,"accuracy":1,"outcome":"+10","keys":[],"total_keys":0,"block":1,"trial":9,"stimulus":1,"robot":2,"valence":"win","action":"no-go","sham":0,"trial_type":"pit-trial","trial_index":43,"time_elapsed":301403,"internal_node_id":"0.0-14.0","task_version":"battery-v0.2-trt","session":3},{"rune":"K","rune_set":"elianto","hex":"#f73b6a7A","correct":32,"choice":-1,"rt":-1,"accuracy":0,"outcome":"-10","keys":[],"total_keys":0,"block":1,"trial":10,"stimulus":3,"robot":3,"valence":"lose","action":"go","sham":0,"trial_type":"pit-trial","trial_index":44,"time_elapsed":305407,"internal_node_id":"0.0-15.0","task_version":"battery-v0.2-trt","session":3},{"rune":"V","rune_set":"elianto","hex":"#3366ff99","correct":-1,"choice":32,"rt":600.109999999404,"accuracy":0,"outcome":"+1","keys":[2101.215000002412],"total_keys":1,"block":1,"trial":11,"stimulus":0,"robot":2,"valence":"win","action":"no-go","sham":0,"trial_type":"pit-trial","trial_index":45,"time_elapsed":308712,"internal_node_id":"0.0-16.0","task_version":"battery-v0.2-trt","session":3},{"rune":"D","rune_set":"elianto","hex":"#3366ff99","correct":32,"choice":32,"rt":578.4550000098534,"accuracy":1,"outcome":"+10","keys":[2078.800000002957],"total_keys":1,"block":1,"trial":12,"stimulus":2,"robot":1,"valence":"win","action":"go","sham":0,"trial_type":"pit-trial","trial_index":46,"time_elapsed":311996,"internal_node_id":"0.0-17.0","task_version":"battery-v0.2-trt","session":3},{"rune":"J","rune_set":"elianto","hex":"#3366ff99","correct":-1,"choice":-1,"rt":-1,"accuracy":1,"outcome":"+10","keys":[],"total_keys":0,"block":1,"trial":13,"stimulus":1,"robot":2,"valence":"win","action":"no-go","sham":0,"trial_type":"pit-trial","trial_index":47,"time_elapsed":315999,"internal_node_id":"0.0-18.0","task_version":"battery-v0.2-trt","session":3},{"rune":"V","rune_set":"elianto","hex":"#3366ff99","correct":-1,"choice":32,"rt":703.8350000075297,"accuracy":0,"outcome":"+1","keys":[2204.6750000008615],"total_keys":1,"block":1,"trial":14,"stimulus":0,"robot":2,"valence":"win","action":"no-go","sham":0,"trial_type":"pit-trial","trial_index":48,"time_elapsed":319406,"internal_node_id":"0.0-19.0","task_version":"battery-v0.2-trt","session":3},{"rune":"K","rune_set":"elianto","hex":"#f73b6a7A","correct":32,"choice":-1,"rt":-1,"accuracy":0,"outcome":"-10","keys":[],"total_keys":0,"block":1,"trial":15,"stimulus":3,"robot":3,"valence":"lose","action":"go","sham":0,"trial_type":"pit-trial","trial_index":49,"time_elapsed":323410,"internal_node_id":"0.0-20.0","task_version":"battery-v0.2-trt","session":3},{"rune":"D","rune_set":"elianto","hex":"#3366ff99","correct":32,"choice":32,"rt":783.2599999965169,"accuracy":1,"outcome":"+10","keys":[2284.3099999881815],"total_keys":1,"block":1,"trial":16,"stimulus":2,"robot":1,"valence":"win","action":"go","sham":0,"trial_type":"pit-trial","trial_index":50,"time_elapsed":326899,"internal_node_id":"0.0-21.0","task_version":"battery-v0.2-trt","session":3},{"rune":"V","rune_set":"elianto","hex":"#3366ff99","correct":-1,"choice":-1,"rt":-1,"accuracy":1,"outcome":"+10","keys":[],"total_keys":0,"block":1,"trial":17,"stimulus":0,"robot":2,"valence":"win","action":"no-go","sham":0,"trial_type":"pit-trial","trial_index":51,"time_elapsed":330904,"internal_node_id":"0.0-22.0","task_version":"battery-v0.2-trt","session":3},{"rune":"J","rune_set":"elianto","hex":"#3366ff99","correct":-1,"choice":-1,"rt":-1,"accuracy":1,"outcome":"+10","keys":[],"total_keys":0,"block":1,"trial":18,"stimulus":1,"robot":2,"valence":"win","action":"no-go","sham":0,"trial_type":"pit-trial","trial_index":52,"time_elapsed":334907,"internal_node_id":"0.0-23.0","task_version":"battery-v0.2-trt","session":3},{"rune":"D","rune_set":"elianto","hex":"#3366ff99","correct":32,"choice":32,"rt":895.4499999963446,"accuracy":1,"outcome":"+10","keys":[2396.5949999983422],"total_keys":1,"block":1,"trial":19,"stimulus":2,"robot":1,"valence":"win","action":"go","sham":0,"trial_type":"pit-trial","trial_index":53,"time_elapsed":338508,"internal_node_id":"0.0-24.0","task_version":"battery-v0.2-trt","session":3},{"rune":"K","rune_set":"elianto","hex":"#f73b6a7A","correct":32,"choice":32,"rt":718.6649999930523,"accuracy":1,"outcome":"-1","keys":[2218.92499999376],"total_keys":1,"block":1,"trial":20,"stimulus":3,"robot":3,"valence":"lose","action":"go","sham":0,"trial_type":"pit-trial","trial_index":54,"time_elapsed":341931,"internal_node_id":"0.0-25.0","task_version":"battery-v0.2-trt","session":3},{"rune":"V","rune_set":"elianto","hex":"#3366ff99","correct":-1,"choice":-1,"rt":-1,"accuracy":1,"outcome":"+1","keys":[],"total_keys":0,"block":1,"trial":21,"stimulus":0,"robot":2,"valence":"win","action":"no-go","sham":1,"trial_type":"pit-trial","trial_index":55,"time_elapsed":345935,"internal_node_id":"0.0-26.0","task_version":"battery-v0.2-trt","session":3},{"rune":"D","rune_set":"elianto","hex":"#3366ff99","correct":32,"choice":-1,"rt":-1,"accuracy":0,"outcome":"+1","keys":[3365.2900000015507],"total_keys":1,"block":1,"trial":22,"stimulus":2,"robot":1,"valence":"win","action":"go","sham":0,"trial_type":"pit-trial","trial_index":56,"time_elapsed":349939,"internal_node_id":"0.0-27.0","task_version":"battery-v0.2-trt","session":3},{"rune":"J","rune_set":"elianto","hex":"#3366ff99","correct":-1,"choice":-1,"rt":-1,"accuracy":1,"outcome":"+10","keys":[],"total_keys":0,"block":1,"trial":23,"stimulus":1,"robot":2,"valence":"win","action":"no-go","sham":0,"trial_type":"pit-trial","trial_index":57,"time_elapsed":353943,"internal_node_id":"0.0-28.0","task_version":"battery-v0.2-trt","session":3},{"rune":"K","rune_set":"elianto","hex":"#f73b6a7A","correct":32,"choice":32,"rt":861.9849999959115,"accuracy":1,"outcome":"-1","keys":[2362.1949999942444],"total_keys":1,"block":1,"trial":24,"stimulus":3,"robot":3,"valence":"lose","action":"go","sham":0,"trial_type":"pit-trial","trial_index":58,"time_elapsed":357509,"internal_node_id":"0.0-29.0","task_version":"battery-v0.2-trt","session":3},{"rune":"J","rune_set":"elianto","hex":"#3366ff99","correct":-1,"choice":-1,"rt":-1,"accuracy":1,"outcome":"+1","keys":[3272.3349999869242],"total_keys":1,"block":1,"trial":25,"stimulus":1,"robot":2,"valence":"win","action":"no-go","sham":1,"trial_type":"pit-trial","trial_index":59,"time_elapsed":361513,"internal_node_id":"0.0-30.0","task_version":"battery-v0.2-trt","session":3},{"rune":"K","rune_set":"elianto","hex":"#f73b6a7A","correct":32,"choice":32,"rt":942.1599999914179,"accuracy":1,"outcome":"-1","keys":[2443.169999998645],"total_keys":1,"block":1,"trial":26,"stimulus":3,"robot":3,"valence":"lose","action":"go","sham":0,"trial_type":"pit-trial","trial_index":60,"time_elapsed":365159,"internal_node_id":"0.0-31.0","task_version":"battery-v0.2-trt","session":3},{"rune":"D","rune_set":"elianto","hex":"#3366ff99","correct":32,"choice":32,"rt":232.68000000098255,"accuracy":1,"outcome":"+10","keys":[1734.6200000029057],"total_keys":1,"block":1,"trial":27,"stimulus":2,"robot":1,"valence":"win","action":"go","sham":0,"trial_type":"pit-trial","trial_index":61,"time_elapsed":368097,"internal_node_id":"0.0-32.0","task_version":"battery-v0.2-trt","session":3},{"rune":"V","rune_set":"elianto","hex":"#3366ff99","correct":-1,"choice":32,"rt":788.6949999956414,"accuracy":0,"outcome":"+1","keys":[2289.5949999947334],"total_keys":1,"block":1,"trial":28,"stimulus":0,"robot":2,"valence":"win","action":"no-go","sham":0,"trial_type":"pit-trial","trial_index":62,"time_elapsed":371590,"internal_node_id":"0.0-33.0","task_version":"battery-v0.2-trt","session":3},{"rune":"V","rune_set":"elianto","hex":"#3366ff99","correct":-1,"choice":-1,"rt":-1,"accuracy":1,"outcome":"+10","keys":[],"total_keys":0,"block":1,"trial":29,"stimulus":0,"robot":2,"valence":"win","action":"no-go","sham":0,"trial_type":"pit-trial","trial_index":63,"time_elapsed":375596,"internal_node_id":"0.0-34.0","task_version":"battery-v0.2-trt","session":3},{"rune":"D","rune_set":"elianto","hex":"#3366ff99","correct":32,"choice":32,"rt":1049.0999999892665,"accuracy":1,"outcome":"+10","keys":[2550.7499999948777,2578.784999990603],"total_keys":2,"block":1,"trial":30,"stimulus":2,"robot":1,"valence":"win","action":"go","sham":0,"trial_type":"pit-trial","trial_index":64,"time_elapsed":379352,"internal_node_id":"0.0-35.0","task_version":"battery-v0.2-trt","session":3},{"rune":"J","rune_set":"elianto","hex":"#3366ff99","correct":-1,"choice":32,"rt":915.5999999929918,"accuracy":0,"outcome":"+1","keys":[2416.5550000034273],"total_keys":1,"block":1,"trial":31,"stimulus":1,"robot":2,"valence":"win","action":"no-go","sham":0,"trial_type":"pit-trial","trial_index":65,"time_elapsed":382972,"internal_node_id":"0.0-36.0","task_version":"battery-v0.2-trt","session":3},{"rune":"K","rune_set":"elianto","hex":"#f73b6a7A","correct":32,"choice":32,"rt":988.0600000033155,"accuracy":1,"outcome":"-1","keys":[2488.3949999930337],"total_keys":1,"block":1,"trial":32,"stimulus":3,"robot":3,"valence":"lose","action":"go","sham":0,"trial_type":"pit-trial","trial_index":66,"time_elapsed":386664,"internal_node_id":"0.0-37.0","task_version":"battery-v0.2-trt","session":3},{"rune":"E","rune_set":"elianto","hex":"#f73b6a7A","correct":-1,"choice":-1,"rt":-1,"accuracy":1,"outcome":"-1","keys":[],"total_keys":0,"block":1,"trial":33,"stimulus":4,"robot":4,"valence":"lose","action":"no-go","sham":0,"trial_type":"pit-trial","trial_index":67,"time_elapsed":390668,"internal_node_id":"0.0-38.0","task_version":"battery-v0.2-trt","session":3},{"rune":"D","rune_set":"elianto","hex":"#3366ff99","correct":32,"choice":32,"rt":782.9800000035902,"accuracy":1,"outcome":"+10","keys":[2284.220000001369],"total_keys":1,"block":1,"trial":34,"stimulus":2,"robot":1,"valence":"win","action":"go","sham":0,"trial_type":"pit-trial","trial_index":68,"time_elapsed":394156,"internal_node_id":"0.0-39.0","task_version":"battery-v0.2-trt","session":3},{"rune":"V","rune_set":"elianto","hex":"#3366ff99","correct":-1,"choice":-1,"rt":-1,"accuracy":1,"outcome":"+10","keys":[],"total_keys":0,"block":1,"trial":35,"stimulus":0,"robot":2,"valence":"win","action":"no-go","sham":0,"trial_type":"pit-trial","trial_index":69,"time_elapsed":398160,"internal_node_id":"0.0-40.0","task_version":"battery-v0.2-trt","session":3},{"rune":"W","rune_set":"elianto","hex":"#f73b6a7A","correct":32,"choice":32,"rt":912.495000011404,"accuracy":1,"outcome":"-1","keys":[2414.100000009057],"total_keys":1,"block":1,"trial":36,"stimulus":5,"robot":3,"valence":"lose","action":"go","sham":0,"trial_type":"pit-trial","trial_index":70,"time_elapsed":401778,"internal_node_id":"0.0-41.0","task_version":"battery-v0.2-trt","session":3},{"rune":"D","rune_set":"elianto","hex":"#3366ff99","correct":32,"choice":-1,"rt":-1,"accuracy":0,"outcome":"+1","keys":[],"total_keys":0,"block":1,"trial":37,"stimulus":2,"robot":1,"valence":"win","action":"go","sham":0,"trial_type":"pit-trial","trial_index":71,"time_elapsed":405783,"internal_node_id":"0.0-42.0","task_version":"battery-v0.2-trt","session":3},{"rune":"W","rune_set":"elianto","hex":"#f73b6a7A","correct":32,"choice":-1,"rt":-1,"accuracy":0,"outcome":"-1","keys":[],"total_keys":0,"block":1,"trial":38,"stimulus":5,"robot":3,"valence":"lose","action":"go","sham":1,"trial_type":"pit-trial","trial_index":72,"time_elapsed":409786,"internal_node_id":"0.0-43.0","task_version":"battery-v0.2-trt","session":3},{"rune":"E","rune_set":"elianto","hex":"#f73b6a7A","correct":-1,"choice":32,"rt":927.0749999996042,"accuracy":0,"outcome":"-10","keys":[2428.124999991269],"total_keys":1,"block":1,"trial":39,"stimulus":4,"robot":4,"valence":"lose","action":"no-go","sham":0,"trial_type":"pit-trial","trial_index":73,"time_elapsed":413418,"internal_node_id":"0.0-44.0","task_version":"battery-v0.2-trt","session":3},{"rune":"V","rune_set":"elianto","hex":"#3366ff99","correct":-1,"choice":-1,"rt":-1,"accuracy":1,"outcome":"+1","keys":[3283.240000004298],"total_keys":1,"block":1,"trial":40,"stimulus":0,"robot":2,"valence":"win","action":"no-go","sham":1,"trial_type":"pit-trial","trial_index":74,"time_elapsed":417423,"internal_node_id":"0.0-45.0","task_version":"battery-v0.2-trt","session":3},{"rune":"W","rune_set":"elianto","hex":"#f73b6a7A","correct":32,"choice":-1,"rt":-1,"accuracy":0,"outcome":"-1","keys":[],"total_keys":0,"block":1,"trial":41,"stimulus":5,"robot":3,"valence":"lose","action":"go","sham":1,"trial_type":"pit-trial","trial_index":75,"time_elapsed":421426,"internal_node_id":"0.0-46.0","task_version":"battery-v0.2-trt","session":3},{"rune":"S","rune_set":"elianto","hex":"#3366ff99","correct":-1,"choice":-1,"rt":-1,"accuracy":1,"outcome":"+1","keys":[],"total_keys":0,"block":1,"trial":42,"stimulus":6,"robot":2,"valence":"win","action":"no-go","sham":1,"trial_type":"pit-trial","trial_index":76,"time_elapsed":425430,"internal_node_id":"0.0-47.0","task_version":"battery-v0.2-trt","session":3},{"rune":"E","rune_set":"elianto","hex":"#f73b6a7A","correct":-1,"choice":-1,"rt":-1,"accuracy":1,"outcome":"-1","keys":[],"total_keys":0,"block":1,"trial":43,"stimulus":4,"robot":4,"valence":"lose","action":"no-go","sham":0,"trial_type":"pit-trial","trial_index":77,"time_elapsed":429435,"internal_node_id":"0.0-48.0","task_version":"battery-v0.2-trt","session":3},{"rune":"D","rune_set":"elianto","hex":"#3366ff99","correct":32,"choice":-1,"rt":-1,"accuracy":0,"outcome":"+1","keys":[],"total_keys":0,"block":1,"trial":44,"stimulus":2,"robot":1,"valence":"win","action":"go","sham":0,"trial_type":"pit-trial","trial_index":78,"time_elapsed":433439,"internal_node_id":"0.0-49.0","task_version":"battery-v0.2-trt","session":3},{"rune":"E","rune_set":"elianto","hex":"#f73b6a7A","correct":-1,"choice":-1,"rt":-1,"accuracy":1,"outcome":"-10","keys":[],"total_keys":0,"block":1,"trial":45,"stimulus":4,"robot":4,"valence":"lose","action":"no-go","sham":1,"trial_type":"pit-trial","trial_index":79,"time_elapsed":437442,"internal_node_id":"0.0-50.0","task_version":"battery-v0.2-trt","session":3},{"rune":"S","rune_set":"elianto","hex":"#3366ff99","correct":-1,"choice":-1,"rt":-1,"accuracy":1,"outcome":"+10","keys":[],"total_keys":0,"block":1,"trial":46,"stimulus":6,"robot":2,"valence":"win","action":"no-go","sham":0,"trial_type":"pit-trial","trial_index":80,"time_elapsed":441446,"internal_node_id":"0.0-51.0","task_version":"battery-v0.2-trt","session":3},{"rune":"D","rune_set":"elianto","hex":"#3366ff99","correct":32,"choice":-1,"rt":-1,"accuracy":0,"outcome":"+1","keys":[],"total_keys":0,"block":1,"trial":47,"stimulus":2,"robot":1,"valence":"win","action":"go","sham":0,"trial_type":"pit-trial","trial_index":81,"time_elapsed":445450,"internal_node_id":"0.0-52.0","task_version":"battery-v0.2-trt","session":3},{"rune":"W","rune_set":"elianto","hex":"#f73b6a7A","correct":32,"choice":-1,"rt":-1,"accuracy":0,"outcome":"-1","keys":[],"total_keys":0,"block":1,"trial":48,"stimulus":5,"robot":3,"valence":"lose","action":"go","sham":1,"trial_type":"pit-trial","trial_index":82,"time_elapsed":449455,"internal_node_id":"0.0-53.0","task_version":"battery-v0.2-trt","session":3},{"rune":"E","rune_set":"elianto","hex":"#f73b6a7A","correct":-1,"choice":-1,"rt":-1,"accuracy":1,"outcome":"-1","keys":[],"total_keys":0,"block":1,"trial":49,"stimulus":4,"robot":4,"valence":"lose","action":"no-go","sham":0,"trial_type":"pit-trial","trial_index":83,"time_elapsed":453458,"internal_node_id":"0.0-54.0","task_version":"battery-v0.2-trt","session":3},{"rune":"W","rune_set":"elianto","hex":"#f73b6a7A","correct":32,"choice":-1,"rt":-1,"accuracy":0,"outcome":"-10","keys":[],"total_keys":0,"block":1,"trial":50,"stimulus":5,"robot":3,"valence":"lose","action":"go","sham":0,"trial_type":"pit-trial","trial_index":84,"time_elapsed":457462,"internal_node_id":"0.0-55.0","task_version":"battery-v0.2-trt","session":3},{"rune":"P","rune_set":"elianto","hex":"#f73b6a7A","correct":-1,"choice":-1,"rt":-1,"accuracy":1,"outcome":"-1","keys":[],"total_keys":0,"block":1,"trial":51,"stimulus":7,"robot":4,"valence":"lose","action":"no-go","sham":0,"trial_type":"pit-trial","trial_index":85,"time_elapsed":461466,"internal_node_id":"0.0-56.0","task_version":"battery-v0.2-trt","session":3},{"rune":"S","rune_set":"elianto","hex":"#3366ff99","correct":-1,"choice":-1,"rt":-1,"accuracy":1,"outcome":"+10","keys":[],"total_keys":0,"block":1,"trial":52,"stimulus":6,"robot":2,"valence":"win","action":"no-go","sham":0,"trial_type":"pit-trial","trial_index":86,"time_elapsed":465469,"internal_node_id":"0.0-57.0","task_version":"battery-v0.2-trt","session":3},{"rune":"S","rune_set":"elianto","hex":"#3366ff99","correct":-1,"choice":-1,"rt":-1,"accuracy":1,"outcome":"+1","keys":[],"total_keys":0,"block":1,"trial":53,"stimulus":6,"robot":2,"valence":"win","action":"no-go","sham":1,"trial_type":"pit-trial","trial_index":87,"time_elapsed":469473,"internal_node_id":"0.0-58.0","task_version":"battery-v0.2-trt","session":3},{"rune":"P","rune_set":"elianto","hex":"#f73b6a7A","correct":-1,"choice":-1,"rt":-1,"accuracy":1,"outcome":"-10","keys":[],"total_keys":0,"block":1,"trial":54,"stimulus":7,"robot":4,"valence":"lose","action":"no-go","sham":1,"trial_type":"pit-trial","trial_index":88,"time_elapsed":473477,"internal_node_id":"0.0-59.0","task_version":"battery-v0.2-trt","session":3},{"rune":"W","rune_set":"elianto","hex":"#f73b6a7A","correct":32,"choice":-1,"rt":-1,"accuracy":0,"outcome":"-10","keys":[],"total_keys":0,"block":1,"trial":55,"stimulus":5,"robot":3,"valence":"lose","action":"go","sham":0,"trial_type":"pit-trial","trial_index":89,"time_elapsed":477481,"internal_node_id":"0.0-60.0","task_version":"battery-v0.2-trt","session":3},{"rune":"E","rune_set":"elianto","hex":"#f73b6a7A","correct":-1,"choice":-1,"rt":-1,"accuracy":1,"outcome":"-1","keys":[],"total_keys":0,"block":1,"trial":56,"stimulus":4,"robot":4,"valence":"lose","action":"no-go","sham":0,"trial_type":"pit-trial","trial_index":90,"time_elapsed":481485,"internal_node_id":"0.0-61.0","task_version":"battery-v0.2-trt","session":3},{"rune":"W","rune_set":"elianto","hex":"#f73b6a7A","correct":32,"choice":-1,"rt":-1,"accuracy":0,"outcome":"-10","keys":[],"total_keys":0,"block":1,"trial":57,"stimulus":5,"robot":3,"valence":"lose","action":"go","sham":0,"trial_type":"pit-trial","trial_index":91,"time_elapsed":485489,"internal_node_id":"0.0-62.0","task_version":"battery-v0.2-trt","session":3},{"rune":"E","rune_set":"elianto","hex":"#f73b6a7A","correct":-1,"choice":-1,"rt":-1,"accuracy":1,"outcome":"-1","keys":[],"total_keys":0,"block":1,"trial":58,"stimulus":4,"robot":4,"valence":"lose","action":"no-go","sham":0,"trial_type":"pit-trial","trial_index":92,"time_elapsed":489494,"internal_node_id":"0.0-63.0","task_version":"battery-v0.2-trt","session":3},{"rune":"P","rune_set":"elianto","hex":"#f73b6a7A","correct":-1,"choice":-1,"rt":-1,"accuracy":1,"outcome":"-10","keys":[],"total_keys":0,"block":1,"trial":59,"stimulus":7,"robot":4,"valence":"lose","action":"no-go","sham":1,"trial_type":"pit-trial","trial_index":93,"time_elapsed":493498,"internal_node_id":"0.0-64.0","task_version":"battery-v0.2-trt","session":3},{"rune":"S","rune_set":"elianto","hex":"#3366ff99","correct":-1,"choice":-1,"rt":-1,"accuracy":1,"outcome":"+10","keys":[],"total_keys":0,"block":1,"trial":60,"stimulus":6,"robot":2,"valence":"win","action":"no-go","sham":0,"trial_type":"pit-trial","trial_index":94,"time_elapsed":497502,"internal_node_id":"0.0-65.0","task_version":"battery-v0.2-trt","session":3},{"rune":"E","rune_set":"elianto","hex":"#f73b6a7A","correct":-1,"choice":-1,"rt":-1,"accuracy":1,"outcome":"-10","keys":[],"total_keys":0,"block":1,"trial":61,"stimulus":4,"robot":4,"valence":"lose","action":"no-go","sham":1,"trial_type":"pit-trial","trial_index":95,"time_elapsed":501505,"internal_node_id":"0.0-66.0","task_version":"battery-v0.2-trt","session":3},{"rune":"S","rune_set":"elianto","hex":"#3366ff99","correct":-1,"choice":-1,"rt":-1,"accuracy":1,"outcome":"+10","keys":[],"total_keys":0,"block":1,"trial":62,"stimulus":6,"robot":2,"valence":"win","action":"no-go","sham":0,"trial_type":"pit-trial","trial_index":96,"time_elapsed":505510,"internal_node_id":"0.0-67.0","task_version":"battery-v0.2-trt","session":3},{"rune":"W","rune_set":"elianto","hex":"#f73b6a7A","correct":32,"choice":-1,"rt":-1,"accuracy":0,"outcome":"-10","keys":[],"total_keys":0,"block":1,"trial":63,"stimulus":5,"robot":3,"valence":"lose","action":"go","sham":0,"trial_type":"pit-trial","trial_index":97,"time_elapsed":509515,"internal_node_id":"0.0-68.0","task_version":"battery-v0.2-trt","session":3},{"rune":"P","rune_set":"elianto","hex":"#f73b6a7A","correct":-1,"choice":-1,"rt":-1,"accuracy":1,"outcome":"-1","keys":[],"total_keys":0,"block":1,"trial":64,"stimulus":7,"robot":4,"valence":"lose","action":"no-go","sham":0,"trial_type":"pit-trial","trial_index":98,"time_elapsed":513519,"internal_node_id":"0.0-69.0","task_version":"battery-v0.2-trt","session":3},{"rune":"P","rune_set":"elianto","hex":"#f73b6a7A","correct":-1,"choice":-1,"rt":-1,"accuracy":1,"outcome":"-1","keys":[],"total_keys":0,"block":1,"trial":65,"stimulus":7,"robot":4,"valence":"lose","action":"no-go","sham":0,"trial_type":"pit-trial","trial_index":99,"time_elapsed":517524,"internal_node_id":"0.0-70.0","task_version":"battery-v0.2-trt","session":3},{"rune":"E","rune_set":"elianto","hex":"#f73b6a7A","correct":-1,"choice":-1,"rt":-1,"accuracy":1,"outcome":"-1","keys":[],"total_keys":0,"block":1,"trial":66,"stimulus":4,"robot":4,"valence":"lose","action":"no-go","sham":0,"trial_type":"pit-trial","trial_index":100,"time_elapsed":521528,"internal_node_id":"0.0-71.0","task_version":"battery-v0.2-trt","session":3},{"rune":"W","rune_set":"elianto","hex":"#f73b6a7A","correct":32,"choice":-1,"rt":-1,"accuracy":0,"outcome":"-10","keys":[],"total_keys":0,"block":1,"trial":67,"stimulus":5,"robot":3,"valence":"lose","action":"go","sham":0,"trial_type":"pit-trial","trial_index":101,"time_elapsed":525532,"internal_node_id":"0.0-72.0","task_version":"battery-v0.2-trt","session":3},{"rune":"S","rune_set":"elianto","hex":"#3366ff99","correct":-1,"choice":-1,"rt":-1,"accuracy":1,"outcome":"+10","keys":[],"total_keys":0,"block":1,"trial":68,"stimulus":6,"robot":2,"valence":"win","action":"no-go","sham":0,"trial_type":"pit-trial","trial_index":102,"time_elapsed":529537,"internal_node_id":"0.0-73.0","task_version":"battery-v0.2-trt","session":3},{"rune":"E","rune_set":"elianto","hex":"#f73b6a7A","correct":-1,"choice":-1,"rt":-1,"accuracy":1,"outcome":"-1","keys":[],"total_keys":0,"block":1,"trial":69,"stimulus":4,"robot":4,"valence":"lose","action":"no-go","sham":0,"trial_type":"pit-trial","trial_index":103,"time_elapsed":533540,"internal_node_id":"0.0-74.0","task_version":"battery-v0.2-trt","session":3},{"rune":"P","rune_set":"elianto","hex":"#f73b6a7A","correct":-1,"choice":-1,"rt":-1,"accuracy":1,"outcome":"-10","keys":[],"total_keys":0,"block":1,"trial":70,"stimulus":7,"robot":4,"valence":"lose","action":"no-go","sham":1,"trial_type":"pit-trial","trial_index":104,"time_elapsed":537543,"internal_node_id":"0.0-75.0","task_version":"battery-v0.2-trt","session":3},{"rune":"W","rune_set":"elianto","hex":"#f73b6a7A","correct":32,"choice":-1,"rt":-1,"accuracy":0,"outcome":"-10","keys":[],"total_keys":0,"block":1,"trial":71,"stimulus":5,"robot":3,"valence":"lose","action":"go","sham":0,"trial_type":"pit-trial","trial_index":105,"time_elapsed":541547,"internal_node_id":"0.0-76.0","task_version":"battery-v0.2-trt","session":3},{"rune":"S","rune_set":"elianto","hex":"#3366ff99","correct":-1,"choice":-1,"rt":-1,"accuracy":1,"outcome":"+10","keys":[],"total_keys":0,"block":1,"trial":72,"stimulus":6,"robot":2,"valence":"win","action":"no-go","sham":0,"trial_type":"pit-trial","trial_index":106,"time_elapsed":545551,"internal_node_id":"0.0-77.0","task_version":"battery-v0.2-trt","session":3},{"rune":"G","rune_set":"elianto","hex":"#f73b6a7A","correct":-1,"choice":-1,"rt":-1,"accuracy":1,"outcome":"-1","keys":[],"total_keys":0,"block":1,"trial":73,"stimulus":8,"robot":4,"valence":"lose","action":"no-go","sham":0,"trial_type":"pit-trial","trial_index":107,"time_elapsed":549554,"internal_node_id":"0.0-78.0","task_version":"battery-v0.2-trt","session":3},{"rune":"S","rune_set":"elianto","hex":"#3366ff99","correct":-1,"choice":-1,"rt":-1,"accuracy":1,"outcome":"+10","keys":[],"total_keys":0,"block":1,"trial":74,"stimulus":6,"robot":2,"valence":"win","action":"no-go","sham":0,"trial_type":"pit-trial","trial_index":108,"time_elapsed":553559,"internal_node_id":"0.0-79.0","task_version":"battery-v0.2-trt","session":3},{"rune":"P","rune_set":"elianto","hex":"#f73b6a7A","correct":-1,"choice":-1,"rt":-1,"accuracy":1,"outcome":"-1","keys":[],"total_keys":0,"block":1,"trial":75,"stimulus":7,"robot":4,"valence":"lose","action":"no-go","sham":0,"trial_type":"pit-trial","trial_index":109,"time_elapsed":557562,"internal_node_id":"0.0-80.0","task_version":"battery-v0.2-trt","session":3},{"rune":"W","rune_set":"elianto","hex":"#f73b6a7A","correct":32,"choice":-1,"rt":-1,"accuracy":0,"outcome":"-10","keys":[],"total_keys":0,"block":1,"trial":76,"stimulus":5,"robot":3,"valence":"lose","action":"go","sham":0,"trial_type":"pit-trial","trial_index":110,"time_elapsed":561567,"internal_node_id":"0.0-81.0","task_version":"battery-v0.2-trt","session":3},{"rune":"W","rune_set":"elianto","hex":"#f73b6a7A","correct":32,"choice":-1,"rt":-1,"accuracy":0,"outcome":"-1","keys":[],"total_keys":0,"block":1,"trial":77,"stimulus":5,"robot":3,"valence":"lose","action":"go","sham":1,"trial_type":"pit-trial","trial_index":111,"time_elapsed":565572,"internal_node_id":"0.0-82.0","task_version":"battery-v0.2-trt","session":3},{"rune":"G","rune_set":"elianto","hex":"#f73b6a7A","correct":-1,"choice":-1,"rt":-1,"accuracy":1,"outcome":"-1","keys":[],"total_keys":0,"block":1,"trial":78,"stimulus":8,"robot":4,"valence":"lose","action":"no-go","sham":0,"trial_type":"pit-trial","trial_index":112,"time_elapsed":569575,"internal_node_id":"0.0-83.0","task_version":"battery-v0.2-trt","session":3},{"rune":"P","rune_set":"elianto","hex":"#f73b6a7A","correct":-1,"choice":-1,"rt":-1,"accuracy":1,"outcome":"-1","keys":[],"total_keys":0,"block":1,"trial":79,"stimulus":7,"robot":4,"valence":"lose","action":"no-go","sham":0,"trial_type":"pit-trial","trial_index":113,"time_elapsed":573580,"internal_node_id":"0.0-84.0","task_version":"battery-v0.2-trt","session":3},{"rune":"S","rune_set":"elianto","hex":"#3366ff99","correct":-1,"choice":-1,"rt":-1,"accuracy":1,"outcome":"+10","keys":[],"total_keys":0,"block":1,"trial":80,"stimulus":6,"robot":2,"valence":"win","action":"no-go","sham":0,"trial_type":"pit-trial","trial_index":114,"time_elapsed":577585,"internal_node_id":"0.0-85.0","task_version":"battery-v0.2-trt","session":3},{"rune":"L","rune_set":"elianto","hex":"#f73b6a7A","correct":32,"choice":-1,"rt":-1,"accuracy":0,"outcome":"-10","keys":[],"total_keys":0,"block":1,"trial":81,"stimulus":10,"robot":3,"valence":"lose","action":"go","sham":0,"trial_type":"pit-trial","trial_index":115,"time_elapsed":581589,"internal_node_id":"0.0-86.0","task_version":"battery-v0.2-trt","session":3},{"rune":"G","rune_set":"elianto","hex":"#f73b6a7A","correct":-1,"choice":-1,"rt":-1,"accuracy":1,"outcome":"-1","keys":[],"total_keys":0,"block":1,"trial":82,"stimulus":8,"robot":4,"valence":"lose","action":"no-go","sham":0,"trial_type":"pit-trial","trial_index":116,"time_elapsed":585594,"internal_node_id":"0.0-87.0","task_version":"battery-v0.2-trt","session":3},{"rune":"S","rune_set":"elianto","hex":"#3366ff99","correct":-1,"choice":-1,"rt":-1,"accuracy":1,"outcome":"+10","keys":[],"total_keys":0,"block":1,"trial":83,"stimulus":6,"robot":2,"valence":"win","action":"no-go","sham":0,"trial_type":"pit-trial","trial_index":117,"time_elapsed":589599,"internal_node_id":"0.0-88.0","task_version":"battery-v0.2-trt","session":3},{"rune":"A","rune_set":"elianto","hex":"#3366ff99","correct":32,"choice":-1,"rt":-1,"accuracy":0,"outcome":"+1","keys":[],"total_keys":0,"block":1,"trial":84,"stimulus":9,"robot":1,"valence":"win","action":"go","sham":0,"trial_type":"pit-trial","trial_index":118,"time_elapsed":593602,"internal_node_id":"0.0-89.0","task_version":"battery-v0.2-trt","session":3},{"rune":"A","rune_set":"elianto","hex":"#3366ff99","correct":32,"choice":-1,"rt":-1,"accuracy":0,"outcome":"+1","keys":[],"total_keys":0,"block":1,"trial":85,"stimulus":9,"robot":1,"valence":"win","action":"go","sham":0,"trial_type":"pit-trial","trial_index":119,"time_elapsed":597605,"internal_node_id":"0.0-90.0","task_version":"battery-v0.2-trt","session":3},{"rune":"S","rune_set":"elianto","hex":"#3366ff99","correct":-1,"choice":-1,"rt":-1,"accuracy":1,"outcome":"+10","keys":[],"total_keys":0,"block":1,"trial":86,"stimulus":6,"robot":2,"valence":"win","action":"no-go","sham":0,"trial_type":"pit-trial","trial_index":120,"time_elapsed":601609,"internal_node_id":"0.0-91.0","task_version":"battery-v0.2-trt","session":3},{"rune":"L","rune_set":"elianto","hex":"#f73b6a7A","correct":32,"choice":-1,"rt":-1,"accuracy":0,"outcome":"-1","keys":[],"total_keys":0,"block":1,"trial":87,"stimulus":10,"robot":3,"valence":"lose","action":"go","sham":1,"trial_type":"pit-trial","trial_index":121,"time_elapsed":605614,"internal_node_id":"0.0-92.0","task_version":"battery-v0.2-trt","session":3},{"rune":"G","rune_set":"elianto","hex":"#f73b6a7A","correct":-1,"choice":-1,"rt":-1,"accuracy":1,"outcome":"-10","keys":[],"total_keys":0,"block":1,"trial":88,"stimulus":8,"robot":4,"valence":"lose","action":"no-go","sham":1,"trial_type":"pit-trial","trial_index":122,"time_elapsed":609618,"internal_node_id":"0.0-93.0","task_version":"battery-v0.2-trt","session":3},{"rune":"G","rune_set":"elianto","hex":"#f73b6a7A","correct":-1,"choice":-1,"rt":-1,"accuracy":1,"outcome":"-1","keys":[],"total_keys":0,"block":1,"trial":89,"stimulus":8,"robot":4,"valence":"lose","action":"no-go","sham":0,"trial_type":"pit-trial","trial_index":123,"time_elapsed":613623,"internal_node_id":"0.0-94.0","task_version":"battery-v0.2-trt","session":3},{"rune":"U","rune_set":"elianto","hex":"#3366ff99","correct":32,"choice":-1,"rt":-1,"accuracy":0,"outcome":"+1","keys":[],"total_keys":0,"block":1,"trial":90,"stimulus":11,"robot":1,"valence":"win","action":"go","sham":0,"trial_type":"pit-trial","trial_index":124,"time_elapsed":617627,"internal_node_id":"0.0-95.0","task_version":"battery-v0.2-trt","session":3},{"rune":"A","rune_set":"elianto","hex":"#3366ff99","correct":32,"choice":-1,"rt":-1,"accuracy":0,"outcome":"+1","keys":[],"total_keys":0,"block":1,"trial":91,"stimulus":9,"robot":1,"valence":"win","action":"go","sham":0,"trial_type":"pit-trial","trial_index":125,"time_elapsed":621631,"internal_node_id":"0.0-96.0","task_version":"battery-v0.2-trt","session":3},{"rune":"L","rune_set":"elianto","hex":"#f73b6a7A","correct":32,"choice":-1,"rt":-1,"accuracy":0,"outcome":"-10","keys":[],"total_keys":0,"block":1,"trial":92,"stimulus":10,"robot":3,"valence":"lose","action":"go","sham":0,"trial_type":"pit-trial","trial_index":126,"time_elapsed":625635,"internal_node_id":"0.0-97.0","task_version":"battery-v0.2-trt","session":3},{"rune":"A","rune_set":"elianto","hex":"#3366ff99","correct":32,"choice":-1,"rt":-1,"accuracy":0,"outcome":"+1","keys":[],"total_keys":0,"block":1,"trial":93,"stimulus":9,"robot":1,"valence":"win","action":"go","sham":0,"trial_type":"pit-trial","trial_index":127,"time_elapsed":629640,"internal_node_id":"0.0-98.0","task_version":"battery-v0.2-trt","session":3},{"rune":"G","rune_set":"elianto","hex":"#f73b6a7A","correct":-1,"choice":-1,"rt":-1,"accuracy":1,"outcome":"-1","keys":[],"total_keys":0,"block":1,"trial":94,"stimulus":8,"robot":4,"valence":"lose","action":"no-go","sham":0,"trial_type":"pit-trial","trial_index":128,"time_elapsed":633644,"internal_node_id":"0.0-99.0","task_version":"battery-v0.2-trt","session":3},{"rune":"L","rune_set":"elianto","hex":"#f73b6a7A","correct":32,"choice":-1,"rt":-1,"accuracy":0,"outcome":"-1","keys":[],"total_keys":0,"block":1,"trial":95,"stimulus":10,"robot":3,"valence":"lose","action":"go","sham":1,"trial_type":"pit-trial","trial_index":129,"time_elapsed":637648,"internal_node_id":"0.0-100.0","task_version":"battery-v0.2-trt","session":3},{"rune":"U","rune_set":"elianto","hex":"#3366ff99","correct":32,"choice":-1,"rt":-1,"accuracy":0,"outcome":"+1","keys":[],"total_keys":0,"block":1,"trial":96,"stimulus":11,"robot":1,"valence":"win","action":"go","sham":0,"trial_type":"pit-trial","trial_index":130,"time_elapsed":641651,"internal_node_id":"0.0-101.0","task_version":"battery-v0.2-trt","session":3},{"rune":"L","rune_set":"elianto","hex":"#f73b6a7A","correct":32,"choice":-1,"rt":-1,"accuracy":0,"outcome":"-10","keys":[],"total_keys":0,"block":1,"trial":97,"stimulus":10,"robot":3,"valence":"lose","action":"go","sham":0,"trial_type":"pit-trial","trial_index":131,"time_elapsed":645655,"internal_node_id":"0.0-102.0","task_version":"battery-v0.2-trt","session":3},{"rune":"A","rune_set":"elianto","hex":"#3366ff99","correct":32,"choice":-1,"rt":-1,"accuracy":0,"outcome":"+1","keys":[],"total_keys":0,"block":1,"trial":98,"stimulus":9,"robot":1,"valence":"win","action":"go","sham":0,"trial_type":"pit-trial","trial_index":132,"time_elapsed":649660,"internal_node_id":"0.0-103.0","task_version":"battery-v0.2-trt","session":3},{"rune":"G","rune_set":"elianto","hex":"#f73b6a7A","correct":-1,"choice":-1,"rt":-1,"accuracy":1,"outcome":"-1","keys":[],"total_keys":0,"block":1,"trial":99,"stimulus":8,"robot":4,"valence":"lose","action":"no-go","sham":0,"trial_type":"pit-trial","trial_index":133,"time_elapsed":653664,"internal_node_id":"0.0-104.0","task_version":"battery-v0.2-trt","session":3},{"rune":"U","rune_set":"elianto","hex":"#3366ff99","correct":32,"choice":-1,"rt":-1,"accuracy":0,"outcome":"+10","keys":[],"total_keys":0,"block":1,"trial":100,"stimulus":11,"robot":1,"valence":"win","action":"go","sham":1,"trial_type":"pit-trial","trial_index":134,"time_elapsed":657669,"internal_node_id":"0.0-105.0","task_version":"battery-v0.2-trt","session":3},{"rune":"U","rune_set":"elianto","hex":"#3366ff99","correct":32,"choice":-1,"rt":-1,"accuracy":0,"outcome":"+1","keys":[],"total_keys":0,"block":1,"trial":101,"stimulus":11,"robot":1,"valence":"win","action":"go","sham":0,"trial_type":"pit-trial","trial_index":135,"time_elapsed":661674,"internal_node_id":"0.0-106.0","task_version":"battery-v0.2-trt","session":3},{"rune":"G","rune_set":"elianto","hex":"#f73b6a7A","correct":-1,"choice":-1,"rt":-1,"accuracy":1,"outcome":"-1","keys":[],"total_keys":0,"block":1,"trial":102,"stimulus":8,"robot":4,"valence":"lose","action":"no-go","sham":0,"trial_type":"pit-trial","trial_index":136,"time_elapsed":665678,"internal_node_id":"0.0-107.0","task_version":"battery-v0.2-trt","session":3},{"rune":"A","rune_set":"elianto","hex":"#3366ff99","correct":32,"choice":-1,"rt":-1,"accuracy":0,"outcome":"+10","keys":[],"total_keys":0,"block":1,"trial":103,"stimulus":9,"robot":1,"valence":"win","action":"go","sham":1,"trial_type":"pit-trial","trial_index":137,"time_elapsed":669682,"internal_node_id":"0.0-108.0","task_version":"battery-v0.2-trt","session":3},{"rune":"L","rune_set":"elianto","hex":"#f73b6a7A","correct":32,"choice":-1,"rt":-1,"accuracy":0,"outcome":"-10","keys":[],"total_keys":0,"block":1,"trial":104,"stimulus":10,"robot":3,"valence":"lose","action":"go","sham":0,"trial_type":"pit-trial","trial_index":138,"time_elapsed":673687,"internal_node_id":"0.0-109.0","task_version":"battery-v0.2-trt","session":3},{"rune":"A","rune_set":"elianto","hex":"#3366ff99","correct":32,"choice":-1,"rt":-1,"accuracy":0,"outcome":"+1","keys":[],"total_keys":0,"block":1,"trial":105,"stimulus":9,"robot":1,"valence":"win","action":"go","sham":0,"trial_type":"pit-trial","trial_index":139,"time_elapsed":677691,"internal_node_id":"0.0-110.0","task_version":"battery-v0.2-trt","session":3},{"rune":"L","rune_set":"elianto","hex":"#f73b6a7A","correct":32,"choice":-1,"rt":-1,"accuracy":0,"outcome":"-10","keys":[],"total_keys":0,"block":1,"trial":106,"stimulus":10,"robot":3,"valence":"lose","action":"go","sham":0,"trial_type":"pit-trial","trial_index":140,"time_elapsed":681695,"internal_node_id":"0.0-111.0","task_version":"battery-v0.2-trt","session":3},{"rune":"U","rune_set":"elianto","hex":"#3366ff99","correct":32,"choice":-1,"rt":-1,"accuracy":0,"outcome":"+10","keys":[],"total_keys":0,"block":1,"trial":107,"stimulus":11,"robot":1,"valence":"win","action":"go","sham":1,"trial_type":"pit-trial","trial_index":141,"time_elapsed":685699,"internal_node_id":"0.0-112.0","task_version":"battery-v0.2-trt","session":3},{"rune":"G","rune_set":"elianto","hex":"#f73b6a7A","correct":-1,"choice":-1,"rt":-1,"accuracy":1,"outcome":"-1","keys":[],"total_keys":0,"block":1,"trial":108,"stimulus":8,"robot":4,"valence":"lose","action":"no-go","sham":0,"trial_type":"pit-trial","trial_index":142,"time_elapsed":689704,"internal_node_id":"0.0-113.0","task_version":"battery-v0.2-trt","session":3},{"rune":"A","rune_set":"elianto","hex":"#3366ff99","correct":32,"choice":-1,"rt":-1,"accuracy":0,"outcome":"+1","keys":[],"total_keys":0,"block":1,"trial":109,"stimulus":9,"robot":1,"valence":"win","action":"go","sham":0,"trial_type":"pit-trial","trial_index":143,"time_elapsed":693708,"internal_node_id":"0.0-114.0","task_version":"battery-v0.2-trt","session":3},{"rune":"L","rune_set":"elianto","hex":"#f73b6a7A","correct":32,"choice":-1,"rt":-1,"accuracy":0,"outcome":"-10","keys":[],"total_keys":0,"block":1,"trial":110,"stimulus":10,"robot":3,"valence":"lose","action":"go","sham":0,"trial_type":"pit-trial","trial_index":144,"time_elapsed":697713,"internal_node_id":"0.0-115.0","task_version":"battery-v0.2-trt","session":3},{"rune":"G","rune_set":"elianto","hex":"#f73b6a7A","correct":-1,"choice":-1,"rt":-1,"accuracy":1,"outcome":"-1","keys":[],"total_keys":0,"block":1,"trial":111,"stimulus":8,"robot":4,"valence":"lose","action":"no-go","sham":0,"trial_type":"pit-trial","trial_index":145,"time_elapsed":701719,"internal_node_id":"0.0-116.0","task_version":"battery-v0.2-trt","session":3},{"rune":"U","rune_set":"elianto","hex":"#3366ff99","correct":32,"choice":-1,"rt":-1,"accuracy":0,"outcome":"+1","keys":[],"total_keys":0,"block":1,"trial":112,"stimulus":11,"robot":1,"valence":"win","action":"go","sham":0,"trial_type":"pit-trial","trial_index":146,"time_elapsed":705723,"internal_node_id":"0.0-117.0","task_version":"battery-v0.2-trt","session":3},{"rune":"L","rune_set":"elianto","hex":"#f73b6a7A","correct":32,"choice":-1,"rt":-1,"accuracy":0,"outcome":"-10","keys":[],"total_keys":0,"block":1,"trial":113,"stimulus":10,"robot":3,"valence":"lose","action":"go","sham":0,"trial_type":"pit-trial","trial_index":147,"time_elapsed":709728,"internal_node_id":"0.0-118.0","task_version":"battery-v0.2-trt","session":3},{"rune":"G","rune_set":"elianto","hex":"#f73b6a7A","correct":-1,"choice":-1,"rt":-1,"accuracy":1,"outcome":"-1","keys":[],"total_keys":0,"block":1,"trial":114,"stimulus":8,"robot":4,"valence":"lose","action":"no-go","sham":0,"trial_type":"pit-trial","trial_index":148,"time_elapsed":713731,"internal_node_id":"0.0-119.0","task_version":"battery-v0.2-trt","session":3},{"rune":"A","rune_set":"elianto","hex":"#3366ff99","correct":32,"choice":-1,"rt":-1,"accuracy":0,"outcome":"+1","keys":[],"total_keys":0,"block":1,"trial":115,"stimulus":9,"robot":1,"valence":"win","action":"go","sham":0,"trial_type":"pit-trial","trial_index":149,"time_elapsed":717734,"internal_node_id":"0.0-120.0","task_version":"battery-v0.2-trt","session":3},{"rune":"U","rune_set":"elianto","hex":"#3366ff99","correct":32,"choice":-1,"rt":-1,"accuracy":0,"outcome":"+1","keys":[],"total_keys":0,"block":1,"trial":116,"stimulus":11,"robot":1,"valence":"win","action":"go","sham":0,"trial_type":"pit-trial","trial_index":150,"time_elapsed":721739,"internal_node_id":"0.0-121.0","task_version":"battery-v0.2-trt","session":3},{"rune":"A","rune_set":"elianto","hex":"#3366ff99","correct":32,"choice":-1,"rt":-1,"accuracy":0,"outcome":"+1","keys":[],"total_keys":0,"block":1,"trial":117,"stimulus":9,"robot":1,"valence":"win","action":"go","sham":0,"trial_type":"pit-trial","trial_index":151,"time_elapsed":725743,"internal_node_id":"0.0-122.0","task_version":"battery-v0.2-trt","session":3},{"rune":"L","rune_set":"elianto","hex":"#f73b6a7A","correct":32,"choice":-1,"rt":-1,"accuracy":0,"outcome":"-10","keys":[],"total_keys":0,"block":1,"trial":118,"stimulus":10,"robot":3,"valence":"lose","action":"go","sham":0,"trial_type":"pit-trial","trial_index":152,"time_elapsed":729747,"internal_node_id":"0.0-123.0","task_version":"battery-v0.2-trt","session":3},{"rune":"U","rune_set":"elianto","hex":"#3366ff99","correct":32,"choice":-1,"rt":-1,"accuracy":0,"outcome":"+1","keys":[],"total_keys":0,"block":1,"trial":119,"stimulus":11,"robot":1,"valence":"win","action":"go","sham":0,"trial_type":"pit-trial","trial_index":153,"time_elapsed":733750,"internal_node_id":"0.0-124.0","task_version":"battery-v0.2-trt","session":3},{"rune":"G","rune_set":"elianto","hex":"#f73b6a7A","correct":-1,"choice":-1,"rt":-1,"accuracy":1,"outcome":"-1","keys":[],"total_keys":0,"block":1,"trial":120,"stimulus":8,"robot":4,"valence":"lose","action":"no-go","sham":0,"trial_type":"pit-trial","trial_index":154,"time_elapsed":737754,"internal_node_id":"0.0-125.0","task_version":"battery-v0.2-trt","session":3},{"view_history":"[{\"page_index\":0,\"viewing_time\":3652.8499999985797},{\"page_index\":1,\"viewing_time\":1655.9350000025006}]","rt":5309.290000004694,"trial_type":"pit-instructions","trial_index":155,"time_elapsed":743065,"internal_node_id":"0.0-126.0","task_version":"battery-v0.2-trt","session":3},{"rune":"X","rune_set":"elianto","hex":"#3366ff99","correct":32,"choice":32,"rt":527.6000000012573,"accuracy":1,"outcome":"+10","keys":[2028.6349999951199],"total_keys":1,"block":2,"trial":121,"stimulus":3,"robot":1,"valence":"win","action":"go","sham":0,"trial_type":"pit-trial","trial_index":156,"time_elapsed":746298,"internal_node_id":"0.0-127.0","task_version":"battery-v0.2-trt","session":3},{"rune":"Q","rune_set":"elianto","hex":"#3366ff99","correct":-1,"choice":32,"rt":608.6149999900954,"accuracy":0,"outcome":"+1","keys":[2109.339999995427],"total_keys":1,"block":2,"trial":122,"stimulus":0,"robot":2,"valence":"win","action":"no-go","sham":0,"trial_type":"pit-trial","trial_index":157,"time_elapsed":749611,"internal_node_id":"0.0-128.0","task_version":"battery-v0.2-trt","session":3},{"rune":"N","rune_set":"elianto","hex":"#f73b6a7A","correct":32,"choice":32,"rt":939.3750000017462,"accuracy":1,"outcome":"-10","keys":[2440.3950000123587],"total_keys":1,"block":2,"trial":123,"stimulus":1,"robot":3,"valence":"lose","action":"go","sham":1,"trial_type":"pit-trial","trial_index":158,"time_elapsed":753254,"internal_node_id":"0.0-129.0","task_version":"battery-v0.2-trt","session":3},{"rune":"F","rune_set":"elianto","hex":"#f73b6a7A","correct":-1,"choice":-1,"rt":-1,"accuracy":1,"outcome":"-1","keys":[],"total_keys":0,"block":2,"trial":124,"stimulus":2,"robot":4,"valence":"lose","action":"no-go","sham":0,"trial_type":"pit-trial","trial_index":159,"time_elapsed":757258,"internal_node_id":"0.0-130.0","task_version":"battery-v0.2-trt","session":3},{"rune":"X","rune_set":"elianto","hex":"#3366ff99","correct":32,"choice":32,"rt":806.0399999958463,"accuracy":1,"outcome":"+1","keys":[2307.1450000134064],"total_keys":1,"block":2,"trial":125,"stimulus":3,"robot":1,"valence":"win","action":"go","sham":1,"trial_type":"pit-trial","trial_index":160,"time_elapsed":760768,"internal_node_id":"0.0-131.0","task_version":"battery-v0.2-trt","session":3},{"rune":"N","rune_set":"elianto","hex":"#f73b6a7A","correct":32,"choice":-1,"rt":-1,"accuracy":0,"outcome":"-10","keys":[],"total_keys":0,"block":2,"trial":126,"stimulus":1,"robot":3,"valence":"lose","action":"go","sham":0,"trial_type":"pit-trial","trial_index":161,"time_elapsed":764772,"internal_node_id":"0.0-132.0","task_version":"battery-v0.2-trt","session":3},{"rune":"F","rune_set":"elianto","hex":"#f73b6a7A","correct":-1,"choice":32,"rt":557.8999999997905,"accuracy":0,"outcome":"-10","keys":[2059.3599999992875],"total_keys":1,"block":2,"trial":127,"stimulus":2,"robot":4,"valence":"lose","action":"no-go","sham":0,"trial_type":"pit-trial","trial_index":162,"time_elapsed":768035,"internal_node_id":"0.0-133.0","task_version":"battery-v0.2-trt","session":3},{"rune":"Q","rune_set":"elianto","hex":"#3366ff99","correct":-1,"choice":32,"rt":383.3850000082748,"accuracy":0,"outcome":"+1","keys":[1883.8700000051176],"total_keys":1,"block":2,"trial":128,"stimulus":0,"robot":2,"valence":"win","action":"no-go","sham":0,"trial_type":"pit-trial","trial_index":163,"time_elapsed":771122,"internal_node_id":"0.0-134.0","task_version":"battery-v0.2-trt","session":3},{"rune":"Q","rune_set":"elianto","hex":"#3366ff99","correct":-1,"choice":-1,"rt":-1,"accuracy":1,"outcome":"+10","keys":[],"total_keys":0,"block":2,"trial":129,"stimulus":0,"robot":2,"valence":"win","action":"no-go","sham":0,"trial_type":"pit-trial","trial_index":164,"time_elapsed":775125,"internal_node_id":"0.0-135.0","task_version":"battery-v0.2-trt","session":3},{"rune":"F","rune_set":"elianto","hex":"#f73b6a7A","correct":-1,"choice":-1,"rt":-1,"accuracy":1,"outcome":"-1","keys":[],"total_keys":0,"block":2,"trial":130,"stimulus":2,"robot":4,"valence":"lose","action":"no-go","sham":0,"trial_type":"pit-trial","trial_index":165,"time_elapsed":779128,"internal_node_id":"0.0-136.0","task_version":"battery-v0.2-trt","session":3},{"rune":"X","rune_set":"elianto","hex":"#3366ff99","correct":32,"choice":-1,"rt":-1,"accuracy":0,"outcome":"+1","keys":[],"total_keys":0,"block":2,"trial":131,"stimulus":3,"robot":1,"valence":"win","action":"go","sham":0,"trial_type":"pit-trial","trial_index":166,"time_elapsed":783132,"internal_node_id":"0.0-137.0","task_version":"battery-v0.2-trt","session":3},{"rune":"N","rune_set":"elianto","hex":"#f73b6a7A","correct":32,"choice":-1,"rt":-1,"accuracy":0,"outcome":"-10","keys":[],"total_keys":0,"block":2,"trial":132,"stimulus":1,"robot":3,"valence":"lose","action":"go","sham":0,"trial_type":"pit-trial","trial_index":167,"time_elapsed":787137,"internal_node_id":"0.0-138.0","task_version":"battery-v0.2-trt","session":3},{"rune":"F","rune_set":"elianto","hex":"#f73b6a7A","correct":-1,"choice":-1,"rt":-1,"accuracy":1,"outcome":"-1","keys":[],"total_keys":0,"block":2,"trial":133,"stimulus":2,"robot":4,"valence":"lose","action":"no-go","sham":0,"trial_type":"pit-trial","trial_index":168,"time_elapsed":791142,"internal_node_id":"0.0-139.0","task_version":"battery-v0.2-trt","session":3},{"rune":"N","rune_set":"elianto","hex":"#f73b6a7A","correct":32,"choice":32,"rt":434.3000000080792,"accuracy":1,"outcome":"-1","keys":[1934.4700000074226],"total_keys":1,"block":2,"trial":134,"stimulus":1,"robot":3,"valence":"lose","action":"go","sham":0,"trial_type":"pit-trial","trial_index":169,"time_elapsed":794279,"internal_node_id":"0.0-140.0","task_version":"battery-v0.2-trt","session":3},{"rune":"Q","rune_set":"elianto","hex":"#3366ff99","correct":-1,"choice":32,"rt":750.0100000033854,"accuracy":0,"outcome":"+1","keys":[2251.1800000065705],"total_keys":1,"block":2,"trial":135,"stimulus":0,"robot":2,"valence":"win","action":"no-go","sham":0,"trial_type":"pit-trial","trial_index":170,"time_elapsed":797733,"internal_node_id":"0.0-141.0","task_version":"battery-v0.2-trt","session":3},{"rune":"X","rune_set":"elianto","hex":"#3366ff99","correct":32,"choice":32,"rt":413.71999999682885,"accuracy":1,"outcome":"+10","keys":[1914.0899999911198],"total_keys":1,"block":2,"trial":136,"stimulus":3,"robot":1,"valence":"win","action":"go","sham":0,"trial_type":"pit-trial","trial_index":171,"time_elapsed":800849,"internal_node_id":"0.0-142.0","task_version":"battery-v0.2-trt","session":3},{"rune":"F","rune_set":"elianto","hex":"#f73b6a7A","correct":-1,"choice":32,"rt":721.544999993057,"accuracy":0,"outcome":"-10","keys":[2222.2299999993993],"total_keys":1,"block":2,"trial":137,"stimulus":2,"robot":4,"valence":"lose","action":"no-go","sham":0,"trial_type":"pit-trial","trial_index":172,"time_elapsed":804274,"internal_node_id":"0.0-143.0","task_version":"battery-v0.2-trt","session":3},{"rune":"Q","rune_set":"elianto","hex":"#3366ff99","correct":-1,"choice":32,"rt":691.0999999963678,"accuracy":0,"outcome":"+1","keys":[2192.3050000041258],"total_keys":1,"block":2,"trial":138,"stimulus":0,"robot":2,"valence":"win","action":"no-go","sham":0,"trial_type":"pit-trial","trial_index":173,"time_elapsed":807670,"internal_node_id":"0.0-144.0","task_version":"battery-v0.2-trt","session":3},{"rune":"X","rune_set":"elianto","hex":"#3366ff99","correct":32,"choice":32,"rt":373.24999998963904,"accuracy":1,"outcome":"+10","keys":[1874.0899999975227],"total_keys":1,"block":2,"trial":139,"stimulus":3,"robot":1,"valence":"win","action":"go","sham":0,"trial_type":"pit-trial","trial_index":174,"time_elapsed":810747,"internal_node_id":"0.0-145.0","task_version":"battery-v0.2-trt","session":3},{"rune":"N","rune_set":"elianto","hex":"#f73b6a7A","correct":32,"choice":-1,"rt":-1,"accuracy":0,"outcome":"-10","keys":[],"total_keys":0,"block":2,"trial":140,"stimulus":1,"robot":3,"valence":"lose","action":"go","sham":0,"trial_type":"pit-trial","trial_index":175,"time_elapsed":814751,"internal_node_id":"0.0-146.0","task_version":"battery-v0.2-trt","session":3},{"rune":"N","rune_set":"elianto","hex":"#f73b6a7A","correct":32,"choice":32,"rt":538.1849999976112,"accuracy":1,"outcome":"-1","keys":[2038.3699999947567],"total_keys":1,"block":2,"trial":141,"stimulus":1,"robot":3,"valence":"lose","action":"go","sham":0,"trial_type":"pit-trial","trial_index":176,"time_elapsed":817994,"internal_node_id":"0.0-147.0","task_version":"battery-v0.2-trt","session":3},{"rune":"F","rune_set":"elianto","hex":"#f73b6a7A","correct":-1,"choice":32,"rt":857.1850000007544,"accuracy":0,"outcome":"-10","keys":[2357.8699999925448],"total_keys":1,"block":2,"trial":142,"stimulus":2,"robot":4,"valence":"lose","action":"no-go","sham":0,"trial_type":"pit-trial","trial_index":177,"time_elapsed":821555,"internal_node_id":"0.0-148.0","task_version":"battery-v0.2-trt","session":3},{"rune":"Q","rune_set":"elianto","hex":"#3366ff99","correct":-1,"choice":-1,"rt":-1,"accuracy":1,"outcome":"+10","keys":[],"total_keys":0,"block":2,"trial":143,"stimulus":0,"robot":2,"valence":"win","action":"no-go","sham":0,"trial_type":"pit-trial","trial_index":178,"time_elapsed":825559,"internal_node_id":"0.0-149.0","task_version":"battery-v0.2-trt","session":3},{"rune":"X","rune_set":"elianto","hex":"#3366ff99","correct":32,"choice":32,"rt":686.4050000003772,"accuracy":1,"outcome":"+10","keys":[2186.459999997169],"total_keys":1,"block":2,"trial":144,"stimulus":3,"robot":1,"valence":"win","action":"go","sham":0,"trial_type":"pit-trial","trial_index":179,"time_elapsed":828950,"internal_node_id":"0.0-150.0","task_version":"battery-v0.2-trt","session":3},{"rune":"N","rune_set":"elianto","hex":"#f73b6a7A","correct":32,"choice":-1,"rt":-1,"accuracy":0,"outcome":"-10","keys":[2895.749999996042],"total_keys":1,"block":2,"trial":145,"stimulus":1,"robot":3,"valence":"lose","action":"go","sham":0,"trial_type":"pit-trial","trial_index":180,"time_elapsed":832954,"internal_node_id":"0.0-151.0","task_version":"battery-v0.2-trt","session":3},{"rune":"X","rune_set":"elianto","hex":"#3366ff99","correct":32,"choice":32,"rt":525.8599999942817,"accuracy":1,"outcome":"+10","keys":[1024.8700000083772,2027.265000011539],"total_keys":2,"block":2,"trial":146,"stimulus":3,"robot":1,"valence":"win","action":"go","sham":0,"trial_type":"pit-trial","trial_index":181,"time_elapsed":836185,"internal_node_id":"0.0-152.0","task_version":"battery-v0.2-trt","session":3},{"rune":"Q","rune_set":"elianto","hex":"#3366ff99","correct":-1,"choice":32,"rt":837.9750000021886,"accuracy":0,"outcome":"+1","keys":[2338.389999989886],"total_keys":1,"block":2,"trial":147,"stimulus":0,"robot":2,"valence":"win","action":"no-go","sham":0,"trial_type":"pit-trial","trial_index":182,"time_elapsed":839729,"internal_node_id":"0.0-153.0","task_version":"battery-v0.2-trt","session":3},{"rune":"F","rune_set":"elianto","hex":"#f73b6a7A","correct":-1,"choice":32,"rt":1275.4249999998137,"accuracy":0,"outcome":"-10","keys":[2776.2799999909475],"total_keys":1,"block":2,"trial":148,"stimulus":2,"robot":4,"valence":"lose","action":"no-go","sham":0,"trial_type":"pit-trial","trial_index":183,"time_elapsed":843709,"internal_node_id":"0.0-154.0","task_version":"battery-v0.2-trt","session":3},{"rune":"F","rune_set":"elianto","hex":"#f73b6a7A","correct":-1,"choice":-1,"rt":-1,"accuracy":1,"outcome":"-1","keys":[],"total_keys":0,"block":2,"trial":149,"stimulus":2,"robot":4,"valence":"lose","action":"no-go","sham":0,"trial_type":"pit-trial","trial_index":184,"time_elapsed":847714,"internal_node_id":"0.0-155.0","task_version":"battery-v0.2-trt","session":3},{"rune":"N","rune_set":"elianto","hex":"#f73b6a7A","correct":32,"choice":32,"rt":1111.31999999634,"accuracy":1,"outcome":"-1","keys":[2611.5699999936623],"total_keys":1,"block":2,"trial":150,"stimulus":1,"robot":3,"valence":"lose","action":"go","sham":0,"trial_type":"pit-trial","trial_index":185,"time_elapsed":851530,"internal_node_id":"0.0-156.0","task_version":"battery-v0.2-trt","session":3},{"rune":"X","rune_set":"elianto","hex":"#3366ff99","correct":32,"choice":-1,"rt":-1,"accuracy":0,"outcome":"+1","keys":[],"total_keys":0,"block":2,"trial":151,"stimulus":3,"robot":1,"valence":"win","action":"go","sham":0,"trial_type":"pit-trial","trial_index":186,"time_elapsed":855535,"internal_node_id":"0.0-157.0","task_version":"battery-v0.2-trt","session":3},{"rune":"Q","rune_set":"elianto","hex":"#3366ff99","correct":-1,"choice":-1,"rt":-1,"accuracy":1,"outcome":"+10","keys":[],"total_keys":0,"block":2,"trial":152,"stimulus":0,"robot":2,"valence":"win","action":"no-go","sham":0,"trial_type":"pit-trial","trial_index":187,"time_elapsed":859538,"internal_node_id":"0.0-158.0","task_version":"battery-v0.2-trt","session":3},{"rune":"F","rune_set":"elianto","hex":"#f73b6a7A","correct":-1,"choice":32,"rt":1019.9300000094809,"accuracy":0,"outcome":"-10","keys":[2520.5799999966985],"total_keys":1,"block":2,"trial":153,"stimulus":2,"robot":4,"valence":"lose","action":"no-go","sham":0,"trial_type":"pit-trial","trial_index":188,"time_elapsed":863262,"internal_node_id":"0.0-159.0","task_version":"battery-v0.2-trt","session":3},{"rune":"B","rune_set":"elianto","hex":"#f73b6a7A","correct":-1,"choice":32,"rt":996.8249999947147,"accuracy":0,"outcome":"-10","keys":[2497.2799999959534],"total_keys":1,"block":2,"trial":154,"stimulus":5,"robot":4,"valence":"lose","action":"no-go","sham":0,"trial_type":"pit-trial","trial_index":189,"time_elapsed":866963,"internal_node_id":"0.0-160.0","task_version":"battery-v0.2-trt","session":3},{"rune":"T","rune_set":"elianto","hex":"#f73b6a7A","correct":32,"choice":32,"rt":672.019999998156,"accuracy":1,"outcome":"-10","keys":[722.8899999900023,2172.1399999951245],"total_keys":2,"block":2,"trial":155,"stimulus":4,"robot":3,"valence":"lose","action":"go","sham":1,"trial_type":"pit-trial","trial_index":190,"time_elapsed":870338,"internal_node_id":"0.0-161.0","task_version":"battery-v0.2-trt","session":3},{"rune":"N","rune_set":"elianto","hex":"#f73b6a7A","correct":32,"choice":32,"rt":948.1349999987287,"accuracy":1,"outcome":"-1","keys":[2449.139999996987],"total_keys":1,"block":2,"trial":156,"stimulus":1,"robot":3,"valence":"lose","action":"go","sham":0,"trial_type":"pit-trial","trial_index":191,"time_elapsed":873990,"internal_node_id":"0.0-162.0","task_version":"battery-v0.2-trt","session":3},{"rune":"T","rune_set":"elianto","hex":"#f73b6a7A","correct":32,"choice":-1,"rt":-1,"accuracy":0,"outcome":"-10","keys":[],"total_keys":0,"block":2,"trial":157,"stimulus":4,"robot":3,"valence":"lose","action":"go","sham":0,"trial_type":"pit-trial","trial_index":192,"time_elapsed":877995,"internal_node_id":"0.0-163.0","task_version":"battery-v0.2-trt","session":3},{"rune":"N","rune_set":"elianto","hex":"#f73b6a7A","correct":32,"choice":-1,"rt":-1,"accuracy":0,"outcome":"-10","keys":[],"total_keys":0,"block":2,"trial":158,"stimulus":1,"robot":3,"valence":"lose","action":"go","sham":0,"trial_type":"pit-trial","trial_index":193,"time_elapsed":881998,"internal_node_id":"0.0-164.0","task_version":"battery-v0.2-trt","session":3},{"rune":"B","rune_set":"elianto","hex":"#f73b6a7A","correct":-1,"choice":32,"rt":454.5949999883305,"accuracy":0,"outcome":"-10","keys":[1955.1199999987148],"total_keys":1,"block":2,"trial":159,"stimulus":5,"robot":4,"valence":"lose","action":"no-go","sham":0,"trial_type":"pit-trial","trial_index":194,"time_elapsed":885157,"internal_node_id":"0.0-165.0","task_version":"battery-v0.2-trt","session":3},{"rune":"F","rune_set":"elianto","hex":"#f73b6a7A","correct":-1,"choice":32,"rt":907.8549999976531,"accuracy":0,"outcome":"-10","keys":[2408.2300000009127],"total_keys":1,"block":2,"trial":160,"stimulus":2,"robot":4,"valence":"lose","action":"no-go","sham":0,"trial_type":"pit-trial","trial_index":195,"time_elapsed":888769,"internal_node_id":"0.0-166.0","task_version":"battery-v0.2-trt","session":3},{"rune":"B","rune_set":"elianto","hex":"#f73b6a7A","correct":-1,"choice":-1,"rt":-1,"accuracy":1,"outcome":"-1","keys":[],"total_keys":0,"block":2,"trial":161,"stimulus":5,"robot":4,"valence":"lose","action":"no-go","sham":0,"trial_type":"pit-trial","trial_index":196,"time_elapsed":892772,"internal_node_id":"0.0-167.0","task_version":"battery-v0.2-trt","session":3},{"rune":"T","rune_set":"elianto","hex":"#f73b6a7A","correct":32,"choice":-1,"rt":-1,"accuracy":0,"outcome":"-1","keys":[],"total_keys":0,"block":2,"trial":162,"stimulus":4,"robot":3,"valence":"lose","action":"go","sham":1,"trial_type":"pit-trial","trial_index":197,"time_elapsed":896777,"internal_node_id":"0.0-168.0","task_version":"battery-v0.2-trt","session":3},{"rune":"F","rune_set":"elianto","hex":"#f73b6a7A","correct":-1,"choice":-1,"rt":-1,"accuracy":1,"outcome":"-1","keys":[],"total_keys":0,"block":2,"trial":163,"stimulus":2,"robot":4,"valence":"lose","action":"no-go","sham":0,"trial_type":"pit-trial","trial_index":198,"time_elapsed":900784,"internal_node_id":"0.0-169.0","task_version":"battery-v0.2-trt","session":3},{"rune":"C","rune_set":"elianto","hex":"#3366ff99","correct":-1,"choice":32,"rt":833.3050000073854,"accuracy":0,"outcome":"+1","keys":[2333.9599999890197],"total_keys":1,"block":2,"trial":164,"stimulus":6,"robot":2,"valence":"win","action":"no-go","sham":0,"trial_type":"pit-trial","trial_index":199,"time_elapsed":904322,"internal_node_id":"0.0-170.0","task_version":"battery-v0.2-trt","session":3},{"rune":"F","rune_set":"elianto","hex":"#f73b6a7A","correct":-1,"choice":-1,"rt":-1,"accuracy":1,"outcome":"-1","keys":[],"total_keys":0,"block":2,"trial":165,"stimulus":2,"robot":4,"valence":"lose","action":"no-go","sham":0,"trial_type":"pit-trial","trial_index":200,"time_elapsed":908325,"internal_node_id":"0.0-171.0","task_version":"battery-v0.2-trt","session":3},{"rune":"B","rune_set":"elianto","hex":"#f73b6a7A","correct":-1,"choice":-1,"rt":-1,"accuracy":1,"outcome":"-1","keys":[],"total_keys":0,"block":2,"trial":166,"stimulus":5,"robot":4,"valence":"lose","action":"no-go","sham":0,"trial_type":"pit-trial","trial_index":201,"time_elapsed":912329,"internal_node_id":"0.0-172.0","task_version":"battery-v0.2-trt","session":3},{"rune":"T","rune_set":"elianto","hex":"#f73b6a7A","correct":32,"choice":-1,"rt":-1,"accuracy":0,"outcome":"-10","keys":[741.5900000050897],"total_keys":1,"block":2,"trial":167,"stimulus":4,"robot":3,"valence":"lose","action":"go","sham":0,"trial_type":"pit-trial","trial_index":202,"time_elapsed":916332,"internal_node_id":"0.0-173.0","task_version":"battery-v0.2-trt","session":3},{"rune":"C","rune_set":"elianto","hex":"#3366ff99","correct":-1,"choice":-1,"rt":-1,"accuracy":1,"outcome":"+10","keys":[],"total_keys":0,"block":2,"trial":168,"stimulus":6,"robot":2,"valence":"win","action":"no-go","sham":0,"trial_type":"pit-trial","trial_index":203,"time_elapsed":920337,"internal_node_id":"0.0-174.0","task_version":"battery-v0.2-trt","session":3},{"rune":"Z","rune_set":"elianto","hex":"#3366ff99","correct":32,"choice":-1,"rt":-1,"accuracy":0,"outcome":"+1","keys":[],"total_keys":0,"block":2,"trial":169,"stimulus":7,"robot":1,"valence":"win","action":"go","sham":0,"trial_type":"pit-trial","trial_index":204,"time_elapsed":924342,"internal_node_id":"0.0-175.0","task_version":"battery-v0.2-trt","session":3},{"rune":"C","rune_set":"elianto","hex":"#3366ff99","correct":-1,"choice":-1,"rt":-1,"accuracy":1,"outcome":"+10","keys":[],"total_keys":0,"block":2,"trial":170,"stimulus":6,"robot":2,"valence":"win","action":"no-go","sham":0,"trial_type":"pit-trial","trial_index":205,"time_elapsed":928346,"internal_node_id":"0.0-176.0","task_version":"battery-v0.2-trt","session":3},{"rune":"B","rune_set":"elianto","hex":"#f73b6a7A","correct":-1,"choice":-1,"rt":-1,"accuracy":1,"outcome":"-1","keys":[],"total_keys":0,"block":2,"trial":171,"stimulus":5,"robot":4,"valence":"lose","action":"no-go","sham":0,"trial_type":"pit-trial","trial_index":206,"time_elapsed":932351,"internal_node_id":"0.0-177.0","task_version":"battery-v0.2-trt","session":3},{"rune":"T","rune_set":"elianto","hex":"#f73b6a7A","correct":32,"choice":-1,"rt":-1,"accuracy":0,"outcome":"-10","keys":[],"total_keys":0,"block":2,"trial":172,"stimulus":4,"robot":3,"valence":"lose","action":"go","sham":0,"trial_type":"pit-trial","trial_index":207,"time_elapsed":936355,"internal_node_id":"0.0-178.0","task_version":"battery-v0.2-trt","session":3},{"rune":"C","rune_set":"elianto","hex":"#3366ff99","correct":-1,"choice":-1,"rt":-1,"accuracy":1,"outcome":"+10","keys":[],"total_keys":0,"block":2,"trial":173,"stimulus":6,"robot":2,"valence":"win","action":"no-go","sham":0,"trial_type":"pit-trial","trial_index":208,"time_elapsed":940359,"internal_node_id":"0.0-179.0","task_version":"battery-v0.2-trt","session":3},{"rune":"T","rune_set":"elianto","hex":"#f73b6a7A","correct":32,"choice":-1,"rt":-1,"accuracy":0,"outcome":"-10","keys":[],"total_keys":0,"block":2,"trial":174,"stimulus":4,"robot":3,"valence":"lose","action":"go","sham":0,"trial_type":"pit-trial","trial_index":209,"time_elapsed":944365,"internal_node_id":"0.0-180.0","task_version":"battery-v0.2-trt","session":3},{"rune":"Z","rune_set":"elianto","hex":"#3366ff99","correct":32,"choice":32,"rt":1160.264999998617,"accuracy":1,"outcome":"+10","keys":[2661.4799999952083],"total_keys":1,"block":2,"trial":175,"stimulus":7,"robot":1,"valence":"win","action":"go","sham":0,"trial_type":"pit-trial","trial_index":210,"time_elapsed":948230,"internal_node_id":"0.0-181.0","task_version":"battery-v0.2-trt","session":3},{"rune":"B","rune_set":"elianto","hex":"#f73b6a7A","correct":-1,"choice":-1,"rt":-1,"accuracy":1,"outcome":"-1","keys":[],"total_keys":0,"block":2,"trial":176,"stimulus":5,"robot":4,"valence":"lose","action":"no-go","sham":0,"trial_type":"pit-trial","trial_index":211,"time_elapsed":952235,"internal_node_id":"0.0-182.0","task_version":"battery-v0.2-trt","session":3},{"rune":"T","rune_set":"elianto","hex":"#f73b6a7A","correct":32,"choice":32,"rt":365.0799999886658,"accuracy":1,"outcome":"-1","keys":[1866.1750000028405],"total_keys":1,"block":2,"trial":177,"stimulus":4,"robot":3,"valence":"lose","action":"go","sham":0,"trial_type":"pit-trial","trial_index":212,"time_elapsed":955304,"internal_node_id":"0.0-183.0","task_version":"battery-v0.2-trt","session":3},{"rune":"B","rune_set":"elianto","hex":"#f73b6a7A","correct":-1,"choice":-1,"rt":-1,"accuracy":1,"outcome":"-1","keys":[],"total_keys":0,"block":2,"trial":178,"stimulus":5,"robot":4,"valence":"lose","action":"no-go","sham":0,"trial_type":"pit-trial","trial_index":213,"time_elapsed":959309,"internal_node_id":"0.0-184.0","task_version":"battery-v0.2-trt","session":3},{"rune":"C","rune_set":"elianto","hex":"#3366ff99","correct":-1,"choice":-1,"rt":-1,"accuracy":1,"outcome":"+10","keys":[],"total_keys":0,"block":2,"trial":179,"stimulus":6,"robot":2,"valence":"win","action":"no-go","sham":0,"trial_type":"pit-trial","trial_index":214,"time_elapsed":963312,"internal_node_id":"0.0-185.0","task_version":"battery-v0.2-trt","session":3},{"rune":"Z","rune_set":"elianto","hex":"#3366ff99","correct":32,"choice":32,"rt":383.89499999175314,"accuracy":1,"outcome":"+10","keys":[1884.5949999958975],"total_keys":1,"block":2,"trial":180,"stimulus":7,"robot":1,"valence":"win","action":"go","sham":0,"trial_type":"pit-trial","trial_index":215,"time_elapsed":966400,"internal_node_id":"0.0-186.0","task_version":"battery-v0.2-trt","session":3},{"rune":"B","rune_set":"elianto","hex":"#f73b6a7A","correct":-1,"choice":-1,"rt":-1,"accuracy":1,"outcome":"-10","keys":[],"total_keys":0,"block":2,"trial":181,"stimulus":5,"robot":4,"valence":"lose","action":"no-go","sham":1,"trial_type":"pit-trial","trial_index":216,"time_elapsed":970405,"internal_node_id":"0.0-187.0","task_version":"battery-v0.2-trt","session":3},{"rune":"T","rune_set":"elianto","hex":"#f73b6a7A","correct":32,"choice":32,"rt":1168.405000003986,"accuracy":1,"outcome":"-1","keys":[2669.639999992796],"total_keys":1,"block":2,"trial":182,"stimulus":4,"robot":3,"valence":"lose","action":"go","sham":0,"trial_type":"pit-trial","trial_index":217,"time_elapsed":974278,"internal_node_id":"0.0-188.0","task_version":"battery-v0.2-trt","session":3},{"rune":"C","rune_set":"elianto","hex":"#3366ff99","correct":-1,"choice":-1,"rt":-1,"accuracy":1,"outcome":"+10","keys":[],"total_keys":0,"block":2,"trial":183,"stimulus":6,"robot":2,"valence":"win","action":"no-go","sham":0,"trial_type":"pit-trial","trial_index":218,"time_elapsed":978282,"internal_node_id":"0.0-189.0","task_version":"battery-v0.2-trt","session":3},{"rune":"Z","rune_set":"elianto","hex":"#3366ff99","correct":32,"choice":32,"rt":825.1200000086101,"accuracy":1,"outcome":"+10","keys":[2325.1799999998184],"total_keys":1,"block":2,"trial":184,"stimulus":7,"robot":1,"valence":"win","action":"go","sham":0,"trial_type":"pit-trial","trial_index":219,"time_elapsed":981811,"internal_node_id":"0.0-190.0","task_version":"battery-v0.2-trt","session":3},{"rune":"Z","rune_set":"elianto","hex":"#3366ff99","correct":32,"choice":32,"rt":580.2750000002561,"accuracy":1,"outcome":"+10","keys":[2081.3100000086706],"total_keys":1,"block":2,"trial":185,"stimulus":7,"robot":1,"valence":"win","action":"go","sham":0,"trial_type":"pit-trial","trial_index":220,"time_elapsed":985096,"internal_node_id":"0.0-191.0","task_version":"battery-v0.2-trt","session":3},{"rune":"B","rune_set":"elianto","hex":"#f73b6a7A","correct":-1,"choice":-1,"rt":-1,"accuracy":1,"outcome":"-10","keys":[],"total_keys":0,"block":2,"trial":186,"stimulus":5,"robot":4,"valence":"lose","action":"no-go","sham":1,"trial_type":"pit-trial","trial_index":221,"time_elapsed":989101,"internal_node_id":"0.0-192.0","task_version":"battery-v0.2-trt","session":3},{"rune":"C","rune_set":"elianto","hex":"#3366ff99","correct":-1,"choice":-1,"rt":-1,"accuracy":1,"outcome":"+10","keys":[],"total_keys":0,"block":2,"trial":187,"stimulus":6,"robot":2,"valence":"win","action":"no-go","sham":0,"trial_type":"pit-trial","trial_index":222,"time_elapsed":993104,"internal_node_id":"0.0-193.0","task_version":"battery-v0.2-trt","session":3},{"rune":"T","rune_set":"elianto","hex":"#f73b6a7A","correct":32,"choice":-1,"rt":-1,"accuracy":0,"outcome":"-10","keys":[],"total_keys":0,"block":2,"trial":188,"stimulus":4,"robot":3,"valence":"lose","action":"go","sham":0,"trial_type":"pit-trial","trial_index":223,"time_elapsed":997109,"internal_node_id":"0.0-194.0","task_version":"battery-v0.2-trt","session":3},{"rune":"C","rune_set":"elianto","hex":"#3366ff99","correct":-1,"choice":-1,"rt":-1,"accuracy":1,"outcome":"+10","keys":[],"total_keys":0,"block":2,"trial":189,"stimulus":6,"robot":2,"valence":"win","action":"no-go","sham":0,"trial_type":"pit-trial","trial_index":224,"time_elapsed":1001114,"internal_node_id":"0.0-195.0","task_version":"battery-v0.2-trt","session":3},{"rune":"B","rune_set":"elianto","hex":"#f73b6a7A","correct":-1,"choice":32,"rt":389.3099999986589,"accuracy":0,"outcome":"-10","keys":[1890.3799999970943],"total_keys":1,"block":2,"trial":190,"stimulus":5,"robot":4,"valence":"lose","action":"no-go","sham":0,"trial_type":"pit-trial","trial_index":225,"time_elapsed":1004209,"internal_node_id":"0.0-196.0","task_version":"battery-v0.2-trt","session":3},{"rune":"Z","rune_set":"elianto","hex":"#3366ff99","correct":32,"choice":32,"rt":967.594999994617,"accuracy":1,"outcome":"+10","keys":[2467.8549999953248],"total_keys":1,"block":2,"trial":191,"stimulus":7,"robot":1,"valence":"win","action":"go","sham":0,"trial_type":"pit-trial","trial_index":226,"time_elapsed":1007881,"internal_node_id":"0.0-197.0","task_version":"battery-v0.2-trt","session":3},{"rune":"T","rune_set":"elianto","hex":"#f73b6a7A","correct":32,"choice":-1,"rt":-1,"accuracy":0,"outcome":"-10","keys":[],"total_keys":0,"block":2,"trial":192,"stimulus":4,"robot":3,"valence":"lose","action":"go","sham":0,"trial_type":"pit-trial","trial_index":227,"time_elapsed":1011885,"internal_node_id":"0.0-198.0","task_version":"battery-v0.2-trt","session":3},{"rune":"C","rune_set":"elianto","hex":"#3366ff99","correct":-1,"choice":-1,"rt":-1,"accuracy":1,"outcome":"+1","keys":[],"total_keys":0,"block":2,"trial":193,"stimulus":6,"robot":2,"valence":"win","action":"no-go","sham":1,"trial_type":"pit-trial","trial_index":228,"time_elapsed":1015891,"internal_node_id":"0.0-199.0","task_version":"battery-v0.2-trt","session":3},{"rune":"H","rune_set":"elianto","hex":"#3366ff99","correct":32,"choice":32,"rt":489.610000004177,"accuracy":1,"outcome":"+10","keys":[1990.4049999895506],"total_keys":1,"block":2,"trial":194,"stimulus":8,"robot":1,"valence":"win","action":"go","sham":0,"trial_type":"pit-trial","trial_index":229,"time_elapsed":1019084,"internal_node_id":"0.0-200.0","task_version":"battery-v0.2-trt","session":3},{"rune":"T","rune_set":"elianto","hex":"#f73b6a7A","correct":32,"choice":-1,"rt":-1,"accuracy":0,"outcome":"-10","keys":[],"total_keys":0,"block":2,"trial":195,"stimulus":4,"robot":3,"valence":"lose","action":"go","sham":0,"trial_type":"pit-trial","trial_index":230,"time_elapsed":1023088,"internal_node_id":"0.0-201.0","task_version":"battery-v0.2-trt","session":3},{"rune":"Z","rune_set":"elianto","hex":"#3366ff99","correct":32,"choice":32,"rt":556.4950000116369,"accuracy":1,"outcome":"+10","keys":[2057.3399999993853],"total_keys":1,"block":2,"trial":196,"stimulus":7,"robot":1,"valence":"win","action":"go","sham":0,"trial_type":"pit-trial","trial_index":231,"time_elapsed":1026348,"internal_node_id":"0.0-202.0","task_version":"battery-v0.2-trt","session":3},{"rune":"C","rune_set":"elianto","hex":"#3366ff99","correct":-1,"choice":-1,"rt":-1,"accuracy":1,"outcome":"+10","keys":[],"total_keys":0,"block":2,"trial":197,"stimulus":6,"robot":2,"valence":"win","action":"no-go","sham":0,"trial_type":"pit-trial","trial_index":232,"time_elapsed":1030352,"internal_node_id":"0.0-203.0","task_version":"battery-v0.2-trt","session":3},{"rune":"Z","rune_set":"elianto","hex":"#3366ff99","correct":32,"choice":32,"rt":965.1800000137882,"accuracy":1,"outcome":"+10","keys":[2465.714999998454],"total_keys":1,"block":2,"trial":198,"stimulus":7,"robot":1,"valence":"win","action":"go","sham":0,"trial_type":"pit-trial","trial_index":233,"time_elapsed":1034021,"internal_node_id":"0.0-204.0","task_version":"battery-v0.2-trt","session":3},{"rune":"T","rune_set":"elianto","hex":"#f73b6a7A","correct":32,"choice":32,"rt":897.6200000033714,"accuracy":1,"outcome":"-1","keys":[2398.105000000214],"total_keys":1,"block":2,"trial":199,"stimulus":4,"robot":3,"valence":"lose","action":"go","sham":0,"trial_type":"pit-trial","trial_index":234,"time_elapsed":1037623,"internal_node_id":"0.0-205.0","task_version":"battery-v0.2-trt","session":3},{"rune":"H","rune_set":"elianto","hex":"#3366ff99","correct":32,"choice":32,"rt":699.8300000122981,"accuracy":1,"outcome":"+10","keys":[2200.7750000047963],"total_keys":1,"block":2,"trial":200,"stimulus":8,"robot":1,"valence":"win","action":"go","sham":0,"trial_type":"pit-trial","trial_index":235,"time_elapsed":1041026,"internal_node_id":"0.0-206.0","task_version":"battery-v0.2-trt","session":3},{"rune":"C","rune_set":"elianto","hex":"#3366ff99","correct":-1,"choice":32,"rt":1166.2150000047404,"accuracy":0,"outcome":"+10","keys":[2667.520000002696],"total_keys":1,"block":2,"trial":201,"stimulus":6,"robot":2,"valence":"win","action":"no-go","sham":1,"trial_type":"pit-trial","trial_index":236,"time_elapsed":1044898,"internal_node_id":"0.0-207.0","task_version":"battery-v0.2-trt","session":3},{"rune":"Z","rune_set":"elianto","hex":"#3366ff99","correct":32,"choice":32,"rt":559.6450000012992,"accuracy":1,"outcome":"+10","keys":[2059.754999994766],"total_keys":1,"block":2,"trial":202,"stimulus":7,"robot":1,"valence":"win","action":"go","sham":0,"trial_type":"pit-trial","trial_index":237,"time_elapsed":1048162,"internal_node_id":"0.0-208.0","task_version":"battery-v0.2-trt","session":3},{"rune":"H","rune_set":"elianto","hex":"#3366ff99","correct":32,"choice":32,"rt":430.95499998889863,"accuracy":1,"outcome":"+10","keys":[1931.5849999985658],"total_keys":1,"block":2,"trial":203,"stimulus":8,"robot":1,"valence":"win","action":"go","sham":0,"trial_type":"pit-trial","trial_index":238,"time_elapsed":1051297,"internal_node_id":"0.0-209.0","task_version":"battery-v0.2-trt","session":3},{"rune":"Y","rune_set":"elianto","hex":"#3366ff99","correct":-1,"choice":32,"rt":937.7550000061747,"accuracy":0,"outcome":"+1","keys":[2437.9699999990407],"total_keys":1,"block":2,"trial":204,"stimulus":9,"robot":2,"valence":"win","action":"no-go","sham":0,"trial_type":"pit-trial","trial_index":239,"time_elapsed":1054939,"internal_node_id":"0.0-210.0","task_version":"battery-v0.2-trt","session":3},{"rune":"H","rune_set":"elianto","hex":"#3366ff99","correct":32,"choice":32,"rt":759.2900000016671,"accuracy":1,"outcome":"+10","keys":[2259.880000012461],"total_keys":1,"block":2,"trial":205,"stimulus":8,"robot":1,"valence":"win","action":"go","sham":0,"trial_type":"pit-trial","trial_index":240,"time_elapsed":1058402,"internal_node_id":"0.0-211.0","task_version":"battery-v0.2-trt","session":3},{"rune":"Z","rune_set":"elianto","hex":"#3366ff99","correct":32,"choice":32,"rt":482.2050000075251,"accuracy":1,"outcome":"+10","keys":[1983.019999999553],"total_keys":1,"block":2,"trial":206,"stimulus":7,"robot":1,"valence":"win","action":"go","sham":0,"trial_type":"pit-trial","trial_index":241,"time_elapsed":1061588,"internal_node_id":"0.0-212.0","task_version":"battery-v0.2-trt","session":3},{"rune":"C","rune_set":"elianto","hex":"#3366ff99","correct":-1,"choice":-1,"rt":-1,"accuracy":1,"outcome":"+1","keys":[],"total_keys":0,"block":2,"trial":207,"stimulus":6,"robot":2,"valence":"win","action":"no-go","sham":1,"trial_type":"pit-trial","trial_index":242,"time_elapsed":1065593,"internal_node_id":"0.0-213.0","task_version":"battery-v0.2-trt","session":3},{"rune":"Y","rune_set":"elianto","hex":"#3366ff99","correct":-1,"choice":32,"rt":487.43500000284985,"accuracy":0,"outcome":"+1","keys":[1987.605000001844],"total_keys":1,"block":2,"trial":208,"stimulus":9,"robot":2,"valence":"win","action":"no-go","sham":0,"trial_type":"pit-trial","trial_index":243,"time_elapsed":1068783,"internal_node_id":"0.0-214.0","task_version":"battery-v0.2-trt","session":3},{"rune":"H","rune_set":"elianto","hex":"#3366ff99","correct":32,"choice":32,"rt":591.8200000014622,"accuracy":1,"outcome":"+10","keys":[2091.9949999949895],"total_keys":1,"block":2,"trial":209,"stimulus":8,"robot":1,"valence":"win","action":"go","sham":0,"trial_type":"pit-trial","trial_index":244,"time_elapsed":1072079,"internal_node_id":"0.0-215.0","task_version":"battery-v0.2-trt","session":3},{"rune":"Y","rune_set":"elianto","hex":"#3366ff99","correct":-1,"choice":32,"rt":719.4750000054482,"accuracy":0,"outcome":"+1","keys":[2220.499999995809],"total_keys":1,"block":2,"trial":210,"stimulus":9,"robot":2,"valence":"win","action":"no-go","sham":0,"trial_type":"pit-trial","trial_index":245,"time_elapsed":1075502,"internal_node_id":"0.0-216.0","task_version":"battery-v0.2-trt","session":3},{"rune":"R","rune_set":"elianto","hex":"#f73b6a7A","correct":32,"choice":32,"rt":1176.8000000012107,"accuracy":1,"outcome":"-10","keys":[2677.2300000009127],"total_keys":1,"block":2,"trial":211,"stimulus":10,"robot":3,"valence":"lose","action":"go","sham":1,"trial_type":"pit-trial","trial_index":246,"time_elapsed":1079383,"internal_node_id":"0.0-217.0","task_version":"battery-v0.2-trt","session":3},{"rune":"M","rune_set":"elianto","hex":"#f73b6a7A","correct":-1,"choice":-1,"rt":-1,"accuracy":1,"outcome":"-10","keys":[],"total_keys":0,"block":2,"trial":212,"stimulus":11,"robot":4,"valence":"lose","action":"no-go","sham":1,"trial_type":"pit-trial","trial_index":247,"time_elapsed":1083385,"internal_node_id":"0.0-218.0","task_version":"battery-v0.2-trt","session":3},{"rune":"Y","rune_set":"elianto","hex":"#3366ff99","correct":-1,"choice":32,"rt":457.80000000377186,"accuracy":0,"outcome":"+1","keys":[1959.0549999994691],"total_keys":1,"block":2,"trial":213,"stimulus":9,"robot":2,"valence":"win","action":"no-go","sham":0,"trial_type":"pit-trial","trial_index":248,"time_elapsed":1086547,"internal_node_id":"0.0-219.0","task_version":"battery-v0.2-trt","session":3},{"rune":"R","rune_set":"elianto","hex":"#f73b6a7A","correct":32,"choice":32,"rt":759.355000001844,"accuracy":1,"outcome":"-1","keys":[2260.5599999949336],"total_keys":1,"block":2,"trial":214,"stimulus":10,"robot":3,"valence":"lose","action":"go","sham":0,"trial_type":"pit-trial","trial_index":249,"time_elapsed":1090011,"internal_node_id":"0.0-220.0","task_version":"battery-v0.2-trt","session":3},{"rune":"M","rune_set":"elianto","hex":"#f73b6a7A","correct":-1,"choice":32,"rt":789.1150000069756,"accuracy":0,"outcome":"-10","keys":[2289.4299999896903],"total_keys":1,"block":2,"trial":215,"stimulus":11,"robot":4,"valence":"lose","action":"no-go","sham":0,"trial_type":"pit-trial","trial_index":250,"time_elapsed":1093504,"internal_node_id":"0.0-221.0","task_version":"battery-v0.2-trt","session":3},{"rune":"H","rune_set":"elianto","hex":"#3366ff99","correct":32,"choice":32,"rt":651.3399999968242,"accuracy":1,"outcome":"+10","keys":[2151.570000001928],"total_keys":1,"block":2,"trial":216,"stimulus":8,"robot":1,"valence":"win","action":"go","sham":0,"trial_type":"pit-trial","trial_index":251,"time_elapsed":1096859,"internal_node_id":"0.0-222.0","task_version":"battery-v0.2-trt","session":3},{"rune":"Y","rune_set":"elianto","hex":"#3366ff99","correct":-1,"choice":-1,"rt":-1,"accuracy":1,"outcome":"+10","keys":[],"total_keys":0,"block":2,"trial":217,"stimulus":9,"robot":2,"valence":"win","action":"no-go","sham":0,"trial_type":"pit-trial","trial_index":252,"time_elapsed":1100863,"internal_node_id":"0.0-223.0","task_version":"battery-v0.2-trt","session":3},{"rune":"M","rune_set":"elianto","hex":"#f73b6a7A","correct":-1,"choice":32,"rt":921.7550000031479,"accuracy":0,"outcome":"-10","keys":[2421.8400000100955],"total_keys":1,"block":2,"trial":218,"stimulus":11,"robot":4,"valence":"lose","action":"no-go","sham":0,"trial_type":"pit-trial","trial_index":253,"time_elapsed":1104489,"internal_node_id":"0.0-224.0","task_version":"battery-v0.2-trt","session":3},{"rune":"R","rune_set":"elianto","hex":"#f73b6a7A","correct":32,"choice":32,"rt":1049.0500000014435,"accuracy":1,"outcome":"-1","keys":[2549.0699999937788],"total_keys":1,"block":2,"trial":219,"stimulus":10,"robot":3,"valence":"lose","action":"go","sham":0,"trial_type":"pit-trial","trial_index":254,"time_elapsed":1108243,"internal_node_id":"0.0-225.0","task_version":"battery-v0.2-trt","session":3},{"rune":"H","rune_set":"elianto","hex":"#3366ff99","correct":32,"choice":32,"rt":600.5000000004657,"accuracy":1,"outcome":"+1","keys":[2100.7349999998696],"total_keys":1,"block":2,"trial":220,"stimulus":8,"robot":1,"valence":"win","action":"go","sham":1,"trial_type":"pit-trial","trial_index":255,"time_elapsed":1111548,"internal_node_id":"0.0-226.0","task_version":"battery-v0.2-trt","session":3},{"rune":"H","rune_set":"elianto","hex":"#3366ff99","correct":32,"choice":-1,"rt":-1,"accuracy":0,"outcome":"+1","keys":[],"total_keys":0,"block":2,"trial":221,"stimulus":8,"robot":1,"valence":"win","action":"go","sham":0,"trial_type":"pit-trial","trial_index":256,"time_elapsed":1115551,"internal_node_id":"0.0-227.0","task_version":"battery-v0.2-trt","session":3},{"rune":"R","rune_set":"elianto","hex":"#f73b6a7A","correct":32,"choice":32,"rt":815.679999999702,"accuracy":1,"outcome":"-10","keys":[2316.4600000018254],"total_keys":1,"block":2,"trial":222,"stimulus":10,"robot":3,"valence":"lose","action":"go","sham":1,"trial_type":"pit-trial","trial_index":257,"time_elapsed":1119071,"internal_node_id":"0.0-228.0","task_version":"battery-v0.2-trt","session":3},{"rune":"M","rune_set":"elianto","hex":"#f73b6a7A","correct":-1,"choice":-1,"rt":-1,"accuracy":1,"outcome":"-1","keys":[],"total_keys":0,"block":2,"trial":223,"stimulus":11,"robot":4,"valence":"lose","action":"no-go","sham":0,"trial_type":"pit-trial","trial_index":258,"time_elapsed":1123074,"internal_node_id":"0.0-229.0","task_version":"battery-v0.2-trt","session":3},{"rune":"Y","rune_set":"elianto","hex":"#3366ff99","correct":-1,"choice":32,"rt":258.74499999918044,"accuracy":0,"outcome":"+1","keys":[1759.619999997085],"total_keys":1,"block":2,"trial":224,"stimulus":9,"robot":2,"valence":"win","action":"no-go","sham":0,"trial_type":"pit-trial","trial_index":259,"time_elapsed":1126037,"internal_node_id":"0.0-230.0","task_version":"battery-v0.2-trt","session":3},{"rune":"H","rune_set":"elianto","hex":"#3366ff99","correct":32,"choice":-1,"rt":-1,"accuracy":0,"outcome":"+1","keys":[],"total_keys":0,"block":2,"trial":225,"stimulus":8,"robot":1,"valence":"win","action":"go","sham":0,"trial_type":"pit-trial","trial_index":260,"time_elapsed":1130041,"internal_node_id":"0.0-231.0","task_version":"battery-v0.2-trt","session":3},{"rune":"R","rune_set":"elianto","hex":"#f73b6a7A","correct":32,"choice":-1,"rt":-1,"accuracy":0,"outcome":"-1","keys":[],"total_keys":0,"block":2,"trial":226,"stimulus":10,"robot":3,"valence":"lose","action":"go","sham":1,"trial_type":"pit-trial","trial_index":261,"time_elapsed":1134047,"internal_node_id":"0.0-232.0","task_version":"battery-v0.2-trt","session":3},{"rune":"M","rune_set":"elianto","hex":"#f73b6a7A","correct":-1,"choice":-1,"rt":-1,"accuracy":1,"outcome":"-1","keys":[],"total_keys":0,"block":2,"trial":227,"stimulus":11,"robot":4,"valence":"lose","action":"no-go","sham":0,"trial_type":"pit-trial","trial_index":262,"time_elapsed":1138052,"internal_node_id":"0.0-233.0","task_version":"battery-v0.2-trt","session":3},{"rune":"Y","rune_set":"elianto","hex":"#3366ff99","correct":-1,"choice":-1,"rt":-1,"accuracy":1,"outcome":"+10","keys":[2933.2500000018626,2935.630000007339],"total_keys":2,"block":2,"trial":228,"stimulus":9,"robot":2,"valence":"win","action":"no-go","sham":0,"trial_type":"pit-trial","trial_index":263,"time_elapsed":1142057,"internal_node_id":"0.0-234.0","task_version":"battery-v0.2-trt","session":3},{"rune":"H","rune_set":"elianto","hex":"#3366ff99","correct":32,"choice":-1,"rt":-1,"accuracy":0,"outcome":"+1","keys":[],"total_keys":0,"block":2,"trial":229,"stimulus":8,"robot":1,"valence":"win","action":"go","sham":0,"trial_type":"pit-trial","trial_index":264,"time_elapsed":1146061,"internal_node_id":"0.0-235.0","task_version":"battery-v0.2-trt","session":3},{"rune":"R","rune_set":"elianto","hex":"#f73b6a7A","correct":32,"choice":32,"rt":821.6350000002421,"accuracy":1,"outcome":"-1","keys":[2322.5150000071153],"total_keys":1,"block":2,"trial":230,"stimulus":10,"robot":3,"valence":"lose","action":"go","sham":0,"trial_type":"pit-trial","trial_index":265,"time_elapsed":1149586,"internal_node_id":"0.0-236.0","task_version":"battery-v0.2-trt","session":3},{"rune":"M","rune_set":"elianto","hex":"#f73b6a7A","correct":-1,"choice":-1,"rt":-1,"accuracy":1,"outcome":"-10","keys":[],"total_keys":0,"block":2,"trial":231,"stimulus":11,"robot":4,"valence":"lose","action":"no-go","sham":1,"trial_type":"pit-trial","trial_index":266,"time_elapsed":1153590,"internal_node_id":"0.0-237.0","task_version":"battery-v0.2-trt","session":3},{"rune":"Y","rune_set":"elianto","hex":"#3366ff99","correct":-1,"choice":32,"rt":865.3049999994691,"accuracy":0,"outcome":"+10","keys":[2366.5400000025984],"total_keys":1,"block":2,"trial":232,"stimulus":9,"robot":2,"valence":"win","action":"no-go","sham":1,"trial_type":"pit-trial","trial_index":267,"time_elapsed":1157160,"internal_node_id":"0.0-238.0","task_version":"battery-v0.2-trt","ses