[{"view_history":"[{\"page_index\":0,\"viewing_time\":1565.7000000064727}]","rt":1566.0299999872223,"trial_type":"instructions","trial_index":0,"time_elapsed":1586,"internal_node_id":"0.0-0.0","task_version":"battery-v0.2-trt","session":3},{"slider_type":"valence","raw_loc":504,"loc":0.508,"trial_type":"affective-slider","trial_index":1,"time_elapsed":11373,"internal_node_id":"0.0-1.0","task_version":"battery-v0.2-trt","session":3},{"responses":{"Q02":"0","Q06":"0","Q08":"3","Q04":"0","Q03":"0","Q05":"0","Q01":"0","Q07":"0"},"rt":22822.30499997968,"item_order":[1,5,7,3,2,4,0,6],"radio_events":[7746.809999982361,8555.009999981849,10483.659999998054,13491.194999980507,15963.654999999562,17683.73999997857,19851.839999988442,20660.03499997896],"key_events":[],"mouse_events":[5146.624999993946,7746.809999982361,8555.009999981849,10483.659999998054,13491.194999980507,15963.654999999562,17683.73999997857,19851.839999988442,20660.03499997896,22820.419999974547],"straightlining":0.875,"zigzagging":0.2857142857142857,"survey":"dass_d","trial_type":"survey-template","trial_index":2,"time_elapsed":34200,"internal_node_id":"0.0-2.0","task_version":"battery-v0.2-trt","session":3,"infrequency":0},{"responses":{"Q03":"0","Q08":"0","Q05":"0","Q04":"1","Q01":"0","Q07":"0","Q02":"0","Q06":"1"},"rt":25019.395000010263,"item_order":[2,7,4,3,0,6,1,5],"radio_events":[6423.219999996945,8263.57999999891,10943.670000007842,14240.05500000203,15256.200000003446,16664.294999995036,18616.314999992028,19992.599999997765],"key_events":[],"mouse_events":[6423.219999996945,8263.57999999891,10943.670000007842,14240.05500000203,15256.200000003446,16664.294999995036,18616.314999992028,19992.599999997765,25017.304999986663],"straightlining":0.75,"zigzagging":0.42857142857142855,"survey":"gad7","trial_type":"survey-template","trial_index":3,"time_elapsed":59227,"internal_node_id":"0.0-3.0","task_version":"battery-v0.2-trt","session":3,"infrequency":0},{"view_history":"[{\"page_index\":0,\"viewing_time\":2205.775000009453},{\"page_index\":1,\"viewing_time\":2432.039999985136},{\"page_index\":2,\"viewing_time\":2480.2400000044145},{\"page_index\":3,\"viewing_time\":3232.4099999968894},{\"page_index\":4,\"viewing_time\":4320.315000019036},{\"page_index\":5,\"viewing_time\":2168.3049999992363},{\"page_index\":6,\"viewing_time\":3592.179999977816},{\"page_index\":7,\"viewing_time\":11289.145000017015},{\"page_index\":8,\"viewing_time\":4149.0800000028685},{\"page_index\":9,\"viewing_time\":3787.7750000043306}]","rt":39657.85000001779,"trial_type":"pit-instructions","trial_index":4,"time_elapsed":98892,"internal_node_id":"0.0-4.0-0.0","task_version":"battery-v0.2-trt","session":3},{"rune":"1","rune_set":"elianto","hex":"#3366ff99","correct":32,"choice":32,"rt":842.415000020992,"accuracy":1,"outcome":"+10","keys":[2342.4700000032317],"total_keys":1,"block":0,"practice":1,"trial_type":"pit-trial","trial_index":5,"time_elapsed":102443,"internal_node_id":"0.0-4.0-1.0-0.0","task_version":"battery-v0.2-trt","session":3},{"rune":"1","rune_set":"elianto","hex":"#3366ff99","correct":32,"choice":32,"rt":298.5049999842886,"accuracy":1,"outcome":"+10","keys":[1798.5650000046007],"total_keys":1,"block":0,"practice":1,"trial_type":"pit-trial","trial_index":6,"time_elapsed":105448,"internal_node_id":"0.0-4.0-1.1-0.1","task_version":"battery-v0.2-trt","session":3},{"rune":"1","rune_set":"elianto","hex":"#3366ff99","correct":32,"choice":32,"rt":325.6099999998696,"accuracy":1,"outcome":"+10","keys":[1826.2349999858998],"total_keys":1,"block":0,"practice":1,"trial_type":"pit-trial","trial_index":7,"time_elapsed":108481,"internal_node_id":"0.0-4.0-1.2-0.2","task_version":"battery-v0.2-trt","session":3},{"rune":"1","rune_set":"elianto","hex":"#3366ff99","correct":32,"choice":32,"rt":397.13000002666377,"accuracy":1,"outcome":"+10","keys":[1897.3199999891222],"total_keys":1,"block":0,"practice":1,"trial_type":"pit-trial","trial_index":8,"time_elapsed":111584,"internal_node_id":"0.0-4.0-1.3-0.3","task_version":"battery-v0.2-trt","session":3},{"trial_type":"call-function","trial_index":9,"time_elapsed":111589,"internal_node_id":"0.0-4.0-2.0","task_version":"battery-v0.2-trt","session":3},{"view_history":"[{\"page_index\":0,\"viewing_time\":5343.504999997094},{\"page_index\":1,\"viewing_time\":2712.530000018887}]","rt":8056.530000001658,"trial_type":"pit-instructions","trial_index":10,"time_elapsed":119646,"internal_node_id":"0.0-4.0-3.0","task_version":"battery-v0.2-trt","session":3},{"rune":"2","rune_set":"elianto","hex":"#3366ff99","correct":-1,"choice":-1,"rt":-1,"accuracy":1,"outcome":"+10","keys":[],"total_keys":0,"block":0,"practice":2,"trial_type":"pit-trial","trial_index":11,"time_elapsed":123653,"internal_node_id":"0.0-4.0-4.0-0.0","task_version":"battery-v0.2-trt","session":3},{"rune":"2","rune_set":"elianto","hex":"#3366ff99","correct":-1,"choice":-1,"rt":-1,"accuracy":1,"outcome":"+10","keys":[],"total_keys":0,"block":0,"practice":2,"trial_type":"pit-trial","trial_index":12,"time_elapsed":127660,"internal_node_id":"0.0-4.0-4.1-0.1","task_version":"battery-v0.2-trt","session":3},{"rune":"2","rune_set":"elianto","hex":"#3366ff99","correct":-1,"choice":-1,"rt":-1,"accuracy":1,"outcome":"+10","keys":[],"total_keys":0,"block":0,"practice":2,"trial_type":"pit-trial","trial_index":13,"time_elapsed":131682,"internal_node_id":"0.0-4.0-4.2-0.2","task_version":"battery-v0.2-trt","session":3},{"rune":"2","rune_set":"elianto","hex":"#3366ff99","correct":-1,"choice":-1,"rt":-1,"accuracy":1,"outcome":"+10","keys":[],"total_keys":0,"block":0,"practice":2,"trial_type":"pit-trial","trial_index":14,"time_elapsed":135689,"internal_node_id":"0.0-4.0-4.3-0.3","task_version":"battery-v0.2-trt","session":3},{"trial_type":"call-function","trial_index":15,"time_elapsed":135694,"internal_node_id":"0.0-4.0-5.0","task_version":"battery-v0.2-trt","session":3},{"view_history":"[{\"page_index\":0,\"viewing_time\":1200.475000019651},{\"page_index\":1,\"viewing_time\":535.5799999961164}]","rt":1736.4850000012666,"trial_type":"pit-instructions","trial_index":16,"time_elapsed":137431,"internal_node_id":"0.0-4.0-6.0","task_version":"battery-v0.2-trt","session":3},{"rune":"3","rune_set":"elianto","hex":"#f73b6a7A","correct":-1,"choice":32,"rt":468.83499997784384,"accuracy":0,"outcome":"-10","keys":[1970.2349999861326],"total_keys":1,"block":0,"practice":3,"trial_type":"pit-trial","trial_index":17,"time_elapsed":140608,"internal_node_id":"0.0-4.0-7.0-0.0","task_version":"battery-v0.2-trt","session":3},{"rune":"3","rune_set":"elianto","hex":"#f73b6a7A","correct":-1,"choice":-1,"rt":-1,"accuracy":1,"outcome":"-1","keys":[],"total_keys":0,"block":0,"practice":3,"trial_type":"pit-trial","trial_index":18,"time_elapsed":144616,"internal_node_id":"0.0-4.0-7.1-0.1","task_version":"battery-v0.2-trt","session":3},{"rune":"3","rune_set":"elianto","hex":"#f73b6a7A","correct":-1,"choice":-1,"rt":-1,"accuracy":1,"outcome":"-1","keys":[],"total_keys":0,"block":0,"practice":3,"trial_type":"pit-trial","trial_index":19,"time_elapsed":148623,"internal_node_id":"0.0-4.0-7.2-0.2","task_version":"battery-v0.2-trt","session":3},{"rune":"3","rune_set":"elianto","hex":"#f73b6a7A","correct":-1,"choice":-1,"rt":-1,"accuracy":1,"outcome":"-1","keys":[],"total_keys":0,"block":0,"practice":3,"trial_type":"pit-trial","trial_index":20,"time_elapsed":152630,"internal_node_id":"0.0-4.0-7.3-0.3","task_version":"battery-v0.2-trt","session":3},{"trial_type":"call-function","trial_index":21,"time_elapsed":152634,"internal_node_id":"0.0-4.0-8.0","task_version":"battery-v0.2-trt","session":3},{"view_history":"[{\"page_index\":0,\"viewing_time\":3046.7400000197813},{\"page_index\":1,\"viewing_time\":992.115000000922}]","rt":4039.294999995036,"trial_type":"pit-instructions","trial_index":22,"time_elapsed":156674,"internal_node_id":"0.0-4.0-9.0","task_version":"battery-v0.2-trt","session":3},{"rune":"4","rune_set":"elianto","hex":"#f73b6a7A","correct":32,"choice":32,"rt":226.8999999796506,"accuracy":1,"outcome":"-1","keys":[1727.1900000050664],"total_keys":1,"block":0,"practice":4,"trial_type":"pit-trial","trial_index":23,"time_elapsed":159607,"internal_node_id":"0.0-4.0-10.0-0.0","task_version":"battery-v0.2-trt","session":3},{"rune":"4","rune_set":"elianto","hex":"#f73b6a7A","correct":32,"choice":32,"rt":61.000000016065314,"accuracy":1,"outcome":"-1","keys":[1561.5999999863561],"total_keys":1,"block":0,"practice":4,"trial_type":"pit-trial","trial_index":24,"time_elapsed":162381,"internal_node_id":"0.0-4.0-10.1-0.1","task_version":"battery-v0.2-trt","session":3},{"rune":"4","rune_set":"elianto","hex":"#f73b6a7A","correct":32,"choice":32,"rt":471.9350000086706,"accuracy":1,"outcome":"-1","keys":[1972.4300000234507],"total_keys":1,"block":0,"practice":4,"trial_type":"pit-trial","trial_index":25,"time_elapsed":165559,"internal_node_id":"0.0-4.0-10.2-0.2","task_version":"battery-v0.2-trt","session":3},{"rune":"4","rune_set":"elianto","hex":"#f73b6a7A","correct":32,"choice":32,"rt":493.5950000071898,"accuracy":1,"outcome":"-1","keys":[1994.1450000042096],"total_keys":1,"block":0,"practice":4,"trial_type":"pit-trial","trial_index":26,"time_elapsed":168760,"internal_node_id":"0.0-4.0-10.3-0.3","task_version":"battery-v0.2-trt","session":3},{"trial_type":"call-function","trial_index":27,"time_elapsed":168765,"internal_node_id":"0.0-4.0-11.0","task_version":"battery-v0.2-trt","session":3},{"view_history":"[{\"page_index\":0,\"viewing_time\":4797.735000000102},{\"page_index\":1,\"viewing_time\":4768.7150000128895},{\"page_index\":2,\"viewing_time\":3056.2799999897834},{\"page_index\":3,\"viewing_time\":1768.195000011474},{\"page_index\":4,\"viewing_time\":1872.334999992745},{\"page_index\":5,\"viewing_time\":1391.7950000031851}]","rt":17655.460000009043,"trial_type":"pit-instructions","trial_index":28,"time_elapsed":186421,"internal_node_id":"0.0-4.0-12.0","task_version":"battery-v0.2-trt","session":3},{"responses":["Press SPACE","+10","-1","True","True"],"num_errors":0,"rt":19460.570000024745,"trial_type":"pit-comprehension","trial_index":29,"time_elapsed":205889,"internal_node_id":"0.0-4.0-13.0","task_version":"battery-v0.2-trt","session":3},{"view_history":"[{\"page_index\":0,\"viewing_time\":1157.630000001518},{\"page_index\":1,\"viewing_time\":3320.624999993015}]","rt":4478.71500000474,"trial_type":"pit-instructions","trial_index":30,"time_elapsed":210376,"internal_node_id":"0.0-5.0","task_version":"battery-v0.2-trt","session":3},{"rune":"H","rune_set":"bacs2","hex":"#3366ff99","correct":32,"choice":32,"rt":770.9749999921769,"accuracy":1,"outcome":"+10","keys":[2271.520000009332],"total_keys":1,"block":1,"trial":1,"stimulus":3,"robot":1,"valence":"win","action":"go","sham":0,"trial_type":"pit-trial","trial_index":31,"time_elapsed":213855,"internal_node_id":"0.0-6.0","task_version":"battery-v0.2-trt","session":3},{"rune":"Q","rune_set":"bacs2","hex":"#f73b6a7A","correct":-1,"choice":-1,"rt":-1,"accuracy":1,"outcome":"-1","keys":[],"total_keys":0,"block":1,"trial":2,"stimulus":2,"robot":4,"valence":"lose","action":"no-go","sham":0,"trial_type":"pit-trial","trial_index":32,"time_elapsed":217864,"internal_node_id":"0.0-7.0","task_version":"battery-v0.2-trt","session":3},{"rune":"Y","rune_set":"bacs2","hex":"#3366ff99","correct":-1,"choice":-1,"rt":-1,"accuracy":1,"outcome":"+10","keys":[],"total_keys":0,"block":1,"trial":3,"stimulus":0,"robot":2,"valence":"win","action":"no-go","sham":0,"trial_type":"pit-trial","trial_index":33,"time_elapsed":221872,"internal_node_id":"0.0-8.0","task_version":"battery-v0.2-trt","session":3},{"rune":"T","rune_set":"bacs2","hex":"#f73b6a7A","correct":32,"choice":32,"rt":1107.125000009546,"accuracy":1,"outcome":"-1","keys":[2608.929999987595],"total_keys":1,"block":1,"trial":4,"stimulus":1,"robot":3,"valence":"lose","action":"go","sham":0,"trial_type":"pit-trial","trial_index":34,"time_elapsed":225688,"internal_node_id":"0.0-9.0","task_version":"battery-v0.2-trt","session":3},{"rune":"Y","rune_set":"bacs2","hex":"#3366ff99","correct":-1,"choice":-1,"rt":-1,"accuracy":1,"outcome":"+10","keys":[],"total_keys":0,"block":1,"trial":5,"stimulus":0,"robot":2,"valence":"win","action":"no-go","sham":0,"trial_type":"pit-trial","trial_index":35,"time_elapsed":229695,"internal_node_id":"0.0-10.0","task_version":"battery-v0.2-trt","session":3},{"rune":"T","rune_set":"bacs2","hex":"#f73b6a7A","correct":32,"choice":-1,"rt":-1,"accuracy":0,"outcome":"-10","keys":[2841.100000019651],"total_keys":1,"block":1,"trial":6,"stimulus":1,"robot":3,"valence":"lose","action":"go","sham":0,"trial_type":"pit-trial","trial_index":36,"time_elapsed":233702,"internal_node_id":"0.0-11.0","task_version":"battery-v0.2-trt","session":3},{"rune":"Q","rune_set":"bacs2","hex":"#f73b6a7A","correct":-1,"choice":-1,"rt":-1,"accuracy":1,"outcome":"-1","keys":[],"total_keys":0,"block":1,"trial":7,"stimulus":2,"robot":4,"valence":"lose","action":"no-go","sham":0,"trial_type":"pit-trial","trial_index":37,"time_elapsed":237709,"internal_node_id":"0.0-12.0","task_version":"battery-v0.2-trt","session":3},{"rune":"H","rune_set":"bacs2","hex":"#3366ff99","correct":32,"choice":32,"rt":471.0099999792874,"accuracy":1,"outcome":"+10","keys":[1971.0550000017975],"total_keys":1,"block":1,"trial":8,"stimulus":3,"robot":1,"valence":"win","action":"go","sham":0,"trial_type":"pit-trial","trial_index":38,"time_elapsed":240886,"internal_node_id":"0.0-13.0","task_version":"battery-v0.2-trt","session":3},{"rune":"T","rune_set":"bacs2","hex":"#f73b6a7A","correct":32,"choice":32,"rt":517.3800000047777,"accuracy":1,"outcome":"-10","keys":[2017.6849999988917],"total_keys":1,"block":1,"trial":9,"stimulus":1,"robot":3,"valence":"lose","action":"go","sham":1,"trial_type":"pit-trial","trial_index":39,"time_elapsed":244110,"internal_node_id":"0.0-14.0","task_version":"battery-v0.2-trt","session":3},{"rune":"Q","rune_set":"bacs2","hex":"#f73b6a7A","correct":-1,"choice":-1,"rt":-1,"accuracy":1,"outcome":"-1","keys":[],"total_keys":0,"block":1,"trial":10,"stimulus":2,"robot":4,"valence":"lose","action":"no-go","sham":0,"trial_type":"pit-trial","trial_index":40,"time_elapsed":248120,"internal_node_id":"0.0-15.0","task_version":"battery-v0.2-trt","session":3},{"rune":"Y","rune_set":"bacs2","hex":"#3366ff99","correct":-1,"choice":-1,"rt":-1,"accuracy":1,"outcome":"+10","keys":[],"total_keys":0,"block":1,"trial":11,"stimulus":0,"robot":2,"valence":"win","action":"no-go","sham":0,"trial_type":"pit-trial","trial_index":41,"time_elapsed":252128,"internal_node_id":"0.0-16.0","task_version":"battery-v0.2-trt","session":3},{"rune":"H","rune_set":"bacs2","hex":"#3366ff99","correct":32,"choice":32,"rt":475.5099999892991,"accuracy":1,"outcome":"+10","keys":[1976.3399999937974],"total_keys":1,"block":1,"trial":12,"stimulus":3,"robot":1,"valence":"win","action":"go","sham":0,"trial_type":"pit-trial","trial_index":42,"time_elapsed":255311,"internal_node_id":"0.0-17.0","task_version":"battery-v0.2-trt","session":3},{"rune":"Y","rune_set":"bacs2","hex":"#3366ff99","correct":-1,"choice":-1,"rt":-1,"accuracy":1,"outcome":"+10","keys":[],"total_keys":0,"block":1,"trial":13,"stimulus":0,"robot":2,"valence":"win","action":"no-go","sham":0,"trial_type":"pit-trial","trial_index":43,"time_elapsed":259317,"internal_node_id":"0.0-18.0","task_version":"battery-v0.2-trt","session":3},{"rune":"H","rune_set":"bacs2","hex":"#3366ff99","correct":32,"choice":32,"rt":628.9600000018254,"accuracy":1,"outcome":"+10","keys":[2129.899999999907],"total_keys":1,"block":1,"trial":14,"stimulus":3,"robot":1,"valence":"win","action":"go","sham":0,"trial_type":"pit-trial","trial_index":44,"time_elapsed":262654,"internal_node_id":"0.0-19.0","task_version":"battery-v0.2-trt","session":3},{"rune":"Q","rune_set":"bacs2","hex":"#f73b6a7A","correct":-1,"choice":-1,"rt":-1,"accuracy":1,"outcome":"-1","keys":[],"total_keys":0,"block":1,"trial":15,"stimulus":2,"robot":4,"valence":"lose","action":"no-go","sham":0,"trial_type":"pit-trial","trial_index":45,"time_elapsed":266661,"internal_node_id":"0.0-20.0","task_version":"battery-v0.2-trt","session":3},{"rune":"T","rune_set":"bacs2","hex":"#f73b6a7A","correct":32,"choice":32,"rt":413.10999999404885,"accuracy":1,"outcome":"-1","keys":[1913.8849999872036],"total_keys":1,"block":1,"trial":16,"stimulus":1,"robot":3,"valence":"lose","action":"go","sham":0,"trial_type":"pit-trial","trial_index":46,"time_elapsed":269782,"internal_node_id":"0.0-21.0","task_version":"battery-v0.2-trt","session":3},{"rune":"Y","rune_set":"bacs2","hex":"#3366ff99","correct":-1,"choice":-1,"rt":-1,"accuracy":1,"outcome":"+1","keys":[],"total_keys":0,"block":1,"trial":17,"stimulus":0,"robot":2,"valence":"win","action":"no-go","sham":1,"trial_type":"pit-trial","trial_index":47,"time_elapsed":273790,"internal_node_id":"0.0-22.0","task_version":"battery-v0.2-trt","session":3},{"rune":"H","rune_set":"bacs2","hex":"#3366ff99","correct":32,"choice":32,"rt":571.9500000122935,"accuracy":1,"outcome":"+10","keys":[2072.955000010552],"total_keys":1,"block":1,"trial":18,"stimulus":3,"robot":1,"valence":"win","action":"go","sham":0,"trial_type":"pit-trial","trial_index":48,"time_elapsed":277077,"internal_node_id":"0.0-23.0","task_version":"battery-v0.2-trt","session":3},{"rune":"Q","rune_set":"bacs2","hex":"#f73b6a7A","correct":-1,"choice":-1,"rt":-1,"accuracy":1,"outcome":"-10","keys":[],"total_keys":0,"block":1,"trial":19,"stimulus":2,"robot":4,"valence":"lose","action":"no-go","sham":1,"trial_type":"pit-trial","trial_index":49,"time_elapsed":281085,"internal_node_id":"0.0-24.0","task_version":"battery-v0.2-trt","session":3},{"rune":"T","rune_set":"bacs2","hex":"#f73b6a7A","correct":32,"choice":32,"rt":852.7549999998882,"accuracy":1,"outcome":"-1","keys":[2353.8799999805633],"total_keys":1,"block":1,"trial":20,"stimulus":1,"robot":3,"valence":"lose","action":"go","sham":0,"trial_type":"pit-trial","trial_index":50,"time_elapsed":284646,"internal_node_id":"0.0-25.0","task_version":"battery-v0.2-trt","session":3},{"rune":"Y","rune_set":"bacs2","hex":"#3366ff99","correct":-1,"choice":-1,"rt":-1,"accuracy":1,"outcome":"+10","keys":[],"total_keys":0,"block":1,"trial":21,"stimulus":0,"robot":2,"valence":"win","action":"no-go","sham":0,"trial_type":"pit-trial","trial_index":51,"time_elapsed":288654,"internal_node_id":"0.0-26.0","task_version":"battery-v0.2-trt","session":3},{"rune":"Q","rune_set":"bacs2","hex":"#f73b6a7A","correct":-1,"choice":-1,"rt":-1,"accuracy":1,"outcome":"-1","keys":[],"total_keys":0,"block":1,"trial":22,"stimulus":2,"robot":4,"valence":"lose","action":"no-go","sham":0,"trial_type":"pit-trial","trial_index":52,"time_elapsed":292660,"internal_node_id":"0.0-27.0","task_version":"battery-v0.2-trt","session":3},{"rune":"H","rune_set":"bacs2","hex":"#3366ff99","correct":32,"choice":32,"rt":621.4050000126008,"accuracy":1,"outcome":"+10","keys":[2122.3549999995157],"total_keys":1,"block":1,"trial":23,"stimulus":3,"robot":1,"valence":"win","action":"go","sham":0,"trial_type":"pit-trial","trial_index":53,"time_elapsed":295989,"internal_node_id":"0.0-28.0","task_version":"battery-v0.2-trt","session":3},{"rune":"T","rune_set":"bacs2","hex":"#f73b6a7A","correct":32,"choice":32,"rt":732.6149999862537,"accuracy":1,"outcome":"-1","keys":[2233.5199999797624],"total_keys":1,"block":1,"trial":24,"stimulus":1,"robot":3,"valence":"lose","action":"go","sham":0,"trial_type":"pit-trial","trial_index":54,"time_elapsed":299430,"internal_node_id":"0.0-29.0","task_version":"battery-v0.2-trt","session":3},{"rune":"H","rune_set":"bacs2","hex":"#3366ff99","correct":32,"choice":32,"rt":635.4599999904167,"accuracy":1,"outcome":"+10","keys":[2136.9249999988824],"total_keys":1,"block":1,"trial":25,"stimulus":3,"robot":1,"valence":"win","action":"go","sham":0,"trial_type":"pit-trial","trial_index":55,"time_elapsed":302773,"internal_node_id":"0.0-30.0","task_version":"battery-v0.2-trt","session":3},{"rune":"Y","rune_set":"bacs2","hex":"#3366ff99","correct":-1,"choice":-1,"rt":-1,"accuracy":1,"outcome":"+10","keys":[],"total_keys":0,"block":1,"trial":26,"stimulus":0,"robot":2,"valence":"win","action":"no-go","sham":0,"trial_type":"pit-trial","trial_index":56,"time_elapsed":306781,"internal_node_id":"0.0-31.0","task_version":"battery-v0.2-trt","session":3},{"rune":"T","rune_set":"bacs2","hex":"#f73b6a7A","correct":32,"choice":32,"rt":876.285000005737,"accuracy":1,"outcome":"-1","keys":[2377.6250000228174],"total_keys":1,"block":1,"trial":27,"stimulus":1,"robot":3,"valence":"lose","action":"go","sham":0,"trial_type":"pit-trial","trial_index":57,"time_elapsed":310366,"internal_node_id":"0.0-32.0","task_version":"battery-v0.2-trt","session":3},{"rune":"Q","rune_set":"bacs2","hex":"#f73b6a7A","correct":-1,"choice":-1,"rt":-1,"accuracy":1,"outcome":"-1","keys":[],"total_keys":0,"block":1,"trial":28,"stimulus":2,"robot":4,"valence":"lose","action":"no-go","sham":0,"trial_type":"pit-trial","trial_index":58,"time_elapsed":314374,"internal_node_id":"0.0-33.0","task_version":"battery-v0.2-trt","session":3},{"rune":"Q","rune_set":"bacs2","hex":"#f73b6a7A","correct":-1,"choice":-1,"rt":-1,"accuracy":1,"outcome":"-1","keys":[],"total_keys":0,"block":1,"trial":29,"stimulus":2,"robot":4,"valence":"lose","action":"no-go","sham":0,"trial_type":"pit-trial","trial_index":59,"time_elapsed":318381,"internal_node_id":"0.0-34.0","task_version":"battery-v0.2-trt","session":3},{"rune":"T","rune_set":"bacs2","hex":"#f73b6a7A","correct":32,"choice":-1,"rt":-1,"accuracy":0,"outcome":"-10","keys":[2825.970000005327],"total_keys":1,"block":1,"trial":30,"stimulus":1,"robot":3,"valence":"lose","action":"go","sham":0,"trial_type":"pit-trial","trial_index":60,"time_elapsed":322389,"internal_node_id":"0.0-35.0","task_version":"battery-v0.2-trt","session":3},{"rune":"H","rune_set":"bacs2","hex":"#3366ff99","correct":32,"choice":32,"rt":677.8899999917485,"accuracy":1,"outcome":"+10","keys":[2177.989999996498],"total_keys":1,"block":1,"trial":31,"stimulus":3,"robot":1,"valence":"win","action":"go","sham":0,"trial_type":"pit-trial","trial_index":61,"time_elapsed":325773,"internal_node_id":"0.0-36.0","task_version":"battery-v0.2-trt","session":3},{"rune":"Y","rune_set":"bacs2","hex":"#3366ff99","correct":-1,"choice":-1,"rt":-1,"accuracy":1,"outcome":"+1","keys":[],"total_keys":0,"block":1,"trial":32,"stimulus":0,"robot":2,"valence":"win","action":"no-go","sham":1,"trial_type":"pit-trial","trial_index":62,"time_elapsed":329780,"internal_node_id":"0.0-37.0","task_version":"battery-v0.2-trt","session":3},{"rune":"C","rune_set":"bacs2","hex":"#f73b6a7A","correct":-1,"choice":-1,"rt":-1,"accuracy":1,"outcome":"-1","keys":[],"total_keys":0,"block":1,"trial":33,"stimulus":5,"robot":4,"valence":"lose","action":"no-go","sham":0,"trial_type":"pit-trial","trial_index":63,"time_elapsed":333786,"internal_node_id":"0.0-38.0","task_version":"battery-v0.2-trt","session":3},{"rune":"E","rune_set":"bacs2","hex":"#f73b6a7A","correct":32,"choice":32,"rt":824.2599999939557,"accuracy":1,"outcome":"-1","keys":[2324.460000003455],"total_keys":1,"block":1,"trial":34,"stimulus":4,"robot":3,"valence":"lose","action":"go","sham":0,"trial_type":"pit-trial","trial_index":64,"time_elapsed":337318,"internal_node_id":"0.0-39.0","task_version":"battery-v0.2-trt","session":3},{"rune":"Q","rune_set":"bacs2","hex":"#f73b6a7A","correct":-1,"choice":-1,"rt":-1,"accuracy":1,"outcome":"-1","keys":[],"total_keys":0,"block":1,"trial":35,"stimulus":2,"robot":4,"valence":"lose","action":"no-go","sham":0,"trial_type":"pit-trial","trial_index":65,"time_elapsed":341327,"internal_node_id":"0.0-40.0","task_version":"battery-v0.2-trt","session":3},{"rune":"T","rune_set":"bacs2","hex":"#f73b6a7A","correct":32,"choice":32,"rt":1017.4300000071526,"accuracy":1,"outcome":"-10","keys":[2518.3950000209734],"total_keys":1,"block":1,"trial":36,"stimulus":1,"robot":3,"valence":"lose","action":"go","sham":1,"trial_type":"pit-trial","trial_index":66,"time_elapsed":345052,"internal_node_id":"0.0-41.0","task_version":"battery-v0.2-trt","session":3},{"rune":"C","rune_set":"bacs2","hex":"#f73b6a7A","correct":-1,"choice":-1,"rt":-1,"accuracy":1,"outcome":"-10","keys":[],"total_keys":0,"block":1,"trial":37,"stimulus":5,"robot":4,"valence":"lose","action":"no-go","sham":1,"trial_type":"pit-trial","trial_index":67,"time_elapsed":349059,"internal_node_id":"0.0-42.0","task_version":"battery-v0.2-trt","session":3},{"rune":"E","rune_set":"bacs2","hex":"#f73b6a7A","correct":32,"choice":32,"rt":815.0749999913387,"accuracy":1,"outcome":"-1","keys":[2315.530000021681],"total_keys":1,"block":1,"trial":38,"stimulus":4,"robot":3,"valence":"lose","action":"go","sham":0,"trial_type":"pit-trial","trial_index":68,"time_elapsed":352581,"internal_node_id":"0.0-43.0","task_version":"battery-v0.2-trt","session":3},{"rune":"Q","rune_set":"bacs2","hex":"#f73b6a7A","correct":-1,"choice":-1,"rt":-1,"accuracy":1,"outcome":"-1","keys":[],"total_keys":0,"block":1,"trial":39,"stimulus":2,"robot":4,"valence":"lose","action":"no-go","sham":0,"trial_type":"pit-trial","trial_index":69,"time_elapsed":356588,"internal_node_id":"0.0-44.0","task_version":"battery-v0.2-trt","session":3},{"rune":"T","rune_set":"bacs2","hex":"#f73b6a7A","correct":32,"choice":-1,"rt":-1,"accuracy":0,"outcome":"-10","keys":[],"total_keys":0,"block":1,"trial":40,"stimulus":1,"robot":3,"valence":"lose","action":"go","sham":0,"trial_type":"pit-trial","trial_index":70,"time_elapsed":360595,"internal_node_id":"0.0-45.0","task_version":"battery-v0.2-trt","session":3},{"rune":"O","rune_set":"bacs2","hex":"#3366ff99","correct":-1,"choice":32,"rt":902.3749999760184,"accuracy":0,"outcome":"+1","keys":[2403.099999995902],"total_keys":1,"block":1,"trial":41,"stimulus":6,"robot":2,"valence":"win","action":"no-go","sham":0,"trial_type":"pit-trial","trial_index":71,"time_elapsed":364204,"internal_node_id":"0.0-46.0","task_version":"battery-v0.2-trt","session":3},{"rune":"E","rune_set":"bacs2","hex":"#f73b6a7A","correct":32,"choice":32,"rt":836.555000016233,"accuracy":1,"outcome":"-1","keys":[2337.5100000121165],"total_keys":1,"block":1,"trial":42,"stimulus":4,"robot":3,"valence":"lose","action":"go","sham":0,"trial_type":"pit-trial","trial_index":72,"time_elapsed":367748,"internal_node_id":"0.0-47.0","task_version":"battery-v0.2-trt","session":3},{"rune":"Q","rune_set":"bacs2","hex":"#f73b6a7A","correct":-1,"choice":-1,"rt":-1,"accuracy":1,"outcome":"-10","keys":[],"total_keys":0,"block":1,"trial":43,"stimulus":2,"robot":4,"valence":"lose","action":"no-go","sham":1,"trial_type":"pit-trial","trial_index":73,"time_elapsed":371756,"internal_node_id":"0.0-48.0","task_version":"battery-v0.2-trt","session":3},{"rune":"C","rune_set":"bacs2","hex":"#f73b6a7A","correct":-1,"choice":-1,"rt":-1,"accuracy":1,"outcome":"-1","keys":[],"total_keys":0,"block":1,"trial":44,"stimulus":5,"robot":4,"valence":"lose","action":"no-go","sham":0,"trial_type":"pit-trial","trial_index":74,"time_elapsed":375762,"internal_node_id":"0.0-49.0","task_version":"battery-v0.2-trt","session":3},{"rune":"C","rune_set":"bacs2","hex":"#f73b6a7A","correct":-1,"choice":-1,"rt":-1,"accuracy":1,"outcome":"-1","keys":[],"total_keys":0,"block":1,"trial":45,"stimulus":5,"robot":4,"valence":"lose","action":"no-go","sham":0,"trial_type":"pit-trial","trial_index":75,"time_elapsed":379769,"internal_node_id":"0.0-50.0","task_version":"battery-v0.2-trt","session":3},{"rune":"Q","rune_set":"bacs2","hex":"#f73b6a7A","correct":-1,"choice":32,"rt":559.5599999942351,"accuracy":0,"outcome":"-10","keys":[2059.9099999817554],"total_keys":1,"block":1,"trial":46,"stimulus":2,"robot":4,"valence":"lose","action":"no-go","sham":0,"trial_type":"pit-trial","trial_index":76,"time_elapsed":383036,"internal_node_id":"0.0-51.0","task_version":"battery-v0.2-trt","session":3},{"rune":"O","rune_set":"bacs2","hex":"#3366ff99","correct":-1,"choice":-1,"rt":-1,"accuracy":1,"outcome":"+10","keys":[],"total_keys":0,"block":1,"trial":47,"stimulus":6,"robot":2,"valence":"win","action":"no-go","sham":0,"trial_type":"pit-trial","trial_index":77,"time_elapsed":387044,"internal_node_id":"0.0-52.0","task_version":"battery-v0.2-trt","session":3},{"rune":"E","rune_set":"bacs2","hex":"#f73b6a7A","correct":32,"choice":32,"rt":675.1199999998789,"accuracy":1,"outcome":"-10","keys":[2176.9949999870732],"total_keys":1,"block":1,"trial":48,"stimulus":4,"robot":3,"valence":"lose","action":"go","sham":1,"trial_type":"pit-trial","trial_index":78,"time_elapsed":390427,"internal_node_id":"0.0-53.0","task_version":"battery-v0.2-trt","session":3},{"rune":"E","rune_set":"bacs2","hex":"#f73b6a7A","correct":32,"choice":32,"rt":837.2699999890756,"accuracy":1,"outcome":"-1","keys":[2338.6050000262912],"total_keys":1,"block":1,"trial":49,"stimulus":4,"robot":3,"valence":"lose","action":"go","sham":0,"trial_type":"pit-trial","trial_index":79,"time_elapsed":393971,"internal_node_id":"0.0-54.0","task_version":"battery-v0.2-trt","session":3},{"rune":"O","rune_set":"bacs2","hex":"#3366ff99","correct":-1,"choice":-1,"rt":-1,"accuracy":1,"outcome":"+10","keys":[],"total_keys":0,"block":1,"trial":50,"stimulus":6,"robot":2,"valence":"win","action":"no-go","sham":0,"trial_type":"pit-trial","trial_index":80,"time_elapsed":397979,"internal_node_id":"0.0-55.0","task_version":"battery-v0.2-trt","session":3},{"rune":"G","rune_set":"bacs2","hex":"#3366ff99","correct":32,"choice":-1,"rt":-1,"accuracy":0,"outcome":"+1","keys":[],"total_keys":0,"block":1,"trial":51,"stimulus":7,"robot":1,"valence":"win","action":"go","sham":0,"trial_type":"pit-trial","trial_index":81,"time_elapsed":401998,"internal_node_id":"0.0-56.0","task_version":"battery-v0.2-trt","session":3},{"rune":"C","rune_set":"bacs2","hex":"#f73b6a7A","correct":-1,"choice":-1,"rt":-1,"accuracy":1,"outcome":"-1","keys":[],"total_keys":0,"block":1,"trial":52,"stimulus":5,"robot":4,"valence":"lose","action":"no-go","sham":0,"trial_type":"pit-trial","trial_index":82,"time_elapsed":406004,"internal_node_id":"0.0-57.0","task_version":"battery-v0.2-trt","session":3},{"rune":"O","rune_set":"bacs2","hex":"#3366ff99","correct":-1,"choice":-1,"rt":-1,"accuracy":1,"outcome":"+10","keys":[],"total_keys":0,"block":1,"trial":53,"stimulus":6,"robot":2,"valence":"win","action":"no-go","sham":0,"trial_type":"pit-trial","trial_index":83,"time_elapsed":410011,"internal_node_id":"0.0-58.0","task_version":"battery-v0.2-trt","session":3},{"rune":"G","rune_set":"bacs2","hex":"#3366ff99","correct":32,"choice":32,"rt":628.6850000033155,"accuracy":1,"outcome":"+10","keys":[2129.5049999898765],"total_keys":1,"block":1,"trial":54,"stimulus":7,"robot":1,"valence":"win","action":"go","sham":0,"trial_type":"pit-trial","trial_index":84,"time_elapsed":413348,"internal_node_id":"0.0-59.0","task_version":"battery-v0.2-trt","session":3},{"rune":"C","rune_set":"bacs2","hex":"#f73b6a7A","correct":-1,"choice":-1,"rt":-1,"accuracy":1,"outcome":"-1","keys":[],"total_keys":0,"block":1,"trial":55,"stimulus":5,"robot":4,"valence":"lose","action":"no-go","sham":0,"trial_type":"pit-trial","trial_index":85,"time_elapsed":417355,"internal_node_id":"0.0-60.0","task_version":"battery-v0.2-trt","session":3},{"rune":"E","rune_set":"bacs2","hex":"#f73b6a7A","correct":32,"choice":32,"rt":868.2100000150967,"accuracy":1,"outcome":"-1","keys":[2369.44000000949],"total_keys":1,"block":1,"trial":56,"stimulus":4,"robot":3,"valence":"lose","action":"go","sham":0,"trial_type":"pit-trial","trial_index":86,"time_elapsed":420931,"internal_node_id":"0.0-61.0","task_version":"battery-v0.2-trt","session":3},{"rune":"G","rune_set":"bacs2","hex":"#3366ff99","correct":32,"choice":32,"rt":787.994999991497,"accuracy":1,"outcome":"+10","keys":[2290.0400000216905],"total_keys":1,"block":1,"trial":57,"stimulus":7,"robot":1,"valence":"win","action":"go","sham":0,"trial_type":"pit-trial","trial_index":87,"time_elapsed":424427,"internal_node_id":"0.0-62.0","task_version":"battery-v0.2-trt","session":3},{"rune":"O","rune_set":"bacs2","hex":"#3366ff99","correct":-1,"choice":-1,"rt":-1,"accuracy":1,"outcome":"+1","keys":[],"total_keys":0,"block":1,"trial":58,"stimulus":6,"robot":2,"valence":"win","action":"no-go","sham":1,"trial_type":"pit-trial","trial_index":88,"time_elapsed":428434,"internal_node_id":"0.0-63.0","task_version":"battery-v0.2-trt","session":3},{"rune":"E","rune_set":"bacs2","hex":"#f73b6a7A","correct":32,"choice":32,"rt":806.2550000031479,"accuracy":1,"outcome":"-1","keys":[2306.6450000042096],"total_keys":1,"block":1,"trial":59,"stimulus":4,"robot":3,"valence":"lose","action":"go","sham":0,"trial_type":"pit-trial","trial_index":89,"time_elapsed":431947,"internal_node_id":"0.0-64.0","task_version":"battery-v0.2-trt","session":3},{"rune":"C","rune_set":"bacs2","hex":"#f73b6a7A","correct":-1,"choice":-1,"rt":-1,"accuracy":1,"outcome":"-10","keys":[],"total_keys":0,"block":1,"trial":60,"stimulus":5,"robot":4,"valence":"lose","action":"no-go","sham":1,"trial_type":"pit-trial","trial_index":90,"time_elapsed":435954,"internal_node_id":"0.0-65.0","task_version":"battery-v0.2-trt","session":3},{"rune":"C","rune_set":"bacs2","hex":"#f73b6a7A","correct":-1,"choice":32,"rt":1220.7800000032876,"accuracy":0,"outcome":"-10","keys":[2721.6650000191294],"total_keys":1,"block":1,"trial":61,"stimulus":5,"robot":4,"valence":"lose","action":"no-go","sham":0,"trial_type":"pit-trial","trial_index":91,"time_elapsed":439882,"internal_node_id":"0.0-66.0","task_version":"battery-v0.2-trt","session":3},{"rune":"E","rune_set":"bacs2","hex":"#f73b6a7A","correct":32,"choice":32,"rt":861.8949999799952,"accuracy":1,"outcome":"-1","keys":[2362.3249999945983],"total_keys":1,"block":1,"trial":62,"stimulus":4,"robot":3,"valence":"lose","action":"go","sham":0,"trial_type":"pit-trial","trial_index":92,"time_elapsed":443451,"internal_node_id":"0.0-67.0","task_version":"battery-v0.2-trt","session":3},{"rune":"G","rune_set":"bacs2","hex":"#3366ff99","correct":32,"choice":32,"rt":916.510000010021,"accuracy":1,"outcome":"+10","keys":[2417.0800000138115],"total_keys":1,"block":1,"trial":63,"stimulus":7,"robot":1,"valence":"win","action":"go","sham":0,"trial_type":"pit-trial","trial_index":93,"time_elapsed":447076,"internal_node_id":"0.0-68.0","task_version":"battery-v0.2-trt","session":3},{"rune":"O","rune_set":"bacs2","hex":"#3366ff99","correct":-1,"choice":-1,"rt":-1,"accuracy":1,"outcome":"+1","keys":[],"total_keys":0,"block":1,"trial":64,"stimulus":6,"robot":2,"valence":"win","action":"no-go","sham":1,"trial_type":"pit-trial","trial_index":94,"time_elapsed":451083,"internal_node_id":"0.0-69.0","task_version":"battery-v0.2-trt","session":3},{"rune":"C","rune_set":"bacs2","hex":"#f73b6a7A","correct":-1,"choice":-1,"rt":-1,"accuracy":1,"outcome":"-1","keys":[],"total_keys":0,"block":1,"trial":65,"stimulus":5,"robot":4,"valence":"lose","action":"no-go","sham":0,"trial_type":"pit-trial","trial_index":95,"time_elapsed":455090,"internal_node_id":"0.0-70.0","task_version":"battery-v0.2-trt","session":3},{"rune":"G","rune_set":"bacs2","hex":"#3366ff99","correct":32,"choice":32,"rt":781.8850000039674,"accuracy":1,"outcome":"+10","keys":[2282.435000000987],"total_keys":1,"block":1,"trial":66,"stimulus":7,"robot":1,"valence":"win","action":"go","sham":0,"trial_type":"pit-trial","trial_index":96,"time_elapsed":458578,"internal_node_id":"0.0-71.0","task_version":"battery-v0.2-trt","session":3},{"rune":"E","rune_set":"bacs2","hex":"#f73b6a7A","correct":32,"choice":32,"rt":804.5550000097137,"accuracy":1,"outcome":"-10","keys":[2306.240000005346],"total_keys":1,"block":1,"trial":67,"stimulus":4,"robot":3,"valence":"lose","action":"go","sham":1,"trial_type":"pit-trial","trial_index":97,"time_elapsed":462091,"internal_node_id":"0.0-72.0","task_version":"battery-v0.2-trt","session":3},{"rune":"O","rune_set":"bacs2","hex":"#3366ff99","correct":-1,"choice":-1,"rt":-1,"accuracy":1,"outcome":"+10","keys":[],"total_keys":0,"block":1,"trial":68,"stimulus":6,"robot":2,"valence":"win","action":"no-go","sham":0,"trial_type":"pit-trial","trial_index":98,"time_elapsed":466099,"internal_node_id":"0.0-73.0","task_version":"battery-v0.2-trt","session":3},{"rune":"E","rune_set":"bacs2","hex":"#f73b6a7A","correct":32,"choice":32,"rt":692.0300000056159,"accuracy":1,"outcome":"-1","keys":[2193.135000008624],"total_keys":1,"block":1,"trial":69,"stimulus":4,"robot":3,"valence":"lose","action":"go","sham":0,"trial_type":"pit-trial","trial_index":99,"time_elapsed":469498,"internal_node_id":"0.0-74.0","task_version":"battery-v0.2-trt","session":3},{"rune":"C","rune_set":"bacs2","hex":"#f73b6a7A","correct":-1,"choice":-1,"rt":-1,"accuracy":1,"outcome":"-1","keys":[],"total_keys":0,"block":1,"trial":70,"stimulus":5,"robot":4,"valence":"lose","action":"no-go","sham":0,"trial_type":"pit-trial","trial_index":100,"time_elapsed":473504,"internal_node_id":"0.0-75.0","task_version":"battery-v0.2-trt","session":3},{"rune":"G","rune_set":"bacs2","hex":"#3366ff99","correct":32,"choice":32,"rt":727.0250000001397,"accuracy":1,"outcome":"+10","keys":[2227.2999999986496],"total_keys":1,"block":1,"trial":71,"stimulus":7,"robot":1,"valence":"win","action":"go","sham":0,"trial_type":"pit-trial","trial_index":101,"time_elapsed":476940,"internal_node_id":"0.0-76.0","task_version":"battery-v0.2-trt","session":3},{"rune":"O","rune_set":"bacs2","hex":"#3366ff99","correct":-1,"choice":-1,"rt":-1,"accuracy":1,"outcome":"+10","keys":[],"total_keys":0,"block":1,"trial":72,"stimulus":6,"robot":2,"valence":"win","action":"no-go","sham":0,"trial_type":"pit-trial","trial_index":102,"time_elapsed":480958,"internal_node_id":"0.0-77.0","task_version":"battery-v0.2-trt","session":3},{"rune":"Z","rune_set":"bacs2","hex":"#3366ff99","correct":32,"choice":32,"rt":1017.3950000025798,"accuracy":1,"outcome":"+10","keys":[2517.6700000010896],"total_keys":1,"block":1,"trial":73,"stimulus":8,"robot":1,"valence":"win","action":"go","sham":0,"trial_type":"pit-trial","trial_index":103,"time_elapsed":484683,"internal_node_id":"0.0-78.0","task_version":"battery-v0.2-trt","session":3},{"rune":"G","rune_set":"bacs2","hex":"#3366ff99","correct":32,"choice":32,"rt":1180.625000008149,"accuracy":1,"outcome":"+1","keys":[2681.125000002794],"total_keys":1,"block":1,"trial":74,"stimulus":7,"robot":1,"valence":"win","action":"go","sham":1,"trial_type":"pit-trial","trial_index":104,"time_elapsed":488569,"internal_node_id":"0.0-79.0","task_version":"battery-v0.2-trt","session":3},{"rune":"O","rune_set":"bacs2","hex":"#3366ff99","correct":-1,"choice":-1,"rt":-1,"accuracy":1,"outcome":"+10","keys":[],"total_keys":0,"block":1,"trial":75,"stimulus":6,"robot":2,"valence":"win","action":"no-go","sham":0,"trial_type":"pit-trial","trial_index":105,"time_elapsed":492577,"internal_node_id":"0.0-80.0","task_version":"battery-v0.2-trt","session":3},{"rune":"E","rune_set":"bacs2","hex":"#f73b6a7A","correct":32,"choice":32,"rt":717.6550000149291,"accuracy":1,"outcome":"-1","keys":[2218.844999995781],"total_keys":1,"block":1,"trial":76,"stimulus":4,"robot":3,"valence":"lose","action":"go","sham":0,"trial_type":"pit-trial","trial_index":106,"time_elapsed":496001,"internal_node_id":"0.0-81.0","task_version":"battery-v0.2-trt","session":3},{"rune":"G","rune_set":"bacs2","hex":"#3366ff99","correct":32,"choice":-1,"rt":-1,"accuracy":0,"outcome":"+1","keys":[],"total_keys":0,"block":1,"trial":77,"stimulus":7,"robot":1,"valence":"win","action":"go","sham":0,"trial_type":"pit-trial","trial_index":107,"time_elapsed":500012,"internal_node_id":"0.0-82.0","task_version":"battery-v0.2-trt","session":3},{"rune":"Z","rune_set":"bacs2","hex":"#3366ff99","correct":32,"choice":32,"rt":571.3300000061281,"accuracy":1,"outcome":"+10","keys":[2071.5300000156276],"total_keys":1,"block":1,"trial":78,"stimulus":8,"robot":1,"valence":"win","action":"go","sham":0,"trial_type":"pit-trial","trial_index":108,"time_elapsed":503290,"internal_node_id":"0.0-83.0","task_version":"battery-v0.2-trt","session":3},{"rune":"E","rune_set":"bacs2","hex":"#f73b6a7A","correct":32,"choice":32,"rt":612.7500000002328,"accuracy":1,"outcome":"-1","keys":[2113.8499999942724],"total_keys":1,"block":1,"trial":79,"stimulus":4,"robot":3,"valence":"lose","action":"go","sham":0,"trial_type":"pit-trial","trial_index":109,"time_elapsed":506609,"internal_node_id":"0.0-84.0","task_version":"battery-v0.2-trt","session":3},{"rune":"O","rune_set":"bacs2","hex":"#3366ff99","correct":-1,"choice":-1,"rt":-1,"accuracy":1,"outcome":"+1","keys":[],"total_keys":0,"block":1,"trial":80,"stimulus":6,"robot":2,"valence":"win","action":"no-go","sham":1,"trial_type":"pit-trial","trial_index":110,"time_elapsed":510616,"internal_node_id":"0.0-85.0","task_version":"battery-v0.2-trt","session":3},{"rune":"Z","rune_set":"bacs2","hex":"#3366ff99","correct":32,"choice":32,"rt":621.3949999946635,"accuracy":1,"outcome":"+10","keys":[2122.60500001139],"total_keys":1,"block":1,"trial":81,"stimulus":8,"robot":1,"valence":"win","action":"go","sham":0,"trial_type":"pit-trial","trial_index":111,"time_elapsed":513945,"internal_node_id":"0.0-86.0","task_version":"battery-v0.2-trt","session":3},{"rune":"G","rune_set":"bacs2","hex":"#3366ff99","correct":32,"choice":32,"rt":1116.7849999910686,"accuracy":1,"outcome":"+10","keys":[2617.740000016056],"total_keys":1,"block":1,"trial":82,"stimulus":7,"robot":1,"valence":"win","action":"go","sham":0,"trial_type":"pit-trial","trial_index":112,"time_elapsed":517770,"internal_node_id":"0.0-87.0","task_version":"battery-v0.2-trt","session":3},{"rune":"X","rune_set":"bacs2","hex":"#3366ff99","correct":-1,"choice":-1,"rt":-1,"accuracy":1,"outcome":"+1","keys":[],"total_keys":0,"block":1,"trial":83,"stimulus":9,"robot":2,"valence":"win","action":"no-go","sham":1,"trial_type":"pit-trial","trial_index":113,"time_elapsed":521777,"internal_node_id":"0.0-88.0","task_version":"battery-v0.2-trt","session":3},{"rune":"O","rune_set":"bacs2","hex":"#3366ff99","correct":-1,"choice":-1,"rt":-1,"accuracy":1,"outcome":"+1","keys":[],"total_keys":0,"block":1,"trial":84,"stimulus":6,"robot":2,"valence":"win","action":"no-go","sham":1,"trial_type":"pit-trial","trial_index":114,"time_elapsed":525783,"internal_node_id":"0.0-89.0","task_version":"battery-v0.2-trt","session":3},{"rune":"G","rune_set":"bacs2","hex":"#3366ff99","correct":32,"choice":32,"rt":575.4500000039116,"accuracy":1,"outcome":"+10","keys":[2076.1850000126287],"total_keys":1,"block":1,"trial":85,"stimulus":7,"robot":1,"valence":"win","action":"go","sham":0,"trial_type":"pit-trial","trial_index":115,"time_elapsed":529065,"internal_node_id":"0.0-90.0","task_version":"battery-v0.2-trt","session":3},{"rune":"Z","rune_set":"bacs2","hex":"#3366ff99","correct":32,"choice":32,"rt":596.4850000164006,"accuracy":1,"outcome":"+10","keys":[2097.4850000056904],"total_keys":1,"block":1,"trial":86,"stimulus":8,"robot":1,"valence":"win","action":"go","sham":0,"trial_type":"pit-trial","trial_index":116,"time_elapsed":532370,"internal_node_id":"0.0-91.0","task_version":"battery-v0.2-trt","session":3},{"rune":"O","rune_set":"bacs2","hex":"#3366ff99","correct":-1,"choice":-1,"rt":-1,"accuracy":1,"outcome":"+10","keys":[],"total_keys":0,"block":1,"trial":87,"stimulus":6,"robot":2,"valence":"win","action":"no-go","sham":0,"trial_type":"pit-trial","trial_index":117,"time_elapsed":536379,"internal_node_id":"0.0-92.0","task_version":"battery-v0.2-trt","session":3},{"rune":"X","rune_set":"bacs2","hex":"#3366ff99","correct":-1,"choice":32,"rt":842.8399999975227,"accuracy":0,"outcome":"+10","keys":[2343.930000002729],"total_keys":1,"block":1,"trial":88,"stimulus":9,"robot":2,"valence":"win","action":"no-go","sham":1,"trial_type":"pit-trial","trial_index":118,"time_elapsed":539929,"internal_node_id":"0.0-93.0","task_version":"battery-v0.2-trt","session":3},{"rune":"Z","rune_set":"bacs2","hex":"#3366ff99","correct":32,"choice":32,"rt":644.7400000179186,"accuracy":1,"outcome":"+10","keys":[2145.8500000007916],"total_keys":1,"block":1,"trial":89,"stimulus":8,"robot":1,"valence":"win","action":"go","sham":0,"trial_type":"pit-trial","trial_index":119,"time_elapsed":543281,"internal_node_id":"0.0-94.0","task_version":"battery-v0.2-trt","session":3},{"rune":"W","rune_set":"bacs2","hex":"#f73b6a7A","correct":32,"choice":-1,"rt":-1,"accuracy":0,"outcome":"-10","keys":[],"total_keys":0,"block":1,"trial":90,"stimulus":10,"robot":3,"valence":"lose","action":"go","sham":0,"trial_type":"pit-trial","trial_index":120,"time_elapsed":547289,"internal_node_id":"0.0-95.0","task_version":"battery-v0.2-trt","session":3},{"rune":"J","rune_set":"bacs2","hex":"#f73b6a7A","correct":-1,"choice":-1,"rt":-1,"accuracy":1,"outcome":"-1","keys":[],"total_keys":0,"block":1,"trial":91,"stimulus":11,"robot":4,"valence":"lose","action":"no-go","sham":0,"trial_type":"pit-trial","trial_index":121,"time_elapsed":551297,"internal_node_id":"0.0-96.0","task_version":"battery-v0.2-trt","session":3},{"rune":"X","rune_set":"bacs2","hex":"#3366ff99","correct":-1,"choice":32,"rt":860.6999999901745,"accuracy":0,"outcome":"+1","keys":[2361.525000014808],"total_keys":1,"block":1,"trial":92,"stimulus":9,"robot":2,"valence":"win","action":"no-go","sham":0,"trial_type":"pit-trial","trial_index":122,"time_elapsed":554865,"internal_node_id":"0.0-97.0","task_version":"battery-v0.2-trt","session":3},{"rune":"W","rune_set":"bacs2","hex":"#f73b6a7A","correct":32,"choice":32,"rt":1187.709999998333,"accuracy":1,"outcome":"-1","keys":[2688.9399999927264],"total_keys":1,"block":1,"trial":93,"stimulus":10,"robot":3,"valence":"lose","action":"go","sham":0,"trial_type":"pit-trial","trial_index":123,"time_elapsed":558772,"internal_node_id":"0.0-98.0","task_version":"battery-v0.2-trt","session":3},{"rune":"Z","rune_set":"bacs2","hex":"#3366ff99","correct":32,"choice":32,"rt":578.3149999915622,"accuracy":1,"outcome":"+10","keys":[2078.5800000012387],"total_keys":1,"block":1,"trial":94,"stimulus":8,"robot":1,"valence":"win","action":"go","sham":0,"trial_type":"pit-trial","trial_index":124,"time_elapsed":562057,"internal_node_id":"0.0-99.0","task_version":"battery-v0.2-trt","session":3},{"rune":"J","rune_set":"bacs2","hex":"#f73b6a7A","correct":-1,"choice":-1,"rt":-1,"accuracy":1,"outcome":"-1","keys":[],"total_keys":0,"block":1,"trial":95,"stimulus":11,"robot":4,"valence":"lose","action":"no-go","sham":0,"trial_type":"pit-trial","trial_index":125,"time_elapsed":566063,"internal_node_id":"0.0-100.0","task_version":"battery-v0.2-trt","session":3},{"rune":"X","rune_set":"bacs2","hex":"#3366ff99","correct":-1,"choice":-1,"rt":-1,"accuracy":1,"outcome":"+10","keys":[],"total_keys":0,"block":1,"trial":96,"stimulus":9,"robot":2,"valence":"win","action":"no-go","sham":0,"trial_type":"pit-trial","trial_index":126,"time_elapsed":570071,"internal_node_id":"0.0-101.0","task_version":"battery-v0.2-trt","session":3},{"rune":"J","rune_set":"bacs2","hex":"#f73b6a7A","correct":-1,"choice":-1,"rt":-1,"accuracy":1,"outcome":"-1","keys":[],"total_keys":0,"block":1,"trial":97,"stimulus":11,"robot":4,"valence":"lose","action":"no-go","sham":0,"trial_type":"pit-trial","trial_index":127,"time_elapsed":574079,"internal_node_id":"0.0-102.0","task_version":"battery-v0.2-trt","session":3},{"rune":"W","rune_set":"bacs2","hex":"#f73b6a7A","correct":32,"choice":32,"rt":727.0250000001397,"accuracy":1,"outcome":"-1","keys":[2227.7499999909196],"total_keys":1,"block":1,"trial":98,"stimulus":10,"robot":3,"valence":"lose","action":"go","sham":0,"trial_type":"pit-trial","trial_index":128,"time_elapsed":577512,"internal_node_id":"0.0-103.0","task_version":"battery-v0.2-trt","session":3},{"rune":"X","rune_set":"bacs2","hex":"#3366ff99","correct":-1,"choice":-1,"rt":-1,"accuracy":1,"outcome":"+10","keys":[],"total_keys":0,"block":1,"trial":99,"stimulus":9,"robot":2,"valence":"win","action":"no-go","sham":0,"trial_type":"pit-trial","trial_index":129,"time_elapsed":581519,"internal_node_id":"0.0-104.0","task_version":"battery-v0.2-trt","session":3},{"rune":"Z","rune_set":"bacs2","hex":"#3366ff99","correct":32,"choice":32,"rt":493.51000000024214,"accuracy":1,"outcome":"+1","keys":[1995.0649999955203],"total_keys":1,"block":1,"trial":100,"stimulus":8,"robot":1,"valence":"win","action":"go","sham":1,"trial_type":"pit-trial","trial_index":130,"time_elapsed":584720,"internal_node_id":"0.0-105.0","task_version":"battery-v0.2-trt","session":3},{"rune":"Z","rune_set":"bacs2","hex":"#3366ff99","correct":32,"choice":32,"rt":750.0100000179373,"accuracy":1,"outcome":"+10","keys":[2250.079999997979],"total_keys":1,"block":1,"trial":101,"stimulus":8,"robot":1,"valence":"win","action":"go","sham":0,"trial_type":"pit-trial","trial_index":131,"time_elapsed":588177,"internal_node_id":"0.0-106.0","task_version":"battery-v0.2-trt","session":3},{"rune":"X","rune_set":"bacs2","hex":"#3366ff99","correct":-1,"choice":-1,"rt":-1,"accuracy":1,"outcome":"+1","keys":[],"total_keys":0,"block":1,"trial":102,"stimulus":9,"robot":2,"valence":"win","action":"no-go","sham":1,"trial_type":"pit-trial","trial_index":132,"time_elapsed":592184,"internal_node_id":"0.0-107.0","task_version":"battery-v0.2-trt","session":3},{"rune":"W","rune_set":"bacs2","hex":"#f73b6a7A","correct":32,"choice":32,"rt":612.3899999947753,"accuracy":1,"outcome":"-1","keys":[2113.5450000001583],"total_keys":1,"block":1,"trial":103,"stimulus":10,"robot":3,"valence":"lose","action":"go","sham":0,"trial_type":"pit-trial","trial_index":133,"time_elapsed":595505,"internal_node_id":"0.0-108.0","task_version":"battery-v0.2-trt","session":3},{"rune":"J","rune_set":"bacs2","hex":"#f73b6a7A","correct":-1,"choice":-1,"rt":-1,"accuracy":1,"outcome":"-1","keys":[],"total_keys":0,"block":1,"trial":104,"stimulus":11,"robot":4,"valence":"lose","action":"no-go","sham":0,"trial_type":"pit-trial","trial_index":134,"time_elapsed":599511,"internal_node_id":"0.0-109.0","task_version":"battery-v0.2-trt","session":3},{"rune":"J","rune_set":"bacs2","hex":"#f73b6a7A","correct":-1,"choice":-1,"rt":-1,"accuracy":1,"outcome":"-1","keys":[],"total_keys":0,"block":1,"trial":105,"stimulus":11,"robot":4,"valence":"lose","action":"no-go","sham":0,"trial_type":"pit-trial","trial_index":135,"time_elapsed":603519,"internal_node_id":"0.0-110.0","task_version":"battery-v0.2-trt","session":3},{"rune":"X","rune_set":"bacs2","hex":"#3366ff99","correct":-1,"choice":-1,"rt":-1,"accuracy":1,"outcome":"+1","keys":[],"total_keys":0,"block":1,"trial":106,"stimulus":9,"robot":2,"valence":"win","action":"no-go","sham":1,"trial_type":"pit-trial","trial_index":136,"time_elapsed":607525,"internal_node_id":"0.0-111.0","task_version":"battery-v0.2-trt","session":3},{"rune":"W","rune_set":"bacs2","hex":"#f73b6a7A","correct":32,"choice":32,"rt":480.56999998516403,"accuracy":1,"outcome":"-10","keys":[1981.1549999867566],"total_keys":1,"block":1,"trial":107,"stimulus":10,"robot":3,"valence":"lose","action":"go","sham":1,"trial_type":"pit-trial","trial_index":137,"time_elapsed":610713,"internal_node_id":"0.0-112.0","task_version":"battery-v0.2-trt","session":3},{"rune":"Z","rune_set":"bacs2","hex":"#3366ff99","correct":32,"choice":32,"rt":627.3999999975786,"accuracy":1,"outcome":"+10","keys":[2127.89000000339],"total_keys":1,"block":1,"trial":108,"stimulus":8,"robot":1,"valence":"win","action":"go","sham":0,"trial_type":"pit-trial","trial_index":138,"time_elapsed":614049,"internal_node_id":"0.0-113.0","task_version":"battery-v0.2-trt","session":3},{"rune":"J","rune_set":"bacs2","hex":"#f73b6a7A","correct":-1,"choice":-1,"rt":-1,"accuracy":1,"outcome":"-1","keys":[],"total_keys":0,"block":1,"trial":109,"stimulus":11,"robot":4,"valence":"lose","action":"no-go","sham":0,"trial_type":"pit-trial","trial_index":139,"time_elapsed":618055,"internal_node_id":"0.0-114.0","task_version":"battery-v0.2-trt","session":3},{"rune":"X","rune_set":"bacs2","hex":"#3366ff99","correct":-1,"choice":-1,"rt":-1,"accuracy":1,"outcome":"+10","keys":[],"total_keys":0,"block":1,"trial":110,"stimulus":9,"robot":2,"valence":"win","action":"no-go","sham":0,"trial_type":"pit-trial","trial_index":140,"time_elapsed":622062,"internal_node_id":"0.0-115.0","task_version":"battery-v0.2-trt","session":3},{"rune":"W","rune_set":"bacs2","hex":"#f73b6a7A","correct":32,"choice":32,"rt":807.3750000039581,"accuracy":1,"outcome":"-1","keys":[2307.4549999728333],"total_keys":1,"block":1,"trial":111,"stimulus":10,"robot":3,"valence":"lose","action":"go","sham":0,"trial_type":"pit-trial","trial_index":141,"time_elapsed":625575,"internal_node_id":"0.0-116.0","task_version":"battery-v0.2-trt","session":3},{"rune":"Z","rune_set":"bacs2","hex":"#3366ff99","correct":32,"choice":32,"rt":620.7700000086334,"accuracy":1,"outcome":"+10","keys":[2121.590000024298],"total_keys":1,"block":1,"trial":112,"stimulus":8,"robot":1,"valence":"win","action":"go","sham":0,"trial_type":"pit-trial","trial_index":142,"time_elapsed":628903,"internal_node_id":"0.0-117.0","task_version":"battery-v0.2-trt","session":3},{"rune":"J","rune_set":"bacs2","hex":"#f73b6a7A","correct":-1,"choice":-1,"rt":-1,"accuracy":1,"outcome":"-1","keys":[],"total_keys":0,"block":1,"trial":113,"stimulus":11,"robot":4,"valence":"lose","action":"no-go","sham":0,"trial_type":"pit-trial","trial_index":143,"time_elapsed":632911,"internal_node_id":"0.0-118.0","task_version":"battery-v0.2-trt","session":3},{"rune":"X","rune_set":"bacs2","hex":"#3366ff99","correct":-1,"choice":-1,"rt":-1,"accuracy":1,"outcome":"+10","keys":[],"total_keys":0,"block":1,"trial":114,"stimulus":9,"robot":2,"valence":"win","action":"no-go","sham":0,"trial_type":"pit-trial","trial_index":144,"time_elapsed":636919,"internal_node_id":"0.0-119.0","task_version":"battery-v0.2-trt","session":3},{"rune":"Z","rune_set":"bacs2","hex":"#3366ff99","correct":32,"choice":32,"rt":636.5799999912269,"accuracy":1,"outcome":"+10","keys":[2137.0950000127777],"total_keys":1,"block":1,"trial":115,"stimulus":8,"robot":1,"valence":"win","action":"go","sham":0,"trial_type":"pit-trial","trial_index":145,"time_elapsed":640263,"internal_node_id":"0.0-120.0","task_version":"battery-v0.2-trt","session":3},{"rune":"W","rune_set":"bacs2","hex":"#f73b6a7A","correct":32,"choice":32,"rt":533.144999993965,"accuracy":1,"outcome":"-1","keys":[2033.274999994319],"total_keys":1,"block":1,"trial":116,"stimulus":10,"robot":3,"valence":"lose","action":"go","sham":0,"trial_type":"pit-trial","trial_index":146,"time_elapsed":643503,"internal_node_id":"0.0-121.0","task_version":"battery-v0.2-trt","session":3},{"rune":"Z","rune_set":"bacs2","hex":"#3366ff99","correct":32,"choice":32,"rt":588.2899999851361,"accuracy":1,"outcome":"+10","keys":[2090.059999987716],"total_keys":1,"block":1,"trial":117,"stimulus":8,"robot":1,"valence":"win","action":"go","sham":0,"trial_type":"pit-trial","trial_index":147,"time_elapsed":646799,"internal_node_id":"0.0-122.0","task_version":"battery-v0.2-trt","session":3},{"rune":"X","rune_set":"bacs2","hex":"#3366ff99","correct":-1,"choice":-1,"rt":-1,"accuracy":1,"outcome":"+1","keys":[],"total_keys":0,"block":1,"trial":118,"stimulus":9,"robot":2,"valence":"win","action":"no-go","sham":1,"trial_type":"pit-trial","trial_index":148,"time_elapsed":650808,"internal_node_id":"0.0-123.0","task_version":"battery-v0.2-trt","session":3},{"rune":"J","rune_set":"bacs2","hex":"#f73b6a7A","correct":-1,"choice":-1,"rt":-1,"accuracy":1,"outcome":"-1","keys":[],"total_keys":0,"block":1,"trial":119,"stimulus":11,"robot":4,"valence":"lose","action":"no-go","sham":0,"trial_type":"pit-trial","trial_index":149,"time_elapsed":654814,"internal_node_id":"0.0-124.0","task_version":"battery-v0.2-trt","session":3},{"rune":"W","rune_set":"bacs2","hex":"#f73b6a7A","correct":32,"choice":-1,"rt":-1,"accuracy":0,"outcome":"-1","keys":[],"total_keys":0,"block":1,"trial":120,"stimulus":10,"robot":3,"valence":"lose","action":"go","sham":1,"trial_type":"pit-trial","trial_index":150,"time_elapsed":658821,"internal_node_id":"0.0-125.0","task_version":"battery-v0.2-trt","session":3},{"view_history":"[{\"page_index\":0,\"viewing_time\":11204.854999989038},{\"page_index\":1,\"viewing_time\":1208.4500000055414}]","rt":12413.804999989225,"trial_type":"pit-instructions","trial_index":151,"time_elapsed":671240,"internal_node_id":"0.0-126.0","task_version":"battery-v0.2-trt","session":3},{"rune":"M","rune_set":"bacs2","hex":"#3366ff99","correct":-1,"choice":32,"rt":682.1950000012293,"accuracy":0,"outcome":"+1","keys":[2182.455000001937],"total_keys":1,"block":2,"trial":121,"stimulus":0,"robot":2,"valence":"win","action":"no-go","sham":0,"trial_type":"pit-trial","trial_index":152,"time_elapsed":674631,"internal_node_id":"0.0-127.0","task_version":"battery-v0.2-trt","session":3},{"rune":"V","rune_set":"bacs2","hex":"#f73b6a7A","correct":32,"choice":-1,"rt":-1,"accuracy":0,"outcome":"-10","keys":[],"total_keys":0,"block":2,"trial":122,"stimulus":3,"robot":3,"valence":"lose","action":"go","sham":0,"trial_type":"pit-trial","trial_index":153,"time_elapsed":678639,"internal_node_id":"0.0-128.0","task_version":"battery-v0.2-trt","session":3},{"rune":"B","rune_set":"bacs2","hex":"#3366ff99","correct":-1,"choice":32,"rt":884.39500000095,"accuracy":0,"outcome":"+1","keys":[2384.8700000089593],"total_keys":1,"block":2,"trial":123,"stimulus":1,"robot":2,"valence":"win","action":"no-go","sham":0,"trial_type":"pit-trial","trial_index":154,"time_elapsed":682230,"internal_node_id":"0.0-129.0","task_version":"battery-v0.2-trt","session":3},{"rune":"K","rune_set":"bacs2","hex":"#3366ff99","correct":32,"choice":32,"rt":805.2449999959208,"accuracy":1,"outcome":"+10","keys":[2305.5250000033993],"total_keys":1,"block":2,"trial":124,"stimulus":2,"robot":1,"valence":"win","action":"go","sham":0,"trial_type":"pit-trial","trial_index":155,"time_elapsed":685743,"internal_node_id":"0.0-130.0","task_version":"battery-v0.2-trt","session":3},{"rune":"M","rune_set":"bacs2","hex":"#3366ff99","correct":-1,"choice":-1,"rt":-1,"accuracy":1,"outcome":"+10","keys":[],"total_keys":0,"block":2,"trial":125,"stimulus":0,"robot":2,"valence":"win","action":"no-go","sham":0,"trial_type":"pit-trial","trial_index":156,"time_elapsed":689750,"internal_node_id":"0.0-131.0","task_version":"battery-v0.2-trt","session":3},{"rune":"B","rune_set":"bacs2","hex":"#3366ff99","correct":-1,"choice":-1,"rt":-1,"accuracy":1,"outcome":"+10","keys":[],"total_keys":0,"block":2,"trial":126,"stimulus":1,"robot":2,"valence":"win","action":"no-go","sham":0,"trial_type":"pit-trial","trial_index":157,"time_elapsed":693762,"internal_node_id":"0.0-132.0","task_version":"battery-v0.2-trt","session":3},{"rune":"V","rune_set":"bacs2","hex":"#f73b6a7A","correct":32,"choice":32,"rt":456.6449999983888,"accuracy":1,"outcome":"-1","keys":[1957.9100000264589],"total_keys":1,"block":2,"trial":127,"stimulus":3,"robot":3,"valence":"lose","action":"go","sham":0,"trial_type":"pit-trial","trial_index":158,"time_elapsed":696933,"internal_node_id":"0.0-133.0","task_version":"battery-v0.2-trt","session":3},{"rune":"K","rune_set":"bacs2","hex":"#3366ff99","correct":32,"choice":32,"rt":597.2900000051595,"accuracy":1,"outcome":"+10","keys":[2098.424999974668],"total_keys":1,"block":2,"trial":128,"stimulus":2,"robot":1,"valence":"win","action":"go","sham":0,"trial_type":"pit-trial","trial_index":159,"time_elapsed":700239,"internal_node_id":"0.0-134.0","task_version":"battery-v0.2-trt","session":3},{"rune":"K","rune_set":"bacs2","hex":"#3366ff99","correct":32,"choice":32,"rt":555.5100000055972,"accuracy":1,"outcome":"+10","keys":[2056.1600000073668],"total_keys":1,"block":2,"trial":129,"stimulus":2,"robot":1,"valence":"win","action":"go","sham":0,"trial_type":"pit-trial","trial_index":160,"time_elapsed":703503,"internal_node_id":"0.0-135.0","task_version":"battery-v0.2-trt","session":3},{"rune":"V","rune_set":"bacs2","hex":"#f73b6a7A","correct":32,"choice":32,"rt":932.6450000226032,"accuracy":1,"outcome":"-1","keys":[2433.210000017425],"total_keys":1,"block":2,"trial":130,"stimulus":3,"robot":3,"valence":"lose","action":"go","sham":0,"trial_type":"pit-trial","trial_index":161,"time_elapsed":707142,"internal_node_id":"0.0-136.0","task_version":"battery-v0.2-trt","session":3},{"rune":"M","rune_set":"bacs2","hex":"#3366ff99","correct":-1,"choice":-1,"rt":-1,"accuracy":1,"outcome":"+10","keys":[],"total_keys":0,"block":2,"trial":131,"stimulus":0,"robot":2,"valence":"win","action":"no-go","sham":0,"trial_type":"pit-trial","trial_index":162,"time_elapsed":711150,"internal_node_id":"0.0-137.0","task_version":"battery-v0.2-trt","session":3},{"rune":"B","rune_set":"bacs2","hex":"#3366ff99","correct":-1,"choice":-1,"rt":-1,"accuracy":1,"outcome":"+10","keys":[],"total_keys":0,"block":2,"trial":132,"stimulus":1,"robot":2,"valence":"win","action":"no-go","sham":0,"trial_type":"pit-trial","trial_index":163,"time_elapsed":715157,"internal_node_id":"0.0-138.0","task_version":"battery-v0.2-trt","session":3},{"rune":"B","rune_set":"bacs2","hex":"#3366ff99","correct":-1,"choice":-1,"rt":-1,"accuracy":1,"outcome":"+10","keys":[],"total_keys":0,"block":2,"trial":133,"stimulus":1,"robot":2,"valence":"win","action":"no-go","sham":0,"trial_type":"pit-trial","trial_index":164,"time_elapsed":719165,"internal_node_id":"0.0-139.0","task_version":"battery-v0.2-trt","session":3},{"rune":"V","rune_set":"bacs2","hex":"#f73b6a7A","correct":32,"choice":32,"rt":629.8149999929592,"accuracy":1,"outcome":"-1","keys":[2130.2750000031665],"total_keys":1,"block":2,"trial":134,"stimulus":3,"robot":3,"valence":"lose","action":"go","sham":0,"trial_type":"pit-trial","trial_index":165,"time_elapsed":722502,"internal_node_id":"0.0-140.0","task_version":"battery-v0.2-trt","session":3},{"rune":"K","rune_set":"bacs2","hex":"#3366ff99","correct":32,"choice":32,"rt":604.670000000624,"accuracy":1,"outcome":"+1","keys":[2105.1149999839254],"total_keys":1,"block":2,"trial":135,"stimulus":2,"robot":1,"valence":"win","action":"go","sham":1,"trial_type":"pit-trial","trial_index":166,"time_elapsed":725813,"internal_node_id":"0.0-141.0","task_version":"battery-v0.2-trt","session":3},{"rune":"M","rune_set":"bacs2","hex":"#3366ff99","correct":-1,"choice":-1,"rt":-1,"accuracy":1,"outcome":"+10","keys":[],"total_keys":0,"block":2,"trial":136,"stimulus":0,"robot":2,"valence":"win","action":"no-go","sham":0,"trial_type":"pit-trial","trial_index":167,"time_elapsed":729820,"internal_node_id":"0.0-142.0","task_version":"battery-v0.2-trt","session":3},{"rune":"B","rune_set":"bacs2","hex":"#3366ff99","correct":-1,"choice":-1,"rt":-1,"accuracy":1,"outcome":"+10","keys":[],"total_keys":0,"block":2,"trial":137,"stimulus":1,"robot":2,"valence":"win","action":"no-go","sham":0,"trial_type":"pit-trial","trial_index":168,"time_elapsed":733827,"internal_node_id":"0.0-143.0","task_version":"battery-v0.2-trt","session":3},{"rune":"M","rune_set":"bacs2","hex":"#3366ff99","correct":-1,"choice":-1,"rt":-1,"accuracy":1,"outcome":"+10","keys":[],"total_keys":0,"block":2,"trial":138,"stimulus":0,"robot":2,"valence":"win","action":"no-go","sham":0,"trial_type":"pit-trial","trial_index":169,"time_elapsed":737836,"internal_node_id":"0.0-144.0","task_version":"battery-v0.2-trt","session":3},{"rune":"V","rune_set":"bacs2","hex":"#f73b6a7A","correct":32,"choice":32,"rt":573.6549999855924,"accuracy":1,"outcome":"-1","keys":[2075.2100000099745],"total_keys":1,"block":2,"trial":139,"stimulus":3,"robot":3,"valence":"lose","action":"go","sham":0,"trial_type":"pit-trial","trial_index":170,"time_elapsed":741118,"internal_node_id":"0.0-145.0","task_version":"battery-v0.2-trt","session":3},{"rune":"K","rune_set":"bacs2","hex":"#3366ff99","correct":32,"choice":32,"rt":628.4900000027847,"accuracy":1,"outcome":"+10","keys":[2128.7200000078883],"total_keys":1,"block":2,"trial":140,"stimulus":2,"robot":1,"valence":"win","action":"go","sham":0,"trial_type":"pit-trial","trial_index":171,"time_elapsed":744453,"internal_node_id":"0.0-146.0","task_version":"battery-v0.2-trt","session":3},{"rune":"K","rune_set":"bacs2","hex":"#3366ff99","correct":32,"choice":32,"rt":604.7649999964051,"accuracy":1,"outcome":"+10","keys":[2105.455000011716],"total_keys":1,"block":2,"trial":141,"stimulus":2,"robot":1,"valence":"win","action":"go","sham":0,"trial_type":"pit-trial","trial_index":172,"time_elapsed":747767,"internal_node_id":"0.0-147.0","task_version":"battery-v0.2-trt","session":3},{"rune":"B","rune_set":"bacs2","hex":"#3366ff99","correct":-1,"choice":-1,"rt":-1,"accuracy":1,"outcome":"+10","keys":[],"total_keys":0,"block":2,"trial":142,"stimulus":1,"robot":2,"valence":"win","action":"no-go","sham":0,"trial_type":"pit-trial","trial_index":173,"time_elapsed":751776,"internal_node_id":"0.0-148.0","task_version":"battery-v0.2-trt","session":3},{"rune":"V","rune_set":"bacs2","hex":"#f73b6a7A","correct":32,"choice":32,"rt":626.6950000135694,"accuracy":1,"outcome":"-1","keys":[2127.0599999988917],"total_keys":1,"block":2,"trial":143,"stimulus":3,"robot":3,"valence":"lose","action":"go","sham":0,"trial_type":"pit-trial","trial_index":174,"time_elapsed":755108,"internal_node_id":"0.0-149.0","task_version":"battery-v0.2-trt","session":3},{"rune":"M","rune_set":"bacs2","hex":"#3366ff99","correct":-1,"choice":-1,"rt":-1,"accuracy":1,"outcome":"+10","keys":[],"total_keys":0,"block":2,"trial":144,"stimulus":0,"robot":2,"valence":"win","action":"no-go","sham":0,"trial_type":"pit-trial","trial_index":175,"time_elapsed":759116,"internal_node_id":"0.0-150.0","task_version":"battery-v0.2-trt","session":3},{"rune":"K","rune_set":"bacs2","hex":"#3366ff99","correct":32,"choice":32,"rt":597.925000009127,"accuracy":1,"outcome":"+10","keys":[2098.7550000136252],"total_keys":1,"block":2,"trial":145,"stimulus":2,"robot":1,"valence":"win","action":"go","sham":0,"trial_type":"pit-trial","trial_index":176,"time_elapsed":762421,"internal_node_id":"0.0-151.0","task_version":"battery-v0.2-trt","session":3},{"rune":"V","rune_set":"bacs2","hex":"#f73b6a7A","correct":32,"choice":32,"rt":621.8700000026729,"accuracy":1,"outcome":"-1","keys":[2122.0650000032037],"total_keys":1,"block":2,"trial":146,"stimulus":3,"robot":3,"valence":"lose","action":"go","sham":0,"trial_type":"pit-trial","trial_index":177,"time_elapsed":765749,"internal_node_id":"0.0-152.0","task_version":"battery-v0.2-trt","session":3},{"rune":"B","rune_set":"bacs2","hex":"#3366ff99","correct":-1,"choice":-1,"rt":-1,"accuracy":1,"outcome":"+10","keys":[],"total_keys":0,"block":2,"trial":147,"stimulus":1,"robot":2,"valence":"win","action":"no-go","sham":0,"trial_type":"pit-trial","trial_index":178,"time_elapsed":769756,"internal_node_id":"0.0-153.0","task_version":"battery-v0.2-trt","session":3},{"rune":"M","rune_set":"bacs2","hex":"#3366ff99","correct":-1,"choice":-1,"rt":-1,"accuracy":1,"outcome":"+10","keys":[],"total_keys":0,"block":2,"trial":148,"stimulus":0,"robot":2,"valence":"win","action":"no-go","sham":0,"trial_type":"pit-trial","trial_index":179,"time_elapsed":773763,"internal_node_id":"0.0-154.0","task_version":"battery-v0.2-trt","session":3},{"rune":"V","rune_set":"bacs2","hex":"#f73b6a7A","correct":32,"choice":32,"rt":542.1099999803118,"accuracy":1,"outcome":"-1","keys":[2042.715000017779],"total_keys":1,"block":2,"trial":149,"stimulus":3,"robot":3,"valence":"lose","action":"go","sham":0,"trial_type":"pit-trial","trial_index":180,"time_elapsed":777012,"internal_node_id":"0.0-155.0","task_version":"battery-v0.2-trt","session":3},{"rune":"K","rune_set":"bacs2","hex":"#3366ff99","correct":32,"choice":32,"rt":421.3750000053551,"accuracy":1,"outcome":"+1","keys":[1921.8249999976251],"total_keys":1,"block":2,"trial":150,"stimulus":2,"robot":1,"valence":"win","action":"go","sham":1,"trial_type":"pit-trial","trial_index":181,"time_elapsed":780140,"internal_node_id":"0.0-156.0","task_version":"battery-v0.2-trt","session":3},{"rune":"B","rune_set":"bacs2","hex":"#3366ff99","correct":-1,"choice":-1,"rt":-1,"accuracy":1,"outcome":"+10","keys":[],"total_keys":0,"block":2,"trial":151,"stimulus":1,"robot":2,"valence":"win","action":"no-go","sham":0,"trial_type":"pit-trial","trial_index":182,"time_elapsed":784147,"internal_node_id":"0.0-157.0","task_version":"battery-v0.2-trt","session":3},{"rune":"M","rune_set":"bacs2","hex":"#3366ff99","correct":-1,"choice":-1,"rt":-1,"accuracy":1,"outcome":"+10","keys":[],"total_keys":0,"block":2,"trial":152,"stimulus":0,"robot":2,"valence":"win","action":"no-go","sham":0,"trial_type":"pit-trial","trial_index":183,"time_elapsed":788154,"internal_node_id":"0.0-158.0","task_version":"battery-v0.2-trt","session":3},{"rune":"P","rune_set":"bacs2","hex":"#f73b6a7A","correct":32,"choice":-1,"rt":-1,"accuracy":0,"outcome":"-1","keys":[],"total_keys":0,"block":2,"trial":153,"stimulus":5,"robot":3,"valence":"lose","action":"go","sham":1,"trial_type":"pit-trial","trial_index":184,"time_elapsed":792161,"internal_node_id":"0.0-159.0","task_version":"battery-v0.2-trt","session":3},{"rune":"R","rune_set":"bacs2","hex":"#f73b6a7A","correct":-1,"choice":32,"rt":985.5550000211224,"accuracy":0,"outcome":"-10","keys":[2485.5899999965914],"total_keys":1,"block":2,"trial":154,"stimulus":4,"robot":4,"valence":"lose","action":"no-go","sham":0,"trial_type":"pit-trial","trial_index":185,"time_elapsed":795852,"internal_node_id":"0.0-160.0","task_version":"battery-v0.2-trt","session":3},{"rune":"K","rune_set":"bacs2","hex":"#3366ff99","correct":32,"choice":32,"rt":573.9199999952689,"accuracy":1,"outcome":"+10","keys":[2073.964999988675],"total_keys":1,"block":2,"trial":155,"stimulus":2,"robot":1,"valence":"win","action":"go","sham":0,"trial_type":"pit-trial","trial_index":186,"time_elapsed":799132,"internal_node_id":"0.0-161.0","task_version":"battery-v0.2-trt","session":3},{"rune":"M","rune_set":"bacs2","hex":"#3366ff99","correct":-1,"choice":-1,"rt":-1,"accuracy":1,"outcome":"+10","keys":[],"total_keys":0,"block":2,"trial":156,"stimulus":0,"robot":2,"valence":"win","action":"no-go","sham":0,"trial_type":"pit-trial","trial_index":187,"time_elapsed":803139,"internal_node_id":"0.0-162.0","task_version":"battery-v0.2-trt","session":3},{"rune":"P","rune_set":"bacs2","hex":"#f73b6a7A","correct":32,"choice":-1,"rt":-1,"accuracy":0,"outcome":"-10","keys":[],"total_keys":0,"block":2,"trial":157,"stimulus":5,"robot":3,"valence":"lose","action":"go","sham":0,"trial_type":"pit-trial","trial_index":188,"time_elapsed":807146,"internal_node_id":"0.0-163.0","task_version":"battery-v0.2-trt","session":3},{"rune":"R","rune_set":"bacs2","hex":"#f73b6a7A","correct":-1,"choice":-1,"rt":-1,"accuracy":1,"outcome":"-10","keys":[],"total_keys":0,"block":2,"trial":158,"stimulus":4,"robot":4,"valence":"lose","action":"no-go","sham":1,"trial_type":"pit-trial","trial_index":189,"time_elapsed":811153,"internal_node_id":"0.0-164.0","task_version":"battery-v0.2-trt","session":3},{"rune":"M","rune_set":"bacs2","hex":"#3366ff99","correct":-1,"choice":-1,"rt":-1,"accuracy":1,"outcome":"+10","keys":[],"total_keys":0,"block":2,"trial":159,"stimulus":0,"robot":2,"valence":"win","action":"no-go","sham":0,"trial_type":"pit-trial","trial_index":190,"time_elapsed":815160,"internal_node_id":"0.0-165.0","task_version":"battery-v0.2-trt","session":3},{"rune":"K","rune_set":"bacs2","hex":"#3366ff99","correct":32,"choice":32,"rt":673.0450000031851,"accuracy":1,"outcome":"+10","keys":[2173.9050000032876],"total_keys":1,"block":2,"trial":160,"stimulus":2,"robot":1,"valence":"win","action":"go","sham":0,"trial_type":"pit-trial","trial_index":191,"time_elapsed":818539,"internal_node_id":"0.0-166.0","task_version":"battery-v0.2-trt","session":3},{"rune":"R","rune_set":"bacs2","hex":"#f73b6a7A","correct":-1,"choice":-1,"rt":-1,"accuracy":1,"outcome":"-10","keys":[],"total_keys":0,"block":2,"trial":161,"stimulus":4,"robot":4,"valence":"lose","action":"no-go","sham":1,"trial_type":"pit-trial","trial_index":192,"time_elapsed":822546,"internal_node_id":"0.0-167.0","task_version":"battery-v0.2-trt","session":3},{"rune":"L","rune_set":"bacs2","hex":"#3366ff99","correct":-1,"choice":32,"rt":821.5600000112318,"accuracy":0,"outcome":"+1","keys":[2323.0899999907706],"total_keys":1,"block":2,"trial":162,"stimulus":6,"robot":2,"valence":"win","action":"no-go","sham":0,"trial_type":"pit-trial","trial_index":193,"time_elapsed":826077,"internal_node_id":"0.0-168.0","task_version":"battery-v0.2-trt","session":3},{"rune":"K","rune_set":"bacs2","hex":"#3366ff99","correct":32,"choice":32,"rt":667.2550000075717,"accuracy":1,"outcome":"+10","keys":[2168.180000007851],"total_keys":1,"block":2,"trial":163,"stimulus":2,"robot":1,"valence":"win","action":"go","sham":0,"trial_type":"pit-trial","trial_index":194,"time_elapsed":829452,"internal_node_id":"0.0-169.0","task_version":"battery-v0.2-trt","session":3},{"rune":"P","rune_set":"bacs2","hex":"#f73b6a7A","correct":32,"choice":32,"rt":756.1400000122376,"accuracy":1,"outcome":"-1","keys":[2257.274999981746],"total_keys":1,"block":2,"trial":164,"stimulus":5,"robot":3,"valence":"lose","action":"go","sham":0,"trial_type":"pit-trial","trial_index":195,"time_elapsed":832915,"internal_node_id":"0.0-170.0","task_version":"battery-v0.2-trt","session":3},{"rune":"R","rune_set":"bacs2","hex":"#f73b6a7A","correct":-1,"choice":32,"rt":453.5850000102073,"accuracy":0,"outcome":"-1","keys":[1954.0200000046752],"total_keys":1,"block":2,"trial":165,"stimulus":4,"robot":4,"valence":"lose","action":"no-go","sham":1,"trial_type":"pit-trial","trial_index":196,"time_elapsed":836076,"internal_node_id":"0.0-171.0","task_version":"battery-v0.2-trt","session":3},{"rune":"K","rune_set":"bacs2","hex":"#3366ff99","correct":32,"choice":32,"rt":540.5050000117626,"accuracy":1,"outcome":"+10","keys":[2040.8300000126474],"total_keys":1,"block":2,"trial":166,"stimulus":2,"robot":1,"valence":"win","action":"go","sham":0,"trial_type":"pit-trial","trial_index":197,"time_elapsed":839324,"internal_node_id":"0.0-172.0","task_version":"battery-v0.2-trt","session":3},{"rune":"P","rune_set":"bacs2","hex":"#f73b6a7A","correct":32,"choice":32,"rt":675.8599999884609,"accuracy":1,"outcome":"-1","keys":[2175.9299999976065],"total_keys":1,"block":2,"trial":167,"stimulus":5,"robot":3,"valence":"lose","action":"go","sham":0,"trial_type":"pit-trial","trial_index":198,"time_elapsed":842707,"internal_node_id":"0.0-173.0","task_version":"battery-v0.2-trt","session":3},{"rune":"L","rune_set":"bacs2","hex":"#3366ff99","correct":-1,"choice":-1,"rt":-1,"accuracy":1,"outcome":"+10","keys":[],"total_keys":0,"block":2,"trial":168,"stimulus":6,"robot":2,"valence":"win","action":"no-go","sham":0,"trial_type":"pit-trial","trial_index":199,"time_elapsed":846715,"internal_node_id":"0.0-174.0","task_version":"battery-v0.2-trt","session":3},{"rune":"R","rune_set":"bacs2","hex":"#f73b6a7A","correct":-1,"choice":32,"rt":676.6150000039488,"accuracy":0,"outcome":"-10","keys":[2177.8549999871757],"total_keys":1,"block":2,"trial":169,"stimulus":4,"robot":4,"valence":"lose","action":"no-go","sham":0,"trial_type":"pit-trial","trial_index":200,"time_elapsed":850100,"internal_node_id":"0.0-175.0","task_version":"battery-v0.2-trt","session":3},{"rune":"S","rune_set":"bacs2","hex":"#f73b6a7A","correct":-1,"choice":-1,"rt":-1,"accuracy":1,"outcome":"-10","keys":[],"total_keys":0,"block":2,"trial":170,"stimulus":7,"robot":4,"valence":"lose","action":"no-go","sham":1,"trial_type":"pit-trial","trial_index":201,"time_elapsed":854108,"internal_node_id":"0.0-176.0","task_version":"battery-v0.2-trt","session":3},{"rune":"P","rune_set":"bacs2","hex":"#f73b6a7A","correct":32,"choice":32,"rt":532.5449999945704,"accuracy":1,"outcome":"-1","keys":[2032.9299999866635],"total_keys":1,"block":2,"trial":171,"stimulus":5,"robot":3,"valence":"lose","action":"go","sham":0,"trial_type":"pit-trial","trial_index":202,"time_elapsed":857347,"internal_node_id":"0.0-177.0","task_version":"battery-v0.2-trt","session":3},{"rune":"L","rune_set":"bacs2","hex":"#3366ff99","correct":-1,"choice":-1,"rt":-1,"accuracy":1,"outcome":"+1","keys":[],"total_keys":0,"block":2,"trial":172,"stimulus":6,"robot":2,"valence":"win","action":"no-go","sham":1,"trial_type":"pit-trial","trial_index":203,"time_elapsed":861356,"internal_node_id":"0.0-178.0","task_version":"battery-v0.2-trt","session":3},{"rune":"P","rune_set":"bacs2","hex":"#f73b6a7A","correct":32,"choice":32,"rt":563.5149999870919,"accuracy":1,"outcome":"-1","keys":[2063.6699999740813],"total_keys":1,"block":2,"trial":173,"stimulus":5,"robot":3,"valence":"lose","action":"go","sham":0,"trial_type":"pit-trial","trial_index":204,"time_elapsed":864629,"internal_node_id":"0.0-179.0","task_version":"battery-v0.2-trt","session":3},{"rune":"L","rune_set":"bacs2","hex":"#3366ff99","correct":-1,"choice":32,"rt":683.5750000027474,"accuracy":0,"outcome":"+1","keys":[2183.9949999994133],"total_keys":1,"block":2,"trial":174,"stimulus":6,"robot":2,"valence":"win","action":"no-go","sham":0,"trial_type":"pit-trial","trial_index":205,"time_elapsed":868019,"internal_node_id":"0.0-180.0","task_version":"battery-v0.2-trt","session":3},{"rune":"R","rune_set":"bacs2","hex":"#f73b6a7A","correct":-1,"choice":32,"rt":1029.2300000146497,"accuracy":0,"outcome":"-10","keys":[2529.6049999888055],"total_keys":1,"block":2,"trial":175,"stimulus":4,"robot":4,"valence":"lose","action":"no-go","sham":0,"trial_type":"pit-trial","trial_index":206,"time_elapsed":871755,"internal_node_id":"0.0-181.0","task_version":"battery-v0.2-trt","session":3},{"rune":"S","rune_set":"bacs2","hex":"#f73b6a7A","correct":-1,"choice":32,"rt":900.9249999944586,"accuracy":0,"outcome":"-10","keys":[2401.0050000215415],"total_keys":1,"block":2,"trial":176,"stimulus":7,"robot":4,"valence":"lose","action":"no-go","sham":0,"trial_type":"pit-trial","trial_index":207,"time_elapsed":875362,"internal_node_id":"0.0-182.0","task_version":"battery-v0.2-trt","session":3},{"rune":"R","rune_set":"bacs2","hex":"#f73b6a7A","correct":-1,"choice":-1,"rt":-1,"accuracy":1,"outcome":"-1","keys":[],"total_keys":0,"block":2,"trial":177,"stimulus":4,"robot":4,"valence":"lose","action":"no-go","sham":0,"trial_type":"pit-trial","trial_index":208,"time_elapsed":879371,"internal_node_id":"0.0-183.0","task_version":"battery-v0.2-trt","session":3},{"rune":"S","rune_set":"bacs2","hex":"#f73b6a7A","correct":-1,"choice":-1,"rt":-1,"accuracy":1,"outcome":"-1","keys":[],"total_keys":0,"block":2,"trial":178,"stimulus":7,"robot":4,"valence":"lose","action":"no-go","sham":0,"trial_type":"pit-trial","trial_index":209,"time_elapsed":883377,"internal_node_id":"0.0-184.0","task_version":"battery-v0.2-trt","session":3},{"rune":"P","rune_set":"bacs2","hex":"#f73b6a7A","correct":32,"choice":32,"rt":596.9899999909103,"accuracy":1,"outcome":"-1","keys":[2098.3300000079907],"total_keys":1,"block":2,"trial":179,"stimulus":5,"robot":3,"valence":"lose","action":"go","sham":0,"trial_type":"pit-trial","trial_index":210,"time_elapsed":886683,"internal_node_id":"0.0-185.0","task_version":"battery-v0.2-trt","session":3},{"rune":"L","rune_set":"bacs2","hex":"#3366ff99","correct":-1,"choice":-1,"rt":-1,"accuracy":1,"outcome":"+1","keys":[],"total_keys":0,"block":2,"trial":180,"stimulus":6,"robot":2,"valence":"win","action":"no-go","sham":1,"trial_type":"pit-trial","trial_index":211,"time_elapsed":890690,"internal_node_id":"0.0-186.0","task_version":"battery-v0.2-trt","session":3},{"rune":"R","rune_set":"bacs2","hex":"#f73b6a7A","correct":-1,"choice":-1,"rt":-1,"accuracy":1,"outcome":"-1","keys":[],"total_keys":0,"block":2,"trial":181,"stimulus":4,"robot":4,"valence":"lose","action":"no-go","sham":0,"trial_type":"pit-trial","trial_index":212,"time_elapsed":894697,"internal_node_id":"0.0-187.0","task_version":"battery-v0.2-trt","session":3},{"rune":"P","rune_set":"bacs2","hex":"#f73b6a7A","correct":32,"choice":32,"rt":716.7000000190455,"accuracy":1,"outcome":"-1","keys":[2218.634999997448],"total_keys":1,"block":2,"trial":182,"stimulus":5,"robot":3,"valence":"lose","action":"go","sham":0,"trial_type":"pit-trial","trial_index":213,"time_elapsed":898123,"internal_node_id":"0.0-188.0","task_version":"battery-v0.2-trt","session":3},{"rune":"S","rune_set":"bacs2","hex":"#f73b6a7A","correct":-1,"choice":-1,"rt":-1,"accuracy":1,"outcome":"-1","keys":[],"total_keys":0,"block":2,"trial":183,"stimulus":7,"robot":4,"valence":"lose","action":"no-go","sham":0,"trial_type":"pit-trial","trial_index":214,"time_elapsed":902130,"internal_node_id":"0.0-189.0","task_version":"battery-v0.2-trt","session":3},{"rune":"L","rune_set":"bacs2","hex":"#3366ff99","correct":-1,"choice":-1,"rt":-1,"accuracy":1,"outcome":"+10","keys":[],"total_keys":0,"block":2,"trial":184,"stimulus":6,"robot":2,"valence":"win","action":"no-go","sham":0,"trial_type":"pit-trial","trial_index":215,"time_elapsed":906146,"internal_node_id":"0.0-190.0","task_version":"battery-v0.2-trt","session":3},{"rune":"S","rune_set":"bacs2","hex":"#f73b6a7A","correct":-1,"choice":-1,"rt":-1,"accuracy":1,"outcome":"-1","keys":[],"total_keys":0,"block":2,"trial":185,"stimulus":7,"robot":4,"valence":"lose","action":"no-go","sham":0,"trial_type":"pit-trial","trial_index":216,"time_elapsed":910153,"internal_node_id":"0.0-191.0","task_version":"battery-v0.2-trt","session":3},{"rune":"R","rune_set":"bacs2","hex":"#f73b6a7A","correct":-1,"choice":-1,"rt":-1,"accuracy":1,"outcome":"-1","keys":[],"total_keys":0,"block":2,"trial":186,"stimulus":4,"robot":4,"valence":"lose","action":"no-go","sham":0,"trial_type":"pit-trial","trial_index":217,"time_elapsed":914161,"internal_node_id":"0.0-192.0","task_version":"battery-v0.2-trt","session":3},{"rune":"L","rune_set":"bacs2","hex":"#3366ff99","correct":-1,"choice":32,"rt":950.9100000141189,"accuracy":0,"outcome":"+10","keys":[2451.2050000193994],"total_keys":1,"block":2,"trial":187,"stimulus":6,"robot":2,"valence":"win","action":"no-go","sham":1,"trial_type":"pit-trial","trial_index":218,"time_elapsed":917817,"internal_node_id":"0.0-193.0","task_version":"battery-v0.2-trt","session":3},{"rune":"P","rune_set":"bacs2","hex":"#f73b6a7A","correct":32,"choice":32,"rt":517.4600000027567,"accuracy":1,"outcome":"-1","keys":[2018.01999998861],"total_keys":1,"block":2,"trial":188,"stimulus":5,"robot":3,"valence":"lose","action":"go","sham":0,"trial_type":"pit-trial","trial_index":219,"time_elapsed":921042,"internal_node_id":"0.0-194.0","task_version":"battery-v0.2-trt","session":3},{"rune":"S","rune_set":"bacs2","hex":"#f73b6a7A","correct":-1,"choice":-1,"rt":-1,"accuracy":1,"outcome":"-1","keys":[],"total_keys":0,"block":2,"trial":189,"stimulus":7,"robot":4,"valence":"lose","action":"no-go","sham":0,"trial_type":"pit-trial","trial_index":220,"time_elapsed":925049,"internal_node_id":"0.0-195.0","task_version":"battery-v0.2-trt","session":3},{"rune":"L","rune_set":"bacs2","hex":"#3366ff99","correct":-1,"choice":32,"rt":804.6299999987241,"accuracy":0,"outcome":"+1","keys":[2306.289999978617],"total_keys":1,"block":2,"trial":190,"stimulus":6,"robot":2,"valence":"win","action":"no-go","sham":0,"trial_type":"pit-trial","trial_index":221,"time_elapsed":928561,"internal_node_id":"0.0-196.0","task_version":"battery-v0.2-trt","session":3},{"rune":"P","rune_set":"bacs2","hex":"#f73b6a7A","correct":32,"choice":32,"rt":636.9049999921117,"accuracy":1,"outcome":"-1","keys":[2137.894999992568],"total_keys":1,"block":2,"trial":191,"stimulus":5,"robot":3,"valence":"lose","action":"go","sham":0,"trial_type":"pit-trial","trial_index":222,"time_elapsed":931905,"internal_node_id":"0.0-197.0","task_version":"battery-v0.2-trt","session":3},{"rune":"R","rune_set":"bacs2","hex":"#f73b6a7A","correct":-1,"choice":-1,"rt":-1,"accuracy":1,"outcome":"-1","keys":[],"total_keys":0,"block":2,"trial":192,"stimulus":4,"robot":4,"valence":"lose","action":"no-go","sham":0,"trial_type":"pit-trial","trial_index":223,"time_elapsed":935913,"internal_node_id":"0.0-198.0","task_version":"battery-v0.2-trt","session":3},{"rune":"P","rune_set":"bacs2","hex":"#f73b6a7A","correct":32,"choice":32,"rt":478.0550000141375,"accuracy":1,"outcome":"-1","keys":[1978.304999996908],"total_keys":1,"block":2,"trial":193,"stimulus":5,"robot":3,"valence":"lose","action":"go","sham":0,"trial_type":"pit-trial","trial_index":224,"time_elapsed":939100,"internal_node_id":"0.0-199.0","task_version":"battery-v0.2-trt","session":3},{"rune":"L","rune_set":"bacs2","hex":"#3366ff99","correct":-1,"choice":32,"rt":947.3500000021886,"accuracy":0,"outcome":"+1","keys":[2447.5600000005215],"total_keys":1,"block":2,"trial":194,"stimulus":6,"robot":2,"valence":"win","action":"no-go","sham":0,"trial_type":"pit-trial","trial_index":225,"time_elapsed":942754,"internal_node_id":"0.0-200.0","task_version":"battery-v0.2-trt","session":3},{"rune":"S","rune_set":"bacs2","hex":"#f73b6a7A","correct":-1,"choice":-1,"rt":-1,"accuracy":1,"outcome":"-1","keys":[],"total_keys":0,"block":2,"trial":195,"stimulus":7,"robot":4,"valence":"lose","action":"no-go","sham":0,"trial_type":"pit-trial","trial_index":226,"time_elapsed":946761,"internal_node_id":"0.0-201.0","task_version":"battery-v0.2-trt","session":3},{"rune":"U","rune_set":"bacs2","hex":"#f73b6a7A","correct":-1,"choice":-1,"rt":-1,"accuracy":1,"outcome":"-1","keys":[],"total_keys":0,"block":2,"trial":196,"stimulus":8,"robot":4,"valence":"lose","action":"no-go","sham":0,"trial_type":"pit-trial","trial_index":227,"time_elapsed":950766,"internal_node_id":"0.0-202.0","task_version":"battery-v0.2-trt","session":3},{"rune":"L","rune_set":"bacs2","hex":"#3366ff99","correct":-1,"choice":-1,"rt":-1,"accuracy":1,"outcome":"+10","keys":[],"total_keys":0,"block":2,"trial":197,"stimulus":6,"robot":2,"valence":"win","action":"no-go","sham":0,"trial_type":"pit-trial","trial_index":228,"time_elapsed":954774,"internal_node_id":"0.0-203.0","task_version":"battery-v0.2-trt","session":3},{"rune":"P","rune_set":"bacs2","hex":"#f73b6a7A","correct":32,"choice":32,"rt":576.8150000076275,"accuracy":1,"outcome":"-10","keys":[2077.274999988731],"total_keys":1,"block":2,"trial":198,"stimulus":5,"robot":3,"valence":"lose","action":"go","sham":1,"trial_type":"pit-trial","trial_index":229,"time_elapsed":958057,"internal_node_id":"0.0-204.0","task_version":"battery-v0.2-trt","session":3},{"rune":"U","rune_set":"bacs2","hex":"#f73b6a7A","correct":-1,"choice":-1,"rt":-1,"accuracy":1,"outcome":"-1","keys":[],"total_keys":0,"block":2,"trial":199,"stimulus":8,"robot":4,"valence":"lose","action":"no-go","sham":0,"trial_type":"pit-trial","trial_index":230,"time_elapsed":962065,"internal_node_id":"0.0-205.0","task_version":"battery-v0.2-trt","session":3},{"rune":"S","rune_set":"bacs2","hex":"#f73b6a7A","correct":-1,"choice":-1,"rt":-1,"accuracy":1,"outcome":"-1","keys":[],"total_keys":0,"block":2,"trial":200,"stimulus":7,"robot":4,"valence":"lose","action":"no-go","sham":0,"trial_type":"pit-trial","trial_index":231,"time_elapsed":966073,"internal_node_id":"0.0-206.0","task_version":"battery-v0.2-trt","session":3},{"rune":"L","rune_set":"bacs2","hex":"#3366ff99","correct":-1,"choice":-1,"rt":-1,"accuracy":1,"outcome":"+10","keys":[],"total_keys":0,"block":2,"trial":201,"stimulus":6,"robot":2,"valence":"win","action":"no-go","sham":0,"trial_type":"pit-trial","trial_index":232,"time_elapsed":970084,"internal_node_id":"0.0-207.0","task_version":"battery-v0.2-trt","session":3},{"rune":"F","rune_set":"bacs2","hex":"#f73b6a7A","correct":32,"choice":32,"rt":977.1900000050664,"accuracy":1,"outcome":"-10","keys":[2478.080000000773],"total_keys":1,"block":2,"trial":202,"stimulus":10,"robot":3,"valence":"lose","action":"go","sham":1,"trial_type":"pit-trial","trial_index":233,"time_elapsed":973769,"internal_node_id":"0.0-208.0","task_version":"battery-v0.2-trt","session":3},{"rune":"U","rune_set":"bacs2","hex":"#f73b6a7A","correct":-1,"choice":-1,"rt":-1,"accuracy":1,"outcome":"-1","keys":[],"total_keys":0,"block":2,"trial":203,"stimulus":8,"robot":4,"valence":"lose","action":"no-go","sham":0,"trial_type":"pit-trial","trial_index":234,"time_elapsed":977778,"internal_node_id":"0.0-209.0","task_version":"battery-v0.2-trt","session":3},{"rune":"A","rune_set":"bacs2","hex":"#3366ff99","correct":32,"choice":-1,"rt":-1,"accuracy":0,"outcome":"+1","keys":[],"total_keys":0,"block":2,"trial":204,"stimulus":9,"robot":1,"valence":"win","action":"go","sham":0,"trial_type":"pit-trial","trial_index":235,"time_elapsed":981786,"internal_node_id":"0.0-210.0","task_version":"battery-v0.2-trt","session":3},{"rune":"A","rune_set":"bacs2","hex":"#3366ff99","correct":32,"choice":32,"rt":434.3100000114646,"accuracy":1,"outcome":"+1","keys":[1935.55500000366],"total_keys":1,"block":2,"trial":205,"stimulus":9,"robot":1,"valence":"win","action":"go","sham":1,"trial_type":"pit-trial","trial_index":236,"time_elapsed":984930,"internal_node_id":"0.0-211.0","task_version":"battery-v0.2-trt","session":3},{"rune":"L","rune_set":"bacs2","hex":"#3366ff99","correct":-1,"choice":-1,"rt":-1,"accuracy":1,"outcome":"+10","keys":[],"total_keys":0,"block":2,"trial":206,"stimulus":6,"robot":2,"valence":"win","action":"no-go","sham":0,"trial_type":"pit-trial","trial_index":237,"time_elapsed":988940,"internal_node_id":"0.0-212.0","task_version":"battery-v0.2-trt","session":3},{"rune":"U","rune_set":"bacs2","hex":"#f73b6a7A","correct":-1,"choice":-1,"rt":-1,"accuracy":1,"outcome":"-1","keys":[],"total_keys":0,"block":2,"trial":207,"stimulus":8,"robot":4,"valence":"lose","action":"no-go","sham":0,"trial_type":"pit-trial","trial_index":238,"time_elapsed":992946,"internal_node_id":"0.0-213.0","task_version":"battery-v0.2-trt","session":3},{"rune":"F","rune_set":"bacs2","hex":"#f73b6a7A","correct":32,"choice":-1,"rt":-1,"accuracy":0,"outcome":"-10","keys":[],"total_keys":0,"block":2,"trial":208,"stimulus":10,"robot":3,"valence":"lose","action":"go","sham":0,"trial_type":"pit-trial","trial_index":239,"time_elapsed":996953,"internal_node_id":"0.0-214.0","task_version":"battery-v0.2-trt","session":3},{"rune":"F","rune_set":"bacs2","hex":"#f73b6a7A","correct":32,"choice":-1,"rt":-1,"accuracy":0,"outcome":"-10","keys":[],"total_keys":0,"block":2,"trial":209,"stimulus":10,"robot":3,"valence":"lose","action":"go","sham":0,"trial_type":"pit-trial","trial_index":240,"time_elapsed":1000960,"internal_node_id":"0.0-215.0","task_version":"battery-v0.2-trt","session":3},{"rune":"A","rune_set":"bacs2","hex":"#3366ff99","correct":32,"choice":32,"rt":853.4849999996368,"accuracy":1,"outcome":"+10","keys":[2354.2000000015832],"total_keys":1,"block":2,"trial":210,"stimulus":9,"robot":1,"valence":"win","action":"go","sham":0,"trial_type":"pit-trial","trial_index":241,"time_elapsed":1004520,"internal_node_id":"0.0-216.0","task_version":"battery-v0.2-trt","session":3},{"rune":"U","rune_set":"bacs2","hex":"#f73b6a7A","correct":-1,"choice":-1,"rt":-1,"accuracy":1,"outcome":"-10","keys":[],"total_keys":0,"block":2,"trial":211,"stimulus":8,"robot":4,"valence":"lose","action":"no-go","sham":1,"trial_type":"pit-trial","trial_index":242,"time_elapsed":1008527,"internal_node_id":"0.0-217.0","task_version":"battery-v0.2-trt","session":3},{"rune":"N","rune_set":"bacs2","hex":"#3366ff99","correct":32,"choice":-1,"rt":-1,"accuracy":0,"outcome":"+1","keys":[],"total_keys":0,"block":2,"trial":212,"stimulus":11,"robot":1,"valence":"win","action":"go","sham":0,"trial_type":"pit-trial","trial_index":243,"time_elapsed":1012534,"internal_node_id":"0.0-218.0","task_version":"battery-v0.2-trt","session":3},{"rune":"N","rune_set":"bacs2","hex":"#3366ff99","correct":32,"choice":32,"rt":623.2149999996182,"accuracy":1,"outcome":"+10","keys":[2123.684999998659],"total_keys":1,"block":2,"trial":213,"stimulus":11,"robot":1,"valence":"win","action":"go","sham":0,"trial_type":"pit-trial","trial_index":244,"time_elapsed":1015864,"internal_node_id":"0.0-219.0","task_version":"battery-v0.2-trt","session":3},{"rune":"A","rune_set":"bacs2","hex":"#3366ff99","correct":32,"choice":32,"rt":788.8249999959953,"accuracy":1,"outcome":"+10","keys":[2289.355000015348],"total_keys":1,"block":2,"trial":214,"stimulus":9,"robot":1,"valence":"win","action":"go","sham":0,"trial_type":"pit-trial","trial_index":245,"time_elapsed":1019359,"internal_node_id":"0.0-220.0","task_version":"battery-v0.2-trt","session":3},{"rune":"F","rune_set":"bacs2","hex":"#f73b6a7A","correct":32,"choice":32,"rt":581.3000000198372,"accuracy":1,"outcome":"-10","keys":[2081.7400000232738],"total_keys":1,"block":2,"trial":215,"stimulus":10,"robot":3,"valence":"lose","action":"go","sham":1,"trial_type":"pit-trial","trial_index":246,"time_elapsed":1022647,"internal_node_id":"0.0-221.0","task_version":"battery-v0.2-trt","session":3},{"rune":"U","rune_set":"bacs2","hex":"#f73b6a7A","correct":-1,"choice":-1,"rt":-1,"accuracy":1,"outcome":"-1","keys":[],"total_keys":0,"block":2,"trial":216,"stimulus":8,"robot":4,"valence":"lose","action":"no-go","sham":0,"trial_type":"pit-trial","trial_index":247,"time_elapsed":1026654,"internal_node_id":"0.0-222.0","task_version":"battery-v0.2-trt","session":3},{"rune":"N","rune_set":"bacs2","hex":"#3366ff99","correct":32,"choice":32,"rt":615.2799999981653,"accuracy":1,"outcome":"+10","keys":[2115.7899999816436],"total_keys":1,"block":2,"trial":217,"stimulus":11,"robot":1,"valence":"win","action":"go","sham":0,"trial_type":"pit-trial","trial_index":248,"time_elapsed":1029976,"internal_node_id":"0.0-223.0","task_version":"battery-v0.2-trt","session":3},{"rune":"U","rune_set":"bacs2","hex":"#f73b6a7A","correct":-1,"choice":-1,"rt":-1,"accuracy":1,"outcome":"-1","keys":[],"total_keys":0,"block":2,"trial":218,"stimulus":8,"robot":4,"valence":"lose","action":"no-go","sham":0,"trial_type":"pit-trial","trial_index":249,"time_elapsed":1033984,"internal_node_id":"0.0-224.0","task_version":"battery-v0.2-trt","session":3},{"rune":"A","rune_set":"bacs2","hex":"#3366ff99","correct":32,"choice":32,"rt":516.2650000129361,"accuracy":1,"outcome":"+10","keys":[2017.6700000010896],"total_keys":1,"block":2,"trial":219,"stimulus":9,"robot":1,"valence":"win","action":"go","sham":0,"trial_type":"pit-trial","trial_index":250,"time_elapsed":1037208,"internal_node_id":"0.0-225.0","task_version":"battery-v0.2-trt","session":3},{"rune":"F","rune_set":"bacs2","hex":"#f73b6a7A","correct":32,"choice":-1,"rt":-1,"accuracy":0,"outcome":"-1","keys":[],"total_keys":0,"block":2,"trial":220,"stimulus":10,"robot":3,"valence":"lose","action":"go","sham":1,"trial_type":"pit-trial","trial_index":251,"time_elapsed":1041216,"internal_node_id":"0.0-226.0","task_version":"battery-v0.2-trt","session":3},{"rune":"U","rune_set":"bacs2","hex":"#f73b6a7A","correct":-1,"choice":-1,"rt":-1,"accuracy":1,"outcome":"-1","keys":[],"total_keys":0,"block":2,"trial":221,"stimulus":8,"robot":4,"valence":"lose","action":"no-go","sham":0,"trial_type":"pit-trial","trial_index":252,"time_elapsed":1045224,"internal_node_id":"0.0-227.0","task_version":"battery-v0.2-trt","session":3},{"rune":"A","rune_set":"bacs2","hex":"#3366ff99","correct":32,"choice":32,"rt":460.2350000059232,"accuracy":1,"outcome":"+10","keys":[1960.9849999833386],"total_keys":1,"block":2,"trial":222,"stimulus":9,"robot":1,"valence":"win","action":"go","sham":0,"trial_type":"pit-trial","trial_index":253,"time_elapsed":1048391,"internal_node_id":"0.0-228.0","task_version":"battery-v0.2-trt","session":3},{"rune":"F","rune_set":"bacs2","hex":"#f73b6a7A","correct":32,"choice":-1,"rt":-1,"accuracy":0,"outcome":"-10","keys":[],"total_keys":0,"block":2,"trial":223,"stimulus":10,"robot":3,"valence":"lose","action":"go","sham":0,"trial_type":"pit-trial","trial_index":254,"time_elapsed":1052399,"internal_node_id":"0.0-229.0","task_version":"battery-v0.2-trt","session":3},{"rune":"N","rune_set":"bacs2","hex":"#3366ff99","correct":32,"choice":32,"rt":597.6149999769405,"accuracy":1,"outcome":"+10","keys":[2097.68500001519],"total_keys":1,"block":2,"trial":224,"stimulus":11,"robot":1,"valence":"win","action":"go","sham":0,"trial_type":"pit-trial","trial_index":255,"time_elapsed":1055703,"internal_node_id":"0.0-230.0","task_version":"battery-v0.2-trt","session":3},{"rune":"A","rune_set":"bacs2","hex":"#3366ff99","correct":32,"choice":32,"rt":549.2550000199117,"accuracy":1,"outcome":"+1","keys":[2049.874999996973],"total_keys":1,"block":2,"trial":225,"stimulus":9,"robot":1,"valence":"win","action":"go","sham":1,"trial_type":"pit-trial","trial_index":256,"time_elapsed":1058960,"internal_node_id":"0.0-231.0","task_version":"battery-v0.2-trt","session":3},{"rune":"F","rune_set":"bacs2","hex":"#f73b6a7A","correct":32,"choice":-1,"rt":-1,"accuracy":0,"outcome":"-1","keys":[],"total_keys":0,"block":2,"trial":226,"stimulus":10,"robot":3,"valence":"lose","action":"go","sham":1,"trial_type":"pit-trial","trial_index":257,"time_elapsed":1062966,"internal_node_id":"0.0-232.0","task_version":"battery-v0.2-trt","session":3},{"rune":"N","rune_set":"bacs2","hex":"#3366ff99","correct":32,"choice":32,"rt":581.9949999859091,"accuracy":1,"outcome":"+10","keys":[2082.490000000689],"total_keys":1,"block":2,"trial":227,"stimulus":11,"robot":1,"valence":"win","action":"go","sham":0,"trial_type":"pit-trial","trial_index":258,"time_elapsed":1066255,"internal_node_id":"0.0-233.0","task_version":"battery-v0.2-trt","session":3},{"rune":"U","rune_set":"bacs2","hex":"#f73b6a7A","correct":-1,"choice":-1,"rt":-1,"accuracy":1,"outcome":"-10","keys":[],"total_keys":0,"block":2,"trial":228,"stimulus":8,"robot":4,"valence":"lose","action":"no-go","sham":1,"trial_type":"pit-trial","trial_index":259,"time_elapsed":1070263,"internal_node_id":"0.0-234.0","task_version":"battery-v0.2-trt","session":3},{"rune":"N","rune_set":"bacs2","hex":"#3366ff99","correct":32,"choice":32,"rt":573.0900000198744,"accuracy":1,"outcome":"+10","keys":[2073.6899999901652],"total_keys":1,"block":2,"trial":229,"stimulus":11,"robot":1,"valence":"win","action":"go","sham":0,"trial_type":"pit-trial","trial_index":260,"time_elapsed":1073543,"internal_node_id":"0.0-235.0","task_version":"battery-v0.2-trt","session":3},{"rune":"A","rune_set":"bacs2","hex":"#3366ff99","correct":32,"choice":32,"rt":524.9999999941792,"accuracy":1,"outcome":"+1","keys":[2026.049999985844],"total_keys":1,"block":2,"trial":230,"stimulus":9,"robot":1,"valence":"win","action":"go","sham":1,"trial_type":"pit-trial","trial_index":261,"time_elapsed":1076775,"internal_node_id":"0.0-236.0","task_version":"battery-v0.2-trt","session":3},{"rune":"U","rune_set":"bacs2","hex":"#f73b6a7A","correct":-1,"choice":-1,"rt":-1,"accuracy":1,"outcome":"-1","keys":[],"total_keys":0,"block":2,"trial":231,"stimulus":8,"robot":4,"valence":"lose","action":"no-go","sham":0,"trial_type":"pit-trial","trial_index":262,"time_elapsed":1080782,"internal_node_id":"0.0-237.0","task_version":"battery-v0.2-trt","session":3},{"rune":"F","rune_set":"bacs2","hex":"#f73b6a7A","correct":32,"choice":32,"rt":797.9650000052061,"accuracy":1,"outcome":"-1","keys":[2298.445000022184],"total_keys":1,"block":2,"trial":232,"stimulus":10,"robot":3,"valence":"lose","action":"go","sham":0,"trial_type":"pit-trial","trial_index":263,"time_elapsed":1084287,"internal_node_id":"0.0-238.0","task_version":"battery-v0.2-trt","session":3},{"rune":"N","rune_set":"bacs2","hex":"#3366ff99","correct":32,"choice":32,"rt":548.7000000139233,"accuracy":1,"outcome":"+10","keys":[2049.029999994673],"total_keys":1,"block":2,"trial":233,"stimulus":11,"robot":1,"valence":"win","action":"go","sham":0,"trial_type":"pit-trial","trial_index":264,"time_elapsed":1087542,"internal_node_id":"0.0-239.0","task_version":"battery-v0.2-trt","session":3},{"rune":"U","rune_set":"bacs2","hex":"#f73b6a7A","correct":-1,"choice":-1,"rt":-1,"accuracy":1,"outcome":"-1","keys":[],"total_keys":0,"block":2,"trial":234,"stimulus":8,"robot":4,"valence":"lose","action":"no-go","sham":0,"trial_type":"pit-trial","trial_index":265,"time_elapsed":1091550,"internal_node_id":"0.0-240.0","task_version":"battery-v0.2-trt","session":3},{"rune":"F","rune_set":"bacs2","hex":"#f73b6a7A","correct":32,"choice":-1,"rt":-1,"accuracy":0,"outcome":"-10","keys":[],"total_keys":0,"block":2,"trial":235,"stimulus":10,"robot":3,"valence":"lose","action":"go","sham":0,"trial_type":"pit-trial","trial_index":266,"time_elapsed":1095565,"internal_node_id":"0.0-241.0","task_version":"battery-v0.2-t