[{"view_history":"[{\"page_index\":0,\"viewing_time\":3070.1999999582767}]","rt":3070.62999997288,"trial_type":"instructions","trial_index":0,"time_elapsed":3099,"internal_node_id":"0.0-0.0","task_version":"battery-v0.2-trt","session":3},{"slider_type":"valence","raw_loc":709,"loc":0.918,"trial_type":"affective-slider","trial_index":1,"time_elapsed":6144,"internal_node_id":"0.0-1.0","task_version":"battery-v0.2-trt","session":3},{"responses":{"Q06":"0","Q04":"0","Q05":"0","Q03":"0","Q01":"0","Q08":"0","Q07":"0","Q02":"0"},"rt":19412.469999981113,"item_order":[5,3,4,2,0,7,6,1],"radio_events":[8168.949999962933,8908.629999961704,10387.74499995634,13456.609999993816,14423.04999998305,15470.710000023246,16187.84999998752,18136.41000003554],"key_events":[],"mouse_events":[8168.949999962933,8908.629999961704,9589.864999987185,10387.74499995634,12021.665000007488,13456.609999993816,14423.04999998305,15470.710000023246,16187.84999998752,16774.43500002846,18136.41000003554,19410.870000021532],"straightlining":1,"zigzagging":0,"survey":"dass_d","trial_type":"survey-template","trial_index":2,"time_elapsed":25562,"internal_node_id":"0.0-2.0","task_version":"battery-v0.2-trt","session":3,"infrequency":1},{"responses":{"Q01":"0","Q04":"0","Q07":"0","Q05":"0","Q06":"0","Q02":"0","Q08":"0","Q03":"0"},"rt":15151.895000017248,"item_order":[0,3,6,4,5,1,7,2],"radio_events":[2007.8300000168383,2688.8449999969453,6549.65999990236,8124.6899999678135,8907.874999917112,10189.38499991782,11009.609999950044,14423.2099999208],"key_events":[],"mouse_events":[2007.8300000168383,2688.8449999969453,3546.1799999466166,4601.369999931194,5590.40499990806,6549.65999990236,7370.069999946281,8124.6899999678135,8907.874999917112,10189.38499991782,11009.609999950044,11778.349999920465,12870.694999932311,14042.584999930114,14423.2099999208,15150.135000003502],"straightlining":1,"zigzagging":0,"survey":"gad7","trial_type":"survey-template","trial_index":3,"time_elapsed":40726,"internal_node_id":"0.0-3.0","task_version":"battery-v0.2-trt","session":3,"infrequency":0},{"view_history":"[{\"page_index\":0,\"viewing_time\":1996.5699999593198},{\"page_index\":1,\"viewing_time\":1295.505000045523},{\"page_index\":2,\"viewing_time\":30961.239999975078},{\"page_index\":3,\"viewing_time\":3243.665000074543},{\"page_index\":4,\"viewing_time\":2504.2149999644607},{\"page_index\":5,\"viewing_time\":2036.2949999980628},{\"page_index\":6,\"viewing_time\":2057.909999974072},{\"page_index\":7,\"viewing_time\":6180.045000044629},{\"page_index\":8,\"viewing_time\":2489.8849999299273},{\"page_index\":9,\"viewing_time\":1493.1750000687316}]","rt":54259.37500002328,"trial_type":"pit-instructions","trial_index":4,"time_elapsed":95006,"internal_node_id":"0.0-4.0-0.0","task_version":"battery-v0.2-trt","session":3},{"rune":"1","rune_set":"elianto","hex":"#3366ff99","correct":32,"choice":32,"rt":404.4899999862537,"accuracy":1,"outcome":"+10","keys":[1906.2199998879805],"total_keys":1,"block":0,"practice":1,"trial_type":"pit-trial","trial_index":5,"time_elapsed":98126,"internal_node_id":"0.0-4.0-1.0-0.0","task_version":"battery-v0.2-trt","session":3},{"rune":"1","rune_set":"elianto","hex":"#3366ff99","correct":32,"choice":32,"rt":295.7350000506267,"accuracy":1,"outcome":"+10","keys":[1796.595000079833],"total_keys":1,"block":0,"practice":1,"trial_type":"pit-trial","trial_index":6,"time_elapsed":101143,"internal_node_id":"0.0-4.0-1.1-0.1","task_version":"battery-v0.2-trt","session":3},{"rune":"1","rune_set":"elianto","hex":"#3366ff99","correct":32,"choice":32,"rt":214.8149999557063,"accuracy":1,"outcome":"+10","keys":[1715.3399999951944],"total_keys":1,"block":0,"practice":1,"trial_type":"pit-trial","trial_index":7,"time_elapsed":104077,"internal_node_id":"0.0-4.0-1.2-0.2","task_version":"battery-v0.2-trt","session":3},{"rune":"1","rune_set":"elianto","hex":"#3366ff99","correct":32,"choice":32,"rt":302.0000000251457,"accuracy":1,"outcome":"+10","keys":[1802.075000014156],"total_keys":1,"block":0,"practice":1,"trial_type":"pit-trial","trial_index":8,"time_elapsed":107098,"internal_node_id":"0.0-4.0-1.3-0.3","task_version":"battery-v0.2-trt","session":3},{"trial_type":"call-function","trial_index":9,"time_elapsed":107115,"internal_node_id":"0.0-4.0-2.0","task_version":"battery-v0.2-trt","session":3},{"view_history":"[{\"page_index\":0,\"viewing_time\":3163.590000011027},{\"page_index\":1,\"viewing_time\":1099.53000000678}]","rt":4263.799999956973,"trial_type":"pit-instructions","trial_index":10,"time_elapsed":111379,"internal_node_id":"0.0-4.0-3.0","task_version":"battery-v0.2-trt","session":3},{"rune":"2","rune_set":"elianto","hex":"#3366ff99","correct":-1,"choice":-1,"rt":-1,"accuracy":1,"outcome":"+10","keys":[],"total_keys":0,"block":0,"practice":2,"trial_type":"pit-trial","trial_index":11,"time_elapsed":115395,"internal_node_id":"0.0-4.0-4.0-0.0","task_version":"battery-v0.2-trt","session":3},{"rune":"2","rune_set":"elianto","hex":"#3366ff99","correct":-1,"choice":-1,"rt":-1,"accuracy":1,"outcome":"+10","keys":[],"total_keys":0,"block":0,"practice":2,"trial_type":"pit-trial","trial_index":12,"time_elapsed":119412,"internal_node_id":"0.0-4.0-4.1-0.1","task_version":"battery-v0.2-trt","session":3},{"rune":"2","rune_set":"elianto","hex":"#3366ff99","correct":-1,"choice":-1,"rt":-1,"accuracy":1,"outcome":"+10","keys":[],"total_keys":0,"block":0,"practice":2,"trial_type":"pit-trial","trial_index":13,"time_elapsed":123428,"internal_node_id":"0.0-4.0-4.2-0.2","task_version":"battery-v0.2-trt","session":3},{"rune":"2","rune_set":"elianto","hex":"#3366ff99","correct":-1,"choice":-1,"rt":-1,"accuracy":1,"outcome":"+10","keys":[],"total_keys":0,"block":0,"practice":2,"trial_type":"pit-trial","trial_index":14,"time_elapsed":127445,"internal_node_id":"0.0-4.0-4.3-0.3","task_version":"battery-v0.2-trt","session":3},{"trial_type":"call-function","trial_index":15,"time_elapsed":127463,"internal_node_id":"0.0-4.0-5.0","task_version":"battery-v0.2-trt","session":3},{"view_history":"[{\"page_index\":0,\"viewing_time\":2152.8350000735372},{\"page_index\":1,\"viewing_time\":3125.98499993328}]","rt":5279.330000048503,"trial_type":"pit-instructions","trial_index":16,"time_elapsed":132750,"internal_node_id":"0.0-4.0-6.0","task_version":"battery-v0.2-trt","session":3},{"rune":"3","rune_set":"elianto","hex":"#f73b6a7A","correct":-1,"choice":-1,"rt":-1,"accuracy":1,"outcome":"-1","keys":[2852.1900000050664],"total_keys":1,"block":0,"practice":3,"trial_type":"pit-trial","trial_index":17,"time_elapsed":136762,"internal_node_id":"0.0-4.0-7.0-0.0","task_version":"battery-v0.2-trt","session":3},{"rune":"3","rune_set":"elianto","hex":"#f73b6a7A","correct":-1,"choice":32,"rt":189.10000007599592,"accuracy":0,"outcome":"-10","keys":[1689.9650000268593],"total_keys":1,"block":0,"practice":3,"trial_type":"pit-trial","trial_index":18,"time_elapsed":139675,"internal_node_id":"0.0-4.0-7.1-0.1","task_version":"battery-v0.2-trt","session":3},{"rune":"3","rune_set":"elianto","hex":"#f73b6a7A","correct":-1,"choice":-1,"rt":-1,"accuracy":1,"outcome":"-1","keys":[],"total_keys":0,"block":0,"practice":3,"trial_type":"pit-trial","trial_index":19,"time_elapsed":143692,"internal_node_id":"0.0-4.0-7.2-0.2","task_version":"battery-v0.2-trt","session":3},{"rune":"3","rune_set":"elianto","hex":"#f73b6a7A","correct":-1,"choice":-1,"rt":-1,"accuracy":1,"outcome":"-1","keys":[],"total_keys":0,"block":0,"practice":3,"trial_type":"pit-trial","trial_index":20,"time_elapsed":147710,"internal_node_id":"0.0-4.0-7.3-0.3","task_version":"battery-v0.2-trt","session":3},{"rune":"3","rune_set":"elianto","hex":"#f73b6a7A","correct":-1,"choice":-1,"rt":-1,"accuracy":1,"outcome":"-1","keys":[],"total_keys":0,"block":0,"practice":3,"trial_type":"pit-trial","trial_index":21,"time_elapsed":151729,"internal_node_id":"0.0-4.0-7.4-0.4","task_version":"battery-v0.2-trt","session":3},{"trial_type":"call-function","trial_index":22,"time_elapsed":151746,"internal_node_id":"0.0-4.0-8.0","task_version":"battery-v0.2-trt","session":3},{"view_history":"[{\"page_index\":0,\"viewing_time\":2424.3899999419227},{\"page_index\":1,\"viewing_time\":1684.9500000244007}]","rt":4110.2549999486655,"trial_type":"pit-instructions","trial_index":23,"time_elapsed":155857,"internal_node_id":"0.0-4.0-9.0","task_version":"battery-v0.2-trt","session":3},{"rune":"4","rune_set":"elianto","hex":"#f73b6a7A","correct":32,"choice":32,"rt":221.60000004805624,"accuracy":1,"outcome":"-1","keys":[1722.8500000201166],"total_keys":1,"block":0,"practice":4,"trial_type":"pit-trial","trial_index":24,"time_elapsed":158794,"internal_node_id":"0.0-4.0-10.0-0.0","task_version":"battery-v0.2-trt","session":3},{"rune":"4","rune_set":"elianto","hex":"#f73b6a7A","correct":32,"choice":32,"rt":26.24499995727092,"accuracy":1,"outcome":"-1","keys":[1526.5799999469891],"total_keys":1,"block":0,"practice":4,"trial_type":"pit-trial","trial_index":25,"time_elapsed":161538,"internal_node_id":"0.0-4.0-10.1-0.1","task_version":"battery-v0.2-trt","session":3},{"rune":"4","rune_set":"elianto","hex":"#f73b6a7A","correct":32,"choice":32,"rt":184.47000009473413,"accuracy":1,"outcome":"-1","keys":[1686.1100000096485],"total_keys":1,"block":0,"practice":4,"trial_type":"pit-trial","trial_index":26,"time_elapsed":164442,"internal_node_id":"0.0-4.0-10.2-0.2","task_version":"battery-v0.2-trt","session":3},{"rune":"4","rune_set":"elianto","hex":"#f73b6a7A","correct":32,"choice":32,"rt":223.6399999819696,"accuracy":1,"outcome":"-1","keys":[1724.3549999548122],"total_keys":1,"block":0,"practice":4,"trial_type":"pit-trial","trial_index":27,"time_elapsed":167391,"internal_node_id":"0.0-4.0-10.3-0.3","task_version":"battery-v0.2-trt","session":3},{"trial_type":"call-function","trial_index":28,"time_elapsed":167406,"internal_node_id":"0.0-4.0-11.0","task_version":"battery-v0.2-trt","session":3},{"view_history":"[{\"page_index\":0,\"viewing_time\":1971.6450000414625},{\"page_index\":1,\"viewing_time\":12834.734999923967},{\"page_index\":2,\"viewing_time\":1229.6499999938533},{\"page_index\":3,\"viewing_time\":1708.0449999775738},{\"page_index\":4,\"viewing_time\":4178.840000065975},{\"page_index\":5,\"viewing_time\":1084.5449999906123}]","rt":23008.290000027046,"trial_type":"pit-instructions","trial_index":29,"time_elapsed":190415,"internal_node_id":"0.0-4.0-12.0","task_version":"battery-v0.2-trt","session":3},{"responses":["Press SPACE","+10","-1","True","True"],"num_errors":0,"rt":12328.119999961928,"trial_type":"pit-comprehension","trial_index":30,"time_elapsed":202755,"internal_node_id":"0.0-4.0-13.0","task_version":"battery-v0.2-trt","session":3},{"view_history":"[{\"page_index\":0,\"viewing_time\":2004.8600001027808},{\"page_index\":1,\"viewing_time\":1706.0349999228492}]","rt":3711.4100001053885,"trial_type":"pit-instructions","trial_index":31,"time_elapsed":206480,"internal_node_id":"0.0-5.0","task_version":"battery-v0.2-trt","session":3},{"rune":"T","rune_set":"bacs2","hex":"#f73b6a7A","correct":32,"choice":32,"rt":340.9349999856204,"accuracy":1,"outcome":"-1","keys":[1841.8349999701604],"total_keys":1,"block":1,"trial":1,"stimulus":1,"robot":3,"valence":"lose","action":"go","sham":0,"trial_type":"pit-trial","trial_index":32,"time_elapsed":209535,"internal_node_id":"0.0-6.0","task_version":"battery-v0.2-trt","session":3},{"rune":"Q","rune_set":"bacs2","hex":"#f73b6a7A","correct":-1,"choice":32,"rt":336.56999992672354,"accuracy":0,"outcome":"-10","keys":[1836.8049999698997],"total_keys":1,"block":1,"trial":2,"stimulus":2,"robot":4,"valence":"lose","action":"no-go","sham":0,"trial_type":"pit-trial","trial_index":33,"time_elapsed":212590,"internal_node_id":"0.0-7.0","task_version":"battery-v0.2-trt","session":3},{"rune":"H","rune_set":"bacs2","hex":"#3366ff99","correct":32,"choice":32,"rt":700.3849999746308,"accuracy":1,"outcome":"+10","keys":[2201.8900000257418],"total_keys":1,"block":1,"trial":3,"stimulus":3,"robot":1,"valence":"win","action":"go","sham":0,"trial_type":"pit-trial","trial_index":34,"time_elapsed":216011,"internal_node_id":"0.0-8.0","task_version":"battery-v0.2-trt","session":3},{"rune":"Y","rune_set":"bacs2","hex":"#3366ff99","correct":-1,"choice":32,"rt":633.0000000307336,"accuracy":0,"outcome":"+10","keys":[2133.8850000174716],"total_keys":1,"block":1,"trial":4,"stimulus":0,"robot":2,"valence":"win","action":"no-go","sham":1,"trial_type":"pit-trial","trial_index":35,"time_elapsed":219363,"internal_node_id":"0.0-9.0","task_version":"battery-v0.2-trt","session":3},{"rune":"T","rune_set":"bacs2","hex":"#f73b6a7A","correct":32,"choice":32,"rt":805.324999964796,"accuracy":1,"outcome":"-1","keys":[2306.224999949336],"total_keys":1,"block":1,"trial":5,"stimulus":1,"robot":3,"valence":"lose","action":"go","sham":0,"trial_type":"pit-trial","trial_index":36,"time_elapsed":222888,"internal_node_id":"0.0-10.0","task_version":"battery-v0.2-trt","session":3},{"rune":"Y","rune_set":"bacs2","hex":"#3366ff99","correct":-1,"choice":32,"rt":545.6199999898672,"accuracy":0,"outcome":"+1","keys":[2046.574999927543],"total_keys":1,"block":1,"trial":6,"stimulus":0,"robot":2,"valence":"win","action":"no-go","sham":0,"trial_type":"pit-trial","trial_index":37,"time_elapsed":226152,"internal_node_id":"0.0-11.0","task_version":"battery-v0.2-trt","session":3},{"rune":"H","rune_set":"bacs2","hex":"#3366ff99","correct":32,"choice":-1,"rt":-1,"accuracy":0,"outcome":"+10","keys":[],"total_keys":0,"block":1,"trial":7,"stimulus":3,"robot":1,"valence":"win","action":"go","sham":1,"trial_type":"pit-trial","trial_index":38,"time_elapsed":230170,"internal_node_id":"0.0-12.0","task_version":"battery-v0.2-trt","session":3},{"rune":"Q","rune_set":"bacs2","hex":"#f73b6a7A","correct":-1,"choice":32,"rt":759.8400000715628,"accuracy":0,"outcome":"-10","keys":[2260.4200000641868],"total_keys":1,"block":1,"trial":8,"stimulus":2,"robot":4,"valence":"lose","action":"no-go","sham":0,"trial_type":"pit-trial","trial_index":39,"time_elapsed":233648,"internal_node_id":"0.0-13.0","task_version":"battery-v0.2-trt","session":3},{"rune":"Q","rune_set":"bacs2","hex":"#f73b6a7A","correct":-1,"choice":-1,"rt":-1,"accuracy":1,"outcome":"-10","keys":[],"total_keys":0,"block":1,"trial":9,"stimulus":2,"robot":4,"valence":"lose","action":"no-go","sham":1,"trial_type":"pit-trial","trial_index":40,"time_elapsed":237666,"internal_node_id":"0.0-14.0","task_version":"battery-v0.2-trt","session":3},{"rune":"H","rune_set":"bacs2","hex":"#3366ff99","correct":32,"choice":32,"rt":781.8699999479577,"accuracy":1,"outcome":"+10","keys":[2283.3700000774115],"total_keys":1,"block":1,"trial":10,"stimulus":3,"robot":1,"valence":"win","action":"go","sham":0,"trial_type":"pit-trial","trial_index":41,"time_elapsed":241165,"internal_node_id":"0.0-15.0","task_version":"battery-v0.2-trt","session":3},{"rune":"T","rune_set":"bacs2","hex":"#f73b6a7A","correct":32,"choice":32,"rt":715.3849999886006,"accuracy":1,"outcome":"-1","keys":[2216.424999991432],"total_keys":1,"block":1,"trial":11,"stimulus":1,"robot":3,"valence":"lose","action":"go","sham":0,"trial_type":"pit-trial","trial_index":42,"time_elapsed":244597,"internal_node_id":"0.0-16.0","task_version":"battery-v0.2-trt","session":3},{"rune":"Y","rune_set":"bacs2","hex":"#3366ff99","correct":-1,"choice":-1,"rt":-1,"accuracy":1,"outcome":"+10","keys":[],"total_keys":0,"block":1,"trial":12,"stimulus":0,"robot":2,"valence":"win","action":"no-go","sham":0,"trial_type":"pit-trial","trial_index":43,"time_elapsed":248622,"internal_node_id":"0.0-17.0","task_version":"battery-v0.2-trt","session":3},{"rune":"Q","rune_set":"bacs2","hex":"#f73b6a7A","correct":-1,"choice":-1,"rt":-1,"accuracy":1,"outcome":"-1","keys":[],"total_keys":0,"block":1,"trial":13,"stimulus":2,"robot":4,"valence":"lose","action":"no-go","sham":0,"trial_type":"pit-trial","trial_index":44,"time_elapsed":252648,"internal_node_id":"0.0-18.0","task_version":"battery-v0.2-trt","session":3},{"rune":"Y","rune_set":"bacs2","hex":"#3366ff99","correct":-1,"choice":32,"rt":720.9049999946728,"accuracy":0,"outcome":"+1","keys":[2220.9949999814853],"total_keys":1,"block":1,"trial":14,"stimulus":0,"robot":2,"valence":"win","action":"no-go","sham":0,"trial_type":"pit-trial","trial_index":45,"time_elapsed":256107,"internal_node_id":"0.0-19.0","task_version":"battery-v0.2-trt","session":3},{"rune":"H","rune_set":"bacs2","hex":"#3366ff99","correct":32,"choice":-1,"rt":-1,"accuracy":0,"outcome":"+1","keys":[],"total_keys":0,"block":1,"trial":15,"stimulus":3,"robot":1,"valence":"win","action":"go","sham":0,"trial_type":"pit-trial","trial_index":46,"time_elapsed":260121,"internal_node_id":"0.0-20.0","task_version":"battery-v0.2-trt","session":3},{"rune":"T","rune_set":"bacs2","hex":"#f73b6a7A","correct":32,"choice":-1,"rt":-1,"accuracy":0,"outcome":"-10","keys":[2997.1600000280887],"total_keys":1,"block":1,"trial":16,"stimulus":1,"robot":3,"valence":"lose","action":"go","sham":0,"trial_type":"pit-trial","trial_index":47,"time_elapsed":264139,"internal_node_id":"0.0-21.0","task_version":"battery-v0.2-trt","session":3},{"rune":"T","rune_set":"bacs2","hex":"#f73b6a7A","correct":32,"choice":-1,"rt":-1,"accuracy":0,"outcome":"-1","keys":[],"total_keys":0,"block":1,"trial":17,"stimulus":1,"robot":3,"valence":"lose","action":"go","sham":1,"trial_type":"pit-trial","trial_index":48,"time_elapsed":268159,"internal_node_id":"0.0-22.0","task_version":"battery-v0.2-trt","session":3},{"rune":"Y","rune_set":"bacs2","hex":"#3366ff99","correct":-1,"choice":32,"rt":1137.7050000010058,"accuracy":0,"outcome":"+1","keys":[2639.1050000675023],"total_keys":1,"block":1,"trial":18,"stimulus":0,"robot":2,"valence":"win","action":"no-go","sham":0,"trial_type":"pit-trial","trial_index":49,"time_elapsed":272020,"internal_node_id":"0.0-23.0","task_version":"battery-v0.2-trt","session":3},{"rune":"Q","rune_set":"bacs2","hex":"#f73b6a7A","correct":-1,"choice":-1,"rt":-1,"accuracy":1,"outcome":"-10","keys":[],"total_keys":0,"block":1,"trial":19,"stimulus":2,"robot":4,"valence":"lose","action":"no-go","sham":1,"trial_type":"pit-trial","trial_index":50,"time_elapsed":276035,"internal_node_id":"0.0-24.0","task_version":"battery-v0.2-trt","session":3},{"rune":"H","rune_set":"bacs2","hex":"#3366ff99","correct":32,"choice":-1,"rt":-1,"accuracy":0,"outcome":"+1","keys":[],"total_keys":0,"block":1,"trial":20,"stimulus":3,"robot":1,"valence":"win","action":"go","sham":0,"trial_type":"pit-trial","trial_index":51,"time_elapsed":280055,"internal_node_id":"0.0-25.0","task_version":"battery-v0.2-trt","session":3},{"rune":"T","rune_set":"bacs2","hex":"#f73b6a7A","correct":32,"choice":32,"rt":585.2000000886619,"accuracy":1,"outcome":"-1","keys":[2085.770000005141],"total_keys":1,"block":1,"trial":21,"stimulus":1,"robot":3,"valence":"lose","action":"go","sham":0,"trial_type":"pit-trial","trial_index":52,"time_elapsed":283361,"internal_node_id":"0.0-26.0","task_version":"battery-v0.2-trt","session":3},{"rune":"Q","rune_set":"bacs2","hex":"#f73b6a7A","correct":-1,"choice":-1,"rt":-1,"accuracy":1,"outcome":"-1","keys":[],"total_keys":0,"block":1,"trial":22,"stimulus":2,"robot":4,"valence":"lose","action":"no-go","sham":0,"trial_type":"pit-trial","trial_index":53,"time_elapsed":287379,"internal_node_id":"0.0-27.0","task_version":"battery-v0.2-trt","session":3},{"rune":"Y","rune_set":"bacs2","hex":"#3366ff99","correct":-1,"choice":-1,"rt":-1,"accuracy":1,"outcome":"+10","keys":[],"total_keys":0,"block":1,"trial":23,"stimulus":0,"robot":2,"valence":"win","action":"no-go","sham":0,"trial_type":"pit-trial","trial_index":54,"time_elapsed":291398,"internal_node_id":"0.0-28.0","task_version":"battery-v0.2-trt","session":3},{"rune":"H","rune_set":"bacs2","hex":"#3366ff99","correct":32,"choice":-1,"rt":-1,"accuracy":0,"outcome":"+1","keys":[],"total_keys":0,"block":1,"trial":24,"stimulus":3,"robot":1,"valence":"win","action":"go","sham":0,"trial_type":"pit-trial","trial_index":55,"time_elapsed":295418,"internal_node_id":"0.0-29.0","task_version":"battery-v0.2-trt","session":3},{"rune":"Q","rune_set":"bacs2","hex":"#f73b6a7A","correct":-1,"choice":32,"rt":1159.1999999945983,"accuracy":0,"outcome":"-10","keys":[2659.8200000589713],"total_keys":1,"block":1,"trial":25,"stimulus":2,"robot":4,"valence":"lose","action":"no-go","sham":0,"trial_type":"pit-trial","trial_index":56,"time_elapsed":299297,"internal_node_id":"0.0-30.0","task_version":"battery-v0.2-trt","session":3},{"rune":"H","rune_set":"bacs2","hex":"#3366ff99","correct":32,"choice":32,"rt":974.1650000214577,"accuracy":1,"outcome":"+1","keys":[2474.8999999137595],"total_keys":1,"block":1,"trial":26,"stimulus":3,"robot":1,"valence":"win","action":"go","sham":1,"trial_type":"pit-trial","trial_index":57,"time_elapsed":302988,"internal_node_id":"0.0-31.0","task_version":"battery-v0.2-trt","session":3},{"rune":"T","rune_set":"bacs2","hex":"#f73b6a7A","correct":32,"choice":32,"rt":812.8550000255927,"accuracy":1,"outcome":"-10","keys":[2313.5849999962375],"total_keys":1,"block":1,"trial":27,"stimulus":1,"robot":3,"valence":"lose","action":"go","sham":1,"trial_type":"pit-trial","trial_index":58,"time_elapsed":306519,"internal_node_id":"0.0-32.0","task_version":"battery-v0.2-trt","session":3},{"rune":"Y","rune_set":"bacs2","hex":"#3366ff99","correct":-1,"choice":32,"rt":850.8350000483915,"accuracy":0,"outcome":"+1","keys":[2351.9599999999627],"total_keys":1,"block":1,"trial":28,"stimulus":0,"robot":2,"valence":"win","action":"no-go","sham":0,"trial_type":"pit-trial","trial_index":59,"time_elapsed":310089,"internal_node_id":"0.0-33.0","task_version":"battery-v0.2-trt","session":3},{"rune":"Y","rune_set":"bacs2","hex":"#3366ff99","correct":-1,"choice":-1,"rt":-1,"accuracy":1,"outcome":"+1","keys":[],"total_keys":0,"block":1,"trial":29,"stimulus":0,"robot":2,"valence":"win","action":"no-go","sham":1,"trial_type":"pit-trial","trial_index":60,"time_elapsed":314109,"internal_node_id":"0.0-34.0","task_version":"battery-v0.2-trt","session":3},{"rune":"T","rune_set":"bacs2","hex":"#f73b6a7A","correct":32,"choice":-1,"rt":-1,"accuracy":0,"outcome":"-10","keys":[3053.4350000089034],"total_keys":1,"block":1,"trial":30,"stimulus":1,"robot":3,"valence":"lose","action":"go","sham":0,"trial_type":"pit-trial","trial_index":61,"time_elapsed":318135,"internal_node_id":"0.0-35.0","task_version":"battery-v0.2-trt","session":3},{"rune":"H","rune_set":"bacs2","hex":"#3366ff99","correct":32,"choice":32,"rt":398.6550000263378,"accuracy":1,"outcome":"+10","keys":[1899.8549999669194],"total_keys":1,"block":1,"trial":31,"stimulus":3,"robot":1,"valence":"win","action":"go","sham":0,"trial_type":"pit-trial","trial_index":62,"time_elapsed":321253,"internal_node_id":"0.0-36.0","task_version":"battery-v0.2-trt","session":3},{"rune":"Q","rune_set":"bacs2","hex":"#f73b6a7A","correct":-1,"choice":32,"rt":379.1600000113249,"accuracy":0,"outcome":"-10","keys":[1880.654999986291],"total_keys":1,"block":1,"trial":32,"stimulus":2,"robot":4,"valence":"lose","action":"no-go","sham":0,"trial_type":"pit-trial","trial_index":63,"time_elapsed":324353,"internal_node_id":"0.0-37.0","task_version":"battery-v0.2-trt","session":3},{"rune":"E","rune_set":"bacs2","hex":"#f73b6a7A","correct":32,"choice":32,"rt":559.9350000265986,"accuracy":1,"outcome":"-1","keys":[2061.384999891743],"total_keys":1,"block":1,"trial":33,"stimulus":4,"robot":3,"valence":"lose","action":"go","sham":0,"trial_type":"pit-trial","trial_index":64,"time_elapsed":327637,"internal_node_id":"0.0-38.0","task_version":"battery-v0.2-trt","session":3},{"rune":"Q","rune_set":"bacs2","hex":"#f73b6a7A","correct":-1,"choice":-1,"rt":-1,"accuracy":1,"outcome":"-1","keys":[],"total_keys":0,"block":1,"trial":34,"stimulus":2,"robot":4,"valence":"lose","action":"no-go","sham":0,"trial_type":"pit-trial","trial_index":65,"time_elapsed":331658,"internal_node_id":"0.0-39.0","task_version":"battery-v0.2-trt","session":3},{"rune":"T","rune_set":"bacs2","hex":"#f73b6a7A","correct":32,"choice":32,"rt":613.539999932982,"accuracy":1,"outcome":"-1","keys":[2113.6100000003353],"total_keys":1,"block":1,"trial":35,"stimulus":1,"robot":3,"valence":"lose","action":"go","sham":0,"trial_type":"pit-trial","trial_index":66,"time_elapsed":334988,"internal_node_id":"0.0-40.0","task_version":"battery-v0.2-trt","session":3},{"rune":"C","rune_set":"bacs2","hex":"#f73b6a7A","correct":-1,"choice":32,"rt":517.5750000635162,"accuracy":0,"outcome":"-10","keys":[2017.7549999207258],"total_keys":1,"block":1,"trial":36,"stimulus":5,"robot":4,"valence":"lose","action":"no-go","sham":0,"trial_type":"pit-trial","trial_index":67,"time_elapsed":338222,"internal_node_id":"0.0-41.0","task_version":"battery-v0.2-trt","session":3},{"rune":"Q","rune_set":"bacs2","hex":"#f73b6a7A","correct":-1,"choice":-1,"rt":-1,"accuracy":1,"outcome":"-1","keys":[],"total_keys":0,"block":1,"trial":37,"stimulus":2,"robot":4,"valence":"lose","action":"no-go","sham":0,"trial_type":"pit-trial","trial_index":68,"time_elapsed":342244,"internal_node_id":"0.0-42.0","task_version":"battery-v0.2-trt","session":3},{"rune":"E","rune_set":"bacs2","hex":"#f73b6a7A","correct":32,"choice":-1,"rt":-1,"accuracy":0,"outcome":"-10","keys":[],"total_keys":0,"block":1,"trial":38,"stimulus":4,"robot":3,"valence":"lose","action":"go","sham":0,"trial_type":"pit-trial","trial_index":69,"time_elapsed":346261,"internal_node_id":"0.0-43.0","task_version":"battery-v0.2-trt","session":3},{"rune":"T","rune_set":"bacs2","hex":"#f73b6a7A","correct":32,"choice":32,"rt":771.7000000411645,"accuracy":1,"outcome":"-10","keys":[2272.7249999297783],"total_keys":1,"block":1,"trial":39,"stimulus":1,"robot":3,"valence":"lose","action":"go","sham":1,"trial_type":"pit-trial","trial_index":70,"time_elapsed":349749,"internal_node_id":"0.0-44.0","task_version":"battery-v0.2-trt","session":3},{"rune":"C","rune_set":"bacs2","hex":"#f73b6a7A","correct":-1,"choice":-1,"rt":-1,"accuracy":1,"outcome":"-1","keys":[3192.1399999409914],"total_keys":1,"block":1,"trial":40,"stimulus":5,"robot":4,"valence":"lose","action":"no-go","sham":0,"trial_type":"pit-trial","trial_index":71,"time_elapsed":353768,"internal_node_id":"0.0-45.0","task_version":"battery-v0.2-trt","session":3},{"rune":"O","rune_set":"bacs2","hex":"#3366ff99","correct":-1,"choice":-1,"rt":-1,"accuracy":1,"outcome":"+10","keys":[],"total_keys":0,"block":1,"trial":41,"stimulus":6,"robot":2,"valence":"win","action":"no-go","sham":0,"trial_type":"pit-trial","trial_index":72,"time_elapsed":357787,"internal_node_id":"0.0-46.0","task_version":"battery-v0.2-trt","session":3},{"rune":"C","rune_set":"bacs2","hex":"#f73b6a7A","correct":-1,"choice":32,"rt":482.64499998185784,"accuracy":0,"outcome":"-10","keys":[1983.1550000235438],"total_keys":1,"block":1,"trial":42,"stimulus":5,"robot":4,"valence":"lose","action":"no-go","sham":0,"trial_type":"pit-trial","trial_index":73,"time_elapsed":360987,"internal_node_id":"0.0-47.0","task_version":"battery-v0.2-trt","session":3},{"rune":"Q","rune_set":"bacs2","hex":"#f73b6a7A","correct":-1,"choice":-1,"rt":-1,"accuracy":1,"outcome":"-10","keys":[],"total_keys":0,"block":1,"trial":43,"stimulus":2,"robot":4,"valence":"lose","action":"no-go","sham":1,"trial_type":"pit-trial","trial_index":74,"time_elapsed":365005,"internal_node_id":"0.0-48.0","task_version":"battery-v0.2-trt","session":3},{"rune":"E","rune_set":"bacs2","hex":"#f73b6a7A","correct":32,"choice":-1,"rt":-1,"accuracy":0,"outcome":"-10","keys":[],"total_keys":0,"block":1,"trial":44,"stimulus":4,"robot":3,"valence":"lose","action":"go","sham":0,"trial_type":"pit-trial","trial_index":75,"time_elapsed":369023,"internal_node_id":"0.0-49.0","task_version":"battery-v0.2-trt","session":3},{"rune":"Q","rune_set":"bacs2","hex":"#f73b6a7A","correct":-1,"choice":-1,"rt":-1,"accuracy":1,"outcome":"-1","keys":[],"total_keys":0,"block":1,"trial":45,"stimulus":2,"robot":4,"valence":"lose","action":"no-go","sham":0,"trial_type":"pit-trial","trial_index":76,"time_elapsed":373039,"internal_node_id":"0.0-50.0","task_version":"battery-v0.2-trt","session":3},{"rune":"E","rune_set":"bacs2","hex":"#f73b6a7A","correct":32,"choice":-1,"rt":-1,"accuracy":0,"outcome":"-10","keys":[],"total_keys":0,"block":1,"trial":46,"stimulus":4,"robot":3,"valence":"lose","action":"go","sham":0,"trial_type":"pit-trial","trial_index":77,"time_elapsed":377064,"internal_node_id":"0.0-51.0","task_version":"battery-v0.2-trt","session":3},{"rune":"C","rune_set":"bacs2","hex":"#f73b6a7A","correct":-1,"choice":-1,"rt":-1,"accuracy":1,"outcome":"-1","keys":[],"total_keys":0,"block":1,"trial":47,"stimulus":5,"robot":4,"valence":"lose","action":"no-go","sham":0,"trial_type":"pit-trial","trial_index":78,"time_elapsed":381094,"internal_node_id":"0.0-52.0","task_version":"battery-v0.2-trt","session":3},{"rune":"O","rune_set":"bacs2","hex":"#3366ff99","correct":-1,"choice":32,"rt":735.7250000350177,"accuracy":0,"outcome":"+1","keys":[2236.6349999792874],"total_keys":1,"block":1,"trial":48,"stimulus":6,"robot":2,"valence":"win","action":"no-go","sham":0,"trial_type":"pit-trial","trial_index":79,"time_elapsed":384548,"internal_node_id":"0.0-53.0","task_version":"battery-v0.2-trt","session":3},{"rune":"C","rune_set":"bacs2","hex":"#f73b6a7A","correct":-1,"choice":32,"rt":771.390000008978,"accuracy":0,"outcome":"-10","keys":[2271.915000048466],"total_keys":1,"block":1,"trial":49,"stimulus":5,"robot":4,"valence":"lose","action":"no-go","sham":0,"trial_type":"pit-trial","trial_index":80,"time_elapsed":388044,"internal_node_id":"0.0-54.0","task_version":"battery-v0.2-trt","session":3},{"rune":"O","rune_set":"bacs2","hex":"#3366ff99","correct":-1,"choice":32,"rt":1113.5449999710545,"accuracy":0,"outcome":"+1","keys":[2614.5949999336153],"total_keys":1,"block":1,"trial":50,"stimulus":6,"robot":2,"valence":"win","action":"no-go","sham":0,"trial_type":"pit-trial","trial_index":81,"time_elapsed":391876,"internal_node_id":"0.0-55.0","task_version":"battery-v0.2-trt","session":3},{"rune":"G","rune_set":"bacs2","hex":"#3366ff99","correct":32,"choice":-1,"rt":-1,"accuracy":0,"outcome":"+1","keys":[],"total_keys":0,"block":1,"trial":51,"stimulus":7,"robot":1,"valence":"win","action":"go","sham":0,"trial_type":"pit-trial","trial_index":82,"time_elapsed":395893,"internal_node_id":"0.0-56.0","task_version":"battery-v0.2-trt","session":3},{"rune":"E","rune_set":"bacs2","hex":"#f73b6a7A","correct":32,"choice":32,"rt":860.6300000101328,"accuracy":1,"outcome":"-10","keys":[2362.3000000370666],"total_keys":1,"block":1,"trial":52,"stimulus":4,"robot":3,"valence":"lose","action":"go","sham":1,"trial_type":"pit-trial","trial_index":83,"time_elapsed":399475,"internal_node_id":"0.0-57.0","task_version":"battery-v0.2-trt","session":3},{"rune":"O","rune_set":"bacs2","hex":"#3366ff99","correct":-1,"choice":32,"rt":545.2050000894815,"accuracy":0,"outcome":"+1","keys":[2045.9600000176579],"total_keys":1,"block":1,"trial":53,"stimulus":6,"robot":2,"valence":"win","action":"no-go","sham":0,"trial_type":"pit-trial","trial_index":84,"time_elapsed":402740,"internal_node_id":"0.0-58.0","task_version":"battery-v0.2-trt","session":3},{"rune":"E","rune_set":"bacs2","hex":"#f73b6a7A","correct":32,"choice":32,"rt":825.7100000046194,"accuracy":1,"outcome":"-1","keys":[2327.1200000308454],"total_keys":1,"block":1,"trial":54,"stimulus":4,"robot":3,"valence":"lose","action":"go","sham":0,"trial_type":"pit-trial","trial_index":85,"time_elapsed":406285,"internal_node_id":"0.0-59.0","task_version":"battery-v0.2-trt","session":3},{"rune":"G","rune_set":"bacs2","hex":"#3366ff99","correct":32,"choice":32,"rt":354.2100000195205,"accuracy":1,"outcome":"+10","keys":[1854.9249999923632],"total_keys":1,"block":1,"trial":55,"stimulus":7,"robot":1,"valence":"win","action":"go","sham":0,"trial_type":"pit-trial","trial_index":86,"time_elapsed":409356,"internal_node_id":"0.0-60.0","task_version":"battery-v0.2-trt","session":3},{"rune":"C","rune_set":"bacs2","hex":"#f73b6a7A","correct":-1,"choice":32,"rt":652.6399999856949,"accuracy":0,"outcome":"-10","keys":[2153.3399999607354],"total_keys":1,"block":1,"trial":56,"stimulus":5,"robot":4,"valence":"lose","action":"no-go","sham":0,"trial_type":"pit-trial","trial_index":87,"time_elapsed":412725,"internal_node_id":"0.0-61.0","task_version":"battery-v0.2-trt","session":3},{"rune":"E","rune_set":"bacs2","hex":"#f73b6a7A","correct":32,"choice":32,"rt":269.1499999491498,"accuracy":1,"outcome":"-1","keys":[1770.005000056699],"total_keys":1,"block":1,"trial":57,"stimulus":4,"robot":3,"valence":"lose","action":"go","sham":0,"trial_type":"pit-trial","trial_index":88,"time_elapsed":415713,"internal_node_id":"0.0-62.0","task_version":"battery-v0.2-trt","session":3},{"rune":"O","rune_set":"bacs2","hex":"#3366ff99","correct":-1,"choice":32,"rt":295.10500002652407,"accuracy":0,"outcome":"+1","keys":[1795.4700000118464],"total_keys":1,"block":1,"trial":58,"stimulus":6,"robot":2,"valence":"win","action":"no-go","sham":0,"trial_type":"pit-trial","trial_index":89,"time_elapsed":418726,"internal_node_id":"0.0-63.0","task_version":"battery-v0.2-trt","session":3},{"rune":"G","rune_set":"bacs2","hex":"#3366ff99","correct":32,"choice":32,"rt":415.2999999932945,"accuracy":1,"outcome":"+10","keys":[1916.969999903813],"total_keys":1,"block":1,"trial":59,"stimulus":7,"robot":1,"valence":"win","action":"go","sham":0,"trial_type":"pit-trial","trial_index":90,"time_elapsed":421861,"internal_node_id":"0.0-64.0","task_version":"battery-v0.2-trt","session":3},{"rune":"C","rune_set":"bacs2","hex":"#f73b6a7A","correct":-1,"choice":32,"rt":268.67000001948327,"accuracy":0,"outcome":"-10","keys":[1770.3200000105426],"total_keys":1,"block":1,"trial":60,"stimulus":5,"robot":4,"valence":"lose","action":"no-go","sham":0,"trial_type":"pit-trial","trial_index":91,"time_elapsed":424851,"internal_node_id":"0.0-65.0","task_version":"battery-v0.2-trt","session":3},{"rune":"C","rune_set":"bacs2","hex":"#f73b6a7A","correct":-1,"choice":32,"rt":394.0099999308586,"accuracy":0,"outcome":"-10","keys":[1895.2699999790639],"total_keys":1,"block":1,"trial":61,"stimulus":5,"robot":4,"valence":"lose","action":"no-go","sham":0,"trial_type":"pit-trial","trial_index":92,"time_elapsed":427963,"internal_node_id":"0.0-66.0","task_version":"battery-v0.2-trt","session":3},{"rune":"E","rune_set":"bacs2","hex":"#f73b6a7A","correct":32,"choice":32,"rt":613.6650000698864,"accuracy":1,"outcome":"-1","keys":[2114.479999989271],"total_keys":1,"block":1,"trial":62,"stimulus":4,"robot":3,"valence":"lose","action":"go","sham":0,"trial_type":"pit-trial","trial_index":93,"time_elapsed":431297,"internal_node_id":"0.0-67.0","task_version":"battery-v0.2-trt","session":3},{"rune":"G","rune_set":"bacs2","hex":"#3366ff99","correct":32,"choice":32,"rt":626.7750000115484,"accuracy":1,"outcome":"+10","keys":[2127.8150000143796],"total_keys":1,"block":1,"trial":63,"stimulus":7,"robot":1,"valence":"win","action":"go","sham":0,"trial_type":"pit-trial","trial_index":94,"time_elapsed":434642,"internal_node_id":"0.0-68.0","task_version":"battery-v0.2-trt","session":3},{"rune":"O","rune_set":"bacs2","hex":"#3366ff99","correct":-1,"choice":-1,"rt":-1,"accuracy":1,"outcome":"+10","keys":[],"total_keys":0,"block":1,"trial":64,"stimulus":6,"robot":2,"valence":"win","action":"no-go","sham":0,"trial_type":"pit-trial","trial_index":95,"time_elapsed":438660,"internal_node_id":"0.0-69.0","task_version":"battery-v0.2-trt","session":3},{"rune":"O","rune_set":"bacs2","hex":"#3366ff99","correct":-1,"choice":-1,"rt":-1,"accuracy":1,"outcome":"+10","keys":[3369.580000056885],"total_keys":1,"block":1,"trial":65,"stimulus":6,"robot":2,"valence":"win","action":"no-go","sham":0,"trial_type":"pit-trial","trial_index":96,"time_elapsed":442678,"internal_node_id":"0.0-70.0","task_version":"battery-v0.2-trt","session":3},{"rune":"G","rune_set":"bacs2","hex":"#3366ff99","correct":32,"choice":-1,"rt":-1,"accuracy":0,"outcome":"+1","keys":[],"total_keys":0,"block":1,"trial":66,"stimulus":7,"robot":1,"valence":"win","action":"go","sham":0,"trial_type":"pit-trial","trial_index":97,"time_elapsed":446695,"internal_node_id":"0.0-71.0","task_version":"battery-v0.2-trt","session":3},{"rune":"E","rune_set":"bacs2","hex":"#f73b6a7A","correct":32,"choice":32,"rt":386.32499997038394,"accuracy":1,"outcome":"-10","keys":[1888.1400000536814],"total_keys":1,"block":1,"trial":67,"stimulus":4,"robot":3,"valence":"lose","action":"go","sham":1,"trial_type":"pit-trial","trial_index":98,"time_elapsed":449800,"internal_node_id":"0.0-72.0","task_version":"battery-v0.2-trt","session":3},{"rune":"C","rune_set":"bacs2","hex":"#f73b6a7A","correct":-1,"choice":32,"rt":659.0449999785051,"accuracy":0,"outcome":"-1","keys":[2160.6700000120327],"total_keys":1,"block":1,"trial":68,"stimulus":5,"robot":4,"valence":"lose","action":"no-go","sham":1,"trial_type":"pit-trial","trial_index":99,"time_elapsed":453178,"internal_node_id":"0.0-73.0","task_version":"battery-v0.2-trt","session":3},{"rune":"G","rune_set":"bacs2","hex":"#3366ff99","correct":32,"choice":-1,"rt":-1,"accuracy":0,"outcome":"+1","keys":[],"total_keys":0,"block":1,"trial":69,"stimulus":7,"robot":1,"valence":"win","action":"go","sham":0,"trial_type":"pit-trial","trial_index":100,"time_elapsed":457197,"internal_node_id":"0.0-74.0","task_version":"battery-v0.2-trt","session":3},{"rune":"C","rune_set":"bacs2","hex":"#f73b6a7A","correct":-1,"choice":-1,"rt":-1,"accuracy":1,"outcome":"-1","keys":[],"total_keys":0,"block":1,"trial":70,"stimulus":5,"robot":4,"valence":"lose","action":"no-go","sham":0,"trial_type":"pit-trial","trial_index":101,"time_elapsed":461214,"internal_node_id":"0.0-75.0","task_version":"battery-v0.2-trt","session":3},{"rune":"O","rune_set":"bacs2","hex":"#3366ff99","correct":-1,"choice":32,"rt":739.7199999541044,"accuracy":0,"outcome":"+1","keys":[2241.700000013225],"total_keys":1,"block":1,"trial":71,"stimulus":6,"robot":2,"valence":"win","action":"no-go","sham":0,"trial_type":"pit-trial","trial_index":102,"time_elapsed":464673,"internal_node_id":"0.0-76.0","task_version":"battery-v0.2-trt","session":3},{"rune":"E","rune_set":"bacs2","hex":"#f73b6a7A","correct":32,"choice":-1,"rt":-1,"accuracy":0,"outcome":"-10","keys":[],"total_keys":0,"block":1,"trial":72,"stimulus":4,"robot":3,"valence":"lose","action":"go","sham":0,"trial_type":"pit-trial","trial_index":103,"time_elapsed":468690,"internal_node_id":"0.0-77.0","task_version":"battery-v0.2-trt","session":3},{"rune":"Z","rune_set":"bacs2","hex":"#3366ff99","correct":32,"choice":32,"rt":773.9750000182539,"accuracy":1,"outcome":"+10","keys":[2275.0600000144914],"total_keys":1,"block":1,"trial":73,"stimulus":8,"robot":1,"valence":"win","action":"go","sham":0,"trial_type":"pit-trial","trial_index":104,"time_elapsed":472181,"internal_node_id":"0.0-78.0","task_version":"battery-v0.2-trt","session":3},{"rune":"O","rune_set":"bacs2","hex":"#3366ff99","correct":-1,"choice":32,"rt":269.80000000912696,"accuracy":0,"outcome":"+1","keys":[1771.2049999972805],"total_keys":1,"block":1,"trial":74,"stimulus":6,"robot":2,"valence":"win","action":"no-go","sham":0,"trial_type":"pit-trial","trial_index":105,"time_elapsed":475171,"internal_node_id":"0.0-79.0","task_version":"battery-v0.2-trt","session":3},{"rune":"E","rune_set":"bacs2","hex":"#f73b6a7A","correct":32,"choice":-1,"rt":-1,"accuracy":0,"outcome":"-10","keys":[],"total_keys":0,"block":1,"trial":75,"stimulus":4,"robot":3,"valence":"lose","action":"go","sham":0,"trial_type":"pit-trial","trial_index":106,"time_elapsed":479197,"internal_node_id":"0.0-80.0","task_version":"battery-v0.2-trt","session":3},{"rune":"G","rune_set":"bacs2","hex":"#3366ff99","correct":32,"choice":-1,"rt":-1,"accuracy":0,"outcome":"+10","keys":[],"total_keys":0,"block":1,"trial":76,"stimulus":7,"robot":1,"valence":"win","action":"go","sham":1,"trial_type":"pit-trial","trial_index":107,"time_elapsed":483215,"internal_node_id":"0.0-81.0","task_version":"battery-v0.2-trt","session":3},{"rune":"G","rune_set":"bacs2","hex":"#3366ff99","correct":32,"choice":32,"rt":685.9300000360236,"accuracy":1,"outcome":"+10","keys":[2186.9699999224395],"total_keys":1,"block":1,"trial":77,"stimulus":7,"robot":1,"valence":"win","action":"go","sham":0,"trial_type":"pit-trial","trial_index":108,"time_elapsed":486619,"internal_node_id":"0.0-82.0","task_version":"battery-v0.2-trt","session":3},{"rune":"O","rune_set":"bacs2","hex":"#3366ff99","correct":-1,"choice":32,"rt":221.63499996531755,"accuracy":0,"outcome":"+1","keys":[1721.904999925755],"total_keys":1,"block":1,"trial":78,"stimulus":6,"robot":2,"valence":"win","action":"no-go","sham":0,"trial_type":"pit-trial","trial_index":109,"time_elapsed":489558,"internal_node_id":"0.0-83.0","task_version":"battery-v0.2-trt","session":3},{"rune":"Z","rune_set":"bacs2","hex":"#3366ff99","correct":32,"choice":32,"rt":1039.740000036545,"accuracy":1,"outcome":"+1","keys":[2540.5350000364706],"total_keys":1,"block":1,"trial":79,"stimulus":8,"robot":1,"valence":"win","action":"go","sham":1,"trial_type":"pit-trial","trial_index":110,"time_elapsed":493317,"internal_node_id":"0.0-84.0","task_version":"battery-v0.2-trt","session":3},{"rune":"E","rune_set":"bacs2","hex":"#f73b6a7A","correct":32,"choice":32,"rt":1142.145000048913,"accuracy":1,"outcome":"-1","keys":[2642.189999925904],"total_keys":1,"block":1,"trial":80,"stimulus":4,"robot":3,"valence":"lose","action":"go","sham":0,"trial_type":"pit-trial","trial_index":111,"time_elapsed":497176,"internal_node_id":"0.0-85.0","task_version":"battery-v0.2-trt","session":3},{"rune":"Z","rune_set":"bacs2","hex":"#3366ff99","correct":32,"choice":32,"rt":333.57000001706183,"accuracy":1,"outcome":"+10","keys":[1835.300000035204],"total_keys":1,"block":1,"trial":81,"stimulus":8,"robot":1,"valence":"win","action":"go","sham":0,"trial_type":"pit-trial","trial_index":112,"time_elapsed":500231,"internal_node_id":"0.0-86.0","task_version":"battery-v0.2-trt","session":3},{"rune":"O","rune_set":"bacs2","hex":"#3366ff99","correct":-1,"choice":32,"rt":1053.940000012517,"accuracy":0,"outcome":"+1","keys":[2554.284999961965],"total_keys":1,"block":1,"trial":82,"stimulus":6,"robot":2,"valence":"win","action":"no-go","sham":0,"trial_type":"pit-trial","trial_index":113,"time_elapsed":504004,"internal_node_id":"0.0-87.0","task_version":"battery-v0.2-trt","session":3},{"rune":"X","rune_set":"bacs2","hex":"#3366ff99","correct":-1,"choice":32,"rt":443.9499999862164,"accuracy":0,"outcome":"+10","keys":[1944.8100000154227],"total_keys":1,"block":1,"trial":83,"stimulus":9,"robot":2,"valence":"win","action":"no-go","sham":1,"trial_type":"pit-trial","trial_index":114,"time_elapsed":507167,"internal_node_id":"0.0-88.0","task_version":"battery-v0.2-trt","session":3},{"rune":"G","rune_set":"bacs2","hex":"#3366ff99","correct":32,"choice":32,"rt":565.5649999389425,"accuracy":1,"outcome":"+1","keys":[2066.9599999673665],"total_keys":1,"block":1,"trial":84,"stimulus":7,"robot":1,"valence":"win","action":"go","sham":1,"trial_type":"pit-trial","trial_index":115,"time_elapsed":510451,"internal_node_id":"0.0-89.0","task_version":"battery-v0.2-trt","session":3},{"rune":"O","rune_set":"bacs2","hex":"#3366ff99","correct":-1,"choice":32,"rt":524.7150000650436,"accuracy":0,"outcome":"+1","keys":[2026.1399999726564],"total_keys":1,"block":1,"trial":85,"stimulus":6,"robot":2,"valence":"win","action":"no-go","sham":0,"trial_type":"pit-trial","trial_index":116,"time_elapsed":513695,"internal_node_id":"0.0-90.0","task_version":"battery-v0.2-trt","session":3},{"rune":"Z","rune_set":"bacs2","hex":"#3366ff99","correct":32,"choice":32,"rt":438.7049999786541,"accuracy":1,"outcome":"+10","keys":[1939.3649999983609],"total_keys":1,"block":1,"trial":86,"stimulus":8,"robot":1,"valence":"win","action":"go","sham":0,"trial_type":"pit-trial","trial_index":117,"time_elapsed":516851,"internal_node_id":"0.0-91.0","task_version":"battery-v0.2-trt","session":3},{"rune":"G","rune_set":"bacs2","hex":"#3366ff99","correct":32,"choice":32,"rt":243.49500006064773,"accuracy":1,"outcome":"+10","keys":[1743.6199999647215],"total_keys":1,"block":1,"trial":87,"stimulus":7,"robot":1,"valence":"win","action":"go","sham":0,"trial_type":"pit-trial","trial_index":118,"time_elapsed":519813,"internal_node_id":"0.0-92.0","task_version":"battery-v0.2-trt","session":3},{"rune":"X","rune_set":"bacs2","hex":"#3366ff99","correct":-1,"choice":32,"rt":310.3899999987334,"accuracy":0,"outcome":"+1","keys":[1811.184999998659],"total_keys":1,"block":1,"trial":88,"stimulus":9,"robot":2,"valence":"win","action":"no-go","sham":0,"trial_type":"pit-trial","trial_index":119,"time_elapsed":522840,"internal_node_id":"0.0-93.0","task_version":"battery-v0.2-trt","session":3},{"rune":"J","rune_set":"bacs2","hex":"#f73b6a7A","correct":-1,"choice":32,"rt":174.82499999459833,"accuracy":0,"outcome":"-1","keys":[1675.8149999659508],"total_keys":1,"block":1,"trial":89,"stimulus":11,"robot":4,"valence":"lose","action":"no-go","sham":1,"trial_type":"pit-trial","trial_index":120,"time_elapsed":525741,"internal_node_id":"0.0-94.0","task_version":"battery-v0.2-trt","session":3},{"rune":"X","rune_set":"bacs2","hex":"#3366ff99","correct":-1,"choice":32,"rt":280.9400000842288,"accuracy":0,"outcome":"+1","keys":[1781.829999992624],"total_keys":1,"block":1,"trial":90,"stimulus":9,"robot":2,"valence":"win","action":"no-go","sham":0,"trial_type":"pit-trial","trial_index":121,"time_elapsed":528750,"internal_node_id":"0.0-95.0","task_version":"battery-v0.2-trt","session":3},{"rune":"Z","rune_set":"bacs2","hex":"#3366ff99","correct":32,"choice":32,"rt":396.9550000037998,"accuracy":1,"outcome":"+10","keys":[1897.9749999707565],"total_keys":1,"block":1,"trial":91,"stimulus":8,"robot":1,"valence":"win","action":"go","sham":0,"trial_type":"pit-trial","trial_index":122,"time_elapsed":531864,"internal_node_id":"0.0-96.0","task_version":"battery-v0.2-trt","session":3},{"rune":"W","rune_set":"bacs2","hex":"#f73b6a7A","correct":32,"choice":32,"rt":649.7950000921264,"accuracy":1,"outcome":"-10","keys":[2151.135000050999],"total_keys":1,"block":1,"trial":92,"stimulus":10,"robot":3,"valence":"lose","action":"go","sham":1,"trial_type":"pit-trial","trial_index":123,"time_elapsed":535226,"internal_node_id":"0.0-97.0","task_version":"battery-v0.2-trt","session":3},{"rune":"X","rune_set":"bacs2","hex":"#3366ff99","correct":-1,"choice":32,"rt":262.3749999329448,"accuracy":0,"outcome":"+10","keys":[1762.6999999629334],"total_keys":1,"block":1,"trial":93,"stimulus":9,"robot":2,"valence":"win","action":"no-go","sham":1,"trial_type":"pit-trial","trial_index":124,"time_elapsed":538205,"internal_node_id":"0.0-98.0","task_version":"battery-v0.2-trt","session":3},{"rune":"W","rune_set":"bacs2","hex":"#f73b6a7A","correct":32,"choice":32,"rt":508.1200000131503,"accuracy":1,"outcome":"-1","keys":[2009.5749999163672],"total_keys":1,"block":1,"trial":94,"stimulus":10,"robot":3,"valence":"lose","action":"go","sham":0,"trial_type":"pit-trial","trial_index":125,"time_elapsed":541432,"internal_node_id":"0.0-99.0","task_version":"battery-v0.2-trt","session":3},{"rune":"J","rune_set":"bacs2","hex":"#f73b6a7A","correct":-1,"choice":32,"rt":271.3549999753013,"accuracy":0,"outcome":"-1","keys":[1772.4750000052154],"total_keys":1,"block":1,"trial":95,"stimulus":11,"robot":4,"valence":"lose","action":"no-go","sham":1,"trial_type":"pit-trial","trial_index":126,"time_elapsed":544419,"internal_node_id":"0.0-100.0","task_version":"battery-v0.2-trt","session":3},{"rune":"Z","rune_set":"bacs2","hex":"#3366ff99","correct":32,"choice":32,"rt":252.11499992292374,"accuracy":1,"outcome":"+1","keys":[1752.9799999902025],"total_keys":1,"block":1,"trial":96,"stimulus":8,"robot":1,"valence":"win","action":"go","sham":1,"trial_type":"pit-trial","trial_index":127,"time_elapsed":547388,"internal_node_id":"0.0-101.0","task_version":"battery-v0.2-trt","session":3},{"rune":"X","rune_set":"bacs2","hex":"#3366ff99","correct":-1,"choice":-1,"rt":-1,"accuracy":1,"outcome":"+10","keys":[],"total_keys":0,"block":1,"trial":97,"stimulus":9,"robot":2,"valence":"win","action":"no-go","sham":0,"trial_type":"pit-trial","trial_index":128,"time_elapsed":551405,"internal_node_id":"0.0-102.0","task_version":"battery-v0.2-trt","session":3},{"rune":"W","rune_set":"bacs2","hex":"#f73b6a7A","correct":32,"choice":-1,"rt":-1,"accuracy":0,"outcome":"-10","keys":[],"total_keys":0,"block":1,"trial":98,"stimulus":10,"robot":3,"valence":"lose","action":"go","sham":0,"trial_type":"pit-trial","trial_index":129,"time_elapsed":555424,"internal_node_id":"0.0-103.0","task_version":"battery-v0.2-trt","session":3},{"rune":"Z","rune_set":"bacs2","hex":"#3366ff99","correct":32,"choice":32,"rt":664.2449999926612,"accuracy":1,"outcome":"+1","keys":[2164.2500000307336],"total_keys":1,"block":1,"trial":99,"stimulus":8,"robot":1,"valence":"win","action":"go","sham":1,"trial_type":"pit-trial","trial_index":130,"time_elapsed":558806,"internal_node_id":"0.0-104.0","task_version":"battery-v0.2-trt","session":3},{"rune":"J","rune_set":"bacs2","hex":"#f73b6a7A","correct":-1,"choice":32,"rt":685.1550000719726,"accuracy":0,"outcome":"-10","keys":[2185.840000049211],"total_keys":1,"block":1,"trial":100,"stimulus":11,"robot":4,"valence":"lose","action":"no-go","sham":0,"trial_type":"pit-trial","trial_index":131,"time_elapsed":562210,"internal_node_id":"0.0-105.0","task_version":"battery-v0.2-trt","session":3},{"rune":"W","rune_set":"bacs2","hex":"#f73b6a7A","correct":32,"choice":-1,"rt":-1,"accuracy":0,"outcome":"-1","keys":[],"total_keys":0,"block":1,"trial":101,"stimulus":10,"robot":3,"valence":"lose","action":"go","sham":1,"trial_type":"pit-trial","trial_index":132,"time_elapsed":566228,"internal_node_id":"0.0-106.0","task_version":"battery-v0.2-trt","session":3},{"rune":"X","rune_set":"bacs2","hex":"#3366ff99","correct":-1,"choice":32,"rt":355.7400000281632,"accuracy":0,"outcome":"+1","keys":[1857.590000028722],"total_keys":1,"block":1,"trial":102,"stimulus":9,"robot":2,"valence":"win","action":"no-go","sham":0,"trial_type":"pit-trial","trial_index":133,"time_elapsed":569301,"internal_node_id":"0.0-107.0","task_version":"battery-v0.2-trt","session":3},{"rune":"J","rune_set":"bacs2","hex":"#f73b6a7A","correct":-1,"choice":32,"rt":401.5099999960512,"accuracy":0,"outcome":"-10","keys":[1902.1200001006946],"total_keys":1,"block":1,"trial":103,"stimulus":11,"robot":4,"valence":"lose","action":"no-go","sham":0,"trial_type":"pit-trial","trial_index":134,"time_elapsed":572421,"internal_node_id":"0.0-108.0","task_version":"battery-v0.2-trt","session":3},{"rune":"Z","rune_set":"bacs2","hex":"#3366ff99","correct":32,"choice":32,"rt":1224.7150000184774,"accuracy":1,"outcome":"+1","keys":[2726.0300000198185],"total_keys":1,"block":1,"trial":104,"stimulus":8,"robot":1,"valence":"win","action":"go","sham":1,"trial_type":"pit-trial","trial_index":135,"time_elapsed":576364,"internal_node_id":"0.0-109.0","task_version":"battery-v0.2-trt","session":3},{"rune":"X","rune_set":"bacs2","hex":"#3366ff99","correct":-1,"choice":-1,"rt":-1,"accuracy":1,"outcome":"+10","keys":[3649.6599999954924],"total_keys":1,"block":1,"trial":105,"stimulus":9,"robot":2,"valence":"win","action":"no-go","sham":0,"trial_type":"pit-trial","trial_index":136,"time_elapsed":580381,"internal_node_id":"0.0-110.0","task_version":"battery-v0.2-trt","session":3},{"rune":"Z","rune_set":"bacs2","hex":"#3366ff99","correct":32,"choice":-1,"rt":-1,"accuracy":0,"outcome":"+1","keys":[],"total_keys":0,"block":1,"trial":106,"stimulus":8,"robot":1,"valence":"win","action":"go","sham":0,"trial_type":"pit-trial","trial_index":137,"time_elapsed":584399,"internal_node_id":"0.0-111.0","task_version":"battery-v0.2-trt","session":3},{"rune":"J","rune_set":"bacs2","hex":"#f73b6a7A","correct":-1,"choice":32,"rt":257.8100000973791,"accuracy":0,"outcome":"-10","keys":[1758.665000088513],"total_keys":1,"block":1,"trial":107,"stimulus":11,"robot":4,"valence":"lose","action":"no-go","sham":0,"trial_type":"pit-trial","trial_index":138,"time_elapsed":587375,"internal_node_id":"0.0-112.0","task_version":"battery-v0.2-trt","session":3},{"rune":"W","rune_set":"bacs2","hex":"#f73b6a7A","correct":32,"choice":32,"rt":456.1650000978261,"accuracy":1,"outcome":"-1","keys":[1957.3199999285862],"total_keys":1,"block":1,"trial":108,"stimulus":10,"robot":3,"valence":"lose","action":"go","sham":0,"trial_type":"pit-trial","trial_index":139,"time_elapsed":590549,"internal_node_id":"0.0-113.0","task_version":"battery-v0.2-trt","session":3},{"rune":"J","rune_set":"bacs2","hex":"#f73b6a7A","correct":-1,"choice":32,"rt":25.714999996125698,"accuracy":0,"outcome":"-10","keys":[1527.62999990955],"total_keys":1,"block":1,"trial":109,"stimulus":11,"robot":4,"valence":"lose","action":"no-go","sham":0,"trial_type":"pit-trial","trial_index":140,"time_elapsed":593295,"internal_node_id":"0.0-114.0","task_version":"battery-v0.2-trt","session":3},{"rune":"W","rune_set":"bacs2","hex":"#f73b6a7A","correct":32,"choice":-1,"rt":-1,"accuracy":0,"outcome":"-10","keys":[],"total_keys":0,"block":1,"trial":110,"stimulus":10,"robot":3,"valence":"lose","action":"go","sham":0,"trial_type":"pit-trial","trial_index":141,"time_elapsed":597311,"internal_node_id":"0.0-115.0","task_version":"battery-v0.2-trt","session":3},{"rune":"X","rune_set":"bacs2","hex":"#3366ff99","correct":-1,"choice":32,"rt":408.10500003863126,"accuracy":0,"outcome":"+1","keys":[1908.104999922216],"total_keys":1,"block":1,"trial":111,"stimulus":9,"robot":2,"valence":"win","action":"no-go","sham":0,"trial_type":"pit-trial","trial_index":142,"time_elapsed":600442,"internal_node_id":"0.0-116.0","task_version":"battery-v0.2-trt","session":3},{"rune":"Z","rune_set":"bacs2","hex":"#3366ff99","correct":32,"choice":32,"rt":341.6800000704825,"accuracy":1,"outcome":"+10","keys":[1842.9049999685958],"total_keys":1,"block":1,"trial":112,"stimulus":8,"robot":1,"valence":"win","action":"go","sham":0,"trial_type":"pit-trial","trial_index":143,"time_elapsed":603500,"internal_node_id":"0.0-117.0","task_version":"battery-v0.2-trt","session":3},{"rune":"Z","rune_set":"bacs2","hex":"#3366ff99","correct":32,"choice":32,"rt":255.9799998998642,"accuracy":1,"outcome":"+10","keys":[1756.059999926947],"total_keys":1,"block":1,"trial":113,"stimulus":8,"robot":1,"valence":"win","action":"go","sham":0,"trial_type":"pit-trial","trial_index":144,"time_elapsed":606469,"internal_node_id":"0.0-118.0","task_version":"battery-v0.2-trt","session":3},{"rune":"X","rune_set":"bacs2","hex":"#3366ff99","correct":-1,"choice":32,"rt":696.5749999508262,"accuracy":0,"outcome":"+1","keys":[2198.035000008531],"total_keys":1,"block":1,"trial":114,"stimulus":9,"robot":2,"valence":"win","action":"no-go","sham":0,"trial_type":"pit-trial","trial_index":145,"time_elapsed":609884,"internal_node_id":"0.0-119.0","task_version":"battery-v0.2-trt","session":3},{"rune":"J","rune_set":"bacs2","hex":"#f73b6a7A","correct":-1,"choice":32,"rt":320.6149999750778,"accuracy":0,"outcome":"-10","keys":[1821.6350000584498],"total_keys":1,"block":1,"trial":115,"stimulus":11,"robot":4,"valence":"lose","action":"no-go","sham":0,"trial_type":"pit-trial","trial_index":146,"time_elapsed":612925,"internal_node_id":"0.0-120.0","task_version":"battery-v0.2-trt","session":3},{"rune":"W","rune_set":"bacs2","hex":"#f73b6a7A","correct":32,"choice":32,"rt":177.60499997530133,"accuracy":1,"outcome":"-1","keys":[1679.1049999883398],"total_keys":1,"block":1,"trial":116,"stimulus":10,"robot":3,"valence":"lose","action":"go","sham":0,"trial_type":"pit-trial","trial_index":147,"time_elapsed":615825,"internal_node_id":"0.0-121.0","task_version":"battery-v0.2-trt","session":3},{"rune":"J","rune_set":"bacs2","hex":"#f73b6a7A","correct":-1,"choice":-1,"rt":-1,"accuracy":1,"outcome":"-10","keys":[],"total_keys":0,"block":1,"trial":117,"stimulus":11,"robot":4,"valence":"lose","action":"no-go","sham":1,"trial_type":"pit-trial","trial_index":148,"time_elapsed":619844,"internal_node_id":"0.0-122.0","task_version":"battery-v0.2-trt","session":3},{"rune":"W","rune_set":"bacs2","hex":"#f73b6a7A","correct":32,"choice":32,"rt":360.2299999911338,"accuracy":1,"outcome":"-1","keys":[1861.7599999997765],"total_keys":1,"block":1,"trial":118,"stimulus":10,"robot":3,"valence":"lose","action":"go","sham":0,"trial_type":"pit-trial","trial_index":149,"time_elapsed":622925,"internal_node_id":"0.0-123.0","task_version":"battery-v0.2-trt","session":3},{"rune":"Z","rune_set":"bacs2","hex":"#3366ff99","correct":32,"choice":32,"rt":140.99500002339482,"accuracy":1,"outcome":"+10","keys":[1641.5900000138208],"total_keys":1,"block":1,"trial":119,"stimulus":8,"robot":1,"valence":"win","action":"go","sham":0,"trial_type":"pit-trial","trial_index":150,"time_elapsed":625782,"internal_node_id":"0.0-124.0","task_version":"battery-v0.2-trt","session":3},{"rune":"X","rune_set":"bacs2","hex":"#3366ff99","correct":-1,"choice":-1,"rt":-1,"accuracy":1,"outcome":"+10","keys":[],"total_keys":0,"block":1,"trial":120,"stimulus":9,"robot":2,"valence":"win","action":"no-go","sham":0,"trial_type":"pit-trial","trial_index":151,"time_elapsed":629800,"internal_node_id":"0.0-125.0","task_version":"battery-v0.2-trt","session":3},{"view_history":"[{\"page_index\":0,\"viewing_time\":96495.79499999527},{\"page_index\":1,\"viewing_time\":68312.89499998093}]","rt":164809.21500001568,"trial_type":"pit-instructions","trial_index":152,"time_elapsed":794634,"internal_node_id":"0.0-126.0","task_version":"battery-v0.2-trt","session":3},{"rune":"F","rune_set":"bacs2","hex":"#3366ff99","correct":-1,"choice":32,"rt":344.18999997433275,"accuracy":0,"outcome":"+1","keys":[1844.7799999266863],"total_keys":1,"block":2,"trial":121,"stimulus":1,"robot":2,"valence":"win","action":"no-go","sham":0,"trial_type":"pit-trial","trial_index":153,"time_elapsed":797694,"internal_node_id":"0.0-127.0","task_version":"battery-v0.2-trt","session":3},{"rune":"A","rune_set":"bacs2","hex":"#3366ff99","correct":32,"choice":32,"rt":285.74000007938594,"accuracy":1,"outcome":"+10","keys":[1786.2549999263138],"total_keys":1,"block":2,"trial":122,"stimulus":2,"robot":1,"valence":"win","action":"go","sham":0,"trial_type":"pit-trial","trial_index":154,"time_elapsed":800699,"internal_node_id":"0.0-128.0","task_version":"battery-v0.2-trt","session":3},{"rune":"U","rune_set":"bacs2","hex":"#f73b6a7A","correct":32,"choice":-1,"rt":-1,"accuracy":0,"outcome":"-10","keys":[1334.9650000454858],"total_keys":1,"block":2,"trial":123,"stimulus":3,"robot":3,"valence":"lose","action":"go","sham":0,"trial_type":"pit-trial","trial_index":155,"time_elapsed":804716,"internal_node_id":"0.0-129.0","task_version":"battery-v0.2-trt","session":3},{"rune":"N","rune_set":"bacs2","hex":"#3366ff99","correct":-1,"choice":32,"rt":657.6500000664964,"accuracy":0,"outcome":"+1","keys":[2157.8049999661744],"total_keys":1,"block":2,"trial":124,"stimulus":0,"robot":2,"valence":"win","action":"no-go","sham":0,"trial_type":"pit-trial","trial_index":156,"time_elapsed":808091,"internal_node_id":"0.0-130.0","task_version":"battery-v0.2-trt","session":3},{"rune":"N","rune_set":"bacs2","hex":"#3366ff99","correct":-1,"choice":32,"rt":270.84500005003065,"accuracy":0,"outcome":"+10","keys":[1772.7350000059232],"total_keys":1,"block":2,"trial":125,"stimulus":0,"robot":2,"valence":"win","action":"no-go","sham":1,"trial_type":"pit-trial","trial_index":157,"time_elapsed":811081,"internal_node_id":"0.0-131.0","task_version":"battery-v0.2-trt","session":3},{"rune":"F","rune_set":"bacs2","hex":"#3366ff99","correct":-1,"choice":32,"rt":354.4499999843538,"accuracy":0,"outcome":"+10","keys":[1854.5600000070408],"total_keys":1,"block":2,"trial":126,"stimulus":1,"robot":2,"valence":"win","action":"no-go","sham":1,"trial_type":"pit-trial","trial_index":158,"time_elapsed":814157,"internal_node_id":"0.0-132.0","task_version":"battery-v0.2-trt","session":3},{"rune":"U","rune_set":"bacs2","hex":"#f73b6a7A","correct":32,"choice":32,"rt":307.81499994918704,"accuracy":1,"outcome":"-10","keys":[1808.9850000105798],"total_keys":1,"block":2,"trial":127,"stimulus":3,"robot":3,"valence":"lose","action":"go","sham":1,"trial_type":"pit-trial","trial_index":159,"time_elapsed":817182,"internal_node_id":"0.0-133.0","task_version":"battery-v0.2-trt","session":3},{"rune":"A","rune_set":"bacs2","hex":"#3366ff99","correct":32,"choice":32,"rt":359.51499990187585,"accuracy":1,"outcome":"+1","keys":[1860.8049999456853],"total_keys":1,"block":2,"trial":128,"stimulus":2,"robot":1,"valence":"win","action":"go","sham":1,"trial_type":"pit-trial","trial_index":160,"time_elapsed":820259,"internal_node_id":"0.0-134.0","task_version":"battery-v0.2-trt","session":3},{"rune":"A","rune_set":"bacs2","hex":"#3366ff99","correct":32,"choice":32,"rt":399.72499990835786,"accuracy":1,"outcome":"+1","keys":[1900.0300000188872],"total_keys":1,"block":2,"trial":129,"stimulus":2,"robot":1,"valence":"win","action":"go","sham":1,"trial_type":"pit-trial","trial_index":161,"time_elapsed":823371,"internal_node_id":"0.0-135.0","task_version":"battery-v0.2-trt","session":3},{"rune":"N","rune_set":"bacs2","hex":"#3366ff99","correct":-1,"choice":32,"rt":503.49499995354563,"accuracy":0,"outcome":"+1","keys":[2004.2899999534711],"total_keys":1,"block":2,"trial":130,"stimulus":0,"robot":2,"valence":"win","action":"no-go","sham":0,"trial_type":"pit-trial","trial_index":162,"time_elapsed":826594,"internal_node_id":"0.0-136.0","task_version":"battery-v0.2-trt","session":3},{"rune":"F","rune_set":"bacs2","hex":"#3366ff99","correct":-1,"choice":32,"rt":1276.6400000546128,"accuracy":0,"outcome":"+1","keys":[2778.3099999651313],"total_keys":1,"block":2,"trial":131,"stimulus":1,"robot":2,"valence":"win","action":"no-go","sham":0,"trial_type":"pit-trial","trial_index":163,"time_elapsed":830590,"internal_node_id":"0.0-137.0","task_version":"battery-v0.2-trt","session":3},{"rune":"U","rune_set":"bacs2","hex":"#f73b6a7A","correct":32,"choice":32,"rt":1103.2399999676272,"accuracy":1,"outcome":"-1","keys":[2605.0550000509247],"total_keys":1,"block":2,"trial":132,"stimulus":3,"robot":3,"valence":"lose","action":"go","sham":0,"trial_type":"pit-trial","trial_index":164,"time_elapsed":834412,"internal_node_id":"0.0-138.0","task_version":"battery-v0.2-trt","session":3},{"rune":"N","rune_set":"bacs2","hex":"#3366ff99","correct":-1,"choice":-1,"rt":-1,"accuracy":1,"outcome":"+10","keys":[1464.490000042133],"total_keys":1,"block":2,"trial":133,"stimulus":0,"robot":2,"valence":"win","action":"no-go","sham":0,"trial_type":"pit-trial","trial_index":165,"time_elapsed":838432,"internal_node_id":"0.0-139.0","task_version":"battery-v0.2-trt","session":3},{"rune":"F","rune_set":"bacs2","hex":"#3366ff99","correct":-1,"choice":32,"rt":329.97999992221594,"accuracy":0,"outcome":"+1","keys":[1325.8249999489635,1832.9199999570847],"total_keys":2,"block":2,"trial":134,"stimulus":1,"robot":2,"valence":"win","action":"no-go","sham":0,"trial_type":"pit-trial","trial_index":166,"time_elapsed":841483,"internal_node_id":"0.0-140.0","task_version":"battery-v0.2-trt","session":3},{"rune":"U","rune_set":"bacs2","hex":"#f73b6a7A","correct":32,"choice":32,"rt":246.12999998498708,"accuracy":1,"outcome":"-1","keys":[1746.2349999696016],"total_keys":1,"block":2,"trial":135,"stimulus":3,"robot":3,"valence":"lose","action":"go","sham":0,"trial_type":"pit-trial","trial_index":167,"time_elapsed":844448,"internal_node_id":"0.0-141.0","task_version":"battery-v0.2-trt","session":3},{"rune":"A","rune_set":"bacs2","hex":"#3366ff99","correct":32,"choice":32,"rt":667.4699999857694,"accuracy":1,"outcome":"+10","keys":[1374.9100000131875,2167.669999995269],"total_keys":2,"block":2,"trial":136,"stimulus":2,"robot":1,"valence":"win","action":"go","sham":0,"trial_type":"pit-trial","trial_index":168,"time_elapsed":847844,"internal_node_id":"0.0-142.0","task_version":"battery-v0.2-trt","session":3},{"rune":"N","rune_set":"bacs2","hex":"#3366ff99","correct":-1,"choice":32,"rt":986.1500000115484,"accuracy":0,"outcome":"+1","keys":[1418.8099999446422,2487.695000017993],"total_keys":2,"block":2,"trial":137,"stimulus":0,"robot":2,"valence":"win","action":"no-go","sham":0,"trial_type":"pit-trial","trial_index":169,"time_elapsed":851551,"internal_node_id":"0.0-143.0","task_version":"battery-v0.2-trt","session":3},{"rune":"U","rune_set":"bacs2","hex":"#f73b6a7A","correct":32,"choice":32,"rt":103.91499998513609,"accuracy":1,"outcome":"-1","keys":[1605.625000083819],"total_keys":1,"block":2,"trial":138,"stimulus":3,"robot":3,"valence":"lose","action":"go","sham":0,"trial_type":"pit-trial","trial_index":170,"time_elapsed":854375,"internal_node_id":"0.0-144.0","task_version":"battery-v0.2-trt","session":3},{"rune":"F","rune_set":"bacs2","hex":"#3366ff99","correct":-1,"choice":32,"rt":101.40000004321337,"accuracy":0,"outcome":"+1","keys":[1601.9699999596924],"total_keys":1,"block":2,"trial":139,"stimulus":1,"robot":2,"valence":"win","action":"no-go","sham":0,"trial_type":"pit-trial","trial_index":171,"time_elapsed":857193,"internal_node_id":"0.0-145.0","task_version":"battery-v0.2-trt","session":3},{"rune":"A","rune_set":"bacs2","hex":"#3366ff99","correct":32,"choice":32,"rt":749.6350000146776,"accuracy":1,"outcome":"+10","keys":[942.5899999914691,1476.4549999963492,2250.5700000328943],"total_keys":3,"block":2,"trial":140,"stimulus":2,"robot":1,"valence":"win","action":"go","sham":0,"trial_type":"pit-trial","trial_index":172,"time_elapsed":860666,"internal_node_id":"0.0-146.0","task_version":"battery-v0.2-trt","session":3},{"rune":"N","rune_set":"bacs2","hex":"#3366ff99","correct":-1,"choice":32,"rt":115.9650000045076,"accuracy":0,"outcome":"+1","keys":[1617.5299999304116],"total_keys":1,"block":2,"trial":141,"stimulus":0,"robot":2,"valence":"win","action":"no-go","sham":0,"trial_type":"pit-trial","trial_index":173,"time_elapsed":863495,"internal_node_id":"0.0-147.0","task_version":"battery-v0.2-trt","session":3},{"rune":"A","rune_set":"bacs2","hex":"#3366ff99","correct":32,"choice":32,"rt":342.0449999393895,"accuracy":1,"outcome":"+10","keys":[1842.3949999269098],"total_keys":1,"block":2,"trial":142,"stimulus":2,"robot":1,"valence":"win","action":"go","sham":0,"trial_type":"pit-trial","trial_index":174,"time_elapsed":866555,"internal_node_id":"0.0-148.0","task_version":"battery-v0.2-trt","session":3},{"rune":"F","rune_set":"bacs2","hex":"#3366ff99","correct":-1,"choice":32,"rt":189.5599999697879,"accuracy":0,"outcome":"+1","keys":[1690.9049999667332],"total_keys":1,"block":2,"trial":143,"stimulus":1,"robot":2,"valence":"win","action":"no-go","sham":0,"trial_type":"pit-trial","trial_index":175,"time_elapsed":869462,"internal_node_id":"0.0-149.0","task_version":"battery-v0.2-trt","session":3},{"rune":"U","rune_set":"bacs2","hex":"#f73b6a7A","correct":32,"choice":32,"rt":883.0599999055266,"accuracy":1,"outcome":"-1","keys":[1470.2850000467151,2384.4650000100955],"total_keys":2,"block":2,"trial":144,"stimulus":3,"robot":3,"valence":"lose","action":"go","sham":0,"trial_type":"pit-trial","trial_index":176,"time_elapsed":873064,"internal_node_id":"0.0-150.0","task_version":"battery-v0.2-trt","session":3},{"rune":"U","rune_set":"bacs2","hex":"#f73b6a7A","correct":32,"choice":32,"rt":130.9100000653416,"accuracy":1,"outcome":"-10","keys":[1172.744999988936,1631.9899999070913],"total_keys":2,"block":2,"trial":145,"stimulus":3,"robot":3,"valence":"lose","action":"go","sham":1,"trial_type":"pit-trial","trial_index":177,"time_elapsed":875918,"internal_node_id":"0.0-151.0","task_version":"battery-v0.2-trt","session":3},{"rune":"F","rune_set":"bacs2","hex":"#3366ff99","correct":-1,"choice":32,"rt":573.1750000268221,"accuracy":0,"outcome":"+1","keys":[608.100000070408,1369.6749999653548,2073.365000076592],"total_keys":3,"block":2,"trial":146,"stimulus":1,"robot":2,"valence":"win","action":"no-go","sham":0,"trial_type":"pit-trial","trial_index":178,"time_elapsed":879210,"internal_node_id":"0.0-152.0","task_version":"battery-v0.2-trt","session":3},{"rune":"N","rune_set":"bacs2","hex":"#3366ff99","correct":-1,"choice":32,"rt":1014.7700000088662,"accuracy":0,"outcome":"+1","keys":[1469.3099999567494,2515.364999999292],"total_keys":2,"block":2,"trial":147,"stimulus":0,"robot":2,"valence":"win","action":"no-go","sham":0,"trial_type":"pit-trial","trial_index":179,"time_elapsed":882943,"internal_node_id":"0.0-153.0","task_version":"battery-v0.2-trt","session":3},{"rune":"A","rune_set":"bacs2","hex":"#3366ff99","correct":32,"choice":32,"rt":1043.7650000676513,"accuracy":1,"outcome":"+10","keys":[1014.1249999869615,1412.8799999598414,2545.299999997951],"total_keys":3,"block":2,"trial":148,"stimulus":2,"robot":1,"valence":"win","action":"go","sham":0,"trial_type":"pit-trial","trial_index":180,"time_elapsed":886706,"internal_node_id":"0.0-154.0","task_version":"battery-v0.2-trt","session":3},{"rune":"N","rune_set":"bacs2","hex":"#3366ff99","correct":-1,"choice":-1,"rt":-1,"accuracy":1,"outcome":"+1","keys":[1372.6650000317022,2842.090000049211],"total_keys":2,"block":2,"trial":149,"stimulus":0,"robot":2,"valence":"win","action":"no-go","sham":1,"trial_type":"pit-trial","trial_index":181,"time_elapsed":890723,"internal_node_id":"0.0-155.0","task_version":"battery-v0.2-trt","session":3},{"rune":"U","rune_set":"bacs2","hex":"#f73b6a7A","correct":32,"choice":-1,"rt":-1,"accuracy":0,"outcome":"-1","keys":[1428.1699999701232,2952.780000050552],"total_keys":2,"block":2,"trial":150,"stimulus":3,"robot":3,"valence":"lose","action":"go","sham":1,"trial_type":"pit-trial","trial_index":182,"time_elapsed":894752,"internal_node_id":"0.0-156.0","task_version":"battery-v0.2-trt","session":3},{"rune":"A","rune_set":"bacs2","hex":"#3366ff99","correct":32,"choice":-1,"rt":-1,"accuracy":0,"outcome":"+1","keys":[1403.4049999900162,3129.579999949783],"total_keys":2,"block":2,"trial":151,"stimulus":2,"robot":1,"valence":"win","action":"go","sham":0,"trial_type":"pit-trial","trial_index":183,"time_elapsed":898771,"internal_node_id":"0.0-157.0","task_version":"battery-v0.2-trt","session":3},{"rune":"F","rune_set":"bacs2","hex":"#3366ff99","correct":-1,"choice":32,"rt":130.52000000607222,"accuracy":0,"outcome":"+1","keys":[1631.0500000836328],"total_keys":1,"block":2,"trial":152,"stimulus":1,"robot":2,"valence":"win","action":"no-go","sham":0,"trial_type":"pit-trial","trial_index":184,"time_elapsed":901619,"internal_node_id":"0.0-158.0","task_version":"battery-v0.2-trt","session":3},{"rune":"A","rune_set":"bacs2","hex":"#3366ff99","correct":32,"choice":32,"rt":96.89000004436821,"accuracy":1,"outcome":"+1","keys":[1597.5900000194088],"total_keys":1,"block":2,"trial":153,"stimulus":2,"robot":1,"valence":"win","action":"go","sham":1,"trial_type":"pit-trial","trial_index":185,"time_elapsed":904437,"internal_node_id":"0.0-159.0","task_version":"battery-v0.2-trt","session":3},{"rune":"L","rune_set":"bacs2","hex":"#f73b6a7A","correct":32,"choice":32,"rt":326.6699999803677,"accuracy":1,"outcome":"-10","keys":[1828.0100000556558],"total_keys":1,"block":2,"trial":154,"stimulus":5,"robot":3,"valence":"lose","action":"go","sham":1,"trial_type":"pit-trial","trial_index":186,"time_elapsed":907483,"internal_node_id":"0.0-160.0","task_version":"battery-v0.2-trt","session":3},{"rune":"N","rune_set":"bacs2","hex":"#3366ff99","correct":-1,"choice":32,"rt":200.74500003829598,"accuracy":0,"outcome":"+1","keys":[1701.0149999987334],"total_keys":1,"block":2,"trial":155,"stimulus":0,"robot":2,"valence":"win","action":"no-go","sham":0,"trial_type":"pit-trial","trial_index":187,"time_elapsed":910403,"internal_node_id":"0.0-161.0","task_version":"battery-v0.2-trt","session":3},{"rune":"S","rune_set":"bacs2","hex":"#f73b6a7A","correct":-1,"choice":32,"rt":838.4349999250844,"accuracy":0,"outcome":"-1","keys":[1495.6649999367073,2339.299999992363],"total_keys":2,"block":2,"trial":156,"stimulus":4,"robot":4,"valence":"lose","action":"no-go","sham":1,"trial_type":"pit-trial","trial_index":188,"time_elapsed":913973,"internal_node_id":"0.0-162.0","task_version":"battery-v0.2-trt","session":3},{"rune":"L","rune_set":"bacs2","hex":"#f73b6a7A","correct":32,"choice":32,"rt":277.3799999849871,"accuracy":1,"outcome":"-1","keys":[1778.1099999556318],"total_keys":1,"block":2,"trial":157,"stimulus":5,"robot":3,"valence":"lose","action":"go","sham":0,"trial_type":"pit-trial","trial_index":189,"time_elapsed":916981,"internal_node_id":"0.0-163.0","task_version":"battery-v0.2-trt","session":3},{"rune":"A","rune_set":"bacs2","hex":"#3366ff99","correct":32,"choice":32,"rt":257.62499996926636,"accuracy":1,"outcome":"+1","keys":[1758.1549999304116],"total_keys":1,"block":2,"trial":158,"stimulus":2,"robot":1,"valence":"win","action":"go","sham":1,"trial_type":"pit-trial","trial_index":190,"time_elapsed":919956,"internal_node_id":"0.0-164.0","task_version":"battery-v0.2-trt","session":3},{"rune":"S","rune_set":"bacs2","hex":"#f73b6a7A","correct":-1,"choice":32,"rt":935.109999962151,"accuracy":0,"outcome":"-1","keys":[2436.05999997817],"total_keys":1,"block":2,"trial":159,"stimulus":4,"robot":4,"valence":"lose","action":"no-go","sham":1,"trial_type":"pit-trial","trial_index":191,"time_elapsed":923613,"internal_node_id":"0.0-165.0","task_version":"battery-v0.2-trt","session":3},{"rune":"N","rune_set":"bacs2","hex":"#3366ff99","correct":-1,"choice":32,"rt":1047.9849999537691,"accuracy":0,"outcome":"+1","keys":[2549.570000031963],"total_keys":1,"block":2,"trial":160,"stimulus":0,"robot":2,"valence":"win","action":"no-go","sham":0,"trial_type":"pit-trial","trial_index":192,"time_elapsed":927379,"internal_node_id":"0.0-166.0","task_version":"battery-v0.2-trt","session":3},{"rune":"A","rune_set":"bacs2","hex":"#3366ff99","correct":32,"choice":32,"rt":715.6050000339746,"accuracy":1,"outcome":"+10","keys":[2216.234999941662],"total_keys":1,"block":2,"trial":161,"stimulus":2,"robot":1,"valence":"win","action":"go","sham":0,"trial_type":"pit-trial","trial_index":193,"time_elapsed":930813,"internal_node_id":"0.0-167.0","task_version":"battery-v0.2-trt","session":3},{"rune":"P","rune_set":"bacs2","hex":"#3366ff99","correct":-1,"choice":32,"rt":578.0249999370426,"accuracy":0,"outcome":"+1","keys":[2079.1400000452995],"total_keys":1,"block":2,"trial":162,"stimulus":6,"robot":2,"valence":"win","action":"no-go","sham":0,"trial_type":"pit-trial","trial_index":194,"time_elapsed":934109,"internal_node_id":"0.0-168.0","task_version":"battery-v0.2-trt","session":3},{"rune":"S","rune_set":"bacs2","hex":"#f73b6a7A","correct":-1,"choice":32,"rt":530.1899999612942,"accuracy":0,"outcome":"-1","keys":[2030.8949999744073],"total_keys":1,"block":2,"trial":163,"stimulus":4,"robot":4,"valence":"lose","action":"no-go","sham":1,"trial_type":"pit-trial","trial_index":195,"time_elapsed":937357,"internal_node_id":"0.0-169.0","task_version":"battery-v0.2-trt","session":3},{"rune":"L","rune_set":"bacs2","hex":"#f73b6a7A","correct":32,"choice":32,"rt":437.8500001039356,"accuracy":1,"outcome":"-1","keys":[1938.6549999471754],"total_keys":1,"block":2,"trial":164,"stimulus":5,"robot":3,"valence":"lose","action":"go","sham":0,"trial_type":"pit-trial","trial_index":196,"time_elapsed":940515,"internal_node_id":"0.0-170.0","task_version":"battery-v0.2-trt","session":3},{"rune":"A","rune_set":"bacs2","hex":"#3366ff99","correct":32,"choice":-1,"rt":-1,"accuracy":0,"outcome":"+1","keys":[1134.1950000496581],"total_keys":1,"block":2,"trial":165,"stimulus":2,"robot":1,"valence":"win","action":"go","sham":0,"trial_type":"pit-trial","trial_index":197,"time_elapsed":944533,"internal_node_id":"0.0-171.0","task_version":"battery-v0.2-trt","session":3},{"rune":"L","rune_set":"bacs2","hex":"#f73b6a7A","correct":32,"choice":-1,"rt":-1,"accuracy":0,"outcome":"-10","keys":[1359.0550000080839],"total_keys":1,"block":2,"trial":166,"stimulus":5,"robot":3,"valence":"lose","action":"go","sham":0,"trial_type":"pit-trial","trial_index":198,"time_elapsed":948549,"internal_node_id":"0.0-172.0","task_version":"battery-v0.2-trt","session":3},{"rune":"S","rune_set":"bacs2","hex":"#f73b6a7A","correct":-1,"choice":32,"rt":213.63500005099922,"accuracy":0,"outcome":"-10","keys":[1714.5849999506027],"total_keys":1,"block":2,"trial":167,"stimulus":4,"robot":4,"valence":"lose","action":"no-go","sham":0,"trial_type":"pit-trial","trial_index":199,"time_elapsed":951481,"internal_node_id":"0.0-173.0","task_version":"battery-v0.2-trt","session":3},{"rune":"P","rune_set":"bacs2","hex":"#3366ff99","correct":-1,"choice":32,"rt":769.6699999505654,"accuracy":0,"outcome":"+1","keys":[2269.704999984242],"total_keys":1,"block":2,"trial":168,"stimulus":6,"robot":2,"valence":"win","action":"no-go","sham":0,"trial_type":"pit-trial","trial_index":200,"time_elapsed":954967,"internal_node_id":"0.0-174.0","task_version":"battery-v0.2-trt","session":3},{"rune":"R","rune_set":"bacs2","hex":"#f73b6a7A","correct":-1,"choice":-1,"rt":-1,"accuracy":1,"outcome":"-1","keys":[2952.2649999707937],"total_keys":1,"block":2,"trial":169,"stimulus":7,"robot":4,"valence":"lose","action":"no-go","sham":0,"trial_type":"pit-trial","trial_index":201,"time_elapsed":958986,"internal_node_id":"0.0-175.0","task_version":"battery-v0.2-trt","session":3},{"rune":"L","rune_set":"bacs2","hex":"#f73b6a7A","correct":32,"choice":-1,"rt":-1,"accuracy":0,"outcome":"-10","keys":[],"total_keys":0,"block":2,"trial":170,"stimulus":5,"robot":3,"valence":"lose","action":"go","sham":0,"trial_type":"pit-trial","trial_index":202,"time_elapsed":963019,"internal_node_id":"0.0-176.0","task_version":"battery-v0.2-trt","session":3},{"rune":"S","rune_set":"bacs2","hex":"#f73b6a7A","correct":-1,"choice":32,"rt":495.1000000583008,"accuracy":0,"outcome":"-10","keys":[1995.7649999996647],"total_keys":1,"block":2,"trial":171,"stimulus":4,"robot":4,"valence":"lose","action":"no-go","sham":0,"trial_type":"pit-trial","trial_index":203,"time_elapsed":966234,"internal_node_id":"0.0-177.0","task_version":"battery-v0.2-trt","session":3},{"rune":"P","rune_set":"bacs2","hex":"#3366ff99","correct":-1,"choice":-1,"rt":-1,"accuracy":1,"outcome":"+10","keys":[3647.8600000264123],"total_keys":1,"block":2,"trial":172,"stimulus":6,"robot":2,"valence":"win","action":"no-go","sham":0,"trial_type":"pit-trial","trial_index":204,"time_elapsed":970251,"internal_node_id":"0.0-178.0","task_version":"battery-v0.2-trt","session":3},{"rune":"S","rune_set":"bacs2","hex":"#f73b6a7A","correct":-1,"choice":-1,"rt":-1,"accuracy":1,"outcome":"-10","keys":[],"total_keys":0,"block":2,"trial":173,"stimulus":4,"robot":4,"valence":"lose","action":"no-go","sham":1,"trial_type":"pit-trial","trial_index":205,"time_elapsed":974270,"internal_node_id":"0.0-179.0","task_version":"battery-v0.2-trt","session":3},{"rune":"P","rune_set":"bacs2","hex":"#3366ff99","correct":-1,"choice":32,"rt":122.23999993875623,"accuracy":0,"outcome":"+1","keys":[1623.6900000367314],"total_keys":1,"block":2,"trial":174,"stimulus":6,"robot":2,"valence":"win","action":"no-go","sham":0,"trial_type":"pit-trial","trial_index":206,"time_elapsed":977110,"internal_node_id":"0.0-180.0","task_version":"battery-v0.2-trt","session":3},{"rune":"R","rune_set":"bacs2","hex":"#f73b6a7A","correct":-1,"choice":-1,"rt":-1,"accuracy":1,"outcome":"-10","keys":[1481.2549999915063],"total_keys":1,"block":2,"trial":175,"stimulus":7,"robot":4,"valence":"lose","action":"no-go","sham":1,"trial_type":"pit-trial","trial_index":207,"time_elapsed":981127,"internal_node_id":"0.0-181.0","task_version":"battery-v0.2-trt","session":3},{"rune":"L","rune_set":"bacs2","hex":"#f73b6a7A","correct":32,"choice":32,"rt":595.644999993965,"accuracy":1,"outcome":"-10","keys":[677.4750000331551,2096.2600000202656],"total_keys":2,"block":2,"trial":176,"stimulus":5,"robot":3,"valence":"lose","action":"go","sham":1,"trial_type":"pit-trial","trial_index":208,"time_elapsed":984440,"internal_node_id":"0.0-182.0","task_version":"battery-v0.2-trt","session":3},{"rune":"L","rune_set":"bacs2","hex":"#f73b6a7A","correct":32,"choice":32,"rt":472.8800000157207,"accuracy":1,"outcome":"-1","keys":[1973.5799999907613],"total_keys":1,"block":2,"trial":177,"stimulus":5,"robot":3,"valence":"lose","action":"go","sham":0,"trial_type":"pit-trial","trial_index":209,"time_elapsed":987633,"internal_node_id":"0.0-183.0","task_version":"battery-v0.2-trt","session":3},{"rune":"R","rune_set":"bacs2","hex":"#f73b6a7A","correct":-1,"choice":32,"rt":580.0949999829754,"accuracy":0,"outcome":"-10","keys":[2081.48000005167],"total_keys":1,"block":2,"trial":178,"stimulus":7,"robot":4,"valence":"lose","action":"no-go","sham":0,"trial_type":"pit-trial","trial_index":210,"time_elapsed":990931,"internal_node_id":"0.0-184.0","task_version":"battery-v0.2-trt","session":3},{"rune":"S","rune_set":"bacs2","hex":"#f73b6a7A","correct":-1,"choice":32,"rt":447.3549999529496,"accuracy":0,"outcome":"-10","keys":[1947.8599999565631],"total_keys":1,"block":2,"trial":179,"stimulus":4,"robot":4,"valence":"lose","action":"no-go","sham":0,"trial_type":"pit-trial","trial_index":211,"time_elapsed":994118,"internal_node_id":"0.0-185.0","task_version":"battery-v0.2-trt","session":3},{"rune":"P","rune_set":"bacs2","hex":"#3366ff99","correct":-1,"choice":32,"rt":367.17500002123415,"accuracy":0,"outcome":"+1","keys":[1868.3599999640137],"total_keys":1,"block":2,"trial":180,"stimulus":6,"robot":2,"valence":"win","action":"no-go","sham":0,"trial_type":"pit-trial","trial_index":212,"time_elapsed":997200,"internal_node_id":"0.0-186.0","task_version":"battery-v0.2-trt","session":3},{"rune":"L","rune_set":"bacs2","hex":"#f73b6a7A","correct":32,"choice":-1,"rt":-1,"accuracy":0,"outcome":"-10","keys":[],"total_keys":0,"block":2,"trial":181,"stimulus":5,"robot":3,"valence":"lose","action":"go","sham":0,"trial_type":"pit-trial","trial_index":213,"time_elapsed":1001217,"internal_node_id":"0.0-187.0","task_version":"battery-v0.2-trt","session":3},{"rune":"R","rune_set":"bacs2","hex":"#f73b6a7A","correct":-1,"choice":32,"rt":884.2550000408664,"accuracy":0,"outcome":"-10","keys":[2385.8750000363216],"total_keys":1,"block":2,"trial":182,"stimulus":7,"robot":4,"valence":"lose","action":"no-go","sham":0,"trial_type":"pit-trial","trial_index":214,"time_elapsed":1004820,"internal_node_id":"0.0-188.0","task_version":"battery-v0.2-trt","session":3},{"rune":"S","rune_set":"bacs2","hex":"#f73b6a7A","correct":-1,"choice":-1,"rt":-1,"accuracy":1,"outcome":"-10","keys":[],"total_keys":0,"block":2,"trial":183,"stimulus":4,"robot":4,"valence":"lose","action":"no-go","sham":1,"trial_type":"pit-trial","trial_index":215,"time_elapsed":1008836,"internal_node_id":"0.0-189.0","task_version":"battery-v0.2-trt","session":3},{"rune":"P","rune_set":"bacs2","hex":"#3366ff99","correct":-1,"choice":32,"rt":372.63500003609806,"accuracy":0,"outcome":"+1","keys":[1872.495000017807],"total_keys":1,"block":2,"trial":184,"stimulus":6,"robot":2,"valence":"win","action":"no-go","sham":0,"trial_type":"pit-trial","trial_index":216,"time_elapsed":1011926,"internal_node_id":"0.0-190.0","task_version":"battery-v0.2-trt","session":3},{"rune":"S","rune_set":"bacs2","hex":"#f73b6a7A","correct":-1,"choice":-1,"rt":-1,"accuracy":1,"outcome":"-1","keys":[],"total_keys":0,"block":2,"trial":185,"stimulus":4,"robot":4,"valence":"lose","action":"no-go","sham":0,"trial_type":"pit-trial","trial_index":217,"time_elapsed":1015945,"internal_node_id":"0.0-191.0","task_version":"battery-v0.2-trt","session":3},{"rune":"R","rune_set":"bacs2","hex":"#f73b6a7A","correct":-1,"choice":32,"rt":473.12500001862645,"accuracy":0,"outcome":"-10","keys":[1974.5750000001863],"total_keys":1,"block":2,"trial":186,"stimulus":7,"robot":4,"valence":"lose","action":"no-go","sham":0,"trial_type":"pit-trial","trial_index":218,"time_elapsed":1019138,"internal_node_id":"0.0-192.0","task_version":"battery-v0.2-trt","session":3},{"rune":"P","rune_set":"bacs2","hex":"#3366ff99","correct":-1,"choice":-1,"rt":-1,"accuracy":1,"outcome":"+10","keys":[2845.519999973476],"total_keys":1,"block":2,"trial":187,"stimulus":6,"robot":2,"valence":"win","action":"no-go","sham":0,"trial_type":"pit-trial","trial_index":219,"time_elapsed":1023156,"internal_node_id":"0.0-193.0","task_version":"battery-v0.2-trt","session":3},{"rune":"L","rune_set":"bacs2","hex":"#f73b6a7A","correct":32,"choice":32,"rt":776.6899999696761,"accuracy":1,"outcome":"-1","keys":[2277.5750000728294],"total_keys":1,"block":2,"trial":188,"stimulus":5,"robot":3,"valence":"lose","action":"go","sham":0,"trial_type":"pit-trial","trial_index":220,"time_elapsed":1026659,"internal_node_id":"0.0-194.0","task_version":"battery-v0.2-trt","session":3},{"rune":"R","rune_set":"bacs2","hex":"#f73b6a7A","correct":-1,"choice":32,"rt":421.474999981001,"accuracy":0,"outcome":"-10","keys":[1921.6500000329688],"total_keys":1,"block":2,"trial":189,"stimulus":7,"robot":4,"valence":"lose","action":"no-go","sham":0,"trial_type":"pit-trial","trial_index":221,"time_elapsed":1029798,"internal_node_id":"0.0-195.0","task_version":"battery-v0.2-trt","session":3},{"rune":"S","rune_set":"bacs2","hex":"#f73b6a7A","correct":-1,"choice":32,"rt":430.350000038743,"accuracy":0,"outcome":"-10","keys":[1931.6899999976158],"total_keys":1,"block":2,"trial":190,"stimulus":4,"robot":4,"valence":"lose","action":"no-go","sham":0,"trial_type":"pit-trial","trial_index":222,"time_elapsed":1032945,"internal_node_id":"0.0-196.0","task_version":"battery-v0.2-trt","session":3},{"rune":"P","rune_set":"bacs2","hex":"#3366ff99","correct":-1,"choice":32,"rt":337.9399999976158,"accuracy":0,"outcome":"+1","keys":[1838.6000000173226],"total_keys":1,"block":2,"trial":191,"stimulus":6,"robot":2,"valence":"win","action":"no-go","sham":0,"trial_type":"pit-trial","trial_index":223,"time_elapsed":1036001,"internal_node_id":"0.0-197.0","task_version":"battery-v0.2-trt","session":3},{"rune":"L","rune_set":"bacs2","hex":"#f73b6a7A","correct":32,"choice":32,"rt":883.5950000211596,"accuracy":1,"outcome":"-1","keys":[2384.8699999507517],"total_keys":1,"block":2,"trial":192,"stimulus":5,"robot":3,"valence":"lose","action":"go","sham":0,"trial_type":"pit-trial","trial_index":224,"time_elapsed":1039613,"internal_node_id":"0.0-198.0","task_version":"battery-v0.2-trt","session":3},{"rune":"L","rune_set":"bacs2","hex":"#f73b6a7A","correct":32,"choice":-1,"rt":-1,"accuracy":0,"outcome":"-10","keys":[],"total_keys":0,"block":2,"trial":193,"stimulus":5,"robot":3,"valence":"lose","action":"go","sham":0,"trial_type":"pit-trial","trial_index":225,"time_elapsed":1043630,"internal_node_id":"0.0-199.0","task_version":"battery-v0.2-trt","session":3},{"rune":"V","rune_set":"bacs2","hex":"#f73b6a7A","correct":-1,"choice":32,"rt":535.5299999937415,"accuracy":0,"outcome":"-1","keys":[2035.5699999490753],"total_keys":1,"block":2,"trial":194,"stimulus":8,"robot":4,"valence":"lose","action":"no-go","sham":1,"trial_type":"pit-trial","trial_index":226,"time_elapsed":1046884,"internal_node_id":"0.0-200.0","task_version":"battery-v0.2-trt","session":3},{"rune":"P","rune_set":"bacs2","hex":"#3366ff99","correct":-1,"choice":32,"rt":798.1099999742582,"accuracy":0,"outcome":"+1","keys":[2299.0099999587983],"total_keys":1,"block":2,"trial":195,"stimulus":6,"robot":2,"valence":"win","action":"no-go","sham":0,"trial_type":"pit-trial","trial_index":227,"time_elapsed":1050399,"internal_node_id":"0.0-201.0","task_version":"battery-v0.2-trt","session":3},{"rune":"R","rune_set":"bacs2","hex":"#f73b6a7A","correct":-1,"choice":32,"rt":421.75500001758337,"accuracy":0,"outcome":"-10","keys":[1922.1949999919161],"total_keys":1,"block":2,"trial":196,"stimulus":7,"robot":4,"valence":"lose","action":"no-go","sham":0,"trial_type":"pit-trial","trial_index":228,"time_elapsed":1053541,"internal_node_id":"0.0-202.0","task_version":"battery-v0.2-trt","session":3},{"rune":"L","rune_set":"bacs2","hex":"#f73b6a7A","correct":32,"choice":-1,"rt":-1,"accuracy":0,"outcome":"-10","keys":[],"total_keys":0,"block":2,"trial":197,"stimulus":5,"robot":3,"valence":"lose","action":"go","sham":0,"trial_type":"pit-trial","trial_index":229,"time_elapsed":1057563,"internal_node_id":"0.0-203.0","task_version":"battery-v0.2-trt","session":3},{"rune":"R","rune_set":"bacs2","hex":"#f73b6a7A","correct":-1,"choice":32,"rt":127.81500001437962,"accuracy":0,"outcome":"-1","keys":[1629.3150000274181],"total_keys":1,"block":2,"trial":198,"stimulus":7,"robot":4,"valence":"lose","action":"no-go","sham":1,"trial_type":"pit-trial","trial_index":230,"time_elapsed":1060408,"internal_node_id":"0.0-204.0","task_version":"battery-v0.2-trt","session":3},{"rune":"V","rune_set":"bacs2","hex":"#f73b6a7A","correct":-1,"choice":32,"rt":367.8650000365451,"accuracy":0,"outcome":"-10","keys":[1868.9000000013039],"total_keys":1,"block":2,"trial":199,"stimulus":8,"robot":4,"valence":"lose","action":"no-go","sham":0,"trial_type":"pit-trial","trial_index":231,"time_elapsed":1063494,"internal_node_id":"0.0-205.0","task_version":"battery-v0.2-trt","session":3},{"rune":"P","rune_set":"bacs2","hex":"#3366ff99","correct":-1,"choice":-1,"rt":-1,"accuracy":1,"outcome":"+1","keys":[],"total_keys":0,"block":2,"trial":200,"stimulus":6,"robot":2,"valence":"win","action":"no-go","sham":1,"trial_type":"pit-trial","trial_index":232,"time_elapsed":1067513,"internal_node_id":"0.0-206.0","task_version":"battery-v0.2-trt","session":3},{"rune":"B","rune_set":"bacs2","hex":"#f73b6a7A","correct":32,"choice":-1,"rt":-1,"accuracy":0,"outcome":"-1","keys":[],"total_keys":0,"block":2,"trial":201,"stimulus":10,"robot":3,"valence":"lose","action":"go","sham":1,"trial_type":"pit-trial","trial_index":233,"time_elapsed":1071534,"internal_node_id":"0.0-207.0","task_version":"battery-v0.2-trt","session":3},{"rune":"V","rune_set":"bacs2","hex":"#f73b6a7A","correct":-1,"choice":-1,"rt":-1,"accuracy":1,"outcome":"-1","keys":[],"total_keys":0,"block":2,"trial":202,"stimulus":8,"robot":4,"valence":"lose","action":"no-go","sham":0,"trial_type":"pit-trial","trial_index":234,"time_elapsed":1075553,"internal_node_id":"0.0-208.0","task_version":"battery-v0.2-trt","session":3},{"rune":"P","rune_set":"bacs2","hex":"#3366ff99","correct":-1,"choice":32,"rt":613.660000031814,"accuracy":0,"outcome":"+1","keys":[2114.1250000800937],"total_keys":1,"block":2,"trial":203,"stimulus":6,"robot":2,"valence":"win","action":"no-go","sham":0,"trial_type":"pit-trial","trial_index":235,"time_elapsed":1078886,"internal_node_id":"0.0-209.0","task_version":"battery-v0.2-trt","session":3},{"rune":"K","rune_set":"bacs2","hex":"#3366ff99","correct":32,"choice":32,"rt":490.8950000535697,"accuracy":1,"outcome":"+10","keys":[1991.355000063777],"total_keys":1,"block":2,"trial":204,"stimulus":9,"robot":1,"valence":"win","action":"go","sham":0,"trial_type":"pit-trial","trial_index":236,"time_elapsed":1082094,"internal_node_id":"0.0-210.0","task_version":"battery-v0.2-trt","session":3},{"rune":"B","rune_set":"bacs2","hex":"#f73b6a7A","correct":32,"choice":32,"rt":859.8549999296665,"accuracy":1,"outcome":"-1","keys":[2361.395000014454],"total_keys":1,"block":2,"trial":205,"stimulus":10,"robot":3,"valence":"lose","action":"go","sham":0,"trial_type":"pit-trial","trial_index":237,"time_elapsed":1085677,"internal_node_id":"0.0-211.0","task_version":"battery-v0.2-trt","session":3},{"rune":"V","rune_set":"bacs2","hex":"#f73b6a7A","correct":-1,"choice":32,"rt":332.2100000223145,"accuracy":0,"outcome":"-10","keys":[1832.9550001071766],"total_keys":1,"block":2,"trial":206,"stimulus":8,"robot":4,"valence":"lose","action":"no-go","sham":0,"trial_type":"pit-trial","trial_index":238,"time_elapsed":1088727,"internal_node_id":"0.0-212.0","task_version":"battery-v0.2-trt","session":3},{"rune":"P","rune_set":"bacs2","hex":"#3366ff99","correct":-1,"choice":32,"rt":415.3500000247732,"accuracy":0,"outcome":"+1","keys":[1915.3850000584498],"total_keys":1,"block":2,"trial":207,"stimulus":6,"robot":2,"valence":"win","action":"no-go","sham":0,"trial_type":"pit-trial","trial_index":239,"time_elapsed":1091860,"internal_node_id":"0.0-213.0","task_version":"battery-v0.2-trt","session":3},{"rune":"K","rune_set":"bacs2","hex":"#3366ff99","correct":32,"choice":32,"rt":715.4299999820068,"accuracy":1,"outcome":"+1","keys":[2216.5850000455976],"total_keys":1,"block":2,"trial":208,"stimulus":9,"robot":1,"valence":"win","action":"go","sham":1,"trial_type":"pit-trial","trial_index":240,"time_elapsed":1095298,"internal_node_id":"0.0-214.0","task_version":"battery-v0.2-trt","session":3},{"rune":"V","rune_set":"bacs2","hex":"#f73b6a7A","correct":-1,"choice":-1,"rt":-1,"accuracy":1,"outcome":"-1","keys":[],"total_keys":0,"block":2,"trial":209,"stimulus":8,"robot":4,"valence":"lose","action":"no-go","sham":0,"trial_type":"pit-trial","trial_index":241,"time_elapsed":1099314,"internal_node_id":"0.0-215.0","task_version":"battery-v0.2-trt","session":3},{"rune":"M","rune_set":"bacs2","hex":"#3366ff99","correct":32,"choice":32,"rt":251.6499999910593,"accuracy":1,"outcome":"+10","keys":[558.4100000560284,1751.6499999910593],"total_keys":2,"block":2,"trial":210,"stimulus":11,"robot":1,"valence":"win","action":"go","sham":0,"trial_type":"pit-trial","trial_index":242,"time_elapsed":1102282,"internal_node_id":"0.0-216.0","task_version":"battery-v0.2-trt","session":3},{"rune":"B","rune_set":"bacs2","hex":"#f73b6a7A","correct":32,"choice":32,"rt":758.6100000189617,"accuracy":1,"outcome":"-1","keys":[2260.5149999726564],"total_keys":1,"block":2,"trial":211,"stimulus":10,"robot":3,"valence":"lose","action":"go","sham":0,"trial_type":"pit-trial","trial_index":243,"time_elapsed":1105760,"internal_node_id":"0.0-217.0","task_version":"battery-v0.2-trt","session":3},{"rune":"K","rune_set":"bacs2","hex":"#3366ff99","correct":32,"choice":32,"rt":450.5049999570474,"accuracy":1,"outcome":"+10","keys":[1950.9249998955056],"total_keys":1,"block":2,"trial":212,"stimulus":9,"robot":1,"valence":"win","action":"go","sham":0,"trial_type":"pit-trial","trial_index":244,"time_elapsed":1108928,"internal_node_id":"0.0-218.0","task_version":"battery-v0.2-trt","session":3},{"rune":"B","rune_set":"bacs2","hex":"#f73b6a7A","correct":32,"choice":-1,"rt":-1,"accuracy":0,"outcome":"-10","keys":[],"total_keys":0,"block":2,"trial":213,"stimulus":10,"robot":3,"valence":"lose","action":"go","sham":0,"trial_type":"pit-trial","trial_index":245,"time_elapsed":1112945,"internal_node_id":"0.0-219.0","task_version":"battery-v0.2-trt","session":3},{"rune":"V","rune_set":"bacs2","hex":"#f73b6a7A","correct":-1,"choice":32,"rt":416.5749999228865,"accuracy":0,"outcome":"-10","keys":[1918.2349999900907],"total_keys":1,"block":2,"trial":214,"stimulus":8,"robot":4,"valence":"lose","action":"no-go","sham":0,"trial_type":"pit-trial","trial_index":246,"time_elapsed":1116081,"internal_node_id":"0.0-220.0","task_version":"battery-v0.2-trt","session":3},{"rune":"K","rune_set":"bacs2","hex":"#3366ff99","correct":32,"choice":32,"rt":648.4650000929832,"accuracy":1,"outcome":"+10","keys":[1302.3699999321252,2149.589999928139],"total_keys":2,"block":2,"trial":215,"stimulus":9,"robot":1,"valence":"win","action":"go","sham":0,"trial_type":"pit-trial","trial_index":247,"time_elapsed":1119451,"internal_node_id":"0.0-221.0","task_version":"battery-v0.2-trt","session":3},{"rune":"M","rune_set":"bacs2","hex":"#3366ff99","correct":32,"choice":32,"rt":422.0349999377504,"accuracy":1,"outcome":"+10","keys":[1922.96500003431],"total_keys":1,"block":2,"trial":216,"stimulus":11,"robot":1,"valence":"win","action":"go","sham":0,"trial_type":"pit-trial","trial_index":248,"time_elapsed":1122602,"internal_node_id":"0.0-222.0","task_version":"battery-v0.2-trt","session":3},{"rune":"B","rune_set":"bacs2","hex":"#f73b6a7A","correct":32,"choice":32,"rt":467.6250000484288,"accuracy":1,"outcome":"-1","keys":[1969.1749999765307],"total_keys":1,"block":2,"trial":217,"stimulus":10,"robot":3,"valence":"lose","action":"go","sham":0,"trial_type":"pit-trial","trial_index":249,"time_elapsed":1125799,"internal_node_id":"0.0-223.0","task_version":"battery-v0.2-trt","session":3},{"rune":"V","rune_set":"bacs2","hex":"#f73b6a7A","correct":-1,"choice":32,"rt":247.8499999269843,"accuracy":0,"outcome":"-10","keys":[1748.9250000799075],"total_keys":1,"block":2,"trial":218,"stimulus":8,"robot":4,"valence":"lose","action":"no-go","sham":0,"trial_type":"pit-trial","trial_index":250,"time_elapsed":1128766,"internal_node_id":"0.0-224.0","task_version":"battery-v0.2-trt","session":3},{"rune":"K","rune_set":"bacs2","hex":"#3366ff99","correct":32,"choice":32,"rt":830.3300000261515,"accuracy":1,"outcome":"+10","keys":[2331.694999942556],"total_keys":1,"block":2,"trial":219,"stimulus":9,"robot":1,"valence":"win","action":"go","sham":0,"trial_type":"pit-trial","trial_index":251,"time_elapsed":1132315,"internal_node_id":"0.0-225.0","task_version":"battery-v0.2-trt","session":3},{"rune":"M","rune_set":"bacs2","hex":"#3366ff99","correct":32,"choice":32,"rt":989.9699999950826,"accuracy":1,"outcome":"+10","keys":[2491.470000008121],"total_keys":1,"block":2,"trial":220,"stimulus":11,"robot":1,"valence":"win","action":"go","sham":0,"trial_type":"pit-trial","trial_index":252,"time_elapsed":1136022,"internal_node_id":"0.0-226.0","task_version":"battery-v0.2-trt","session":3},{"rune":"K","rune_set":"bacs2","hex":"#3366ff99","correct":32,"choice":32,"rt":729.1599999880418,"accuracy":1,"outcome":"+10","keys":[2229.4049999909475],"total_keys":1,"block":2,"trial":221,"stimulus":9,"robot":1,"valence":"win","action":"go","sham":0,"trial_type":"pit-trial","trial_index":253,"time_elapsed":1139469,"internal_node_id":"0.0-227.0","task_version":"battery-v0.2-trt","session":3},{"rune":"B","rune_set":"bacs2","hex":"#f73b6a7A","correct":32,"choice":32,"rt":849.9900000169873,"accuracy":1,"outcome":"-1","keys":[2351.439999998547],"total_keys":1,"block":2,"trial":222,"stimulus":10,"robot":3,"valence":"lose","action":"go","sham":0,"trial_type":"pit-trial","trial_index":254,"time_elapsed":1143037,"internal_node_id":"0.0-228.0","task_version":"battery-v0.2-trt","session":3},{"rune":"M","rune_set":"bacs2","hex":"#3366ff99","correct":32,"choice":32,"rt":831.1550000216812,"accuracy":1,"outcome":"+10","keys":[1465.1199999498203,2331.4900000113994],"total_keys":2,"block":2,"trial":223,"stimulus":11,"robot":1,"valence":"win","action":"go","sham":0,"trial_type":"pit-trial","trial_index":255,"time_elapsed":1146584,"internal_node_id":"0.0-229.0","task_version":"battery-v0.2-trt","session":3},{"rune":"V","rune_set":"bacs2","hex":"#f73b6a7A","correct":-1,"choice":32,"rt":206.45499997772276,"accuracy":0,"outcome":"-10","keys":[1708.559999940917],"total_keys":1,"block":2,"trial":224,"stimulus":8,"robot":4,"valence":"lose","action":"no-go","sham":0,"trial_type":"pit-trial","trial_index":256,"time_elapsed":1149509,"internal_node_id":"0.0-230.0","task_version":"battery-v0.2-trt","session":3},{"rune":"B","rune_set":"bacs2","hex":"#f73b6a7A","correct":32,"choice":32,"rt":247.39499995484948,"accuracy":1,"outcome":"-10","keys":[1749.210000038147],"total_keys":1,"block":2,"trial":225,"stimulus":10,"robot":3,"valence":"lose","action":"go","sham":1,"trial_type":"pit-trial","trial_index":257,"time_elapsed":1152477,"internal_node_id":"0.0-231.0","task_version":"battery-v0.2-trt","session":3},{"rune":"K","rune_set":"bacs2","hex":"#3366ff99","correct":32,"choice":32,"rt":580.5600000312552,"accuracy":1,"outcome":"+1","keys":[2081.4900000113994],"total_keys":1,"block":2,"trial":226,"stimulus":9,"robot":1,"valence":"win","action":"go","sham":1,"trial_type":"pit-trial","trial_index":258,"time_elapsed":1155775,"internal_node_id":"0.0-232.0","task_version":"battery-v0.2-trt","session":3},{"rune":"V","rune_set":"bacs2","hex":"#f73b6a7A","correct":-1,"choice":32,"rt":179.02999999932945,"accuracy":0,"outcome":"-10","keys":[1680.034999968484],"total_keys":1,"block":2,"trial":227,"stimulus":8,"robot":4,"valence":"lose","action":"no-go","sham":0,"trial_type":"pit-trial","trial_index":259,"time_elapsed":1158672,"internal_node_id":"0.0-233.0","task_version":"battery-v0.2-trt","session":3},{"rune":"M","rune_set":"bacs2","hex":"#3366ff99","correct":32,"choice":32,"rt":856.1200000112876,"accuracy":1,"outcome":"+1","keys":[2356.290000025183],"total_keys":1,"block":2,"trial":228,"