[{"view_history":"[{\"page_index\":0,\"viewing_time\":5592}]","rt":5592,"trial_type":"instructions","trial_index":0,"time_elapsed":5596,"internal_node_id":"0.0-0.0","task_version":"battery-v0.2-trt","session":3},{"slider_type":"valence","raw_loc":651,"loc":0.802,"trial_type":"affective-slider","trial_index":1,"time_elapsed":17228,"internal_node_id":"0.0-1.0","task_version":"battery-v0.2-trt","session":3},{"responses":{"Q06":"0","Q07":"0","Q08":"3","Q01":"0","Q03":"0","Q05":"0","Q02":"0","Q04":"0"},"rt":30355,"item_order":[5,6,7,0,2,4,1,3],"radio_events":[9193,10953,14732,18113,20932,23052,25093,26433],"key_events":[],"mouse_events":[9193,10953,14732,18113,19792,20932,23052,25093,26433,30354],"straightlining":0.875,"zigzagging":0.2857142857142857,"survey":"dass_d","trial_type":"survey-template","trial_index":2,"time_elapsed":47590,"internal_node_id":"0.0-2.0","task_version":"battery-v0.2-trt","session":3,"infrequency":0},{"responses":{"Q07":"0","Q06":"0","Q05":"0","Q01":"0","Q08":"0","Q03":"0","Q04":"0","Q02":"0"},"rt":26864,"item_order":[6,5,4,0,7,2,3,1],"radio_events":[6582,8052,9452,10831,13422,17096,18791,20322],"key_events":[],"mouse_events":[6582,8052,9452,10831,13422,17096,18791,20322,26863],"straightlining":1,"zigzagging":0,"survey":"gad7","trial_type":"survey-template","trial_index":3,"time_elapsed":74459,"internal_node_id":"0.0-3.0","task_version":"battery-v0.2-trt","session":3,"infrequency":0},{"view_history":"[{\"page_index\":0,\"viewing_time\":23920},{\"page_index\":1,\"viewing_time\":12851},{\"page_index\":2,\"viewing_time\":5580},{\"page_index\":3,\"viewing_time\":15109},{\"page_index\":4,\"viewing_time\":7301},{\"page_index\":5,\"viewing_time\":5120},{\"page_index\":6,\"viewing_time\":5759},{\"page_index\":7,\"viewing_time\":7971},{\"page_index\":8,\"viewing_time\":9139},{\"page_index\":9,\"viewing_time\":3250}]","rt":96001,"trial_type":"pit-instructions","trial_index":4,"time_elapsed":170464,"internal_node_id":"0.0-4.0-0.0","task_version":"battery-v0.2-trt","session":3},{"rune":"1","rune_set":"elianto","hex":"#3366ff99","correct":32,"choice":32,"rt":439,"accuracy":1,"outcome":"+10","keys":[1953],"total_keys":1,"block":0,"practice":1,"trial_type":"pit-trial","trial_index":5,"time_elapsed":173624,"internal_node_id":"0.0-4.0-1.0-0.0","task_version":"battery-v0.2-trt","session":3},{"rune":"1","rune_set":"elianto","hex":"#3366ff99","correct":32,"choice":32,"rt":364,"accuracy":1,"outcome":"+10","keys":[1881],"total_keys":1,"block":0,"practice":1,"trial_type":"pit-trial","trial_index":6,"time_elapsed":176723,"internal_node_id":"0.0-4.0-1.1-0.1","task_version":"battery-v0.2-trt","session":3},{"rune":"1","rune_set":"elianto","hex":"#3366ff99","correct":32,"choice":32,"rt":342,"accuracy":1,"outcome":"+10","keys":[1860],"total_keys":1,"block":0,"practice":1,"trial_type":"pit-trial","trial_index":7,"time_elapsed":179786,"internal_node_id":"0.0-4.0-1.2-0.2","task_version":"battery-v0.2-trt","session":3},{"rune":"1","rune_set":"elianto","hex":"#3366ff99","correct":32,"choice":32,"rt":466,"accuracy":1,"outcome":"+10","keys":[1973],"total_keys":1,"block":0,"practice":1,"trial_type":"pit-trial","trial_index":8,"time_elapsed":182983,"internal_node_id":"0.0-4.0-1.3-0.3","task_version":"battery-v0.2-trt","session":3},{"trial_type":"call-function","trial_index":9,"time_elapsed":182985,"internal_node_id":"0.0-4.0-2.0","task_version":"battery-v0.2-trt","session":3},{"view_history":"[{\"page_index\":0,\"viewing_time\":3398},{\"page_index\":1,\"viewing_time\":2191}]","rt":5589,"trial_type":"pit-instructions","trial_index":10,"time_elapsed":188576,"internal_node_id":"0.0-4.0-3.0","task_version":"battery-v0.2-trt","session":3},{"rune":"2","rune_set":"elianto","hex":"#3366ff99","correct":-1,"choice":-1,"rt":-1,"accuracy":1,"outcome":"+10","keys":[],"total_keys":0,"block":0,"practice":2,"trial_type":"pit-trial","trial_index":11,"time_elapsed":192603,"internal_node_id":"0.0-4.0-4.0-0.0","task_version":"battery-v0.2-trt","session":3},{"rune":"2","rune_set":"elianto","hex":"#3366ff99","correct":-1,"choice":-1,"rt":-1,"accuracy":1,"outcome":"+10","keys":[],"total_keys":0,"block":0,"practice":2,"trial_type":"pit-trial","trial_index":12,"time_elapsed":196643,"internal_node_id":"0.0-4.0-4.1-0.1","task_version":"battery-v0.2-trt","session":3},{"rune":"2","rune_set":"elianto","hex":"#3366ff99","correct":-1,"choice":-1,"rt":-1,"accuracy":1,"outcome":"+10","keys":[],"total_keys":0,"block":0,"practice":2,"trial_type":"pit-trial","trial_index":13,"time_elapsed":200673,"internal_node_id":"0.0-4.0-4.2-0.2","task_version":"battery-v0.2-trt","session":3},{"rune":"2","rune_set":"elianto","hex":"#3366ff99","correct":-1,"choice":-1,"rt":-1,"accuracy":1,"outcome":"+10","keys":[],"total_keys":0,"block":0,"practice":2,"trial_type":"pit-trial","trial_index":14,"time_elapsed":204703,"internal_node_id":"0.0-4.0-4.3-0.3","task_version":"battery-v0.2-trt","session":3},{"trial_type":"call-function","trial_index":15,"time_elapsed":204704,"internal_node_id":"0.0-4.0-5.0","task_version":"battery-v0.2-trt","session":3},{"view_history":"[{\"page_index\":0,\"viewing_time\":8989},{\"page_index\":1,\"viewing_time\":4921}]","rt":13911,"trial_type":"pit-instructions","trial_index":16,"time_elapsed":218614,"internal_node_id":"0.0-4.0-6.0","task_version":"battery-v0.2-trt","session":3},{"rune":"3","rune_set":"elianto","hex":"#f73b6a7A","correct":-1,"choice":32,"rt":420,"accuracy":0,"outcome":"-10","keys":[1920],"total_keys":1,"block":0,"practice":3,"trial_type":"pit-trial","trial_index":17,"time_elapsed":221754,"internal_node_id":"0.0-4.0-7.0-0.0","task_version":"battery-v0.2-trt","session":3},{"rune":"3","rune_set":"elianto","hex":"#f73b6a7A","correct":-1,"choice":-1,"rt":-1,"accuracy":1,"outcome":"-1","keys":[],"total_keys":0,"block":0,"practice":3,"trial_type":"pit-trial","trial_index":18,"time_elapsed":225783,"internal_node_id":"0.0-4.0-7.1-0.1","task_version":"battery-v0.2-trt","session":3},{"rune":"3","rune_set":"elianto","hex":"#f73b6a7A","correct":-1,"choice":-1,"rt":-1,"accuracy":1,"outcome":"-1","keys":[],"total_keys":0,"block":0,"practice":3,"trial_type":"pit-trial","trial_index":19,"time_elapsed":229813,"internal_node_id":"0.0-4.0-7.2-0.2","task_version":"battery-v0.2-trt","session":3},{"rune":"3","rune_set":"elianto","hex":"#f73b6a7A","correct":-1,"choice":-1,"rt":-1,"accuracy":1,"outcome":"-1","keys":[],"total_keys":0,"block":0,"practice":3,"trial_type":"pit-trial","trial_index":20,"time_elapsed":233843,"internal_node_id":"0.0-4.0-7.3-0.3","task_version":"battery-v0.2-trt","session":3},{"trial_type":"call-function","trial_index":21,"time_elapsed":233844,"internal_node_id":"0.0-4.0-8.0","task_version":"battery-v0.2-trt","session":3},{"view_history":"[{\"page_index\":0,\"viewing_time\":5720},{\"page_index\":1,\"viewing_time\":2489}]","rt":8209,"trial_type":"pit-instructions","trial_index":22,"time_elapsed":242054,"internal_node_id":"0.0-4.0-9.0","task_version":"battery-v0.2-trt","session":3},{"rune":"4","rune_set":"elianto","hex":"#f73b6a7A","correct":32,"choice":32,"rt":544,"accuracy":1,"outcome":"-1","keys":[2059],"total_keys":1,"block":0,"practice":4,"trial_type":"pit-trial","trial_index":23,"time_elapsed":245333,"internal_node_id":"0.0-4.0-10.0-0.0","task_version":"battery-v0.2-trt","session":3},{"rune":"4","rune_set":"elianto","hex":"#f73b6a7A","correct":32,"choice":32,"rt":345,"accuracy":1,"outcome":"-1","keys":[1860],"total_keys":1,"block":0,"practice":4,"trial_type":"pit-trial","trial_index":24,"time_elapsed":248414,"internal_node_id":"0.0-4.0-10.1-0.1","task_version":"battery-v0.2-trt","session":3},{"rune":"4","rune_set":"elianto","hex":"#f73b6a7A","correct":32,"choice":32,"rt":129,"accuracy":1,"outcome":"-1","keys":[1630],"total_keys":1,"block":0,"practice":4,"trial_type":"pit-trial","trial_index":25,"time_elapsed":251253,"internal_node_id":"0.0-4.0-10.2-0.2","task_version":"battery-v0.2-trt","session":3},{"rune":"4","rune_set":"elianto","hex":"#f73b6a7A","correct":32,"choice":32,"rt":234,"accuracy":1,"outcome":"-1","keys":[1750],"total_keys":1,"block":0,"practice":4,"trial_type":"pit-trial","trial_index":26,"time_elapsed":254213,"internal_node_id":"0.0-4.0-10.3-0.3","task_version":"battery-v0.2-trt","session":3},{"trial_type":"call-function","trial_index":27,"time_elapsed":254214,"internal_node_id":"0.0-4.0-11.0","task_version":"battery-v0.2-trt","session":3},{"view_history":"[{\"page_index\":0,\"viewing_time\":2628},{\"page_index\":1,\"viewing_time\":7481},{\"page_index\":2,\"viewing_time\":8940},{\"page_index\":3,\"viewing_time\":7721},{\"page_index\":4,\"viewing_time\":3680},{\"page_index\":5,\"viewing_time\":2370}]","rt":32820,"trial_type":"pit-instructions","trial_index":28,"time_elapsed":287035,"internal_node_id":"0.0-4.0-12.0","task_version":"battery-v0.2-trt","session":3},{"responses":["Press SPACE","+10","-1","True","True"],"num_errors":0,"rt":31406,"trial_type":"pit-comprehension","trial_index":29,"time_elapsed":318448,"internal_node_id":"0.0-4.0-13.0","task_version":"battery-v0.2-trt","session":3},{"view_history":"[{\"page_index\":0,\"viewing_time\":2633},{\"page_index\":1,\"viewing_time\":5230}]","rt":7864,"trial_type":"pit-instructions","trial_index":30,"time_elapsed":326315,"internal_node_id":"0.0-5.0","task_version":"battery-v0.2-trt","session":3},{"rune":"B","rune_set":"bacs1","hex":"#3366ff99","correct":-1,"choice":32,"rt":694,"accuracy":0,"outcome":"+1","keys":[2206],"total_keys":1,"block":1,"trial":1,"stimulus":0,"robot":2,"valence":"win","action":"no-go","sham":0,"trial_type":"pit-trial","trial_index":31,"time_elapsed":329733,"internal_node_id":"0.0-6.0","task_version":"battery-v0.2-trt","session":3},{"rune":"J","rune_set":"bacs1","hex":"#f73b6a7A","correct":-1,"choice":32,"rt":739,"accuracy":0,"outcome":"-10","keys":[2246],"total_keys":1,"block":1,"trial":2,"stimulus":2,"robot":4,"valence":"lose","action":"no-go","sham":0,"trial_type":"pit-trial","trial_index":32,"time_elapsed":333183,"internal_node_id":"0.0-7.0","task_version":"battery-v0.2-trt","session":3},{"rune":"R","rune_set":"bacs1","hex":"#3366ff99","correct":32,"choice":32,"rt":904,"accuracy":1,"outcome":"+10","keys":[2411],"total_keys":1,"block":1,"trial":3,"stimulus":3,"robot":1,"valence":"win","action":"go","sham":0,"trial_type":"pit-trial","trial_index":33,"time_elapsed":336803,"internal_node_id":"0.0-8.0","task_version":"battery-v0.2-trt","session":3},{"rune":"Z","rune_set":"bacs1","hex":"#f73b6a7A","correct":32,"choice":-1,"rt":-1,"accuracy":0,"outcome":"-10","keys":[],"total_keys":0,"block":1,"trial":4,"stimulus":1,"robot":3,"valence":"lose","action":"go","sham":0,"trial_type":"pit-trial","trial_index":34,"time_elapsed":340823,"internal_node_id":"0.0-9.0","task_version":"battery-v0.2-trt","session":3},{"rune":"B","rune_set":"bacs1","hex":"#3366ff99","correct":-1,"choice":32,"rt":521,"accuracy":0,"outcome":"+1","keys":[2036],"total_keys":1,"block":1,"trial":5,"stimulus":0,"robot":2,"valence":"win","action":"no-go","sham":0,"trial_type":"pit-trial","trial_index":35,"time_elapsed":344063,"internal_node_id":"0.0-10.0","task_version":"battery-v0.2-trt","session":3},{"rune":"Z","rune_set":"bacs1","hex":"#f73b6a7A","correct":32,"choice":32,"rt":879,"accuracy":1,"outcome":"-1","keys":[2388],"total_keys":1,"block":1,"trial":6,"stimulus":1,"robot":3,"valence":"lose","action":"go","sham":0,"trial_type":"pit-trial","trial_index":36,"time_elapsed":347653,"internal_node_id":"0.0-11.0","task_version":"battery-v0.2-trt","session":3},{"rune":"J","rune_set":"bacs1","hex":"#f73b6a7A","correct":-1,"choice":-1,"rt":-1,"accuracy":1,"outcome":"-10","keys":[3390],"total_keys":1,"block":1,"trial":7,"stimulus":2,"robot":4,"valence":"lose","action":"no-go","sham":1,"trial_type":"pit-trial","trial_index":37,"time_elapsed":351693,"internal_node_id":"0.0-12.0","task_version":"battery-v0.2-trt","session":3},{"rune":"R","rune_set":"bacs1","hex":"#3366ff99","correct":32,"choice":32,"rt":628,"accuracy":1,"outcome":"+10","keys":[2145],"total_keys":1,"block":1,"trial":8,"stimulus":3,"robot":1,"valence":"win","action":"go","sham":0,"trial_type":"pit-trial","trial_index":38,"time_elapsed":355043,"internal_node_id":"0.0-13.0","task_version":"battery-v0.2-trt","session":3},{"rune":"J","rune_set":"bacs1","hex":"#f73b6a7A","correct":-1,"choice":32,"rt":648,"accuracy":0,"outcome":"-10","keys":[2157],"total_keys":1,"block":1,"trial":9,"stimulus":2,"robot":4,"valence":"lose","action":"no-go","sham":0,"trial_type":"pit-trial","trial_index":39,"time_elapsed":358412,"internal_node_id":"0.0-14.0","task_version":"battery-v0.2-trt","session":3},{"rune":"B","rune_set":"bacs1","hex":"#3366ff99","correct":-1,"choice":32,"rt":527,"accuracy":0,"outcome":"+1","keys":[2034],"total_keys":1,"block":1,"trial":10,"stimulus":0,"robot":2,"valence":"win","action":"no-go","sham":0,"trial_type":"pit-trial","trial_index":40,"time_elapsed":361653,"internal_node_id":"0.0-15.0","task_version":"battery-v0.2-trt","session":3},{"rune":"R","rune_set":"bacs1","hex":"#3366ff99","correct":32,"choice":32,"rt":541,"accuracy":1,"outcome":"+10","keys":[2058],"total_keys":1,"block":1,"trial":11,"stimulus":3,"robot":1,"valence":"win","action":"go","sham":0,"trial_type":"pit-trial","trial_index":41,"time_elapsed":364933,"internal_node_id":"0.0-16.0","task_version":"battery-v0.2-trt","session":3},{"rune":"Z","rune_set":"bacs1","hex":"#f73b6a7A","correct":32,"choice":32,"rt":701,"accuracy":1,"outcome":"-1","keys":[2218],"total_keys":1,"block":1,"trial":12,"stimulus":1,"robot":3,"valence":"lose","action":"go","sham":0,"trial_type":"pit-trial","trial_index":42,"time_elapsed":368373,"internal_node_id":"0.0-17.0","task_version":"battery-v0.2-trt","session":3},{"rune":"B","rune_set":"bacs1","hex":"#3366ff99","correct":-1,"choice":32,"rt":742,"accuracy":0,"outcome":"+1","keys":[2250],"total_keys":1,"block":1,"trial":13,"stimulus":0,"robot":2,"valence":"win","action":"no-go","sham":0,"trial_type":"pit-trial","trial_index":43,"time_elapsed":371843,"internal_node_id":"0.0-18.0","task_version":"battery-v0.2-trt","session":3},{"rune":"Z","rune_set":"bacs1","hex":"#f73b6a7A","correct":32,"choice":32,"rt":586,"accuracy":1,"outcome":"-1","keys":[2104],"total_keys":1,"block":1,"trial":14,"stimulus":1,"robot":3,"valence":"lose","action":"go","sham":0,"trial_type":"pit-trial","trial_index":44,"time_elapsed":375150,"internal_node_id":"0.0-19.0","task_version":"battery-v0.2-trt","session":3},{"rune":"R","rune_set":"bacs1","hex":"#3366ff99","correct":32,"choice":32,"rt":663,"accuracy":1,"outcome":"+1","keys":[2163],"total_keys":1,"block":1,"trial":15,"stimulus":3,"robot":1,"valence":"win","action":"go","sham":1,"trial_type":"pit-trial","trial_index":45,"time_elapsed":378522,"internal_node_id":"0.0-20.0","task_version":"battery-v0.2-trt","session":3},{"rune":"J","rune_set":"bacs1","hex":"#f73b6a7A","correct":-1,"choice":32,"rt":886,"accuracy":0,"outcome":"-10","keys":[2399],"total_keys":1,"block":1,"trial":16,"stimulus":2,"robot":4,"valence":"lose","action":"no-go","sham":0,"trial_type":"pit-trial","trial_index":46,"time_elapsed":382133,"internal_node_id":"0.0-21.0","task_version":"battery-v0.2-trt","session":3},{"rune":"Z","rune_set":"bacs1","hex":"#f73b6a7A","correct":32,"choice":32,"rt":610,"accuracy":1,"outcome":"-1","keys":[2127],"total_keys":1,"block":1,"trial":17,"stimulus":1,"robot":3,"valence":"lose","action":"go","sham":0,"trial_type":"pit-trial","trial_index":47,"time_elapsed":385463,"internal_node_id":"0.0-22.0","task_version":"battery-v0.2-trt","session":3},{"rune":"R","rune_set":"bacs1","hex":"#3366ff99","correct":32,"choice":-1,"rt":-1,"accuracy":0,"outcome":"+1","keys":[],"total_keys":0,"block":1,"trial":18,"stimulus":3,"robot":1,"valence":"win","action":"go","sham":0,"trial_type":"pit-trial","trial_index":48,"time_elapsed":389483,"internal_node_id":"0.0-23.0","task_version":"battery-v0.2-trt","session":3},{"rune":"J","rune_set":"bacs1","hex":"#f73b6a7A","correct":-1,"choice":-1,"rt":-1,"accuracy":1,"outcome":"-1","keys":[],"total_keys":0,"block":1,"trial":19,"stimulus":2,"robot":4,"valence":"lose","action":"no-go","sham":0,"trial_type":"pit-trial","trial_index":49,"time_elapsed":393523,"internal_node_id":"0.0-24.0","task_version":"battery-v0.2-trt","session":3},{"rune":"B","rune_set":"bacs1","hex":"#3366ff99","correct":-1,"choice":32,"rt":550,"accuracy":0,"outcome":"+1","keys":[2067],"total_keys":1,"block":1,"trial":20,"stimulus":0,"robot":2,"valence":"win","action":"no-go","sham":0,"trial_type":"pit-trial","trial_index":50,"time_elapsed":396802,"internal_node_id":"0.0-25.0","task_version":"battery-v0.2-trt","session":3},{"rune":"R","rune_set":"bacs1","hex":"#3366ff99","correct":32,"choice":32,"rt":671,"accuracy":1,"outcome":"+10","keys":[2179],"total_keys":1,"block":1,"trial":21,"stimulus":3,"robot":1,"valence":"win","action":"go","sham":0,"trial_type":"pit-trial","trial_index":51,"time_elapsed":400183,"internal_node_id":"0.0-26.0","task_version":"battery-v0.2-trt","session":3},{"rune":"B","rune_set":"bacs1","hex":"#3366ff99","correct":-1,"choice":-1,"rt":-1,"accuracy":1,"outcome":"+1","keys":[],"total_keys":0,"block":1,"trial":22,"stimulus":0,"robot":2,"valence":"win","action":"no-go","sham":1,"trial_type":"pit-trial","trial_index":52,"time_elapsed":404208,"internal_node_id":"0.0-27.0","task_version":"battery-v0.2-trt","session":3},{"rune":"Z","rune_set":"bacs1","hex":"#f73b6a7A","correct":32,"choice":32,"rt":651,"accuracy":1,"outcome":"-1","keys":[2164],"total_keys":1,"block":1,"trial":23,"stimulus":1,"robot":3,"valence":"lose","action":"go","sham":0,"trial_type":"pit-trial","trial_index":53,"time_elapsed":407593,"internal_node_id":"0.0-28.0","task_version":"battery-v0.2-trt","session":3},{"rune":"J","rune_set":"bacs1","hex":"#f73b6a7A","correct":-1,"choice":-1,"rt":-1,"accuracy":1,"outcome":"-1","keys":[],"total_keys":0,"block":1,"trial":24,"stimulus":2,"robot":4,"valence":"lose","action":"no-go","sham":0,"trial_type":"pit-trial","trial_index":54,"time_elapsed":411602,"internal_node_id":"0.0-29.0","task_version":"battery-v0.2-trt","session":3},{"rune":"R","rune_set":"bacs1","hex":"#3366ff99","correct":32,"choice":32,"rt":750,"accuracy":1,"outcome":"+10","keys":[2258],"total_keys":1,"block":1,"trial":25,"stimulus":3,"robot":1,"valence":"win","action":"go","sham":0,"trial_type":"pit-trial","trial_index":55,"time_elapsed":415063,"internal_node_id":"0.0-30.0","task_version":"battery-v0.2-trt","session":3},{"rune":"J","rune_set":"bacs1","hex":"#f73b6a7A","correct":-1,"choice":-1,"rt":-1,"accuracy":1,"outcome":"-1","keys":[],"total_keys":0,"block":1,"trial":26,"stimulus":2,"robot":4,"valence":"lose","action":"no-go","sham":0,"trial_type":"pit-trial","trial_index":56,"time_elapsed":419103,"internal_node_id":"0.0-31.0","task_version":"battery-v0.2-trt","session":3},{"rune":"Z","rune_set":"bacs1","hex":"#f73b6a7A","correct":32,"choice":32,"rt":579,"accuracy":1,"outcome":"-1","keys":[2097],"total_keys":1,"block":1,"trial":27,"stimulus":1,"robot":3,"valence":"lose","action":"go","sham":0,"trial_type":"pit-trial","trial_index":57,"time_elapsed":422403,"internal_node_id":"0.0-32.0","task_version":"battery-v0.2-trt","session":3},{"rune":"B","rune_set":"bacs1","hex":"#3366ff99","correct":-1,"choice":32,"rt":682,"accuracy":0,"outcome":"+1","keys":[2200],"total_keys":1,"block":1,"trial":28,"stimulus":0,"robot":2,"valence":"win","action":"no-go","sham":0,"trial_type":"pit-trial","trial_index":58,"time_elapsed":425813,"internal_node_id":"0.0-33.0","task_version":"battery-v0.2-trt","session":3},{"rune":"Z","rune_set":"bacs1","hex":"#f73b6a7A","correct":32,"choice":32,"rt":674,"accuracy":1,"outcome":"-1","keys":[2192],"total_keys":1,"block":1,"trial":29,"stimulus":1,"robot":3,"valence":"lose","action":"go","sham":0,"trial_type":"pit-trial","trial_index":59,"time_elapsed":429213,"internal_node_id":"0.0-34.0","task_version":"battery-v0.2-trt","session":3},{"rune":"J","rune_set":"bacs1","hex":"#f73b6a7A","correct":-1,"choice":-1,"rt":-1,"accuracy":1,"outcome":"-1","keys":[],"total_keys":0,"block":1,"trial":30,"stimulus":2,"robot":4,"valence":"lose","action":"no-go","sham":0,"trial_type":"pit-trial","trial_index":60,"time_elapsed":433253,"internal_node_id":"0.0-35.0","task_version":"battery-v0.2-trt","session":3},{"rune":"B","rune_set":"bacs1","hex":"#3366ff99","correct":-1,"choice":-1,"rt":-1,"accuracy":1,"outcome":"+10","keys":[],"total_keys":0,"block":1,"trial":31,"stimulus":0,"robot":2,"valence":"win","action":"no-go","sham":0,"trial_type":"pit-trial","trial_index":61,"time_elapsed":437272,"internal_node_id":"0.0-36.0","task_version":"battery-v0.2-trt","session":3},{"rune":"R","rune_set":"bacs1","hex":"#3366ff99","correct":32,"choice":32,"rt":573,"accuracy":1,"outcome":"+10","keys":[2091],"total_keys":1,"block":1,"trial":32,"stimulus":3,"robot":1,"valence":"win","action":"go","sham":0,"trial_type":"pit-trial","trial_index":62,"time_elapsed":440583,"internal_node_id":"0.0-37.0","task_version":"battery-v0.2-trt","session":3},{"rune":"Z","rune_set":"bacs1","hex":"#f73b6a7A","correct":32,"choice":32,"rt":720,"accuracy":1,"outcome":"-1","keys":[2236],"total_keys":1,"block":1,"trial":33,"stimulus":1,"robot":3,"valence":"lose","action":"go","sham":0,"trial_type":"pit-trial","trial_index":63,"time_elapsed":444042,"internal_node_id":"0.0-38.0","task_version":"battery-v0.2-trt","session":3},{"rune":"E","rune_set":"bacs1","hex":"#f73b6a7A","correct":-1,"choice":-1,"rt":-1,"accuracy":1,"outcome":"-10","keys":[2848],"total_keys":1,"block":1,"trial":34,"stimulus":5,"robot":4,"valence":"lose","action":"no-go","sham":1,"trial_type":"pit-trial","trial_index":64,"time_elapsed":448073,"internal_node_id":"0.0-39.0","task_version":"battery-v0.2-trt","session":3},{"rune":"V","rune_set":"bacs1","hex":"#f73b6a7A","correct":32,"choice":32,"rt":900,"accuracy":1,"outcome":"-1","keys":[2417],"total_keys":1,"block":1,"trial":35,"stimulus":4,"robot":3,"valence":"lose","action":"go","sham":0,"trial_type":"pit-trial","trial_index":65,"time_elapsed":451703,"internal_node_id":"0.0-40.0","task_version":"battery-v0.2-trt","session":3},{"rune":"J","rune_set":"bacs1","hex":"#f73b6a7A","correct":-1,"choice":-1,"rt":-1,"accuracy":1,"outcome":"-1","keys":[],"total_keys":0,"block":1,"trial":36,"stimulus":2,"robot":4,"valence":"lose","action":"no-go","sham":0,"trial_type":"pit-trial","trial_index":66,"time_elapsed":455723,"internal_node_id":"0.0-41.0","task_version":"battery-v0.2-trt","session":3},{"rune":"E","rune_set":"bacs1","hex":"#f73b6a7A","correct":-1,"choice":32,"rt":960,"accuracy":0,"outcome":"-10","keys":[2468],"total_keys":1,"block":1,"trial":37,"stimulus":5,"robot":4,"valence":"lose","action":"no-go","sham":0,"trial_type":"pit-trial","trial_index":67,"time_elapsed":459393,"internal_node_id":"0.0-42.0","task_version":"battery-v0.2-trt","session":3},{"rune":"Z","rune_set":"bacs1","hex":"#f73b6a7A","correct":32,"choice":32,"rt":780,"accuracy":1,"outcome":"-1","keys":[2287],"total_keys":1,"block":1,"trial":38,"stimulus":1,"robot":3,"valence":"lose","action":"go","sham":0,"trial_type":"pit-trial","trial_index":68,"time_elapsed":462893,"internal_node_id":"0.0-43.0","task_version":"battery-v0.2-trt","session":3},{"rune":"V","rune_set":"bacs1","hex":"#f73b6a7A","correct":32,"choice":32,"rt":518,"accuracy":1,"outcome":"-1","keys":[2037],"total_keys":1,"block":1,"trial":39,"stimulus":4,"robot":3,"valence":"lose","action":"go","sham":0,"trial_type":"pit-trial","trial_index":69,"time_elapsed":466143,"internal_node_id":"0.0-44.0","task_version":"battery-v0.2-trt","session":3},{"rune":"J","rune_set":"bacs1","hex":"#f73b6a7A","correct":-1,"choice":-1,"rt":-1,"accuracy":1,"outcome":"-1","keys":[],"total_keys":0,"block":1,"trial":40,"stimulus":2,"robot":4,"valence":"lose","action":"no-go","sham":0,"trial_type":"pit-trial","trial_index":70,"time_elapsed":470172,"internal_node_id":"0.0-45.0","task_version":"battery-v0.2-trt","session":3},{"rune":"J","rune_set":"bacs1","hex":"#f73b6a7A","correct":-1,"choice":-1,"rt":-1,"accuracy":1,"outcome":"-1","keys":[],"total_keys":0,"block":1,"trial":41,"stimulus":2,"robot":4,"valence":"lose","action":"no-go","sham":0,"trial_type":"pit-trial","trial_index":71,"time_elapsed":474212,"internal_node_id":"0.0-46.0","task_version":"battery-v0.2-trt","session":3},{"rune":"T","rune_set":"bacs1","hex":"#3366ff99","correct":-1,"choice":-1,"rt":-1,"accuracy":1,"outcome":"+10","keys":[],"total_keys":0,"block":1,"trial":42,"stimulus":6,"robot":2,"valence":"win","action":"no-go","sham":0,"trial_type":"pit-trial","trial_index":72,"time_elapsed":478253,"internal_node_id":"0.0-47.0","task_version":"battery-v0.2-trt","session":3},{"rune":"V","rune_set":"bacs1","hex":"#f73b6a7A","correct":32,"choice":32,"rt":723,"accuracy":1,"outcome":"-1","keys":[2239],"total_keys":1,"block":1,"trial":43,"stimulus":4,"robot":3,"valence":"lose","action":"go","sham":0,"trial_type":"pit-trial","trial_index":73,"time_elapsed":481713,"internal_node_id":"0.0-48.0","task_version":"battery-v0.2-trt","session":3},{"rune":"E","rune_set":"bacs1","hex":"#f73b6a7A","correct":-1,"choice":-1,"rt":-1,"accuracy":1,"outcome":"-1","keys":[],"total_keys":0,"block":1,"trial":44,"stimulus":5,"robot":4,"valence":"lose","action":"no-go","sham":0,"trial_type":"pit-trial","trial_index":74,"time_elapsed":485753,"internal_node_id":"0.0-49.0","task_version":"battery-v0.2-trt","session":3},{"rune":"J","rune_set":"bacs1","hex":"#f73b6a7A","correct":-1,"choice":-1,"rt":-1,"accuracy":1,"outcome":"-1","keys":[],"total_keys":0,"block":1,"trial":45,"stimulus":2,"robot":4,"valence":"lose","action":"no-go","sham":0,"trial_type":"pit-trial","trial_index":75,"time_elapsed":489782,"internal_node_id":"0.0-50.0","task_version":"battery-v0.2-trt","session":3},{"rune":"V","rune_set":"bacs1","hex":"#f73b6a7A","correct":32,"choice":32,"rt":492,"accuracy":1,"outcome":"-1","keys":[2005],"total_keys":1,"block":1,"trial":46,"stimulus":4,"robot":3,"valence":"lose","action":"go","sham":0,"trial_type":"pit-trial","trial_index":76,"time_elapsed":493003,"internal_node_id":"0.0-51.0","task_version":"battery-v0.2-trt","session":3},{"rune":"T","rune_set":"bacs1","hex":"#3366ff99","correct":-1,"choice":-1,"rt":-1,"accuracy":1,"outcome":"+10","keys":[],"total_keys":0,"block":1,"trial":47,"stimulus":6,"robot":2,"valence":"win","action":"no-go","sham":0,"trial_type":"pit-trial","trial_index":77,"time_elapsed":497042,"internal_node_id":"0.0-52.0","task_version":"battery-v0.2-trt","session":3},{"rune":"E","rune_set":"bacs1","hex":"#f73b6a7A","correct":-1,"choice":-1,"rt":-1,"accuracy":1,"outcome":"-1","keys":[],"total_keys":0,"block":1,"trial":48,"stimulus":5,"robot":4,"valence":"lose","action":"no-go","sham":0,"trial_type":"pit-trial","trial_index":78,"time_elapsed":501082,"internal_node_id":"0.0-53.0","task_version":"battery-v0.2-trt","session":3},{"rune":"E","rune_set":"bacs1","hex":"#f73b6a7A","correct":-1,"choice":-1,"rt":-1,"accuracy":1,"outcome":"-1","keys":[],"total_keys":0,"block":1,"trial":49,"stimulus":5,"robot":4,"valence":"lose","action":"no-go","sham":0,"trial_type":"pit-trial","trial_index":79,"time_elapsed":505093,"internal_node_id":"0.0-54.0","task_version":"battery-v0.2-trt","session":3},{"rune":"V","rune_set":"bacs1","hex":"#f73b6a7A","correct":32,"choice":32,"rt":542,"accuracy":1,"outcome":"-1","keys":[2050],"total_keys":1,"block":1,"trial":50,"stimulus":4,"robot":3,"valence":"lose","action":"go","sham":0,"trial_type":"pit-trial","trial_index":80,"time_elapsed":508364,"internal_node_id":"0.0-55.0","task_version":"battery-v0.2-trt","session":3},{"rune":"T","rune_set":"bacs1","hex":"#3366ff99","correct":-1,"choice":-1,"rt":-1,"accuracy":1,"outcome":"+1","keys":[],"total_keys":0,"block":1,"trial":51,"stimulus":6,"robot":2,"valence":"win","action":"no-go","sham":1,"trial_type":"pit-trial","trial_index":81,"time_elapsed":512402,"internal_node_id":"0.0-56.0","task_version":"battery-v0.2-trt","session":3},{"rune":"F","rune_set":"bacs1","hex":"#3366ff99","correct":32,"choice":-1,"rt":-1,"accuracy":0,"outcome":"+1","keys":[],"total_keys":0,"block":1,"trial":52,"stimulus":7,"robot":1,"valence":"win","action":"go","sham":0,"trial_type":"pit-trial","trial_index":82,"time_elapsed":516413,"internal_node_id":"0.0-57.0","task_version":"battery-v0.2-trt","session":3},{"rune":"V","rune_set":"bacs1","hex":"#f73b6a7A","correct":32,"choice":32,"rt":621,"accuracy":1,"outcome":"-1","keys":[2137],"total_keys":1,"block":1,"trial":53,"stimulus":4,"robot":3,"valence":"lose","action":"go","sham":0,"trial_type":"pit-trial","trial_index":83,"time_elapsed":519772,"internal_node_id":"0.0-58.0","task_version":"battery-v0.2-trt","session":3},{"rune":"F","rune_set":"bacs1","hex":"#3366ff99","correct":32,"choice":32,"rt":829,"accuracy":1,"outcome":"+10","keys":[2347],"total_keys":1,"block":1,"trial":54,"stimulus":7,"robot":1,"valence":"win","action":"go","sham":0,"trial_type":"pit-trial","trial_index":84,"time_elapsed":523333,"internal_node_id":"0.0-59.0","task_version":"battery-v0.2-trt","session":3},{"rune":"T","rune_set":"bacs1","hex":"#3366ff99","correct":-1,"choice":-1,"rt":-1,"accuracy":1,"outcome":"+10","keys":[],"total_keys":0,"block":1,"trial":55,"stimulus":6,"robot":2,"valence":"win","action":"no-go","sham":0,"trial_type":"pit-trial","trial_index":85,"time_elapsed":527372,"internal_node_id":"0.0-60.0","task_version":"battery-v0.2-trt","session":3},{"rune":"E","rune_set":"bacs1","hex":"#f73b6a7A","correct":-1,"choice":-1,"rt":-1,"accuracy":1,"outcome":"-1","keys":[],"total_keys":0,"block":1,"trial":56,"stimulus":5,"robot":4,"valence":"lose","action":"no-go","sham":0,"trial_type":"pit-trial","trial_index":86,"time_elapsed":531413,"internal_node_id":"0.0-61.0","task_version":"battery-v0.2-trt","session":3},{"rune":"V","rune_set":"bacs1","hex":"#f73b6a7A","correct":32,"choice":32,"rt":547,"accuracy":1,"outcome":"-1","keys":[2062],"total_keys":1,"block":1,"trial":57,"stimulus":4,"robot":3,"valence":"lose","action":"go","sham":0,"trial_type":"pit-trial","trial_index":87,"time_elapsed":534694,"internal_node_id":"0.0-62.0","task_version":"battery-v0.2-trt","session":3},{"rune":"E","rune_set":"bacs1","hex":"#f73b6a7A","correct":-1,"choice":-1,"rt":-1,"accuracy":1,"outcome":"-10","keys":[],"total_keys":0,"block":1,"trial":58,"stimulus":5,"robot":4,"valence":"lose","action":"no-go","sham":1,"trial_type":"pit-trial","trial_index":88,"time_elapsed":538732,"internal_node_id":"0.0-63.0","task_version":"battery-v0.2-trt","session":3},{"rune":"T","rune_set":"bacs1","hex":"#3366ff99","correct":-1,"choice":-1,"rt":-1,"accuracy":1,"outcome":"+1","keys":[],"total_keys":0,"block":1,"trial":59,"stimulus":6,"robot":2,"valence":"win","action":"no-go","sham":1,"trial_type":"pit-trial","trial_index":89,"time_elapsed":542763,"internal_node_id":"0.0-64.0","task_version":"battery-v0.2-trt","session":3},{"rune":"F","rune_set":"bacs1","hex":"#3366ff99","correct":32,"choice":32,"rt":830,"accuracy":1,"outcome":"+10","keys":[2346],"total_keys":1,"block":1,"trial":60,"stimulus":7,"robot":1,"valence":"win","action":"go","sham":0,"trial_type":"pit-trial","trial_index":90,"time_elapsed":546313,"internal_node_id":"0.0-65.0","task_version":"battery-v0.2-trt","session":3},{"rune":"F","rune_set":"bacs1","hex":"#3366ff99","correct":32,"choice":32,"rt":682,"accuracy":1,"outcome":"+1","keys":[2190],"total_keys":1,"block":1,"trial":61,"stimulus":7,"robot":1,"valence":"win","action":"go","sham":1,"trial_type":"pit-trial","trial_index":91,"time_elapsed":549722,"internal_node_id":"0.0-66.0","task_version":"battery-v0.2-trt","session":3},{"rune":"E","rune_set":"bacs1","hex":"#f73b6a7A","correct":-1,"choice":-1,"rt":-1,"accuracy":1,"outcome":"-1","keys":[],"total_keys":0,"block":1,"trial":62,"stimulus":5,"robot":4,"valence":"lose","action":"no-go","sham":0,"trial_type":"pit-trial","trial_index":92,"time_elapsed":553753,"internal_node_id":"0.0-67.0","task_version":"battery-v0.2-trt","session":3},{"rune":"V","rune_set":"bacs1","hex":"#f73b6a7A","correct":32,"choice":32,"rt":576,"accuracy":1,"outcome":"-10","keys":[2092],"total_keys":1,"block":1,"trial":63,"stimulus":4,"robot":3,"valence":"lose","action":"go","sham":1,"trial_type":"pit-trial","trial_index":93,"time_elapsed":557053,"internal_node_id":"0.0-68.0","task_version":"battery-v0.2-trt","session":3},{"rune":"T","rune_set":"bacs1","hex":"#3366ff99","correct":-1,"choice":32,"rt":795,"accuracy":0,"outcome":"+1","keys":[2313],"total_keys":1,"block":1,"trial":64,"stimulus":6,"robot":2,"valence":"win","action":"no-go","sham":0,"trial_type":"pit-trial","trial_index":94,"time_elapsed":560568,"internal_node_id":"0.0-69.0","task_version":"battery-v0.2-trt","session":3},{"rune":"F","rune_set":"bacs1","hex":"#3366ff99","correct":32,"choice":32,"rt":926,"accuracy":1,"outcome":"+1","keys":[2437],"total_keys":1,"block":1,"trial":65,"stimulus":7,"robot":1,"valence":"win","action":"go","sham":1,"trial_type":"pit-trial","trial_index":95,"time_elapsed":564213,"internal_node_id":"0.0-70.0","task_version":"battery-v0.2-trt","session":3},{"rune":"E","rune_set":"bacs1","hex":"#f73b6a7A","correct":-1,"choice":-1,"rt":-1,"accuracy":1,"outcome":"-1","keys":[],"total_keys":0,"block":1,"trial":66,"stimulus":5,"robot":4,"valence":"lose","action":"no-go","sham":0,"trial_type":"pit-trial","trial_index":96,"time_elapsed":568223,"internal_node_id":"0.0-71.0","task_version":"battery-v0.2-trt","session":3},{"rune":"T","rune_set":"bacs1","hex":"#3366ff99","correct":-1,"choice":-1,"rt":-1,"accuracy":1,"outcome":"+10","keys":[],"total_keys":0,"block":1,"trial":67,"stimulus":6,"robot":2,"valence":"win","action":"no-go","sham":0,"trial_type":"pit-trial","trial_index":97,"time_elapsed":572232,"internal_node_id":"0.0-72.0","task_version":"battery-v0.2-trt","session":3},{"rune":"V","rune_set":"bacs1","hex":"#f73b6a7A","correct":32,"choice":32,"rt":514,"accuracy":1,"outcome":"-10","keys":[2021],"total_keys":1,"block":1,"trial":68,"stimulus":4,"robot":3,"valence":"lose","action":"go","sham":1,"trial_type":"pit-trial","trial_index":98,"time_elapsed":575457,"internal_node_id":"0.0-73.0","task_version":"battery-v0.2-trt","session":3},{"rune":"F","rune_set":"bacs1","hex":"#3366ff99","correct":32,"choice":32,"rt":634,"accuracy":1,"outcome":"+10","keys":[2137],"total_keys":1,"block":1,"trial":69,"stimulus":7,"robot":1,"valence":"win","action":"go","sham":0,"trial_type":"pit-trial","trial_index":99,"time_elapsed":578813,"internal_node_id":"0.0-74.0","task_version":"battery-v0.2-trt","session":3},{"rune":"V","rune_set":"bacs1","hex":"#f73b6a7A","correct":32,"choice":-1,"rt":-1,"accuracy":0,"outcome":"-10","keys":[],"total_keys":0,"block":1,"trial":70,"stimulus":4,"robot":3,"valence":"lose","action":"go","sham":0,"trial_type":"pit-trial","trial_index":100,"time_elapsed":582843,"internal_node_id":"0.0-75.0","task_version":"battery-v0.2-trt","session":3},{"rune":"E","rune_set":"bacs1","hex":"#f73b6a7A","correct":-1,"choice":-1,"rt":-1,"accuracy":1,"outcome":"-1","keys":[],"total_keys":0,"block":1,"trial":71,"stimulus":5,"robot":4,"valence":"lose","action":"no-go","sham":0,"trial_type":"pit-trial","trial_index":101,"time_elapsed":586852,"internal_node_id":"0.0-76.0","task_version":"battery-v0.2-trt","session":3},{"rune":"T","rune_set":"bacs1","hex":"#3366ff99","correct":-1,"choice":-1,"rt":-1,"accuracy":1,"outcome":"+10","keys":[],"total_keys":0,"block":1,"trial":72,"stimulus":6,"robot":2,"valence":"win","action":"no-go","sham":0,"trial_type":"pit-trial","trial_index":102,"time_elapsed":590883,"internal_node_id":"0.0-77.0","task_version":"battery-v0.2-trt","session":3},{"rune":"T","rune_set":"bacs1","hex":"#3366ff99","correct":-1,"choice":-1,"rt":-1,"accuracy":1,"outcome":"+1","keys":[],"total_keys":0,"block":1,"trial":73,"stimulus":6,"robot":2,"valence":"win","action":"no-go","sham":1,"trial_type":"pit-trial","trial_index":103,"time_elapsed":594903,"internal_node_id":"0.0-78.0","task_version":"battery-v0.2-trt","session":3},{"rune":"V","rune_set":"bacs1","hex":"#f73b6a7A","correct":32,"choice":32,"rt":610,"accuracy":1,"outcome":"-1","keys":[2118],"total_keys":1,"block":1,"trial":74,"stimulus":4,"robot":3,"valence":"lose","action":"go","sham":0,"trial_type":"pit-trial","trial_index":104,"time_elapsed":598223,"internal_node_id":"0.0-79.0","task_version":"battery-v0.2-trt","session":3},{"rune":"F","rune_set":"bacs1","hex":"#3366ff99","correct":32,"choice":32,"rt":895,"accuracy":1,"outcome":"+10","keys":[2411],"total_keys":1,"block":1,"trial":75,"stimulus":7,"robot":1,"valence":"win","action":"go","sham":0,"trial_type":"pit-trial","trial_index":105,"time_elapsed":601852,"internal_node_id":"0.0-80.0","task_version":"battery-v0.2-trt","session":3},{"rune":"A","rune_set":"bacs1","hex":"#3366ff99","correct":32,"choice":-1,"rt":-1,"accuracy":0,"outcome":"+10","keys":[],"total_keys":0,"block":1,"trial":76,"stimulus":8,"robot":1,"valence":"win","action":"go","sham":1,"trial_type":"pit-trial","trial_index":106,"time_elapsed":605873,"internal_node_id":"0.0-81.0","task_version":"battery-v0.2-trt","session":3},{"rune":"A","rune_set":"bacs1","hex":"#3366ff99","correct":32,"choice":-1,"rt":-1,"accuracy":0,"outcome":"+1","keys":[],"total_keys":0,"block":1,"trial":77,"stimulus":8,"robot":1,"valence":"win","action":"go","sham":0,"trial_type":"pit-trial","trial_index":107,"time_elapsed":609913,"internal_node_id":"0.0-82.0","task_version":"battery-v0.2-trt","session":3},{"rune":"F","rune_set":"bacs1","hex":"#3366ff99","correct":32,"choice":32,"rt":853,"accuracy":1,"outcome":"+1","keys":[2360],"total_keys":1,"block":1,"trial":78,"stimulus":7,"robot":1,"valence":"win","action":"go","sham":1,"trial_type":"pit-trial","trial_index":108,"time_elapsed":613483,"internal_node_id":"0.0-83.0","task_version":"battery-v0.2-trt","session":3},{"rune":"V","rune_set":"bacs1","hex":"#f73b6a7A","correct":32,"choice":32,"rt":1165,"accuracy":1,"outcome":"-1","keys":[2682],"total_keys":1,"block":1,"trial":79,"stimulus":4,"robot":3,"valence":"lose","action":"go","sham":0,"trial_type":"pit-trial","trial_index":109,"time_elapsed":617367,"internal_node_id":"0.0-84.0","task_version":"battery-v0.2-trt","session":3},{"rune":"T","rune_set":"bacs1","hex":"#3366ff99","correct":-1,"choice":-1,"rt":-1,"accuracy":1,"outcome":"+10","keys":[],"total_keys":0,"block":1,"trial":80,"stimulus":6,"robot":2,"valence":"win","action":"no-go","sham":0,"trial_type":"pit-trial","trial_index":110,"time_elapsed":621402,"internal_node_id":"0.0-85.0","task_version":"battery-v0.2-trt","session":3},{"rune":"A","rune_set":"bacs1","hex":"#3366ff99","correct":32,"choice":-1,"rt":-1,"accuracy":0,"outcome":"+1","keys":[],"total_keys":0,"block":1,"trial":81,"stimulus":8,"robot":1,"valence":"win","action":"go","sham":0,"trial_type":"pit-trial","trial_index":111,"time_elapsed":625443,"internal_node_id":"0.0-86.0","task_version":"battery-v0.2-trt","session":3},{"rune":"C","rune_set":"bacs1","hex":"#3366ff99","correct":-1,"choice":-1,"rt":-1,"accuracy":1,"outcome":"+10","keys":[],"total_keys":0,"block":1,"trial":82,"stimulus":9,"robot":2,"valence":"win","action":"no-go","sham":0,"trial_type":"pit-trial","trial_index":112,"time_elapsed":629463,"internal_node_id":"0.0-87.0","task_version":"battery-v0.2-trt","session":3},{"rune":"T","rune_set":"bacs1","hex":"#3366ff99","correct":-1,"choice":-1,"rt":-1,"accuracy":1,"outcome":"+10","keys":[],"total_keys":0,"block":1,"trial":83,"stimulus":6,"robot":2,"valence":"win","action":"no-go","sham":0,"trial_type":"pit-trial","trial_index":113,"time_elapsed":633473,"internal_node_id":"0.0-88.0","task_version":"battery-v0.2-trt","session":3},{"rune":"F","rune_set":"bacs1","hex":"#3366ff99","correct":32,"choice":32,"rt":970,"accuracy":1,"outcome":"+10","keys":[2488],"total_keys":1,"block":1,"trial":84,"stimulus":7,"robot":1,"valence":"win","action":"go","sham":0,"trial_type":"pit-trial","trial_index":114,"time_elapsed":637173,"internal_node_id":"0.0-89.0","task_version":"battery-v0.2-trt","session":3},{"rune":"C","rune_set":"bacs1","hex":"#3366ff99","correct":-1,"choice":-1,"rt":-1,"accuracy":1,"outcome":"+1","keys":[],"total_keys":0,"block":1,"trial":85,"stimulus":9,"robot":2,"valence":"win","action":"no-go","sham":1,"trial_type":"pit-trial","trial_index":115,"time_elapsed":641213,"internal_node_id":"0.0-90.0","task_version":"battery-v0.2-trt","session":3},{"rune":"T","rune_set":"bacs1","hex":"#3366ff99","correct":-1,"choice":-1,"rt":-1,"accuracy":1,"outcome":"+10","keys":[],"total_keys":0,"block":1,"trial":86,"stimulus":6,"robot":2,"valence":"win","action":"no-go","sham":0,"trial_type":"pit-trial","trial_index":116,"time_elapsed":645243,"internal_node_id":"0.0-91.0","task_version":"battery-v0.2-trt","session":3},{"rune":"A","rune_set":"bacs1","hex":"#3366ff99","correct":32,"choice":-1,"rt":-1,"accuracy":0,"outcome":"+1","keys":[],"total_keys":0,"block":1,"trial":87,"stimulus":8,"robot":1,"valence":"win","action":"go","sham":0,"trial_type":"pit-trial","trial_index":117,"time_elapsed":649273,"internal_node_id":"0.0-92.0","task_version":"battery-v0.2-trt","session":3},{"rune":"F","rune_set":"bacs1","hex":"#3366ff99","correct":32,"choice":32,"rt":732,"accuracy":1,"outcome":"+10","keys":[2231],"total_keys":1,"block":1,"trial":88,"stimulus":7,"robot":1,"valence":"win","action":"go","sham":0,"trial_type":"pit-trial","trial_index":118,"time_elapsed":652723,"internal_node_id":"0.0-93.0","task_version":"battery-v0.2-trt","session":3},{"rune":"A","rune_set":"bacs1","hex":"#3366ff99","correct":32,"choice":32,"rt":781,"accuracy":1,"outcome":"+10","keys":[2298],"total_keys":1,"block":1,"trial":89,"stimulus":8,"robot":1,"valence":"win","action":"go","sham":0,"trial_type":"pit-trial","trial_index":119,"time_elapsed":656244,"internal_node_id":"0.0-94.0","task_version":"battery-v0.2-trt","session":3},{"rune":"L","rune_set":"bacs1","hex":"#f73b6a7A","correct":32,"choice":32,"rt":1003,"accuracy":1,"outcome":"-1","keys":[2520],"total_keys":1,"block":1,"trial":90,"stimulus":10,"robot":3,"valence":"lose","action":"go","sham":0,"trial_type":"pit-trial","trial_index":120,"time_elapsed":659979,"internal_node_id":"0.0-95.0","task_version":"battery-v0.2-trt","session":3},{"rune":"C","rune_set":"bacs1","hex":"#3366ff99","correct":-1,"choice":32,"rt":764,"accuracy":0,"outcome":"+1","keys":[2276],"total_keys":1,"block":1,"trial":91,"stimulus":9,"robot":2,"valence":"win","action":"no-go","sham":0,"trial_type":"pit-trial","trial_index":121,"time_elapsed":663473,"internal_node_id":"0.0-96.0","task_version":"battery-v0.2-trt","session":3},{"rune":"Q","rune_set":"bacs1","hex":"#f73b6a7A","correct":-1,"choice":32,"rt":741,"accuracy":0,"outcome":"-10","keys":[2257],"total_keys":1,"block":1,"trial":92,"stimulus":11,"robot":4,"valence":"lose","action":"no-go","sham":0,"trial_type":"pit-trial","trial_index":122,"time_elapsed":666942,"internal_node_id":"0.0-97.0","task_version":"battery-v0.2-trt","session":3},{"rune":"Q","rune_set":"bacs1","hex":"#f73b6a7A","correct":-1,"choice":-1,"rt":-1,"accuracy":1,"outcome":"-1","keys":[],"total_keys":0,"block":1,"trial":93,"stimulus":11,"robot":4,"valence":"lose","action":"no-go","sham":0,"trial_type":"pit-trial","trial_index":123,"time_elapsed":670963,"internal_node_id":"0.0-98.0","task_version":"battery-v0.2-trt","session":3},{"rune":"C","rune_set":"bacs1","hex":"#3366ff99","correct":-1,"choice":-1,"rt":-1,"accuracy":1,"outcome":"+10","keys":[],"total_keys":0,"block":1,"trial":94,"stimulus":9,"robot":2,"valence":"win","action":"no-go","sham":0,"trial_type":"pit-trial","trial_index":124,"time_elapsed":674973,"internal_node_id":"0.0-99.0","task_version":"battery-v0.2-trt","session":3},{"rune":"A","rune_set":"bacs1","hex":"#3366ff99","correct":32,"choice":32,"rt":744,"accuracy":1,"outcome":"+10","keys":[2263],"total_keys":1,"block":1,"trial":95,"stimulus":8,"robot":1,"valence":"win","action":"go","sham":0,"trial_type":"pit-trial","trial_index":125,"time_elapsed":678452,"internal_node_id":"0.0-100.0","task_version":"battery-v0.2-trt","session":3},{"rune":"L","rune_set":"bacs1","hex":"#f73b6a7A","correct":32,"choice":32,"rt":586,"accuracy":1,"outcome":"-10","keys":[2104],"total_keys":1,"block":1,"trial":96,"stimulus":10,"robot":3,"valence":"lose","action":"go","sham":1,"trial_type":"pit-trial","trial_index":126,"time_elapsed":681761,"internal_node_id":"0.0-101.0","task_version":"battery-v0.2-trt","session":3},{"rune":"L","rune_set":"bacs1","hex":"#f73b6a7A","correct":32,"choice":-1,"rt":-1,"accuracy":0,"outcome":"-10","keys":[],"total_keys":0,"block":1,"trial":97,"stimulus":10,"robot":3,"valence":"lose","action":"go","sham":0,"trial_type":"pit-trial","trial_index":127,"time_elapsed":685773,"internal_node_id":"0.0-102.0","task_version":"battery-v0.2-trt","session":3},{"rune":"A","rune_set":"bacs1","hex":"#3366ff99","correct":32,"choice":-1,"rt":-1,"accuracy":0,"outcome":"+1","keys":[],"total_keys":0,"block":1,"trial":98,"stimulus":8,"robot":1,"valence":"win","action":"go","sham":0,"trial_type":"pit-trial","trial_index":128,"time_elapsed":689793,"internal_node_id":"0.0-103.0","task_version":"battery-v0.2-trt","session":3},{"rune":"C","rune_set":"bacs1","hex":"#3366ff99","correct":-1,"choice":-1,"rt":-1,"accuracy":1,"outcome":"+10","keys":[],"total_keys":0,"block":1,"trial":99,"stimulus":9,"robot":2,"valence":"win","action":"no-go","sham":0,"trial_type":"pit-trial","trial_index":129,"time_elapsed":693813,"internal_node_id":"0.0-104.0","task_version":"battery-v0.2-trt","session":3},{"rune":"Q","rune_set":"bacs1","hex":"#f73b6a7A","correct":-1,"choice":32,"rt":893,"accuracy":0,"outcome":"-10","keys":[2410],"total_keys":1,"block":1,"trial":100,"stimulus":11,"robot":4,"valence":"lose","action":"no-go","sham":0,"trial_type":"pit-trial","trial_index":130,"time_elapsed":697443,"internal_node_id":"0.0-105.0","task_version":"battery-v0.2-trt","session":3},{"rune":"Q","rune_set":"bacs1","hex":"#f73b6a7A","correct":-1,"choice":-1,"rt":-1,"accuracy":1,"outcome":"-1","keys":[],"total_keys":0,"block":1,"trial":101,"stimulus":11,"robot":4,"valence":"lose","action":"no-go","sham":0,"trial_type":"pit-trial","trial_index":131,"time_elapsed":701463,"internal_node_id":"0.0-106.0","task_version":"battery-v0.2-trt","session":3},{"rune":"A","rune_set":"bacs1","hex":"#3366ff99","correct":32,"choice":32,"rt":711,"accuracy":1,"outcome":"+10","keys":[2228],"total_keys":1,"block":1,"trial":102,"stimulus":8,"robot":1,"valence":"win","action":"go","sham":0,"trial_type":"pit-trial","trial_index":132,"time_elapsed":704902,"internal_node_id":"0.0-107.0","task_version":"battery-v0.2-trt","session":3},{"rune":"L","rune_set":"bacs1","hex":"#f73b6a7A","correct":32,"choice":32,"rt":843,"accuracy":1,"outcome":"-10","keys":[2351],"total_keys":1,"block":1,"trial":103,"stimulus":10,"robot":3,"valence":"lose","action":"go","sham":1,"trial_type":"pit-trial","trial_index":133,"time_elapsed":708473,"internal_node_id":"0.0-108.0","task_version":"battery-v0.2-trt","session":3},{"rune":"C","rune_set":"bacs1","hex":"#3366ff99","correct":-1,"choice":-1,"rt":-1,"accuracy":1,"outcome":"+10","keys":[],"total_keys":0,"block":1,"trial":104,"stimulus":9,"robot":2,"valence":"win","action":"no-go","sham":0,"trial_type":"pit-trial","trial_index":134,"time_elapsed":712493,"internal_node_id":"0.0-109.0","task_version":"battery-v0.2-trt","session":3},{"rune":"C","rune_set":"bacs1","hex":"#3366ff99","correct":-1,"choice":-1,"rt":-1,"accuracy":1,"outcome":"+10","keys":[],"total_keys":0,"block":1,"trial":105,"stimulus":9,"robot":2,"valence":"win","action":"no-go","sham":0,"trial_type":"pit-trial","trial_index":135,"time_elapsed":716522,"internal_node_id":"0.0-110.0","task_version":"battery-v0.2-trt","session":3},{"rune":"Q","rune_set":"bacs1","hex":"#f73b6a7A","correct":-1,"choice":32,"rt":784,"accuracy":0,"outcome":"-10","keys":[2292],"total_keys":1,"block":1,"trial":106,"stimulus":11,"robot":4,"valence":"lose","action":"no-go","sham":0,"trial_type":"pit-trial","trial_index":136,"time_elapsed":720022,"internal_node_id":"0.0-111.0","task_version":"battery-v0.2-trt","session":3},{"rune":"L","rune_set":"bacs1","hex":"#f73b6a7A","correct":32,"choice":-1,"rt":-1,"accuracy":0,"outcome":"-10","keys":[],"total_keys":0,"block":1,"trial":107,"stimulus":10,"robot":3,"valence":"lose","action":"go","sham":0,"trial_type":"pit-trial","trial_index":137,"time_elapsed":724032,"internal_node_id":"0.0-112.0","task_version":"battery-v0.2-trt","session":3},{"rune":"A","rune_set":"bacs1","hex":"#3366ff99","correct":32,"choice":32,"rt":986,"accuracy":1,"outcome":"+1","keys":[2503],"total_keys":1,"block":1,"trial":108,"stimulus":8,"robot":1,"valence":"win","action":"go","sham":1,"trial_type":"pit-trial","trial_index":138,"time_elapsed":727753,"internal_node_id":"0.0-113.0","task_version":"battery-v0.2-trt","session":3},{"rune":"Q","rune_set":"bacs1","hex":"#f73b6a7A","correct":-1,"choice":-1,"rt":-1,"accuracy":1,"outcome":"-1","keys":[],"total_keys":0,"block":1,"trial":109,"stimulus":11,"robot":4,"valence":"lose","action":"no-go","sham":0,"trial_type":"pit-trial","trial_index":139,"time_elapsed":731783,"internal_node_id":"0.0-114.0","task_version":"battery-v0.2-trt","session":3},{"rune":"L","rune_set":"bacs1","hex":"#f73b6a7A","correct":32,"choice":-1,"rt":-1,"accuracy":0,"outcome":"-1","keys":[],"total_keys":0,"block":1,"trial":110,"stimulus":10,"robot":3,"valence":"lose","action":"go","sham":1,"trial_type":"pit-trial","trial_index":140,"time_elapsed":735803,"internal_node_id":"0.0-115.0","task_version":"battery-v0.2-trt","session":3},{"rune":"A","rune_set":"bacs1","hex":"#3366ff99","correct":32,"choice":32,"rt":573,"accuracy":1,"outcome":"+10","keys":[2091],"total_keys":1,"block":1,"trial":111,"stimulus":8,"robot":1,"valence":"win","action":"go","sham":0,"trial_type":"pit-trial","trial_index":141,"time_elapsed":739103,"internal_node_id":"0.0-116.0","task_version":"battery-v0.2-trt","session":3},{"rune":"C","rune_set":"bacs1","hex":"#3366ff99","correct":-1,"choice":-1,"rt":-1,"accuracy":1,"outcome":"+10","keys":[],"total_keys":0,"block":1,"trial":112,"stimulus":9,"robot":2,"valence":"win","action":"no-go","sham":0,"trial_type":"pit-trial","trial_index":142,"time_elapsed":743133,"internal_node_id":"0.0-117.0","task_version":"battery-v0.2-trt","session":3},{"rune":"L","rune_set":"bacs1","hex":"#f73b6a7A","correct":32,"choice":-1,"rt":-1,"accuracy":0,"outcome":"-10","keys":[],"total_keys":0,"block":1,"trial":113,"stimulus":10,"robot":3,"valence":"lose","action":"go","sham":0,"trial_type":"pit-trial","trial_index":143,"time_elapsed":747143,"internal_node_id":"0.0-118.0","task_version":"battery-v0.2-trt","session":3},{"rune":"Q","rune_set":"bacs1","hex":"#f73b6a7A","correct":-1,"choice":-1,"rt":-1,"accuracy":1,"outcome":"-1","keys":[],"total_keys":0,"block":1,"trial":114,"stimulus":11,"robot":4,"valence":"lose","action":"no-go","sham":0,"trial_type":"pit-trial","trial_index":144,"time_elapsed":751164,"internal_node_id":"0.0-119.0","task_version":"battery-v0.2-trt","session":3},{"rune":"A","rune_set":"bacs1","hex":"#3366ff99","correct":32,"choice":32,"rt":642,"accuracy":1,"outcome":"+10","keys":[2159],"total_keys":1,"block":1,"trial":115,"stimulus":8,"robot":1,"valence":"win","action":"go","sham":0,"trial_type":"pit-trial","trial_index":145,"time_elapsed":754543,"internal_node_id":"0.0-120.0","task_version":"battery-v0.2-trt","session":3},{"rune":"C","rune_set":"bacs1","hex":"#3366ff99","correct":-1,"choice":-1,"rt":-1,"accuracy":1,"outcome":"+10","keys":[],"total_keys":0,"block":1,"trial":116,"stimulus":9,"robot":2,"valence":"win","action":"no-go","sham":0,"trial_type":"pit-trial","trial_index":146,"time_elapsed":758573,"internal_node_id":"0.0-121.0","task_version":"battery-v0.2-trt","session":3},{"rune":"Q","rune_set":"bacs1","hex":"#f73b6a7A","correct":-1,"choice":-1,"rt":-1,"accuracy":1,"outcome":"-1","keys":[],"total_keys":0,"block":1,"trial":117,"stimulus":11,"robot":4,"valence":"lose","action":"no-go","sham":0,"trial_type":"pit-trial","trial_index":147,"time_elapsed":762613,"internal_node_id":"0.0-122.0","task_version":"battery-v0.2-trt","session":3},{"rune":"C","rune_set":"bacs1","hex":"#3366ff99","correct":-1,"choice":-1,"rt":-1,"accuracy":1,"outcome":"+10","keys":[],"total_keys":0,"block":1,"trial":118,"stimulus":9,"robot":2,"valence":"win","action":"no-go","sham":0,"trial_type":"pit-trial","trial_index":148,"time_elapsed":766632,"internal_node_id":"0.0-123.0","task_version":"battery-v0.2-trt","session":3},{"rune":"L","rune_set":"bacs1","hex":"#f73b6a7A","correct":32,"choice":32,"rt":841,"accuracy":1,"outcome":"-1","keys":[2358],"total_keys":1,"block":1,"trial":119,"stimulus":10,"robot":3,"valence":"lose","action":"go","sham":0,"trial_type":"pit-trial","trial_index":149,"time_elapsed":770193,"internal_node_id":"0.0-124.0","task_version":"battery-v0.2-trt","session":3},{"rune":"A","rune_set":"bacs1","hex":"#3366ff99","correct":32,"choice":32,"rt":795,"accuracy":1,"outcome":"+1","keys":[2302],"total_keys":1,"block":1,"trial":120,"stimulus":8,"robot":1,"valence":"win","action":"go","sham":1,"trial_type":"pit-trial","trial_index":150,"time_elapsed":773712,"internal_node_id":"0.0-125.0","task_version":"battery-v0.2-trt","session":3},{"view_history":"[{\"page_index\":0,\"viewing_time\":43732},{\"page_index\":1,\"viewing_time\":18110}]","rt":61842,"trial_type":"pit-instructions","trial_index":151,"time_elapsed":835554,"internal_node_id":"0.0-126.0","task_version":"battery-v0.2-trt","session":3},{"rune":"H","rune_set":"bacs1","hex":"#3366ff99","correct":-1,"choice":32,"rt":807,"accuracy":0,"outcome":"+1","keys":[2310],"total_keys":1,"block":2,"trial":121,"stimulus":1,"robot":2,"valence":"win","action":"no-go","sham":0,"trial_type":"pit-trial","trial_index":152,"time_elapsed":839083,"internal_node_id":"0.0-127.0","task_version":"battery-v0.2-trt","session":3},{"rune":"Y","rune_set":"bacs1","hex":"#3366ff99","correct":-1,"choice":32,"rt":1014,"accuracy":0,"outcome":"+1","keys":[2532],"total_keys":1,"block":2,"trial":122,"stimulus":0,"robot":2,"valence":"win","action":"no-go","sham":0,"trial_type":"pit-trial","trial_index":153,"time_elapsed":842833,"internal_node_id":"0.0-128.0","task_version":"battery-v0.2-trt","session":3},{"rune":"M","rune_set":"bacs1","hex":"#f73b6a7A","correct":32,"choice":32,"rt":1252,"accuracy":1,"outcome":"-1","keys":[2769],"total_keys":1,"block":2,"trial":123,"stimulus":3,"robot":3,"valence":"lose","action":"go","sham":0,"trial_type":"pit-trial","trial_index":154,"time_elapsed":846813,"internal_node_id":"0.0-129.0","task_version":"battery-v0.2-trt","session":3},{"rune":"P","rune_set":"bacs1","hex":"#3366ff99","correct":32,"choice":32,"rt":1050,"accuracy":1,"outcome":"+1","keys":[2567],"total_keys":1,"block":2,"trial":124,"stimulus":2,"robot":1,"valence":"win","action":"go","sham":1,"trial_type":"pit-trial","trial_index":155,"time_elapsed":850593,"internal_node_id":"0.0-130.0","task_version":"battery-v0.2-trt","session":3},{"rune":"Y","rune_set":"bacs1","hex":"#3366ff99","correct":-1,"choice":-1,"rt":-1,"accuracy":1,"outcome":"+10","keys":[],"total_keys":0,"block":2,"trial":125,"stimulus":0,"robot":2,"valence":"win","action":"no-go","sham":0,"trial_type":"pit-trial","trial_index":156,"time_elapsed":854632,"internal_node_id":"0.0-131.0","task_version":"battery-v0.2-trt","session":3},{"rune":"M","rune_set":"bacs1","hex":"#f73b6a7A","correct":32,"choice":-1,"rt":-1,"accuracy":0,"outcome":"-1","keys":[],"total_keys":0,"block":2,"trial":126,"stimulus":3,"robot":3,"valence":"lose","action":"go","sham":1,"trial_type":"pit-trial","trial_index":157,"time_elapsed":858643,"internal_node_id":"0.0-132.0","task_version":"battery-v0.2-trt","session":3},{"rune":"P","rune_set":"bacs1","hex":"#3366ff99","correct":32,"choice":-1,"rt":-1,"accuracy":0,"outcome":"+1","keys":[3609],"total_keys":1,"block":2,"trial":127,"stimulus":2,"robot":1,"valence":"win","action":"go","sham":0,"trial_type":"pit-trial","trial_index":158,"time_elapsed":862682,"internal_node_id":"0.0-133.0","task_version":"battery-v0.2-trt","session":3},{"rune":"H","rune_set":"bacs1","hex":"#3366ff99","correct":-1,"choice":-1,"rt":-1,"accuracy":1,"outcome":"+10","keys":[],"total_keys":0,"block":2,"trial":128,"stimulus":1,"robot":2,"valence":"win","action":"no-go","sham":0,"trial_type":"pit-trial","trial_index":159,"time_elapsed":866723,"internal_node_id":"0.0-134.0","task_version":"battery-v0.2-trt","session":3},{"rune":"P","rune_set":"bacs1","hex":"#3366ff99","correct":32,"choice":-1,"rt":-1,"accuracy":0,"outcome":"+1","keys":[],"total_keys":0,"block":2,"trial":129,"stimulus":2,"robot":1,"valence":"win","action":"go","sham":0,"trial_type":"pit-trial","trial_index":160,"time_elapsed":870743,"internal_node_id":"0.0-135.0","task_version":"battery-v0.2-trt","session":3},{"rune":"M","rune_set":"bacs1","hex":"#f73b6a7A","correct":32,"choice":-1,"rt":-1,"accuracy":0,"outcome":"-10","keys":[],"total_keys":0,"block":2,"trial":130,"stimulus":3,"robot":3,"valence":"lose","action":"go","sham":0,"trial_type":"pit-trial","trial_index":161,"time_elapsed":874773,"internal_node_id":"0.0-136.0","task_version":"battery-v0.2-trt","session":3},{"rune":"Y","rune_set":"bacs1","hex":"#3366ff99","correct":-1,"choice":-1,"rt":-1,"accuracy":1,"outcome":"+1","keys":[],"total_keys":0,"block":2,"trial":131,"stimulus":0,"robot":2,"valence":"win","action":"no-go","sham":1,"trial_type":"pit-trial","trial_index":162,"time_elapsed":878813,"internal_node_id":"0.0-137.0","task_version":"battery-v0.2-trt","session":3},{"rune":"H","rune_set":"bacs1","hex":"#3366ff99","correct":-1,"choice":32,"rt":661,"accuracy":0,"outcome":"+10","keys":[2179],"total_keys":1,"block":2,"trial":132,"stimulus":1,"robot":2,"valence":"win","action":"no-go","sham":1,"trial_type":"pit-trial","trial_index":163,"time_elapsed":882212,"internal_node_id":"0.0-138.0","task_version":"battery-v0.2-trt","session":3},{"rune":"H","rune_set":"bacs1","hex":"#3366ff99","correct":-1,"choice":32,"rt":488,"accuracy":0,"outcome":"+1","keys":[2006],"total_keys":1,"block":2,"trial":133,"stimulus":1,"robot":2,"valence":"win","action":"no-go","sham":0,"trial_type":"pit-trial","trial_index":164,"time_elapsed":885432,"internal_node_id":"0.0-139.0","task_version":"battery-v0.2-trt","session":3},{"rune":"Y","rune_set":"bacs1","hex":"#3366ff99","correct":-1,"choice":32,"rt":544,"accuracy":0,"outcome":"+10","keys":[2062],"total_keys":1,"block":2,"trial":134,"stimulus":0,"robot":2,"valence":"win","action":"no-go","sham":1,"trial_type":"pit-trial","trial_index":165,"time_elapsed":888712,"internal_node_id":"0.0-140.0","task_version":"battery-v0.2-trt","session":3},{"rune":"P","rune_set":"bacs1","hex":"#3366ff99","correct":32,"choice":32,"rt":555,"accuracy":1,"outcome":"+10","keys":[2073],"total_keys":1,"block":2,"trial":135,"stimulus":2,"robot":1,"valence":"win","action":"go","sham":0,"trial_type":"pit-trial","trial_index":166,"time_elapsed":892002,"internal_node_id":"0.0-141.0","task_version":"battery-v0.2-trt","session":3},{"rune":"M","rune_set":"bacs1","hex":"#f73b6a7A","correct":32,"choice":32,"rt":810,"accuracy":1,"outcome":"-1","keys":[2327],"total_keys":1,"block":2,"trial":136,"stimulus":3,"robot":3,"valence":"lose","action":"go","sham":0,"trial_type":"pit-trial","trial_index":167,"time_elapsed":895543,"internal_node_id":"0.0-142.0","task_version":"battery-v0.2-trt","session":3},{"rune":"Y","rune_set":"bacs1","hex":"#3366ff99","correct":-1,"choice":32,"rt":689,"accuracy":0,"outcome":"+1","keys":[2206],"total_keys":1,"block":2,"trial":137,"stimulus":0,"robot":2,"valence":"win","action":"no-go","sham":0,"trial_type":"pit-trial","trial_index":168,"time_elapsed":898962,"internal_node_id":"0.0-143.0","task_version":"battery-v0.2-trt","session":3},{"rune":"H","rune_set":"bacs1","hex":"#3366ff99","correct":-1,"choice":32,"rt":510,"accuracy":0,"outcome":"+1","keys":[2018],"total_keys":1,"block":2,"trial":138,"stimulus":1,"robot":2,"valence":"win","action":"no-go","sham":0,"trial_type":"pit-trial","trial_index":169,"time_elapsed":902182,"internal_node_id":"0.0-144.0","task_version":"battery-v0.2-trt","session":3},{"rune":"M","rune_set":"bacs1","hex":"#f73b6a7A","correct":32,"choice":32,"rt":742,"accuracy":1,"outcome":"-1","keys":[2259],"total_keys":1,"block":2,"trial":139,"stimulus":3,"robot":3,"valence":"lose","action":"go","sham":0,"trial_type":"pit-trial","trial_index":170,"time_elapsed":905653,"internal_node_id":"0.0-145.0","task_version":"battery-v0.2-trt","session":3},{"rune":"P","rune_set":"bacs1","hex":"#3366ff99","correct":32,"choice":32,"rt":575,"accuracy":1,"outcome":"+10","keys":[2092],"total_keys":1,"block":2,"trial":140,"stimulus":2,"robot":1,"valence":"win","action":"go","sham":0,"trial_type":"pit-trial","trial_index":171,"time_elapsed":908952,"internal_node_id":"0.0-146.0","task_version":"battery-v0.2-trt","session":3},{"rune":"H","rune_set":"bacs1","hex":"#3366ff99","correct":-1,"choice":32,"rt":754,"accuracy":0,"outcome":"+1","keys":[2271],"total_keys":1,"block":2,"trial":141,"stimulus":1,"robot":2,"valence":"win","action":"no-go","sham":0,"trial_type":"pit-trial","trial_index":172,"time_elapsed":912432,"internal_node_id":"0.0-147.0","task_version":"battery-v0.2-trt","session":3},{"rune":"Y","rune_set":"bacs1","hex":"#3366ff99","correct":-1,"choice":-1,"rt":-1,"accuracy":1,"outcome":"+10","keys":[],"total_keys":0,"block":2,"trial":142,"stimulus":0,"robot":2,"valence":"win","action":"no-go","sham":0,"trial_type":"pit-trial","trial_index":173,"time_elapsed":916463,"internal_node_id":"0.0-148.0","task_version":"battery-v0.2-trt","session":3},{"rune":"P","rune_set":"bacs1","hex":"#3366ff99","correct":32,"choice":32,"rt":802,"accuracy":1,"outcome":"+1","keys":[2309],"total_keys":1,"block":2,"trial":143,"stimulus":2,"robot":1,"valence":"win","action":"go","sham":1,"trial_type":"pit-trial","trial_index":174,"time_elapsed":919993,"internal_node_id":"0.0-149.0","task_version":"battery-v0.2-trt","session":3},{"rune":"M","rune_set":"bacs1","hex":"#f73b6a7A","correct":32,"choice":32,"rt":403,"accuracy":1,"outcome":"-1","keys":[1921],"total_keys":1,"block":2,"trial":144,"stimulus":3,"robot":3,"valence":"lose","action":"go","sham":0,"trial_type":"pit-trial","trial_index":175,"time_elapsed":923132,"internal_node_id":"0.0-150.0","task_version":"battery-v0.2-trt","session":3},{"rune":"H","rune_set":"bacs1","hex":"#3366ff99","correct":-1,"choice":32,"rt":813,"accuracy":0,"outcome":"+1","keys":[2331],"total_keys":1,"block":2,"trial":145,"stimulus":1,"robot":2,"valence":"win","action":"no-go","sham":0,"trial_type":"pit-trial","trial_index":176,"time_elapsed":926682,"internal_node_id":"0.0-151.0","task_version":"battery-v0.2-trt","session":3},{"rune":"P","rune_set":"bacs1","hex":"#3366ff99","correct":32,"choice":-1,"rt":-1,"accuracy":0,"outcome":"+1","keys":[],"total_keys":0,"block":2,"trial":146,"stimulus":2,"robot":1,"valence":"win","action":"go","sham":0,"trial_type":"pit-trial","trial_index":177,"time_elapsed":930702,"internal_node_id":"0.0-152.0","task_version":"battery-v0.2-trt","session":3},{"rune":"M","rune_set":"bacs1","hex":"#f73b6a7A","correct":32,"choice":32,"rt":431,"accuracy":1,"outcome":"-1","keys":[1937],"total_keys":1,"block":2,"trial":147,"stimulus":3,"robot":3,"valence":"lose","action":"go","sham":0,"trial_type":"pit-trial","trial_index":178,"time_elapsed":933853,"internal_node_id":"0.0-153.0","task_version":"battery-v0.2-trt","session":3},{"rune":"Y","rune_set":"bacs1","hex":"#3366ff99","correct":-1,"choice":-1,"rt":-1,"accuracy":1,"outcome":"+10","keys":[],"total_keys":0,"block":2,"trial":148,"stimulus":0,"robot":2,"valence":"win","action":"no-go","sham":0,"trial_type":"pit-trial","trial_index":179,"time_elapsed":937863,"internal_node_id":"0.0-154.0","task_version":"battery-v0.2-trt","session":3},{"rune":"Y","rune_set":"bacs1","hex":"#3366ff99","correct":-1,"choice":32,"rt":778,"accuracy":0,"outcome":"+10","keys":[2295],"total_keys":1,"block":2,"trial":149,"stimulus":0,"robot":2,"valence":"win","action":"no-go","sham":1,"trial_type":"pit-trial","trial_index":180,"time_elapsed":941361,"internal_node_id":"0.0-155.0","task_version":"battery-v0.2-trt","session":3},{"rune":"H","rune_set":"bacs1","hex":"#3366ff99","correct":-1,"choice":32,"rt":667,"accuracy":0,"outcome":"+1","keys":[2176],"total_keys":1,"block":2,"trial":150,"stimulus":1,"robot":2,"valence":"win","action":"no-go","sham":0,"trial_type":"pit-trial","trial_index":181,"time_elapsed":944748,"internal_node_id":"0.0-156.0","task_version":"battery-v0.2-trt","session":3},{"rune":"P","rune_set":"bacs1","hex":"#3366ff99","correct":32,"choice":32,"rt":651,"accuracy":1,"outcome":"+10","keys":[2152],"total_keys":1,"block":2,"trial":151,"stimulus":2,"robot":1,"valence":"win","action":"go","sham":0,"trial_type":"pit-trial","trial_index":182,"time_elapsed":948112,"internal_node_id":"0.0-157.0","task_version":"battery-v0.2-trt","session":3},{"rune":"M","rune_set":"bacs1","hex":"#f73b6a7A","correct":32,"choice":32,"rt":529,"accuracy":1,"outcome":"-1","keys":[2045],"total_keys":1,"block":2,"trial":152,"stimulus":3,"robot":3,"valence":"lose","action":"go","sham":0,"trial_type":"pit-trial","trial_index":183,"time_elapsed":951362,"internal_node_id":"0.0-158.0","task_version":"battery-v0.2-trt","session":3},{"rune":"S","rune_set":"bacs1","hex":"#f73b6a7A","correct":32,"choice":-1,"rt":-1,"accuracy":0,"outcome":"-10","keys":[],"total_keys":0,"block":2,"trial":153,"stimulus":5,"robot":3,"valence":"lose","action":"go","sham":0,"trial_type":"pit-trial","trial_index":184,"time_elapsed":955392,"internal_node_id":"0.0-159.0","task_version":"battery-v0.2-trt","session":3},{"rune":"Y","rune_set":"bacs1","hex":"#3366ff99","correct":-1,"choice":32,"rt":724,"accuracy":0,"outcome":"+1","keys":[2232],"total_keys":1,"block":2,"trial":154,"stimulus":0,"robot":2,"valence":"win","action":"no-go","sham":0,"trial_type":"pit-trial","trial_index":185,"time_elapsed":958843,"internal_node_id":"0.0-160.0","task_version":"battery-v0.2-trt","session":3},{"rune":"P","rune_set":"bacs1","hex":"#3366ff99","correct":32,"choice":32,"rt":877,"accuracy":1,"outcome":"+10","keys":[2396],"total_keys":1,"block":2,"trial":155,"stimulus":2,"robot":1,"valence":"win","action":"go","sham":0,"trial_type":"pit-trial","trial_index":186,"time_elapsed":962443,"internal_node_id":"0.0-161.0","task_version":"battery-v0.2-trt","session":3},{"rune":"U","rune_set":"bacs1","hex":"#f73b6a7A","correct":-1,"choice":32,"rt":946,"accuracy":0,"outcome":"-10","keys":[2464],"total_keys":1,"block":2,"trial":156,"stimulus":4,"robot":4,"valence":"lose","action":"no-go","sham":0,"trial_type":"pit-trial","trial_index":187,"time_elapsed":966123,"internal_node_id":"0.0-162.0","task_version":"battery-v0.2-trt","session":3},{"rune":"S","rune_set":"bacs1","hex":"#f73b6a7A","correct":32,"choice":32,"rt":661,"accuracy":1,"outcome":"-1","keys":[2178],"total_keys":1,"block":2,"trial":157,"stimulus":5,"robot":3,"valence":"lose","action":"go","sham":0,"trial_type":"pit-trial","trial_index":188,"time_elapsed":969522,"internal_node_id":"0.0-163.0","task_version":"battery-v0.2-trt","session":3},{"rune":"Y","rune_set":"bacs1","hex":"#3366ff99","correct":-1,"choice":-1,"rt":-1,"accuracy":1,"outcome":"+10","keys":[],"total_keys":0,"block":2,"trial":158,"stimulus":0,"robot":2,"valence":"win","action":"no-go","sham":0,"trial_type":"pit-trial","trial_index":189,"time_elapsed":973543,"internal_node_id":"0.0-164.0","task_version":"battery-v0.2-trt","session":3},{"rune":"P","rune_set":"bacs1","hex":"#3366ff99","correct":32,"choice":32,"rt":572,"accuracy":1,"outcome":"+10","keys":[2090],"total_keys":1,"block":2,"trial":159,"stimulus":2,"robot":1,"valence":"win","action":"go","sham":0,"trial_type":"pit-trial","trial_index":190,"time_elapsed":976853,"internal_node_id":"0.0-165.0","task_version":"battery-v0.2-trt","session":3},{"rune":"U","rune_set":"bacs1","hex":"#f73b6a7A","correct":-1,"choice":-1,"rt":-1,"accuracy":1,"outcome":"-10","keys":[],"total_keys":0,"block":2,"trial":160,"stimulus":4,"robot":4,"valence":"lose","action":"no-go","sham":1,"trial_type":"pit-trial","trial_index":191,"time_elapsed":980882,"internal_node_id":"0.0-166.0","task_version":"battery-v0.2-trt","session":3},{"rune":"K","rune_set":"bacs1","hex":"#3366ff99","correct":-1,"choice":32,"rt":840,"accuracy":0,"outcome":"+10","keys":[2347],"total_keys":1,"block":2,"trial":161,"stimulus":6,"robot":2,"valence":"win","action":"no-go","sham":1,"trial_type":"pit-trial","trial_index":192,"time_elapsed":984453,"internal_node_id":"0.0-167.0","task_version":"battery-v0.2-trt","session":3},{"rune":"P","rune_set":"bacs1","hex":"#3366ff99","correct":32,"choice":32,"rt":625,"accuracy":1,"outcome":"+10","keys":[2143],"total_keys":1,"block":2,"trial":162,"stimulus":2,"robot":1,"valence":"win","action":"go","sham":0,"trial_type":"pit-trial","trial_index":193,"time_elapsed":987813,"internal_node_id":"0.0-168.0","task_version":"battery-v0.2-trt","session":3},{"rune":"U","rune_set":"bacs1","hex":"#f73b6a7A","correct":-1,"choice":32,"rt":842,"accuracy":0,"outcome":"-10","keys":[2360],"total_keys":1,"block":2,"trial":163,"stimulus":4,"robot":4,"valence":"lose","action":"no-go","sham":0,"trial_type":"pit-trial","trial_index":194,"time_elapsed":991375,"internal_node_id":"0.0-169.0","task_version":"battery-v0.2-trt","session":3},{"rune":"S","rune_set":"bacs1","hex":"#f73b6a7A","correct":32,"choice":32,"rt":626,"accuracy":1,"outcome":"-10","keys":[2128],"total_keys":1,"block":2,"trial":164,"stimulus":5,"robot":3,"valence":"lose","action":"go","sham":1,"trial_type":"pit-trial","trial_index":195,"time_elapsed":994712,"internal_node_id":"0.0-170.0","task_version":"battery-v0.2-trt","session":3},{"rune":"K","rune_set":"bacs1","hex":"#3366ff99","correct":-1,"choice":32,"rt":614,"accuracy":0,"outcome":"+1","keys":[2115],"total_keys":1,"block":2,"trial":165,"stimulus":6,"robot":2,"valence":"win","action":"no-go","sham":0,"trial_type":"pit-trial","trial_index":196,"time_elapsed":998032,"internal_node_id":"0.0-171.0","task_version":"battery-v0.2-trt","session":3},{"rune":"S","rune_set":"bacs1","hex":"#f73b6a7A","correct":32,"choice":32,"rt":840,"accuracy":1,"outcome":"-1","keys":[2357],"total_keys":1,"block":2,"trial":166,"stimulus":5,"robot":3,"valence":"lose","action":"go","sham":0,"trial_type":"pit-trial","trial_index":197,"time_elapsed":1001592,"internal_node_id":"0.0-172.0","task_version":"battery-v0.2-trt","session":3},{"rune":"P","rune_set":"bacs1","hex":"#3366ff99","correct":32,"choice":32,"rt":595,"accuracy":1,"outcome":"+1","keys":[2112],"total_keys":1,"block":2,"trial":167,"stimulus":2,"robot":1,"valence":"win","action":"go","sham":1,"trial_type":"pit-trial","trial_index":198,"time_elapsed":1004912,"internal_node_id":"0.0-173.0","task_version":"battery-v0.2-trt","session":3},{"rune":"U","rune_set":"bacs1","hex":"#f73b6a7A","correct":-1,"choice":32,"rt":123,"accuracy":0,"outcome":"-10","keys":[1623],"total_keys":1,"block":2,"trial":168,"stimulus":4,"robot":4,"valence":"lose","action":"no-go","sham":0,"trial_type":"pit-trial","trial_index":199,"time_elapsed":1007743,"internal_node_id":"0.0-174.0","task_version":"battery-v0.2-trt","session":3},{"rune":"S","rune_set":"bacs1","hex":"#f73b6a7A","correct":32,"choice":-1,"rt":-1,"accuracy":0,"outcome":"-1","keys":[],"total_keys":0,"block":2,"trial":169,"stimulus":5,"robot":3,"valence":"lose","action":"go","sham":1,"trial_type":"pit-trial","trial_index":200,"time_elapsed":1011772,"internal_node_id":"0.0-175.0","task_version":"battery-v0.2-trt","session":3},{"rune":"K","rune_set":"bacs1","hex":"#3366ff99","correct":-1,"choice":32,"rt":921,"accuracy":0,"outcome":"+1","keys":[2439],"total_keys":1,"block":2,"trial":170,"stimulus":6,"robot":2,"valence":"win","action":"no-go","sham":0,"trial_type":"pit-trial","trial_index":201,"time_elapsed":1015432,"internal_node_id":"0.0-176.0","task_version":"battery-v0.2-trt","session":3},{"rune":"U","rune_set":"bacs1","hex":"#f73b6a7A","correct":-1,"choice":-1,"rt":-1,"accuracy":1,"outcome":"-10","keys":[],"total_keys":0,"block":2,"trial":171,"stimulus":4,"robot":4,"valence":"lose","action":"no-go","sham":1,"trial_type":"pit-trial","trial_index":202,"time_elapsed":1019473,"internal_node_id":"0.0-177.0","task_version":"battery-v0.2-trt","session":3},{"rune":"D","rune_set":"bacs1","hex":"#f73b6a7A","correct":-1,"choice":32,"rt":285,"accuracy":0,"outcome":"-10","keys":[1802],"total_keys":1,"block":2,"trial":172,"stimulus":7,"robot":4,"valence":"lose","action":"no-go","sham":0,"trial_type":"pit-trial","trial_index":203,"time_elapsed":1022483,"internal_node_id":"0.0-178.0","task_version":"battery-v0.2-trt","session":3},{"rune":"S","rune_set":"bacs1","hex":"#f73b6a7A","correct":32,"choice":32,"rt":892,"accuracy":1,"outcome":"-1","keys":[2409],"total_keys":1,"block":2,"trial":173,"stimulus":5,"robot":3,"valence":"lose","action":"go","sham":0,"trial_type":"pit-trial","trial_index":204,"time_elapsed":1026112,"internal_node_id":"0.0-179.0","task_version":"battery-v0.2-trt","session":3},{"rune":"U","rune_set":"bacs1","hex":"#f73b6a7A","correct":-1,"choice":-1,"rt":-1,"accuracy":1,"outcome":"-1","keys":[],"total_keys":0,"block":2,"trial":174,"stimulus":4,"robot":4,"valence":"lose","action":"no-go","sham":0,"trial_type":"pit-trial","trial_index":205,"time_elapsed":1030153,"internal_node_id":"0.0-180.0","task_version":"battery-v0.2-trt","session":3},{"rune":"K","rune_set":"bacs1","hex":"#3366ff99","correct":-1,"choice":-1,"rt":-1,"accuracy":1,"outcome":"+10","keys":[],"total_keys":0,"block":2,"trial":175,"stimulus":6,"robot":2,"valence":"win","action":"no-go","sham":0,"trial_type":"pit-trial","trial_index":206,"time_elapsed":1034173,"internal_node_id":"0.0-181.0","task_version":"battery-v0.2-trt","session":3},{"rune":"D","rune_set":"bacs1","hex":"#f73b6a7A","correct":-1,"choice":-1,"rt":-1,"accuracy":1,"outcome":"-1","keys":[],"total_keys":0,"block":2,"trial":176,"stimulus":7,"robot":4,"valence":"lose","action":"no-go","sham":0,"trial_type":"pit-trial","trial_index":207,"time_elapsed":1038192,"internal_node_id":"0.0-182.0","task_version":"battery-v0.2-trt","session":3},{"rune":"S","rune_set":"bacs1","hex":"#f73b6a7A","correct":32,"choice":32,"rt":1016,"accuracy":1,"outcome":"-1","keys":[2533],"total_keys":1,"block":2,"trial":177,"stimulus":5,"robot":3,"valence":"lose","action":"go","sham":0,"trial_type":"pit-trial","trial_index":208,"time_elapsed":1041932,"internal_node_id":"0.0-183.0","task_version":"battery-v0.2-trt","session":3},{"rune":"K","rune_set":"bacs1","hex":"#3366ff99","correct":-1,"choice":-1,"rt":-1,"accuracy":1,"outcome":"+10","keys":[],"total_keys":0,"block":2,"trial":178,"stimulus":6,"robot":2,"valence":"win","action":"no-go","sham":0,"trial_type":"pit-trial","trial_index":209,"time_elapsed":1045962,"internal_node_id":"0.0-184.0","task_version":"battery-v0.2-trt","session":3},{"rune":"U","rune_set":"bacs1","hex":"#f73b6a7A","correct":-1,"choice":-1,"rt":-1,"accuracy":1,"outcome":"-1","keys":[],"total_keys":0,"block":2,"trial":179,"stimulus":4,"robot":4,"valence":"lose","action":"no-go","sham":0,"trial_type":"pit-trial","trial_index":210,"time_elapsed":1049992,"internal_node_id":"0.0-185.0","task_version":"battery-v0.2-trt","session":3},{"rune":"D","rune_set":"bacs1","hex":"#f73b6a7A","correct":-1,"choice":-1,"rt":-1,"accuracy":1,"outcome":"-1","keys":[],"total_keys":0,"block":2,"trial":180,"stimulus":7,"robot":4,"valence":"lose","action":"no-go","sham":0,"trial_type":"pit-trial","trial_index":211,"time_elapsed":1054003,"internal_node_id":"0.0-186.0","task_version":"battery-v0.2-trt","session":3},{"rune":"S","rune_set":"bacs1","hex":"#f73b6a7A","correct":32,"choice":32,"rt":959,"accuracy":1,"outcome":"-1","keys":[2475],"total_keys":1,"block":2,"trial":181,"stimulus":5,"robot":3,"valence":"lose","action":"go","sham":0,"trial_type":"pit-trial","trial_index":212,"time_elapsed":1057682,"internal_node_id":"0.0-187.0","task_version":"battery-v0.2-trt","session":3},{"rune":"K","rune_set":"bacs1","hex":"#3366ff99","correct":-1,"choice":-1,"rt":-1,"accuracy":1,"outcome":"+10","keys":[],"total_keys":0,"block":2,"trial":182,"stimulus":6,"robot":2,"valence":"win","action":"no-go","sham":0,"trial_type":"pit-trial","trial_index":213,"time_elapsed":1061722,"internal_node_id":"0.0-188.0","task_version":"battery-v0.2-trt","session":3},{"rune":"U","rune_set":"bacs1","hex":"#f73b6a7A","correct":-1,"choice":-1,"rt":-1,"accuracy":1,"outcome":"-1","keys":[],"total_keys":0,"block":2,"trial":183,"stimulus":4,"robot":4,"valence":"lose","action":"no-go","sham":0,"trial_type":"pit-trial","trial_index":214,"time_elapsed":1065762,"internal_node_id":"0.0-189.0","task_version":"battery-v0.2-trt","session":3},{"rune":"D","rune_set":"bacs1","hex":"#f73b6a7A","correct":-1,"choice":-1,"rt":-1,"accuracy":1,"outcome":"-10","keys":[],"total_keys":0,"block":2,"trial":184,"stimulus":7,"robot":4,"valence":"lose","action":"no-go","sham":1,"trial_type":"pit-trial","trial_index":215,"time_elapsed":1069803,"internal_node_id":"0.0-190.0","task_version":"battery-v0.2-trt","session":3},{"rune":"K","rune_set":"bacs1","hex":"#3366ff99","correct":-1,"choice":32,"rt":779,"accuracy":0,"outcome":"+1","keys":[2297],"total_keys":1,"block":2,"trial":185,"stimulus":6,"robot":2,"valence":"win","action":"no-go","sham":0,"trial_type":"pit-trial","trial_index":216,"time_elapsed":1073310,"internal_node_id":"0.0-191.0","task_version":"battery-v0.2-trt","session":3},{"rune":"S","rune_set":"bacs1","hex":"#f73b6a7A","correct":32,"choice":32,"rt":795,"accuracy":1,"outcome":"-1","keys":[2315],"total_keys":1,"block":2,"trial":186,"stimulus":5,"robot":3,"valence":"lose","action":"go","sham":0,"trial_type":"pit-trial","trial_index":217,"time_elapsed":1076833,"internal_node_id":"0.0-192.0","task_version":"battery-v0.2-trt","session":3},{"rune":"U","rune_set":"bacs1","hex":"#f73b6a7A","correct":-1,"choice":-1,"rt":-1,"accuracy":1,"outcome":"-1","keys":[],"total_keys":0,"block":2,"trial":187,"stimulus":4,"robot":4,"valence":"lose","action":"no-go","sham":0,"trial_type":"pit-trial","trial_index":218,"time_elapsed":1080872,"internal_node_id":"0.0-193.0","task_version":"battery-v0.2-trt","session":3},{"rune":"D","rune_set":"bacs1","hex":"#f73b6a7A","correct":-1,"choice":-1,"rt":-1,"accuracy":1,"outcome":"-1","keys":[],"total_keys":0,"block":2,"trial":188,"stimulus":7,"robot":4,"valence":"lose","action":"no-go","sham":0,"trial_type":"pit-trial","trial_index":219,"time_elapsed":1084902,"internal_node_id":"0.0-194.0","task_version":"battery-v0.2-trt","session":3},{"rune":"K","rune_set":"bacs1","hex":"#3366ff99","correct":-1,"choice":32,"rt":806,"accuracy":0,"outcome":"+1","keys":[2306],"total_keys":1,"block":2,"trial":189,"stimulus":6,"robot":2,"valence":"win","action":"no-go","sham":0,"trial_type":"pit-trial","trial_index":220,"time_elapsed":1088412,"internal_node_id":"0.0-195.0","task_version":"battery-v0.2-trt","session":3},{"rune":"D","rune_set":"bacs1","hex":"#f73b6a7A","correct":-1,"choice":-1,"rt":-1,"accuracy":1,"outcome":"-1","keys":[],"total_keys":0,"block":2,"trial":190,"stimulus":7,"robot":4,"valence":"lose","action":"no-go","sham":0,"trial_type":"pit-trial","trial_index":221,"time_elapsed":1092442,"internal_node_id":"0.0-196.0","task_version":"battery-v0.2-trt","session":3},{"rune":"S","rune_set":"bacs1","hex":"#f73b6a7A","correct":32,"choice":32,"rt":1062,"accuracy":1,"outcome":"-1","keys":[2570],"total_keys":1,"block":2,"trial":191,"stimulus":5,"robot":3,"valence":"lose","action":"go","sham":0,"trial_type":"pit-trial","trial_index":222,"time_elapsed":1096233,"internal_node_id":"0.0-197.0","task_version":"battery-v0.2-trt","session":3},{"rune":"U","rune_set":"bacs1","hex":"#f73b6a7A","correct":-1,"choice":-1,"rt":-1,"accuracy":1,"outcome":"-1","keys":[],"total_keys":0,"block":2,"trial":192,"stimulus":4,"robot":4,"valence":"lose","action":"no-go","sham":0,"trial_type":"pit-trial","trial_index":223,"time_elapsed":1100263,"internal_node_id":"0.0-198.0","task_version":"battery-v0.2-trt","session":3},{"rune":"S","rune_set":"bacs1","hex":"#f73b6a7A","correct":32,"choice":32,"rt":734,"accuracy":1,"outcome":"-1","keys":[2246],"total_keys":1,"block":2,"trial":193,"stimulus":5,"robot":3,"valence":"lose","action":"go","sham":0,"trial_type":"pit-trial","trial_index":224,"time_elapsed":1103712,"internal_node_id":"0.0-199.0","task_version":"battery-v0.2-trt","session":3},{"rune":"D","rune_set":"bacs1","hex":"#f73b6a7A","correct":-1,"choice":-1,"rt":-1,"accuracy":1,"outcome":"-1","keys":[],"total_keys":0,"block":2,"trial":194,"stimulus":7,"robot":4,"valence":"lose","action":"no-go","sham":0,"trial_type":"pit-trial","trial_index":225,"time_elapsed":1107723,"internal_node_id":"0.0-200.0","task_version":"battery-v0.2-trt","session":3},{"rune":"K","rune_set":"bacs1","hex":"#3366ff99","correct":-1,"choice":-1,"rt":-1,"accuracy":1,"outcome":"+10","keys":[],"total_keys":0,"block":2,"trial":195,"stimulus":6,"robot":2,"valence":"win","action":"no-go","sham":0,"trial_type":"pit-trial","trial_index":226,"time_elapsed":1111753,"internal_node_id":"0.0-201.0","task_version":"battery-v0.2-trt","session":3},{"rune":"O","rune_set":"bacs1","hex":"#f73b6a7A","correct":-1,"choice":32,"rt":954,"accuracy":0,"outcome":"-10","keys":[2472],"total_keys":1,"block":2,"trial":196,"stimulus":8,"robot":4,"valence":"lose","action":"no-go","sham":0,"trial_type":"pit-trial","trial_index":227,"time_elapsed":1115432,"internal_node_id":"0.0-202.0","task_version":"battery-v0.2-trt","session":3},{"rune":"S","rune_set":"bacs1","hex":"#f73b6a7A","correct":32,"choice":32,"rt":745,"accuracy":1,"outcome":"-1","keys":[2263],"total_keys":1,"block":2,"trial":197,"stimulus":5,"robot":3,"valence":"lose","action":"go","sham":0,"trial_type":"pit-trial","trial_index":228,"time_elapsed":1118903,"internal_node_id":"0.0-203.0","task_version":"battery-v0.2-trt","session":3},{"rune":"O","rune_set":"bacs1","hex":"#f73b6a7A","correct":-1,"choice":-1,"rt":-1,"accuracy":1,"outcome":"-1","keys":[],"total_keys":0,"block":2,"trial":198,"stimulus":8,"robot":4,"valence":"lose","action":"no-go","sham":0,"trial_type":"pit-trial","trial_index":229,"time_elapsed":1122912,"internal_node_id":"0.0-204.0","task_version":"battery-v0.2-trt","session":3},{"rune":"K","rune_set":"bacs1","hex":"#3366ff99","correct":-1,"choice":-1,"rt":-1,"accuracy":1,"outcome":"+1","keys":[],"total_keys":0,"block":2,"trial":199,"stimulus":6,"robot":2,"valence":"win","action":"no-go","sham":1,"trial_type":"pit-trial","trial_index":230,"time_elapsed":1126942,"internal_node_id":"0.0-205.0","task_version":"battery-v0.2-trt","session":3},{"rune":"D","rune_set":"bacs1","hex":"#f73b6a7A","correct":-1,"choice":-1,"rt":-1,"accuracy":1,"outcome":"-1","keys":[],"total_keys":0,"block":2,"trial":200,"stimulus":7,"robot":4,"valence":"lose","action":"no-go","sham":0,"trial_type":"pit-trial","trial_index":231,"time_elapsed":1130953,"internal_node_id":"0.0-206.0","task_version":"battery-v0.2-trt","session":3},{"rune":"O","rune_set":"bacs1","hex":"#f73b6a7A","correct":-1,"choice":-1,"rt":-1,"accuracy":1,"outcome":"-1","keys":[],"total_keys":0,"block":2,"trial":201,"stimulus":8,"robot":4,"valence":"lose","action":"no-go","sham":0,"trial_type":"pit-trial","trial_index":232,"time_elapsed":1134962,"internal_node_id":"0.0-207.0","task_version":"battery-v0.2-trt","session":3},{"rune":"I","rune_set":"bacs1","hex":"#3366ff99","correct":32,"choice":32,"rt":891,"accuracy":1,"outcome":"+10","keys":[2400],"total_keys":1,"block":2,"trial":202,"stimulus":9,"robot":1,"valence":"win","action":"go","sham":0,"trial_type":"pit-trial","trial_index":233,"time_elapsed":1138572,"internal_node_id":"0.0-208.0","task_version":"battery-v0.2-trt","session":3},{"rune":"K","rune_set":"bacs1","hex":"#3366ff99","correct":-1,"choice":32,"rt":671,"accuracy":0,"outcome":"+1","keys":[2177],"total_keys":1,"block":2,"trial":203,"stimulus":6,"robot":2,"valence":"win","action":"no-go","sham":0,"trial_type":"pit-trial","trial_index":234,"time_elapsed":1141963,"internal_node_id":"0.0-209.0","task_version":"battery-v0.2-trt","session":3},{"rune":"G","rune_set":"bacs1","hex":"#f73b6a7A","correct":32,"choice":-1,"rt":-1,"accuracy":0,"outcome":"-10","keys":[],"total_keys":0,"block":2,"trial":204,"stimulus":10,"robot":3,"valence":"lose","action":"go","sham":0,"trial_type":"pit-trial","trial_index":235,"time_elapsed":1145982,"internal_node_id":"0.0-210.0","task_version":"battery-v0.2-trt","session":3},{"rune":"O","rune_set":"bacs1","hex":"#f73b6a7A","correct":-1,"choice":-1,"rt":-1,"accuracy":1,"outcome":"-1","keys":[],"total_keys":0,"block":2,"trial":205,"stimulus":8,"robot":4,"valence":"lose","action":"no-go","sham":0,"trial_type":"pit-trial","trial_index":236,"time_elapsed":1150003,"internal_node_id":"0.0-211.0","task_version":"battery-v0.2-trt","session":3},{"rune":"I","rune_set":"bacs1","hex":"#3366ff99","correct":32,"choice":32,"rt":713,"accuracy":1,"outcome":"+10","keys":[2231],"total_keys":1,"block":2,"trial":206,"stimulus":9,"robot":1,"valence":"win","action":"go","sham":0,"trial_type":"pit-trial","trial_index":237,"time_elapsed":1153442,"internal_node_id":"0.0-212.0","task_version":"battery-v0.2-trt","session":3},{"rune":"K","rune_set":"bacs1","hex":"#3366ff99","correct":-1,"choice":32,"rt":654,"accuracy":0,"outcome":"+1","keys":[2172],"total_keys":1,"block":2,"trial":207,"stimulus":6,"robot":2,"valence":"win","action":"no-go","sham":0,"trial_type":"pit-trial","trial_index":238,"time_elapsed":1156823,"internal_node_id":"0.0-213.0","task_version":"battery-v0.2-trt","session":3},{"rune":"G","rune_set":"bacs1","hex":"#f73b6a7A","correct":32,"choice":32,"rt":740,"accuracy":1,"outcome":"-1","keys":[2252],"total_keys":1,"block":2,"trial":208,"stimulus":10,"robot":3,"valence":"lose","action":"go","sham":0,"trial_type":"pit-trial","trial_index":239,"time_elapsed":1160283,"internal_node_id":"0.0-214.0","task_version":"battery-v0.2-trt","session":3},{"rune":"I","rune_set":"bacs1","hex":"#3366ff99","correct":32,"choice":32,"rt":637,"accuracy":1,"outcome":"+10","keys":[2153],"total_keys":1,"block":2,"trial":209,"stimulus":9,"robot":1,"valence":"win","action":"go","sham":0,"trial_type":"pit-trial","trial_index":240,"time_elapsed":1163642,"internal_node_id":"0.0-215.0","task_version":"battery-v0.2-trt","session":3},{"rune":"O","rune_set":"bacs1","hex":"#f73b6a7A","correct":-1,"choice":-1,"rt":-1,"accuracy":1,"outcome":"-1","keys":[],"total_keys":0,"block":2,"trial":210,"stimulus":8,"robot":4,"valence":"lose","action":"no-go","sham":0,"trial_type":"pit-trial","trial_index":241,"time_elapsed":1167653,"internal_node_id":"0.0-216.0","task_version":"battery-v0.2-trt","session":3},{"rune":"G","rune_set":"bacs1","hex":"#f73b6a7A","correct":32,"choice":32,"rt":679,"accuracy":1,"outcome":"-1","keys":[2197],"total_keys":1,"block":2,"trial":211,"stimulus":10,"robot":3,"valence":"lose","action":"go","sham":0,"trial_type":"pit-trial","trial_index":242,"time_elapsed":1171062,"internal_node_id":"0.0-217.0","task_version":"battery-v0.2-trt","session":3},{"rune":"N","rune_set":"bacs1","hex":"#3366ff99","correct":32,"choice":-1,"rt":-1,"accuracy":0,"outcome":"+1","keys":[],"total_keys":0,"block":2,"trial":212,"stimulus":11,"robot":1,"valence":"win","action":"go","sham":0,"trial_type":"pit-trial","trial_index":243,"time_elapsed":1175102,"internal_node_id":"0.0-218.0","task_version":"battery-v0.2-trt","session":3},{"rune":"O","rune_set":"bacs1","hex":"#f73b6a7A","correct":-1,"choice":-1,"rt":-1,"accuracy":1,"outcome":"-10","keys":[],"total_keys":0,"block":2,"trial":213,"stimulus":8,"robot":4,"valence":"lose","action":"no-go","sham":1,"trial_type":"pit-trial","trial_index":244,"time_elapsed":1179142,"internal_node_id":"0.0-219.0","task_version":"battery-v0.2-trt","session":3},{"rune":"N","rune_set":"bacs1","hex":"#3366ff99","correct":32,"choice":32,"rt":938,"accuracy":1,"outcome":"+10","keys":[2446],"total_keys":1,"block":2,"trial":214,"stimulus":11,"robot":1,"valence":"win","action":"go","sham":0,"trial_type":"pit-trial","trial_index":245,"time_elapsed":1182792,"internal_node_id":"0.0-220.0","task_version":"battery-v0.2-trt","session":3},{"rune":"I","rune_set":"bacs1","hex":"#3366ff99","correct":32,"choice":32,"rt":638,"accuracy":1,"outcome":"+10","keys":[2147],"total_keys":1,"block":2,"trial":215,"stimulus":9,"robot":1,"valence":"win","action":"go","sham":0,"trial_type":"pit-trial","trial_index":246,"time_elapsed":1186142,"internal_node_id":"0.0-221.0","task_version":"battery-v0.2-trt","session":3},{"rune":"G","rune_set":"bacs1","hex":"#f73b6a7A","correct":32,"choice":32,"rt":574,"accuracy":1,"outcome":"-1","keys":[2092],"total_keys":1,"block":2,"trial":216,"stimulus":10,"robot":3,"valence":"lose","action":"go","sham":0,"trial_type":"pit-trial","trial_index":247,"time_elapsed":1189441,"internal_node_id":"0.0-222.0","task_version":"battery-v0.2-trt","session":3},{"rune":"N","rune_set":"bacs1","hex":"#3366ff99","correct":32,"choice":32,"rt":900,"accuracy":1,"outcome":"+10","keys":[2418],"total_keys":1,"block":2,"trial":217,"stimulus":11,"robot":1,"valence":"win","action":"go","sham":0,"trial_type":"pit-trial","trial_index":248,"time_elapsed":1193063,"internal_node_id":"0.0-223.0","task_version":"battery-v0.2-trt","session":3},{"rune":"G","rune_set":"bacs1","hex":"#f73b6a7A","correct":32,"choice":32,"rt":589,"accuracy":1,"outcome":"-1","keys":[2106],"total_keys":1,"block":2,"trial":218,"stimulus":10,"robot":3,"valence":"lose","action":"go","sham":0,"trial_type":"pit-trial","trial_index":249,"time_elapsed":1196383,"internal_node_id":"0.0-224.0","task_version":"battery-v0.2-trt","session":3},{"rune":"I","rune_set":"bacs1","hex":"#3366ff99","correct":32,"choice":32,"rt":787,"accuracy":1,"outcome":"+1","keys":[2304],"total_keys":1,"block":2,"trial":219,"stimulus":9,"robot":1,"valence":"win","action":"go","sham":1,"trial_type":"pit-trial","trial_index":250,"time_elapsed":1199902,"internal_node_id":"0.0-225.0","task_version":"battery-v0.2-trt","session":3},{"rune":"O","rune_set":"bacs1","hex":"#f73b6a7A","correct":-1,"choice":-1,"rt":-1,"accuracy":1,"outcome":"-1","keys":[],"total_keys":0,"block":2,"trial":220,"stimulus":8,"robot":4,"valence":"lose","action":"no-go","sham":0,"trial_type":"pit-trial","trial_index":251,"time_elapsed":1203932,"internal_node_id":"0.0-226.0","task_version":"battery-v0.2-trt","session":3},{"rune":"N","rune_set":"bacs1","hex":"#3366ff99","correct":32,"choice":32,"rt":643,"accuracy":1,"outcome":"+10","keys":[2160],"total_keys":1,"block":2,"trial":221,"stimulus":11,"robot":1,"valence":"win","action":"go","sham":0,"trial_type":"pit-trial","trial_index":252,"time_elapsed":1207313,"internal_node_id":"0.0-227.0","task_version":"battery-v0.2-trt","session":3},{"rune":"I","rune_set":"bacs1","hex":"#3366ff99","correct":32,"choice":32,"rt":577,"accuracy":1,"outcome":"+10","keys":[2094],"total_keys":1,"block":2,"trial":222,"stimulus":9,"robot":1,"valence":"win","action":"go","sham":0,"trial_type":"pit-trial","trial_index":253,"time_elapsed":1210612,"internal_node_id":"0.0-228.0","task_version":"battery-v0.2-trt","session":3},{"rune":"O","rune_set":"bacs1","hex":"#f73b6a7A","correct":-1,"choice":-1,"rt":-1,"accuracy":1,"outcome":"-1","keys":[],"total_keys":0,"block":2,"trial":223,"stimulus":8,"robot":4,"valence":"lose","action":"no-go","sham":0,"trial_type":"pit-trial","trial_index":254,"time_elapsed":1214632,"internal_node_id":"0.0-229.0","task_version":"battery-v0.2-trt","session":3},{"rune":"G","rune_set":"bacs1","hex":"#f73b6a7A","correct":32,"choice":32,"rt":581,"accuracy":1,"outcome":"-1","keys":[2099],"total_keys":1,"block":2,"trial":224,"stimulus":10,"robot":3,"valence":"lose","action":"go","sham":0,"trial_type":"pit-trial","trial_index":255,"time_elapsed":1217953,"internal_node_id":"0.0-230.0","task_version":"battery-v0.2-trt","session":3},{"rune":"N","rune_set":"bacs1","hex":"#3366ff99","correct":32,"choice":32,"rt":524,"accuracy":1,"outcome":"+10","keys":[2041],"total_keys":1,"block":2,"trial":225,"stimulus":11,"robot":1,"valence":"win","action":"go","sham":0,"trial_type":"pit-trial","trial_index":256,"time_elapsed":1221213,"internal_node_id":"0.0-231.0","task_version":"battery-v0.2-trt","session":3},{"rune":"O","rune_set":"bacs1","hex":"#f73b6a7A","correct":-1,"choice":-1,"rt":-1,"accuracy":1,"outcome":"-1","keys":[],"total_keys":0,"block":2,"trial":226,"stimulus":8,"robot":4,"valence":"lose","action":"no-go","sham":0,"trial_type":"pit-trial","trial_index":257,"time_elapsed":1225242,"internal_node_id":"0.0-232.0","task_version":"battery-v0.2-trt","session":3},{"rune":"G","rune_set":"bacs1","hex":"#f73b6a7A","correct":32,"choice":32,"rt":571,"accuracy":1,"outcome":"-1","keys":[2089],"total_keys":1,"block":2,"trial":227,"stimulus":10,"robot":3,"valence":"lose","action":"go","sham":0,"trial_type":"pit-trial","trial_index":258,"time_elapsed":1228532,"internal_node_id":"0.0-233.0","task_version":"battery-v0.2-trt","session":3},{"rune":"I","rune_set":"bacs1","hex":"#3366ff99","correct":32,"choice":32,"rt":614,"accuracy":1,"outcome":"+10","keys":[2131],"total_keys":1,"block":2,"trial":228,"stimulus":9,"robot":1,"valence":"win","action":"go","sham":0,"trial_type":"pit-trial","trial_index":259,"time_elapsed":1231872,"internal_node_id":"0.0-234.0","task_version":"battery-v0.2-trt","session":3},{"rune":"G","rune_set":"bacs1","hex":"#f73b6a7A","correct":32,"choice":32,"rt":601,"accuracy":1,"outcome":"-10","keys":[2117],"total_keys":1,"block":2,"trial":229,"stimulus":10,"robot":3,"valence":"lose","action":"go","sham":1,"trial_type":"pit-trial","trial_index":260,"time_elapsed":1235192,"internal_node_id":"0.0-235.0","task_version":"battery-v0.2-trt","session":3},{"rune":"N","rune_set":"bacs1","hex":"#3366ff99","correct":32,"choice":32,"rt":575,"accuracy":1,"outcome":"+10","keys":[2092],"total_keys":1,"block":2,"trial":230,"stimulus":11,"robot":1,"valence":"win","action":"go","sham":0,"trial_type":"pit-trial","trial_index":261,"time_elapsed":1238502,"internal_node_id":"0.0-236.0","task_version":"battery-v0.2-trt","session":3},{"rune":"O","rune_set":"bacs1","hex":"#f73b6a7A","correct":-1,"choice":-1,"rt":-1,"accuracy":1,"outcome":"-10","keys":[],"total_keys":0,"block":2,"trial":231,"stimulus":8,"robot":4,"valence":"lose","action":"no-go","sham":1,"trial_type":"pit-trial","trial_index":262,"time_elapsed":1242542,"internal_node_id":"0.0-237.0","task_version":"battery-v0.2-trt","session":3},{"rune":"I","rune_set":"bacs1","hex":"#3366ff99","correct":32,"choice":32,"rt":618,"accuracy":1,"outcome":"+10","keys":[2136],"total_keys":1,"block":2,"trial":232,"stimulus":9,"robot":1,"valence":"win","action":"go","sham":0,"trial_type":"pit-trial","trial_index":263,"time_elapsed":1245882,"internal_node_id":"0.0-238.0","task_version":"battery-v0.2-trt","session":3},{"rune":"I","rune_set":"bacs1","hex":"#3366ff99","correct":32,"choice":32,"rt":550,"accuracy":1,"outcome":"+10","keys":[2068],"total_keys":1,"block":2,"trial":233,"stimulus":9,"robot":1,"valence":"win","action":"go","sham":0,"trial_type":"pit-trial","trial_index":264,"time_elapsed":1249162,"internal_node_id":"0.0-239.0","task_version":"battery-v0.2-trt","session":3},{"rune":"O","rune_set":"bacs1","hex":"#f73b6a7A","correct":-1,"choice":-1,"rt":-1,"accuracy":1,"outcome":"-1","keys":[],"total_keys":0,"block":2,"trial":234,"stimulus":8,"robot":4,"valence":"lose","action":"no-go","sham":0,"trial_type":"pit-trial","trial_index":265,"time_elapsed":1253200,"internal_node_id":"0.0-240.0","task_version":"battery-v0.2-trt","session":3},{"rune":"N","rune_set":"bacs1","hex":"#3366ff99","correct":32,"choice":32,"rt":576,"accuracy":1,"outcome":"+1","keys":[2075],"total_keys":1,"block":2,"trial":235,"stimulus":11,"robot":1,"valence":"win","action":"go","sham":1,"trial_type":"pit-trial","trial_index":266,"time_elapsed":1256482,"internal_node_id":"0.0-241.0","task_version":"battery-v0.2-trt","session":3},{"rune":"G","rune_set":"bacs1","hex":"#f73b6a7A","correct":32,"choice":32,"rt":636,"accuracy":1,"outcome":"-1","keys":[2154],"total_keys":1,"block":2,"trial":236,"stimulus":10,"robot":3,"valence":"lose","action":"go","sham":0,"trial_type":"pit-trial","trial_index":267,"time_elapsed":1259842,"internal_node_id":"0.0-242.0","task_version":"battery-v0.2-trt","session":3},{"rune":"N","rune_set":"bacs1","hex":"#3366ff99","correct":32,"choice":32,"rt":600,"accuracy":1,"outcome":"+10","keys":[2118],"total_keys":1,"block":2,"trial":237,"stimulus":11,"robot":1,"valence":"win","action":"go","sham":0,"trial_type":"pit-trial","trial_index":268,"time_elapsed":1263162,"internal_node_id":"0.0-243.0","task_version":"battery-v0.2-trt","session":3},{"rune":"I","rune_set":"bacs1","hex":"#3366ff99","correct":32,"choice":32,"rt":350,"accuracy":1,"outcome":"+10","keys":[1293,1866],"total_keys":2,"block":2,"trial":238,"stimulus":9,"robot":1,"valence":"win","action":"go","sham":0,"trial_type":"pit-trial","trial_index":269,"time_elapsed":1266240,"internal_node_id":"0.0-244.0","task_version":"battery-v0.2-trt","session":3},{"rune":"O","rune_set":"bacs1","hex":"#f73b6a7A","correct":-1,"choice":-1,"rt":-1,"accuracy":1,"outcome":"-1","keys":[],"total_keys":0,"block":2,"trial":239,"stimulus":8,"robot":4,"valence":"lose","action":"no-go","sham":0,"trial_type":"pit-trial","trial_index":270,"time_elapsed":1270262,"internal_node_id":"0.0-245.0","task_version":"battery-v0.2-trt","session":3},{"rune":"G","rune_set":"bacs1","hex":"#f73b6a7A","correct":32,"choice":32,"rt":653,"accuracy":1,"outcome":"-1","keys":[2171],"total_keys":1,"block":2,"trial":240,"stimulus":10,"robot":3,"valence":"lose","action":"go","sham":0,"trial_type":"pit-trial","trial_index":271,"time_elapsed":1273643,"internal_node_id":"0.0-246.0","task_version":"battery-v0.2-trt","session":3},{"view_history":"[{\"page_index\":0,\"viewing_time\":2199}]","rt":2199,"trial_type":"pit-instructions","trial_index":272,"time_elapsed":1275844,"internal_node_id":"0.0-247.0","task_version":"battery-v0.2-trt","session":3},{"rt":71270,"responses":{"difficulty":"2","fun":"5","clarity":"5","strategy":"I just tried to remember which shape gave a better value and how often it changed to the other value","feedback":"none"},"survey":"debrief","trial_type":"survey-debrief","trial_index":273,"time_elapsed":1347119,"internal_node_id":"0.0-248.0","task_version":"battery-v0.2-trt","session":3,"interactions":"[{\"event\":\"focus\",\"trial\":0,\"time\":0}]"}]