[{"view_history":"[{\"page_index\":0,\"viewing_time\":6569.834999740124}]","rt":6570.659999735653,"trial_type":"instructions","trial_index":0,"time_elapsed":6597,"internal_node_id":"0.0-0.0","task_version":"battery-v0.2-trt","session":3},{"slider_type":"valence","raw_loc":489,"loc":0.478,"trial_type":"affective-slider","trial_index":1,"time_elapsed":10682,"internal_node_id":"0.0-1.0","task_version":"battery-v0.2-trt","session":3},{"responses":{"Q01":"0","Q02":"0","Q05":"0","Q04":"0","Q03":"0","Q06":"0","Q08":"3","Q07":"0"},"rt":13943.865000270307,"item_order":[0,1,4,3,2,5,7,6],"radio_events":[2725.3400003537536,3101.32999997586,5213.080000132322,7964.924999978393,8597.670000046492,9709.380000364035,11404.905000235885,12565.285000018775],"key_events":[],"mouse_events":[2725.3400003537536,3101.32999997586,3581.2750002369285,4253.655000124127,5213.080000132322,5645.179999992251,6661.105000413954,7964.924999978393,8597.670000046492,9077.650000341237,9709.380000364035,11404.905000235885,12565.285000018775,13941.185000352561],"straightlining":0.875,"zigzagging":0.2857142857142857,"survey":"dass_d","trial_type":"survey-template","trial_index":2,"time_elapsed":24633,"internal_node_id":"0.0-2.0","task_version":"battery-v0.2-trt","session":3,"infrequency":0},{"responses":{"Q04":"0","Q07":"0","Q03":"0","Q01":"0","Q08":"0","Q02":"0","Q05":"0","Q06":"0"},"rt":12184.475000016391,"item_order":[3,6,2,0,7,1,4,5],"radio_events":[3014.405000023544,3502.274999860674,4194.279999937862,5094.645000062883,5966.560000088066,7686.249999795109,8086.5449998527765,10654.864999931306],"key_events":[],"mouse_events":[3014.405000023544,3502.274999860674,4194.279999937862,5094.645000062883,5966.560000088066,6422.754999715835,7686.249999795109,8086.5449998527765,8726.719999685884,9774.660000111908,10654.864999931306,12182.56999971345],"straightlining":1,"zigzagging":0,"survey":"gad7","trial_type":"survey-template","trial_index":3,"time_elapsed":36823,"internal_node_id":"0.0-3.0","task_version":"battery-v0.2-trt","session":3,"infrequency":0},{"view_history":"[{\"page_index\":0,\"viewing_time\":666690.9199999645},{\"page_index\":1,\"viewing_time\":2080.245000310242},{\"page_index\":2,\"viewing_time\":3247.2699997015297},{\"page_index\":3,\"viewing_time\":3344.5300003513694},{\"page_index\":4,\"viewing_time\":3688.819999806583},{\"page_index\":5,\"viewing_time\":2479.3850001879036},{\"page_index\":6,\"viewing_time\":2912.2150000184774},{\"page_index\":7,\"viewing_time\":4047.559999860823},{\"page_index\":8,\"viewing_time\":2528.0149998143315},{\"page_index\":9,\"viewing_time\":904.7150001861155}]","rt":691924.3399999104,"trial_type":"pit-instructions","trial_index":4,"time_elapsed":728753,"internal_node_id":"0.0-4.0-0.0","task_version":"battery-v0.2-trt","session":3},{"rune":"1","rune_set":"elianto","hex":"#3366ff99","correct":32,"choice":32,"rt":633.7849996052682,"accuracy":1,"outcome":"+10","keys":[2133.7100001983345],"total_keys":1,"block":0,"practice":1,"trial_type":"pit-trial","trial_index":5,"time_elapsed":732095,"internal_node_id":"0.0-4.0-1.0-0.0","task_version":"battery-v0.2-trt","session":3},{"rune":"1","rune_set":"elianto","hex":"#3366ff99","correct":32,"choice":32,"rt":321.3100000284612,"accuracy":1,"outcome":"+10","keys":[1823.0650001205504],"total_keys":1,"block":0,"practice":1,"trial_type":"pit-trial","trial_index":6,"time_elapsed":735132,"internal_node_id":"0.0-4.0-1.1-0.1","task_version":"battery-v0.2-trt","session":3},{"rune":"1","rune_set":"elianto","hex":"#3366ff99","correct":32,"choice":32,"rt":314.19500010088086,"accuracy":1,"outcome":"+10","keys":[1815.0150002911687],"total_keys":1,"block":0,"practice":1,"trial_type":"pit-trial","trial_index":7,"time_elapsed":738152,"internal_node_id":"0.0-4.0-1.2-0.2","task_version":"battery-v0.2-trt","session":3},{"rune":"1","rune_set":"elianto","hex":"#3366ff99","correct":32,"choice":32,"rt":303.0050001107156,"accuracy":1,"outcome":"+10","keys":[1803.8400001823902],"total_keys":1,"block":0,"practice":1,"trial_type":"pit-trial","trial_index":8,"time_elapsed":741162,"internal_node_id":"0.0-4.0-1.3-0.3","task_version":"battery-v0.2-trt","session":3},{"trial_type":"call-function","trial_index":9,"time_elapsed":741166,"internal_node_id":"0.0-4.0-2.0","task_version":"battery-v0.2-trt","session":3},{"view_history":"[{\"page_index\":0,\"viewing_time\":3296.70500010252},{\"page_index\":1,\"viewing_time\":1559.9799999035895}]","rt":4857.255000155419,"trial_type":"pit-instructions","trial_index":10,"time_elapsed":746025,"internal_node_id":"0.0-4.0-3.0","task_version":"battery-v0.2-trt","session":3},{"rune":"2","rune_set":"elianto","hex":"#3366ff99","correct":-1,"choice":-1,"rt":-1,"accuracy":1,"outcome":"+10","keys":[],"total_keys":0,"block":0,"practice":2,"trial_type":"pit-trial","trial_index":11,"time_elapsed":750032,"internal_node_id":"0.0-4.0-4.0-0.0","task_version":"battery-v0.2-trt","session":3},{"rune":"2","rune_set":"elianto","hex":"#3366ff99","correct":-1,"choice":-1,"rt":-1,"accuracy":1,"outcome":"+10","keys":[],"total_keys":0,"block":0,"practice":2,"trial_type":"pit-trial","trial_index":12,"time_elapsed":754043,"internal_node_id":"0.0-4.0-4.1-0.1","task_version":"battery-v0.2-trt","session":3},{"rune":"2","rune_set":"elianto","hex":"#3366ff99","correct":-1,"choice":-1,"rt":-1,"accuracy":1,"outcome":"+10","keys":[],"total_keys":0,"block":0,"practice":2,"trial_type":"pit-trial","trial_index":13,"time_elapsed":758056,"internal_node_id":"0.0-4.0-4.2-0.2","task_version":"battery-v0.2-trt","session":3},{"rune":"2","rune_set":"elianto","hex":"#3366ff99","correct":-1,"choice":-1,"rt":-1,"accuracy":1,"outcome":"+10","keys":[],"total_keys":0,"block":0,"practice":2,"trial_type":"pit-trial","trial_index":14,"time_elapsed":762071,"internal_node_id":"0.0-4.0-4.3-0.3","task_version":"battery-v0.2-trt","session":3},{"trial_type":"call-function","trial_index":15,"time_elapsed":762078,"internal_node_id":"0.0-4.0-5.0","task_version":"battery-v0.2-trt","session":3},{"view_history":"[{\"page_index\":0,\"viewing_time\":3609.729999676347},{\"page_index\":1,\"viewing_time\":840.4149999842048}]","rt":4450.794999953359,"trial_type":"pit-instructions","trial_index":16,"time_elapsed":766530,"internal_node_id":"0.0-4.0-6.0","task_version":"battery-v0.2-trt","session":3},{"rune":"3","rune_set":"elianto","hex":"#f73b6a7A","correct":-1,"choice":32,"rt":394.8099999688566,"accuracy":0,"outcome":"-10","keys":[1895.0700000859797],"total_keys":1,"block":0,"practice":3,"trial_type":"pit-trial","trial_index":17,"time_elapsed":769630,"internal_node_id":"0.0-4.0-7.0-0.0","task_version":"battery-v0.2-trt","session":3},{"rune":"3","rune_set":"elianto","hex":"#f73b6a7A","correct":-1,"choice":-1,"rt":-1,"accuracy":1,"outcome":"-1","keys":[],"total_keys":0,"block":0,"practice":3,"trial_type":"pit-trial","trial_index":18,"time_elapsed":773644,"internal_node_id":"0.0-4.0-7.1-0.1","task_version":"battery-v0.2-trt","session":3},{"rune":"3","rune_set":"elianto","hex":"#f73b6a7A","correct":-1,"choice":-1,"rt":-1,"accuracy":1,"outcome":"-1","keys":[],"total_keys":0,"block":0,"practice":3,"trial_type":"pit-trial","trial_index":19,"time_elapsed":777657,"internal_node_id":"0.0-4.0-7.2-0.2","task_version":"battery-v0.2-trt","session":3},{"rune":"3","rune_set":"elianto","hex":"#f73b6a7A","correct":-1,"choice":-1,"rt":-1,"accuracy":1,"outcome":"-1","keys":[],"total_keys":0,"block":0,"practice":3,"trial_type":"pit-trial","trial_index":20,"time_elapsed":781670,"internal_node_id":"0.0-4.0-7.3-0.3","task_version":"battery-v0.2-trt","session":3},{"trial_type":"call-function","trial_index":21,"time_elapsed":781674,"internal_node_id":"0.0-4.0-8.0","task_version":"battery-v0.2-trt","session":3},{"view_history":"[{\"page_index\":0,\"viewing_time\":3318.6349999159575},{\"page_index\":1,\"viewing_time\":735.8849998563528}]","rt":4055.0449998117983,"trial_type":"pit-instructions","trial_index":22,"time_elapsed":785730,"internal_node_id":"0.0-4.0-9.0","task_version":"battery-v0.2-trt","session":3},{"rune":"4","rune_set":"elianto","hex":"#f73b6a7A","correct":32,"choice":32,"rt":554.2899998836219,"accuracy":1,"outcome":"-1","keys":[2054.699999745935],"total_keys":1,"block":0,"practice":4,"trial_type":"pit-trial","trial_index":23,"time_elapsed":788990,"internal_node_id":"0.0-4.0-10.0-0.0","task_version":"battery-v0.2-trt","session":3},{"rune":"4","rune_set":"elianto","hex":"#f73b6a7A","correct":32,"choice":32,"rt":196.49500027298927,"accuracy":1,"outcome":"-1","keys":[1697.6250000298023],"total_keys":1,"block":0,"practice":4,"trial_type":"pit-trial","trial_index":24,"time_elapsed":791900,"internal_node_id":"0.0-4.0-10.1-0.1","task_version":"battery-v0.2-trt","session":3},{"rune":"4","rune_set":"elianto","hex":"#f73b6a7A","correct":32,"choice":32,"rt":57.73999961093068,"accuracy":1,"outcome":"-1","keys":[1558.5600002668798],"total_keys":1,"block":0,"practice":4,"trial_type":"pit-trial","trial_index":25,"time_elapsed":794671,"internal_node_id":"0.0-4.0-10.2-0.2","task_version":"battery-v0.2-trt","session":3},{"rune":"4","rune_set":"elianto","hex":"#f73b6a7A","correct":32,"choice":32,"rt":194.61499992758036,"accuracy":1,"outcome":"-1","keys":[1696.4300000108778],"total_keys":1,"block":0,"practice":4,"trial_type":"pit-trial","trial_index":26,"time_elapsed":797581,"internal_node_id":"0.0-4.0-10.3-0.3","task_version":"battery-v0.2-trt","session":3},{"trial_type":"call-function","trial_index":27,"time_elapsed":797592,"internal_node_id":"0.0-4.0-11.0","task_version":"battery-v0.2-trt","session":3},{"view_history":"[{\"page_index\":0,\"viewing_time\":2000.805000308901},{\"page_index\":1,\"viewing_time\":5190.334999933839},{\"page_index\":2,\"viewing_time\":3400.5350000225008},{\"page_index\":3,\"viewing_time\":36576.1750000529},{\"page_index\":4,\"viewing_time\":1928.0799999833107},{\"page_index\":5,\"viewing_time\":911.3949998281896}]","rt":50008.08500032872,"trial_type":"pit-instructions","trial_index":28,"time_elapsed":847601,"internal_node_id":"0.0-4.0-12.0","task_version":"battery-v0.2-trt","session":3},{"responses":["Press SPACE","+10","-1","True","True"],"num_errors":0,"rt":10363.489999901503,"trial_type":"pit-comprehension","trial_index":29,"time_elapsed":857973,"internal_node_id":"0.0-4.0-13.0","task_version":"battery-v0.2-trt","session":3},{"view_history":"[{\"page_index\":0,\"viewing_time\":1119.1400000825524},{\"page_index\":1,\"viewing_time\":2503.7249997258186}]","rt":3623.3850000426173,"trial_type":"pit-instructions","trial_index":30,"time_elapsed":861617,"internal_node_id":"0.0-5.0","task_version":"battery-v0.2-trt","session":3},{"rune":"X","rune_set":"bacs2","hex":"#3366ff99","correct":32,"choice":32,"rt":603.4599998965859,"accuracy":1,"outcome":"+10","keys":[2103.999999817461],"total_keys":1,"block":1,"trial":1,"stimulus":2,"robot":1,"valence":"win","action":"go","sham":0,"trial_type":"pit-trial","trial_index":31,"time_elapsed":864929,"internal_node_id":"0.0-6.0","task_version":"battery-v0.2-trt","session":3},{"rune":"J","rune_set":"bacs2","hex":"#3366ff99","correct":-1,"choice":-1,"rt":-1,"accuracy":1,"outcome":"+10","keys":[],"total_keys":0,"block":1,"trial":2,"stimulus":0,"robot":2,"valence":"win","action":"no-go","sham":0,"trial_type":"pit-trial","trial_index":32,"time_elapsed":868938,"internal_node_id":"0.0-7.0","task_version":"battery-v0.2-trt","session":3},{"rune":"W","rune_set":"bacs2","hex":"#3366ff99","correct":-1,"choice":32,"rt":1300.0350003130734,"accuracy":0,"outcome":"+1","keys":[2800.8900000713766],"total_keys":1,"block":1,"trial":3,"stimulus":1,"robot":2,"valence":"win","action":"no-go","sham":0,"trial_type":"pit-trial","trial_index":33,"time_elapsed":872946,"internal_node_id":"0.0-8.0","task_version":"battery-v0.2-trt","session":3},{"rune":"Z","rune_set":"bacs2","hex":"#f73b6a7A","correct":32,"choice":-1,"rt":-1,"accuracy":0,"outcome":"-1","keys":[],"total_keys":0,"block":1,"trial":4,"stimulus":3,"robot":3,"valence":"lose","action":"go","sham":1,"trial_type":"pit-trial","trial_index":34,"time_elapsed":876959,"internal_node_id":"0.0-9.0","task_version":"battery-v0.2-trt","session":3},{"rune":"X","rune_set":"bacs2","hex":"#3366ff99","correct":32,"choice":32,"rt":443.3699999935925,"accuracy":1,"outcome":"+1","keys":[1943.4850001707673],"total_keys":1,"block":1,"trial":5,"stimulus":2,"robot":1,"valence":"win","action":"go","sham":1,"trial_type":"pit-trial","trial_index":35,"time_elapsed":880118,"internal_node_id":"0.0-10.0","task_version":"battery-v0.2-trt","session":3},{"rune":"J","rune_set":"bacs2","hex":"#3366ff99","correct":-1,"choice":-1,"rt":-1,"accuracy":1,"outcome":"+1","keys":[],"total_keys":0,"block":1,"trial":6,"stimulus":0,"robot":2,"valence":"win","action":"no-go","sham":1,"trial_type":"pit-trial","trial_index":36,"time_elapsed":884128,"internal_node_id":"0.0-11.0","task_version":"battery-v0.2-trt","session":3},{"rune":"Z","rune_set":"bacs2","hex":"#f73b6a7A","correct":32,"choice":-1,"rt":-1,"accuracy":0,"outcome":"-1","keys":[],"total_keys":0,"block":1,"trial":7,"stimulus":3,"robot":3,"valence":"lose","action":"go","sham":1,"trial_type":"pit-trial","trial_index":37,"time_elapsed":888138,"internal_node_id":"0.0-12.0","task_version":"battery-v0.2-trt","session":3},{"rune":"W","rune_set":"bacs2","hex":"#3366ff99","correct":-1,"choice":-1,"rt":-1,"accuracy":1,"outcome":"+10","keys":[],"total_keys":0,"block":1,"trial":8,"stimulus":1,"robot":2,"valence":"win","action":"no-go","sham":0,"trial_type":"pit-trial","trial_index":38,"time_elapsed":892146,"internal_node_id":"0.0-13.0","task_version":"battery-v0.2-trt","session":3},{"rune":"W","rune_set":"bacs2","hex":"#3366ff99","correct":-1,"choice":-1,"rt":-1,"accuracy":1,"outcome":"+10","keys":[],"total_keys":0,"block":1,"trial":9,"stimulus":1,"robot":2,"valence":"win","action":"no-go","sham":0,"trial_type":"pit-trial","trial_index":39,"time_elapsed":896154,"internal_node_id":"0.0-14.0","task_version":"battery-v0.2-trt","session":3},{"rune":"Z","rune_set":"bacs2","hex":"#f73b6a7A","correct":32,"choice":-1,"rt":-1,"accuracy":0,"outcome":"-10","keys":[],"total_keys":0,"block":1,"trial":10,"stimulus":3,"robot":3,"valence":"lose","action":"go","sham":0,"trial_type":"pit-trial","trial_index":40,"time_elapsed":900169,"internal_node_id":"0.0-15.0","task_version":"battery-v0.2-trt","session":3},{"rune":"X","rune_set":"bacs2","hex":"#3366ff99","correct":32,"choice":32,"rt":614.1800000332296,"accuracy":1,"outcome":"+10","keys":[2114.3499999307096],"total_keys":1,"block":1,"trial":11,"stimulus":2,"robot":1,"valence":"win","action":"go","sham":0,"trial_type":"pit-trial","trial_index":41,"time_elapsed":903495,"internal_node_id":"0.0-16.0","task_version":"battery-v0.2-trt","session":3},{"rune":"J","rune_set":"bacs2","hex":"#3366ff99","correct":-1,"choice":-1,"rt":-1,"accuracy":1,"outcome":"+10","keys":[],"total_keys":0,"block":1,"trial":12,"stimulus":0,"robot":2,"valence":"win","action":"no-go","sham":0,"trial_type":"pit-trial","trial_index":42,"time_elapsed":907505,"internal_node_id":"0.0-17.0","task_version":"battery-v0.2-trt","session":3},{"rune":"J","rune_set":"bacs2","hex":"#3366ff99","correct":-1,"choice":-1,"rt":-1,"accuracy":1,"outcome":"+10","keys":[],"total_keys":0,"block":1,"trial":13,"stimulus":0,"robot":2,"valence":"win","action":"no-go","sham":0,"trial_type":"pit-trial","trial_index":43,"time_elapsed":911516,"internal_node_id":"0.0-18.0","task_version":"battery-v0.2-trt","session":3},{"rune":"Z","rune_set":"bacs2","hex":"#f73b6a7A","correct":32,"choice":-1,"rt":-1,"accuracy":0,"outcome":"-10","keys":[],"total_keys":0,"block":1,"trial":14,"stimulus":3,"robot":3,"valence":"lose","action":"go","sham":0,"trial_type":"pit-trial","trial_index":44,"time_elapsed":915527,"internal_node_id":"0.0-19.0","task_version":"battery-v0.2-trt","session":3},{"rune":"W","rune_set":"bacs2","hex":"#3366ff99","correct":-1,"choice":-1,"rt":-1,"accuracy":1,"outcome":"+10","keys":[],"total_keys":0,"block":1,"trial":15,"stimulus":1,"robot":2,"valence":"win","action":"no-go","sham":0,"trial_type":"pit-trial","trial_index":45,"time_elapsed":919536,"internal_node_id":"0.0-20.0","task_version":"battery-v0.2-trt","session":3},{"rune":"X","rune_set":"bacs2","hex":"#3366ff99","correct":32,"choice":32,"rt":571.510000154376,"accuracy":1,"outcome":"+10","keys":[2072.7800000458956],"total_keys":1,"block":1,"trial":16,"stimulus":2,"robot":1,"valence":"win","action":"go","sham":0,"trial_type":"pit-trial","trial_index":46,"time_elapsed":922824,"internal_node_id":"0.0-21.0","task_version":"battery-v0.2-trt","session":3},{"rune":"X","rune_set":"bacs2","hex":"#3366ff99","correct":32,"choice":32,"rt":516.8149997480214,"accuracy":1,"outcome":"+10","keys":[2019.4699997082353],"total_keys":1,"block":1,"trial":17,"stimulus":2,"robot":1,"valence":"win","action":"go","sham":0,"trial_type":"pit-trial","trial_index":47,"time_elapsed":926049,"internal_node_id":"0.0-22.0","task_version":"battery-v0.2-trt","session":3},{"rune":"Z","rune_set":"bacs2","hex":"#f73b6a7A","correct":32,"choice":-1,"rt":-1,"accuracy":0,"outcome":"-10","keys":[],"total_keys":0,"block":1,"trial":18,"stimulus":3,"robot":3,"valence":"lose","action":"go","sham":0,"trial_type":"pit-trial","trial_index":48,"time_elapsed":930059,"internal_node_id":"0.0-23.0","task_version":"battery-v0.2-trt","session":3},{"rune":"W","rune_set":"bacs2","hex":"#3366ff99","correct":-1,"choice":-1,"rt":-1,"accuracy":1,"outcome":"+10","keys":[],"total_keys":0,"block":1,"trial":19,"stimulus":1,"robot":2,"valence":"win","action":"no-go","sham":0,"trial_type":"pit-trial","trial_index":49,"time_elapsed":934069,"internal_node_id":"0.0-24.0","task_version":"battery-v0.2-trt","session":3},{"rune":"J","rune_set":"bacs2","hex":"#3366ff99","correct":-1,"choice":-1,"rt":-1,"accuracy":1,"outcome":"+10","keys":[],"total_keys":0,"block":1,"trial":20,"stimulus":0,"robot":2,"valence":"win","action":"no-go","sham":0,"trial_type":"pit-trial","trial_index":50,"time_elapsed":938082,"internal_node_id":"0.0-25.0","task_version":"battery-v0.2-trt","session":3},{"rune":"W","rune_set":"bacs2","hex":"#3366ff99","correct":-1,"choice":-1,"rt":-1,"accuracy":1,"outcome":"+10","keys":[],"total_keys":0,"block":1,"trial":21,"stimulus":1,"robot":2,"valence":"win","action":"no-go","sham":0,"trial_type":"pit-trial","trial_index":51,"time_elapsed":942362,"internal_node_id":"0.0-26.0","task_version":"battery-v0.2-trt","session":3},{"rune":"Z","rune_set":"bacs2","hex":"#f73b6a7A","correct":32,"choice":32,"rt":621.6450002975762,"accuracy":1,"outcome":"-1","keys":[2123.7249998375773],"total_keys":1,"block":1,"trial":22,"stimulus":3,"robot":3,"valence":"lose","action":"go","sham":0,"trial_type":"pit-trial","trial_index":52,"time_elapsed":945704,"internal_node_id":"0.0-27.0","task_version":"battery-v0.2-trt","session":3},{"rune":"J","rune_set":"bacs2","hex":"#3366ff99","correct":-1,"choice":-1,"rt":-1,"accuracy":1,"outcome":"+1","keys":[],"total_keys":0,"block":1,"trial":23,"stimulus":0,"robot":2,"valence":"win","action":"no-go","sham":1,"trial_type":"pit-trial","trial_index":53,"time_elapsed":949718,"internal_node_id":"0.0-28.0","task_version":"battery-v0.2-trt","session":3},{"rune":"X","rune_set":"bacs2","hex":"#3366ff99","correct":32,"choice":32,"rt":554.9150002188981,"accuracy":1,"outcome":"+10","keys":[2055.9149999171495],"total_keys":1,"block":1,"trial":24,"stimulus":2,"robot":1,"valence":"win","action":"go","sham":0,"trial_type":"pit-trial","trial_index":54,"time_elapsed":952983,"internal_node_id":"0.0-29.0","task_version":"battery-v0.2-trt","session":3},{"rune":"X","rune_set":"bacs2","hex":"#3366ff99","correct":32,"choice":32,"rt":569.5600002072752,"accuracy":1,"outcome":"+10","keys":[2070.5649997107685],"total_keys":1,"block":1,"trial":25,"stimulus":2,"robot":1,"valence":"win","action":"go","sham":0,"trial_type":"pit-trial","trial_index":55,"time_elapsed":956262,"internal_node_id":"0.0-30.0","task_version":"battery-v0.2-trt","session":3},{"rune":"J","rune_set":"bacs2","hex":"#3366ff99","correct":-1,"choice":-1,"rt":-1,"accuracy":1,"outcome":"+10","keys":[],"total_keys":0,"block":1,"trial":26,"stimulus":0,"robot":2,"valence":"win","action":"no-go","sham":0,"trial_type":"pit-trial","trial_index":56,"time_elapsed":960270,"internal_node_id":"0.0-31.0","task_version":"battery-v0.2-trt","session":3},{"rune":"Z","rune_set":"bacs2","hex":"#f73b6a7A","correct":32,"choice":32,"rt":522.9150000959635,"accuracy":1,"outcome":"-1","keys":[2023.0700001120567],"total_keys":1,"block":1,"trial":27,"stimulus":3,"robot":3,"valence":"lose","action":"go","sham":0,"trial_type":"pit-trial","trial_index":57,"time_elapsed":963505,"internal_node_id":"0.0-32.0","task_version":"battery-v0.2-trt","session":3},{"rune":"W","rune_set":"bacs2","hex":"#3366ff99","correct":-1,"choice":-1,"rt":-1,"accuracy":1,"outcome":"+1","keys":[],"total_keys":0,"block":1,"trial":28,"stimulus":1,"robot":2,"valence":"win","action":"no-go","sham":1,"trial_type":"pit-trial","trial_index":58,"time_elapsed":967513,"internal_node_id":"0.0-33.0","task_version":"battery-v0.2-trt","session":3},{"rune":"Z","rune_set":"bacs2","hex":"#f73b6a7A","correct":32,"choice":32,"rt":491.46499997004867,"accuracy":1,"outcome":"-1","keys":[1992.8000001236796],"total_keys":1,"block":1,"trial":29,"stimulus":3,"robot":3,"valence":"lose","action":"go","sham":0,"trial_type":"pit-trial","trial_index":59,"time_elapsed":970712,"internal_node_id":"0.0-34.0","task_version":"battery-v0.2-trt","session":3},{"rune":"J","rune_set":"bacs2","hex":"#3366ff99","correct":-1,"choice":-1,"rt":-1,"accuracy":1,"outcome":"+10","keys":[],"total_keys":0,"block":1,"trial":30,"stimulus":0,"robot":2,"valence":"win","action":"no-go","sham":0,"trial_type":"pit-trial","trial_index":60,"time_elapsed":974723,"internal_node_id":"0.0-35.0","task_version":"battery-v0.2-trt","session":3},{"rune":"X","rune_set":"bacs2","hex":"#3366ff99","correct":32,"choice":32,"rt":626.129999756813,"accuracy":1,"outcome":"+10","keys":[2127.020000014454],"total_keys":1,"block":1,"trial":31,"stimulus":2,"robot":1,"valence":"win","action":"go","sham":0,"trial_type":"pit-trial","trial_index":61,"time_elapsed":978063,"internal_node_id":"0.0-36.0","task_version":"battery-v0.2-trt","session":3},{"rune":"W","rune_set":"bacs2","hex":"#3366ff99","correct":-1,"choice":-1,"rt":-1,"accuracy":1,"outcome":"+10","keys":[],"total_keys":0,"block":1,"trial":32,"stimulus":1,"robot":2,"valence":"win","action":"no-go","sham":0,"trial_type":"pit-trial","trial_index":62,"time_elapsed":982076,"internal_node_id":"0.0-37.0","task_version":"battery-v0.2-trt","session":3},{"rune":"O","rune_set":"bacs2","hex":"#f73b6a7A","correct":32,"choice":-1,"rt":-1,"accuracy":0,"outcome":"-10","keys":[2890.0549998506904],"total_keys":1,"block":1,"trial":33,"stimulus":5,"robot":3,"valence":"lose","action":"go","sham":0,"trial_type":"pit-trial","trial_index":63,"time_elapsed":986083,"internal_node_id":"0.0-38.0","task_version":"battery-v0.2-trt","session":3},{"rune":"J","rune_set":"bacs2","hex":"#3366ff99","correct":-1,"choice":-1,"rt":-1,"accuracy":1,"outcome":"+1","keys":[],"total_keys":0,"block":1,"trial":34,"stimulus":0,"robot":2,"valence":"win","action":"no-go","sham":1,"trial_type":"pit-trial","trial_index":64,"time_elapsed":990096,"internal_node_id":"0.0-39.0","task_version":"battery-v0.2-trt","session":3},{"rune":"G","rune_set":"bacs2","hex":"#f73b6a7A","correct":-1,"choice":32,"rt":832.1750001050532,"accuracy":0,"outcome":"-10","keys":[2332.609999924898],"total_keys":1,"block":1,"trial":35,"stimulus":4,"robot":4,"valence":"lose","action":"no-go","sham":0,"trial_type":"pit-trial","trial_index":65,"time_elapsed":993652,"internal_node_id":"0.0-40.0","task_version":"battery-v0.2-trt","session":3},{"rune":"X","rune_set":"bacs2","hex":"#3366ff99","correct":32,"choice":32,"rt":483.49000001326203,"accuracy":1,"outcome":"+1","keys":[1984.094999730587],"total_keys":1,"block":1,"trial":36,"stimulus":2,"robot":1,"valence":"win","action":"go","sham":1,"trial_type":"pit-trial","trial_index":66,"time_elapsed":996846,"internal_node_id":"0.0-41.0","task_version":"battery-v0.2-trt","session":3},{"rune":"X","rune_set":"bacs2","hex":"#3366ff99","correct":32,"choice":32,"rt":664.7749999538064,"accuracy":1,"outcome":"+10","keys":[2165.640000253916],"total_keys":1,"block":1,"trial":37,"stimulus":2,"robot":1,"valence":"win","action":"go","sham":0,"trial_type":"pit-trial","trial_index":67,"time_elapsed":1000223,"internal_node_id":"0.0-42.0","task_version":"battery-v0.2-trt","session":3},{"rune":"G","rune_set":"bacs2","hex":"#f73b6a7A","correct":-1,"choice":-1,"rt":-1,"accuracy":1,"outcome":"-1","keys":[],"total_keys":0,"block":1,"trial":38,"stimulus":4,"robot":4,"valence":"lose","action":"no-go","sham":0,"trial_type":"pit-trial","trial_index":68,"time_elapsed":1004234,"internal_node_id":"0.0-43.0","task_version":"battery-v0.2-trt","session":3},{"rune":"J","rune_set":"bacs2","hex":"#3366ff99","correct":-1,"choice":-1,"rt":-1,"accuracy":1,"outcome":"+10","keys":[],"total_keys":0,"block":1,"trial":39,"stimulus":0,"robot":2,"valence":"win","action":"no-go","sham":0,"trial_type":"pit-trial","trial_index":69,"time_elapsed":1008248,"internal_node_id":"0.0-44.0","task_version":"battery-v0.2-trt","session":3},{"rune":"O","rune_set":"bacs2","hex":"#f73b6a7A","correct":32,"choice":32,"rt":597.5399999879301,"accuracy":1,"outcome":"-1","keys":[2097.9450000450015],"total_keys":1,"block":1,"trial":40,"stimulus":5,"robot":3,"valence":"lose","action":"go","sham":0,"trial_type":"pit-trial","trial_index":70,"time_elapsed":1011561,"internal_node_id":"0.0-45.0","task_version":"battery-v0.2-trt","session":3},{"rune":"C","rune_set":"bacs2","hex":"#3366ff99","correct":-1,"choice":32,"rt":894.9549999088049,"accuracy":0,"outcome":"+1","keys":[2395.585000049323],"total_keys":1,"block":1,"trial":41,"stimulus":6,"robot":2,"valence":"win","action":"no-go","sham":0,"trial_type":"pit-trial","trial_index":71,"time_elapsed":1015162,"internal_node_id":"0.0-46.0","task_version":"battery-v0.2-trt","session":3},{"rune":"G","rune_set":"bacs2","hex":"#f73b6a7A","correct":-1,"choice":-1,"rt":-1,"accuracy":1,"outcome":"-1","keys":[],"total_keys":0,"block":1,"trial":42,"stimulus":4,"robot":4,"valence":"lose","action":"no-go","sham":0,"trial_type":"pit-trial","trial_index":72,"time_elapsed":1019167,"internal_node_id":"0.0-47.0","task_version":"battery-v0.2-trt","session":3},{"rune":"O","rune_set":"bacs2","hex":"#f73b6a7A","correct":32,"choice":32,"rt":556.5550001338124,"accuracy":1,"outcome":"-1","keys":[2056.6999996080995],"total_keys":1,"block":1,"trial":43,"stimulus":5,"robot":3,"valence":"lose","action":"go","sham":0,"trial_type":"pit-trial","trial_index":73,"time_elapsed":1022432,"internal_node_id":"0.0-48.0","task_version":"battery-v0.2-trt","session":3},{"rune":"X","rune_set":"bacs2","hex":"#3366ff99","correct":32,"choice":32,"rt":577.9549996368587,"accuracy":1,"outcome":"+10","keys":[2078.5300000570714],"total_keys":1,"block":1,"trial":44,"stimulus":2,"robot":1,"valence":"win","action":"go","sham":0,"trial_type":"pit-trial","trial_index":74,"time_elapsed":1025718,"internal_node_id":"0.0-49.0","task_version":"battery-v0.2-trt","session":3},{"rune":"O","rune_set":"bacs2","hex":"#f73b6a7A","correct":32,"choice":32,"rt":575.3850000910461,"accuracy":1,"outcome":"-1","keys":[2075.7949999533594],"total_keys":1,"block":1,"trial":45,"stimulus":5,"robot":3,"valence":"lose","action":"go","sham":0,"trial_type":"pit-trial","trial_index":75,"time_elapsed":1029004,"internal_node_id":"0.0-50.0","task_version":"battery-v0.2-trt","session":3},{"rune":"X","rune_set":"bacs2","hex":"#3366ff99","correct":32,"choice":32,"rt":547.5299996323884,"accuracy":1,"outcome":"+10","keys":[2047.9499995708466],"total_keys":1,"block":1,"trial":46,"stimulus":2,"robot":1,"valence":"win","action":"go","sham":0,"trial_type":"pit-trial","trial_index":76,"time_elapsed":1032261,"internal_node_id":"0.0-51.0","task_version":"battery-v0.2-trt","session":3},{"rune":"G","rune_set":"bacs2","hex":"#f73b6a7A","correct":-1,"choice":-1,"rt":-1,"accuracy":1,"outcome":"-1","keys":[],"total_keys":0,"block":1,"trial":47,"stimulus":4,"robot":4,"valence":"lose","action":"no-go","sham":0,"trial_type":"pit-trial","trial_index":77,"time_elapsed":1036275,"internal_node_id":"0.0-52.0","task_version":"battery-v0.2-trt","session":3},{"rune":"C","rune_set":"bacs2","hex":"#3366ff99","correct":-1,"choice":-1,"rt":-1,"accuracy":1,"outcome":"+10","keys":[],"total_keys":0,"block":1,"trial":48,"stimulus":6,"robot":2,"valence":"win","action":"no-go","sham":0,"trial_type":"pit-trial","trial_index":78,"time_elapsed":1040290,"internal_node_id":"0.0-53.0","task_version":"battery-v0.2-trt","session":3},{"rune":"O","rune_set":"bacs2","hex":"#f73b6a7A","correct":32,"choice":32,"rt":472.1850003115833,"accuracy":1,"outcome":"-10","keys":[1973.6449997872114],"total_keys":1,"block":1,"trial":49,"stimulus":5,"robot":3,"valence":"lose","action":"go","sham":1,"trial_type":"pit-trial","trial_index":79,"time_elapsed":1043472,"internal_node_id":"0.0-54.0","task_version":"battery-v0.2-trt","session":3},{"rune":"C","rune_set":"bacs2","hex":"#3366ff99","correct":-1,"choice":-1,"rt":-1,"accuracy":1,"outcome":"+10","keys":[],"total_keys":0,"block":1,"trial":50,"stimulus":6,"robot":2,"valence":"win","action":"no-go","sham":0,"trial_type":"pit-trial","trial_index":80,"time_elapsed":1047482,"internal_node_id":"0.0-55.0","task_version":"battery-v0.2-trt","session":3},{"rune":"G","rune_set":"bacs2","hex":"#f73b6a7A","correct":-1,"choice":-1,"rt":-1,"accuracy":1,"outcome":"-1","keys":[],"total_keys":0,"block":1,"trial":51,"stimulus":4,"robot":4,"valence":"lose","action":"no-go","sham":0,"trial_type":"pit-trial","trial_index":81,"time_elapsed":1051492,"internal_node_id":"0.0-56.0","task_version":"battery-v0.2-trt","session":3},{"rune":"E","rune_set":"bacs2","hex":"#f73b6a7A","correct":-1,"choice":32,"rt":883.2399998791516,"accuracy":0,"outcome":"-10","keys":[2383.410000242293],"total_keys":1,"block":1,"trial":52,"stimulus":7,"robot":4,"valence":"lose","action":"no-go","sham":0,"trial_type":"pit-trial","trial_index":82,"time_elapsed":1055090,"internal_node_id":"0.0-57.0","task_version":"battery-v0.2-trt","session":3},{"rune":"G","rune_set":"bacs2","hex":"#f73b6a7A","correct":-1,"choice":-1,"rt":-1,"accuracy":1,"outcome":"-10","keys":[],"total_keys":0,"block":1,"trial":53,"stimulus":4,"robot":4,"valence":"lose","action":"no-go","sham":1,"trial_type":"pit-trial","trial_index":83,"time_elapsed":1059100,"internal_node_id":"0.0-58.0","task_version":"battery-v0.2-trt","session":3},{"rune":"O","rune_set":"bacs2","hex":"#f73b6a7A","correct":32,"choice":32,"rt":477.3900001309812,"accuracy":1,"outcome":"-10","keys":[1978.1199996359646],"total_keys":1,"block":1,"trial":54,"stimulus":5,"robot":3,"valence":"lose","action":"go","sham":1,"trial_type":"pit-trial","trial_index":84,"time_elapsed":1062292,"internal_node_id":"0.0-59.0","task_version":"battery-v0.2-trt","session":3},{"rune":"E","rune_set":"bacs2","hex":"#f73b6a7A","correct":-1,"choice":-1,"rt":-1,"accuracy":1,"outcome":"-1","keys":[],"total_keys":0,"block":1,"trial":55,"stimulus":7,"robot":4,"valence":"lose","action":"no-go","sham":0,"trial_type":"pit-trial","trial_index":85,"time_elapsed":1066306,"internal_node_id":"0.0-60.0","task_version":"battery-v0.2-trt","session":3},{"rune":"C","rune_set":"bacs2","hex":"#3366ff99","correct":-1,"choice":-1,"rt":-1,"accuracy":1,"outcome":"+10","keys":[],"total_keys":0,"block":1,"trial":56,"stimulus":6,"robot":2,"valence":"win","action":"no-go","sham":0,"trial_type":"pit-trial","trial_index":86,"time_elapsed":1070317,"internal_node_id":"0.0-61.0","task_version":"battery-v0.2-trt","session":3},{"rune":"G","rune_set":"bacs2","hex":"#f73b6a7A","correct":-1,"choice":-1,"rt":-1,"accuracy":1,"outcome":"-10","keys":[],"total_keys":0,"block":1,"trial":57,"stimulus":4,"robot":4,"valence":"lose","action":"no-go","sham":1,"trial_type":"pit-trial","trial_index":87,"time_elapsed":1074326,"internal_node_id":"0.0-62.0","task_version":"battery-v0.2-trt","session":3},{"rune":"O","rune_set":"bacs2","hex":"#f73b6a7A","correct":32,"choice":32,"rt":468.00500014796853,"accuracy":1,"outcome":"-10","keys":[1968.029999639839],"total_keys":1,"block":1,"trial":58,"stimulus":5,"robot":3,"valence":"lose","action":"go","sham":1,"trial_type":"pit-trial","trial_index":88,"time_elapsed":1077508,"internal_node_id":"0.0-63.0","task_version":"battery-v0.2-trt","session":3},{"rune":"C","rune_set":"bacs2","hex":"#3366ff99","correct":-1,"choice":-1,"rt":-1,"accuracy":1,"outcome":"+10","keys":[],"total_keys":0,"block":1,"trial":59,"stimulus":6,"robot":2,"valence":"win","action":"no-go","sham":0,"trial_type":"pit-trial","trial_index":89,"time_elapsed":1081521,"internal_node_id":"0.0-64.0","task_version":"battery-v0.2-trt","session":3},{"rune":"E","rune_set":"bacs2","hex":"#f73b6a7A","correct":-1,"choice":-1,"rt":-1,"accuracy":1,"outcome":"-1","keys":[],"total_keys":0,"block":1,"trial":60,"stimulus":7,"robot":4,"valence":"lose","action":"no-go","sham":0,"trial_type":"pit-trial","trial_index":90,"time_elapsed":1085534,"internal_node_id":"0.0-65.0","task_version":"battery-v0.2-trt","session":3},{"rune":"G","rune_set":"bacs2","hex":"#f73b6a7A","correct":-1,"choice":-1,"rt":-1,"accuracy":1,"outcome":"-1","keys":[],"total_keys":0,"block":1,"trial":61,"stimulus":4,"robot":4,"valence":"lose","action":"no-go","sham":0,"trial_type":"pit-trial","trial_index":91,"time_elapsed":1089547,"internal_node_id":"0.0-66.0","task_version":"battery-v0.2-trt","session":3},{"rune":"O","rune_set":"bacs2","hex":"#f73b6a7A","correct":32,"choice":32,"rt":496.8650001101196,"accuracy":1,"outcome":"-1","keys":[1997.8100000880659],"total_keys":1,"block":1,"trial":62,"stimulus":5,"robot":3,"valence":"lose","action":"go","sham":0,"trial_type":"pit-trial","trial_index":92,"time_elapsed":1092756,"internal_node_id":"0.0-67.0","task_version":"battery-v0.2-trt","session":3},{"rune":"C","rune_set":"bacs2","hex":"#3366ff99","correct":-1,"choice":-1,"rt":-1,"accuracy":1,"outcome":"+10","keys":[],"total_keys":0,"block":1,"trial":63,"stimulus":6,"robot":2,"valence":"win","action":"no-go","sham":0,"trial_type":"pit-trial","trial_index":93,"time_elapsed":1096770,"internal_node_id":"0.0-68.0","task_version":"battery-v0.2-trt","session":3},{"rune":"E","rune_set":"bacs2","hex":"#f73b6a7A","correct":-1,"choice":-1,"rt":-1,"accuracy":1,"outcome":"-1","keys":[],"total_keys":0,"block":1,"trial":64,"stimulus":7,"robot":4,"valence":"lose","action":"no-go","sham":0,"trial_type":"pit-trial","trial_index":94,"time_elapsed":1100789,"internal_node_id":"0.0-69.0","task_version":"battery-v0.2-trt","session":3},{"rune":"C","rune_set":"bacs2","hex":"#3366ff99","correct":-1,"choice":-1,"rt":-1,"accuracy":1,"outcome":"+10","keys":[],"total_keys":0,"block":1,"trial":65,"stimulus":6,"robot":2,"valence":"win","action":"no-go","sham":0,"trial_type":"pit-trial","trial_index":95,"time_elapsed":1104799,"internal_node_id":"0.0-70.0","task_version":"battery-v0.2-trt","session":3},{"rune":"E","rune_set":"bacs2","hex":"#f73b6a7A","correct":-1,"choice":-1,"rt":-1,"accuracy":1,"outcome":"-1","keys":[],"total_keys":0,"block":1,"trial":66,"stimulus":7,"robot":4,"valence":"lose","action":"no-go","sham":0,"trial_type":"pit-trial","trial_index":96,"time_elapsed":1108810,"internal_node_id":"0.0-71.0","task_version":"battery-v0.2-trt","session":3},{"rune":"O","rune_set":"bacs2","hex":"#f73b6a7A","correct":32,"choice":32,"rt":570.9150000475347,"accuracy":1,"outcome":"-1","keys":[2072.1399998292327],"total_keys":1,"block":1,"trial":67,"stimulus":5,"robot":3,"valence":"lose","action":"go","sham":0,"trial_type":"pit-trial","trial_index":97,"time_elapsed":1112091,"internal_node_id":"0.0-72.0","task_version":"battery-v0.2-trt","session":3},{"rune":"G","rune_set":"bacs2","hex":"#f73b6a7A","correct":-1,"choice":-1,"rt":-1,"accuracy":1,"outcome":"-1","keys":[],"total_keys":0,"block":1,"trial":68,"stimulus":4,"robot":4,"valence":"lose","action":"no-go","sham":0,"trial_type":"pit-trial","trial_index":98,"time_elapsed":1116105,"internal_node_id":"0.0-73.0","task_version":"battery-v0.2-trt","session":3},{"rune":"C","rune_set":"bacs2","hex":"#3366ff99","correct":-1,"choice":-1,"rt":-1,"accuracy":1,"outcome":"+1","keys":[],"total_keys":0,"block":1,"trial":69,"stimulus":6,"robot":2,"valence":"win","action":"no-go","sham":1,"trial_type":"pit-trial","trial_index":99,"time_elapsed":1120124,"internal_node_id":"0.0-74.0","task_version":"battery-v0.2-trt","session":3},{"rune":"G","rune_set":"bacs2","hex":"#f73b6a7A","correct":-1,"choice":-1,"rt":-1,"accuracy":1,"outcome":"-10","keys":[],"total_keys":0,"block":1,"trial":70,"stimulus":4,"robot":4,"valence":"lose","action":"no-go","sham":1,"trial_type":"pit-trial","trial_index":100,"time_elapsed":1124133,"internal_node_id":"0.0-75.0","task_version":"battery-v0.2-trt","session":3},{"rune":"O","rune_set":"bacs2","hex":"#f73b6a7A","correct":32,"choice":32,"rt":539.3799999728799,"accuracy":1,"outcome":"-1","keys":[2040.4550000093877],"total_keys":1,"block":1,"trial":71,"stimulus":5,"robot":3,"valence":"lose","action":"go","sham":0,"trial_type":"pit-trial","trial_index":101,"time_elapsed":1127383,"internal_node_id":"0.0-76.0","task_version":"battery-v0.2-trt","session":3},{"rune":"E","rune_set":"bacs2","hex":"#f73b6a7A","correct":-1,"choice":-1,"rt":-1,"accuracy":1,"outcome":"-1","keys":[],"total_keys":0,"block":1,"trial":72,"stimulus":7,"robot":4,"valence":"lose","action":"no-go","sham":0,"trial_type":"pit-trial","trial_index":102,"time_elapsed":1131389,"internal_node_id":"0.0-77.0","task_version":"battery-v0.2-trt","session":3},{"rune":"E","rune_set":"bacs2","hex":"#f73b6a7A","correct":-1,"choice":-1,"rt":-1,"accuracy":1,"outcome":"-10","keys":[],"total_keys":0,"block":1,"trial":73,"stimulus":7,"robot":4,"valence":"lose","action":"no-go","sham":1,"trial_type":"pit-trial","trial_index":103,"time_elapsed":1135397,"internal_node_id":"0.0-78.0","task_version":"battery-v0.2-trt","session":3},{"rune":"H","rune_set":"bacs2","hex":"#f73b6a7A","correct":-1,"choice":32,"rt":1159.9799999967217,"accuracy":0,"outcome":"-10","keys":[2660.8899999409914],"total_keys":1,"block":1,"trial":74,"stimulus":8,"robot":4,"valence":"lose","action":"no-go","sham":0,"trial_type":"pit-trial","trial_index":104,"time_elapsed":1139270,"internal_node_id":"0.0-79.0","task_version":"battery-v0.2-trt","session":3},{"rune":"C","rune_set":"bacs2","hex":"#3366ff99","correct":-1,"choice":-1,"rt":-1,"accuracy":1,"outcome":"+1","keys":[],"total_keys":0,"block":1,"trial":75,"stimulus":6,"robot":2,"valence":"win","action":"no-go","sham":1,"trial_type":"pit-trial","trial_index":105,"time_elapsed":1143281,"internal_node_id":"0.0-80.0","task_version":"battery-v0.2-trt","session":3},{"rune":"O","rune_set":"bacs2","hex":"#f73b6a7A","correct":32,"choice":32,"rt":412.09999984130263,"accuracy":1,"outcome":"-1","keys":[1912.3400002717972],"total_keys":1,"block":1,"trial":76,"stimulus":5,"robot":3,"valence":"lose","action":"go","sham":0,"trial_type":"pit-trial","trial_index":106,"time_elapsed":1146407,"internal_node_id":"0.0-81.0","task_version":"battery-v0.2-trt","session":3},{"rune":"O","rune_set":"bacs2","hex":"#f73b6a7A","correct":32,"choice":32,"rt":455.165000166744,"accuracy":1,"outcome":"-1","keys":[1955.3900002501905],"total_keys":1,"block":1,"trial":77,"stimulus":5,"robot":3,"valence":"lose","action":"go","sham":0,"trial_type":"pit-trial","trial_index":107,"time_elapsed":1149576,"internal_node_id":"0.0-82.0","task_version":"battery-v0.2-trt","session":3},{"rune":"C","rune_set":"bacs2","hex":"#3366ff99","correct":-1,"choice":-1,"rt":-1,"accuracy":1,"outcome":"+1","keys":[],"total_keys":0,"block":1,"trial":78,"stimulus":6,"robot":2,"valence":"win","action":"no-go","sham":1,"trial_type":"pit-trial","trial_index":108,"time_elapsed":1153586,"internal_node_id":"0.0-83.0","task_version":"battery-v0.2-trt","session":3},{"rune":"E","rune_set":"bacs2","hex":"#f73b6a7A","correct":-1,"choice":-1,"rt":-1,"accuracy":1,"outcome":"-10","keys":[],"total_keys":0,"block":1,"trial":79,"stimulus":7,"robot":4,"valence":"lose","action":"no-go","sham":1,"trial_type":"pit-trial","trial_index":109,"time_elapsed":1157598,"internal_node_id":"0.0-84.0","task_version":"battery-v0.2-trt","session":3},{"rune":"H","rune_set":"bacs2","hex":"#f73b6a7A","correct":-1,"choice":-1,"rt":-1,"accuracy":1,"outcome":"-1","keys":[],"total_keys":0,"block":1,"trial":80,"stimulus":8,"robot":4,"valence":"lose","action":"no-go","sham":0,"trial_type":"pit-trial","trial_index":110,"time_elapsed":1161610,"internal_node_id":"0.0-85.0","task_version":"battery-v0.2-trt","session":3},{"rune":"T","rune_set":"bacs2","hex":"#f73b6a7A","correct":32,"choice":32,"rt":902.7200001291931,"accuracy":1,"outcome":"-1","keys":[2403.2950000837445],"total_keys":1,"block":1,"trial":81,"stimulus":10,"robot":3,"valence":"lose","action":"go","sham":0,"trial_type":"pit-trial","trial_index":111,"time_elapsed":1165221,"internal_node_id":"0.0-86.0","task_version":"battery-v0.2-trt","session":3},{"rune":"Q","rune_set":"bacs2","hex":"#3366ff99","correct":32,"choice":32,"rt":740.6600001268089,"accuracy":1,"outcome":"+10","keys":[2241.5449996478856],"total_keys":1,"block":1,"trial":82,"stimulus":9,"robot":1,"valence":"win","action":"go","sham":0,"trial_type":"pit-trial","trial_index":112,"time_elapsed":1168669,"internal_node_id":"0.0-87.0","task_version":"battery-v0.2-trt","session":3},{"rune":"C","rune_set":"bacs2","hex":"#3366ff99","correct":-1,"choice":-1,"rt":-1,"accuracy":1,"outcome":"+10","keys":[],"total_keys":0,"block":1,"trial":83,"stimulus":6,"robot":2,"valence":"win","action":"no-go","sham":0,"trial_type":"pit-trial","trial_index":113,"time_elapsed":1172679,"internal_node_id":"0.0-88.0","task_version":"battery-v0.2-trt","session":3},{"rune":"H","rune_set":"bacs2","hex":"#f73b6a7A","correct":-1,"choice":-1,"rt":-1,"accuracy":1,"outcome":"-1","keys":[],"total_keys":0,"block":1,"trial":84,"stimulus":8,"robot":4,"valence":"lose","action":"no-go","sham":0,"trial_type":"pit-trial","trial_index":114,"time_elapsed":1177107,"internal_node_id":"0.0-89.0","task_version":"battery-v0.2-trt","session":3},{"rune":"T","rune_set":"bacs2","hex":"#f73b6a7A","correct":32,"choice":-1,"rt":-1,"accuracy":0,"outcome":"-10","keys":[3763.095000293106],"total_keys":1,"block":1,"trial":85,"stimulus":10,"robot":3,"valence":"lose","action":"go","sham":0,"trial_type":"pit-trial","trial_index":115,"time_elapsed":1181113,"internal_node_id":"0.0-90.0","task_version":"battery-v0.2-trt","session":3},{"rune":"Q","rune_set":"bacs2","hex":"#3366ff99","correct":32,"choice":32,"rt":446.5299998410046,"accuracy":1,"outcome":"+1","keys":[1947.2599998116493],"total_keys":1,"block":1,"trial":86,"stimulus":9,"robot":1,"valence":"win","action":"go","sham":1,"trial_type":"pit-trial","trial_index":116,"time_elapsed":1184270,"internal_node_id":"0.0-91.0","task_version":"battery-v0.2-trt","session":3},{"rune":"H","rune_set":"bacs2","hex":"#f73b6a7A","correct":-1,"choice":-1,"rt":-1,"accuracy":1,"outcome":"-1","keys":[],"total_keys":0,"block":1,"trial":87,"stimulus":8,"robot":4,"valence":"lose","action":"no-go","sham":0,"trial_type":"pit-trial","trial_index":117,"time_elapsed":1188287,"internal_node_id":"0.0-92.0","task_version":"battery-v0.2-trt","session":3},{"rune":"C","rune_set":"bacs2","hex":"#3366ff99","correct":-1,"choice":-1,"rt":-1,"accuracy":1,"outcome":"+10","keys":[],"total_keys":0,"block":1,"trial":88,"stimulus":6,"robot":2,"valence":"win","action":"no-go","sham":0,"trial_type":"pit-trial","trial_index":118,"time_elapsed":1192297,"internal_node_id":"0.0-93.0","task_version":"battery-v0.2-trt","session":3},{"rune":"T","rune_set":"bacs2","hex":"#f73b6a7A","correct":32,"choice":32,"rt":469.24500027671456,"accuracy":1,"outcome":"-1","keys":[1971.0400002077222],"total_keys":1,"block":1,"trial":89,"stimulus":10,"robot":3,"valence":"lose","action":"go","sham":0,"trial_type":"pit-trial","trial_index":119,"time_elapsed":1195477,"internal_node_id":"0.0-94.0","task_version":"battery-v0.2-trt","session":3},{"rune":"H","rune_set":"bacs2","hex":"#f73b6a7A","correct":-1,"choice":-1,"rt":-1,"accuracy":1,"outcome":"-10","keys":[],"total_keys":0,"block":1,"trial":90,"stimulus":8,"robot":4,"valence":"lose","action":"no-go","sham":1,"trial_type":"pit-trial","trial_index":120,"time_elapsed":1199489,"internal_node_id":"0.0-95.0","task_version":"battery-v0.2-trt","session":3},{"rune":"Q","rune_set":"bacs2","hex":"#3366ff99","correct":32,"choice":32,"rt":493.75000037252903,"accuracy":1,"outcome":"+10","keys":[1994.7549998760223],"total_keys":1,"block":1,"trial":91,"stimulus":9,"robot":1,"valence":"win","action":"go","sham":0,"trial_type":"pit-trial","trial_index":121,"time_elapsed":1202697,"internal_node_id":"0.0-96.0","task_version":"battery-v0.2-trt","session":3},{"rune":"Y","rune_set":"bacs2","hex":"#3366ff99","correct":32,"choice":32,"rt":1242.2100002877414,"accuracy":1,"outcome":"+10","keys":[2743.745000101626],"total_keys":1,"block":1,"trial":92,"stimulus":11,"robot":1,"valence":"win","action":"go","sham":0,"trial_type":"pit-trial","trial_index":122,"time_elapsed":1206647,"internal_node_id":"0.0-97.0","task_version":"battery-v0.2-trt","session":3},{"rune":"H","rune_set":"bacs2","hex":"#f73b6a7A","correct":-1,"choice":-1,"rt":-1,"accuracy":1,"outcome":"-1","keys":[],"total_keys":0,"block":1,"trial":93,"stimulus":8,"robot":4,"valence":"lose","action":"no-go","sham":0,"trial_type":"pit-trial","trial_index":123,"time_elapsed":1210656,"internal_node_id":"0.0-98.0","task_version":"battery-v0.2-trt","session":3},{"rune":"Y","rune_set":"bacs2","hex":"#3366ff99","correct":32,"choice":32,"rt":526.6500003635883,"accuracy":1,"outcome":"+10","keys":[2027.1549997851253],"total_keys":1,"block":1,"trial":94,"stimulus":11,"robot":1,"valence":"win","action":"go","sham":0,"trial_type":"pit-trial","trial_index":124,"time_elapsed":1213889,"internal_node_id":"0.0-99.0","task_version":"battery-v0.2-trt","session":3},{"rune":"T","rune_set":"bacs2","hex":"#f73b6a7A","correct":32,"choice":32,"rt":606.6899998113513,"accuracy":1,"outcome":"-1","keys":[2106.740000192076],"total_keys":1,"block":1,"trial":95,"stimulus":10,"robot":3,"valence":"lose","action":"go","sham":0,"trial_type":"pit-trial","trial_index":125,"time_elapsed":1217207,"internal_node_id":"0.0-100.0","task_version":"battery-v0.2-trt","session":3},{"rune":"Q","rune_set":"bacs2","hex":"#3366ff99","correct":32,"choice":32,"rt":436.89499981701374,"accuracy":1,"outcome":"+1","keys":[1938.904999755323],"total_keys":1,"block":1,"trial":96,"stimulus":9,"robot":1,"valence":"win","action":"go","sham":1,"trial_type":"pit-trial","trial_index":126,"time_elapsed":1220352,"internal_node_id":"0.0-101.0","task_version":"battery-v0.2-trt","session":3},{"rune":"T","rune_set":"bacs2","hex":"#f73b6a7A","correct":32,"choice":32,"rt":539.0949998982251,"accuracy":1,"outcome":"-1","keys":[2040.6999997794628],"total_keys":1,"block":1,"trial":97,"stimulus":10,"robot":3,"valence":"lose","action":"go","sham":0,"trial_type":"pit-trial","trial_index":127,"time_elapsed":1223607,"internal_node_id":"0.0-102.0","task_version":"battery-v0.2-trt","session":3},{"rune":"H","rune_set":"bacs2","hex":"#f73b6a7A","correct":-1,"choice":-1,"rt":-1,"accuracy":1,"outcome":"-1","keys":[],"total_keys":0,"block":1,"trial":98,"stimulus":8,"robot":4,"valence":"lose","action":"no-go","sham":0,"trial_type":"pit-trial","trial_index":128,"time_elapsed":1227614,"internal_node_id":"0.0-103.0","task_version":"battery-v0.2-trt","session":3},{"rune":"Y","rune_set":"bacs2","hex":"#3366ff99","correct":32,"choice":32,"rt":440.0150002911687,"accuracy":1,"outcome":"+1","keys":[1941.9399998150766],"total_keys":1,"block":1,"trial":99,"stimulus":11,"robot":1,"valence":"win","action":"go","sham":1,"trial_type":"pit-trial","trial_index":129,"time_elapsed":1230766,"internal_node_id":"0.0-104.0","task_version":"battery-v0.2-trt","session":3},{"rune":"Q","rune_set":"bacs2","hex":"#3366ff99","correct":32,"choice":32,"rt":463.75999972224236,"accuracy":1,"outcome":"+10","keys":[1965.305000077933],"total_keys":1,"block":1,"trial":100,"stimulus":9,"robot":1,"valence":"win","action":"go","sham":0,"trial_type":"pit-trial","trial_index":130,"time_elapsed":1233943,"internal_node_id":"0.0-105.0","task_version":"battery-v0.2-trt","session":3},{"rune":"T","rune_set":"bacs2","hex":"#f73b6a7A","correct":32,"choice":32,"rt":513.4950000792742,"accuracy":1,"outcome":"-1","keys":[2013.8350003398955],"total_keys":1,"block":1,"trial":101,"stimulus":10,"robot":3,"valence":"lose","action":"go","sham":0,"trial_type":"pit-trial","trial_index":131,"time_elapsed":1237173,"internal_node_id":"0.0-106.0","task_version":"battery-v0.2-trt","session":3},{"rune":"Y","rune_set":"bacs2","hex":"#3366ff99","correct":32,"choice":32,"rt":445.45499980449677,"accuracy":1,"outcome":"+10","keys":[1946.860000025481],"total_keys":1,"block":1,"trial":102,"stimulus":11,"robot":1,"valence":"win","action":"go","sham":0,"trial_type":"pit-trial","trial_index":132,"time_elapsed":1240329,"internal_node_id":"0.0-107.0","task_version":"battery-v0.2-trt","session":3},{"rune":"H","rune_set":"bacs2","hex":"#f73b6a7A","correct":-1,"choice":-1,"rt":-1,"accuracy":1,"outcome":"-1","keys":[],"total_keys":0,"block":1,"trial":103,"stimulus":8,"robot":4,"valence":"lose","action":"no-go","sham":0,"trial_type":"pit-trial","trial_index":133,"time_elapsed":1244342,"internal_node_id":"0.0-108.0","task_version":"battery-v0.2-trt","session":3},{"rune":"Q","rune_set":"bacs2","hex":"#3366ff99","correct":32,"choice":32,"rt":422.5099999457598,"accuracy":1,"outcome":"+10","keys":[1923.6099999397993],"total_keys":1,"block":1,"trial":104,"stimulus":9,"robot":1,"valence":"win","action":"go","sham":0,"trial_type":"pit-trial","trial_index":134,"time_elapsed":1247480,"internal_node_id":"0.0-109.0","task_version":"battery-v0.2-trt","session":3},{"rune":"Y","rune_set":"bacs2","hex":"#3366ff99","correct":32,"choice":32,"rt":447.0899999141693,"accuracy":1,"outcome":"+10","keys":[1948.1550003401935],"total_keys":1,"block":1,"trial":105,"stimulus":11,"robot":1,"valence":"win","action":"go","sham":0,"trial_type":"pit-trial","trial_index":135,"time_elapsed":1250636,"internal_node_id":"0.0-110.0","task_version":"battery-v0.2-trt","session":3},{"rune":"Q","rune_set":"bacs2","hex":"#3366ff99","correct":32,"choice":32,"rt":340.31999995931983,"accuracy":1,"outcome":"+10","keys":[1841.8499999679625],"total_keys":1,"block":1,"trial":106,"stimulus":9,"robot":1,"valence":"win","action":"go","sham":0,"trial_type":"pit-trial","trial_index":136,"time_elapsed":1253687,"internal_node_id":"0.0-111.0","task_version":"battery-v0.2-trt","session":3},{"rune":"H","rune_set":"bacs2","hex":"#f73b6a7A","correct":-1,"choice":-1,"rt":-1,"accuracy":1,"outcome":"-1","keys":[],"total_keys":0,"block":1,"trial":107,"stimulus":8,"robot":4,"valence":"lose","action":"no-go","sham":0,"trial_type":"pit-trial","trial_index":137,"time_elapsed":1257697,"internal_node_id":"0.0-112.0","task_version":"battery-v0.2-trt","session":3},{"rune":"T","rune_set":"bacs2","hex":"#f73b6a7A","correct":32,"choice":32,"rt":481.36499989777803,"accuracy":1,"outcome":"-1","keys":[1982.4800002388656],"total_keys":1,"block":1,"trial":108,"stimulus":10,"robot":3,"valence":"lose","action":"go","sham":0,"trial_type":"pit-trial","trial_index":138,"time_elapsed":1260892,"internal_node_id":"0.0-113.0","task_version":"battery-v0.2-trt","session":3},{"rune":"Y","rune_set":"bacs2","hex":"#3366ff99","correct":32,"choice":32,"rt":443.80000000819564,"accuracy":1,"outcome":"+1","keys":[1944.7399997152388],"total_keys":1,"block":1,"trial":109,"stimulus":11,"robot":1,"valence":"win","action":"go","sham":1,"trial_type":"pit-trial","trial_index":139,"time_elapsed":1264050,"internal_node_id":"0.0-114.0","task_version":"battery-v0.2-trt","session":3},{"rune":"Q","rune_set":"bacs2","hex":"#3366ff99","correct":32,"choice":32,"rt":389.01499984785914,"accuracy":1,"outcome":"+10","keys":[1889.819999691099],"total_keys":1,"block":1,"trial":110,"stimulus":9,"robot":1,"valence":"win","action":"go","sham":0,"trial_type":"pit-trial","trial_index":140,"time_elapsed":1267148,"internal_node_id":"0.0-115.0","task_version":"battery-v0.2-trt","session":3},{"rune":"H","rune_set":"bacs2","hex":"#f73b6a7A","correct":-1,"choice":-1,"rt":-1,"accuracy":1,"outcome":"-1","keys":[],"total_keys":0,"block":1,"trial":111,"stimulus":8,"robot":4,"valence":"lose","action":"no-go","sham":0,"trial_type":"pit-trial","trial_index":141,"time_elapsed":1271157,"internal_node_id":"0.0-116.0","task_version":"battery-v0.2-trt","session":3},{"rune":"T","rune_set":"bacs2","hex":"#f73b6a7A","correct":32,"choice":32,"rt":438.0049998871982,"accuracy":1,"outcome":"-10","keys":[1938.045000191778],"total_keys":1,"block":1,"trial":112,"stimulus":10,"robot":3,"valence":"lose","action":"go","sham":1,"trial_type":"pit-trial","trial_index":142,"time_elapsed":1274301,"internal_node_id":"0.0-117.0","task_version":"battery-v0.2-trt","session":3},{"rune":"H","rune_set":"bacs2","hex":"#f73b6a7A","correct":-1,"choice":-1,"rt":-1,"accuracy":1,"outcome":"-10","keys":[],"total_keys":0,"block":1,"trial":113,"stimulus":8,"robot":4,"valence":"lose","action":"no-go","sham":1,"trial_type":"pit-trial","trial_index":143,"time_elapsed":1278315,"internal_node_id":"0.0-118.0","task_version":"battery-v0.2-trt","session":3},{"rune":"Y","rune_set":"bacs2","hex":"#3366ff99","correct":32,"choice":32,"rt":451.53999980539083,"accuracy":1,"outcome":"+10","keys":[1952.5199998170137],"total_keys":1,"block":1,"trial":114,"stimulus":11,"robot":1,"valence":"win","action":"go","sham":0,"trial_type":"pit-trial","trial_index":144,"time_elapsed":1281478,"internal_node_id":"0.0-119.0","task_version":"battery-v0.2-trt","session":3},{"rune":"Q","rune_set":"bacs2","hex":"#3366ff99","correct":32,"choice":32,"rt":453.60999973490834,"accuracy":1,"outcome":"+10","keys":[1954.020000062883],"total_keys":1,"block":1,"trial":115,"stimulus":9,"robot":1,"valence":"win","action":"go","sham":0,"trial_type":"pit-trial","trial_index":145,"time_elapsed":1284644,"internal_node_id":"0.0-120.0","task_version":"battery-v0.2-trt","session":3},{"rune":"T","rune_set":"bacs2","hex":"#f73b6a7A","correct":32,"choice":32,"rt":445.6950002349913,"accuracy":1,"outcome":"-1","keys":[1946.765000000596],"total_keys":1,"block":1,"trial":116,"stimulus":10,"robot":3,"valence":"lose","action":"go","sham":0,"trial_type":"pit-trial","trial_index":146,"time_elapsed":1287804,"internal_node_id":"0.0-121.0","task_version":"battery-v0.2-trt","session":3},{"rune":"H","rune_set":"bacs2","hex":"#f73b6a7A","correct":-1,"choice":-1,"rt":-1,"accuracy":1,"outcome":"-1","keys":[],"total_keys":0,"block":1,"trial":117,"stimulus":8,"robot":4,"valence":"lose","action":"no-go","sham":0,"trial_type":"pit-trial","trial_index":147,"time_elapsed":1291815,"internal_node_id":"0.0-122.0","task_version":"battery-v0.2-trt","session":3},{"rune":"T","rune_set":"bacs2","hex":"#f73b6a7A","correct":32,"choice":32,"rt":436.1300002783537,"accuracy":1,"outcome":"-10","keys":[1936.3049999810755],"total_keys":1,"block":1,"trial":118,"stimulus":10,"robot":3,"valence":"lose","action":"go","sham":1,"trial_type":"pit-trial","trial_index":148,"time_elapsed":1294961,"internal_node_id":"0.0-123.0","task_version":"battery-v0.2-trt","session":3},{"rune":"Q","rune_set":"bacs2","hex":"#3366ff99","correct":32,"choice":32,"rt":446.8049998395145,"accuracy":1,"outcome":"+10","keys":[1947.3099997267127],"total_keys":1,"block":1,"trial":119,"stimulus":9,"robot":1,"valence":"win","action":"go","sham":0,"trial_type":"pit-trial","trial_index":149,"time_elapsed":1298121,"internal_node_id":"0.0-124.0","task_version":"battery-v0.2-trt","session":3},{"rune":"Y","rune_set":"bacs2","hex":"#3366ff99","correct":32,"choice":32,"rt":439.47499990463257,"accuracy":1,"outcome":"+10","keys":[1940.039999783039],"total_keys":1,"block":1,"trial":120,"stimulus":11,"robot":1,"valence":"win","action":"go","sham":0,"trial_type":"pit-trial","trial_index":150,"time_elapsed":1301271,"internal_node_id":"0.0-125.0","task_version":"battery-v0.2-trt","session":3},{"view_history":"[{\"page_index\":0,\"viewing_time\":41698.31499969587},{\"page_index\":1,\"viewing_time\":3511.8100000545382}]","rt":45210.949999745935,"trial_type":"pit-instructions","trial_index":151,"time_elapsed":1346492,"internal_node_id":"0.0-126.0","task_version":"battery-v0.2-trt","session":3},{"rune":"B","rune_set":"bacs2","hex":"#f73b6a7A","correct":32,"choice":32,"rt":623.0000001378357,"accuracy":1,"outcome":"-10","keys":[2124.3449999019504],"total_keys":1,"block":2,"trial":121,"stimulus":1,"robot":3,"valence":"lose","action":"go","sham":1,"trial_type":"pit-trial","trial_index":152,"time_elapsed":1349829,"internal_node_id":"0.0-127.0","task_version":"battery-v0.2-trt","session":3},{"rune":"V","rune_set":"bacs2","hex":"#3366ff99","correct":32,"choice":32,"rt":508.7449997663498,"accuracy":1,"outcome":"+10","keys":[2010.0850001908839],"total_keys":1,"block":2,"trial":122,"stimulus":3,"robot":1,"valence":"win","action":"go","sham":0,"trial_type":"pit-trial","trial_index":153,"time_elapsed":1353050,"internal_node_id":"0.0-128.0","task_version":"battery-v0.2-trt","session":3},{"rune":"K","rune_set":"bacs2","hex":"#f73b6a7A","correct":-1,"choice":32,"rt":577.6450000703335,"accuracy":0,"outcome":"-10","keys":[2077.924999874085],"total_keys":1,"block":2,"trial":123,"stimulus":2,"robot":4,"valence":"lose","action":"no-go","sham":0,"trial_type":"pit-trial","trial_index":154,"time_elapsed":1356340,"internal_node_id":"0.0-129.0","task_version":"battery-v0.2-trt","session":3},{"rune":"M","rune_set":"bacs2","hex":"#3366ff99","correct":-1,"choice":32,"rt":451.5899997204542,"accuracy":0,"outcome":"+1","keys":[1951.8449995666742],"total_keys":1,"block":2,"trial":124,"stimulus":0,"robot":2,"valence":"win","action":"no-go","sham":0,"trial_type":"pit-trial","trial_index":155,"time_elapsed":1359501,"internal_node_id":"0.0-130.0","task_version":"battery-v0.2-trt","session":3},{"rune":"V","rune_set":"bacs2","hex":"#3366ff99","correct":32,"choice":32,"rt":449.1749997250736,"accuracy":1,"outcome":"+10","keys":[1950.310000218451],"total_keys":1,"block":2,"trial":125,"stimulus":3,"robot":1,"valence":"win","action":"go","sham":0,"trial_type":"pit-trial","trial_index":156,"time_elapsed":1362662,"internal_node_id":"0.0-131.0","task_version":"battery-v0.2-trt","session":3},{"rune":"M","rune_set":"bacs2","hex":"#3366ff99","correct":-1,"choice":32,"rt":952.1599998697639,"accuracy":0,"outcome":"+1","keys":[2452.8199997730553],"total_keys":1,"block":2,"trial":126,"stimulus":0,"robot":2,"valence":"win","action":"no-go","sham":0,"trial_type":"pit-trial","trial_index":157,"time_elapsed":1366325,"internal_node_id":"0.0-132.0","task_version":"battery-v0.2-trt","session":3},{"rune":"K","rune_set":"bacs2","hex":"#f73b6a7A","correct":-1,"choice":-1,"rt":-1,"accuracy":1,"outcome":"-1","keys":[],"total_keys":0,"block":2,"trial":127,"stimulus":2,"robot":4,"valence":"lose","action":"no-go","sham":0,"trial_type":"pit-trial","trial_index":158,"time_elapsed":1370336,"internal_node_id":"0.0-133.0","task_version":"battery-v0.2-trt","session":3},{"rune":"B","rune_set":"bacs2","hex":"#f73b6a7A","correct":32,"choice":-1,"rt":-1,"accuracy":0,"outcome":"-10","keys":[],"total_keys":0,"block":2,"trial":128,"stimulus":1,"robot":3,"valence":"lose","action":"go","sham":0,"trial_type":"pit-trial","trial_index":159,"time_elapsed":1374350,"internal_node_id":"0.0-134.0","task_version":"battery-v0.2-trt","session":3},{"rune":"V","rune_set":"bacs2","hex":"#3366ff99","correct":32,"choice":32,"rt":650.7350001484156,"accuracy":1,"outcome":"+10","keys":[2151.194999925792],"total_keys":1,"block":2,"trial":129,"stimulus":3,"robot":1,"valence":"win","action":"go","sham":0,"trial_type":"pit-trial","trial_index":160,"time_elapsed":1377713,"internal_node_id":"0.0-135.0","task_version":"battery-v0.2-trt","session":3},{"rune":"K","rune_set":"bacs2","hex":"#f73b6a7A","correct":-1,"choice":-1,"rt":-1,"accuracy":1,"outcome":"-1","keys":[],"total_keys":0,"block":2,"trial":130,"stimulus":2,"robot":4,"valence":"lose","action":"no-go","sham":0,"trial_type":"pit-trial","trial_index":161,"time_elapsed":1382310,"internal_node_id":"0.0-136.0","task_version":"battery-v0.2-trt","session":3},{"rune":"B","rune_set":"bacs2","hex":"#f73b6a7A","correct":32,"choice":-1,"rt":-1,"accuracy":0,"outcome":"-10","keys":[],"total_keys":0,"block":2,"trial":131,"stimulus":1,"robot":3,"valence":"lose","action":"go","sham":0,"trial_type":"pit-trial","trial_index":162,"time_elapsed":1386318,"internal_node_id":"0.0-137.0","task_version":"battery-v0.2-trt","session":3},{"rune":"M","rune_set":"bacs2","hex":"#3366ff99","correct":-1,"choice":-1,"rt":-1,"accuracy":1,"outcome":"+1","keys":[],"total_keys":0,"block":2,"trial":132,"stimulus":0,"robot":2,"valence":"win","action":"no-go","sham":1,"trial_type":"pit-trial","trial_index":163,"time_elapsed":1390330,"internal_node_id":"0.0-138.0","task_version":"battery-v0.2-trt","session":3},{"rune":"M","rune_set":"bacs2","hex":"#3366ff99","correct":-1,"choice":-1,"rt":-1,"accuracy":1,"outcome":"+10","keys":[],"total_keys":0,"block":2,"trial":133,"stimulus":0,"robot":2,"valence":"win","action":"no-go","sham":0,"trial_type":"pit-trial","trial_index":164,"time_elapsed":1394342,"internal_node_id":"0.0-139.0","task_version":"battery-v0.2-trt","session":3},{"rune":"K","rune_set":"bacs2","hex":"#f73b6a7A","correct":-1,"choice":-1,"rt":-1,"accuracy":1,"outcome":"-1","keys":[],"total_keys":0,"block":2,"trial":134,"stimulus":2,"robot":4,"valence":"lose","action":"no-go","sham":0,"trial_type":"pit-trial","trial_index":165,"time_elapsed":1398356,"internal_node_id":"0.0-140.0","task_version":"battery-v0.2-trt","session":3},{"rune":"V","rune_set":"bacs2","hex":"#3366ff99","correct":32,"choice":32,"rt":589.5499996840954,"accuracy":1,"outcome":"+1","keys":[2089.9749998934567],"total_keys":1,"block":2,"trial":135,"stimulus":3,"robot":1,"valence":"win","action":"go","sham":1,"trial_type":"pit-trial","trial_index":166,"time_elapsed":1401658,"internal_node_id":"0.0-141.0","task_version":"battery-v0.2-trt","session":3},{"rune":"B","rune_set":"bacs2","hex":"#f73b6a7A","correct":32,"choice":32,"rt":767.0499999076128,"accuracy":1,"outcome":"-10","keys":[2267.354999668896],"total_keys":1,"block":2,"trial":136,"stimulus":1,"robot":3,"valence":"lose","action":"go","sham":1,"trial_type":"pit-trial","trial_index":167,"time_elapsed":1405140,"internal_node_id":"0.0-142.0","task_version":"battery-v0.2-trt","session":3},{"rune":"B","rune_set":"bacs2","hex":"#f73b6a7A","correct":32,"choice":32,"rt":485.91999989002943,"accuracy":1,"outcome":"-10","keys":[1987.4249999411404],"total_keys":1,"block":2,"trial":137,"stimulus":1,"robot":3,"valence":"lose","action":"go","sham":1,"trial_type":"pit-trial","trial_index":168,"time_elapsed":1408333,"internal_node_id":"0.0-143.0","task_version":"battery-v0.2-trt","session":3},{"rune":"V","rune_set":"bacs2","hex":"#3366ff99","correct":32,"choice":32,"rt":436.2099999561906,"accuracy":1,"outcome":"+10","keys":[1937.7500000409782],"total_keys":1,"block":2,"trial":138,"stimulus":3,"robot":1,"valence":"win","action":"go","sham":0,"trial_type":"pit-trial","trial_index":169,"time_elapsed":1411478,"internal_node_id":"0.0-144.0","task_version":"battery-v0.2-trt","session":3},{"rune":"M","rune_set":"bacs2","hex":"#3366ff99","correct":-1,"choice":-1,"rt":-1,"accuracy":1,"outcome":"+10","keys":[],"total_keys":0,"block":2,"trial":139,"stimulus":0,"robot":2,"valence":"win","action":"no-go","sham":0,"trial_type":"pit-trial","trial_index":170,"time_elapsed":1415489,"internal_node_id":"0.0-145.0","task_version":"battery-v0.2-trt","session":3},{"rune":"K","rune_set":"bacs2","hex":"#f73b6a7A","correct":-1,"choice":-1,"rt":-1,"accuracy":1,"outcome":"-10","keys":[],"total_keys":0,"block":2,"trial":140,"stimulus":2,"robot":4,"valence":"lose","action":"no-go","sham":1,"trial_type":"pit-trial","trial_index":171,"time_elapsed":1419497,"internal_node_id":"0.0-146.0","task_version":"battery-v0.2-trt","session":3},{"rune":"B","rune_set":"bacs2","hex":"#f73b6a7A","correct":32,"choice":-1,"rt":-1,"accuracy":0,"outcome":"-10","keys":[],"total_keys":0,"block":2,"trial":141,"stimulus":1,"robot":3,"valence":"lose","action":"go","sham":0,"trial_type":"pit-trial","trial_index":172,"time_elapsed":1423506,"internal_node_id":"0.0-147.0","task_version":"battery-v0.2-trt","session":3},{"rune":"M","rune_set":"bacs2","hex":"#3366ff99","correct":-1,"choice":-1,"rt":-1,"accuracy":1,"outcome":"+10","keys":[],"total_keys":0,"block":2,"trial":142,"stimulus":0,"robot":2,"valence":"win","action":"no-go","sham":0,"trial_type":"pit-trial","trial_index":173,"time_elapsed":1427527,"internal_node_id":"0.0-148.0","task_version":"battery-v0.2-trt","session":3},{"rune":"K","rune_set":"bacs2","hex":"#f73b6a7A","correct":-1,"choice":-1,"rt":-1,"accuracy":1,"outcome":"-1","keys":[],"total_keys":0,"block":2,"trial":143,"stimulus":2,"robot":4,"valence":"lose","action":"no-go","sham":0,"trial_type":"pit-trial","trial_index":174,"time_elapsed":1431540,"internal_node_id":"0.0-149.0","task_version":"battery-v0.2-trt","session":3},{"rune":"V","rune_set":"bacs2","hex":"#3366ff99","correct":32,"choice":32,"rt":440.35999989137053,"accuracy":1,"outcome":"+10","keys":[1941.744999960065],"total_keys":1,"block":2,"trial":144,"stimulus":3,"robot":1,"valence":"win","action":"go","sham":0,"trial_type":"pit-trial","trial_index":175,"time_elapsed":1434688,"internal_node_id":"0.0-150.0","task_version":"battery-v0.2-trt","session":3},{"rune":"V","rune_set":"bacs2","hex":"#3366ff99","correct":32,"choice":32,"rt":430.80999981611967,"accuracy":1,"outcome":"+10","keys":[1931.0049996711314],"total_keys":1,"block":2,"trial":145,"stimulus":3,"robot":1,"valence":"win","action":"go","sham":0,"trial_type":"pit-trial","trial_index":176,"time_elapsed":1437834,"internal_node_id":"0.0-151.0","task_version":"battery-v0.2-trt","session":3},{"rune":"B","rune_set":"bacs2","hex":"#f73b6a7A","correct":32,"choice":-1,"rt":-1,"accuracy":0,"outcome":"-10","keys":[],"total_keys":0,"block":2,"trial":146,"stimulus":1,"robot":3,"valence":"lose","action":"go","sham":0,"trial_type":"pit-trial","trial_index":177,"time_elapsed":1441851,"internal_node_id":"0.0-152.0","task_version":"battery-v0.2-trt","session":3},{"rune":"M","rune_set":"bacs2","hex":"#3366ff99","correct":-1,"choice":-1,"rt":-1,"accuracy":1,"outcome":"+1","keys":[],"total_keys":0,"block":2,"trial":147,"stimulus":0,"robot":2,"valence":"win","action":"no-go","sham":1,"trial_type":"pit-trial","trial_index":178,"time_elapsed":1445859,"internal_node_id":"0.0-153.0","task_version":"battery-v0.2-trt","session":3},{"rune":"K","rune_set":"bacs2","hex":"#f73b6a7A","correct":-1,"choice":-1,"rt":-1,"accuracy":1,"outcome":"-1","keys":[],"total_keys":0,"block":2,"trial":148,"stimulus":2,"robot":4,"valence":"lose","action":"no-go","sham":0,"trial_type":"pit-trial","trial_index":179,"time_elapsed":1449871,"internal_node_id":"0.0-154.0","task_version":"battery-v0.2-trt","session":3},{"rune":"B","rune_set":"bacs2","hex":"#f73b6a7A","correct":32,"choice":32,"rt":492.1200000680983,"accuracy":1,"outcome":"-1","keys":[1993.5049996711314],"total_keys":1,"block":2,"trial":149,"stimulus":1,"robot":3,"valence":"lose","action":"go","sham":0,"trial_type":"pit-trial","trial_index":180,"time_elapsed":1453079,"internal_node_id":"0.0-155.0","task_version":"battery-v0.2-trt","session":3},{"rune":"V","rune_set":"bacs2","hex":"#3366ff99","correct":32,"choice":32,"rt":425.5099999718368,"accuracy":1,"outcome":"+10","keys":[1926.0650002397597],"total_keys":1,"block":2,"trial":150,"stimulus":3,"robot":1,"valence":"win","action":"go","sham":0,"trial_type":"pit-trial","trial_index":181,"time_elapsed":1456222,"internal_node_id":"0.0-156.0","task_version":"battery-v0.2-trt","session":3},{"rune":"M","rune_set":"bacs2","hex":"#3366ff99","correct":-1,"choice":-1,"rt":-1,"accuracy":1,"outcome":"+1","keys":[],"total_keys":0,"block":2,"trial":151,"stimulus":0,"robot":2,"valence":"win","action":"no-go","sham":1,"trial_type":"pit-trial","trial_index":182,"time_elapsed":1460240,"internal_node_id":"0.0-157.0","task_version":"battery-v0.2-trt","session":3},{"rune":"K","rune_set":"bacs2","hex":"#f73b6a7A","correct":-1,"choice":-1,"rt":-1,"accuracy":1,"outcome":"-1","keys":[],"total_keys":0,"block":2,"trial":152,"stimulus":2,"robot":4,"valence":"lose","action":"no-go","sham":0,"trial_type":"pit-trial","trial_index":183,"time_elapsed":1464251,"internal_node_id":"0.0-158.0","task_version":"battery-v0.2-trt","session":3},{"rune":"B","rune_set":"bacs2","hex":"#f73b6a7A","correct":32,"choice":32,"rt":497.94500041753054,"accuracy":1,"outcome":"-1","keys":[1998.7649996764958],"total_keys":1,"block":2,"trial":153,"stimulus":1,"robot":3,"valence":"lose","action":"go","sham":0,"trial_type":"pit-trial","trial_index":184,"time_elapsed":1467459,"internal_node_id":"0.0-159.0","task_version":"battery-v0.2-trt","session":3},{"rune":"P","rune_set":"bacs2","hex":"#f73b6a7A","correct":-1,"choice":32,"rt":1078.575000166893,"accuracy":0,"outcome":"-10","keys":[2579.380000010133],"total_keys":1,"block":2,"trial":154,"stimulus":5,"robot":4,"valence":"lose","action":"no-go","sham":0,"trial_type":"pit-trial","trial_index":185,"time_elapsed":1471251,"internal_node_id":"0.0-160.0","task_version":"battery-v0.2-trt","session":3},{"rune":"K","rune_set":"bacs2","hex":"#f73b6a7A","correct":-1,"choice":-1,"rt":-1,"accuracy":1,"outcome":"-1","keys":[],"total_keys":0,"block":2,"trial":155,"stimulus":2,"robot":4,"valence":"lose","action":"no-go","sham":0,"trial_type":"pit-trial","trial_index":186,"time_elapsed":1475264,"internal_node_id":"0.0-161.0","task_version":"battery-v0.2-trt","session":3},{"rune":"R","rune_set":"bacs2","hex":"#f73b6a7A","correct":32,"choice":32,"rt":1040.8899998292327,"accuracy":1,"outcome":"-10","keys":[2541.1000000312924],"total_keys":1,"block":2,"trial":156,"stimulus":4,"robot":3,"valence":"lose","action":"go","sham":1,"trial_type":"pit-trial","trial_index":187,"time_elapsed":1479014,"internal_node_id":"0.0-162.0","task_version":"battery-v0.2-trt","session":3},{"rune":"B","rune_set":"bacs2","hex":"#f73b6a7A","correct":32,"choice":32,"rt":488.20999963209033,"accuracy":1,"outcome":"-10","keys":[1989.775000140071],"total_keys":1,"block":2,"trial":157,"stimulus":1,"robot":3,"valence":"lose","action":"go","sham":1,"trial_type":"pit-trial","trial_index":188,"time_elapsed":1482216,"internal_node_id":"0.0-163.0","task_version":"battery-v0.2-trt","session":3},{"rune":"R","rune_set":"bacs2","hex":"#f73b6a7A","correct":32,"choice":-1,"rt":-1,"accuracy":0,"outcome":"-10","keys":[],"total_keys":0,"block":2,"trial":158,"stimulus":4,"robot":3,"valence":"lose","action":"go","sham":0,"trial_type":"pit-trial","trial_index":189,"time_elapsed":1486229,"internal_node_id":"0.0-164.0","task_version":"battery-v0.2-trt","session":3},{"rune":"K","rune_set":"bacs2","hex":"#f73b6a7A","correct":-1,"choice":-1,"rt":-1,"accuracy":1,"outcome":"-1","keys":[],"total_keys":0,"block":2,"trial":159,"stimulus":2,"robot":4,"valence":"lose","action":"no-go","sham":0,"trial_type":"pit-trial","trial_index":190,"time_elapsed":1490242,"internal_node_id":"0.0-165.0","task_version":"battery-v0.2-trt","session":3},{"rune":"P","rune_set":"bacs2","hex":"#f73b6a7A","correct":-1,"choice":-1,"rt":-1,"accuracy":1,"outcome":"-1","keys":[],"total_keys":0,"block":2,"trial":160,"stimulus":5,"robot":4,"valence":"lose","action":"no-go","sham":0,"trial_type":"pit-trial","trial_index":191,"time_elapsed":1494255,"internal_node_id":"0.0-166.0","task_version":"battery-v0.2-trt","session":3},{"rune":"K","rune_set":"bacs2","hex":"#f73b6a7A","correct":-1,"choice":-1,"rt":-1,"accuracy":1,"outcome":"-1","keys":[],"total_keys":0,"block":2,"trial":161,"stimulus":2,"robot":4,"valence":"lose","action":"no-go","sham":0,"trial_type":"pit-trial","trial_index":192,"time_elapsed":1498268,"internal_node_id":"0.0-167.0","task_version":"battery-v0.2-trt","session":3},{"rune":"L","rune_set":"bacs2","hex":"#3366ff99","correct":-1,"choice":32,"rt":769.4999999366701,"accuracy":0,"outcome":"+1","keys":[2269.594999961555],"total_keys":1,"block":2,"trial":162,"stimulus":6,"robot":2,"valence":"win","action":"no-go","sham":0,"trial_type":"pit-trial","trial_index":193,"time_elapsed":1501748,"internal_node_id":"0.0-168.0","task_version":"battery-v0.2-trt","session":3},{"rune":"R","rune_set":"bacs2","hex":"#f73b6a7A","correct":32,"choice":32,"rt":471.58500039950013,"accuracy":1,"outcome":"-10","keys":[1973.1100001372397],"total_keys":1,"block":2,"trial":163,"stimulus":4,"robot":3,"valence":"lose","action":"go","sham":1,"trial_type":"pit-trial","trial_index":194,"time_elapsed":1505104,"internal_node_id":"0.0-169.0","task_version":"battery-v0.2-trt","session":3},{"rune":"P","rune_set":"bacs2","hex":"#f73b6a7A","correct":-1,"choice":-1,"rt":-1,"accuracy":1,"outcome":"-10","keys":[],"total_keys":0,"block":2,"trial":164,"stimulus":5,"robot":4,"valence":"lose","action":"no-go","sham":1,"trial_type":"pit-trial","trial_index":195,"time_elapsed":1509578,"internal_node_id":"0.0-170.0","task_version":"battery-v0.2-trt","session":3},{"rune":"P","rune_set":"bacs2","hex":"#f73b6a7A","correct":-1,"choice":-1,"rt":-1,"accuracy":1,"outcome":"-1","keys":[],"total_keys":0,"block":2,"trial":165,"stimulus":5,"robot":4,"valence":"lose","action":"no-go","sham":0,"trial_type":"pit-trial","trial_index":196,"time_elapsed":1513587,"internal_node_id":"0.0-171.0","task_version":"battery-v0.2-trt","session":3},{"rune":"R","rune_set":"bacs2","hex":"#f73b6a7A","correct":32,"choice":-1,"rt":-1,"accuracy":0,"outcome":"-10","keys":[],"total_keys":0,"block":2,"trial":166,"stimulus":4,"robot":3,"valence":"lose","action":"go","sham":0,"trial_type":"pit-trial","trial_index":197,"time_elapsed":1517599,"internal_node_id":"0.0-172.0","task_version":"battery-v0.2-trt","session":3},{"rune":"L","rune_set":"bacs2","hex":"#3366ff99","correct":-1,"choice":-1,"rt":-1,"accuracy":1,"outcome":"+10","keys":[],"total_keys":0,"block":2,"trial":167,"stimulus":6,"robot":2,"valence":"win","action":"no-go","sham":0,"trial_type":"pit-trial","trial_index":198,"time_elapsed":1521613,"internal_node_id":"0.0-173.0","task_version":"battery-v0.2-trt","session":3},{"rune":"K","rune_set":"bacs2","hex":"#f73b6a7A","correct":-1,"choice":-1,"rt":-1,"accuracy":1,"outcome":"-1","keys":[],"total_keys":0,"block":2,"trial":168,"stimulus":2,"robot":4,"valence":"lose","action":"no-go","sham":0,"trial_type":"pit-trial","trial_index":199,"time_elapsed":1525624,"internal_node_id":"0.0-174.0","task_version":"battery-v0.2-trt","session":3},{"rune":"L","rune_set":"bacs2","hex":"#3366ff99","correct":-1,"choice":-1,"rt":-1,"accuracy":1,"outcome":"+10","keys":[],"total_keys":0,"block":2,"trial":169,"stimulus":6,"robot":2,"valence":"win","action":"no-go","sham":0,"trial_type":"pit-trial","trial_index":200,"time_elapsed":1529638,"internal_node_id":"0.0-175.0","task_version":"battery-v0.2-trt","session":3},{"rune":"P","rune_set":"bacs2","hex":"#f73b6a7A","correct":-1,"choice":-1,"rt":-1,"accuracy":1,"outcome":"-1","keys":[],"total_keys":0,"block":2,"trial":170,"stimulus":5,"robot":4,"valence":"lose","action":"no-go","sham":0,"trial_type":"pit-trial","trial_index":201,"time_elapsed":1533652,"internal_node_id":"0.0-176.0","task_version":"battery-v0.2-trt","session":3},{"rune":"R","rune_set":"bacs2","hex":"#f73b6a7A","correct":32,"choice":32,"rt":523.9400002174079,"accuracy":1,"outcome":"-1","keys":[2024.900000076741],"total_keys":1,"block":2,"trial":171,"stimulus":4,"robot":3,"valence":"lose","action":"go","sham":0,"trial_type":"pit-trial","trial_index":202,"time_elapsed":1536887,"internal_node_id":"0.0-177.0","task_version":"battery-v0.2-trt","session":3},{"rune":"S","rune_set":"bacs2","hex":"#3366ff99","correct":32,"choice":32,"rt":810.7750001363456,"accuracy":1,"outcome":"+10","keys":[2311.265000142157],"total_keys":1,"block":2,"trial":172,"stimulus":7,"robot":1,"valence":"win","action":"go","sham":0,"trial_type":"pit-trial","trial_index":203,"time_elapsed":1540410,"internal_node_id":"0.0-178.0","task_version":"battery-v0.2-trt","session":3},{"rune":"S","rune_set":"bacs2","hex":"#3366ff99","correct":32,"choice":32,"rt":430.9350000694394,"accuracy":1,"outcome":"+10","keys":[1931.924999691546],"total_keys":1,"block":2,"trial":173,"stimulus":7,"robot":1,"valence":"win","action":"go","sham":0,"trial_type":"pit-trial","trial_index":204,"time_elapsed":1543550,"internal_node_id":"0.0-179.0","task_version":"battery-v0.2-trt","session":3},{"rune":"L","rune_set":"bacs2","hex":"#3366ff99","correct":-1,"choice":-1,"rt":-1,"accuracy":1,"outcome":"+10","keys":[],"total_keys":0,"block":2,"trial":174,"stimulus":6,"robot":2,"valence":"win","action":"no-go","sham":0,"trial_type":"pit-trial","trial_index":205,"time_elapsed":1547559,"internal_node_id":"0.0-180.0","task_version":"battery-v0.2-trt","session":3},{"rune":"R","rune_set":"bacs2","hex":"#f73b6a7A","correct":32,"choice":32,"rt":438.37499991059303,"accuracy":1,"outcome":"-10","keys":[1939.2099999822676],"total_keys":1,"block":2,"trial":175,"stimulus":4,"robot":3,"valence":"lose","action":"go","sham":1,"trial_type":"pit-trial","trial_index":206,"time_elapsed":1550706,"internal_node_id":"0.0-181.0","task_version":"battery-v0.2-trt","session":3},{"rune":"P","rune_set":"bacs2","hex":"#f73b6a7A","correct":-1,"choice":-1,"rt":-1,"accuracy":1,"outcome":"-1","keys":[],"total_keys":0,"block":2,"trial":176,"stimulus":5,"robot":4,"valence":"lose","action":"no-go","sham":0,"trial_type":"pit-trial","trial_index":207,"time_elapsed":1554711,"internal_node_id":"0.0-182.0","task_version":"battery-v0.2-trt","session":3},{"rune":"L","rune_set":"bacs2","hex":"#3366ff99","correct":-1,"choice":-1,"rt":-1,"accuracy":1,"outcome":"+10","keys":[],"total_keys":0,"block":2,"trial":177,"stimulus":6,"robot":2,"valence":"win","action":"no-go","sham":0,"trial_type":"pit-trial","trial_index":208,"time_elapsed":1558720,"internal_node_id":"0.0-183.0","task_version":"battery-v0.2-trt","session":3},{"rune":"P","rune_set":"bacs2","hex":"#f73b6a7A","correct":-1,"choice":-1,"rt":-1,"accuracy":1,"outcome":"-1","keys":[],"total_keys":0,"block":2,"trial":178,"stimulus":5,"robot":4,"valence":"lose","action":"no-go","sham":0,"trial_type":"pit-trial","trial_index":209,"time_elapsed":1562731,"internal_node_id":"0.0-184.0","task_version":"battery-v0.2-trt","session":3},{"rune":"R","rune_set":"bacs2","hex":"#f73b6a7A","correct":32,"choice":32,"rt":552.2300000302494,"accuracy":1,"outcome":"-1","keys":[2053.160000126809],"total_keys":1,"block":2,"trial":179,"stimulus":4,"robot":3,"valence":"lose","action":"go","sham":0,"trial_type":"pit-trial","trial_index":210,"time_elapsed":1565997,"internal_node_id":"0.0-185.0","task_version":"battery-v0.2-trt","session":3},{"rune":"S","rune_set":"bacs2","hex":"#3366ff99","correct":32,"choice":32,"rt":524.8199999332428,"accuracy":1,"outcome":"+10","keys":[2025.080000050366],"total_keys":1,"block":2,"trial":180,"stimulus":7,"robot":1,"valence":"win","action":"go","sham":0,"trial_type":"pit-trial","trial_index":211,"time_elapsed":1569235,"internal_node_id":"0.0-186.0","task_version":"battery-v0.2-trt","session":3},{"rune":"R","rune_set":"bacs2","hex":"#f73b6a7A","correct":32,"choice":32,"rt":546.3099996559322,"accuracy":1,"outcome":"-1","keys":[2046.6650002636015],"total_keys":1,"block":2,"trial":181,"stimulus":4,"robot":3,"valence":"lose","action":"go","sham":0,"trial_type":"pit-trial","trial_index":212,"time_elapsed":1572503,"internal_node_id":"0.0-187.0","task_version":"battery-v0.2-trt","session":3},{"rune":"P","rune_set":"bacs2","hex":"#f73b6a7A","correct":-1,"choice":-1,"rt":-1,"accuracy":1,"outcome":"-1","keys":[],"total_keys":0,"block":2,"trial":182,"stimulus":5,"robot":4,"valence":"lose","action":"no-go","sham":0,"trial_type":"pit-trial","trial_index":213,"time_elapsed":1576514,"internal_node_id":"0.0-188.0","task_version":"battery-v0.2-trt","session":3},{"rune":"L","rune_set":"bacs2","hex":"#3366ff99","correct":-1,"choice":-1,"rt":-1,"accuracy":1,"outcome":"+10","keys":[],"total_keys":0,"block":2,"trial":183,"stimulus":6,"robot":2,"valence":"win","action":"no-go","sham":0,"trial_type":"pit-trial","trial_index":214,"time_elapsed":1580522,"internal_node_id":"0.0-189.0","task_version":"battery-v0.2-trt","session":3},{"rune":"S","rune_set":"bacs2","hex":"#3366ff99","correct":32,"choice":32,"rt":434.41500002518296,"accuracy":1,"outcome":"+10","keys":[1935.745000373572],"total_keys":1,"block":2,"trial":184,"stimulus":7,"robot":1,"valence":"win","action":"go","sham":0,"trial_type":"pit-trial","trial_index":215,"time_elapsed":1583672,"internal_node_id":"0.0-190.0","task_version":"battery-v0.2-trt","session":3},{"rune":"R","rune_set":"bacs2","hex":"#f73b6a7A","correct":32,"choice":32,"rt":488.5699995793402,"accuracy":1,"outcome":"-1","keys":[1988.69499983266],"total_keys":1,"block":2,"trial":185,"stimulus":4,"robot":3,"valence":"lose","action":"go","sham":0,"trial_type":"pit-trial","trial_index":216,"time_elapsed":1586867,"internal_node_id":"0.0-191.0","task_version":"battery-v0.2-trt","session":3},{"rune":"P","rune_set":"bacs2","hex":"#f73b6a7A","correct":-1,"choice":-1,"rt":-1,"accuracy":1,"outcome":"-1","keys":[],"total_keys":0,"block":2,"trial":186,"stimulus":5,"robot":4,"valence":"lose","action":"no-go","sham":0,"trial_type":"pit-trial","trial_index":217,"time_elapsed":1590876,"internal_node_id":"0.0-192.0","task_version":"battery-v0.2-trt","session":3},{"rune":"L","rune_set":"bacs2","hex":"#3366ff99","correct":-1,"choice":-1,"rt":-1,"accuracy":1,"outcome":"+1","keys":[],"total_keys":0,"block":2,"trial":187,"stimulus":6,"robot":2,"valence":"win","action":"no-go","sham":1,"trial_type":"pit-trial","trial_index":218,"time_elapsed":1594884,"internal_node_id":"0.0-193.0","task_version":"battery-v0.2-trt","session":3},{"rune":"S","rune_set":"bacs2","hex":"#3366ff99","correct":32,"choice":32,"rt":442.26999999955297,"accuracy":1,"outcome":"+10","keys":[1942.380000371486],"total_keys":1,"block":2,"trial":188,"stimulus":7,"robot":1,"valence":"win","action":"go","sham":0,"trial_type":"pit-trial","trial_index":219,"time_elapsed":1598038,"internal_node_id":"0.0-194.0","task_version":"battery-v0.2-trt","session":3},{"rune":"L","rune_set":"bacs2","hex":"#3366ff99","correct":-1,"choice":-1,"rt":-1,"accuracy":1,"outcome":"+10","keys":[],"total_keys":0,"block":2,"trial":189,"stimulus":6,"robot":2,"valence":"win","action":"no-go","sham":0,"trial_type":"pit-trial","trial_index":220,"time_elapsed":1602054,"internal_node_id":"0.0-195.0","task_version":"battery-v0.2-trt","session":3},{"rune":"P","rune_set":"bacs2","hex":"#f73b6a7A","correct":-1,"choice":-1,"rt":-1,"accuracy":1,"outcome":"-1","keys":[],"total_keys":0,"block":2,"trial":190,"stimulus":5,"robot":4,"valence":"lose","action":"no-go","sham":0,"trial_type":"pit-trial","trial_index":221,"time_elapsed":1606066,"internal_node_id":"0.0-196.0","task_version":"battery-v0.2-trt","session":3},{"rune":"S","rune_set":"bacs2","hex":"#3366ff99","correct":32,"choice":32,"rt":443.764999974519,"accuracy":1,"outcome":"+10","keys":[1944.1599999554455],"total_keys":1,"block":2,"trial":191,"stimulus":7,"robot":1,"valence":"win","action":"go","sham":0,"trial_type":"pit-trial","trial_index":222,"time_elapsed":1609221,"internal_node_id":"0.0-197.0","task_version":"battery-v0.2-trt","session":3},{"rune":"R","rune_set":"bacs2","hex":"#f73b6a7A","correct":32,"choice":32,"rt":392.8849999792874,"accuracy":1,"outcome":"-10","keys":[1896.2199999950826],"total_keys":1,"block":2,"trial":192,"stimulus":4,"robot":3,"valence":"lose","action":"go","sham":1,"trial_type":"pit-trial","trial_index":223,"time_elapsed":1612330,"internal_node_id":"0.0-198.0","task_version":"battery-v0.2-trt","session":3},{"rune":"R","rune_set":"bacs2","hex":"#f73b6a7A","correct":32,"choice":32,"rt":419.7549996897578,"accuracy":1,"outcome":"-10","keys":[1920.4450002871454],"total_keys":1,"block":2,"trial":193,"stimulus":4,"robot":3,"valence":"lose","action":"go","sham":1,"trial_type":"pit-trial","trial_index":224,"time_elapsed":1615460,"internal_node_id":"0.0-199.0","task_version":"battery-v0.2-trt","session":3},{"rune":"L","rune_set":"bacs2","hex":"#3366ff99","correct":-1,"choice":-1,"rt":-1,"accuracy":1,"outcome":"+10","keys":[],"total_keys":0,"block":2,"trial":194,"stimulus":6,"robot":2,"valence":"win","action":"no-go","sham":0,"trial_type":"pit-trial","trial_index":225,"time_elapsed":1619469,"internal_node_id":"0.0-200.0","task_version":"battery-v0.2-trt","session":3},{"rune":"S","rune_set":"bacs2","hex":"#3366ff99","correct":32,"choice":32,"rt":478.7349998950958,"accuracy":1,"outcome":"+10","keys":[1979.425000026822],"total_keys":1,"block":2,"trial":195,"stimulus":7,"robot":1,"valence":"win","action":"go","sham":0,"trial_type":"pit-trial","trial_index":226,"time_elapsed":1622658,"internal_node_id":"0.0-201.0","task_version":"battery-v0.2-trt","session":3},{"rune":"U","rune_set":"bacs2","hex":"#3366ff99","correct":32,"choice":32,"rt":639.3349999561906,"accuracy":1,"outcome":"+10","keys":[2140.360000077635],"total_keys":1,"block":2,"trial":196,"stimulus":8,"robot":1,"valence":"win","action":"go","sham":0,"trial_type":"pit-trial","trial_index":227,"time_elapsed":1626013,"internal_node_id":"0.0-202.0","task_version":"battery-v0.2-trt","session":3},{"rune":"U","rune_set":"bacs2","hex":"#3366ff99","correct":32,"choice":32,"rt":436.05999974533916,"accuracy":1,"outcome":"+10","keys":[1936.2449999898672],"total_keys":1,"block":2,"trial":197,"stimulus":8,"robot":1,"valence":"win","action":"go","sham":0,"trial_type":"pit-trial","trial_index":228,"time_elapsed":1629161,"internal_node_id":"0.0-203.0","task_version":"battery-v0.2-trt","session":3},{"rune":"S","rune_set":"bacs2","hex":"#3366ff99","correct":32,"choice":32,"rt":512.6650002785027,"accuracy":1,"outcome":"+10","keys":[2013.4749999269843],"total_keys":1,"block":2,"trial":198,"stimulus":7,"robot":1,"valence":"win","action":"go","sham":0,"trial_type":"pit-trial","trial_index":229,"time_elapsed":1632382,"internal_node_id":"0.0-204.0","task_version":"battery-v0.2-trt","session":3},{"rune":"L","rune_set":"bacs2","hex":"#3366ff99","correct":-1,"choice":-1,"rt":-1,"accuracy":1,"outcome":"+10","keys":[],"total_keys":0,"block":2,"trial":199,"stimulus":6,"robot":2,"valence":"win","action":"no-go","sham":0,"trial_type":"pit-trial","trial_index":230,"time_elapsed":1636392,"internal_node_id":"0.0-205.0","task_version":"battery-v0.2-trt","session":3},{"rune":"R","rune_set":"bacs2","hex":"#f73b6a7A","correct":32,"choice":32,"rt":524.534999858588,"accuracy":1,"outcome":"-1","keys":[2025.2999998629093],"total_keys":1,"block":2,"trial":200,"stimulus":4,"robot":3,"valence":"lose","action":"go","sham":0,"trial_type":"pit-trial","trial_index":231,"time_elapsed":1639633,"internal_node_id":"0.0-206.0","task_version":"battery-v0.2-trt","session":3},{"rune":"S","rune_set":"bacs2","hex":"#3366ff99","correct":32,"choice":32,"rt":449.7400000691414,"accuracy":1,"outcome":"+10","keys":[1950.6799997761846],"total_keys":1,"block":2,"trial":201,"stimulus":7,"robot":1,"valence":"win","action":"go","sham":0,"trial_type":"pit-trial","trial_index":232,"time_elapsed":1642799,"internal_node_id":"0.0-207.0","task_version":"battery-v0.2-trt","session":3},{"rune":"A","rune_set":"bacs2","hex":"#3366ff99","correct":-1,"choice":-1,"rt":-1,"accuracy":1,"outcome":"+10","keys":[],"total_keys":0,"block":2,"trial":202,"stimulus":9,"robot":2,"valence":"win","action":"no-go","sham":0,"trial_type":"pit-trial","trial_index":233,"time_elapsed":1646813,"internal_node_id":"0.0-208.0","task_version":"battery-v0.2-trt","session":3},{"rune":"U","rune_set":"bacs2","hex":"#3366ff99","correct":32,"choice":32,"rt":478.9249999448657,"accuracy":1,"outcome":"+1","keys":[1979.9599996767938],"total_keys":1,"block":2,"trial":203,"stimulus":8,"robot":1,"valence":"win","action":"go","sham":1,"trial_type":"pit-trial","trial_index":234,"time_elapsed":1650002,"internal_node_id":"0.0-209.0","task_version":"battery-v0.2-trt","session":3},{"rune":"L","rune_set":"bacs2","hex":"#3366ff99","correct":-1,"choice":-1,"rt":-1,"accuracy":1,"outcome":"+10","keys":[],"total_keys":0,"block":2,"trial":204,"stimulus":6,"robot":2,"valence":"win","action":"no-go","sham":0,"trial_type":"pit-trial","trial_index":235,"time_elapsed":1654010,"internal_node_id":"0.0-210.0","task_version":"battery-v0.2-trt","session":3},{"rune":"U","rune_set":"bacs2","hex":"#3366ff99","correct":32,"choice":32,"rt":425.2849998883903,"accuracy":1,"outcome":"+10","keys":[1925.4900002852082],"total_keys":1,"block":2,"trial":205,"stimulus":8,"robot":1,"valence":"win","action":"go","sham":0,"trial_type":"pit-trial","trial_index":236,"time_elapsed":1657148,"internal_node_id":"0.0-211.0","task_version":"battery-v0.2-trt","session":3},{"rune":"A","rune_set":"bacs2","hex":"#3366ff99","correct":-1,"choice":-1,"rt":-1,"accuracy":1,"outcome":"+10","keys":[],"total_keys":0,"block":2,"trial":206,"stimulus":9,"robot":2,"valence":"win","action":"no-go","sham":0,"trial_type":"pit-trial","trial_index":237,"time_elapsed":1661154,"internal_node_id":"0.0-212.0","task_version":"battery-v0.2-trt","session":3},{"rune":"L","rune_set":"bacs2","hex":"#3366ff99","correct":-1,"choice":-1,"rt":-1,"accuracy":1,"outcome":"+10","keys":[],"total_keys":0,"block":2,"trial":207,"stimulus":6,"robot":2,"valence":"win","action":"no-go","sham":0,"trial_type":"pit-trial","trial_index":238,"time_elapsed":1665160,"internal_node_id":"0.0-213.0","task_version":"battery-v0.2-trt","session":3},{"rune":"S","rune_set":"bacs2","hex":"#3366ff99","correct":32,"choice":32,"rt":426.81000009179115,"accuracy":1,"outcome":"+10","keys":[1926.8600000068545],"total_keys":1,"block":2,"trial":208,"stimulus":7,"robot":1,"valence":"win","action":"go","sham":0,"trial_type":"pit-trial","trial_index":239,"time_elapsed":1668296,"internal_node_id":"0.0-214.0","task_version":"battery-v0.2-trt","session":3},{"rune":"A","rune_set":"bacs2","hex":"#3366ff99","correct":-1,"choice":-1,"rt":-1,"accuracy":1,"outcome":"+10","keys":[],"total_keys":0,"block":2,"trial":209,"stimulus":9,"robot":2,"valence":"win","action":"no-go","sham":0,"trial_type":"pit-trial","trial_index":240,"time_elapsed":1672310,"internal_node_id":"0.0-215.0","task_version":"battery-v0.2-trt","session":3},{"rune":"N","rune_set":"bacs2","hex":"#f73b6a7A","correct":-1,"choice":32,"rt":1012.0050003752112,"accuracy":0,"outcome":"-1","keys":[2512.7499997615814],"total_keys":1,"block":2,"trial":210,"stimulus":11,"robot":4,"valence":"lose","action":"no-go","sham":1,"trial_type":"pit-trial","trial_index":241,"time_elapsed":1676034,"internal_node_id":"0.0-216.0","task_version":"battery-v0.2-trt","session":3},{"rune":"F","rune_set":"bacs2","hex":"#f73b6a7A","correct":32,"choice":-1,"rt":-1,"accuracy":0,"outcome":"-1","keys":[],"total_keys":0,"block":2,"trial":211,"stimulus":10,"robot":3,"valence":"lose","action":"go","sham":1,"trial_type":"pit-trial","trial_index":242,"time_elapsed":1680047,"internal_node_id":"0.0-217.0","task_version":"battery-v0.2-trt","session":3},{"rune":"U","rune_set":"bacs2","hex":"#3366ff99","correct":32,"choice":32,"rt":424.5549999177456,"accuracy":1,"outcome":"+10","keys":[1925.659999717027],"total_keys":1,"block":2,"trial":212,"stimulus":8,"robot":1,"valence":"win","action":"go","sham":0,"trial_type":"pit-trial","trial_index":243,"time_elapsed":1683179,"internal_node_id":"0.0-218.0","task_version":"battery-v0.2-trt","session":3},{"rune":"U","rune_set":"bacs2","hex":"#3366ff99","correct":32,"choice":32,"rt":450.6399999372661,"accuracy":1,"outcome":"+10","keys":[1951.434999704361],"total_keys":1,"block":2,"trial":213,"stimulus":8,"robot":1,"valence":"win","action":"go","sham":0,"trial_type":"pit-trial","trial_index":244,"time_elapsed":1686342,"internal_node_id":"0.0-219.0","task_version":"battery-v0.2-trt","session":3},{"rune":"F","rune_set":"bacs2","hex":"#f73b6a7A","correct":32,"choice":-1,"rt":-1,"accuracy":0,"outcome":"-10","keys":[],"total_keys":0,"block":2,"trial":214,"stimulus":10,"robot":3,"valence":"lose","action":"go","sham":0,"trial_type":"pit-trial","trial_index":245,"time_elapsed":1690355,"internal_node_id":"0.0-220.0","task_version":"battery-v0.2-trt","session":3},{"rune":"N","rune_set":"bacs2","hex":"#f73b6a7A","correct":-1,"choice":32,"rt":906.1549999751151,"accuracy":0,"outcome":"-10","keys":[2406.890000216663],"total_keys":1,"block":2,"trial":215,"stimulus":11,"robot":4,"valence":"lose","action":"no-go","sham":0,"trial_type":"pit-trial","trial_index":246,"time_elapsed":1693970,"internal_node_id":"0.0-221.0","task_version":"battery-v0.2-trt","session":3},{"rune":"A","rune_set":"bacs2","hex":"#3366ff99","correct":-1,"choice":-1,"rt":-1,"accuracy":1,"outcome":"+10","keys":[],"total_keys":0,"block":2,"trial":216,"stimulus":9,"robot":2,"valence":"win","action":"no-go","sham":0,"trial_type":"pit-trial","trial_index":247,"time_elapsed":1697980,"internal_node_id":"0.0-222.0","task_version":"battery-v0.2-trt","session":3},{"rune":"F","rune_set":"bacs2","hex":"#f73b6a7A","correct":32,"choice":-1,"rt":-1,"accuracy":0,"outcome":"-10","keys":[3779.6749998815358],"total_keys":1,"block":2,"trial":217,"stimulus":10,"robot":3,"valence":"lose","action":"go","sham":0,"trial_type":"pit-trial","trial_index":248,"time_elapsed":1701993,"internal_node_id":"0.0-223.0","task_version":"battery-v0.2-trt","session":3},{"rune":"N","rune_set":"bacs2","hex":"#f73b6a7A","correct":-1,"choice":-1,"rt":-1,"accuracy":1,"outcome":"-1","keys":[],"total_keys":0,"block":2,"trial":218,"stimulus":11,"robot":4,"valence":"lose","action":"no-go","sham":0,"trial_type":"pit-trial","trial_index":249,"time_elapsed":1706005,"internal_node_id":"0.0-224.0","task_version":"battery-v0.2-trt","session":3},{"rune":"U","rune_set":"bacs2","hex":"#3366ff99","correct":32,"choice":32,"rt":432.69999977201223,"accuracy":1,"outcome":"+1","keys":[1932.6900001615286],"total_keys":1,"block":2,"trial":219,"stimulus":8,"robot":1,"valence":"win","action":"go","sham":1,"trial_type":"pit-trial","trial_index":250,"time_elapsed":1709149,"internal_node_id":"0.0-225.0","task_version":"battery-v0.2-trt","session":3},{"rune":"A","rune_set":"bacs2","hex":"#3366ff99","correct":-1,"choice":-1,"rt":-1,"accuracy":1,"outcome":"+1","keys":[],"total_keys":0,"block":2,"trial":220,"stimulus":9,"robot":2,"valence":"win","action":"no-go","sham":1,"trial_type":"pit-trial","trial_index":251,"time_elapsed":1713155,"internal_node_id":"0.0-226.0","task_version":"battery-v0.2-trt","session":3},{"rune":"U","rune_set":"bacs2","hex":"#3366ff99","correct":32,"choice":32,"rt":432.0999998599291,"accuracy":1,"outcome":"+1","keys":[1933.0299999564886],"total_keys":1,"block":2,"trial":221,"stimulus":8,"robot":1,"valence":"win","action":"go","sham":1,"trial_type":"pit-trial","trial_index":252,"time_elapsed":1716293,"internal_node_id":"0.0-227.0","task_version":"battery-v0.2-trt","session":3},{"rune":"A","rune_set":"bacs2","hex":"#3366ff99","correct":-1,"choice":-1,"rt":-1,"accuracy":1,"outcome":"+1","keys":[],"total_keys":0,"block":2,"trial":222,"stimulus":9,"robot":2,"valence":"win","action":"no-go","sham":1,"trial_type":"pit-trial","trial_index":253,"time_elapsed":1720306,"internal_node_id":"0.0-228.0","task_version":"battery-v0.2-trt","session":3},{"rune":"N","rune_set":"bacs2","hex":"#f73b6a7A","correct":-1,"choice":-1,"rt":-1,"accuracy":1,"outcome":"-10","keys":[],"total_keys":0,"block":2,"trial":223,"stimulus":11,"robot":4,"valence":"lose","action":"no-go","sham":1,"trial_type":"pit-trial","trial_index":254,"time_elapsed":1724319,"internal_node_id":"0.0-229.0","task_version":"battery-v0.2-trt","session":3},{"rune":"F","rune_set":"bacs2","hex":"#f73b6a7A","correct":32,"choice":32,"rt":519.1799998283386,"accuracy":1,"outcome":"-1","keys":[2021.3250000961125],"total_keys":1,"block":2,"trial":224,"stimulus":10,"robot":3,"valence":"lose","action":"go","sham":0,"trial_type":"pit-trial","trial_index":255,"time_elapsed":1727553,"internal_node_id":"0.0-230.0","task_version":"battery-v0.2-trt","session":3},{"rune":"F","rune_set":"bacs2","hex":"#f73b6a7A","correct":32,"choice":32,"rt":579.2700001038611,"accuracy":1,"outcome":"-10","keys":[2080.3950000554323],"total_keys":1,"block":2,"trial":225,"stimulus":10,"robot":3,"valence":"lose","action":"go","sham":1,"trial_type":"pit-trial","trial_index":256,"time_elapsed":1730840,"internal_node_id":"0.0-231.0","task_version":"battery-v0.2-trt","session":3},{"rune":"N","rune_set":"bacs2","hex":"#f73b6a7A","correct":-1,"choice":-1,"rt":-1,"accuracy":1,"outcome":"-1","keys":[],"total_keys":0,"block":2,"trial":226,"stimulus":11,"robot":4,"valence":"lose","action":"no-go","sham":0,"trial_type":"pit-trial","trial_index":257,"time_elapsed":1734851,"internal_node_id":"0.0-232.0","task_version":"battery-v0.2-trt","session":3},{"rune":"U","rune_set":"bacs2","hex":"#3366ff99","correct":32,"choice":32,"rt":428.3549999818206,"accuracy":1,"outcome":"+10","keys":[1929.7599997371435],"total_keys":1,"block":2,"trial":227,"stimulus":8,"robot":1,"valence":"win","action":"go","sham":0,"trial_type":"pit-trial","trial_index":258,"time_elapsed":1737985,"internal_node_id":"0.0-233.0","task_version":"battery-v0.2-trt","session":3},{"rune":"A","rune_set":"bacs2","hex":"#3366ff99","correct":-1,"choice":-1,"rt":-1,"accuracy":1,"outcome":"+1","keys":[],"total_keys":0,"block":2,"trial":228,"stimulus":9,"robot":2,"valence":"win","action":"no-go","sham":1,"trial_type":"pit-trial","trial_index":259,"time_elapsed":1741993,"internal_node_id":"0.0-234.0","task_version":"battery-v0.2-trt","session":3},{"rune":"U","rune_set":"bacs2","hex":"#3366ff99","correct":32,"choice":32,"rt":391.4900003001094,"accuracy":1,"outcome":"+1","keys":[1892.094999551773],"total_keys":1,"block":2,"trial":229,"stimulus":8,"robot":1,"valence":"win","action":"go","sham":1,"trial_type":"pit-trial","trial_index":260,"time_elapsed":1745090,"internal_node_id":"0.0-235.0","task_version":"battery-v0.2-trt","session":3},{"rune":"F","rune_set":"bacs2","hex":"#f73b6a7A","correct":32,"choice":-1,"rt":-1,"accuracy":0,"outcome":"-10","keys":[2908.699999563396],"total_keys":1,"block":2,"trial":230,"stimulus":10,"robot":3,"valence":"lose","action":"go","sham":0,"trial_type":"pit-trial","trial_index":261,"time_elapsed":1749099,"internal_node_id":"0.0-236.0","task_version":"battery-v0.2-trt","session":3},{"rune":"A","rune_set":"bacs2","hex":"#3366ff99","correct":-1,"choice":-1,"rt":-1,"accuracy":1,"outcome":"+10","keys":[],"total_keys":0,"block":2,"trial":231,"stimulus":9,"robot":2,"valence":"win","action":"no-go","sham":0,"trial_type":"pit-trial","trial_index":262,"time_elapsed":1753118,"internal_node_id":"0.0-237.0","task_version":"battery-v0.2-trt","session":3},{"rune":"N","rune_set":"bacs2","hex":"#f73b6a7A","correct":-1,"choice":-1,"rt":-1,"accuracy":1,"outcome":"-1","keys":[],"total_keys":0,"block":2,"trial":232,"stimulus":11,"robot":4,"valence":"lose","action":"no-go","sham":0,"trial_type":"pit-trial","trial_index":263,"time_elapsed":1757129,"internal_node_id":"0.0-238.0","task_version":"battery-v0.2-trt","session":3},{"rune":"N","rune_set":"bacs2","hex":"#f73b6a7A","correct":-1,"choice":-1,"rt":-1,"accuracy":1,"outcome":"-1","keys":[],"total_keys":0,"block":2,"trial":233,"stimulus":11,"robot":4,"valence":"lose","action":"no-go","sham":0,"trial_type":"pit-trial","trial_index":264,"time_elapsed":1761143,"internal_node_id":"0.0-239.0","task_version":"battery-v0.2-trt","session":3},{"rune":"A","rune_set":"bacs2","hex":"#3366ff99","correct":-1,"choice":-1,"rt":-1,"accuracy":1,"outcome":"+10","keys":[],"total_keys":0,"block":2,"trial":234,"stimulus":9,"robot":2,"valence":"win","action":"no-go","sham":0,"trial_type":"pit-trial","trial_index":265,"time_elapsed":1765152,"internal_node_id":"0.0-240.0","task_version":"battery-v0.2-trt","session":3},{"rune":"U","rune_set":"bacs2","hex":"#3366ff99","correct":32,"choice":32,"rt":380.58000011369586,"accuracy":1,"outcome":"+