[{"view_history":"[{\"page_index\":0,\"viewing_time\":4514.110000000073}]","rt":4514.52000000063,"trial_type":"instructions","trial_index":0,"time_elapsed":4531,"internal_node_id":"0.0-0.0","task_version":"battery-v0.2-trt","session":3},{"slider_type":"valence","raw_loc":526,"loc":0.552,"trial_type":"affective-slider","trial_index":1,"time_elapsed":7608,"internal_node_id":"0.0-1.0","task_version":"battery-v0.2-trt","session":3},{"responses":{"Q02":"0","Q05":"0","Q07":"0","Q08":"3","Q03":"0","Q06":"0","Q04":"0","Q01":"0"},"rt":18616.494999998395,"item_order":[1,4,6,7,2,5,3,0],"radio_events":[4310.9349999976985,5086.814999998751,5790.659999998752,8422.569999998814,10118.46499999956,11910.704999998416,13918.439999997645,16398.51500000077],"key_events":[],"mouse_events":[4310.9349999976985,5086.814999998751,5790.659999998752,7646.699999997509,8110.515000000305,8422.569999998814,10118.46499999956,11910.704999998416,13918.439999997645,16014.534999998432,16398.51500000077,18614.53999999867],"straightlining":0.875,"zigzagging":0.2857142857142857,"survey":"dass_d","trial_type":"survey-template","trial_index":2,"time_elapsed":26229,"internal_node_id":"0.0-2.0","task_version":"battery-v0.2-trt","session":3,"infrequency":0},{"responses":{"Q05":"0","Q04":"1","Q06":"0","Q01":"1","Q07":"0","Q03":"1","Q02":"0","Q08":"0"},"rt":18642.745000001014,"item_order":[4,3,5,0,6,2,1,7],"radio_events":[2617.484999998851,4017.2749999983353,5521.394999999757,6857.274999998481,8297.179999997752,9209.69999999943,10905.16999999818,11817.220000000816],"key_events":[],"mouse_events":[2617.484999998851,3561.4500000010594,4017.2749999983353,5521.394999999757,6857.274999998481,7961.240000000544,8297.179999997752,9209.69999999943,10905.16999999818,11817.220000000816,18641.13499999803],"straightlining":0.625,"zigzagging":0.8571428571428571,"survey":"gad7","trial_type":"survey-template","trial_index":3,"time_elapsed":44871,"internal_node_id":"0.0-3.0","task_version":"battery-v0.2-trt","session":3,"infrequency":0},{"view_history":"[{\"page_index\":0,\"viewing_time\":2224.675000001298},{\"page_index\":1,\"viewing_time\":1719.5350000001781},{\"page_index\":2,\"viewing_time\":1920.4349999999977},{\"page_index\":3,\"viewing_time\":15815.269999999146},{\"page_index\":4,\"viewing_time\":4544.004999999743},{\"page_index\":5,\"viewing_time\":1431.8249999996624},{\"page_index\":6,\"viewing_time\":2751.9850000026054},{\"page_index\":7,\"viewing_time\":2640.139999999519},{\"page_index\":8,\"viewing_time\":2615.8749999995052},{\"page_index\":9,\"viewing_time\":1175.9299999976065}]","rt":36840.33500000078,"trial_type":"pit-instructions","trial_index":4,"time_elapsed":81716,"internal_node_id":"0.0-4.0-0.0","task_version":"battery-v0.2-trt","session":3},{"rune":"1","rune_set":"elianto","hex":"#3366ff99","correct":32,"choice":32,"rt":271.27999999720487,"accuracy":1,"outcome":"+10","keys":[1772.1999999994296],"total_keys":1,"block":0,"practice":1,"trial_type":"pit-trial","trial_index":5,"time_elapsed":84692,"internal_node_id":"0.0-4.0-1.0-0.0","task_version":"battery-v0.2-trt","session":3},{"rune":"1","rune_set":"elianto","hex":"#3366ff99","correct":32,"choice":32,"rt":183.34999999933643,"accuracy":1,"outcome":"+10","keys":[1683.7400000003981],"total_keys":1,"block":0,"practice":1,"trial_type":"pit-trial","trial_index":6,"time_elapsed":87579,"internal_node_id":"0.0-4.0-1.1-0.1","task_version":"battery-v0.2-trt","session":3},{"rune":"1","rune_set":"elianto","hex":"#3366ff99","correct":32,"choice":32,"rt":185.33000000024913,"accuracy":1,"outcome":"+10","keys":[1685.3899999987334],"total_keys":1,"block":0,"practice":1,"trial_type":"pit-trial","trial_index":7,"time_elapsed":90470,"internal_node_id":"0.0-4.0-1.2-0.2","task_version":"battery-v0.2-trt","session":3},{"rune":"1","rune_set":"elianto","hex":"#3366ff99","correct":32,"choice":32,"rt":193.29499999730615,"accuracy":1,"outcome":"+10","keys":[1693.409999999858],"total_keys":1,"block":0,"practice":1,"trial_type":"pit-trial","trial_index":8,"time_elapsed":93366,"internal_node_id":"0.0-4.0-1.3-0.3","task_version":"battery-v0.2-trt","session":3},{"trial_type":"call-function","trial_index":9,"time_elapsed":93367,"internal_node_id":"0.0-4.0-2.0","task_version":"battery-v0.2-trt","session":3},{"view_history":"[{\"page_index\":0,\"viewing_time\":2964.8999999990338},{\"page_index\":1,\"viewing_time\":776.5550000003714}]","rt":3741.9349999981932,"trial_type":"pit-instructions","trial_index":10,"time_elapsed":97110,"internal_node_id":"0.0-4.0-3.0","task_version":"battery-v0.2-trt","session":3},{"rune":"2","rune_set":"elianto","hex":"#3366ff99","correct":-1,"choice":-1,"rt":-1,"accuracy":1,"outcome":"+10","keys":[],"total_keys":0,"block":0,"practice":2,"trial_type":"pit-trial","trial_index":11,"time_elapsed":101114,"internal_node_id":"0.0-4.0-4.0-0.0","task_version":"battery-v0.2-trt","session":3},{"rune":"2","rune_set":"elianto","hex":"#3366ff99","correct":-1,"choice":-1,"rt":-1,"accuracy":1,"outcome":"+10","keys":[],"total_keys":0,"block":0,"practice":2,"trial_type":"pit-trial","trial_index":12,"time_elapsed":105121,"internal_node_id":"0.0-4.0-4.1-0.1","task_version":"battery-v0.2-trt","session":3},{"rune":"2","rune_set":"elianto","hex":"#3366ff99","correct":-1,"choice":-1,"rt":-1,"accuracy":1,"outcome":"+10","keys":[],"total_keys":0,"block":0,"practice":2,"trial_type":"pit-trial","trial_index":13,"time_elapsed":109125,"internal_node_id":"0.0-4.0-4.2-0.2","task_version":"battery-v0.2-trt","session":3},{"rune":"2","rune_set":"elianto","hex":"#3366ff99","correct":-1,"choice":-1,"rt":-1,"accuracy":1,"outcome":"+10","keys":[],"total_keys":0,"block":0,"practice":2,"trial_type":"pit-trial","trial_index":14,"time_elapsed":113131,"internal_node_id":"0.0-4.0-4.3-0.3","task_version":"battery-v0.2-trt","session":3},{"trial_type":"call-function","trial_index":15,"time_elapsed":113133,"internal_node_id":"0.0-4.0-5.0","task_version":"battery-v0.2-trt","session":3},{"view_history":"[{\"page_index\":0,\"viewing_time\":2391.395000002376},{\"page_index\":1,\"viewing_time\":2575.9449999968638}]","rt":4967.805000000226,"trial_type":"pit-instructions","trial_index":16,"time_elapsed":118101,"internal_node_id":"0.0-4.0-6.0","task_version":"battery-v0.2-trt","session":3},{"rune":"3","rune_set":"elianto","hex":"#f73b6a7A","correct":-1,"choice":32,"rt":247.4450000008801,"accuracy":0,"outcome":"-10","keys":[1749.2700000002515],"total_keys":1,"block":0,"practice":3,"trial_type":"pit-trial","trial_index":17,"time_elapsed":121053,"internal_node_id":"0.0-4.0-7.0-0.0","task_version":"battery-v0.2-trt","session":3},{"rune":"3","rune_set":"elianto","hex":"#f73b6a7A","correct":-1,"choice":-1,"rt":-1,"accuracy":1,"outcome":"-1","keys":[],"total_keys":0,"block":0,"practice":3,"trial_type":"pit-trial","trial_index":18,"time_elapsed":125057,"internal_node_id":"0.0-4.0-7.1-0.1","task_version":"battery-v0.2-trt","session":3},{"rune":"3","rune_set":"elianto","hex":"#f73b6a7A","correct":-1,"choice":-1,"rt":-1,"accuracy":1,"outcome":"-1","keys":[],"total_keys":0,"block":0,"practice":3,"trial_type":"pit-trial","trial_index":19,"time_elapsed":129060,"internal_node_id":"0.0-4.0-7.2-0.2","task_version":"battery-v0.2-trt","session":3},{"rune":"3","rune_set":"elianto","hex":"#f73b6a7A","correct":-1,"choice":-1,"rt":-1,"accuracy":1,"outcome":"-1","keys":[],"total_keys":0,"block":0,"practice":3,"trial_type":"pit-trial","trial_index":20,"time_elapsed":133064,"internal_node_id":"0.0-4.0-7.3-0.3","task_version":"battery-v0.2-trt","session":3},{"trial_type":"call-function","trial_index":21,"time_elapsed":133065,"internal_node_id":"0.0-4.0-8.0","task_version":"battery-v0.2-trt","session":3},{"view_history":"[{\"page_index\":0,\"viewing_time\":1130.8500000013737},{\"page_index\":1,\"viewing_time\":935.9000000004016}]","rt":2067.2599999998056,"trial_type":"pit-instructions","trial_index":22,"time_elapsed":135133,"internal_node_id":"0.0-4.0-9.0","task_version":"battery-v0.2-trt","session":3},{"rune":"4","rune_set":"elianto","hex":"#f73b6a7A","correct":32,"choice":32,"rt":224.89499999937834,"accuracy":1,"outcome":"-1","keys":[1725.2750000006927],"total_keys":1,"block":0,"practice":4,"trial_type":"pit-trial","trial_index":23,"time_elapsed":138061,"internal_node_id":"0.0-4.0-10.0-0.0","task_version":"battery-v0.2-trt","session":3},{"rune":"4","rune_set":"elianto","hex":"#f73b6a7A","correct":32,"choice":32,"rt":176.65499999930034,"accuracy":1,"outcome":"-1","keys":[1676.8650000012713],"total_keys":1,"block":0,"practice":4,"trial_type":"pit-trial","trial_index":24,"time_elapsed":140940,"internal_node_id":"0.0-4.0-10.1-0.1","task_version":"battery-v0.2-trt","session":3},{"rune":"4","rune_set":"elianto","hex":"#f73b6a7A","correct":32,"choice":32,"rt":153.4350000001723,"accuracy":1,"outcome":"-1","keys":[1653.6300000007031],"total_keys":1,"block":0,"practice":4,"trial_type":"pit-trial","trial_index":25,"time_elapsed":143796,"internal_node_id":"0.0-4.0-10.2-0.2","task_version":"battery-v0.2-trt","session":3},{"rune":"4","rune_set":"elianto","hex":"#f73b6a7A","correct":32,"choice":32,"rt":161.5750000019034,"accuracy":1,"outcome":"-1","keys":[1661.9750000027125],"total_keys":1,"block":0,"practice":4,"trial_type":"pit-trial","trial_index":26,"time_elapsed":146661,"internal_node_id":"0.0-4.0-10.3-0.3","task_version":"battery-v0.2-trt","session":3},{"trial_type":"call-function","trial_index":27,"time_elapsed":146662,"internal_node_id":"0.0-4.0-11.0","task_version":"battery-v0.2-trt","session":3},{"view_history":"[{\"page_index\":0,\"viewing_time\":1829.3050000029325},{\"page_index\":1,\"viewing_time\":1456.3600000001315},{\"page_index\":2,\"viewing_time\":1719.7699999996985},{\"page_index\":3,\"viewing_time\":1463.7799999982235},{\"page_index\":4,\"viewing_time\":2192.015000000538},{\"page_index\":5,\"viewing_time\":1647.980000001553}]","rt":10309.65500000093,"trial_type":"pit-instructions","trial_index":28,"time_elapsed":156959,"internal_node_id":"0.0-4.0-12.0","task_version":"battery-v0.2-trt","session":3},{"responses":["Press SPACE","+10","-1","True","True"],"num_errors":0,"rt":10797.81500000172,"trial_type":"pit-comprehension","trial_index":29,"time_elapsed":167760,"internal_node_id":"0.0-4.0-13.0","task_version":"battery-v0.2-trt","session":3},{"view_history":"[{\"page_index\":0,\"viewing_time\":1408.0549999998766},{\"page_index\":1,\"viewing_time\":1791.960000002291}]","rt":3200.520000002143,"trial_type":"pit-instructions","trial_index":30,"time_elapsed":170967,"internal_node_id":"0.0-5.0","task_version":"battery-v0.2-trt","session":3},{"rune":"Z","rune_set":"bacs1","hex":"#f73b6a7A","correct":32,"choice":32,"rt":487.0100000007369,"accuracy":1,"outcome":"-10","keys":[1987.5800000008894],"total_keys":1,"block":1,"trial":1,"stimulus":1,"robot":3,"valence":"lose","action":"go","sham":1,"trial_type":"pit-trial","trial_index":31,"time_elapsed":174159,"internal_node_id":"0.0-6.0","task_version":"battery-v0.2-trt","session":3},{"rune":"R","rune_set":"bacs1","hex":"#3366ff99","correct":32,"choice":32,"rt":368.99000000266824,"accuracy":1,"outcome":"+10","keys":[1869.105000001582],"total_keys":1,"block":1,"trial":2,"stimulus":3,"robot":1,"valence":"win","action":"go","sham":0,"trial_type":"pit-trial","trial_index":32,"time_elapsed":177230,"internal_node_id":"0.0-7.0","task_version":"battery-v0.2-trt","session":3},{"rune":"B","rune_set":"bacs1","hex":"#3366ff99","correct":-1,"choice":32,"rt":433.48499999774504,"accuracy":0,"outcome":"+1","keys":[1933.7799999993877],"total_keys":1,"block":1,"trial":3,"stimulus":0,"robot":2,"valence":"win","action":"no-go","sham":0,"trial_type":"pit-trial","trial_index":33,"time_elapsed":180367,"internal_node_id":"0.0-8.0","task_version":"battery-v0.2-trt","session":3},{"rune":"J","rune_set":"bacs1","hex":"#f73b6a7A","correct":-1,"choice":32,"rt":430.73999999978696,"accuracy":0,"outcome":"-10","keys":[1933.0250000020897],"total_keys":1,"block":1,"trial":4,"stimulus":2,"robot":4,"valence":"lose","action":"no-go","sham":0,"trial_type":"pit-trial","trial_index":34,"time_elapsed":183503,"internal_node_id":"0.0-9.0","task_version":"battery-v0.2-trt","session":3},{"rune":"B","rune_set":"bacs1","hex":"#3366ff99","correct":-1,"choice":-1,"rt":-1,"accuracy":1,"outcome":"+1","keys":[],"total_keys":0,"block":1,"trial":5,"stimulus":0,"robot":2,"valence":"win","action":"no-go","sham":1,"trial_type":"pit-trial","trial_index":35,"time_elapsed":187506,"internal_node_id":"0.0-10.0","task_version":"battery-v0.2-trt","session":3},{"rune":"R","rune_set":"bacs1","hex":"#3366ff99","correct":32,"choice":32,"rt":461.28500000122585,"accuracy":1,"outcome":"+10","keys":[1961.540000000241],"total_keys":1,"block":1,"trial":6,"stimulus":3,"robot":1,"valence":"win","action":"go","sham":0,"trial_type":"pit-trial","trial_index":36,"time_elapsed":190671,"internal_node_id":"0.0-11.0","task_version":"battery-v0.2-trt","session":3},{"rune":"Z","rune_set":"bacs1","hex":"#f73b6a7A","correct":32,"choice":-1,"rt":-1,"accuracy":0,"outcome":"-10","keys":[],"total_keys":0,"block":1,"trial":7,"stimulus":1,"robot":3,"valence":"lose","action":"go","sham":0,"trial_type":"pit-trial","trial_index":37,"time_elapsed":194673,"internal_node_id":"0.0-12.0","task_version":"battery-v0.2-trt","session":3},{"rune":"J","rune_set":"bacs1","hex":"#f73b6a7A","correct":-1,"choice":-1,"rt":-1,"accuracy":1,"outcome":"-1","keys":[],"total_keys":0,"block":1,"trial":8,"stimulus":2,"robot":4,"valence":"lose","action":"no-go","sham":0,"trial_type":"pit-trial","trial_index":38,"time_elapsed":198676,"internal_node_id":"0.0-13.0","task_version":"battery-v0.2-trt","session":3},{"rune":"B","rune_set":"bacs1","hex":"#3366ff99","correct":-1,"choice":32,"rt":411.55999999682535,"accuracy":0,"outcome":"+1","keys":[1911.7799999985436],"total_keys":1,"block":1,"trial":9,"stimulus":0,"robot":2,"valence":"win","action":"no-go","sham":0,"trial_type":"pit-trial","trial_index":39,"time_elapsed":201791,"internal_node_id":"0.0-14.0","task_version":"battery-v0.2-trt","session":3},{"rune":"R","rune_set":"bacs1","hex":"#3366ff99","correct":32,"choice":32,"rt":336.5249999988009,"accuracy":1,"outcome":"+1","keys":[1836.7999999973108],"total_keys":1,"block":1,"trial":10,"stimulus":3,"robot":1,"valence":"win","action":"go","sham":1,"trial_type":"pit-trial","trial_index":40,"time_elapsed":204830,"internal_node_id":"0.0-15.0","task_version":"battery-v0.2-trt","session":3},{"rune":"Z","rune_set":"bacs1","hex":"#f73b6a7A","correct":32,"choice":-1,"rt":-1,"accuracy":0,"outcome":"-10","keys":[],"total_keys":0,"block":1,"trial":11,"stimulus":1,"robot":3,"valence":"lose","action":"go","sham":0,"trial_type":"pit-trial","trial_index":41,"time_elapsed":208828,"internal_node_id":"0.0-16.0","task_version":"battery-v0.2-trt","session":3},{"rune":"J","rune_set":"bacs1","hex":"#f73b6a7A","correct":-1,"choice":-1,"rt":-1,"accuracy":1,"outcome":"-1","keys":[],"total_keys":0,"block":1,"trial":12,"stimulus":2,"robot":4,"valence":"lose","action":"no-go","sham":0,"trial_type":"pit-trial","trial_index":42,"time_elapsed":212832,"internal_node_id":"0.0-17.0","task_version":"battery-v0.2-trt","session":3},{"rune":"R","rune_set":"bacs1","hex":"#3366ff99","correct":32,"choice":32,"rt":474.4300000020303,"accuracy":1,"outcome":"+10","keys":[1974.6899999991],"total_keys":1,"block":1,"trial":13,"stimulus":3,"robot":1,"valence":"win","action":"go","sham":0,"trial_type":"pit-trial","trial_index":43,"time_elapsed":216010,"internal_node_id":"0.0-18.0","task_version":"battery-v0.2-trt","session":3},{"rune":"J","rune_set":"bacs1","hex":"#f73b6a7A","correct":-1,"choice":-1,"rt":-1,"accuracy":1,"outcome":"-10","keys":[],"total_keys":0,"block":1,"trial":14,"stimulus":2,"robot":4,"valence":"lose","action":"no-go","sham":1,"trial_type":"pit-trial","trial_index":44,"time_elapsed":220013,"internal_node_id":"0.0-19.0","task_version":"battery-v0.2-trt","session":3},{"rune":"B","rune_set":"bacs1","hex":"#3366ff99","correct":-1,"choice":32,"rt":276.69500000047265,"accuracy":0,"outcome":"+1","keys":[1776.9550000011805],"total_keys":1,"block":1,"trial":15,"stimulus":0,"robot":2,"valence":"win","action":"no-go","sham":0,"trial_type":"pit-trial","trial_index":45,"time_elapsed":222994,"internal_node_id":"0.0-20.0","task_version":"battery-v0.2-trt","session":3},{"rune":"Z","rune_set":"bacs1","hex":"#f73b6a7A","correct":32,"choice":32,"rt":641.0399999986112,"accuracy":1,"outcome":"-1","keys":[2141.3099999990663],"total_keys":1,"block":1,"trial":16,"stimulus":1,"robot":3,"valence":"lose","action":"go","sham":0,"trial_type":"pit-trial","trial_index":46,"time_elapsed":226338,"internal_node_id":"0.0-21.0","task_version":"battery-v0.2-trt","session":3},{"rune":"J","rune_set":"bacs1","hex":"#f73b6a7A","correct":-1,"choice":-1,"rt":-1,"accuracy":1,"outcome":"-1","keys":[],"total_keys":0,"block":1,"trial":17,"stimulus":2,"robot":4,"valence":"lose","action":"no-go","sham":0,"trial_type":"pit-trial","trial_index":47,"time_elapsed":230340,"internal_node_id":"0.0-22.0","task_version":"battery-v0.2-trt","session":3},{"rune":"B","rune_set":"bacs1","hex":"#3366ff99","correct":-1,"choice":32,"rt":501.99500000235275,"accuracy":0,"outcome":"+1","keys":[2002.2100000023784],"total_keys":1,"block":1,"trial":18,"stimulus":0,"robot":2,"valence":"win","action":"no-go","sham":0,"trial_type":"pit-trial","trial_index":48,"time_elapsed":233545,"internal_node_id":"0.0-23.0","task_version":"battery-v0.2-trt","session":3},{"rune":"Z","rune_set":"bacs1","hex":"#f73b6a7A","correct":32,"choice":32,"rt":1041.3799999987532,"accuracy":1,"outcome":"-10","keys":[2541.6150000019115],"total_keys":1,"block":1,"trial":19,"stimulus":1,"robot":3,"valence":"lose","action":"go","sham":1,"trial_type":"pit-trial","trial_index":49,"time_elapsed":237289,"internal_node_id":"0.0-24.0","task_version":"battery-v0.2-trt","session":3},{"rune":"R","rune_set":"bacs1","hex":"#3366ff99","correct":32,"choice":32,"rt":520.7200000004377,"accuracy":1,"outcome":"+10","keys":[2021.0299999998824],"total_keys":1,"block":1,"trial":20,"stimulus":3,"robot":1,"valence":"win","action":"go","sham":0,"trial_type":"pit-trial","trial_index":50,"time_elapsed":240512,"internal_node_id":"0.0-25.0","task_version":"battery-v0.2-trt","session":3},{"rune":"Z","rune_set":"bacs1","hex":"#f73b6a7A","correct":32,"choice":-1,"rt":-1,"accuracy":0,"outcome":"-10","keys":[],"total_keys":0,"block":1,"trial":21,"stimulus":1,"robot":3,"valence":"lose","action":"go","sham":0,"trial_type":"pit-trial","trial_index":51,"time_elapsed":244515,"internal_node_id":"0.0-26.0","task_version":"battery-v0.2-trt","session":3},{"rune":"J","rune_set":"bacs1","hex":"#f73b6a7A","correct":-1,"choice":-1,"rt":-1,"accuracy":1,"outcome":"-1","keys":[],"total_keys":0,"block":1,"trial":22,"stimulus":2,"robot":4,"valence":"lose","action":"no-go","sham":0,"trial_type":"pit-trial","trial_index":52,"time_elapsed":248519,"internal_node_id":"0.0-27.0","task_version":"battery-v0.2-trt","session":3},{"rune":"R","rune_set":"bacs1","hex":"#3366ff99","correct":32,"choice":32,"rt":458.74499999990803,"accuracy":1,"outcome":"+10","keys":[1958.8850000000093],"total_keys":1,"block":1,"trial":23,"stimulus":3,"robot":1,"valence":"win","action":"go","sham":0,"trial_type":"pit-trial","trial_index":53,"time_elapsed":251680,"internal_node_id":"0.0-28.0","task_version":"battery-v0.2-trt","session":3},{"rune":"B","rune_set":"bacs1","hex":"#3366ff99","correct":-1,"choice":-1,"rt":-1,"accuracy":1,"outcome":"+10","keys":[],"total_keys":0,"block":1,"trial":24,"stimulus":0,"robot":2,"valence":"win","action":"no-go","sham":0,"trial_type":"pit-trial","trial_index":54,"time_elapsed":255684,"internal_node_id":"0.0-29.0","task_version":"battery-v0.2-trt","session":3},{"rune":"R","rune_set":"bacs1","hex":"#3366ff99","correct":32,"choice":32,"rt":501.2799999967683,"accuracy":1,"outcome":"+10","keys":[2001.4150000024529],"total_keys":1,"block":1,"trial":25,"stimulus":3,"robot":1,"valence":"win","action":"go","sham":0,"trial_type":"pit-trial","trial_index":55,"time_elapsed":258888,"internal_node_id":"0.0-30.0","task_version":"battery-v0.2-trt","session":3},{"rune":"B","rune_set":"bacs1","hex":"#3366ff99","correct":-1,"choice":-1,"rt":-1,"accuracy":1,"outcome":"+10","keys":[],"total_keys":0,"block":1,"trial":26,"stimulus":0,"robot":2,"valence":"win","action":"no-go","sham":0,"trial_type":"pit-trial","trial_index":56,"time_elapsed":262891,"internal_node_id":"0.0-31.0","task_version":"battery-v0.2-trt","session":3},{"rune":"Z","rune_set":"bacs1","hex":"#f73b6a7A","correct":32,"choice":32,"rt":470.36999999912223,"accuracy":1,"outcome":"-1","keys":[1970.5350000003818],"total_keys":1,"block":1,"trial":27,"stimulus":1,"robot":3,"valence":"lose","action":"go","sham":0,"trial_type":"pit-trial","trial_index":57,"time_elapsed":266065,"internal_node_id":"0.0-32.0","task_version":"battery-v0.2-trt","session":3},{"rune":"J","rune_set":"bacs1","hex":"#f73b6a7A","correct":-1,"choice":-1,"rt":-1,"accuracy":1,"outcome":"-1","keys":[],"total_keys":0,"block":1,"trial":28,"stimulus":2,"robot":4,"valence":"lose","action":"no-go","sham":0,"trial_type":"pit-trial","trial_index":58,"time_elapsed":270066,"internal_node_id":"0.0-33.0","task_version":"battery-v0.2-trt","session":3},{"rune":"R","rune_set":"bacs1","hex":"#3366ff99","correct":32,"choice":32,"rt":324.5549999992363,"accuracy":1,"outcome":"+10","keys":[1824.6799999978975],"total_keys":1,"block":1,"trial":29,"stimulus":3,"robot":1,"valence":"win","action":"go","sham":0,"trial_type":"pit-trial","trial_index":59,"time_elapsed":273093,"internal_node_id":"0.0-34.0","task_version":"battery-v0.2-trt","session":3},{"rune":"J","rune_set":"bacs1","hex":"#f73b6a7A","correct":-1,"choice":-1,"rt":-1,"accuracy":1,"outcome":"-1","keys":[],"total_keys":0,"block":1,"trial":30,"stimulus":2,"robot":4,"valence":"lose","action":"no-go","sham":0,"trial_type":"pit-trial","trial_index":60,"time_elapsed":277099,"internal_node_id":"0.0-35.0","task_version":"battery-v0.2-trt","session":3},{"rune":"Z","rune_set":"bacs1","hex":"#f73b6a7A","correct":32,"choice":32,"rt":474.7949999982957,"accuracy":1,"outcome":"-1","keys":[1975.1450000003097],"total_keys":1,"block":1,"trial":31,"stimulus":1,"robot":3,"valence":"lose","action":"go","sham":0,"trial_type":"pit-trial","trial_index":61,"time_elapsed":280277,"internal_node_id":"0.0-36.0","task_version":"battery-v0.2-trt","session":3},{"rune":"B","rune_set":"bacs1","hex":"#3366ff99","correct":-1,"choice":-1,"rt":-1,"accuracy":1,"outcome":"+10","keys":[],"total_keys":0,"block":1,"trial":32,"stimulus":0,"robot":2,"valence":"win","action":"no-go","sham":0,"trial_type":"pit-trial","trial_index":62,"time_elapsed":284280,"internal_node_id":"0.0-37.0","task_version":"battery-v0.2-trt","session":3},{"rune":"V","rune_set":"bacs1","hex":"#f73b6a7A","correct":32,"choice":32,"rt":1028.6400000004214,"accuracy":1,"outcome":"-1","keys":[2530.0699999970966],"total_keys":1,"block":1,"trial":33,"stimulus":4,"robot":3,"valence":"lose","action":"go","sham":0,"trial_type":"pit-trial","trial_index":63,"time_elapsed":288013,"internal_node_id":"0.0-38.0","task_version":"battery-v0.2-trt","session":3},{"rune":"J","rune_set":"bacs1","hex":"#f73b6a7A","correct":-1,"choice":-1,"rt":-1,"accuracy":1,"outcome":"-1","keys":[],"total_keys":0,"block":1,"trial":34,"stimulus":2,"robot":4,"valence":"lose","action":"no-go","sham":0,"trial_type":"pit-trial","trial_index":64,"time_elapsed":292017,"internal_node_id":"0.0-39.0","task_version":"battery-v0.2-trt","session":3},{"rune":"Z","rune_set":"bacs1","hex":"#f73b6a7A","correct":32,"choice":32,"rt":635.9199999970151,"accuracy":1,"outcome":"-1","keys":[2135.995000000519],"total_keys":1,"block":1,"trial":35,"stimulus":1,"robot":3,"valence":"lose","action":"go","sham":0,"trial_type":"pit-trial","trial_index":65,"time_elapsed":295358,"internal_node_id":"0.0-40.0","task_version":"battery-v0.2-trt","session":3},{"rune":"E","rune_set":"bacs1","hex":"#f73b6a7A","correct":-1,"choice":32,"rt":880.3700000025565,"accuracy":0,"outcome":"-1","keys":[2380.635000001348],"total_keys":1,"block":1,"trial":36,"stimulus":5,"robot":4,"valence":"lose","action":"no-go","sham":1,"trial_type":"pit-trial","trial_index":66,"time_elapsed":298941,"internal_node_id":"0.0-41.0","task_version":"battery-v0.2-trt","session":3},{"rune":"J","rune_set":"bacs1","hex":"#f73b6a7A","correct":-1,"choice":-1,"rt":-1,"accuracy":1,"outcome":"-1","keys":[],"total_keys":0,"block":1,"trial":37,"stimulus":2,"robot":4,"valence":"lose","action":"no-go","sham":0,"trial_type":"pit-trial","trial_index":67,"time_elapsed":302945,"internal_node_id":"0.0-42.0","task_version":"battery-v0.2-trt","session":3},{"rune":"E","rune_set":"bacs1","hex":"#f73b6a7A","correct":-1,"choice":32,"rt":596.1150000002817,"accuracy":0,"outcome":"-10","keys":[2096.980000002077],"total_keys":1,"block":1,"trial":38,"stimulus":5,"robot":4,"valence":"lose","action":"no-go","sham":0,"trial_type":"pit-trial","trial_index":68,"time_elapsed":306246,"internal_node_id":"0.0-43.0","task_version":"battery-v0.2-trt","session":3},{"rune":"V","rune_set":"bacs1","hex":"#f73b6a7A","correct":32,"choice":32,"rt":519.4850000006845,"accuracy":1,"outcome":"-1","keys":[2019.7100000004866],"total_keys":1,"block":1,"trial":39,"stimulus":4,"robot":3,"valence":"lose","action":"go","sham":0,"trial_type":"pit-trial","trial_index":69,"time_elapsed":309468,"internal_node_id":"0.0-44.0","task_version":"battery-v0.2-trt","session":3},{"rune":"Z","rune_set":"bacs1","hex":"#f73b6a7A","correct":32,"choice":32,"rt":601.344999999099,"accuracy":1,"outcome":"-1","keys":[2101.4950000026147],"total_keys":1,"block":1,"trial":40,"stimulus":1,"robot":3,"valence":"lose","action":"go","sham":0,"trial_type":"pit-trial","trial_index":70,"time_elapsed":312773,"internal_node_id":"0.0-45.0","task_version":"battery-v0.2-trt","session":3},{"rune":"V","rune_set":"bacs1","hex":"#f73b6a7A","correct":32,"choice":32,"rt":480.52499999903375,"accuracy":1,"outcome":"-1","keys":[1981.3600000015576],"total_keys":1,"block":1,"trial":41,"stimulus":4,"robot":3,"valence":"lose","action":"go","sham":0,"trial_type":"pit-trial","trial_index":71,"time_elapsed":315957,"internal_node_id":"0.0-46.0","task_version":"battery-v0.2-trt","session":3},{"rune":"J","rune_set":"bacs1","hex":"#f73b6a7A","correct":-1,"choice":-1,"rt":-1,"accuracy":1,"outcome":"-1","keys":[],"total_keys":0,"block":1,"trial":42,"stimulus":2,"robot":4,"valence":"lose","action":"no-go","sham":0,"trial_type":"pit-trial","trial_index":72,"time_elapsed":319960,"internal_node_id":"0.0-47.0","task_version":"battery-v0.2-trt","session":3},{"rune":"E","rune_set":"bacs1","hex":"#f73b6a7A","correct":-1,"choice":32,"rt":446.19500000047265,"accuracy":0,"outcome":"-10","keys":[1946.3699999978417],"total_keys":1,"block":1,"trial":43,"stimulus":5,"robot":4,"valence":"lose","action":"no-go","sham":0,"trial_type":"pit-trial","trial_index":73,"time_elapsed":323108,"internal_node_id":"0.0-48.0","task_version":"battery-v0.2-trt","session":3},{"rune":"T","rune_set":"bacs1","hex":"#3366ff99","correct":-1,"choice":32,"rt":640.9700000003795,"accuracy":0,"outcome":"+10","keys":[2141.214999999618],"total_keys":1,"block":1,"trial":44,"stimulus":6,"robot":2,"valence":"win","action":"no-go","sham":1,"trial_type":"pit-trial","trial_index":74,"time_elapsed":326453,"internal_node_id":"0.0-49.0","task_version":"battery-v0.2-trt","session":3},{"rune":"T","rune_set":"bacs1","hex":"#3366ff99","correct":-1,"choice":32,"rt":428.11499999882653,"accuracy":0,"outcome":"+1","keys":[1931.9500000019325],"total_keys":1,"block":1,"trial":45,"stimulus":6,"robot":2,"valence":"win","action":"no-go","sham":0,"trial_type":"pit-trial","trial_index":75,"time_elapsed":329576,"internal_node_id":"0.0-50.0","task_version":"battery-v0.2-trt","session":3},{"rune":"V","rune_set":"bacs1","hex":"#f73b6a7A","correct":32,"choice":32,"rt":504.59499999851687,"accuracy":1,"outcome":"-1","keys":[2004.7450000019744],"total_keys":1,"block":1,"trial":46,"stimulus":4,"robot":3,"valence":"lose","action":"go","sham":0,"trial_type":"pit-trial","trial_index":76,"time_elapsed":332784,"internal_node_id":"0.0-51.0","task_version":"battery-v0.2-trt","session":3},{"rune":"E","rune_set":"bacs1","hex":"#f73b6a7A","correct":-1,"choice":-1,"rt":-1,"accuracy":1,"outcome":"-10","keys":[],"total_keys":0,"block":1,"trial":47,"stimulus":5,"robot":4,"valence":"lose","action":"no-go","sham":1,"trial_type":"pit-trial","trial_index":77,"time_elapsed":336787,"internal_node_id":"0.0-52.0","task_version":"battery-v0.2-trt","session":3},{"rune":"J","rune_set":"bacs1","hex":"#f73b6a7A","correct":-1,"choice":-1,"rt":-1,"accuracy":1,"outcome":"-1","keys":[],"total_keys":0,"block":1,"trial":48,"stimulus":2,"robot":4,"valence":"lose","action":"no-go","sham":0,"trial_type":"pit-trial","trial_index":78,"time_elapsed":340790,"internal_node_id":"0.0-53.0","task_version":"battery-v0.2-trt","session":3},{"rune":"T","rune_set":"bacs1","hex":"#3366ff99","correct":-1,"choice":32,"rt":546.184999999241,"accuracy":0,"outcome":"+1","keys":[2046.4699999974691],"total_keys":1,"block":1,"trial":49,"stimulus":6,"robot":2,"valence":"win","action":"no-go","sham":0,"trial_type":"pit-trial","trial_index":79,"time_elapsed":344040,"internal_node_id":"0.0-54.0","task_version":"battery-v0.2-trt","session":3},{"rune":"F","rune_set":"bacs1","hex":"#3366ff99","correct":32,"choice":32,"rt":840.5850000017672,"accuracy":1,"outcome":"+10","keys":[2340.8199999976205],"total_keys":1,"block":1,"trial":50,"stimulus":7,"robot":1,"valence":"win","action":"go","sham":0,"trial_type":"pit-trial","trial_index":80,"time_elapsed":347583,"internal_node_id":"0.0-55.0","task_version":"battery-v0.2-trt","session":3},{"rune":"E","rune_set":"bacs1","hex":"#f73b6a7A","correct":-1,"choice":-1,"rt":-1,"accuracy":1,"outcome":"-1","keys":[],"total_keys":0,"block":1,"trial":51,"stimulus":5,"robot":4,"valence":"lose","action":"no-go","sham":0,"trial_type":"pit-trial","trial_index":81,"time_elapsed":351586,"internal_node_id":"0.0-56.0","task_version":"battery-v0.2-trt","session":3},{"rune":"V","rune_set":"bacs1","hex":"#f73b6a7A","correct":32,"choice":32,"rt":518.0849999996717,"accuracy":1,"outcome":"-10","keys":[2018.5449999989942],"total_keys":1,"block":1,"trial":52,"stimulus":4,"robot":3,"valence":"lose","action":"go","sham":1,"trial_type":"pit-trial","trial_index":82,"time_elapsed":354807,"internal_node_id":"0.0-57.0","task_version":"battery-v0.2-trt","session":3},{"rune":"T","rune_set":"bacs1","hex":"#3366ff99","correct":-1,"choice":-1,"rt":-1,"accuracy":1,"outcome":"+10","keys":[],"total_keys":0,"block":1,"trial":53,"stimulus":6,"robot":2,"valence":"win","action":"no-go","sham":0,"trial_type":"pit-trial","trial_index":83,"time_elapsed":358810,"internal_node_id":"0.0-58.0","task_version":"battery-v0.2-trt","session":3},{"rune":"F","rune_set":"bacs1","hex":"#3366ff99","correct":32,"choice":32,"rt":557.9749999996857,"accuracy":1,"outcome":"+1","keys":[2058.0599999994156],"total_keys":1,"block":1,"trial":54,"stimulus":7,"robot":1,"valence":"win","action":"go","sham":1,"trial_type":"pit-trial","trial_index":84,"time_elapsed":362070,"internal_node_id":"0.0-59.0","task_version":"battery-v0.2-trt","session":3},{"rune":"E","rune_set":"bacs1","hex":"#f73b6a7A","correct":-1,"choice":-1,"rt":-1,"accuracy":1,"outcome":"-10","keys":[],"total_keys":0,"block":1,"trial":55,"stimulus":5,"robot":4,"valence":"lose","action":"no-go","sham":1,"trial_type":"pit-trial","trial_index":85,"time_elapsed":366073,"internal_node_id":"0.0-60.0","task_version":"battery-v0.2-trt","session":3},{"rune":"V","rune_set":"bacs1","hex":"#f73b6a7A","correct":32,"choice":32,"rt":470.72499999922,"accuracy":1,"outcome":"-1","keys":[1970.9799999982351],"total_keys":1,"block":1,"trial":56,"stimulus":4,"robot":3,"valence":"lose","action":"go","sham":0,"trial_type":"pit-trial","trial_index":86,"time_elapsed":369246,"internal_node_id":"0.0-61.0","task_version":"battery-v0.2-trt","session":3},{"rune":"V","rune_set":"bacs1","hex":"#f73b6a7A","correct":32,"choice":32,"rt":449.17999999964377,"accuracy":1,"outcome":"-1","keys":[1949.4400000002934],"total_keys":1,"block":1,"trial":57,"stimulus":4,"robot":3,"valence":"lose","action":"go","sham":0,"trial_type":"pit-trial","trial_index":87,"time_elapsed":372399,"internal_node_id":"0.0-62.0","task_version":"battery-v0.2-trt","session":3},{"rune":"T","rune_set":"bacs1","hex":"#3366ff99","correct":-1,"choice":-1,"rt":-1,"accuracy":1,"outcome":"+10","keys":[],"total_keys":0,"block":1,"trial":58,"stimulus":6,"robot":2,"valence":"win","action":"no-go","sham":0,"trial_type":"pit-trial","trial_index":88,"time_elapsed":376402,"internal_node_id":"0.0-63.0","task_version":"battery-v0.2-trt","session":3},{"rune":"F","rune_set":"bacs1","hex":"#3366ff99","correct":32,"choice":32,"rt":557.4200000009732,"accuracy":1,"outcome":"+10","keys":[2058.3150000020396],"total_keys":1,"block":1,"trial":59,"stimulus":7,"robot":1,"valence":"win","action":"go","sham":0,"trial_type":"pit-trial","trial_index":89,"time_elapsed":379663,"internal_node_id":"0.0-64.0","task_version":"battery-v0.2-trt","session":3},{"rune":"E","rune_set":"bacs1","hex":"#f73b6a7A","correct":-1,"choice":-1,"rt":-1,"accuracy":1,"outcome":"-1","keys":[],"total_keys":0,"block":1,"trial":60,"stimulus":5,"robot":4,"valence":"lose","action":"no-go","sham":0,"trial_type":"pit-trial","trial_index":90,"time_elapsed":383667,"internal_node_id":"0.0-65.0","task_version":"battery-v0.2-trt","session":3},{"rune":"V","rune_set":"bacs1","hex":"#f73b6a7A","correct":32,"choice":32,"rt":475.6950000009965,"accuracy":1,"outcome":"-1","keys":[1976.6299999974435],"total_keys":1,"block":1,"trial":61,"stimulus":4,"robot":3,"valence":"lose","action":"go","sham":0,"trial_type":"pit-trial","trial_index":91,"time_elapsed":386846,"internal_node_id":"0.0-66.0","task_version":"battery-v0.2-trt","session":3},{"rune":"F","rune_set":"bacs1","hex":"#3366ff99","correct":32,"choice":32,"rt":408.96499999868684,"accuracy":1,"outcome":"+10","keys":[1909.220000001369],"total_keys":1,"block":1,"trial":62,"stimulus":7,"robot":1,"valence":"win","action":"go","sham":0,"trial_type":"pit-trial","trial_index":92,"time_elapsed":389955,"internal_node_id":"0.0-67.0","task_version":"battery-v0.2-trt","session":3},{"rune":"E","rune_set":"bacs1","hex":"#f73b6a7A","correct":-1,"choice":-1,"rt":-1,"accuracy":1,"outcome":"-10","keys":[],"total_keys":0,"block":1,"trial":63,"stimulus":5,"robot":4,"valence":"lose","action":"no-go","sham":1,"trial_type":"pit-trial","trial_index":93,"time_elapsed":393958,"internal_node_id":"0.0-68.0","task_version":"battery-v0.2-trt","session":3},{"rune":"T","rune_set":"bacs1","hex":"#3366ff99","correct":-1,"choice":-1,"rt":-1,"accuracy":1,"outcome":"+10","keys":[],"total_keys":0,"block":1,"trial":64,"stimulus":6,"robot":2,"valence":"win","action":"no-go","sham":0,"trial_type":"pit-trial","trial_index":94,"time_elapsed":397961,"internal_node_id":"0.0-69.0","task_version":"battery-v0.2-trt","session":3},{"rune":"E","rune_set":"bacs1","hex":"#f73b6a7A","correct":-1,"choice":-1,"rt":-1,"accuracy":1,"outcome":"-10","keys":[],"total_keys":0,"block":1,"trial":65,"stimulus":5,"robot":4,"valence":"lose","action":"no-go","sham":1,"trial_type":"pit-trial","trial_index":95,"time_elapsed":401964,"internal_node_id":"0.0-70.0","task_version":"battery-v0.2-trt","session":3},{"rune":"F","rune_set":"bacs1","hex":"#3366ff99","correct":32,"choice":32,"rt":447.24000000132946,"accuracy":1,"outcome":"+10","keys":[1947.3000000034808],"total_keys":1,"block":1,"trial":66,"stimulus":7,"robot":1,"valence":"win","action":"go","sham":0,"trial_type":"pit-trial","trial_index":96,"time_elapsed":405115,"internal_node_id":"0.0-71.0","task_version":"battery-v0.2-trt","session":3},{"rune":"T","rune_set":"bacs1","hex":"#3366ff99","correct":-1,"choice":-1,"rt":-1,"accuracy":1,"outcome":"+1","keys":[],"total_keys":0,"block":1,"trial":67,"stimulus":6,"robot":2,"valence":"win","action":"no-go","sham":1,"trial_type":"pit-trial","trial_index":97,"time_elapsed":409118,"internal_node_id":"0.0-72.0","task_version":"battery-v0.2-trt","session":3},{"rune":"V","rune_set":"bacs1","hex":"#f73b6a7A","correct":32,"choice":32,"rt":442.6500000008382,"accuracy":1,"outcome":"-1","keys":[1943.3300000019372],"total_keys":1,"block":1,"trial":68,"stimulus":4,"robot":3,"valence":"lose","action":"go","sham":0,"trial_type":"pit-trial","trial_index":98,"time_elapsed":412263,"internal_node_id":"0.0-73.0","task_version":"battery-v0.2-trt","session":3},{"rune":"T","rune_set":"bacs1","hex":"#3366ff99","correct":-1,"choice":-1,"rt":-1,"accuracy":1,"outcome":"+1","keys":[],"total_keys":0,"block":1,"trial":69,"stimulus":6,"robot":2,"valence":"win","action":"no-go","sham":1,"trial_type":"pit-trial","trial_index":99,"time_elapsed":416267,"internal_node_id":"0.0-74.0","task_version":"battery-v0.2-trt","session":3},{"rune":"V","rune_set":"bacs1","hex":"#f73b6a7A","correct":32,"choice":32,"rt":503.88500000187196,"accuracy":1,"outcome":"-10","keys":[2004.8100000022096],"total_keys":1,"block":1,"trial":70,"stimulus":4,"robot":3,"valence":"lose","action":"go","sham":1,"trial_type":"pit-trial","trial_index":100,"time_elapsed":419475,"internal_node_id":"0.0-75.0","task_version":"battery-v0.2-trt","session":3},{"rune":"E","rune_set":"bacs1","hex":"#f73b6a7A","correct":-1,"choice":32,"rt":456.2999999980675,"accuracy":0,"outcome":"-10","keys":[1956.5000000002328],"total_keys":1,"block":1,"trial":71,"stimulus":5,"robot":4,"valence":"lose","action":"no-go","sham":0,"trial_type":"pit-trial","trial_index":101,"time_elapsed":422634,"internal_node_id":"0.0-76.0","task_version":"battery-v0.2-trt","session":3},{"rune":"F","rune_set":"bacs1","hex":"#3366ff99","correct":32,"choice":32,"rt":745.1299999993644,"accuracy":1,"outcome":"+10","keys":[2245.315000000177],"total_keys":1,"block":1,"trial":72,"stimulus":7,"robot":1,"valence":"win","action":"go","sham":0,"trial_type":"pit-trial","trial_index":102,"time_elapsed":426082,"internal_node_id":"0.0-77.0","task_version":"battery-v0.2-trt","session":3},{"rune":"F","rune_set":"bacs1","hex":"#3366ff99","correct":32,"choice":32,"rt":472.4850000020815,"accuracy":1,"outcome":"+10","keys":[1972.5950000029407],"total_keys":1,"block":1,"trial":73,"stimulus":7,"robot":1,"valence":"win","action":"go","sham":0,"trial_type":"pit-trial","trial_index":103,"time_elapsed":429257,"internal_node_id":"0.0-78.0","task_version":"battery-v0.2-trt","session":3},{"rune":"T","rune_set":"bacs1","hex":"#3366ff99","correct":-1,"choice":-1,"rt":-1,"accuracy":1,"outcome":"+1","keys":[],"total_keys":0,"block":1,"trial":74,"stimulus":6,"robot":2,"valence":"win","action":"no-go","sham":1,"trial_type":"pit-trial","trial_index":104,"time_elapsed":433261,"internal_node_id":"0.0-79.0","task_version":"battery-v0.2-trt","session":3},{"rune":"A","rune_set":"bacs1","hex":"#3366ff99","correct":32,"choice":32,"rt":606.0249999972875,"accuracy":1,"outcome":"+10","keys":[2106.360000001616],"total_keys":1,"block":1,"trial":75,"stimulus":8,"robot":1,"valence":"win","action":"go","sham":0,"trial_type":"pit-trial","trial_index":105,"time_elapsed":436569,"internal_node_id":"0.0-80.0","task_version":"battery-v0.2-trt","session":3},{"rune":"V","rune_set":"bacs1","hex":"#f73b6a7A","correct":32,"choice":32,"rt":481.0749999997206,"accuracy":1,"outcome":"-1","keys":[1981.2950000013807],"total_keys":1,"block":1,"trial":76,"stimulus":4,"robot":3,"valence":"lose","action":"go","sham":0,"trial_type":"pit-trial","trial_index":106,"time_elapsed":439753,"internal_node_id":"0.0-81.0","task_version":"battery-v0.2-trt","session":3},{"rune":"V","rune_set":"bacs1","hex":"#f73b6a7A","correct":32,"choice":32,"rt":481.35000000183936,"accuracy":1,"outcome":"-1","keys":[1981.5999999991618],"total_keys":1,"block":1,"trial":77,"stimulus":4,"robot":3,"valence":"lose","action":"go","sham":0,"trial_type":"pit-trial","trial_index":107,"time_elapsed":442938,"internal_node_id":"0.0-82.0","task_version":"battery-v0.2-trt","session":3},{"rune":"A","rune_set":"bacs1","hex":"#3366ff99","correct":32,"choice":32,"rt":480.73999999905936,"accuracy":1,"outcome":"+1","keys":[1981.0550000001676],"total_keys":1,"block":1,"trial":78,"stimulus":8,"robot":1,"valence":"win","action":"go","sham":1,"trial_type":"pit-trial","trial_index":108,"time_elapsed":446121,"internal_node_id":"0.0-83.0","task_version":"battery-v0.2-trt","session":3},{"rune":"F","rune_set":"bacs1","hex":"#3366ff99","correct":32,"choice":32,"rt":561.0799999994924,"accuracy":1,"outcome":"+10","keys":[2061.4149999964866],"total_keys":1,"block":1,"trial":79,"stimulus":7,"robot":1,"valence":"win","action":"go","sham":0,"trial_type":"pit-trial","trial_index":109,"time_elapsed":449386,"internal_node_id":"0.0-84.0","task_version":"battery-v0.2-trt","session":3},{"rune":"T","rune_set":"bacs1","hex":"#3366ff99","correct":-1,"choice":32,"rt":551.4149999980582,"accuracy":0,"outcome":"+1","keys":[2052.144999997865],"total_keys":1,"block":1,"trial":80,"stimulus":6,"robot":2,"valence":"win","action":"no-go","sham":0,"trial_type":"pit-trial","trial_index":110,"time_elapsed":452638,"internal_node_id":"0.0-85.0","task_version":"battery-v0.2-trt","session":3},{"rune":"C","rune_set":"bacs1","hex":"#3366ff99","correct":-1,"choice":32,"rt":616.9300000001094,"accuracy":0,"outcome":"+1","keys":[2117.2999999980675],"total_keys":1,"block":1,"trial":81,"stimulus":9,"robot":2,"valence":"win","action":"no-go","sham":0,"trial_type":"pit-trial","trial_index":111,"time_elapsed":455959,"internal_node_id":"0.0-86.0","task_version":"battery-v0.2-trt","session":3},{"rune":"T","rune_set":"bacs1","hex":"#3366ff99","correct":-1,"choice":32,"rt":737.0549999978393,"accuracy":0,"outcome":"+1","keys":[2237.250000001979],"total_keys":1,"block":1,"trial":82,"stimulus":6,"robot":2,"valence":"win","action":"no-go","sham":0,"trial_type":"pit-trial","trial_index":112,"time_elapsed":459398,"internal_node_id":"0.0-87.0","task_version":"battery-v0.2-trt","session":3},{"rune":"A","rune_set":"bacs1","hex":"#3366ff99","correct":32,"choice":32,"rt":473.09499999758555,"accuracy":1,"outcome":"+10","keys":[1973.2799999982817],"total_keys":1,"block":1,"trial":83,"stimulus":8,"robot":1,"valence":"win","action":"go","sham":0,"trial_type":"pit-trial","trial_index":113,"time_elapsed":462574,"internal_node_id":"0.0-88.0","task_version":"battery-v0.2-trt","session":3},{"rune":"F","rune_set":"bacs1","hex":"#3366ff99","correct":32,"choice":32,"rt":456.6149999991758,"accuracy":1,"outcome":"+10","keys":[1957.1550000000861],"total_keys":1,"block":1,"trial":84,"stimulus":7,"robot":1,"valence":"win","action":"go","sham":0,"trial_type":"pit-trial","trial_index":114,"time_elapsed":465734,"internal_node_id":"0.0-89.0","task_version":"battery-v0.2-trt","session":3},{"rune":"C","rune_set":"bacs1","hex":"#3366ff99","correct":-1,"choice":-1,"rt":-1,"accuracy":1,"outcome":"+10","keys":[],"total_keys":0,"block":1,"trial":85,"stimulus":9,"robot":2,"valence":"win","action":"no-go","sham":0,"trial_type":"pit-trial","trial_index":115,"time_elapsed":469738,"internal_node_id":"0.0-90.0","task_version":"battery-v0.2-trt","session":3},{"rune":"A","rune_set":"bacs1","hex":"#3366ff99","correct":32,"choice":32,"rt":589.5350000028266,"accuracy":1,"outcome":"+10","keys":[2089.605000001029],"total_keys":1,"block":1,"trial":86,"stimulus":8,"robot":1,"valence":"win","action":"go","sham":0,"trial_type":"pit-trial","trial_index":116,"time_elapsed":473031,"internal_node_id":"0.0-91.0","task_version":"battery-v0.2-trt","session":3},{"rune":"F","rune_set":"bacs1","hex":"#3366ff99","correct":32,"choice":32,"rt":504.2349999967264,"accuracy":1,"outcome":"+10","keys":[2004.4850000012666],"total_keys":1,"block":1,"trial":87,"stimulus":7,"robot":1,"valence":"win","action":"go","sham":0,"trial_type":"pit-trial","trial_index":117,"time_elapsed":476238,"internal_node_id":"0.0-92.0","task_version":"battery-v0.2-trt","session":3},{"rune":"T","rune_set":"bacs1","hex":"#3366ff99","correct":-1,"choice":-1,"rt":-1,"accuracy":1,"outcome":"+1","keys":[],"total_keys":0,"block":1,"trial":88,"stimulus":6,"robot":2,"valence":"win","action":"no-go","sham":1,"trial_type":"pit-trial","trial_index":118,"time_elapsed":480242,"internal_node_id":"0.0-93.0","task_version":"battery-v0.2-trt","session":3},{"rune":"C","rune_set":"bacs1","hex":"#3366ff99","correct":-1,"choice":-1,"rt":-1,"accuracy":1,"outcome":"+10","keys":[],"total_keys":0,"block":1,"trial":89,"stimulus":9,"robot":2,"valence":"win","action":"no-go","sham":0,"trial_type":"pit-trial","trial_index":119,"time_elapsed":484245,"internal_node_id":"0.0-94.0","task_version":"battery-v0.2-trt","session":3},{"rune":"A","rune_set":"bacs1","hex":"#3366ff99","correct":32,"choice":32,"rt":450.55499999946915,"accuracy":1,"outcome":"+10","keys":[1950.909999999567],"total_keys":1,"block":1,"trial":90,"stimulus":8,"robot":1,"valence":"win","action":"go","sham":0,"trial_type":"pit-trial","trial_index":120,"time_elapsed":487398,"internal_node_id":"0.0-95.0","task_version":"battery-v0.2-trt","session":3},{"rune":"Q","rune_set":"bacs1","hex":"#f73b6a7A","correct":-1,"choice":32,"rt":617.0500000007451,"accuracy":0,"outcome":"-10","keys":[2117.225000001781],"total_keys":1,"block":1,"trial":91,"stimulus":11,"robot":4,"valence":"lose","action":"no-go","sham":0,"trial_type":"pit-trial","trial_index":121,"time_elapsed":490719,"internal_node_id":"0.0-96.0","task_version":"battery-v0.2-trt","session":3},{"rune":"L","rune_set":"bacs1","hex":"#f73b6a7A","correct":32,"choice":32,"rt":688.0650000020978,"accuracy":1,"outcome":"-10","keys":[2188.139999998384],"total_keys":1,"block":1,"trial":92,"stimulus":10,"robot":3,"valence":"lose","action":"go","sham":1,"trial_type":"pit-trial","trial_index":122,"time_elapsed":494110,"internal_node_id":"0.0-97.0","task_version":"battery-v0.2-trt","session":3},{"rune":"L","rune_set":"bacs1","hex":"#f73b6a7A","correct":32,"choice":-1,"rt":-1,"accuracy":0,"outcome":"-10","keys":[],"total_keys":0,"block":1,"trial":93,"stimulus":10,"robot":3,"valence":"lose","action":"go","sham":0,"trial_type":"pit-trial","trial_index":123,"time_elapsed":498114,"internal_node_id":"0.0-98.0","task_version":"battery-v0.2-trt","session":3},{"rune":"Q","rune_set":"bacs1","hex":"#f73b6a7A","correct":-1,"choice":-1,"rt":-1,"accuracy":1,"outcome":"-1","keys":[],"total_keys":0,"block":1,"trial":94,"stimulus":11,"robot":4,"valence":"lose","action":"no-go","sham":0,"trial_type":"pit-trial","trial_index":124,"time_elapsed":502119,"internal_node_id":"0.0-99.0","task_version":"battery-v0.2-trt","session":3},{"rune":"A","rune_set":"bacs1","hex":"#3366ff99","correct":32,"choice":32,"rt":638.8000000006286,"accuracy":1,"outcome":"+10","keys":[2139.695000001637],"total_keys":1,"block":1,"trial":95,"stimulus":8,"robot":1,"valence":"win","action":"go","sham":0,"trial_type":"pit-trial","trial_index":125,"time_elapsed":505462,"internal_node_id":"0.0-100.0","task_version":"battery-v0.2-trt","session":3},{"rune":"C","rune_set":"bacs1","hex":"#3366ff99","correct":-1,"choice":-1,"rt":-1,"accuracy":1,"outcome":"+10","keys":[],"total_keys":0,"block":1,"trial":96,"stimulus":9,"robot":2,"valence":"win","action":"no-go","sham":0,"trial_type":"pit-trial","trial_index":126,"time_elapsed":509465,"internal_node_id":"0.0-101.0","task_version":"battery-v0.2-trt","session":3},{"rune":"A","rune_set":"bacs1","hex":"#3366ff99","correct":32,"choice":32,"rt":581.3349999989732,"accuracy":1,"outcome":"+10","keys":[2081.6949999970966],"total_keys":1,"block":1,"trial":97,"stimulus":8,"robot":1,"valence":"win","action":"go","sham":0,"trial_type":"pit-trial","trial_index":127,"time_elapsed":512745,"internal_node_id":"0.0-102.0","task_version":"battery-v0.2-trt","session":3},{"rune":"Q","rune_set":"bacs1","hex":"#f73b6a7A","correct":-1,"choice":-1,"rt":-1,"accuracy":1,"outcome":"-1","keys":[],"total_keys":0,"block":1,"trial":98,"stimulus":11,"robot":4,"valence":"lose","action":"no-go","sham":0,"trial_type":"pit-trial","trial_index":128,"time_elapsed":516750,"internal_node_id":"0.0-103.0","task_version":"battery-v0.2-trt","session":3},{"rune":"C","rune_set":"bacs1","hex":"#3366ff99","correct":-1,"choice":-1,"rt":-1,"accuracy":1,"outcome":"+10","keys":[],"total_keys":0,"block":1,"trial":99,"stimulus":9,"robot":2,"valence":"win","action":"no-go","sham":0,"trial_type":"pit-trial","trial_index":129,"time_elapsed":520753,"internal_node_id":"0.0-104.0","task_version":"battery-v0.2-trt","session":3},{"rune":"L","rune_set":"bacs1","hex":"#f73b6a7A","correct":32,"choice":32,"rt":1042.5849999992643,"accuracy":1,"outcome":"-1","keys":[2542.975000000326],"total_keys":1,"block":1,"trial":100,"stimulus":10,"robot":3,"valence":"lose","action":"go","sham":0,"trial_type":"pit-trial","trial_index":130,"time_elapsed":524498,"internal_node_id":"0.0-105.0","task_version":"battery-v0.2-trt","session":3},{"rune":"L","rune_set":"bacs1","hex":"#f73b6a7A","correct":32,"choice":32,"rt":440.79000000061933,"accuracy":1,"outcome":"-10","keys":[1941.1049999981187],"total_keys":1,"block":1,"trial":101,"stimulus":10,"robot":3,"valence":"lose","action":"go","sham":1,"trial_type":"pit-trial","trial_index":131,"time_elapsed":527641,"internal_node_id":"0.0-106.0","task_version":"battery-v0.2-trt","session":3},{"rune":"C","rune_set":"bacs1","hex":"#3366ff99","correct":-1,"choice":-1,"rt":-1,"accuracy":1,"outcome":"+10","keys":[],"total_keys":0,"block":1,"trial":102,"stimulus":9,"robot":2,"valence":"win","action":"no-go","sham":0,"trial_type":"pit-trial","trial_index":132,"time_elapsed":531645,"internal_node_id":"0.0-107.0","task_version":"battery-v0.2-trt","session":3},{"rune":"Q","rune_set":"bacs1","hex":"#f73b6a7A","correct":-1,"choice":-1,"rt":-1,"accuracy":1,"outcome":"-10","keys":[],"total_keys":0,"block":1,"trial":103,"stimulus":11,"robot":4,"valence":"lose","action":"no-go","sham":1,"trial_type":"pit-trial","trial_index":133,"time_elapsed":535648,"internal_node_id":"0.0-108.0","task_version":"battery-v0.2-trt","session":3},{"rune":"A","rune_set":"bacs1","hex":"#3366ff99","correct":32,"choice":32,"rt":514.8449999978766,"accuracy":1,"outcome":"+10","keys":[2015.045000000042],"total_keys":1,"block":1,"trial":104,"stimulus":8,"robot":1,"valence":"win","action":"go","sham":0,"trial_type":"pit-trial","trial_index":134,"time_elapsed":538866,"internal_node_id":"0.0-109.0","task_version":"battery-v0.2-trt","session":3},{"rune":"A","rune_set":"bacs1","hex":"#3366ff99","correct":32,"choice":32,"rt":488.7750000016531,"accuracy":1,"outcome":"+10","keys":[1989.224999997532],"total_keys":1,"block":1,"trial":105,"stimulus":8,"robot":1,"valence":"win","action":"go","sham":0,"trial_type":"pit-trial","trial_index":135,"time_elapsed":542061,"internal_node_id":"0.0-110.0","task_version":"battery-v0.2-trt","session":3},{"rune":"L","rune_set":"bacs1","hex":"#f73b6a7A","correct":32,"choice":32,"rt":317.49000000127126,"accuracy":1,"outcome":"-1","keys":[1817.950000000652],"total_keys":1,"block":1,"trial":106,"stimulus":10,"robot":3,"valence":"lose","action":"go","sham":0,"trial_type":"pit-trial","trial_index":136,"time_elapsed":545081,"internal_node_id":"0.0-111.0","task_version":"battery-v0.2-trt","session":3},{"rune":"C","rune_set":"bacs1","hex":"#3366ff99","correct":-1,"choice":-1,"rt":-1,"accuracy":1,"outcome":"+1","keys":[],"total_keys":0,"block":1,"trial":107,"stimulus":9,"robot":2,"valence":"win","action":"no-go","sham":1,"trial_type":"pit-trial","trial_index":137,"time_elapsed":549085,"internal_node_id":"0.0-112.0","task_version":"battery-v0.2-trt","session":3},{"rune":"Q","rune_set":"bacs1","hex":"#f73b6a7A","correct":-1,"choice":-1,"rt":-1,"accuracy":1,"outcome":"-10","keys":[],"total_keys":0,"block":1,"trial":108,"stimulus":11,"robot":4,"valence":"lose","action":"no-go","sham":1,"trial_type":"pit-trial","trial_index":138,"time_elapsed":553088,"internal_node_id":"0.0-113.0","task_version":"battery-v0.2-trt","session":3},{"rune":"Q","rune_set":"bacs1","hex":"#f73b6a7A","correct":-1,"choice":-1,"rt":-1,"accuracy":1,"outcome":"-1","keys":[],"total_keys":0,"block":1,"trial":109,"stimulus":11,"robot":4,"valence":"lose","action":"no-go","sham":0,"trial_type":"pit-trial","trial_index":139,"time_elapsed":557092,"internal_node_id":"0.0-114.0","task_version":"battery-v0.2-trt","session":3},{"rune":"L","rune_set":"bacs1","hex":"#f73b6a7A","correct":32,"choice":32,"rt":532.5699999993667,"accuracy":1,"outcome":"-1","keys":[2035.0800000014715],"total_keys":1,"block":1,"trial":110,"stimulus":10,"robot":3,"valence":"lose","action":"go","sham":0,"trial_type":"pit-trial","trial_index":140,"time_elapsed":560330,"internal_node_id":"0.0-115.0","task_version":"battery-v0.2-trt","session":3},{"rune":"A","rune_set":"bacs1","hex":"#3366ff99","correct":32,"choice":32,"rt":440.38000000000466,"accuracy":1,"outcome":"+10","keys":[1940.565000000759],"total_keys":1,"block":1,"trial":111,"stimulus":8,"robot":1,"valence":"win","action":"go","sham":0,"trial_type":"pit-trial","trial_index":141,"time_elapsed":563473,"internal_node_id":"0.0-116.0","task_version":"battery-v0.2-trt","session":3},{"rune":"C","rune_set":"bacs1","hex":"#3366ff99","correct":-1,"choice":-1,"rt":-1,"accuracy":1,"outcome":"+10","keys":[],"total_keys":0,"block":1,"trial":112,"stimulus":9,"robot":2,"valence":"win","action":"no-go","sham":0,"trial_type":"pit-trial","trial_index":142,"time_elapsed":567477,"internal_node_id":"0.0-117.0","task_version":"battery-v0.2-trt","session":3},{"rune":"Q","rune_set":"bacs1","hex":"#f73b6a7A","correct":-1,"choice":-1,"rt":-1,"accuracy":1,"outcome":"-1","keys":[],"total_keys":0,"block":1,"trial":113,"stimulus":11,"robot":4,"valence":"lose","action":"no-go","sham":0,"trial_type":"pit-trial","trial_index":143,"time_elapsed":571476,"internal_node_id":"0.0-118.0","task_version":"battery-v0.2-trt","session":3},{"rune":"A","rune_set":"bacs1","hex":"#3366ff99","correct":32,"choice":32,"rt":401.44499999959953,"accuracy":1,"outcome":"+1","keys":[1901.6200000005774],"total_keys":1,"block":1,"trial":114,"stimulus":8,"robot":1,"valence":"win","action":"go","sham":1,"trial_type":"pit-trial","trial_index":144,"time_elapsed":574580,"internal_node_id":"0.0-119.0","task_version":"battery-v0.2-trt","session":3},{"rune":"L","rune_set":"bacs1","hex":"#f73b6a7A","correct":32,"choice":32,"rt":704.7549999988405,"accuracy":1,"outcome":"-1","keys":[2204.9850000003353],"total_keys":1,"block":1,"trial":115,"stimulus":10,"robot":3,"valence":"lose","action":"go","sham":0,"trial_type":"pit-trial","trial_index":145,"time_elapsed":577987,"internal_node_id":"0.0-120.0","task_version":"battery-v0.2-trt","session":3},{"rune":"C","rune_set":"bacs1","hex":"#3366ff99","correct":-1,"choice":-1,"rt":-1,"accuracy":1,"outcome":"+10","keys":[],"total_keys":0,"block":1,"trial":116,"stimulus":9,"robot":2,"valence":"win","action":"no-go","sham":0,"trial_type":"pit-trial","trial_index":146,"time_elapsed":581991,"internal_node_id":"0.0-121.0","task_version":"battery-v0.2-trt","session":3},{"rune":"A","rune_set":"bacs1","hex":"#3366ff99","correct":32,"choice":32,"rt":421.80999999982305,"accuracy":1,"outcome":"+10","keys":[1922.7300000020768],"total_keys":1,"block":1,"trial":117,"stimulus":8,"robot":1,"valence":"win","action":"go","sham":0,"trial_type":"pit-trial","trial_index":147,"time_elapsed":585116,"internal_node_id":"0.0-122.0","task_version":"battery-v0.2-trt","session":3},{"rune":"C","rune_set":"bacs1","hex":"#3366ff99","correct":-1,"choice":-1,"rt":-1,"accuracy":1,"outcome":"+10","keys":[],"total_keys":0,"block":1,"trial":118,"stimulus":9,"robot":2,"valence":"win","action":"no-go","sham":0,"trial_type":"pit-trial","trial_index":148,"time_elapsed":589118,"internal_node_id":"0.0-123.0","task_version":"battery-v0.2-trt","session":3},{"rune":"Q","rune_set":"bacs1","hex":"#f73b6a7A","correct":-1,"choice":-1,"rt":-1,"accuracy":1,"outcome":"-1","keys":[],"total_keys":0,"block":1,"trial":119,"stimulus":11,"robot":4,"valence":"lose","action":"no-go","sham":0,"trial_type":"pit-trial","trial_index":149,"time_elapsed":593122,"internal_node_id":"0.0-124.0","task_version":"battery-v0.2-trt","session":3},{"rune":"L","rune_set":"bacs1","hex":"#f73b6a7A","correct":32,"choice":32,"rt":483.2299999980023,"accuracy":1,"outcome":"-1","keys":[1983.6749999994645],"total_keys":1,"block":1,"trial":120,"stimulus":10,"robot":3,"valence":"lose","action":"go","sham":0,"trial_type":"pit-trial","trial_index":150,"time_elapsed":596308,"internal_node_id":"0.0-125.0","task_version":"battery-v0.2-trt","session":3},{"view_history":"[{\"page_index\":0,\"viewing_time\":2421.5499999991152},{\"page_index\":1,\"viewing_time\":1575.9700000017183}]","rt":3998.0849999992643,"trial_type":"pit-instructions","trial_index":151,"time_elapsed":600308,"internal_node_id":"0.0-126.0","task_version":"battery-v0.2-trt","session":3},{"rune":"P","rune_set":"bacs1","hex":"#3366ff99","correct":32,"choice":32,"rt":471.0049999994226,"accuracy":1,"outcome":"+1","keys":[1971.30499999912],"total_keys":1,"block":2,"trial":121,"stimulus":2,"robot":1,"valence":"win","action":"go","sham":1,"trial_type":"pit-trial","trial_index":152,"time_elapsed":603483,"internal_node_id":"0.0-127.0","task_version":"battery-v0.2-trt","session":3},{"rune":"H","rune_set":"bacs1","hex":"#3366ff99","correct":-1,"choice":32,"rt":409.57999999960884,"accuracy":0,"outcome":"+1","keys":[1909.7250000012573],"total_keys":1,"block":2,"trial":122,"stimulus":1,"robot":2,"valence":"win","action":"no-go","sham":0,"trial_type":"pit-trial","trial_index":153,"time_elapsed":606596,"internal_node_id":"0.0-128.0","task_version":"battery-v0.2-trt","session":3},{"rune":"Y","rune_set":"bacs1","hex":"#3366ff99","correct":-1,"choice":32,"rt":463.5449999986449,"accuracy":0,"outcome":"+1","keys":[1964.1000000010245],"total_keys":1,"block":2,"trial":123,"stimulus":0,"robot":2,"valence":"win","action":"no-go","sham":0,"trial_type":"pit-trial","trial_index":154,"time_elapsed":609763,"internal_node_id":"0.0-129.0","task_version":"battery-v0.2-trt","session":3},{"rune":"M","rune_set":"bacs1","hex":"#f73b6a7A","correct":32,"choice":32,"rt":553.1200000005774,"accuracy":1,"outcome":"-1","keys":[2053.3749999995343],"total_keys":1,"block":2,"trial":124,"stimulus":3,"robot":3,"valence":"lose","action":"go","sham":0,"trial_type":"pit-trial","trial_index":155,"time_elapsed":613019,"internal_node_id":"0.0-130.0","task_version":"battery-v0.2-trt","session":3},{"rune":"Y","rune_set":"bacs1","hex":"#3366ff99","correct":-1,"choice":-1,"rt":-1,"accuracy":1,"outcome":"+1","keys":[],"total_keys":0,"block":2,"trial":125,"stimulus":0,"robot":2,"valence":"win","action":"no-go","sham":1,"trial_type":"pit-trial","trial_index":156,"time_elapsed":617022,"internal_node_id":"0.0-131.0","task_version":"battery-v0.2-trt","session":3},{"rune":"H","rune_set":"bacs1","hex":"#3366ff99","correct":-1,"choice":-1,"rt":-1,"accuracy":1,"outcome":"+10","keys":[],"total_keys":0,"block":2,"trial":126,"stimulus":1,"robot":2,"valence":"win","action":"no-go","sham":0,"trial_type":"pit-trial","trial_index":157,"time_elapsed":621026,"internal_node_id":"0.0-132.0","task_version":"battery-v0.2-trt","session":3},{"rune":"P","rune_set":"bacs1","hex":"#3366ff99","correct":32,"choice":-1,"rt":-1,"accuracy":0,"outcome":"+1","keys":[],"total_keys":0,"block":2,"trial":127,"stimulus":2,"robot":1,"valence":"win","action":"go","sham":0,"trial_type":"pit-trial","trial_index":158,"time_elapsed":625030,"internal_node_id":"0.0-133.0","task_version":"battery-v0.2-trt","session":3},{"rune":"M","rune_set":"bacs1","hex":"#f73b6a7A","correct":32,"choice":32,"rt":525.8150000008754,"accuracy":1,"outcome":"-1","keys":[2026.0000000016298],"total_keys":1,"block":2,"trial":128,"stimulus":3,"robot":3,"valence":"lose","action":"go","sham":0,"trial_type":"pit-trial","trial_index":159,"time_elapsed":628260,"internal_node_id":"0.0-134.0","task_version":"battery-v0.2-trt","session":3},{"rune":"H","rune_set":"bacs1","hex":"#3366ff99","correct":-1,"choice":-1,"rt":-1,"accuracy":1,"outcome":"+10","keys":[],"total_keys":0,"block":2,"trial":129,"stimulus":1,"robot":2,"valence":"win","action":"no-go","sham":0,"trial_type":"pit-trial","trial_index":160,"time_elapsed":632251,"internal_node_id":"0.0-135.0","task_version":"battery-v0.2-trt","session":3},{"rune":"M","rune_set":"bacs1","hex":"#f73b6a7A","correct":32,"choice":32,"rt":557.3750000002328,"accuracy":1,"outcome":"-1","keys":[2057.650000002468],"total_keys":1,"block":2,"trial":130,"stimulus":3,"robot":3,"valence":"lose","action":"go","sham":0,"trial_type":"pit-trial","trial_index":161,"time_elapsed":635512,"internal_node_id":"0.0-136.0","task_version":"battery-v0.2-trt","session":3},{"rune":"P","rune_set":"bacs1","hex":"#3366ff99","correct":32,"choice":32,"rt":601.0249999999069,"accuracy":1,"outcome":"+10","keys":[2101.6449999988545],"total_keys":1,"block":2,"trial":131,"stimulus":2,"robot":1,"valence":"win","action":"go","sham":0,"trial_type":"pit-trial","trial_index":162,"time_elapsed":638817,"internal_node_id":"0.0-137.0","task_version":"battery-v0.2-trt","session":3},{"rune":"Y","rune_set":"bacs1","hex":"#3366ff99","correct":-1,"choice":32,"rt":607.1300000003539,"accuracy":0,"outcome":"+10","keys":[2108.0299999993294],"total_keys":1,"block":2,"trial":132,"stimulus":0,"robot":2,"valence":"win","action":"no-go","sham":1,"trial_type":"pit-trial","trial_index":163,"time_elapsed":642128,"internal_node_id":"0.0-138.0","task_version":"battery-v0.2-trt","session":3},{"rune":"M","rune_set":"bacs1","hex":"#f73b6a7A","correct":32,"choice":32,"rt":296.89000000141095,"accuracy":1,"outcome":"-1","keys":[1797.005000000354],"total_keys":1,"block":2,"trial":133,"stimulus":3,"robot":3,"valence":"lose","action":"go","sham":0,"trial_type":"pit-trial","trial_index":164,"time_elapsed":645128,"internal_node_id":"0.0-139.0","task_version":"battery-v0.2-trt","session":3},{"rune":"P","rune_set":"bacs1","hex":"#3366ff99","correct":32,"choice":32,"rt":464.6700000013225,"accuracy":1,"outcome":"+1","keys":[1964.814999999362],"total_keys":1,"block":2,"trial":134,"stimulus":2,"robot":1,"valence":"win","action":"go","sham":1,"trial_type":"pit-trial","trial_index":165,"time_elapsed":648295,"internal_node_id":"0.0-140.0","task_version":"battery-v0.2-trt","session":3},{"rune":"Y","rune_set":"bacs1","hex":"#3366ff99","correct":-1,"choice":32,"rt":417.94500000111293,"accuracy":0,"outcome":"+1","keys":[1918.1199999983655],"total_keys":1,"block":2,"trial":135,"stimulus":0,"robot":2,"valence":"win","action":"no-go","sham":0,"trial_type":"pit-trial","trial_index":166,"time_elapsed":651416,"internal_node_id":"0.0-141.0","task_version":"battery-v0.2-trt","session":3},{"rune":"H","rune_set":"bacs1","hex":"#3366ff99","correct":-1,"choice":-1,"rt":-1,"accuracy":1,"outcome":"+1","keys":[],"total_keys":0,"block":2,"trial":136,"stimulus":1,"robot":2,"valence":"win","action":"no-go","sham":1,"trial_type":"pit-trial","trial_index":167,"time_elapsed":655419,"internal_node_id":"0.0-142.0","task_version":"battery-v0.2-trt","session":3},{"rune":"H","rune_set":"bacs1","hex":"#3366ff99","correct":-1,"choice":-1,"rt":-1,"accuracy":1,"outcome":"+10","keys":[],"total_keys":0,"block":2,"trial":137,"stimulus":1,"robot":2,"valence":"win","action":"no-go","sham":0,"trial_type":"pit-trial","trial_index":168,"time_elapsed":659422,"internal_node_id":"0.0-143.0","task_version":"battery-v0.2-trt","session":3},{"rune":"Y","rune_set":"bacs1","hex":"#3366ff99","correct":-1,"choice":-1,"rt":-1,"accuracy":1,"outcome":"+10","keys":[],"total_keys":0,"block":2,"trial":138,"stimulus":0,"robot":2,"valence":"win","action":"no-go","sham":0,"trial_type":"pit-trial","trial_index":169,"time_elapsed":663425,"internal_node_id":"0.0-144.0","task_version":"battery-v0.2-trt","session":3},{"rune":"M","rune_set":"bacs1","hex":"#f73b6a7A","correct":32,"choice":32,"rt":463.31500000087544,"accuracy":1,"outcome":"-1","keys":[1963.5049999996554],"total_keys":1,"block":2,"trial":139,"stimulus":3,"robot":3,"valence":"lose","action":"go","sham":0,"trial_type":"pit-trial","trial_index":170,"time_elapsed":666591,"internal_node_id":"0.0-145.0","task_version":"battery-v0.2-trt","session":3},{"rune":"P","rune_set":"bacs1","hex":"#3366ff99","correct":32,"choice":32,"rt":312.7299999977695,"accuracy":1,"outcome":"+10","keys":[1812.8199999991339],"total_keys":1,"block":2,"trial":140,"stimulus":2,"robot":1,"valence":"win","action":"go","sham":0,"trial_type":"pit-trial","trial_index":171,"time_elapsed":669607,"internal_node_id":"0.0-146.0","task_version":"battery-v0.2-trt","session":3},{"rune":"M","rune_set":"bacs1","hex":"#f73b6a7A","correct":32,"choice":32,"rt":416.84499999973923,"accuracy":1,"outcome":"-1","keys":[1917.1950000018114],"total_keys":1,"block":2,"trial":141,"stimulus":3,"robot":3,"valence":"lose","action":"go","sham":0,"trial_type":"pit-trial","trial_index":172,"time_elapsed":672727,"internal_node_id":"0.0-147.0","task_version":"battery-v0.2-trt","session":3},{"rune":"P","rune_set":"bacs1","hex":"#3366ff99","correct":32,"choice":32,"rt":352.8999999980442,"accuracy":1,"outcome":"+10","keys":[1853.2500000001164],"total_keys":1,"block":2,"trial":142,"stimulus":2,"robot":1,"valence":"win","action":"go","sham":0,"trial_type":"pit-trial","trial_index":173,"time_elapsed":675783,"internal_node_id":"0.0-148.0","task_version":"battery-v0.2-trt","session":3},{"rune":"Y","rune_set":"bacs1","hex":"#3366ff99","correct":-1,"choice":-1,"rt":-1,"accuracy":1,"outcome":"+10","keys":[],"total_keys":0,"block":2,"trial":143,"stimulus":0,"robot":2,"valence":"win","action":"no-go","sham":0,"trial_type":"pit-trial","trial_index":174,"time_elapsed":679786,"internal_node_id":"0.0-149.0","task_version":"battery-v0.2-trt","session":3},{"rune":"H","rune_set":"bacs1","hex":"#3366ff99","correct":-1,"choice":-1,"rt":-1,"accuracy":1,"outcome":"+10","keys":[],"total_keys":0,"block":2,"trial":144,"stimulus":1,"robot":2,"valence":"win","action":"no-go","sham":0,"trial_type":"pit-trial","trial_index":175,"time_elapsed":683791,"internal_node_id":"0.0-150.0","task_version":"battery-v0.2-trt","session":3},{"rune":"Y","rune_set":"bacs1","hex":"#3366ff99","correct":-1,"choice":-1,"rt":-1,"accuracy":1,"outcome":"+10","keys":[],"total_keys":0,"block":2,"trial":145,"stimulus":0,"robot":2,"valence":"win","action":"no-go","sham":0,"trial_type":"pit-trial","trial_index":176,"time_elapsed":687793,"internal_node_id":"0.0-151.0","task_version":"battery-v0.2-trt","session":3},{"rune":"M","rune_set":"bacs1","hex":"#f73b6a7A","correct":32,"choice":32,"rt":442.89000000199303,"accuracy":1,"outcome":"-10","keys":[1947.099999997532],"total_keys":1,"block":2,"trial":146,"stimulus":3,"robot":3,"valence":"lose","action":"go","sham":1,"trial_type":"pit-trial","trial_index":177,"time_elapsed":690943,"internal_node_id":"0.0-152.0","task_version":"battery-v0.2-trt","session":3},{"rune":"H","rune_set":"bacs1","hex":"#3366ff99","correct":-1,"choice":-1,"rt":-1,"accuracy":1,"outcome":"+10","keys":[],"total_keys":0,"block":2,"trial":147,"stimulus":1,"robot":2,"valence":"win","action":"no-go","sham":0,"trial_type":"pit-trial","trial_index":178,"time_elapsed":694931,"internal_node_id":"0.0-153.0","task_version":"battery-v0.2-trt","session":3},{"rune":"P","rune_set":"bacs1","hex":"#3366ff99","correct":32,"choice":32,"rt":389.36499999905936,"accuracy":1,"outcome":"+1","keys":[1889.680000000284],"total_keys":1,"block":2,"trial":148,"stimulus":2,"robot":1,"valence":"win","action":"go","sham":1,"trial_type":"pit-trial","trial_index":179,"time_elapsed":698023,"internal_node_id":"0.0-154.0","task_version":"battery-v0.2-trt","session":3},{"rune":"Y","rune_set":"bacs1","hex":"#3366ff99","correct":-1,"choice":-1,"rt":-1,"accuracy":1,"outcome":"+10","keys":[],"total_keys":0,"block":2,"trial":149,"stimulus":0,"robot":2,"valence":"win","action":"no-go","sham":0,"trial_type":"pit-trial","trial_index":180,"time_elapsed":702026,"internal_node_id":"0.0-155.0","task_version":"battery-v0.2-trt","session":3},{"rune":"P","rune_set":"bacs1","hex":"#3366ff99","correct":32,"choice":32,"rt":398.7149999992689,"accuracy":1,"outcome":"+10","keys":[1898.9399999992456],"total_keys":1,"block":2,"trial":150,"stimulus":2,"robot":1,"valence":"win","action":"go","sham":0,"trial_type":"pit-trial","trial_index":181,"time_elapsed":705127,"internal_node_id":"0.0-156.0","task_version":"battery-v0.2-trt","session":3},{"rune":"M","rune_set":"bacs1","hex":"#f73b6a7A","correct":32,"choice":32,"rt":328.06999999959953,"accuracy":1,"outcome":"-1","keys":[1828.235000000801],"total_keys":1,"block":2,"trial":151,"stimulus":3,"robot":3,"valence":"lose","action":"go","sham":0,"trial_type":"pit-trial","trial_index":182,"time_elapsed":708159,"internal_node_id":"0.0-157.0","task_version":"battery-v0.2-trt","session":3},{"rune":"H","rune_set":"bacs1","hex":"#3366ff99","correct":-1,"choice":-1,"rt":-1,"accuracy":1,"outcome":"+10","keys":[],"total_keys":0,"block":2,"trial":152,"stimulus":1,"robot":2,"valence":"win","action":"no-go","sham":0,"trial_type":"pit-trial","trial_index":183,"time_elapsed":712162,"internal_node_id":"0.0-158.0","task_version":"battery-v0.2-trt","session":3},{"rune":"Y","rune_set":"bacs1","hex":"#3366ff99","correct":-1,"choice":-1,"rt":-1,"accuracy":1,"outcome":"+1","keys":[],"total_keys":0,"block":2,"trial":153,"stimulus":0,"robot":2,"valence":"win","action":"no-go","sham":1,"trial_type":"pit-trial","trial_index":184,"time_elapsed":716166,"internal_node_id":"0.0-159.0","task_version":"battery-v0.2-trt","session":3},{"rune":"U","rune_set":"bacs1","hex":"#f73b6a7A","correct":-1,"choice":32,"rt":666.2649999997811,"accuracy":0,"outcome":"-10","keys":[2166.529999998631],"total_keys":1,"block":2,"trial":154,"stimulus":4,"robot":4,"valence":"lose","action":"no-go","sham":0,"trial_type":"pit-trial","trial_index":185,"time_elapsed":719535,"internal_node_id":"0.0-160.0","task_version":"battery-v0.2-trt","session":3},{"rune":"P","rune_set":"bacs1","hex":"#3366ff99","correct":32,"choice":32,"rt":520.2549999994226,"accuracy":1,"outcome":"+1","keys":[2021.1250000030268],"total_keys":1,"block":2,"trial":155,"stimulus":2,"robot":1,"valence":"win","action":"go","sham":1,"trial_type":"pit-trial","trial_index":186,"time_elapsed":722759,"internal_node_id":"0.0-161.0","task_version":"battery-v0.2-trt","session":3},{"rune":"S","rune_set":"bacs1","hex":"#f73b6a7A","correct":32,"choice":32,"rt":560.9149999981746,"accuracy":1,"outcome":"-1","keys":[2061.0849999976344],"total_keys":1,"block":2,"trial":156,"stimulus":5,"robot":3,"valence":"lose","action":"go","sham":0,"trial_type":"pit-trial","trial_index":187,"time_elapsed":726023,"internal_node_id":"0.0-162.0","task_version":"battery-v0.2-trt","session":3},{"rune":"U","rune_set":"bacs1","hex":"#f73b6a7A","correct":-1,"choice":-1,"rt":-1,"accuracy":1,"outcome":"-1","keys":[],"total_keys":0,"block":2,"trial":157,"stimulus":4,"robot":4,"valence":"lose","action":"no-go","sham":0,"trial_type":"pit-trial","trial_index":188,"time_elapsed":730027,"internal_node_id":"0.0-163.0","task_version":"battery-v0.2-trt","session":3},{"rune":"P","rune_set":"bacs1","hex":"#3366ff99","correct":32,"choice":32,"rt":532.934999999241,"accuracy":1,"outcome":"+1","keys":[2033.1450000011828],"total_keys":1,"block":2,"trial":158,"stimulus":2,"robot":1,"valence":"win","action":"go","sham":1,"trial_type":"pit-trial","trial_index":189,"time_elapsed":733263,"internal_node_id":"0.0-164.0","task_version":"battery-v0.2-trt","session":3},{"rune":"Y","rune_set":"bacs1","hex":"#3366ff99","correct":-1,"choice":-1,"rt":-1,"accuracy":1,"outcome":"+10","keys":[],"total_keys":0,"block":2,"trial":159,"stimulus":0,"robot":2,"valence":"win","action":"no-go","sham":0,"trial_type":"pit-trial","trial_index":190,"time_elapsed":737267,"internal_node_id":"0.0-165.0","task_version":"battery-v0.2-trt","session":3},{"rune":"S","rune_set":"bacs1","hex":"#f73b6a7A","correct":32,"choice":32,"rt":548.4950000027893,"accuracy":1,"outcome":"-1","keys":[2048.789999997127],"total_keys":1,"block":2,"trial":160,"stimulus":5,"robot":3,"valence":"lose","action":"go","sham":0,"trial_type":"pit-trial","trial_index":191,"time_elapsed":740518,"internal_node_id":"0.0-166.0","task_version":"battery-v0.2-trt","session":3},{"rune":"S","rune_set":"bacs1","hex":"#f73b6a7A","correct":32,"choice":32,"rt":478.31999999831896,"accuracy":1,"outcome":"-1","keys":[1978.8300000000745],"total_keys":1,"block":2,"trial":161,"stimulus":5,"robot":3,"valence":"lose","action":"go","sham":0,"trial_type":"pit-trial","trial_index":192,"time_elapsed":743702,"internal_node_id":"0.0-167.0","task_version":"battery-v0.2-trt","session":3},{"rune":"P","rune_set":"bacs1","hex":"#3366ff99","correct":32,"choice":-1,"rt":-1,"accuracy":0,"outcome":"+1","keys":[],"total_keys":0,"block":2,"trial":162,"stimulus":2,"robot":1,"valence":"win","action":"go","sham":0,"trial_type":"pit-trial","trial_index":193,"time_elapsed":747706,"internal_node_id":"0.0-168.0","task_version":"battery-v0.2-trt","session":3},{"rune":"U","rune_set":"bacs1","hex":"#f73b6a7A","correct":-1,"choice":-1,"rt":-1,"accuracy":1,"outcome":"-1","keys":[],"total_keys":0,"block":2,"trial":163,"stimulus":4,"robot":4,"valence":"lose","action":"no-go","sham":0,"trial_type":"pit-trial","trial_index":194,"time_elapsed":751688,"internal_node_id":"0.0-169.0","task_version":"battery-v0.2-trt","session":3},{"rune":"K","rune_set":"bacs1","hex":"#3366ff99","correct":-1,"choice":32,"rt":625.5799999998417,"accuracy":0,"outcome":"+1","keys":[2126.049999998999],"total_keys":1,"block":2,"trial":164,"stimulus":6,"robot":2,"valence":"win","action":"no-go","sham":0,"trial_type":"pit-trial","trial_index":195,"time_elapsed":755018,"internal_node_id":"0.0-170.0","task_version":"battery-v0.2-trt","session":3},{"rune":"U","rune_set":"bacs1","hex":"#f73b6a7A","correct":-1,"choice":-1,"rt":-1,"accuracy":1,"outcome":"-1","keys":[],"total_keys":0,"block":2,"trial":165,"stimulus":4,"robot":4,"valence":"lose","action":"no-go","sham":0,"trial_type":"pit-trial","trial_index":196,"time_elapsed":759020,"internal_node_id":"0.0-171.0","task_version":"battery-v0.2-trt","session":3},{"rune":"K","rune_set":"bacs1","hex":"#3366ff99","correct":-1,"choice":-1,"rt":-1,"accuracy":1,"outcome":"+1","keys":[],"total_keys":0,"block":2,"trial":166,"stimulus":6,"robot":2,"valence":"win","action":"no-go","sham":1,"trial_type":"pit-trial","trial_index":197,"time_elapsed":763023,"internal_node_id":"0.0-172.0","task_version":"battery-v0.2-trt","session":3},{"rune":"S","rune_set":"bacs1","hex":"#f73b6a7A","correct":32,"choice":32,"rt":387.95500000193715,"accuracy":1,"outcome":"-1","keys":[1888.0000000026776],"total_keys":1,"block":2,"trial":167,"stimulus":5,"robot":3,"valence":"lose","action":"go","sham":0,"trial_type":"pit-trial","trial_index":198,"time_elapsed":766114,"internal_node_id":"0.0-173.0","task_version":"battery-v0.2-trt","session":3},{"rune":"P","rune_set":"bacs1","hex":"#3366ff99","correct":32,"choice":-1,"rt":-1,"accuracy":0,"outcome":"+1","keys":[],"total_keys":0,"block":2,"trial":168,"stimulus":2,"robot":1,"valence":"win","action":"go","sham":0,"trial_type":"pit-trial","trial_index":199,"time_elapsed":770117,"internal_node_id":"0.0-174.0","task_version":"battery-v0.2-trt","session":3},{"rune":"D","rune_set":"bacs1","hex":"#f73b6a7A","correct":-1,"choice":32,"rt":789.3349999977509,"accuracy":0,"outcome":"-1","keys":[2289.585000002291],"total_keys":1,"block":2,"trial":169,"stimulus":7,"robot":4,"valence":"lose","action":"no-go","sham":1,"trial_type":"pit-trial","trial_index":200,"time_elapsed":773609,"internal_node_id":"0.0-175.0","task_version":"battery-v0.2-trt","session":3},{"rune":"U","rune_set":"bacs1","hex":"#f73b6a7A","correct":-1,"choice":-1,"rt":-1,"accuracy":1,"outcome":"-1","keys":[],"total_keys":0,"block":2,"trial":170,"stimulus":4,"robot":4,"valence":"lose","action":"no-go","sham":0,"trial_type":"pit-trial","trial_index":201,"time_elapsed":777613,"internal_node_id":"0.0-176.0","task_version":"battery-v0.2-trt","session":3},{"rune":"S","rune_set":"bacs1","hex":"#f73b6a7A","correct":32,"choice":32,"rt":613.9599999987986,"accuracy":1,"outcome":"-10","keys":[2114.074999997625],"total_keys":1,"block":2,"trial":171,"stimulus":5,"robot":3,"valence":"lose","action":"go","sham":1,"trial_type":"pit-trial","trial_index":202,"time_elapsed":780930,"internal_node_id":"0.0-177.0","task_version":"battery-v0.2-trt","session":3},{"rune":"K","rune_set":"bacs1","hex":"#3366ff99","correct":-1,"choice":32,"rt":655.6850000015693,"accuracy":0,"outcome":"+1","keys":[2156.5300000001444],"total_keys":1,"block":2,"trial":172,"stimulus":6,"robot":2,"valence":"win","action":"no-go","sham":0,"trial_type":"pit-trial","trial_index":203,"time_elapsed":784288,"internal_node_id":"0.0-178.0","task_version":"battery-v0.2-trt","session":3},{"rune":"D","rune_set":"bacs1","hex":"#f73b6a7A","correct":-1,"choice":32,"rt":559.5749999993714,"accuracy":0,"outcome":"-10","keys":[2061.6850000005215],"total_keys":1,"block":2,"trial":173,"stimulus":7,"robot":4,"valence":"lose","action":"no-go","sham":0,"trial_type":"pit-trial","trial_index":204,"time_elapsed":787553,"internal_node_id":"0.0-179.0","task_version":"battery-v0.2-trt","session":3},{"rune":"K","rune_set":"bacs1","hex":"#3366ff99","correct":-1,"choice":-1,"rt":-1,"accuracy":1,"outcome":"+10","keys":[],"total_keys":0,"block":2,"trial":174,"stimulus":6,"robot":2,"valence":"win","action":"no-go","sham":0,"trial_type":"pit-trial","trial_index":205,"time_elapsed":791556,"internal_node_id":"0.0-180.0","task_version":"battery-v0.2-trt","session":3},{"rune":"U","rune_set":"bacs1","hex":"#f73b6a7A","correct":-1,"choice":-1,"rt":-1,"accuracy":1,"outcome":"-1","keys":[],"total_keys":0,"block":2,"trial":175,"stimulus":4,"robot":4,"valence":"lose","action":"no-go","sham":0,"trial_type":"pit-trial","trial_index":206,"time_elapsed":795558,"internal_node_id":"0.0-181.0","task_version":"battery-v0.2-trt","session":3},{"rune":"S","rune_set":"bacs1","hex":"#f73b6a7A","correct":32,"choice":32,"rt":487.9799999980023,"accuracy":1,"outcome":"-10","keys":[1991.8099999995902],"total_keys":1,"block":2,"trial":176,"stimulus":5,"robot":3,"valence":"lose","action":"go","sham":1,"trial_type":"pit-trial","trial_index":207,"time_elapsed":798753,"internal_node_id":"0.0-182.0","task_version":"battery-v0.2-trt","session":3},{"rune":"D","rune_set":"bacs1","hex":"#f73b6a7A","correct":-1,"choice":32,"rt":314.54500000108965,"accuracy":0,"outcome":"-10","keys":[1814.989999998943],"total_keys":1,"block":2,"trial":177,"stimulus":7,"robot":4,"valence":"lose","action":"no-go","sham":0,"trial_type":"pit-trial","trial_index":208,"time_elapsed":801770,"internal_node_id":"0.0-183.0","task_version":"battery-v0.2-trt","session":3},{"rune":"U","rune_set":"bacs1","hex":"#f73b6a7A","correct":-1,"choice":-1,"rt":-1,"accuracy":1,"outcome":"-10","keys":[],"total_keys":0,"block":2,"trial":178,"stimulus":4,"robot":4,"valence":"lose","action":"no-go","sham":1,"trial_type":"pit-trial","trial_index":209,"time_elapsed":805774,"internal_node_id":"0.0-184.0","task_version":"battery-v0.2-trt","session":3},{"rune":"S","rune_set":"bacs1","hex":"#f73b6a7A","correct":32,"choice":32,"rt":506.369999999064,"accuracy":1,"outcome":"-1","keys":[2007.5900000011316],"total_keys":1,"block":2,"trial":179,"stimulus":5,"robot":3,"valence":"lose","action":"go","sham":0,"trial_type":"pit-trial","trial_index":210,"time_elapsed":808985,"internal_node_id":"0.0-185.0","task_version":"battery-v0.2-trt","session":3},{"rune":"K","rune_set":"bacs1","hex":"#3366ff99","correct":-1,"choice":-1,"rt":-1,"accuracy":1,"outcome":"+10","keys":[],"total_keys":0,"block":2,"trial":180,"stimulus":6,"robot":2,"valence":"win","action":"no-go","sham":0,"trial_type":"pit-trial","trial_index":211,"time_elapsed":812975,"internal_node_id":"0.0-186.0","task_version":"battery-v0.2-trt","session":3},{"rune":"K","rune_set":"bacs1","hex":"#3366ff99","correct":-1,"choice":-1,"rt":-1,"accuracy":1,"outcome":"+10","keys":[],"total_keys":0,"block":2,"trial":181,"stimulus":6,"robot":2,"valence":"win","action":"no-go","sham":0,"trial_type":"pit-trial","trial_index":212,"time_elapsed":816978,"internal_node_id":"0.0-187.0","task_version":"battery-v0.2-trt","session":3},{"rune":"U","rune_set":"bacs1","hex":"#f73b6a7A","correct":-1,"choice":-1,"rt":-1,"accuracy":1,"outcome":"-1","keys":[],"total_keys":0,"block":2,"trial":182,"stimulus":4,"robot":4,"valence":"lose","action":"no-go","sham":0,"trial_type":"pit-trial","trial_index":213,"time_elapsed":820982,"internal_node_id":"0.0-188.0","task_version":"battery-v0.2-trt","session":3},{"rune":"S","rune_set":"bacs1","hex":"#f73b6a7A","correct":32,"choice":32,"rt":502.9049999975832,"accuracy":1,"outcome":"-1","keys":[2003.2050000008894],"total_keys":1,"block":2,"trial":183,"stimulus":5,"robot":3,"valence":"lose","action":"go","sham":0,"trial_type":"pit-trial","trial_index":214,"time_elapsed":824188,"internal_node_id":"0.0-189.0","task_version":"battery-v0.2-trt","session":3},{"rune":"D","rune_set":"bacs1","hex":"#f73b6a7A","correct":-1,"choice":-1,"rt":-1,"accuracy":1,"outcome":"-1","keys":[],"total_keys":0,"block":2,"trial":184,"stimulus":7,"robot":4,"valence":"lose","action":"no-go","sham":0,"trial_type":"pit-trial","trial_index":215,"time_elapsed":828191,"internal_node_id":"0.0-190.0","task_version":"battery-v0.2-trt","session":3},{"rune":"K","rune_set":"bacs1","hex":"#3366ff99","correct":-1,"choice":-1,"rt":-1,"accuracy":1,"outcome":"+10","keys":[],"total_keys":0,"block":2,"trial":185,"stimulus":6,"robot":2,"valence":"win","action":"no-go","sham":0,"trial_type":"pit-trial","trial_index":216,"time_elapsed":832194,"internal_node_id":"0.0-191.0","task_version":"battery-v0.2-trt","session":3},{"rune":"S","rune_set":"bacs1","hex":"#f73b6a7A","correct":32,"choice":32,"rt":450.33499999775086,"accuracy":1,"outcome":"-1","keys":[1950.5199999985052],"total_keys":1,"block":2,"trial":186,"stimulus":5,"robot":3,"valence":"lose","action":"go","sham":0,"trial_type":"pit-trial","trial_index":217,"time_elapsed":835348,"internal_node_id":"0.0-192.0","task_version":"battery-v0.2-trt","session":3},{"rune":"U","rune_set":"bacs1","hex":"#f73b6a7A","correct":-1,"choice":-1,"rt":-1,"accuracy":1,"outcome":"-1","keys":[],"total_keys":0,"block":2,"trial":187,"stimulus":4,"robot":4,"valence":"lose","action":"no-go","sham":0,"trial_type":"pit-trial","trial_index":218,"time_elapsed":839351,"internal_node_id":"0.0-193.0","task_version":"battery-v0.2-trt","session":3},{"rune":"D","rune_set":"bacs1","hex":"#f73b6a7A","correct":-1,"choice":-1,"rt":-1,"accuracy":1,"outcome":"-1","keys":[],"total_keys":0,"block":2,"trial":188,"stimulus":7,"robot":4,"valence":"lose","action":"no-go","sham":0,"trial_type":"pit-trial","trial_index":219,"time_elapsed":843353,"internal_node_id":"0.0-194.0","task_version":"battery-v0.2-trt","session":3},{"rune":"D","rune_set":"bacs1","hex":"#f73b6a7A","correct":-1,"choice":-1,"rt":-1,"accuracy":1,"outcome":"-1","keys":[],"total_keys":0,"block":2,"trial":189,"stimulus":7,"robot":4,"valence":"lose","action":"no-go","sham":0,"trial_type":"pit-trial","trial_index":220,"time_elapsed":847358,"internal_node_id":"0.0-195.0","task_version":"battery-v0.2-trt","session":3},{"rune":"U","rune_set":"bacs1","hex":"#f73b6a7A","correct":-1,"choice":-1,"rt":-1,"accuracy":1,"outcome":"-10","keys":[],"total_keys":0,"block":2,"trial":190,"stimulus":4,"robot":4,"valence":"lose","action":"no-go","sham":1,"trial_type":"pit-trial","trial_index":221,"time_elapsed":851361,"internal_node_id":"0.0-196.0","task_version":"battery-v0.2-trt","session":3},{"rune":"K","rune_set":"bacs1","hex":"#3366ff99","correct":-1,"choice":-1,"rt":-1,"accuracy":1,"outcome":"+10","keys":[],"total_keys":0,"block":2,"trial":191,"stimulus":6,"robot":2,"valence":"win","action":"no-go","sham":0,"trial_type":"pit-trial","trial_index":222,"time_elapsed":855364,"internal_node_id":"0.0-197.0","task_version":"battery-v0.2-trt","session":3},{"rune":"S","rune_set":"bacs1","hex":"#f73b6a7A","correct":32,"choice":32,"rt":487.7550000018673,"accuracy":1,"outcome":"-1","keys":[1987.9499999987893],"total_keys":1,"block":2,"trial":192,"stimulus":5,"robot":3,"valence":"lose","action":"go","sham":0,"trial_type":"pit-trial","trial_index":223,"time_elapsed":858554,"internal_node_id":"0.0-198.0","task_version":"battery-v0.2-trt","session":3},{"rune":"O","rune_set":"bacs1","hex":"#f73b6a7A","correct":-1,"choice":32,"rt":737.295000002603,"accuracy":0,"outcome":"-10","keys":[2237.5350000002654],"total_keys":1,"block":2,"trial":193,"stimulus":8,"robot":4,"valence":"lose","action":"no-go","sham":0,"trial_type":"pit-trial","trial_index":224,"time_elapsed":861995,"internal_node_id":"0.0-199.0","task_version":"battery-v0.2-trt","session":3},{"rune":"K","rune_set":"bacs1","hex":"#3366ff99","correct":-1,"choice":-1,"rt":-1,"accuracy":1,"outcome":"+10","keys":[],"total_keys":0,"block":2,"trial":194,"stimulus":6,"robot":2,"valence":"win","action":"no-go","sham":0,"trial_type":"pit-trial","trial_index":225,"time_elapsed":865998,"internal_node_id":"0.0-200.0","task_version":"battery-v0.2-trt","session":3},{"rune":"D","rune_set":"bacs1","hex":"#f73b6a7A","correct":-1,"choice":-1,"rt":-1,"accuracy":1,"outcome":"-1","keys":[],"total_keys":0,"block":2,"trial":195,"stimulus":7,"robot":4,"valence":"lose","action":"no-go","sham":0,"trial_type":"pit-trial","trial_index":226,"time_elapsed":870001,"internal_node_id":"0.0-201.0","task_version":"battery-v0.2-trt","session":3},{"rune":"S","rune_set":"bacs1","hex":"#f73b6a7A","correct":32,"choice":32,"rt":586.4099999997998,"accuracy":1,"outcome":"-1","keys":[2086.7099999996135],"total_keys":1,"block":2,"trial":196,"stimulus":5,"robot":3,"valence":"lose","action":"go","sham":0,"trial_type":"pit-trial","trial_index":227,"time_elapsed":873275,"internal_node_id":"0.0-202.0","task_version":"battery-v0.2-trt","session":3},{"rune":"O","rune_set":"bacs1","hex":"#f73b6a7A","correct":-1,"choice":-1,"rt":-1,"accuracy":1,"outcome":"-1","keys":[],"total_keys":0,"block":2,"trial":197,"stimulus":8,"robot":4,"valence":"lose","action":"no-go","sham":0,"trial_type":"pit-trial","trial_index":228,"time_elapsed":877279,"internal_node_id":"0.0-203.0","task_version":"battery-v0.2-trt","session":3},{"rune":"K","rune_set":"bacs1","hex":"#3366ff99","correct":-1,"choice":-1,"rt":-1,"accuracy":1,"outcome":"+10","keys":[],"total_keys":0,"block":2,"trial":198,"stimulus":6,"robot":2,"valence":"win","action":"no-go","sham":0,"trial_type":"pit-trial","trial_index":229,"time_elapsed":881282,"internal_node_id":"0.0-204.0","task_version":"battery-v0.2-trt","session":3},{"rune":"S","rune_set":"bacs1","hex":"#f73b6a7A","correct":32,"choice":32,"rt":450.4000000015367,"accuracy":1,"outcome":"-10","keys":[1950.6149999978952],"total_keys":1,"block":2,"trial":199,"stimulus":5,"robot":3,"valence":"lose","action":"go","sham":1,"trial_type":"pit-trial","trial_index":230,"time_elapsed":884435,"internal_node_id":"0.0-205.0","task_version":"battery-v0.2-trt","session":3},{"rune":"D","rune_set":"bacs1","hex":"#f73b6a7A","correct":-1,"choice":-1,"rt":-1,"accuracy":1,"outcome":"-1","keys":[],"total_keys":0,"block":2,"trial":200,"stimulus":7,"robot":4,"valence":"lose","action":"no-go","sham":0,"trial_type":"pit-trial","trial_index":231,"time_elapsed":888438,"internal_node_id":"0.0-206.0","task_version":"battery-v0.2-trt","session":3},{"rune":"I","rune_set":"bacs1","hex":"#3366ff99","correct":32,"choice":32,"rt":517.6500000016531,"accuracy":1,"outcome":"+10","keys":[2017.8750000012806],"total_keys":1,"block":2,"trial":201,"stimulus":9,"robot":1,"valence":"win","action":"go","sham":0,"trial_type":"pit-trial","trial_index":232,"time_elapsed":891658,"internal_node_id":"0.0-207.0","task_version":"battery-v0.2-trt","session":3},{"rune":"K","rune_set":"bacs1","hex":"#3366ff99","correct":-1,"choice":-1,"rt":-1,"accuracy":1,"outcome":"+10","keys":[],"total_keys":0,"block":2,"trial":202,"stimulus":6,"robot":2,"valence":"win","action":"no-go","sham":0,"trial_type":"pit-trial","trial_index":233,"time_elapsed":895662,"internal_node_id":"0.0-208.0","task_version":"battery-v0.2-trt","session":3},{"rune":"O","rune_set":"bacs1","hex":"#f73b6a7A","correct":-1,"choice":-1,"rt":-1,"accuracy":1,"outcome":"-1","keys":[],"total_keys":0,"block":2,"trial":203,"stimulus":8,"robot":4,"valence":"lose","action":"no-go","sham":0,"trial_type":"pit-trial","trial_index":234,"time_elapsed":899665,"internal_node_id":"0.0-209.0","task_version":"battery-v0.2-trt","session":3},{"rune":"G","rune_set":"bacs1","hex":"#f73b6a7A","correct":32,"choice":32,"rt":611.2799999973504,"accuracy":1,"outcome":"-1","keys":[2111.57000000088],"total_keys":1,"block":2,"trial":204,"stimulus":10,"robot":3,"valence":"lose","action":"go","sham":0,"trial_type":"pit-trial","trial_index":235,"time_elapsed":902979,"internal_node_id":"0.0-210.0","task_version":"battery-v0.2-trt","session":3},{"rune":"I","rune_set":"bacs1","hex":"#3366ff99","correct":32,"choice":32,"rt":471.41499999992084,"accuracy":1,"outcome":"+10","keys":[1972.97499999695],"total_keys":1,"block":2,"trial":205,"stimulus":9,"robot":1,"valence":"win","action":"go","sham":0,"trial_type":"pit-trial","trial_index":236,"time_elapsed":906155,"internal_node_id":"0.0-211.0","task_version":"battery-v0.2-trt","session":3},{"rune":"K","rune_set":"bacs1","hex":"#3366ff99","correct":-1,"choice":-1,"rt":-1,"accuracy":1,"outcome":"+10","keys":[],"total_keys":0,"block":2,"trial":206,"stimulus":6,"robot":2,"valence":"win","action":"no-go","sham":0,"trial_type":"pit-trial","trial_index":237,"time_elapsed":910158,"internal_node_id":"0.0-212.0","task_version":"battery-v0.2-trt","session":3},{"rune":"G","rune_set":"bacs1","hex":"#f73b6a7A","correct":32,"choice":32,"rt":524.0300000004936,"accuracy":1,"outcome":"-1","keys":[2024.6200000002282],"total_keys":1,"block":2,"trial":207,"stimulus":10,"robot":3,"valence":"lose","action":"go","sham":0,"trial_type":"pit-trial","trial_index":238,"time_elapsed":913387,"internal_node_id":"0.0-213.0","task_version":"battery-v0.2-trt","session":3},{"rune":"O","rune_set":"bacs1","hex":"#f73b6a7A","correct":-1,"choice":-1,"rt":-1,"accuracy":1,"outcome":"-10","keys":[],"total_keys":0,"block":2,"trial":208,"stimulus":8,"robot":4,"valence":"lose","action":"no-go","sham":1,"trial_type":"pit-trial","trial_index":239,"time_elapsed":917391,"internal_node_id":"0.0-214.0","task_version":"battery-v0.2-trt","session":3},{"rune":"N","rune_set":"bacs1","hex":"#3366ff99","correct":32,"choice":32,"rt":740.6000000010245,"accuracy":1,"outcome":"+10","keys":[2240.850000001956],"total_keys":1,"block":2,"trial":209,"stimulus":11,"robot":1,"valence":"win","action":"go","sham":0,"trial_type":"pit-trial","trial_index":240,"time_elapsed":920834,"internal_node_id":"0.0-215.0","task_version":"battery-v0.2-trt","session":3},{"rune":"G","rune_set":"bacs1","hex":"#f73b6a7A","correct":32,"choice":32,"rt":498.8999999986263,"accuracy":1,"outcome":"-1","keys":[1999.1399999998976],"total_keys":1,"block":2,"trial":210,"stimulus":10,"robot":3,"valence":"lose","action":"go","sham":0,"trial_type":"pit-trial","trial_index":241,"time_elapsed":924036,"internal_node_id":"0.0-216.0","task_version":"battery-v0.2-trt","session":3},{"rune":"O","rune_set":"bacs1","hex":"#f73b6a7A","correct":-1,"choice":-1,"rt":-1,"accuracy":1,"outcome":"-1","keys":[],"total_keys":0,"block":2,"trial":211,"stimulus":8,"robot":4,"valence":"lose","action":"no-go","sham":0,"trial_type":"pit-trial","trial_index":242,"time_elapsed":928040,"internal_node_id":"0.0-217.0","task_version":"battery-v0.2-trt","session":3},{"rune":"I","rune_set":"bacs1","hex":"#3366ff99","correct":32,"choice":32,"rt":323.48500000080094,"accuracy":1,"outcome":"+10","keys":[1823.7399999998743],"total_keys":1,"block":2,"trial":212,"stimulus":9,"robot":1,"valence":"win","action":"go","sham":0,"trial_type":"pit-trial","trial_index":243,"time_elapsed":931067,"internal_node_id":"0.0-218.0","task_version":"battery-v0.2-trt","session":3},{"rune":"I","rune_set":"bacs1","hex":"#3366ff99","correct":32,"choice":32,"rt":544.1299999984913,"accuracy":1,"outcome":"+10","keys":[2044.5700000019278],"total_keys":1,"block":2,"trial":213,"stimulus":9,"robot":1,"valence":"win","action":"go","sham":0,"trial_type":"pit-trial","trial_index":244,"time_elapsed":934307,"internal_node_id":"0.0-219.0","task_version":"battery-v0.2-trt","session":3},{"rune":"G","rune_set":"bacs1","hex":"#f73b6a7A","correct":32,"choice":32,"rt":496.54500000178814,"accuracy":1,"outcome":"-10","keys":[1996.7199999991572],"total_keys":1,"block":2,"trial":214,"stimulus":10,"robot":3,"valence":"lose","action":"go","sham":1,"trial_type":"pit-trial","trial_index":245,"time_elapsed":937507,"internal_node_id":"0.0-220.0","task_version":"battery-v0.2-trt","session":3},{"rune":"O","rune_set":"bacs1","hex":"#f73b6a7A","correct":-1,"choice":-1,"rt":-1,"accuracy":1,"outcome":"-1","keys":[],"total_keys":0,"block":2,"trial":215,"stimulus":8,"robot":4,"valence":"lose","action":"no-go","sham":0,"trial_type":"pit-trial","trial_index":246,"time_elapsed":941510,"internal_node_id":"0.0-221.0","task_version":"battery-v0.2-trt","session":3},{"rune":"N","rune_set":"bacs1","hex":"#3366ff99","correct":32,"choice":32,"rt":493.9750000012573,"accuracy":1,"outcome":"+10","keys":[1994.1700000017881],"total_keys":1,"block":2,"trial":216,"stimulus":11,"robot":1,"valence":"win","action":"go","sham":0,"trial_type":"pit-trial","trial_index":247,"time_elapsed":944707,"internal_node_id":"0.0-222.0","task_version":"battery-v0.2-trt","session":3},{"rune":"G","rune_set":"bacs1","hex":"#f73b6a7A","correct":32,"choice":32,"rt":376.11000000103377,"accuracy":1,"outcome":"-1","keys":[1876.4199999967823],"total_keys":1,"block":2,"trial":217,"stimulus":10,"robot":3,"valence":"lose","action":"go","sham":0,"trial_type":"pit-trial","trial_index":248,"time_elapsed":947786,"internal_node_id":"0.0-223.0","task_version":"battery-v0.2-trt","session":3},{"rune":"O","rune_set":"bacs1","hex":"#f73b6a7A","correct":-1,"choice":-1,"rt":-1,"accuracy":1,"outcome":"-1","keys":[],"total_keys":0,"block":2,"trial":218,"stimulus":8,"robot":4,"valence":"lose","action":"no-go","sham":0,"trial_type":"pit-trial","trial_index":249,"time_elapsed":951790,"internal_node_id":"0.0-224.0","task_version":"battery-v0.2-trt","session":3},{"rune":"N","rune_set":"bacs1","hex":"#3366ff99","correct":32,"choice":32,"rt":468.7400000002235,"accuracy":1,"outcome":"+1","keys":[1969.7100000012433],"total_keys":1,"block":2,"trial":219,"stimulus":11,"robot":1,"valence":"win","action":"go","sham":1,"trial_type":"pit-trial","trial_index":250,"time_elapsed":954962,"internal_node_id":"0.0-225.0","task_version":"battery-v0.2-trt","session":3},{"rune":"I","rune_set":"bacs1","hex":"#3366ff99","correct":32,"choice":32,"rt":369.17999999783933,"accuracy":1,"outcome":"+10","keys":[1869.4350000005215],"total_keys":1,"block":2,"trial":220,"stimulus":9,"robot":1,"valence":"win","action":"go","sham":0,"trial_type":"pit-trial","trial_index":251,"time_elapsed":958034,"internal_node_id":"0.0-226.0","task_version":"battery-v0.2-trt","session":3},{"rune":"O","rune_set":"bacs1","hex":"#f73b6a7A","correct":-1,"choice":-1,"rt":-1,"accuracy":1,"outcome":"-1","keys":[],"total_keys":0,"block":2,"trial":221,"stimulus":8,"robot":4,"valence":"lose","action":"no-go","sham":0,"trial_type":"pit-trial","trial_index":252,"time_elapsed":962037,"internal_node_id":"0.0-227.0","task_version":"battery-v0.2-trt","session":3},{"rune":"G","rune_set":"bacs1","hex":"#f73b6a7A","correct":32,"choice":32,"rt":334.5050000025658,"accuracy":1,"outcome":"-1","keys":[1834.7399999984773],"total_keys":1,"block":2,"trial":222,"stimulus":10,"robot":3,"valence":"lose","action":"go","sham":0,"trial_type":"pit-trial","trial_index":253,"time_elapsed":965074,"internal_node_id":"0.0-228.0","task_version":"battery-v0.2-trt","session":3},{"rune":"N","rune_set":"bacs1","hex":"#3366ff99","correct":32,"choice":32,"rt":408.91500000003725,"accuracy":1,"outcome":"+10","keys":[1909.2700000000186],"total_keys":1,"block":2,"trial":223,"stimulus":11,"robot":1,"valence":"win","action":"go","sham":0,"trial_type":"pit-trial","trial_index":254,"time_elapsed":968186,"internal_node_id":"0.0-229.0","task_version":"battery-v0.2-trt","session":3},{"rune":"I","rune_set":"bacs1","hex":"#3366ff99","correct":32,"choice":32,"rt":377.61500000127126,"accuracy":1,"outcome":"+10","keys":[1877.7999999984168],"total_keys":1,"block":2,"trial":224,"stimulus":9,"robot":1,"valence":"win","action":"go","sham":0,"trial_type":"pit-trial","trial_index":255,"time_elapsed":971265,"internal_node_id":"0.0-230.0","task_version":"battery-v0.2-trt","session":3},{"rune":"G","rune_set":"bacs1","hex":"#f73b6a7A","correct":32,"choice":32,"rt":489.4700000004377,"accuracy":1,"outcome":"-1","keys":[1989.5550000000512],"total_keys":1,"block":2,"trial":225,"stimulus":10,"robot":3,"valence":"lose","action":"go","sham":0,"trial_type":"pit-trial","trial_index":256,"time_elapsed":974457,"internal_node_id":"0.0-231.0","task_version":"battery-v0.2-trt","session":3},{"rune":"O","rune_set":"bacs1","hex":"#f73b6a7A","correct":-1,"choice":-1,"rt":-1,"accuracy":1,"outcome":"-1","keys":[],"total_keys":0,"block":2,"trial":226,"stimulus":8,"robot":4,"valence":"lose","action":"no-go","sham":0,"trial_type":"pit-trial","trial_index":257,"time_elapsed":978461,"internal_node_id":"0.0-232.0","task_version":"battery-v0.2-trt","session":3},{"rune":"I","rune_set":"bacs1","hex":"#3366ff99","correct":32,"choice":32,"rt":445.92000000190455,"accuracy":1,"outcome":"+10","keys":[1945.9999999998836],"total_keys":1,"block":2,"trial":227,"stimulus":9,"robot":1,"valence":"win","action":"go","sham":0,"trial_type":"pit-trial","trial_index":258,"time_elapsed":981610,"internal_node_id":"0.0-233.0","task_version":"battery-v0.2-trt","session":3},{"rune":"N","rune_set":"bacs1","hex":"#3366ff99","correct":32,"choice":32,"rt":412.74999999953434,"accuracy":1,"outcome":"+1","keys":[1916.4999999993015],"total_keys":1,"block":2,"trial":228,"stimulus":11,"robot":1,"valence":"win","action":"go","sham":1,"trial_type":"pit-trial","trial_index":259,"time_elapsed":984729,"internal_node_id":"0.0-234.0","task_version":"battery-v0.2-trt","session":3},{"rune":"O","rune_set":"bacs1","hex":"#f73b6a7A","correct":-1,"choice":-1,"rt":-1,"accuracy":1,"outcome":"-10","keys":[],"total_keys":0,"block":2,"trial":229,"stimulus":8,"robot":4,"valence":"lose","action":"no-go","sham":1,"trial_type":"pit-trial","trial_index":260,"time_elapsed":988733,"internal_node_id":"0.0-235.0","task_version":"battery-v0.2-trt","session":3},{"rune":"N","rune_set":"bacs1","hex":"#3366ff99","correct":32,"choice":32,"rt":478.080000000773,"accuracy":1,"outcome":"+1","keys":[1978.3200000019278],"total_keys":1,"block":2,"trial":230,"stimulus":11,"robot":1,"valence":"win","action":"go","sham":1,"trial_type":"pit-trial","trial_index":261,"time_elapsed":991914,"internal_node_id":"0.0-236.0","task_version":"battery-v0.2-trt","session":3},{"rune":"I","rune_set":"bacs1","hex":"#3366ff99","correct":32,"choice":32,"rt":448.5000000022119,"accuracy":1,"outcome":"+10","keys":[1948.6649999999208],"total_keys":1,"block":2,"trial":231,"stimulus":9,"robot":1,"valence":"win","action":"go","sham":0,"trial_type":"pit-trial","trial_index":262,"time_elapsed":995060,"internal_node_id":"0.0-237.0","task_version":"battery-v0.2-trt","session":3},{"rune":"G","rune_set":"bacs1","hex":"#f73b6a7A","correct":32,"choice":32,"rt":441.5149999987334,"accuracy":1,"outcome":"-1","keys":[1941.6249999995343],"total_keys":1,"block":2,"trial":232,"stimulus":10,"robot":3,"valence":"lose","action":"go","sham":0,"trial_type":"pit-trial","trial_index":263,"time_elapsed":998204,"internal_node_id":"0.0-238.0","task_version":"battery-v0.2-trt","session":3},{"rune":"O","rune_set":"bacs1","hex":"#f73b6a7A","correct":-1,"choice":-1,"rt":-1,"accuracy":1,"outcome":"-1","keys":[],"total_keys":0,"block":2,"trial":233,"stimulus":8,"robot":4,"valence":"lose","action":"no-go","sham":0,"trial_type":"pit-trial","trial_index":264,"time_elapsed":1002207,"internal_node_id":"0.0-239.0","task_version":"battery-v0.2-trt","session":3},{"rune":"G","rune_set":"bacs1","h