subject,session,block,runsheet,trial,exposure,stimulus,valence,action,robot,rune,rune_set,correct,choice,rt,accuracy,sham,outcome,total_keys
09byk3dg92is9b06rwaybmoh,3,1,3b,1,1,19,lose,go,gal,G,elianto,1,1,0.932,1,0.0,-1,1
09byk3dg92is9b06rwaybmoh,3,1,3b,2,1,16,win,no-go,ngw,L,elianto,0,0,,1,1.0,+1,0
09byk3dg92is9b06rwaybmoh,3,1,3b,3,1,15,win,go,gw,A,elianto,1,1,0.776,1,0.0,+10,1
09byk3dg92is9b06rwaybmoh,3,1,3b,4,1,17,win,no-go,ngw,U,elianto,0,0,,1,0.0,+10,0
09byk3dg92is9b06rwaybmoh,3,1,3b,5,2,17,win,no-go,ngw,U,elianto,0,1,0.763,0,0.0,+1,1
09byk3dg92is9b06rwaybmoh,3,1,3b,6,2,16,win,no-go,ngw,L,elianto,0,1,0.709,0,0.0,+1,1
09byk3dg92is9b06rwaybmoh,3,1,3b,7,2,15,win,go,gw,A,elianto,1,0,,0,0.0,+1,0
09byk3dg92is9b06rwaybmoh,3,1,3b,8,2,19,lose,go,gal,G,elianto,1,1,0.82,1,1.0,-10,1
09byk3dg92is9b06rwaybmoh,3,1,3b,9,3,15,win,go,gw,A,elianto,1,1,1.079,1,0.0,+10,1
09byk3dg92is9b06rwaybmoh,3,1,3b,10,3,16,win,no-go,ngw,L,elianto,0,1,0.929,0,1.0,+10,1
09byk3dg92is9b06rwaybmoh,3,1,3b,11,3,17,win,no-go,ngw,U,elianto,0,0,,1,1.0,+1,0
09byk3dg92is9b06rwaybmoh,3,1,3b,12,3,19,lose,go,gal,G,elianto,1,1,0.771,1,0.0,-1,1
09byk3dg92is9b06rwaybmoh,3,1,3b,13,4,19,lose,go,gal,G,elianto,1,0,,0,0.0,-10,0
09byk3dg92is9b06rwaybmoh,3,1,3b,14,4,16,win,no-go,ngw,L,elianto,0,1,0.599,0,0.0,+1,1
09byk3dg92is9b06rwaybmoh,3,1,3b,15,4,15,win,go,gw,A,elianto,1,1,0.907,1,0.0,+10,1
09byk3dg92is9b06rwaybmoh,3,1,3b,16,4,17,win,no-go,ngw,U,elianto,0,1,0.852,0,0.0,+1,1
09byk3dg92is9b06rwaybmoh,3,1,3b,17,5,16,win,no-go,ngw,L,elianto,0,1,1.043,0,0.0,+1,1
09byk3dg92is9b06rwaybmoh,3,1,3b,18,5,15,win,go,gw,A,elianto,1,1,0.865,1,0.0,+10,1
09byk3dg92is9b06rwaybmoh,3,1,3b,19,5,19,lose,go,gal,G,elianto,1,0,,0,0.0,-10,0
09byk3dg92is9b06rwaybmoh,3,1,3b,20,5,17,win,no-go,ngw,U,elianto,0,1,0.77,0,0.0,+1,1
09byk3dg92is9b06rwaybmoh,3,1,3b,21,6,19,lose,go,gal,G,elianto,1,1,0.892,1,0.0,-1,1
09byk3dg92is9b06rwaybmoh,3,1,3b,22,6,17,win,no-go,ngw,U,elianto,0,1,0.772,0,0.0,+1,1
09byk3dg92is9b06rwaybmoh,3,1,3b,23,6,16,win,no-go,ngw,L,elianto,0,0,,1,0.0,+10,0
09byk3dg92is9b06rwaybmoh,3,1,3b,24,6,15,win,go,gw,A,elianto,1,0,,0,0.0,+1,1
09byk3dg92is9b06rwaybmoh,3,1,3b,25,7,19,lose,go,gal,G,elianto,1,0,,0,0.0,-10,0
09byk3dg92is9b06rwaybmoh,3,1,3b,26,7,15,win,go,gw,A,elianto,1,1,0.928,1,0.0,+10,1
09byk3dg92is9b06rwaybmoh,3,1,3b,27,7,16,win,no-go,ngw,L,elianto,0,0,,1,0.0,+10,0
09byk3dg92is9b06rwaybmoh,3,1,3b,28,7,17,win,no-go,ngw,U,elianto,0,0,,1,0.0,+10,0
09byk3dg92is9b06rwaybmoh,3,1,3b,29,8,16,win,no-go,ngw,L,elianto,0,0,,1,0.0,+10,0
09byk3dg92is9b06rwaybmoh,3,1,3b,30,8,19,lose,go,gal,G,elianto,1,1,0.759,1,1.0,-10,1
09byk3dg92is9b06rwaybmoh,3,1,3b,31,8,15,win,go,gw,A,elianto,1,1,0.566,1,1.0,+1,1
09byk3dg92is9b06rwaybmoh,3,1,3b,32,8,17,win,no-go,ngw,U,elianto,0,0,,1,0.0,+10,0
09byk3dg92is9b06rwaybmoh,3,1,3b,33,1,21,lose,go,gal,S,elianto,1,1,0.975,1,0.0,-1,1
09byk3dg92is9b06rwaybmoh,3,1,3b,34,9,15,win,go,gw,A,elianto,1,1,0.893,1,0.0,+10,1
09byk3dg92is9b06rwaybmoh,3,1,3b,35,1,23,lose,no-go,ngal,P,elianto,0,0,,1,1.0,-10,0
09byk3dg92is9b06rwaybmoh,3,1,3b,36,9,17,win,no-go,ngw,U,elianto,0,0,,1,0.0,+10,0
09byk3dg92is9b06rwaybmoh,3,1,3b,37,2,23,lose,no-go,ngal,P,elianto,0,0,,1,1.0,-10,0
09byk3dg92is9b06rwaybmoh,3,1,3b,38,10,15,win,go,gw,A,elianto,1,1,1.156,1,0.0,+10,1
09byk3dg92is9b06rwaybmoh,3,1,3b,39,10,17,win,no-go,ngw,U,elianto,0,0,,1,1.0,+1,0
09byk3dg92is9b06rwaybmoh,3,1,3b,40,2,21,lose,go,gal,S,elianto,1,0,,0,0.0,-10,0
09byk3dg92is9b06rwaybmoh,3,1,3b,41,1,18,win,no-go,ngw,W,elianto,0,1,1.007,0,0.0,+1,1
09byk3dg92is9b06rwaybmoh,3,1,3b,42,3,23,lose,no-go,ngal,P,elianto,0,1,1.07,0,1.0,-1,1
09byk3dg92is9b06rwaybmoh,3,1,3b,43,11,15,win,go,gw,A,elianto,1,1,0.743,1,0.0,+10,1
09byk3dg92is9b06rwaybmoh,3,1,3b,44,3,21,lose,go,gal,S,elianto,1,1,0.943,1,1.0,-10,1
09byk3dg92is9b06rwaybmoh,3,1,3b,45,4,23,lose,no-go,ngal,P,elianto,0,1,0.82,0,1.0,-1,1
09byk3dg92is9b06rwaybmoh,3,1,3b,46,4,21,lose,go,gal,S,elianto,1,1,0.808,1,0.0,-1,1
09byk3dg92is9b06rwaybmoh,3,1,3b,47,2,18,win,no-go,ngw,W,elianto,0,1,0.925,0,1.0,+10,1
09byk3dg92is9b06rwaybmoh,3,1,3b,48,12,15,win,go,gw,A,elianto,1,1,0.89,1,0.0,+10,1
09byk3dg92is9b06rwaybmoh,3,1,3b,49,5,21,lose,go,gal,S,elianto,1,0,,0,0.0,-10,0
09byk3dg92is9b06rwaybmoh,3,1,3b,50,3,18,win,no-go,ngw,W,elianto,0,1,0.687,0,0.0,+1,1
09byk3dg92is9b06rwaybmoh,3,1,3b,51,1,22,lose,no-go,ngal,E,elianto,0,1,1.284,0,0.0,-10,1
09byk3dg92is9b06rwaybmoh,3,1,3b,52,5,23,lose,no-go,ngal,P,elianto,0,0,,1,0.0,-1,0
09byk3dg92is9b06rwaybmoh,3,1,3b,53,4,18,win,no-go,ngw,W,elianto,0,1,0.76,0,0.0,+1,1
09byk3dg92is9b06rwaybmoh,3,1,3b,54,6,21,lose,go,gal,S,elianto,1,0,,0,0.0,-10,0
09byk3dg92is9b06rwaybmoh,3,1,3b,55,2,22,lose,no-go,ngal,E,elianto,0,1,1.101,0,0.0,-10,1
09byk3dg92is9b06rwaybmoh,3,1,3b,56,6,23,lose,no-go,ngal,P,elianto,0,0,,1,1.0,-10,0
09byk3dg92is9b06rwaybmoh,3,1,3b,57,7,23,lose,no-go,ngal,P,elianto,0,1,0.636,0,0.0,-10,1
09byk3dg92is9b06rwaybmoh,3,1,3b,58,7,21,lose,go,gal,S,elianto,1,1,0.941,1,0.0,-1,1
09byk3dg92is9b06rwaybmoh,3,1,3b,59,5,18,win,no-go,ngw,W,elianto,0,0,,1,0.0,+10,0
09byk3dg92is9b06rwaybmoh,3,1,3b,60,3,22,lose,no-go,ngal,E,elianto,0,0,,1,0.0,-1,0
09byk3dg92is9b06rwaybmoh,3,1,3b,61,4,22,lose,no-go,ngal,E,elianto,0,0,,1,0.0,-1,0
09byk3dg92is9b06rwaybmoh,3,1,3b,62,6,18,win,no-go,ngw,W,elianto,0,1,0.895,0,0.0,+1,1
09byk3dg92is9b06rwaybmoh,3,1,3b,63,8,23,lose,no-go,ngal,P,elianto,0,0,,1,0.0,-1,0
09byk3dg92is9b06rwaybmoh,3,1,3b,64,8,21,lose,go,gal,S,elianto,1,0,,0,0.0,-10,0
09byk3dg92is9b06rwaybmoh,3,1,3b,65,7,18,win,no-go,ngw,W,elianto,0,1,0.443,0,0.0,+1,2
09byk3dg92is9b06rwaybmoh,3,1,3b,66,9,21,lose,go,gal,S,elianto,1,0,,0,0.0,-10,0
09byk3dg92is9b06rwaybmoh,3,1,3b,67,9,23,lose,no-go,ngal,P,elianto,0,1,0.845,0,0.0,-10,1
09byk3dg92is9b06rwaybmoh,3,1,3b,68,5,22,lose,no-go,ngal,E,elianto,0,0,,1,0.0,-1,0
09byk3dg92is9b06rwaybmoh,3,1,3b,69,6,22,lose,no-go,ngal,E,elianto,0,0,,1,0.0,-1,0
09byk3dg92is9b06rwaybmoh,3,1,3b,70,8,18,win,no-go,ngw,W,elianto,0,0,,1,0.0,+10,0
09byk3dg92is9b06rwaybmoh,3,1,3b,71,10,23,lose,no-go,ngal,P,elianto,0,0,,1,0.0,-1,0
09byk3dg92is9b06rwaybmoh,3,1,3b,72,10,21,lose,go,gal,S,elianto,1,1,1.255,1,0.0,-1,1
09byk3dg92is9b06rwaybmoh,3,1,3b,73,9,18,win,no-go,ngw,W,elianto,0,0,,1,0.0,+10,0
09byk3dg92is9b06rwaybmoh,3,1,3b,74,7,22,lose,no-go,ngal,E,elianto,0,0,,1,0.0,-1,0
09byk3dg92is9b06rwaybmoh,3,1,3b,75,11,21,lose,go,gal,S,elianto,1,0,,0,0.0,-10,0
09byk3dg92is9b06rwaybmoh,3,1,3b,76,1,24,lose,no-go,ngal,K,elianto,0,0,,1,0.0,-1,0
09byk3dg92is9b06rwaybmoh,3,1,3b,77,12,21,lose,go,gal,S,elianto,1,0,,0,0.0,-10,0
09byk3dg92is9b06rwaybmoh,3,1,3b,78,8,22,lose,no-go,ngal,E,elianto,0,1,1.065,0,0.0,-10,1
09byk3dg92is9b06rwaybmoh,3,1,3b,79,10,18,win,no-go,ngw,W,elianto,0,0,,1,0.0,+10,0
09byk3dg92is9b06rwaybmoh,3,1,3b,80,2,24,lose,no-go,ngal,K,elianto,0,0,,1,1.0,-10,0
09byk3dg92is9b06rwaybmoh,3,1,3b,81,11,18,win,no-go,ngw,W,elianto,0,1,0.89,0,1.0,+10,1
09byk3dg92is9b06rwaybmoh,3,1,3b,82,1,20,lose,go,gal,J,elianto,1,0,,0,0.0,-10,0
09byk3dg92is9b06rwaybmoh,3,1,3b,83,1,14,win,go,gw,D,elianto,1,1,0.996,1,1.0,+1,1
09byk3dg92is9b06rwaybmoh,3,1,3b,84,3,24,lose,no-go,ngal,K,elianto,0,0,,1,0.0,-1,0
09byk3dg92is9b06rwaybmoh,3,1,3b,85,4,24,lose,no-go,ngal,K,elianto,0,0,,1,0.0,-1,0
09byk3dg92is9b06rwaybmoh,3,1,3b,86,2,20,lose,go,gal,J,elianto,1,0,,0,1.0,-1,0
09byk3dg92is9b06rwaybmoh,3,1,3b,87,12,18,win,no-go,ngw,W,elianto,0,1,0.684,0,0.0,+1,1
09byk3dg92is9b06rwaybmoh,3,1,3b,88,2,14,win,go,gw,D,elianto,1,0,,0,0.0,+1,0
09byk3dg92is9b06rwaybmoh,3,1,3b,89,1,13,win,go,gw,V,elianto,1,0,,0,1.0,+10,0
09byk3dg92is9b06rwaybmoh,3,1,3b,90,5,24,lose,no-go,ngal,K,elianto,0,1,0.704,0,1.0,-1,1
09byk3dg92is9b06rwaybmoh,3,1,3b,91,3,20,lose,go,gal,J,elianto,1,1,0.967,1,0.0,-1,1
09byk3dg92is9b06rwaybmoh,3,1,3b,92,3,14,win,go,gw,D,elianto,1,0,,0,0.0,+1,0
09byk3dg92is9b06rwaybmoh,3,1,3b,93,6,24,lose,no-go,ngal,K,elianto,0,1,0.835,0,0.0,-10,1
09byk3dg92is9b06rwaybmoh,3,1,3b,94,4,20,lose,go,gal,J,elianto,1,0,,0,0.0,-10,0
09byk3dg92is9b06rwaybmoh,3,1,3b,95,4,14,win,go,gw,D,elianto,1,0,,0,0.0,+1,0
09byk3dg92is9b06rwaybmoh,3,1,3b,96,2,13,win,go,gw,V,elianto,1,1,0.542,1,0.0,+10,1
09byk3dg92is9b06rwaybmoh,3,1,3b,97,3,13,win,go,gw,V,elianto,1,1,0.9,1,0.0,+10,1
09byk3dg92is9b06rwaybmoh,3,1,3b,98,7,24,lose,no-go,ngal,K,elianto,0,1,0.967,0,1.0,-1,1
09byk3dg92is9b06rwaybmoh,3,1,3b,99,5,20,lose,go,gal,J,elianto,1,1,0.904,1,0.0,-1,1
09byk3dg92is9b06rwaybmoh,3,1,3b,100,5,14,win,go,gw,D,elianto,1,1,1.009,1,0.0,+10,1
09byk3dg92is9b06rwaybmoh,3,1,3b,101,6,14,win,go,gw,D,elianto,1,1,0.671,1,0.0,+10,1
09byk3dg92is9b06rwaybmoh,3,1,3b,102,6,20,lose,go,gal,J,elianto,1,1,0.846,1,1.0,-10,1
09byk3dg92is9b06rwaybmoh,3,1,3b,103,8,24,lose,no-go,ngal,K,elianto,0,1,0.738,0,0.0,-10,1
09byk3dg92is9b06rwaybmoh,3,1,3b,104,4,13,win,go,gw,V,elianto,1,1,0.993,1,0.0,+10,1
09byk3dg92is9b06rwaybmoh,3,1,3b,105,7,20,lose,go,gal,J,elianto,1,0,,0,0.0,-10,0
09byk3dg92is9b06rwaybmoh,3,1,3b,106,9,24,lose,no-go,ngal,K,elianto,0,1,0.722,0,0.0,-10,1
09byk3dg92is9b06rwaybmoh,3,1,3b,107,5,13,win,go,gw,V,elianto,1,1,1.251,1,0.0,+10,1
09byk3dg92is9b06rwaybmoh,3,1,3b,108,7,14,win,go,gw,D,elianto,1,1,0.941,1,0.0,+10,1
09byk3dg92is9b06rwaybmoh,3,1,3b,109,8,14,win,go,gw,D,elianto,1,1,0.593,1,0.0,+10,1
09byk3dg92is9b06rwaybmoh,3,1,3b,110,8,20,lose,go,gal,J,elianto,1,0,,0,1.0,-1,0
09byk3dg92is9b06rwaybmoh,3,1,3b,111,6,13,win,go,gw,V,elianto,1,1,0.704,1,0.0,+10,1
09byk3dg92is9b06rwaybmoh,3,1,3b,112,10,24,lose,no-go,ngal,K,elianto,0,0,,1,0.0,-1,0
09byk3dg92is9b06rwaybmoh,3,1,3b,113,9,20,lose,go,gal,J,elianto,1,0,,0,0.0,-10,0
09byk3dg92is9b06rwaybmoh,3,1,3b,114,7,13,win,go,gw,V,elianto,1,1,0.679,1,0.0,+10,1
09byk3dg92is9b06rwaybmoh,3,1,3b,115,9,14,win,go,gw,D,elianto,1,1,0.929,1,0.0,+10,1
09byk3dg92is9b06rwaybmoh,3,1,3b,116,11,24,lose,no-go,ngal,K,elianto,0,0,,1,0.0,-1,0
09byk3dg92is9b06rwaybmoh,3,1,3b,117,10,20,lose,go,gal,J,elianto,1,0,,0,0.0,-10,1
09byk3dg92is9b06rwaybmoh,3,1,3b,118,12,24,lose,no-go,ngal,K,elianto,0,1,0.973,0,1.0,-1,1
09byk3dg92is9b06rwaybmoh,3,1,3b,119,10,14,win,go,gw,D,elianto,1,1,0.887,1,0.0,+10,1
09byk3dg92is9b06rwaybmoh,3,1,3b,120,8,13,win,go,gw,V,elianto,1,1,0.613,1,1.0,+1,1
09byk3dg92is9b06rwaybmoh,3,2,3a,121,1,8,lose,go,gal,N,elianto,1,0,,0,0.0,-10,0
09byk3dg92is9b06rwaybmoh,3,2,3a,122,1,4,win,no-go,ngw,Q,elianto,0,0,,1,0.0,+10,0
09byk3dg92is9b06rwaybmoh,3,2,3a,123,1,1,win,go,gw,X,elianto,1,0,,0,1.0,+10,0
09byk3dg92is9b06rwaybmoh,3,2,3a,124,1,12,lose,no-go,ngal,F,elianto,0,0,,1,0.0,-1,0
09byk3dg92is9b06rwaybmoh,3,2,3a,125,2,12,lose,no-go,ngal,F,elianto,0,1,0.837,0,0.0,-10,1
09byk3dg92is9b06rwaybmoh,3,2,3a,126,2,1,win,go,gw,X,elianto,1,1,0.792,1,0.0,+10,1
09byk3dg92is9b06rwaybmoh,3,2,3a,127,2,8,lose,go,gal,N,elianto,1,0,,0,1.0,-1,1
09byk3dg92is9b06rwaybmoh,3,2,3a,128,2,4,win,no-go,ngw,Q,elianto,0,1,0.772,0,0.0,+1,1
09byk3dg92is9b06rwaybmoh,3,2,3a,129,3,8,lose,go,gal,N,elianto,1,0,,0,0.0,-10,0
09byk3dg92is9b06rwaybmoh,3,2,3a,130,3,1,win,go,gw,X,elianto,1,1,0.752,1,0.0,+10,1
09byk3dg92is9b06rwaybmoh,3,2,3a,131,3,4,win,no-go,ngw,Q,elianto,0,1,0.659,0,0.0,+1,1
09byk3dg92is9b06rwaybmoh,3,2,3a,132,3,12,lose,no-go,ngal,F,elianto,0,1,1.099,0,0.0,-10,1
09byk3dg92is9b06rwaybmoh,3,2,3a,133,4,1,win,go,gw,X,elianto,1,1,0.804,1,0.0,+10,1
09byk3dg92is9b06rwaybmoh,3,2,3a,134,4,4,win,no-go,ngw,Q,elianto,0,0,,1,0.0,+10,0
09byk3dg92is9b06rwaybmoh,3,2,3a,135,4,8,lose,go,gal,N,elianto,1,0,,0,0.0,-10,1
09byk3dg92is9b06rwaybmoh,3,2,3a,136,4,12,lose,no-go,ngal,F,elianto,0,0,,1,0.0,-1,1
09byk3dg92is9b06rwaybmoh,3,2,3a,137,5,1,win,go,gw,X,elianto,1,0,,0,0.0,+1,0
09byk3dg92is9b06rwaybmoh,3,2,3a,138,5,12,lose,no-go,ngal,F,elianto,0,1,1.143,0,0.0,-10,1
09byk3dg92is9b06rwaybmoh,3,2,3a,139,5,8,lose,go,gal,N,elianto,1,0,,0,0.0,-10,0
09byk3dg92is9b06rwaybmoh,3,2,3a,140,5,4,win,no-go,ngw,Q,elianto,0,1,0.633,0,0.0,+1,1
09byk3dg92is9b06rwaybmoh,3,2,3a,141,6,12,lose,no-go,ngal,F,elianto,0,0,,1,1.0,-10,0
09byk3dg92is9b06rwaybmoh,3,2,3a,142,6,4,win,no-go,ngw,Q,elianto,0,1,0.628,0,0.0,+1,1
09byk3dg92is9b06rwaybmoh,3,2,3a,143,6,1,win,go,gw,X,elianto,1,1,0.084,1,0.0,+10,1
09byk3dg92is9b06rwaybmoh,3,2,3a,144,6,8,lose,go,gal,N,elianto,1,0,,0,0.0,-10,0
09byk3dg92is9b06rwaybmoh,3,2,3a,145,7,12,lose,no-go,ngal,F,elianto,0,0,,1,0.0,-1,0
09byk3dg92is9b06rwaybmoh,3,2,3a,146,7,4,win,no-go,ngw,Q,elianto,0,0,,1,0.0,+10,0
09byk3dg92is9b06rwaybmoh,3,2,3a,147,7,8,lose,go,gal,N,elianto,1,0,,0,0.0,-10,0
09byk3dg92is9b06rwaybmoh,3,2,3a,148,7,1,win,go,gw,X,elianto,1,1,0.568,1,0.0,+10,1
09byk3dg92is9b06rwaybmoh,3,2,3a,149,8,1,win,go,gw,X,elianto,1,1,0.579,1,0.0,+10,1
09byk3dg92is9b06rwaybmoh,3,2,3a,150,8,4,win,no-go,ngw,Q,elianto,0,0,,1,0.0,+10,0
09byk3dg92is9b06rwaybmoh,3,2,3a,151,8,12,lose,no-go,ngal,F,elianto,0,0,,1,1.0,-10,0
09byk3dg92is9b06rwaybmoh,3,2,3a,152,8,8,lose,go,gal,N,elianto,1,1,0.87,1,0.0,-1,1
09byk3dg92is9b06rwaybmoh,3,2,3a,153,9,12,lose,no-go,ngal,F,elianto,0,0,,1,0.0,-1,0
09byk3dg92is9b06rwaybmoh,3,2,3a,154,1,11,lose,no-go,ngal,B,elianto,0,0,,1,0.0,-1,0
09byk3dg92is9b06rwaybmoh,3,2,3a,155,1,9,lose,go,gal,T,elianto,1,1,0.797,1,0.0,-1,1
09byk3dg92is9b06rwaybmoh,3,2,3a,156,9,8,lose,go,gal,N,elianto,1,0,,0,1.0,-1,0
09byk3dg92is9b06rwaybmoh,3,2,3a,157,10,12,lose,no-go,ngal,F,elianto,0,0,,1,0.0,-1,0
09byk3dg92is9b06rwaybmoh,3,2,3a,158,2,11,lose,no-go,ngal,B,elianto,0,0,,1,0.0,-1,0
09byk3dg92is9b06rwaybmoh,3,2,3a,159,2,9,lose,go,gal,T,elianto,1,0,,0,0.0,-10,0
09byk3dg92is9b06rwaybmoh,3,2,3a,160,10,8,lose,go,gal,N,elianto,1,0,,0,0.0,-10,0
09byk3dg92is9b06rwaybmoh,3,2,3a,161,11,12,lose,no-go,ngal,F,elianto,0,1,0.603,0,0.0,-10,1
09byk3dg92is9b06rwaybmoh,3,2,3a,162,3,11,lose,no-go,ngal,B,elianto,0,1,0.929,0,0.0,-10,1
09byk3dg92is9b06rwaybmoh,3,2,3a,163,1,6,win,no-go,ngw,C,elianto,0,0,,1,0.0,+10,0
09byk3dg92is9b06rwaybmoh,3,2,3a,164,3,9,lose,go,gal,T,elianto,1,0,,0,0.0,-10,1
09byk3dg92is9b06rwaybmoh,3,2,3a,165,4,11,lose,no-go,ngal,B,elianto,0,0,,1,1.0,-10,0
09byk3dg92is9b06rwaybmoh,3,2,3a,166,12,12,lose,no-go,ngal,F,elianto,0,0,,1,0.0,-1,0
09byk3dg92is9b06rwaybmoh,3,2,3a,167,2,6,win,no-go,ngw,C,elianto,0,1,0.82,0,0.0,+1,1
09byk3dg92is9b06rwaybmoh,3,2,3a,168,4,9,lose,go,gal,T,elianto,1,1,0.762,1,0.0,-1,1
09byk3dg92is9b06rwaybmoh,3,2,3a,169,3,6,win,no-go,ngw,C,elianto,0,1,0.728,0,1.0,+10,1
09byk3dg92is9b06rwaybmoh,3,2,3a,170,5,11,lose,no-go,ngal,B,elianto,0,0,,1,0.0,-1,0
09byk3dg92is9b06rwaybmoh,3,2,3a,171,5,9,lose,go,gal,T,elianto,1,0,,0,0.0,-10,1
09byk3dg92is9b06rwaybmoh,3,2,3a,172,1,2,win,go,gw,Z,elianto,1,0,,0,0.0,+1,0
09byk3dg92is9b06rwaybmoh,3,2,3a,173,4,6,win,no-go,ngw,C,elianto,0,1,0.886,0,1.0,+10,1
09byk3dg92is9b06rwaybmoh,3,2,3a,174,2,2,win,go,gw,Z,elianto,1,0,,0,0.0,+1,0
09byk3dg92is9b06rwaybmoh,3,2,3a,175,6,11,lose,no-go,ngal,B,elianto,0,1,0.847,0,0.0,-10,1
09byk3dg92is9b06rwaybmoh,3,2,3a,176,6,9,lose,go,gal,T,elianto,1,0,,0,0.0,-10,0
09byk3dg92is9b06rwaybmoh,3,2,3a,177,3,2,win,go,gw,Z,elianto,1,0,,0,0.0,+1,0
09byk3dg92is9b06rwaybmoh,3,2,3a,178,7,9,lose,go,gal,T,elianto,1,1,0.652,1,0.0,-1,1
09byk3dg92is9b06rwaybmoh,3,2,3a,179,5,6,win,no-go,ngw,C,elianto,0,1,0.722,0,0.0,+1,1
09byk3dg92is9b06rwaybmoh,3,2,3a,180,7,11,lose,no-go,ngal,B,elianto,0,1,0.727,0,0.0,-10,1
09byk3dg92is9b06rwaybmoh,3,2,3a,181,6,6,win,no-go,ngw,C,elianto,0,1,0.658,0,0.0,+1,1
09byk3dg92is9b06rwaybmoh,3,2,3a,182,8,11,lose,no-go,ngal,B,elianto,0,0,,1,0.0,-1,0
09byk3dg92is9b06rwaybmoh,3,2,3a,183,8,9,lose,go,gal,T,elianto,1,0,,0,0.0,-10,0
09byk3dg92is9b06rwaybmoh,3,2,3a,184,4,2,win,go,gw,Z,elianto,1,1,1.227,1,0.0,+10,1
09byk3dg92is9b06rwaybmoh,3,2,3a,185,9,9,lose,go,gal,T,elianto,1,1,1.177,1,1.0,-10,1
09byk3dg92is9b06rwaybmoh,3,2,3a,186,9,11,lose,no-go,ngal,B,elianto,0,0,,1,0.0,-1,0
09byk3dg92is9b06rwaybmoh,3,2,3a,187,5,2,win,go,gw,Z,elianto,1,0,,0,0.0,+1,1
09byk3dg92is9b06rwaybmoh,3,2,3a,188,7,6,win,no-go,ngw,C,elianto,0,0,,1,0.0,+10,0
09byk3dg92is9b06rwaybmoh,3,2,3a,189,10,11,lose,no-go,ngal,B,elianto,0,0,,1,0.0,-1,0
09byk3dg92is9b06rwaybmoh,3,2,3a,190,6,2,win,go,gw,Z,elianto,1,1,1.27,1,1.0,+1,1
09byk3dg92is9b06rwaybmoh,3,2,3a,191,8,6,win,no-go,ngw,C,elianto,0,0,,1,0.0,+10,0
09byk3dg92is9b06rwaybmoh,3,2,3a,192,10,9,lose,go,gal,T,elianto,1,0,,0,0.0,-10,0
09byk3dg92is9b06rwaybmoh,3,2,3a,193,1,3,win,go,gw,H,elianto,1,1,0.627,1,0.0,+10,1
09byk3dg92is9b06rwaybmoh,3,2,3a,194,7,2,win,go,gw,Z,elianto,1,0,,0,0.0,+1,0
09byk3dg92is9b06rwaybmoh,3,2,3a,195,11,9,lose,go,gal,T,elianto,1,1,0.308,1,0.0,-1,1
09byk3dg92is9b06rwaybmoh,3,2,3a,196,9,6,win,no-go,ngw,C,elianto,0,0,,1,0.0,+10,0
09byk3dg92is9b06rwaybmoh,3,2,3a,197,12,9,lose,go,gal,T,elianto,1,1,0.849,1,0.0,-1,1
09byk3dg92is9b06rwaybmoh,3,2,3a,198,10,6,win,no-go,ngw,C,elianto,0,1,1.116,0,0.0,+1,1
09byk3dg92is9b06rwaybmoh,3,2,3a,199,2,3,win,go,gw,H,elianto,1,1,0.811,1,1.0,+1,1
09byk3dg92is9b06rwaybmoh,3,2,3a,200,8,2,win,go,gw,Z,elianto,1,0,,0,0.0,+1,0
09byk3dg92is9b06rwaybmoh,3,2,3a,201,11,6,win,no-go,ngw,C,elianto,0,1,0.998,0,1.0,+10,1
09byk3dg92is9b06rwaybmoh,3,2,3a,202,1,5,win,no-go,ngw,Y,elianto,0,1,1.044,0,1.0,+10,1
09byk3dg92is9b06rwaybmoh,3,2,3a,203,9,2,win,go,gw,Z,elianto,1,1,0.657,1,0.0,+10,1
09byk3dg92is9b06rwaybmoh,3,2,3a,204,3,3,win,go,gw,H,elianto,1,1,0.541,1,0.0,+10,1
09byk3dg92is9b06rwaybmoh,3,2,3a,205,12,6,win,no-go,ngw,C,elianto,0,1,0.46,0,1.0,+10,1
09byk3dg92is9b06rwaybmoh,3,2,3a,206,4,3,win,go,gw,H,elianto,1,1,0.41,1,0.0,+10,1
09byk3dg92is9b06rwaybmoh,3,2,3a,207,2,5,win,no-go,ngw,Y,elianto,0,0,,1,0.0,+10,0
09byk3dg92is9b06rwaybmoh,3,2,3a,208,10,2,win,go,gw,Z,elianto,1,1,0.805,1,0.0,+10,1
09byk3dg92is9b06rwaybmoh,3,2,3a,209,1,10,lose,no-go,ngal,M,elianto,0,0,,1,1.0,-10,0
09byk3dg92is9b06rwaybmoh,3,2,3a,210,5,3,win,go,gw,H,elianto,1,1,0.803,1,0.0,+10,1
09byk3dg92is9b06rwaybmoh,3,2,3a,211,1,7,lose,go,gal,R,elianto,1,0,,0,0.0,-10,0
09byk3dg92is9b06rwaybmoh,3,2,3a,212,3,5,win,no-go,ngw,Y,elianto,0,1,0.918,0,0.0,+1,1
09byk3dg92is9b06rwaybmoh,3,2,3a,213,2,10,lose,no-go,ngal,M,elianto,0,0,,1,1.0,-10,1
09byk3dg92is9b06rwaybmoh,3,2,3a,214,6,3,win,go,gw,H,elianto,1,1,0.355,1,0.0,+10,1
09byk3dg92is9b06rwaybmoh,3,2,3a,215,4,5,win,no-go,ngw,Y,elianto,0,1,0.68,0,1.0,+10,1
09byk3dg92is9b06rwaybmoh,3,2,3a,216,2,7,lose,go,gal,R,elianto,1,1,0.902,1,0.0,-1,1
09byk3dg92is9b06rwaybmoh,3,2,3a,217,3,7,lose,go,gal,R,elianto,1,1,0.571,1,1.0,-10,1
09byk3dg92is9b06rwaybmoh,3,2,3a,218,7,3,win,go,gw,H,elianto,1,1,0.666,1,0.0,+10,1
09byk3dg92is9b06rwaybmoh,3,2,3a,219,5,5,win,no-go,ngw,Y,elianto,0,0,,1,0.0,+10,0
09byk3dg92is9b06rwaybmoh,3,2,3a,220,3,10,lose,no-go,ngal,M,elianto,0,0,,1,0.0,-1,1
09byk3dg92is9b06rwaybmoh,3,2,3a,221,4,10,lose,no-go,ngal,M,elianto,0,1,0.869,0,1.0,-1,1
09byk3dg92is9b06rwaybmoh,3,2,3a,222,8,3,win,go,gw,H,elianto,1,1,0.855,1,0.0,+10,1
09byk3dg92is9b06rwaybmoh,3,2,3a,223,6,5,win,no-go,ngw,Y,elianto,0,1,0.742,0,0.0,+1,1
09byk3dg92is9b06rwaybmoh,3,2,3a,224,4,7,lose,go,gal,R,elianto,1,0,,0,0.0,-10,0
09byk3dg92is9b06rwaybmoh,3,2,3a,225,5,7,lose,go,gal,R,elianto,1,0,,0,0.0,-10,0
09byk3dg92is9b06rwaybmoh,3,2,3a,226,7,5,win,no-go,ngw,Y,elianto,0,1,0.473,0,0.0,+1,1
09byk3dg92is9b06rwaybmoh,3,2,3a,227,5,10,lose,no-go,ngal,M,elianto,0,0,,1,0.0,-1,0
09byk3dg92is9b06rwaybmoh,3,2,3a,228,9,3,win,go,gw,H,elianto,1,0,,0,0.0,+1,0
09byk3dg92is9b06rwaybmoh,3,2,3a,229,10,3,win,go,gw,H,elianto,1,1,0.611,1,0.0,+10,1
09byk3dg92is9b06rwaybmoh,3,2,3a,230,6,7,lose,go,gal,R,elianto,1,0,,0,0.0,-10,0
09byk3dg92is9b06rwaybmoh,3,2,3a,231,8,5,win,no-go,ngw,Y,elianto,0,1,0.153,0,0.0,+1,1
09byk3dg92is9b06rwaybmoh,3,2,3a,232,6,10,lose,no-go,ngal,M,elianto,0,0,,1,1.0,-10,0
09byk3dg92is9b06rwaybmoh,3,2,3a,233,7,7,lose,go,gal,R,elianto,1,1,0.812,1,0.0,-1,1
09byk3dg92is9b06rwaybmoh,3,2,3a,234,9,5,win,no-go,ngw,Y,elianto,0,1,0.322,0,0.0,+1,1
09byk3dg92is9b06rwaybmoh,3,2,3a,235,11,3,win,go,gw,H,elianto,1,1,0.627,1,0.0,+10,1
09byk3dg92is9b06rwaybmoh,3,2,3a,236,7,10,lose,no-go,ngal,M,elianto,0,0,,1,0.0,-1,0
09byk3dg92is9b06rwaybmoh,3,2,3a,237,10,5,win,no-go,ngw,Y,elianto,0,0,,1,0.0,+10,0
09byk3dg92is9b06rwaybmoh,3,2,3a,238,8,10,lose,no-go,ngal,M,elianto,0,0,,1,0.0,-1,0
09byk3dg92is9b06rwaybmoh,3,2,3a,239,8,7,lose,go,gal,R,elianto,1,1,1.214,1,0.0,-1,1
09byk3dg92is9b06rwaybmoh,3,2,3a,240,12,3,win,go,gw,H,elianto,1,1,0.621,1,0.0,+10,1
1ahxnduc1fr21fpplm87wkk6,3,1,3a,1,1,8,lose,go,gal,R,elianto,1,1,0.659,1,0.0,-1,1
1ahxnduc1fr21fpplm87wkk6,3,1,3a,2,1,1,win,go,gw,H,elianto,1,1,1.024,1,0.0,+10,1
1ahxnduc1fr21fpplm87wkk6,3,1,3a,3,1,12,lose,no-go,ngal,Y,elianto,0,0,,1,0.0,-1,0
1ahxnduc1fr21fpplm87wkk6,3,1,3a,4,1,4,win,no-go,ngw,M,elianto,0,1,0.995,0,1.0,+10,1
1ahxnduc1fr21fpplm87wkk6,3,1,3a,5,2,8,lose,go,gal,R,elianto,1,0,,0,0.0,-10,0
1ahxnduc1fr21fpplm87wkk6,3,1,3a,6,2,1,win,go,gw,H,elianto,1,1,0.906,1,0.0,+10,1
1ahxnduc1fr21fpplm87wkk6,3,1,3a,7,2,4,win,no-go,ngw,M,elianto,0,1,0.899,0,0.0,+1,1
1ahxnduc1fr21fpplm87wkk6,3,1,3a,8,2,12,lose,no-go,ngal,Y,elianto,0,0,,1,0.0,-1,0
1ahxnduc1fr21fpplm87wkk6,3,1,3a,9,3,1,win,go,gw,H,elianto,1,1,0.818,1,0.0,+10,1
1ahxnduc1fr21fpplm87wkk6,3,1,3a,10,3,8,lose,go,gal,R,elianto,1,1,1.181,1,0.0,-1,1
1ahxnduc1fr21fpplm87wkk6,3,1,3a,11,3,4,win,no-go,ngw,M,elianto,0,0,,1,0.0,+10,0
1ahxnduc1fr21fpplm87wkk6,3,1,3a,12,3,12,lose,no-go,ngal,Y,elianto,0,0,,1,0.0,-1,0
1ahxnduc1fr21fpplm87wkk6,3,1,3a,13,4,8,lose,go,gal,R,elianto,1,1,0.809,1,1.0,-10,1
1ahxnduc1fr21fpplm87wkk6,3,1,3a,14,4,1,win,go,gw,H,elianto,1,1,1.02,1,0.0,+10,1
1ahxnduc1fr21fpplm87wkk6,3,1,3a,15,4,12,lose,no-go,ngal,Y,elianto,0,0,,1,0.0,-1,0
1ahxnduc1fr21fpplm87wkk6,3,1,3a,16,4,4,win,no-go,ngw,M,elianto,0,0,,1,0.0,+10,0
1ahxnduc1fr21fpplm87wkk6,3,1,3a,17,5,1,win,go,gw,H,elianto,1,1,1.172,1,0.0,+10,1
1ahxnduc1fr21fpplm87wkk6,3,1,3a,18,5,4,win,no-go,ngw,M,elianto,0,1,1.148,0,0.0,+1,1
1ahxnduc1fr21fpplm87wkk6,3,1,3a,19,5,8,lose,go,gal,R,elianto,1,1,1.163,1,0.0,-1,1
1ahxnduc1fr21fpplm87wkk6,3,1,3a,20,5,12,lose,no-go,ngal,Y,elianto,0,0,,1,1.0,-10,0
1ahxnduc1fr21fpplm87wkk6,3,1,3a,21,6,1,win,go,gw,H,elianto,1,1,0.991,1,0.0,+10,1
1ahxnduc1fr21fpplm87wkk6,3,1,3a,22,6,12,lose,no-go,ngal,Y,elianto,0,1,1.051,0,1.0,-1,1
1ahxnduc1fr21fpplm87wkk6,3,1,3a,23,6,8,lose,go,gal,R,elianto,1,1,0.515,1,0.0,-1,1
1ahxnduc1fr21fpplm87wkk6,3,1,3a,24,6,4,win,no-go,ngw,M,elianto,0,1,0.97,0,0.0,+1,1
1ahxnduc1fr21fpplm87wkk6,3,1,3a,25,7,12,lose,no-go,ngal,Y,elianto,0,1,0.891,0,0.0,-10,1
1ahxnduc1fr21fpplm87wkk6,3,1,3a,26,7,8,lose,go,gal,R,elianto,1,1,0.685,1,0.0,-1,1
1ahxnduc1fr21fpplm87wkk6,3,1,3a,27,7,4,win,no-go,ngw,M,elianto,0,0,,1,0.0,+10,0
1ahxnduc1fr21fpplm87wkk6,3,1,3a,28,7,1,win,go,gw,H,elianto,1,0,,0,1.0,+10,0
1ahxnduc1fr21fpplm87wkk6,3,1,3a,29,8,1,win,go,gw,H,elianto,1,1,0.725,1,0.0,+10,1
1ahxnduc1fr21fpplm87wkk6,3,1,3a,30,8,8,lose,go,gal,R,elianto,1,1,0.966,1,0.0,-1,1
1ahxnduc1fr21fpplm87wkk6,3,1,3a,31,8,4,win,no-go,ngw,M,elianto,0,0,,1,0.0,+10,0
1ahxnduc1fr21fpplm87wkk6,3,1,3a,32,8,12,lose,no-go,ngal,Y,elianto,0,1,0.89,0,0.0,-10,1
1ahxnduc1fr21fpplm87wkk6,3,1,3a,33,1,9,lose,go,gal,Z,elianto,1,1,0.922,1,1.0,-10,1
1ahxnduc1fr21fpplm87wkk6,3,1,3a,34,9,12,lose,no-go,ngal,Y,elianto,0,0,,1,0.0,-1,0
1ahxnduc1fr21fpplm87wkk6,3,1,3a,35,9,8,lose,go,gal,R,elianto,1,1,0.832,1,0.0,-1,1
1ahxnduc1fr21fpplm87wkk6,3,1,3a,36,1,11,lose,no-go,ngal,C,elianto,0,1,0.998,0,0.0,-10,1
1ahxnduc1fr21fpplm87wkk6,3,1,3a,37,10,12,lose,no-go,ngal,Y,elianto,0,1,1.268,0,0.0,-10,1
1ahxnduc1fr21fpplm87wkk6,3,1,3a,38,10,8,lose,go,gal,R,elianto,1,1,0.599,1,0.0,-1,1
1ahxnduc1fr21fpplm87wkk6,3,1,3a,39,2,9,lose,go,gal,Z,elianto,1,0,,0,0.0,-10,0
1ahxnduc1fr21fpplm87wkk6,3,1,3a,40,2,11,lose,no-go,ngal,C,elianto,0,0,,1,1.0,-10,0
1ahxnduc1fr21fpplm87wkk6,3,1,3a,41,1,6,win,no-go,ngw,B,elianto,0,1,0.784,0,0.0,+1,1
1ahxnduc1fr21fpplm87wkk6,3,1,3a,42,11,12,lose,no-go,ngal,Y,elianto,0,0,,1,0.0,-1,0
1ahxnduc1fr21fpplm87wkk6,3,1,3a,43,3,9,lose,go,gal,Z,elianto,1,0,,0,0.0,-10,0
1ahxnduc1fr21fpplm87wkk6,3,1,3a,44,3,11,lose,no-go,ngal,C,elianto,0,0,,1,1.0,-10,0
1ahxnduc1fr21fpplm87wkk6,3,1,3a,45,4,9,lose,go,gal,Z,elianto,1,1,0.75,1,0.0,-1,1
1ahxnduc1fr21fpplm87wkk6,3,1,3a,46,4,11,lose,no-go,ngal,C,elianto,0,1,0.549,0,0.0,-10,1
1ahxnduc1fr21fpplm87wkk6,3,1,3a,47,2,6,win,no-go,ngw,B,elianto,0,0,,1,0.0,+10,0
1ahxnduc1fr21fpplm87wkk6,3,1,3a,48,12,12,lose,no-go,ngal,Y,elianto,0,0,,1,0.0,-1,0
1ahxnduc1fr21fpplm87wkk6,3,1,3a,49,5,11,lose,no-go,ngal,C,elianto,0,1,0.904,0,1.0,-1,1
1ahxnduc1fr21fpplm87wkk6,3,1,3a,50,5,9,lose,go,gal,Z,elianto,1,1,1.006,1,0.0,-1,1
1ahxnduc1fr21fpplm87wkk6,3,1,3a,51,1,2,win,go,gw,T,elianto,1,0,,0,1.0,+10,0
1ahxnduc1fr21fpplm87wkk6,3,1,3a,52,3,6,win,no-go,ngw,B,elianto,0,0,,1,0.0,+10,0
1ahxnduc1fr21fpplm87wkk6,3,1,3a,53,6,9,lose,go,gal,Z,elianto,1,1,1.071,1,1.0,-10,1
1ahxnduc1fr21fpplm87wkk6,3,1,3a,54,6,11,lose,no-go,ngal,C,elianto,0,1,0.987,0,0.0,-10,1
1ahxnduc1fr21fpplm87wkk6,3,1,3a,55,4,6,win,no-go,ngw,B,elianto,0,0,,1,0.0,+10,0
1ahxnduc1fr21fpplm87wkk6,3,1,3a,56,2,2,win,go,gw,T,elianto,1,0,,0,0.0,+1,0
1ahxnduc1fr21fpplm87wkk6,3,1,3a,57,3,2,win,go,gw,T,elianto,1,1,0.563,1,1.0,+1,2
1ahxnduc1fr21fpplm87wkk6,3,1,3a,58,7,9,lose,go,gal,Z,elianto,1,1,1.079,1,0.0,-1,1
1ahxnduc1fr21fpplm87wkk6,3,1,3a,59,5,6,win,no-go,ngw,B,elianto,0,1,0.984,0,1.0,+10,1
1ahxnduc1fr21fpplm87wkk6,3,1,3a,60,7,11,lose,no-go,ngal,C,elianto,0,1,0.948,0,0.0,-10,1
1ahxnduc1fr21fpplm87wkk6,3,1,3a,61,8,9,lose,go,gal,Z,elianto,1,1,0.918,1,0.0,-1,1
1ahxnduc1fr21fpplm87wkk6,3,1,3a,62,8,11,lose,no-go,ngal,C,elianto,0,0,,1,1.0,-10,0
1ahxnduc1fr21fpplm87wkk6,3,1,3a,63,4,2,win,go,gw,T,elianto,1,1,1.066,1,0.0,+10,1
1ahxnduc1fr21fpplm87wkk6,3,1,3a,64,6,6,win,no-go,ngw,B,elianto,0,0,,1,1.0,+1,0
1ahxnduc1fr21fpplm87wkk6,3,1,3a,65,9,11,lose,no-go,ngal,C,elianto,0,1,0.882,0,0.0,-10,1
1ahxnduc1fr21fpplm87wkk6,3,1,3a,66,5,2,win,go,gw,T,elianto,1,0,,0,0.0,+1,0
1ahxnduc1fr21fpplm87wkk6,3,1,3a,67,9,9,lose,go,gal,Z,elianto,1,1,0.946,1,0.0,-1,1
1ahxnduc1fr21fpplm87wkk6,3,1,3a,68,7,6,win,no-go,ngw,B,elianto,0,1,0.955,0,1.0,+10,1
1ahxnduc1fr21fpplm87wkk6,3,1,3a,69,10,9,lose,go,gal,Z,elianto,1,1,0.836,1,0.0,-1,1
1ahxnduc1fr21fpplm87wkk6,3,1,3a,70,8,6,win,no-go,ngw,B,elianto,0,1,0.853,0,0.0,+1,1
1ahxnduc1fr21fpplm87wkk6,3,1,3a,71,10,11,lose,no-go,ngal,C,elianto,0,1,0.787,0,0.0,-10,1
1ahxnduc1fr21fpplm87wkk6,3,1,3a,72,6,2,win,go,gw,T,elianto,1,1,0.974,1,1.0,+1,1
1ahxnduc1fr21fpplm87wkk6,3,1,3a,73,11,9,lose,go,gal,Z,elianto,1,1,0.747,1,0.0,-1,1
1ahxnduc1fr21fpplm87wkk6,3,1,3a,74,9,6,win,no-go,ngw,B,elianto,0,0,,1,0.0,+10,0
1ahxnduc1fr21fpplm87wkk6,3,1,3a,75,1,3,win,go,gw,X,elianto,1,1,1.158,1,0.0,+10,1
1ahxnduc1fr21fpplm87wkk6,3,1,3a,76,7,2,win,go,gw,T,elianto,1,1,0.935,1,0.0,+10,1
1ahxnduc1fr21fpplm87wkk6,3,1,3a,77,10,6,win,no-go,ngw,B,elianto,0,1,0.778,0,1.0,+10,1
1ahxnduc1fr21fpplm87wkk6,3,1,3a,78,12,9,lose,go,gal,Z,elianto,1,1,0.781,1,1.0,-10,1
1ahxnduc1fr21fpplm87wkk6,3,1,3a,79,8,2,win,go,gw,T,elianto,1,1,0.756,1,0.0,+10,1
1ahxnduc1fr21fpplm87wkk6,3,1,3a,80,2,3,win,go,gw,X,elianto,1,1,0.63,1,0.0,+10,1
1ahxnduc1fr21fpplm87wkk6,3,1,3a,81,9,2,win,go,gw,T,elianto,1,1,0.772,1,0.0,+10,1
1ahxnduc1fr21fpplm87wkk6,3,1,3a,82,3,3,win,go,gw,X,elianto,1,1,0.714,1,0.0,+10,1
1ahxnduc1fr21fpplm87wkk6,3,1,3a,83,1,5,win,no-go,ngw,F,elianto,0,0,,1,0.0,+10,0
1ahxnduc1fr21fpplm87wkk6,3,1,3a,84,11,6,win,no-go,ngw,B,elianto,0,1,0.769,0,1.0,+10,1
1ahxnduc1fr21fpplm87wkk6,3,1,3a,85,2,5,win,no-go,ngw,F,elianto,0,1,1.143,0,0.0,+1,1
1ahxnduc1fr21fpplm87wkk6,3,1,3a,86,4,3,win,go,gw,X,elianto,1,1,0.689,1,0.0,+10,1
1ahxnduc1fr21fpplm87wkk6,3,1,3a,87,10,2,win,go,gw,T,elianto,1,1,0.777,1,0.0,+10,1
1ahxnduc1fr21fpplm87wkk6,3,1,3a,88,12,6,win,no-go,ngw,B,elianto,0,1,0.798,0,0.0,+1,1
1ahxnduc1fr21fpplm87wkk6,3,1,3a,89,1,7,lose,go,gal,N,elianto,1,0,,0,0.0,-10,0
1ahxnduc1fr21fpplm87wkk6,3,1,3a,90,5,3,win,go,gw,X,elianto,1,1,0.657,1,0.0,+10,1
1ahxnduc1fr21fpplm87wkk6,3,1,3a,91,3,5,win,no-go,ngw,F,elianto,0,0,,1,1.0,+1,0
1ahxnduc1fr21fpplm87wkk6,3,1,3a,92,1,10,lose,no-go,ngal,Q,elianto,0,0,,1,1.0,-10,0
1ahxnduc1fr21fpplm87wkk6,3,1,3a,93,6,3,win,go,gw,X,elianto,1,1,0.987,1,0.0,+10,1
1ahxnduc1fr21fpplm87wkk6,3,1,3a,94,4,5,win,no-go,ngw,F,elianto,0,1,0.957,0,1.0,+10,1
1ahxnduc1fr21fpplm87wkk6,3,1,3a,95,2,7,lose,go,gal,N,elianto,1,1,1.028,1,1.0,-10,1
1ahxnduc1fr21fpplm87wkk6,3,1,3a,96,2,10,lose,no-go,ngal,Q,elianto,0,1,0.814,0,0.0,-10,1
1ahxnduc1fr21fpplm87wkk6,3,1,3a,97,7,3,win,go,gw,X,elianto,1,1,0.951,1,0.0,+10,1
1ahxnduc1fr21fpplm87wkk6,3,1,3a,98,5,5,win,no-go,ngw,F,elianto,0,1,1.15,0,0.0,+1,1
1ahxnduc1fr21fpplm87wkk6,3,1,3a,99,3,10,lose,no-go,ngal,Q,elianto,0,0,,1,0.0,-1,0
1ahxnduc1fr21fpplm87wkk6,3,1,3a,100,3,7,lose,go,gal,N,elianto,1,0,,0,1.0,-1,0
1ahxnduc1fr21fpplm87wkk6,3,1,3a,101,8,3,win,go,gw,X,elianto,1,1,0.624,1,0.0,+10,1
1ahxnduc1fr21fpplm87wkk6,3,1,3a,102,6,5,win,no-go,ngw,F,elianto,0,0,,1,1.0,+1,0
1ahxnduc1fr21fpplm87wkk6,3,1,3a,103,4,10,lose,no-go,ngal,Q,elianto,0,0,,1,0.0,-1,0
1ahxnduc1fr21fpplm87wkk6,3,1,3a,104,4,7,lose,go,gal,N,elianto,1,0,,0,0.0,-10,0
1ahxnduc1fr21fpplm87wkk6,3,1,3a,105,5,10,lose,no-go,ngal,Q,elianto,0,0,,1,1.0,-10,0
1ahxnduc1fr21fpplm87wkk6,3,1,3a,106,5,7,lose,go,gal,N,elianto,1,0,,0,0.0,-10,0
1ahxnduc1fr21fpplm87wkk6,3,1,3a,107,9,3,win,go,gw,X,elianto,1,1,0.52,1,0.0,+10,1
1ahxnduc1fr21fpplm87wkk6,3,1,3a,108,7,5,win,no-go,ngw,F,elianto,0,0,,1,0.0,+10,0
1ahxnduc1fr21fpplm87wkk6,3,1,3a,109,6,7,lose,go,gal,N,elianto,1,0,,0,1.0,-1,0
1ahxnduc1fr21fpplm87wkk6,3,1,3a,110,8,5,win,no-go,ngw,F,elianto,0,0,,1,1.0,+1,0
1ahxnduc1fr21fpplm87wkk6,3,1,3a,111,10,3,win,go,gw,X,elianto,1,1,0.61,1,0.0,+10,1
1ahxnduc1fr21fpplm87wkk6,3,1,3a,112,6,10,lose,no-go,ngal,Q,elianto,0,0,,1,1.0,-10,0
1ahxnduc1fr21fpplm87wkk6,3,1,3a,113,11,3,win,go,gw,X,elianto,1,1,0.551,1,0.0,+10,1
1ahxnduc1fr21fpplm87wkk6,3,1,3a,114,7,7,lose,go,gal,N,elianto,1,0,,0,0.0,-10,0
1ahxnduc1fr21fpplm87wkk6,3,1,3a,115,7,10,lose,no-go,ngal,Q,elianto,0,1,0.615,0,0.0,-10,1
1ahxnduc1fr21fpplm87wkk6,3,1,3a,116,9,5,win,no-go,ngw,F,elianto,0,0,,1,0.0,+10,0
1ahxnduc1fr21fpplm87wkk6,3,1,3a,117,8,10,lose,no-go,ngal,Q,elianto,0,0,,1,0.0,-1,0
1ahxnduc1fr21fpplm87wkk6,3,1,3a,118,12,3,win,go,gw,X,elianto,1,1,0.543,1,0.0,+10,1
1ahxnduc1fr21fpplm87wkk6,3,1,3a,119,10,5,win,no-go,ngw,F,elianto,0,0,,1,1.0,+1,0
1ahxnduc1fr21fpplm87wkk6,3,1,3a,120,8,7,lose,go,gal,N,elianto,1,0,,0,0.0,-10,0
1ahxnduc1fr21fpplm87wkk6,3,2,3b,121,1,15,win,go,gw,D,elianto,1,0,,0,0.0,+1,0
1ahxnduc1fr21fpplm87wkk6,3,2,3b,122,1,16,win,no-go,ngw,J,elianto,0,0,,1,0.0,+10,0
1ahxnduc1fr21fpplm87wkk6,3,2,3b,123,1,17,win,no-go,ngw,V,elianto,0,1,0.931,0,0.0,+1,1
1ahxnduc1fr21fpplm87wkk6,3,2,3b,124,1,19,lose,go,gal,K,elianto,1,0,,0,0.0,-10,0
1ahxnduc1fr21fpplm87wkk6,3,2,3b,125,2,17,win,no-go,ngw,V,elianto,0,0,,1,0.0,+10,0
1ahxnduc1fr21fpplm87wkk6,3,2,3b,126,2,19,lose,go,gal,K,elianto,1,1,0.798,1,0.0,-1,1
1ahxnduc1fr21fpplm87wkk6,3,2,3b,127,2,15,win,go,gw,D,elianto,1,0,,0,0.0,+1,0
1ahxnduc1fr21fpplm87wkk6,3,2,3b,128,2,16,win,no-go,ngw,J,elianto,0,1,0.516,0,0.0,+1,1
1ahxnduc1fr21fpplm87wkk6,3,2,3b,129,3,15,win,go,gw,D,elianto,1,0,,0,0.0,+1,0
1ahxnduc1fr21fpplm87wkk6,3,2,3b,130,3,16,win,no-go,ngw,J,elianto,0,1,0.53,0,0.0,+1,1
1ahxnduc1fr21fpplm87wkk6,3,2,3b,131,3,19,lose,go,gal,K,elianto,1,0,,0,0.0,-10,0
1ahxnduc1fr21fpplm87wkk6,3,2,3b,132,3,17,win,no-go,ngw,V,elianto,0,0,,1,0.0,+10,0
1ahxnduc1fr21fpplm87wkk6,3,2,3b,133,4,16,win,no-go,ngw,J,elianto,0,1,0.923,0,0.0,+1,1
1ahxnduc1fr21fpplm87wkk6,3,2,3b,134,4,19,lose,go,gal,K,elianto,1,1,0.991,1,0.0,-1,1
1ahxnduc1fr21fpplm87wkk6,3,2,3b,135,4,15,win,go,gw,D,elianto,1,1,0.824,1,0.0,+10,1
1ahxnduc1fr21fpplm87wkk6,3,2,3b,136,4,17,win,no-go,ngw,V,elianto,0,0,,1,0.0,+10,0
1ahxnduc1fr21fpplm87wkk6,3,2,3b,137,5,16,win,no-go,ngw,J,elianto,0,1,0.773,0,1.0,+10,1
1ahxnduc1fr21fpplm87wkk6,3,2,3b,138,5,15,win,go,gw,D,elianto,1,1,0.502,1,0.0,+10,1
1ahxnduc1fr21fpplm87wkk6,3,2,3b,139,5,19,lose,go,gal,K,elianto,1,0,,0,0.0,-10,0
1ahxnduc1fr21fpplm87wkk6,3,2,3b,140,5,17,win,no-go,ngw,V,elianto,0,0,,1,1.0,+1,0
1ahxnduc1fr21fpplm87wkk6,3,2,3b,141,6,15,win,go,gw,D,elianto,1,1,0.802,1,0.0,+10,1
1ahxnduc1fr21fpplm87wkk6,3,2,3b,142,6,19,lose,go,gal,K,elianto,1,1,0.692,1,0.0,-1,1
1ahxnduc1fr21fpplm87wkk6,3,2,3b,143,6,17,win,no-go,ngw,V,elianto,0,0,,1,0.0,+10,0
1ahxnduc1fr21fpplm87wkk6,3,2,3b,144,6,16,win,no-go,ngw,J,elianto,0,1,0.902,0,0.0,+1,1
1ahxnduc1fr21fpplm87wkk6,3,2,3b,145,7,15,win,go,gw,D,elianto,1,1,0.62,1,0.0,+10,1
1ahxnduc1fr21fpplm87wkk6,3,2,3b,146,7,19,lose,go,gal,K,elianto,1,1,0.872,1,1.0,-10,1
1ahxnduc1fr21fpplm87wkk6,3,2,3b,147,7,17,win,no-go,ngw,V,elianto,0,0,,1,0.0,+10,0
1ahxnduc1fr21fpplm87wkk6,3,2,3b,148,7,16,win,no-go,ngw,J,elianto,0,1,0.882,0,1.0,+10,1
1ahxnduc1fr21fpplm87wkk6,3,2,3b,149,8,15,win,go,gw,D,elianto,1,1,0.567,1,0.0,+10,1
1ahxnduc1fr21fpplm87wkk6,3,2,3b,150,8,16,win,no-go,ngw,J,elianto,0,1,0.738,0,0.0,+1,1
1ahxnduc1fr21fpplm87wkk6,3,2,3b,151,8,19,lose,go,gal,K,elianto,1,1,0.821,1,0.0,-1,1
1ahxnduc1fr21fpplm87wkk6,3,2,3b,152,8,17,win,no-go,ngw,V,elianto,0,0,,1,1.0,+1,0
1ahxnduc1fr21fpplm87wkk6,3,2,3b,153,1,21,lose,go,gal,W,elianto,1,1,0.802,1,0.0,-1,1
1ahxnduc1fr21fpplm87wkk6,3,2,3b,154,1,23,lose,no-go,ngal,E,elianto,0,0,,1,0.0,-1,0
1ahxnduc1fr21fpplm87wkk6,3,2,3b,155,9,17,win,no-go,ngw,V,elianto,0,0,,1,1.0,+1,0
1ahxnduc1fr21fpplm87wkk6,3,2,3b,156,9,15,win,go,gw,D,elianto,1,1,0.501,1,0.0,+10,1
1ahxnduc1fr21fpplm87wkk6,3,2,3b,157,10,15,win,go,gw,D,elianto,1,1,0.598,1,0.0,+10,1
1ahxnduc1fr21fpplm87wkk6,3,2,3b,158,10,17,win,no-go,ngw,V,elianto,0,0,,1,0.0,+10,0
1ahxnduc1fr21fpplm87wkk6,3,2,3b,159,2,21,lose,go,gal,W,elianto,1,1,1.051,1,0.0,-1,1
1ahxnduc1fr21fpplm87wkk6,3,2,3b,160,2,23,lose,no-go,ngal,E,elianto,0,0,,1,0.0,-1,0
1ahxnduc1fr21fpplm87wkk6,3,2,3b,161,3,23,lose,no-go,ngal,E,elianto,0,1,1.078,0,0.0,-10,1
1ahxnduc1fr21fpplm87wkk6,3,2,3b,162,11,15,win,go,gw,D,elianto,1,1,0.599,1,0.0,+10,1
1ahxnduc1fr21fpplm87wkk6,3,2,3b,163,3,21,lose,go,gal,W,elianto,1,1,1.009,1,0.0,-1,1
1ahxnduc1fr21fpplm87wkk6,3,2,3b,164,1,18,win,no-go,ngw,S,elianto,0,1,0.901,0,0.0,+1,1
1ahxnduc1fr21fpplm87wkk6,3,2,3b,165,4,21,lose,go,gal,W,elianto,1,0,,0,0.0,-10,0
1ahxnduc1fr21fpplm87wkk6,3,2,3b,166,2,18,win,no-go,ngw,S,elianto,0,0,,1,0.0,+10,0
1ahxnduc1fr21fpplm87wkk6,3,2,3b,167,12,15,win,go,gw,D,elianto,1,1,0.591,1,0.0,+10,1
1ahxnduc1fr21fpplm87wkk6,3,2,3b,168,4,23,lose,no-go,ngal,E,elianto,0,0,,1,0.0,-1,0
1ahxnduc1fr21fpplm87wkk6,3,2,3b,169,5,23,lose,no-go,ngal,E,elianto,0,0,,1,0.0,-1,0
1ahxnduc1fr21fpplm87wkk6,3,2,3b,170,3,18,win,no-go,ngw,S,elianto,0,0,,1,0.0,+10,0
1ahxnduc1fr21fpplm87wkk6,3,2,3b,171,5,21,lose,go,gal,W,elianto,1,1,0.695,1,0.0,-1,1
1ahxnduc1fr21fpplm87wkk6,3,2,3b,172,1,22,lose,no-go,ngal,P,elianto,0,0,,1,1.0,-10,0
1ahxnduc1fr21fpplm87wkk6,3,2,3b,173,4,18,win,no-go,ngw,S,elianto,0,0,,1,1.0,+1,0
1ahxnduc1fr21fpplm87wkk6,3,2,3b,174,6,23,lose,no-go,ngal,E,elianto,0,1,0.924,0,0.0,-10,1
1ahxnduc1fr21fpplm87wkk6,3,2,3b,175,2,22,lose,no-go,ngal,P,elianto,0,0,,1,0.0,-1,0
1ahxnduc1fr21fpplm87wkk6,3,2,3b,176,6,21,lose,go,gal,W,elianto,1,0,,0,0.0,-10,0
1ahxnduc1fr21fpplm87wkk6,3,2,3b,177,7,21,lose,go,gal,W,elianto,1,1,0.53,1,1.0,-10,1
1ahxnduc1fr21fpplm87wkk6,3,2,3b,178,3,22,lose,no-go,ngal,P,elianto,0,0,,1,0.0,-1,0
1ahxnduc1fr21fpplm87wkk6,3,2,3b,179,7,23,lose,no-go,ngal,E,elianto,0,0,,1,0.0,-1,0
1ahxnduc1fr21fpplm87wkk6,3,2,3b,180,5,18,win,no-go,ngw,S,elianto,0,0,,1,0.0,+10,0
1ahxnduc1fr21fpplm87wkk6,3,2,3b,181,6,18,win,no-go,ngw,S,elianto,0,0,,1,0.0,+10,0
1ahxnduc1fr21fpplm87wkk6,3,2,3b,182,4,22,lose,no-go,ngal,P,elianto,0,0,,1,0.0,-1,0
1ahxnduc1fr21fpplm87wkk6,3,2,3b,183,8,23,lose,no-go,ngal,E,elianto,0,0,,1,0.0,-1,1
1ahxnduc1fr21fpplm87wkk6,3,2,3b,184,8,21,lose,go,gal,W,elianto,1,1,0.576,1,0.0,-1,1
1ahxnduc1fr21fpplm87wkk6,3,2,3b,185,7,18,win,no-go,ngw,S,elianto,0,0,,1,0.0,+10,0
1ahxnduc1fr21fpplm87wkk6,3,2,3b,186,5,22,lose,no-go,ngal,P,elianto,0,0,,1,0.0,-1,0
1ahxnduc1fr21fpplm87wkk6,3,2,3b,187,9,21,lose,go,gal,W,elianto,1,1,0.78,1,0.0,-1,1
1ahxnduc1fr21fpplm87wkk6,3,2,3b,188,9,23,lose,no-go,ngal,E,elianto,0,0,,1,0.0,-1,0
1ahxnduc1fr21fpplm87wkk6,3,2,3b,189,8,18,win,no-go,ngw,S,elianto,0,0,,1,0.0,+10,0
1ahxnduc1fr21fpplm87wkk6,3,2,3b,190,10,21,lose,go,gal,W,elianto,1,0,,0,0.0,-10,0
1ahxnduc1fr21fpplm87wkk6,3,2,3b,191,6,22,lose,no-go,ngal,P,elianto,0,0,,1,1.0,-10,0
1ahxnduc1fr21fpplm87wkk6,3,2,3b,192,10,23,lose,no-go,ngal,E,elianto,0,0,,1,0.0,-1,0
1ahxnduc1fr21fpplm87wkk6,3,2,3b,193,9,18,win,no-go,ngw,S,elianto,0,0,,1,0.0,+10,0
1ahxnduc1fr21fpplm87wkk6,3,2,3b,194,1,24,lose,no-go,ngal,G,elianto,0,0,,1,0.0,-1,0
1ahxnduc1fr21fpplm87wkk6,3,2,3b,195,7,22,lose,no-go,ngal,P,elianto,0,0,,1,0.0,-1,0
1ahxnduc1fr21fpplm87wkk6,3,2,3b,196,11,21,lose,go,gal,W,elianto,1,1,0.534,1,0.0,-1,1
1ahxnduc1fr21fpplm87wkk6,3,2,3b,197,8,22,lose,no-go,ngal,P,elianto,0,0,,1,1.0,-10,0
1ahxnduc1fr21fpplm87wkk6,3,2,3b,198,10,18,win,no-go,ngw,S,elianto,0,0,,1,0.0,+10,0
1ahxnduc1fr21fpplm87wkk6,3,2,3b,199,2,24,lose,no-go,ngal,G,elianto,0,0,,1,0.0,-1,0
1ahxnduc1fr21fpplm87wkk6,3,2,3b,200,12,21,lose,go,gal,W,elianto,1,0,,0,0.0,-10,0
1ahxnduc1fr21fpplm87wkk6,3,2,3b,201,3,24,lose,no-go,ngal,G,elianto,0,0,,1,0.0,-1,0
1ahxnduc1fr21fpplm87wkk6,3,2,3b,202,11,18,win,no-go,ngw,S,elianto,0,0,,1,0.0,+10,0
1ahxnduc1fr21fpplm87wkk6,3,2,3b,203,1,14,win,go,gw,A,elianto,1,0,,0,1.0,+10,0
1ahxnduc1fr21fpplm87wkk6,3,2,3b,204,1,20,lose,go,gal,L,elianto,1,1,0.865,1,0.0,-1,1
1ahxnduc1fr21fpplm87wkk6,3,2,3b,205,2,20,lose,go,gal,L,elianto,1,1,0.616,1,0.0,-1,1
1ahxnduc1fr21fpplm87wkk6,3,2,3b,206,2,14,win,go,gw,A,elianto,1,0,,0,0.0,+1,0
1ahxnduc1fr21fpplm87wkk6,3,2,3b,207,12,18,win,no-go,ngw,S,elianto,0,0,,1,0.0,+10,0
1ahxnduc1fr21fpplm87wkk6,3,2,3b,208,4,24,lose,no-go,ngal,G,elianto,0,0,,1,0.0,-1,0
1ahxnduc1fr21fpplm87wkk6,3,2,3b,209,5,24,lose,no-go,ngal,G,elianto,0,0,,1,1.0,-10,0
1ahxnduc1fr21fpplm87wkk6,3,2,3b,210,3,20,lose,go,gal,L,elianto,1,0,,0,0.0,-10,1
1ahxnduc1fr21fpplm87wkk6,3,2,3b,211,3,14,win,go,gw,A,elianto,1,1,0.652,1,0.0,+10,1
1ahxnduc1fr21fpplm87wkk6,3,2,3b,212,1,13,win,go,gw,U,elianto,1,1,0.856,1,0.0,+10,1
1ahxnduc1fr21fpplm87wkk6,3,2,3b,213,4,20,lose,go,gal,L,elianto,1,1,1.124,1,1.0,-10,1
1ahxnduc1fr21fpplm87wkk6,3,2,3b,214,4,14,win,go,gw,A,elianto,1,0,,0,1.0,+10,0
1ahxnduc1fr21fpplm87wkk6,3,2,3b,215,6,24,lose,no-go,ngal,G,elianto,0,0,,1,0.0,-1,0
1ahxnduc1fr21fpplm87wkk6,3,2,3b,216,2,13,win,go,gw,U,elianto,1,1,0.82,1,0.0,+10,1
1ahxnduc1fr21fpplm87wkk6,3,2,3b,217,7,24,lose,no-go,ngal,G,elianto,0,1,1.154,0,0.0,-10,1
1ahxnduc1fr21fpplm87wkk6,3,2,3b,218,5,14,win,go,gw,A,elianto,1,1,0.539,1,0.0,+10,1
1ahxnduc1fr21fpplm87wkk6,3,2,3b,219,3,13,win,go,gw,U,elianto,1,1,1.196,1,0.0,+10,1
1ahxnduc1fr21fpplm87wkk6,3,2,3b,220,5,20,lose,go,gal,L,elianto,1,0,,0,0.0,-10,0
1ahxnduc1fr21fpplm87wkk6,3,2,3b,221,6,20,lose,go,gal,L,elianto,1,1,0.457,1,0.0,-1,1
1ahxnduc1fr21fpplm87wkk6,3,2,3b,222,4,13,win,go,gw,U,elianto,1,1,0.766,1,0.0,+10,1
1ahxnduc1fr21fpplm87wkk6,3,2,3b,223,8,24,lose,no-go,ngal,G,elianto,0,0,,1,0.0,-1,0
1ahxnduc1fr21fpplm87wkk6,3,2,3b,224,6,14,win,go,gw,A,elianto,1,1,0.584,1,1.0,+1,1
1ahxnduc1fr21fpplm87wkk6,3,2,3b,225,5,13,win,go,gw,U,elianto,1,1,0.64,1,0.0,+10,1
1ahxnduc1fr21fpplm87wkk6,3,2,3b,226,7,14,win,go,gw,A,elianto,1,1,0.662,1,0.0,+10,1
1ahxnduc1fr21fpplm87wkk6,3,2,3b,227,9,24,lose,no-go,ngal,G,elianto,0,0,,1,0.0,-1,0
1ahxnduc1fr21fpplm87wkk6,3,2,3b,228,7,20,lose,go,gal,L,elianto,1,1,0.957,1,0.0,-1,1
1ahxnduc1fr21fpplm87wkk6,3,2,3b,229,8,20,lose,go,gal,L,elianto,1,1,0.563,1,0.0,-1,1
1ahxnduc1fr21fpplm87wkk6,3,2,3b,230,6,13,win,go,gw,U,elianto,1,1,0.795,1,0.0,+10,1
1ahxnduc1fr21fpplm87wkk6,3,2,3b,231,10,24,lose,no-go,ngal,G,elianto,0,0,,1,1.0,-10,0
1ahxnduc1fr21fpplm87wkk6,3,2,3b,232,8,14,win,go,gw,A,elianto,1,1,0.631,1,1.0,+1,1
1ahxnduc1fr21fpplm87wkk6,3,2,3b,233,7,13,win,go,gw,U,elianto,1,1,0.573,1,1.0,+1,1
1ahxnduc1fr21fpplm87wkk6,3,2,3b,234,9,20,lose,go,gal,L,elianto,1,1,0.567,1,0.0,-1,1
1ahxnduc1fr21fpplm87wkk6,3,2,3b,235,11,24,lose,no-go,ngal,G,elianto,0,0,,1,0.0,-1,0
1ahxnduc1fr21fpplm87wkk6,3,2,3b,236,9,14,win,go,gw,A,elianto,1,1,0.732,1,1.0,+1,1
1ahxnduc1fr21fpplm87wkk6,3,2,3b,237,12,24,lose,no-go,ngal,G,elianto,0,0,,1,0.0,-1,0
1ahxnduc1fr21fpplm87wkk6,3,2,3b,238,10,14,win,go,gw,A,elianto,1,0,,0,0.0,+1,0
1ahxnduc1fr21fpplm87wkk6,3,2,3b,239,10,20,lose,go,gal,L,elianto,1,1,0.889,1,0.0,-1,1
1ahxnduc1fr21fpplm87wkk6,3,2,3b,240,8,13,win,go,gw,U,elianto,1,1,0.833,1,0.0,+10,1
1nn8ci654pmi5ny2ho1q3dxi,3,1,3a,1,1,4,win,no-go,ngw,B,bacs1,0,1,0.487,0,0.0,+1,1
1nn8ci654pmi5ny2ho1q3dxi,3,1,3a,2,1,12,lose,no-go,ngal,J,bacs1,0,1,0.52,0,1.0,-1,1
1nn8ci654pmi5ny2ho1q3dxi,3,1,3a,3,1,1,win,go,gw,R,bacs1,1,1,0.584,1,1.0,+1,1
1nn8ci654pmi5ny2ho1q3dxi,3,1,3a,4,1,8,lose,go,gal,Z,bacs1,1,1,0.642,1,0.0,-1,1
1nn8ci654pmi5ny2ho1q3dxi,3,1,3a,5,2,8,lose,go,gal,Z,bacs1,1,1,0.489,1,0.0,-1,1
1nn8ci654pmi5ny2ho1q3dxi,3,1,3a,6,2,12,lose,no-go,ngal,J,bacs1,0,1,0.506,0,0.0,-10,1
1nn8ci654pmi5ny2ho1q3dxi,3,1,3a,7,2,1,win,go,gw,R,bacs1,1,0,,0,0.0,+1,0
1nn8ci654pmi5ny2ho1q3dxi,3,1,3a,8,2,4,win,no-go,ngw,B,bacs1,0,1,0.974,0,0.0,+1,1
1nn8ci654pmi5ny2ho1q3dxi,3,1,3a,9,3,1,win,go,gw,R,bacs1,1,1,0.835,1,0.0,+10,1
1nn8ci654pmi5ny2ho1q3dxi,3,1,3a,10,3,4,win,no-go,ngw,B,bacs1,0,0,,1,0.0,+10,0
1nn8ci654pmi5ny2ho1q3dxi,3,1,3a,11,3,12,lose,no-go,ngal,J,bacs1,0,1,0.77,0,0.0,-10,1
1nn8ci654pmi5ny2ho1q3dxi,3,1,3a,12,3,8,lose,go,gal,Z,bacs1,1,1,0.438,1,0.0,-1,1
1nn8ci654pmi5ny2ho1q3dxi,3,1,3a,13,4,8,lose,go,gal,Z,bacs1,1,1,0.49,1,0.0,-1,1
1nn8ci654pmi5ny2ho1q3dxi,3,1,3a,14,4,1,win,go,gw,R,bacs1,1,1,0.439,1,0.0,+10,1
1nn8ci654pmi5ny2ho1q3dxi,3,1,3a,15,4,12,lose,no-go,ngal,J,bacs1,0,0,,1,0.0,-1,0
1nn8ci654pmi5ny2ho1q3dxi,3,1,3a,16,4,4,win,no-go,ngw,B,bacs1,0,0,,1,0.0,+10,0
1nn8ci654pmi5ny2ho1q3dxi,3,1,3a,17,5,12,lose,no-go,ngal,J,bacs1,0,0,,1,0.0,-1,0
1nn8ci654pmi5ny2ho1q3dxi,3,1,3a,18,5,4,win,no-go,ngw,B,bacs1,0,0,,1,0.0,+10,0
1nn8ci654pmi5ny2ho1q3dxi,3,1,3a,19,5,8,lose,go,gal,Z,bacs1,1,1,0.424,1,1.0,-10,1
1nn8ci654pmi5ny2ho1q3dxi,3,1,3a,20,5,1,win,go,gw,R,bacs1,1,1,0.417,1,0.0,+10,1
1nn8ci654pmi5ny2ho1q3dxi,3,1,3a,21,6,4,win,no-go,ngw,B,bacs1,0,0,,1,0.0,+10,0
1nn8ci654pmi5ny2ho1q3dxi,3,1,3a,22,6,12,lose,no-go,ngal,J,bacs1,0,0,,1,0.0,-1,0
1nn8ci654pmi5ny2ho1q3dxi,3,1,3a,23,6,1,win,go,gw,R,bacs1,1,1,0.358,1,0.0,+10,1
1nn8ci654pmi5ny2ho1q3dxi,3,1,3a,24,6,8,lose,go,gal,Z,bacs1,1,1,0.297,1,1.0,-10,1
1nn8ci654pmi5ny2ho1q3dxi,3,1,3a,25,7,12,lose,no-go,ngal,J,bacs1,0,0,,1,0.0,-1,0
1nn8ci654pmi5ny2ho1q3dxi,3,1,3a,26,7,8,lose,go,gal,Z,bacs1,1,0,,0,0.0,-10,0
1nn8ci654pmi5ny2ho1q3dxi,3,1,3a,27,7,4,win,no-go,ngw,B,bacs1,0,0,,1,0.0,+10,0
1nn8ci654pmi5ny2ho1q3dxi,3,1,3a,28,7,1,win,go,gw,R,bacs1,1,1,0.355,1,0.0,+10,1
1nn8ci654pmi5ny2ho1q3dxi,3,1,3a,29,8,1,win,go,gw,R,bacs1,1,1,0.461,1,0.0,+10,1
1nn8ci654pmi5ny2ho1q3dxi,3,1,3a,30,8,12,lose,no-go,ngal,J,bacs1,0,0,,1,0.0,-1,0
1nn8ci654pmi5ny2ho1q3dxi,3,1,3a,31,8,4,win,no-go,ngw,B,bacs1,0,0,,1,0.0,+10,0
1nn8ci654pmi5ny2ho1q3dxi,3,1,3a,32,8,8,lose,go,gal,Z,bacs1,1,1,0.349,1,0.0,-1,1
1nn8ci654pmi5ny2ho1q3dxi,3,1,3a,33,9,8,lose,go,gal,Z,bacs1,1,1,0.582,1,0.0,-1,1
1nn8ci654pmi5ny2ho1q3dxi,3,1,3a,34,1,11,lose,no-go,ngal,E,bacs1,0,0,,1,0.0,-1,0
1nn8ci654pmi5ny2ho1q3dxi,3,1,3a,35,1,9,lose,go,gal,V,bacs1,1,1,0.75,1,0.0,-1,1
1nn8ci654pmi5ny2ho1q3dxi,3,1,3a,36,9,12,lose,no-go,ngal,J,bacs1,0,0,,1,0.0,-1,0
1nn8ci654pmi5ny2ho1q3dxi,3,1,3a,37,10,12,lose,no-go,ngal,J,bacs1,0,0,,1,0.0,-1,0
1nn8ci654pmi5ny2ho1q3dxi,3,1,3a,38,2,11,lose,no-go,ngal,E,bacs1,0,0,,1,0.0,-1,0
1nn8ci654pmi5ny2ho1q3dxi,3,1,3a,39,2,9,lose,go,gal,V,bacs1,1,1,0.39,1,0.0,-1,1
1nn8ci654pmi5ny2ho1q3dxi,3,1,3a,40,10,8,lose,go,gal,Z,bacs1,1,1,0.515,1,0.0,-1,1
1nn8ci654pmi5ny2ho1q3dxi,3,1,3a,41,3,9,lose,go,gal,V,bacs1,1,1,0.555,1,0.0,-1,1
1nn8ci654pmi5ny2ho1q3dxi,3,1,3a,42,11,12,lose,no-go,ngal,J,bacs1,0,0,,1,0.0,-1,0
1nn8ci654pmi5ny2ho1q3dxi,3,1,3a,43,3,11,lose,no-go,ngal,E,bacs1,0,0,,1,0.0,-1,0
1nn8ci654pmi5ny2ho1q3dxi,3,1,3a,44,1,6,win,no-go,ngw,T,bacs1,0,1,0.613,0,1.0,+10,1
1nn8ci654pmi5ny2ho1q3dxi,3,1,3a,45,4,11,lose,no-go,ngal,E,bacs1,0,0,,1,0.0,-1,0
1nn8ci654pmi5ny2ho1q3dxi,3,1,3a,46,2,6,win,no-go,ngw,T,bacs1,0,1,0.525,0,0.0,+1,1
1nn8ci654pmi5ny2ho1q3dxi,3,1,3a,47,4,9,lose,go,gal,V,bacs1,1,1,0.507,1,1.0,-10,1
1nn8ci654pmi5ny2ho1q3dxi,3,1,3a,48,12,12,lose,no-go,ngal,J,bacs1,0,0,,1,0.0,-1,0
1nn8ci654pmi5ny2ho1q3dxi,3,1,3a,49,5,11,lose,no-go,ngal,E,bacs1,0,0,,1,0.0,-1,0
1nn8ci654pmi5ny2ho1q3dxi,3,1,3a,50,3,6,win,no-go,ngw,T,bacs1,0,1,0.818,0,0.0,+1,1
1nn8ci654pmi5ny2ho1q3dxi,3,1,3a,51,1,2,win,go,gw,F,bacs1,1,1,0.749,1,0.0,+10,1
1nn8ci654pmi5ny2ho1q3dxi,3,1,3a,52,5,9,lose,go,gal,V,bacs1,1,1,0.959,1,0.0,-1,1
1nn8ci654pmi5ny2ho1q3dxi,3,1,3a,53,6,9,lose,go,gal,V,bacs1,1,1,0.577,1,0.0,-1,1
1nn8ci654pmi5ny2ho1q3dxi,3,1,3a,54,2,2,win,go,gw,F,bacs1,1,1,0.483,1,0.0,+10,1
1nn8ci654pmi5ny2ho1q3dxi,3,1,3a,55,6,11,lose,no-go,ngal,E,bacs1,0,0,,1,1.0,-10,0
1nn8ci654pmi5ny2ho1q3dxi,3,1,3a,56,4,6,win,no-go,ngw,T,bacs1,0,0,,1,0.0,+10,0
1nn8ci654pmi5ny2ho1q3dxi,3,1,3a,57,5,6,win,no-go,ngw,T,bacs1,0,0,,1,0.0,+10,0
1nn8ci654pmi5ny2ho1q3dxi,3,1,3a,58,3,2,win,go,gw,F,bacs1,1,1,0.421,1,0.0,+10,1
1nn8ci654pmi5ny2ho1q3dxi,3,1,3a,59,7,9,lose,go,gal,V,bacs1,1,1,0.445,1,0.0,-1,1
1nn8ci654pmi5ny2ho1q3dxi,3,1,3a,60,7,11,lose,no-go,ngal,E,bacs1,0,0,,1,0.0,-1,0
1nn8ci654pmi5ny2ho1q3dxi,3,1,3a,61,8,9,lose,go,gal,V,bacs1,1,1,0.572,1,0.0,-1,1
1nn8ci654pmi5ny2ho1q3dxi,3,1,3a,62,6,6,win,no-go,ngw,T,bacs1,0,0,,1,0.0,+10,0
1nn8ci654pmi5ny2ho1q3dxi,3,1,3a,63,4,2,win,go,gw,F,bacs1,1,1,0.553,1,0.0,+10,1
1nn8ci654pmi5ny2ho1q3dxi,3,1,3a,64,8,11,lose,no-go,ngal,E,bacs1,0,0,,1,0.0,-1,0
1nn8ci654pmi5ny2ho1q3dxi,3,1,3a,65,7,6,win,no-go,ngw,T,bacs1,0,0,,1,0.0,+10,0
1nn8ci654pmi5ny2ho1q3dxi,3,1,3a,66,5,2,win,go,gw,F,bacs1,1,1,0.415,1,0.0,+10,1
1nn8ci654pmi5ny2ho1q3dxi,3,1,3a,67,9,11,lose,no-go,ngal,E,bacs1,0,0,,1,0.0,-1,0
1nn8ci654pmi5ny2ho1q3dxi,3,1,3a,68,9,9,lose,go,gal,V,bacs1,1,1,0.492,1,1.0,-10,1
1nn8ci654pmi5ny2ho1q3dxi,3,1,3a,69,10,9,lose,go,gal,V,bacs1,1,1,0.552,1,0.0,-1,1
1nn8ci654pmi5ny2ho1q3dxi,3,1,3a,70,10,11,lose,no-go,ngal,E,bacs1,0,0,,1,0.0,-1,0
1nn8ci654pmi5ny2ho1q3dxi,3,1,3a,71,6,2,win,go,gw,F,bacs1,1,1,0.5,1,0.0,+10,1
1nn8ci654pmi5ny2ho1q3dxi,3,1,3a,72,8,6,win,no-go,ngw,T,bacs1,0,0,,1,0.0,+10,0
1nn8ci654pmi5ny2ho1q3dxi,3,1,3a,73,1,3,win,go,gw,A,bacs1,1,1,0.928,1,0.0,+10,1
1nn8ci654pmi5ny2ho1q3dxi,3,1,3a,74,11,9,lose,go,gal,V,bacs1,1,1,0.763,1,0.0,-1,1
1nn8ci654pmi5ny2ho1q3dxi,3,1,3a,75,7,2,win,go,gw,F,bacs1,1,1,0.508,1,0.0,+10,1
1nn8ci654pmi5ny2ho1q3dxi,3,1,3a,76,9,6,win,no-go,ngw,T,bacs1,0,0,,1,0.0,+10,0
1nn8ci654pmi5ny2ho1q3dxi,3,1,3a,77,8,2,win,go,gw,F,bacs1,1,1,0.444,1,0.0,+10,1
1nn8ci654pmi5ny2ho1q3dxi,3,1,3a,78,12,9,lose,go,gal,V,bacs1,1,1,0.542,1,0.0,-1,1
1nn8ci654pmi5ny2ho1q3dxi,3,1,3a,79,2,3,win,go,gw,A,bacs1,1,1,0.338,1,0.0,+10,1
1nn8ci654pmi5ny2ho1q3dxi,3,1,3a,80,10,6,win,no-go,ngw,T,bacs1,0,0,,1,1.0,+1,0
1nn8ci654pmi5ny2ho1q3dxi,3,1,3a,81,3,3,win,go,gw,A,bacs1,1,1,0.522,1,0.0,+10,1
1nn8ci654pmi5ny2ho1q3dxi,3,1,3a,82,9,2,win,go,gw,F,bacs1,1,1,0.433,1,0.0,+10,1
1nn8ci654pmi5ny2ho1q3dxi,3,1,3a,83,11,6,win,no-go,ngw,T,bacs1,0,0,,1,1.0,+1,0
1nn8ci654pmi5ny2ho1q3dxi,3,1,3a,84,1,5,win,no-go,ngw,C,bacs1,0,1,0.736,0,0.0,+1,1
1nn8ci654pmi5ny2ho1q3dxi,3,1,3a,85,10,2,win,go,gw,F,bacs1,1,1,0.476,1,1.0,+1,1
1nn8ci654pmi5ny2ho1q3dxi,3,1,3a,86,4,3,win,go,gw,A,bacs1,1,1,0.465,1,1.0,+1,1
1nn8ci654pmi5ny2ho1q3dxi,3,1,3a,87,2,5,win,no-go,ngw,C,bacs1,0,0,,1,0.0,+10,0
1nn8ci654pmi5ny2ho1q3dxi,3,1,3a,88,12,6,win,no-go,ngw,T,bacs1,0,0,,1,1.0,+1,0
1nn8ci654pmi5ny2ho1q3dxi,3,1,3a,89,1,7,lose,go,gal,L,bacs1,1,1,0.705,1,0.0,-1,1
1nn8ci654pmi5ny2ho1q3dxi,3,1,3a,90,1,10,lose,no-go,ngal,Q,bacs1,0,1,0.703,0,1.0,-1,1
1nn8ci654pmi5ny2ho1q3dxi,3,1,3a,91,5,3,win,go,gw,A,bacs1,1,1,0.777,1,0.0,+10,1
1nn8ci654pmi5ny2ho1q3dxi,3,1,3a,92,3,5,win,no-go,ngw,C,bacs1,0,1,0.825,0,0.0,+1,1
1nn8ci654pmi5ny2ho1q3dxi,3,1,3a,93,6,3,win,go,gw,A,bacs1,1,1,0.606,1,0.0,+10,1
1nn8ci654pmi5ny2ho1q3dxi,3,1,3a,94,4,5,win,no-go,ngw,C,bacs1,0,0,,1,0.0,+10,0
1nn8ci654pmi5ny2ho1q3dxi,3,1,3a,95,2,10,lose,no-go,ngal,Q,bacs1,0,1,0.857,0,0.0,-10,1
1nn8ci654pmi5ny2ho1q3dxi,3,1,3a,96,2,7,lose,go,gal,L,bacs1,1,1,0.626,1,0.0,-1,1
1nn8ci654pmi5ny2ho1q3dxi,3,1,3a,97,3,7,lose,go,gal,L,bacs1,1,0,,0,0.0,-10,0
1nn8ci654pmi5ny2ho1q3dxi,3,1,3a,98,5,5,win,no-go,ngw,C,bacs1,0,0,,1,0.0,+10,0
1nn8ci654pmi5ny2ho1q3dxi,3,1,3a,99,7,3,win,go,gw,A,bacs1,1,1,0.481,1,1.0,+1,1
1nn8ci654pmi5ny2ho1q3dxi,3,1,3a,100,3,10,lose,no-go,ngal,Q,bacs1,0,0,,1,0.0,-1,0
1nn8ci654pmi5ny2ho1q3dxi,3,1,3a,101,4,7,lose,go,gal,L,bacs1,1,1,0.762,1,0.0,-1,1
1nn8ci654pmi5ny2ho1q3dxi,3,1,3a,102,4,10,lose,no-go,ngal,Q,bacs1,0,0,,1,0.0,-1,0
1nn8ci654pmi5ny2ho1q3dxi,3,1,3a,103,6,5,win,no-go,ngw,C,bacs1,0,0,,1,0.0,+10,0
1nn8ci654pmi5ny2ho1q3dxi,3,1,3a,104,8,3,win,go,gw,A,bacs1,1,1,0.723,1,0.0,+10,1
1nn8ci654pmi5ny2ho1q3dxi,3,1,3a,105,5,10,lose,no-go,ngal,Q,bacs1,0,0,,1,0.0,-1,0
1nn8ci654pmi5ny2ho1q3dxi,3,1,3a,106,9,3,win,go,gw,A,bacs1,1,1,0.508,1,0.0,+10,1
1nn8ci654pmi5ny2ho1q3dxi,3,1,3a,107,5,7,lose,go,gal,L,bacs1,1,1,0.621,1,0.0,-1,1
1nn8ci654pmi5ny2ho1q3dxi,3,1,3a,108,7,5,win,no-go,ngw,C,bacs1,0,0,,1,0.0,+10,0
1nn8ci654pmi5ny2ho1q3dxi,3,1,3a,109,6,10,lose,no-go,ngal,Q,bacs1,0,0,,1,0.0,-1,0
1nn8ci654pmi5ny2ho1q3dxi,3,1,3a,110,6,7,lose,go,gal,L,bacs1,1,1,0.445,1,1.0,-10,1
1nn8ci654pmi5ny2ho1q3dxi,3,1,3a,111,8,5,win,no-go,ngw,C,bacs1,0,0,,1,0.0,+10,0
1nn8ci654pmi5ny2ho1q3dxi,3,1,3a,112,10,3,win,go,gw,A,bacs1,1,1,0.591,1,0.0,+10,1
1nn8ci654pmi5ny2ho1q3dxi,3,1,3a,113,9,5,win,no-go,ngw,C,bacs1,0,0,,1,0.0,+10,0
1nn8ci654pmi5ny2ho1q3dxi,3,1,3a,114,11,3,win,go,gw,A,bacs1,1,1,0.591,1,0.0,+10,1
1nn8ci654pmi5ny2ho1q3dxi,3,1,3a,115,7,10,lose,no-go,ngal,Q,bacs1,0,0,,1,1.0,-10,0
1nn8ci654pmi5ny2ho1q3dxi,3,1,3a,116,7,7,lose,go,gal,L,bacs1,1,1,0.576,1,1.0,-10,1
1nn8ci654pmi5ny2ho1q3dxi,3,1,3a,117,8,10,lose,no-go,ngal,Q,bacs1,0,0,,1,1.0,-10,0
1nn8ci654pmi5ny2ho1q3dxi,3,1,3a,118,10,5,win,no-go,ngw,C,bacs1,0,0,,1,0.0,+10,0
1nn8ci654pmi5ny2ho1q3dxi,3,1,3a,119,12,3,win,go,gw,A,bacs1,1,1,0.424,1,0.0,+10,1
1nn8ci654pmi5ny2ho1q3dxi,3,1,3a,120,8,7,lose,go,gal,L,bacs1,1,1,0.645,1,1.0,-10,1
1nn8ci654pmi5ny2ho1q3dxi,3,2,3b,121,1,19,lose,go,gal,O,bacs1,1,1,0.507,1,1.0,-10,1
1nn8ci654pmi5ny2ho1q3dxi,3,2,3b,122,1,15,win,go,gw,I,bacs1,1,1,0.565,1,0.0,+10,1
1nn8ci654pmi5ny2ho1q3dxi,3,2,3b,123,1,17,win,no-go,ngw,N,bacs1,0,1,0.62,0,0.0,+1,1
1nn8ci654pmi5ny2ho1q3dxi,3,2,3b,124,1,16,win,no-go,ngw,G,bacs1,0,1,0.572,0,0.0,+1,1
1nn8ci654pmi5ny2ho1q3dxi,3,2,3b,125,2,17,win,no-go,ngw,N,bacs1,0,1,0.653,0,1.0,+10,1
1nn8ci654pmi5ny2ho1q3dxi,3,2,3b,126,2,15,win,go,gw,I,bacs1,1,1,0.611,1,0.0,+10,1
1nn8ci654pmi5ny2ho1q3dxi,3,2,3b,127,2,16,win,no-go,ngw,G,bacs1,0,0,,1,1.0,+1,0
1nn8ci654pmi5ny2ho1q3dxi,3,2,3b,128,2,19,lose,go,gal,O,bacs1,1,0,,0,0.0,-10,0
1nn8ci654pmi5ny2ho1q3dxi,3,2,3b,129,3,15,win,go,gw,I,bacs1,1,1,0.353,1,0.0,+10,1
1nn8ci654pmi5ny2ho1q3dxi,3,2,3b,130,3,19,lose,go,gal,O,bacs1,1,1,0.541,1,0.0,-1,1
1nn8ci654pmi5ny2ho1q3dxi,3,2,3b,131,3,17,win,no-go,ngw,N,bacs1,0,1,0.535,0,1.0,+10,1
1nn8ci654pmi5ny2ho1q3dxi,3,2,3b,132,3,16,win,no-go,ngw,G,bacs1,0,0,,1,0.0,+10,0
1nn8ci654pmi5ny2ho1q3dxi,3,2,3b,133,4,16,win,no-go,ngw,G,bacs1,0,0,,1,0.0,+10,0
1nn8ci654pmi5ny2ho1q3dxi,3,2,3b,134,4,15,win,go,gw,I,bacs1,1,1,0.357,1,0.0,+10,1
1nn8ci654pmi5ny2ho1q3dxi,3,2,3b,135,4,19,lose,go,gal,O,bacs1,1,0,,0,0.0,-10,0
1nn8ci654pmi5ny2ho1q3dxi,3,2,3b,136,4,17,win,no-go,ngw,N,bacs1,0,1,0.434,0,0.0,+1,1
1nn8ci654pmi5ny2ho1q3dxi,3,2,3b,137,5,16,win,no-go,ngw,G,bacs1,0,1,0.434,0,0.0,+1,1
1nn8ci654pmi5ny2ho1q3dxi,3,2,3b,138,5,19,lose,go,gal,O,bacs1,1,1,0.47,1,0.0,-1,1
1nn8ci654pmi5ny2ho1q3dxi,3,2,3b,139,5,15,win,go,gw,I,bacs1,1,1,0.466,1,1.0,+1,1
1nn8ci654pmi5ny2ho1q3dxi,3,2,3b,140,5,17,win,no-go,ngw,N,bacs1,0,1,0.354,0,1.0,+10,1
1nn8ci654pmi5ny2ho1q3dxi,3,2,3b,141,6,15,win,go,gw,I,bacs1,1,1,0.441,1,0.0,+10,1
1nn8ci654pmi5ny2ho1q3dxi,3,2,3b,142,6,17,win,no-go,ngw,N,bacs1,0,1,0.414,0,0.0,+1,1
1nn8ci654pmi5ny2ho1q3dxi,3,2,3b,143,6,16,win,no-go,ngw,G,bacs1,0,0,,1,0.0,+10,0
1nn8ci654pmi5ny2ho1q3dxi,3,2,3b,144,6,19,lose,go,gal,O,bacs1,1,1,0.457,1,0.0,-1,1
1nn8ci654pmi5ny2ho1q3dxi,3,2,3b,145,7,19,lose,go,gal,O,bacs1,1,1,0.531,1,0.0,-1,1
1nn8ci654pmi5ny2ho1q3dxi,3,2,3b,146,7,16,win,no-go,ngw,G,bacs1,0,0,,1,0.0,+10,0
1nn8ci654pmi5ny2ho1q3dxi,3,2,3b,147,7,15,win,go,gw,I,bacs1,1,1,0.4,1,0.0,+10,1
1nn8ci654pmi5ny2ho1q3dxi,3,2,3b,148,7,17,win,no-go,ngw,N,bacs1,0,1,0.406,0,1.0,+10,1
1nn8ci654pmi5ny2ho1q3dxi,3,2,3b,149,8,16,win,no-go,ngw,G,bacs1,0,0,,1,0.0,+10,0
1nn8ci654pmi5ny2ho1q3dxi,3,2,3b,150,8,17,win,no-go,ngw,N,bacs1,0,1,0.685,0,0.0,+1,1
1nn8ci654pmi5ny2ho1q3dxi,3,2,3b,151,8,15,win,go,gw,I,bacs1,1,1,0.35,1,1.0,+1,1
1nn8ci654pmi5ny2ho1q3dxi,3,2,3b,152,8,19,lose,go,gal,O,bacs1,1,1,0.466,1,0.0,-1,1
1nn8ci654pmi5ny2ho1q3dxi,3,2,3b,153,9,15,win,go,gw,I,bacs1,1,1,0.714,1,0.0,+10,1
1nn8ci654pmi5ny2ho1q3dxi,3,2,3b,154,1,23,lose,no-go,ngal,D,bacs1,0,1,0.551,0,0.0,-10,1
1nn8ci654pmi5ny2ho1q3dxi,3,2,3b,155,9,17,win,no-go,ngw,N,bacs1,0,1,0.46,0,1.0,+10,1
1nn8ci654pmi5ny2ho1q3dxi,3,2,3b,156,1,21,lose,go,gal,K,bacs1,1,1,0.624,1,0.0,-1,1
1nn8ci654pmi5ny2ho1q3dxi,3,2,3b,157,2,23,lose,no-go,ngal,D,bacs1,0,0,,1,0.0,-1,0
1nn8ci654pmi5ny2ho1q3dxi,3,2,3b,158,2,21,lose,go,gal,K,bacs1,1,1,0.521,1,0.0,-1,1
1nn8ci654pmi5ny2ho1q3dxi,3,2,3b,159,10,15,win,go,gw,I,bacs1,1,1,0.386,1,1.0,+1,1
1nn8ci654pmi5ny2ho1q3dxi,3,2,3b,160,10,17,win,no-go,ngw,N,bacs1,0,1,0.525,0,1.0,+10,1
1nn8ci654pmi5ny2ho1q3dxi,3,2,3b,161,1,18,win,no-go,ngw,S,bacs1,0,1,0.658,0,0.0,+1,1
1nn8ci654pmi5ny2ho1q3dxi,3,2,3b,162,3,21,lose,go,gal,K,bacs1,1,1,0.556,1,0.0,-1,1
1nn8ci654pmi5ny2ho1q3dxi,3,2,3b,163,3,23,lose,no-go,ngal,D,bacs1,0,0,,1,0.0,-1,0
1nn8ci654pmi5ny2ho1q3dxi,3,2,3b,164,11,15,win,go,gw,I,bacs1,1,1,0.451,1,0.0,+10,1
1nn8ci654pmi5ny2ho1q3dxi,3,2,3b,165,4,21,lose,go,gal,K,bacs1,1,1,0.449,1,0.0,-1,1
1nn8ci654pmi5ny2ho1q3dxi,3,2,3b,166,4,23,lose,no-go,ngal,D,bacs1,0,0,,1,0.0,-1,0
1nn8ci654pmi5ny2ho1q3dxi,3,2,3b,167,2,18,win,no-go,ngw,S,bacs1,0,0,,1,0.0,+10,0
1nn8ci654pmi5ny2ho1q3dxi,3,2,3b,168,12,15,win,go,gw,I,bacs1,1,1,0.338,1,0.0,+10,1
1nn8ci654pmi5ny2ho1q3dxi,3,2,3b,169,5,23,lose,no-go,ngal,D,bacs1,0,0,,1,1.0,-10,0
1nn8ci654pmi5ny2ho1q3dxi,3,2,3b,170,1,22,lose,no-go,ngal,U,bacs1,0,1,0.543,0,0.0,-10,1
1nn8ci654pmi5ny2ho1q3dxi,3,2,3b,171,5,21,lose,go,gal,K,bacs1,1,1,0.542,1,0.0,-1,1
1nn8ci654pmi5ny2ho1q3dxi,3,2,3b,172,3,18,win,no-go,ngw,S,bacs1,0,0,,1,0.0,+10,0
1nn8ci654pmi5ny2ho1q3dxi,3,2,3b,173,6,21,lose,go,gal,K,bacs1,1,1,0.489,1,0.0,-1,1
1nn8ci654pmi5ny2ho1q3dxi,3,2,3b,174,2,22,lose,no-go,ngal,U,bacs1,0,0,,1,0.0,-1,0
1nn8ci654pmi5ny2ho1q3dxi,3,2,3b,175,6,23,lose,no-go,ngal,D,bacs1,0,0,,1,0.0,-1,0
1nn8ci654pmi5ny2ho1q3dxi,3,2,3b,176,4,18,win,no-go,ngw,S,bacs1,0,0,,1,0.0,+10,0
1nn8ci654pmi5ny2ho1q3dxi,3,2,3b,177,3,22,lose,no-go,ngal,U,bacs1,0,0,,1,1.0,-10,0
1nn8ci654pmi5ny2ho1q3dxi,3,2,3b,178,7,23,lose,no-go,ngal,D,bacs1,0,0,,1,0.0,-1,0
1nn8ci654pmi5ny2ho1q3dxi,3,2,3b,179,7,21,lose,go,gal,K,bacs1,1,1,0.406,1,0.0,-1,1
1nn8ci654pmi5ny2ho1q3dxi,3,2,3b,180,5,18,win,no-go,ngw,S,bacs1,0,0,,1,0.0,+10,0
1nn8ci654pmi5ny2ho1q3dxi,3,2,3b,181,4,22,lose,no-go,ngal,U,bacs1,0,0,,1,0.0,-1,0
1nn8ci654pmi5ny2ho1q3dxi,3,2,3b,182,8,23,lose,no-go,ngal,D,bacs1,0,0,,1,0.0,-1,0
1nn8ci654pmi5ny2ho1q3dxi,3,2,3b,183,6,18,win,no-go,ngw,S,bacs1,0,0,,1,0.0,+10,0
1nn8ci654pmi5ny2ho1q3dxi,3,2,3b,184,8,21,lose,go,gal,K,bacs1,1,1,0.446,1,1.0,-10,1
1nn8ci654pmi5ny2ho1q3dxi,3,2,3b,185,7,18,win,no-go,ngw,S,bacs1,0,0,,1,0.0,+10,0
1nn8ci654pmi5ny2ho1q3dxi,3,2,3b,186,5,22,lose,no-go,ngal,U,bacs1,0,0,,1,1.0,-10,0
1nn8ci654pmi5ny2ho1q3dxi,3,2,3b,187,9,21,lose,go,gal,K,bacs1,1,1,0.482,1,1.0,-10,1
1nn8ci654pmi5ny2ho1q3dxi,3,2,3b,188,9,23,lose,no-go,ngal,D,bacs1,0,0,,1,0.0,-1,0
1nn8ci654pmi5ny2ho1q3dxi,3,2,3b,189,6,22,lose,no-go,ngal,U,bacs1,0,0,,1,0.0,-1,0
1nn8ci654pmi5ny2ho1q3dxi,3,2,3b,190,10,23,lose,no-go,ngal,D,bacs1,0,0,,1,0.0,-1,0
1nn8ci654pmi5ny2ho1q3dxi,3,2,3b,191,10,21,lose,go,gal,K,bacs1,1,0,,0,0.0,-10,0
1nn8ci654pmi5ny2ho1q3dxi,3,2,3b,192,8,18,win,no-go,ngw,S,bacs1,0,0,,1,0.0,+10,0
1nn8ci654pmi5ny2ho1q3dxi,3,2,3b,193,11,21,lose,go,gal,K,bacs1,1,1,0.487,1,0.0,-1,1
1nn8ci654pmi5ny2ho1q3dxi,3,2,3b,194,7,22,lose,no-go,ngal,U,bacs1,0,0,,1,1.0,-10,0
1nn8ci654pmi5ny2ho1q3dxi,3,2,3b,195,1,24,lose,no-go,ngal,M,bacs1,0,1,0.473,0,0.0,-10,1
1nn8ci654pmi5ny2ho1q3dxi,3,2,3b,196,9,18,win,no-go,ngw,S,bacs1,0,0,,1,1.0,+1,0
1nn8ci654pmi5ny2ho1q3dxi,3,2,3b,197,10,18,win,no-go,ngw,S,bacs1,0,0,,1,0.0,+10,0
1nn8ci654pmi5ny2ho1q3dxi,3,2,3b,198,8,22,lose,no-go,ngal,U,bacs1,0,0,,1,0.0,-1,0
1nn8ci654pmi5ny2ho1q3dxi,3,2,3b,199,12,21,lose,go,gal,K,bacs1,1,1,1.025,1,0.0,-1,1
1nn8ci654pmi5ny2ho1q3dxi,3,2,3b,200,2,24,lose,no-go,ngal,M,bacs1,0,0,,1,1.0,-10,0
1nn8ci654pmi5ny2ho1q3dxi,3,2,3b,201,11,18,win,no-go,ngw,S,bacs1,0,0,,1,1.0,+1,0
1nn8ci654pmi5ny2ho1q3dxi,3,2,3b,202,1,20,lose,go,gal,H,bacs1,1,1,0.648,1,0.0,-1,1
1nn8ci654pmi5ny2ho1q3dxi,3,2,3b,203,1,14,win,go,gw,P,bacs1,1,1,0.765,1,0.0,+10,1
1nn8ci654pmi5ny2ho1q3dxi,3,2,3b,204,3,24,lose,no-go,ngal,M,bacs1,0,1,0.552,0,0.0,-10,1
1nn8ci654pmi5ny2ho1q3dxi,3,2,3b,205,12,18,win,no-go,ngw,S,bacs1,0,0,,1,0.0,+10,0
1nn8ci654pmi5ny2ho1q3dxi,3,2,3b,206,2,20,lose,go,gal,H,bacs1,1,1,0.56,1,0.0,-1,1
1nn8ci654pmi5ny2ho1q3dxi,3,2,3b,207,2,14,win,go,gw,P,bacs1,1,1,0.336,1,0.0,+10,1
1nn8ci654pmi5ny2ho1q3dxi,3,2,3b,208,4,24,lose,no-go,ngal,M,bacs1,0,1,0.629,0,0.0,-10,1
1nn8ci654pmi5ny2ho1q3dxi,3,2,3b,209,3,14,win,go,gw,P,bacs1,1,1,0.436,1,0.0,+10,1
1nn8ci654pmi5ny2ho1q3dxi,3,2,3b,210,3,20,lose,go,gal,H,bacs1,1,1,0.469,1,1.0,-10,1
1nn8ci654pmi5ny2ho1q3dxi,3,2,3b,211,5,24,lose,no-go,ngal,M,bacs1,0,1,0.68,0,0.0,-10,1
1nn8ci654pmi5ny2ho1q3dxi,3,2,3b,212,1,13,win,go,gw,Y,bacs1,1,1,0.627,1,0.0,+10,1
1nn8ci654pmi5ny2ho1q3dxi,3,2,3b,213,2,13,win,go,gw,Y,bacs1,1,1,0.348,1,0.0,+10,1
1nn8ci654pmi5ny2ho1q3dxi,3,2,3b,214,4,20,lose,go,gal,H,bacs1,1,0,,0,1.0,-1,0
1nn8ci654pmi5ny2ho1q3dxi,3,2,3b,215,6,24,lose,no-go,ngal,M,bacs1,0,1,0.563,0,0.0,-10,1
1nn8ci654pmi5ny2ho1q3dxi,3,2,3b,216,4,14,win,go,gw,P,bacs1,1,1,0.357,1,0.0,+10,1
1nn8ci654pmi5ny2ho1q3dxi,3,2,3b,217,5,20,lose,go,gal,H,bacs1,1,1,1.03,1,1.0,-10,1
1nn8ci654pmi5ny2ho1q3dxi,3,2,3b,218,5,14,win,go,gw,P,bacs1,1,1,0.49,1,0.0,+10,1
1nn8ci654pmi5ny2ho1q3dxi,3,2,3b,219,3,13,win,go,gw,Y,bacs1,1,1,0.602,1,0.0,+10,1
1nn8ci654pmi5ny2ho1q3dxi,3,2,3b,220,7,24,lose,no-go,ngal,M,bacs1,0,0,,1,0.0,-1,0
1nn8ci654pmi5ny2ho1q3dxi,3,2,3b,221,4,13,win,go,gw,Y,bacs1,1,1,0.513,1,0.0,+10,1
1nn8ci654pmi5ny2ho1q3dxi,3,2,3b,222,6,20,lose,go,gal,H,bacs1,1,0,,0,0.0,-10,0
1nn8ci654pmi5ny2ho1q3dxi,3,2,3b,223,6,14,win,go,gw,P,bacs1,1,1,0.418,1,0.0,+10,1
1nn8ci654pmi5ny2ho1q3dxi,3,2,3b,224,8,24,lose,no-go,ngal,M,bacs1,0,0,,1,0.0,-1,0
1nn8ci654pmi5ny2ho1q3dxi,3,2,3b,225,7,14,win,go,gw,P,bacs1,1,1,0.393,1,0.0,+10,1
1nn8ci654pmi5ny2ho1q3dxi,3,2,3b,226,7,20,lose,go,gal,H,bacs1,1,1,0.782,1,0.0,-1,1
1nn8ci654pmi5ny2ho1q3dxi,3,2,3b,227,5,13,win,go,gw,Y,bacs1,1,1,0.502,1,0.0,+10,1
1nn8ci654pmi5ny2ho1q3dxi,3,2,3b,228,9,24,lose,no-go,ngal,M,bacs1,0,0,,1,0.0,-1,0
1nn8ci654pmi5ny2ho1q3dxi,3,2,3b,229,8,20,lose,go,gal,H,bacs1,1,1,0.722,1,1.0,-10,1
1nn8ci654pmi5ny2ho1q3dxi,3,2,3b,230,8,14,win,go,gw,P,bacs1,1,1,0.382,1,0.0,+10,1
1nn8ci654pmi5ny2ho1q3dxi,3,2,3b,231,10,24,lose,no-go,ngal,M,bacs1,0,0,,1,0.0,-1,0
1nn8ci654pmi5ny2ho1q3dxi,3,2,3b,232,6,13,win,go,gw,Y,bacs1,1,1,0.45,1,0.0,+10,1
1nn8ci654pmi5ny2ho1q3dxi,3,2,3b,233,11,24,lose,no-go,ngal,M,bacs1,0,0,,1,0.0,-1,0
1nn8ci654pmi5ny2ho1q3dxi,3,2,3b,234,9,20,lose,go,gal,H,bacs1,1,1,0.736,1,0.0,-1,1
1nn8ci654pmi5ny2ho1q3dxi,3,2,3b,235,9,14,win,go,gw,P,bacs1,1,1,0.464,1,1.0,+1,1
1nn8ci654pmi5ny2ho1q3dxi,3,2,3b,236,7,13,win,go,gw,Y,bacs1,1,1,0.573,1,0.0,+10,1
1nn8ci654pmi5ny2ho1q3dxi,3,2,3b,237,10,20,lose,go,gal,H,bacs1,1,1,0.746,1,0.0,-1,1
1nn8ci654pmi5ny2ho1q3dxi,3,2,3b,238,8,13,win,go,gw,Y,bacs1,1,1,0.523,1,0.0,+10,1
1nn8ci654pmi5ny2ho1q3dxi,3,2,3b,239,10,14,win,go,gw,P,bacs1,1,1,0.432,1,0.0,+10,1
1nn8ci654pmi5ny2ho1q3dxi,3,2,3b,240,12,24,lose,no-go,ngal,M,bacs1,0,0,,1,1.0,-10,0
1x8zaa76pikfxwotrhhxcogi,3,1,3b,1,1,17,win,no-go,ngw,Y,bacs2,0,1,0.286,0,0.0,+1,1
1x8zaa76pikfxwotrhhxcogi,3,1,3b,2,1,16,win,no-go,ngw,T,bacs2,0,1,0.721,0,0.0,+1,1
1x8zaa76pikfxwotrhhxcogi,3,1,3b,3,1,19,lose,go,gal,H,bacs2,1,0,,0,0.0,-10,0
1x8zaa76pikfxwotrhhxcogi,3,1,3b,4,1,15,win,go,gw,Q,bacs2,1,1,0.873,1,1.0,+1,1
1x8zaa76pikfxwotrhhxcogi,3,1,3b,5,2,19,lose,go,gal,H,bacs2,1,1,0.514,1,0.0,-1,1
1x8zaa76pikfxwotrhhxcogi,3,1,3b,6,2,15,win,go,gw,Q,bacs2,1,0,,0,0.0,+1,0
1x8zaa76pikfxwotrhhxcogi,3,1,3b,7,2,17,win,no-go,ngw,Y,bacs2,0,0,,1,1.0,+1,0
1x8zaa76pikfxwotrhhxcogi,3,1,3b,8,2,16,win,no-go,ngw,T,bacs2,0,0,,1,0.0,+10,0
1x8zaa76pikfxwotrhhxcogi,3,1,3b,9,3,16,win,no-go,ngw,T,bacs2,0,0,,1,1.0,+1,0
1x8zaa76pikfxwotrhhxcogi,3,1,3b,10,3,15,win,go,gw,Q,bacs2,1,1,0.623,1,0.0,+10,1
1x8zaa76pikfxwotrhhxcogi,3,1,3b,11,3,19,lose,go,gal,H,bacs2,1,0,,0,0.0,-10,0
1x8zaa76pikfxwotrhhxcogi,3,1,3b,12,3,17,win,no-go,ngw,Y,bacs2,0,1,1.096,0,0.0,+1,1
1x8zaa76pikfxwotrhhxcogi,3,1,3b,13,4,17,win,no-go,ngw,Y,bacs2,0,0,,1,0.0,+10,0
1x8zaa76pikfxwotrhhxcogi,3,1,3b,14,4,16,win,no-go,ngw,T,bacs2,0,0,,1,0.0,+10,0
1x8zaa76pikfxwotrhhxcogi,3,1,3b,15,4,19,lose,go,gal,H,bacs2,1,1,0.715,1,0.0,-1,1
1x8zaa76pikfxwotrhhxcogi,3,1,3b,16,4,15,win,go,gw,Q,bacs2,1,1,0.839,1,1.0,+1,1
1x8zaa76pikfxwotrhhxcogi,3,1,3b,17,5,17,win,no-go,ngw,Y,bacs2,0,0,,1,0.0,+10,0
1x8zaa76pikfxwotrhhxcogi,3,1,3b,18,5,16,win,no-go,ngw,T,bacs2,0,1,0.933,0,0.0,+1,1
1x8zaa76pikfxwotrhhxcogi,3,1,3b,19,5,19,lose,go,gal,H,bacs2,1,1,0.985,1,0.0,-1,1
1x8zaa76pikfxwotrhhxcogi,3,1,3b,20,5,15,win,go,gw,Q,bacs2,1,0,,0,0.0,+1,0
1x8zaa76pikfxwotrhhxcogi,3,1,3b,21,6,16,win,no-go,ngw,T,bacs2,0,1,0.701,0,0.0,+1,1
1x8zaa76pikfxwotrhhxcogi,3,1,3b,22,6,15,win,go,gw,Q,bacs2,1,0,,0,0.0,+1,0
1x8zaa76pikfxwotrhhxcogi,3,1,3b,23,6,17,win,no-go,ngw,Y,bacs2,0,1,0.809,0,0.0,+1,1
1x8zaa76pikfxwotrhhxcogi,3,1,3b,24,6,19,lose,go,gal,H,bacs2,1,0,,0,0.0,-10,0
1x8zaa76pikfxwotrhhxcogi,3,1,3b,25,7,19,lose,go,gal,H,bacs2,1,0,,0,0.0,-10,1
1x8zaa76pikfxwotrhhxcogi,3,1,3b,26,7,15,win,go,gw,Q,bacs2,1,0,,0,0.0,+1,0
1x8zaa76pikfxwotrhhxcogi,3,1,3b,27,7,16,win,no-go,ngw,T,bacs2,0,1,0.425,0,1.0,+10,1
1x8zaa76pikfxwotrhhxcogi,3,1,3b,28,7,17,win,no-go,ngw,Y,bacs2,0,0,,1,1.0,+1,0
1x8zaa76pikfxwotrhhxcogi,3,1,3b,29,8,15,win,go,gw,Q,bacs2,1,1,0.523,1,1.0,+1,1
1x8zaa76pikfxwotrhhxcogi,3,1,3b,30,8,17,win,no-go,ngw,Y,bacs2,0,1,0.881,0,0.0,+1,1
1x8zaa76pikfxwotrhhxcogi,3,1,3b,31,8,19,lose,go,gal,H,bacs2,1,0,,0,1.0,-1,0
1x8zaa76pikfxwotrhhxcogi,3,1,3b,32,8,16,win,no-go,ngw,T,bacs2,0,0,,1,0.0,+10,0
1x8zaa76pikfxwotrhhxcogi,3,1,3b,33,1,23,lose,no-go,ngal,E,bacs2,0,1,1.005,0,0.0,-10,1
1x8zaa76pikfxwotrhhxcogi,3,1,3b,34,9,17,win,no-go,ngw,Y,bacs2,0,0,,1,0.0,+10,0
1x8zaa76pikfxwotrhhxcogi,3,1,3b,35,9,15,win,go,gw,Q,bacs2,1,0,,0,0.0,+1,0
1x8zaa76pikfxwotrhhxcogi,3,1,3b,36,1,21,lose,go,gal,C,bacs2,1,1,1.194,1,0.0,-1,1
1x8zaa76pikfxwotrhhxcogi,3,1,3b,37,10,17,win,no-go,ngw,Y,bacs2,0,0,,1,0.0,+10,0
1x8zaa76pikfxwotrhhxcogi,3,1,3b,38,10,15,win,go,gw,Q,bacs2,1,0,,0,0.0,+1,0
1x8zaa76pikfxwotrhhxcogi,3,1,3b,39,2,23,lose,no-go,ngal,E,bacs2,0,1,0.771,0,1.0,-1,1
1x8zaa76pikfxwotrhhxcogi,3,1,3b,40,2,21,lose,go,gal,C,bacs2,1,0,,0,0.0,-10,0
1x8zaa76pikfxwotrhhxcogi,3,1,3b,41,3,23,lose,no-go,ngal,E,bacs2,0,1,0.605,0,0.0,-10,1
1x8zaa76pikfxwotrhhxcogi,3,1,3b,42,11,15,win,go,gw,Q,bacs2,1,0,,0,0.0,+1,0
1x8zaa76pikfxwotrhhxcogi,3,1,3b,43,1,18,win,no-go,ngw,O,bacs2,0,1,0.535,0,0.0,+1,1
1x8zaa76pikfxwotrhhxcogi,3,1,3b,44,3,21,lose,go,gal,C,bacs2,1,0,,0,0.0,-10,0
1x8zaa76pikfxwotrhhxcogi,3,1,3b,45,12,15,win,go,gw,Q,bacs2,1,1,1.193,1,0.0,+10,1
1x8zaa76pikfxwotrhhxcogi,3,1,3b,46,4,21,lose,go,gal,C,bacs2,1,0,,0,0.0,-10,0
1x8zaa76pikfxwotrhhxcogi,3,1,3b,47,2,18,win,no-go,ngw,O,bacs2,0,1,0.854,0,0.0,+1,1
1x8zaa76pikfxwotrhhxcogi,3,1,3b,48,4,23,lose,no-go,ngal,E,bacs2,0,0,,1,0.0,-1,0
1x8zaa76pikfxwotrhhxcogi,3,1,3b,49,1,22,lose,no-go,ngal,G,bacs2,0,1,1.072,0,1.0,-1,1
1x8zaa76pikfxwotrhhxcogi,3,1,3b,50,5,23,lose,no-go,ngal,E,bacs2,0,0,,1,0.0,-1,0
1x8zaa76pikfxwotrhhxcogi,3,1,3b,51,3,18,win,no-go,ngw,O,bacs2,0,1,0.91,0,0.0,+1,1
1x8zaa76pikfxwotrhhxcogi,3,1,3b,52,5,21,lose,go,gal,C,bacs2,1,0,,0,0.0,-10,0
1x8zaa76pikfxwotrhhxcogi,3,1,3b,53,4,18,win,no-go,ngw,O,bacs2,0,1,0.661,0,1.0,+10,1
1x8zaa76pikfxwotrhhxcogi,3,1,3b,54,6,23,lose,no-go,ngal,E,bacs2,0,1,0.769,0,0.0,-10,1
1x8zaa76pikfxwotrhhxcogi,3,1,3b,55,2,22,lose,no-go,ngal,G,bacs2,0,0,,1,1.0,-10,0
1x8zaa76pikfxwotrhhxcogi,3,1,3b,56,6,21,lose,go,gal,C,bacs2,1,1,0.796,1,0.0,-1,1
1x8zaa76pikfxwotrhhxcogi,3,1,3b,57,7,23,lose,no-go,ngal,E,bacs2,0,0,,1,0.0,-1,0
1x8zaa76pikfxwotrhhxcogi,3,1,3b,58,5,18,win,no-go,ngw,O,bacs2,0,1,0.766,0,0.0,+1,1
1x8zaa76pikfxwotrhhxcogi,3,1,3b,59,3,22,lose,no-go,ngal,G,bacs2,0,0,,1,0.0,-1,0
1x8zaa76pikfxwotrhhxcogi,3,1,3b,60,7,21,lose,go,gal,C,bacs2,1,0,,0,0.0,-10,0
1x8zaa76pikfxwotrhhxcogi,3,1,3b,61,8,21,lose,go,gal,C,bacs2,1,1,0.451,1,0.0,-1,1
1x8zaa76pikfxwotrhhxcogi,3,1,3b,62,6,18,win,no-go,ngw,O,bacs2,0,0,,1,0.0,+10,0
1x8zaa76pikfxwotrhhxcogi,3,1,3b,63,4,22,lose,no-go,ngal,G,bacs2,0,0,,1,0.0,-1,0
1x8zaa76pikfxwotrhhxcogi,3,1,3b,64,8,23,lose,no-go,ngal,E,bacs2,0,0,,1,0.0,-1,0
1x8zaa76pikfxwotrhhxcogi,3,1,3b,65,9,21,lose,go,gal,C,bacs2,1,1,0.528,1,1.0,-10,1
1x8zaa76pikfxwotrhhxcogi,3,1,3b,66,9,23,lose,no-go,ngal,E,bacs2,0,0,,1,0.0,-1,0
1x8zaa76pikfxwotrhhxcogi,3,1,3b,67,7,18,win,no-go,ngw,O,bacs2,0,1,0.422,0,0.0,+1,1
1x8zaa76pikfxwotrhhxcogi,3,1,3b,68,5,22,lose,no-go,ngal,G,bacs2,0,0,,1,1.0,-10,0
1x8zaa76pikfxwotrhhxcogi,3,1,3b,69,10,23,lose,no-go,ngal,E,bacs2,0,1,0.909,0,0.0,-10,1
1x8zaa76pikfxwotrhhxcogi,3,1,3b,70,8,18,win,no-go,ngw,O,bacs2,0,1,0.783,0,0.0,+1,1
1x8zaa76pikfxwotrhhxcogi,3,1,3b,71,6,22,lose,no-go,ngal,G,bacs2,0,1,0.824,0,0.0,-10,1
1x8zaa76pikfxwotrhhxcogi,3,1,3b,72,10,21,lose,go,gal,C,bacs2,1,1,0.737,1,0.0,-1,1
1x8zaa76pikfxwotrhhxcogi,3,1,3b,73,11,21,lose,go,gal,C,bacs2,1,1,0.856,1,0.0,-1,1
1x8zaa76pikfxwotrhhxcogi,3,1,3b,74,1,24,lose,no-go,ngal,Z,bacs2,0,0,,1,0.0,-1,0
1x8zaa76pikfxwotrhhxcogi,3,1,3b,75,9,18,win,no-go,ngw,O,bacs2,0,1,0.446,0,0.0,+1,1
1x8zaa76pikfxwotrhhxcogi,3,1,3b,76,7,22,lose,no-go,ngal,G,bacs2,0,0,,1,0.0,-1,1
1x8zaa76pikfxwotrhhxcogi,3,1,3b,77,10,18,win,no-go,ngw,O,bacs2,0,0,,1,1.0,+1,0
1x8zaa76pikfxwotrhhxcogi,3,1,3b,78,8,22,lose,no-go,ngal,G,bacs2,0,0,,1,0.0,-1,1
1x8zaa76pikfxwotrhhxcogi,3,1,3b,79,12,21,lose,go,gal,C,bacs2,1,1,0.683,1,0.0,-1,1
1x8zaa76pikfxwotrhhxcogi,3,1,3b,80,2,24,lose,no-go,ngal,Z,bacs2,0,1,0.554,0,0.0,-10,1
1x8zaa76pikfxwotrhhxcogi,3,1,3b,81,3,24,lose,no-go,ngal,Z,bacs2,0,0,,1,0.0,-1,0
1x8zaa76pikfxwotrhhxcogi,3,1,3b,82,1,14,win,go,gw,X,bacs2,1,1,0.943,1,1.0,+1,1
1x8zaa76pikfxwotrhhxcogi,3,1,3b,83,11,18,win,no-go,ngw,O,bacs2,0,0,,1,0.0,+10,0
1x8zaa76pikfxwotrhhxcogi,3,1,3b,84,1,20,lose,go,gal,W,bacs2,1,0,,0,0.0,-10,0
1x8zaa76pikfxwotrhhxcogi,3,1,3b,85,4,24,lose,no-go,ngal,Z,bacs2,0,1,0.598,0,0.0,-10,1
1x8zaa76pikfxwotrhhxcogi,3,1,3b,86,12,18,win,no-go,ngw,O,bacs2,0,1,0.713,0,1.0,+10,1
1x8zaa76pikfxwotrhhxcogi,3,1,3b,87,2,14,win,go,gw,X,bacs2,1,0,,0,0.0,+1,0
1x8zaa76pikfxwotrhhxcogi,3,1,3b,88,2,20,lose,go,gal,W,bacs2,1,0,,0,1.0,-1,0
1x8zaa76pikfxwotrhhxcogi,3,1,3b,89,5,24,lose,no-go,ngal,Z,bacs2,0,0,,1,1.0,-10,0
1x8zaa76pikfxwotrhhxcogi,3,1,3b,90,3,20,lose,go,gal,W,bacs2,1,1,0.41,1,0.0,-1,1
1x8zaa76pikfxwotrhhxcogi,3,1,3b,91,3,14,win,go,gw,X,bacs2,1,0,,0,0.0,+1,0
1x8zaa76pikfxwotrhhxcogi,3,1,3b,92,1,13,win,go,gw,J,bacs2,1,1,0.597,1,0.0,+10,1
1x8zaa76pikfxwotrhhxcogi,3,1,3b,93,2,13,win,go,gw,J,bacs2,1,0,,0,0.0,+1,0
1x8zaa76pikfxwotrhhxcogi,3,1,3b,94,4,14,win,go,gw,X,bacs2,1,1,0.695,1,1.0,+1,1
1x8zaa76pikfxwotrhhxcogi,3,1,3b,95,4,20,lose,go,gal,W,bacs2,1,0,,0,0.0,-10,0
1x8zaa76pikfxwotrhhxcogi,3,1,3b,96,6,24,lose,no-go,ngal,Z,bacs2,0,1,0.772,0,0.0,-10,1
1x8zaa76pikfxwotrhhxcogi,3,1,3b,97,5,14,win,go,gw,X,bacs2,1,1,0.856,1,0.0,+10,1
1x8zaa76pikfxwotrhhxcogi,3,1,3b,98,3,13,win,go,gw,J,bacs2,1,0,,0,0.0,+1,0
1x8zaa76pikfxwotrhhxcogi,3,1,3b,99,7,24,lose,no-go,ngal,Z,bacs2,0,1,1.295,0,0.0,-10,1
1x8zaa76pikfxwotrhhxcogi,3,1,3b,100,5,20,lose,go,gal,W,bacs2,1,0,,0,0.0,-10,0
1x8zaa76pikfxwotrhhxcogi,3,1,3b,101,8,24,lose,no-go,ngal,Z,bacs2,0,1,0.842,0,0.0,-10,1
1x8zaa76pikfxwotrhhxcogi,3,1,3b,102,6,20,lose,go,gal,W,bacs2,1,0,,0,0.0,-10,0
1x8zaa76pikfxwotrhhxcogi,3,1,3b,103,6,14,win,go,gw,X,bacs2,1,1,0.333,1,0.0,+10,1
1x8zaa76pikfxwotrhhxcogi,3,1,3b,104,4,13,win,go,gw,J,bacs2,1,1,0.792,1,0.0,+10,1
1x8zaa76pikfxwotrhhxcogi,3,1,3b,105,5,13,win,go,gw,J,bacs2,1,1,0.619,1,1.0,+1,1
1x8zaa76pikfxwotrhhxcogi,3,1,3b,106,7,20,lose,go,gal,W,bacs2,1,0,,0,0.0,-10,0
1x8zaa76pikfxwotrhhxcogi,3,1,3b,107,7,14,win,go,gw,X,bacs2,1,1,0.408,1,0.0,+10,1
1x8zaa76pikfxwotrhhxcogi,3,1,3b,108,9,24,lose,no-go,ngal,Z,bacs2,0,0,,1,0.0,-1,0
1x8zaa76pikfxwotrhhxcogi,3,1,3b,109,10,24,lose,no-go,ngal,Z,bacs2,0,0,,1,0.0,-1,0
1x8zaa76pikfxwotrhhxcogi,3,1,3b,110,6,13,win,go,gw,J,bacs2,1,1,0.774,1,1.0,+1,1
1x8zaa76pikfxwotrhhxcogi,3,1,3b,111,8,20,lose,go,gal,W,bacs2,1,1,0.899,1,0.0,-1,1
1x8zaa76pikfxwotrhhxcogi,3,1,3b,112,8,14,win,go,gw,X,bacs2,1,1,0.522,1,0.0,+10,1
1x8zaa76pikfxwotrhhxcogi,3,1,3b,113,9,14,win,go,gw,X,bacs2,1,1,0.52,1,0.0,+10,1
1x8zaa76pikfxwotrhhxcogi,3,1,3b,114,11,24,lose,no-go,ngal,Z,bacs2,0,0,,1,0.0,-1,0
1x8zaa76pikfxwotrhhxcogi,3,1,3b,115,7,13,win,go,gw,J,bacs2,1,1,0.431,1,0.0,+10,1
1x8zaa76pikfxwotrhhxcogi,3,1,3b,116,9,20,lose,go,gal,W,bacs2,1,1,0.912,1,0.0,-1,1
1x8zaa76pikfxwotrhhxcogi,3,1,3b,117,8,13,win,go,gw,J,bacs2,1,1,0.764,1,0.0,+10,1
1x8zaa76pikfxwotrhhxcogi,3,1,3b,118,10,14,win,go,gw,X,bacs2,1,1,0.594,1,0.0,+10,1
1x8zaa76pikfxwotrhhxcogi,3,1,3b,119,10,20,lose,go,gal,W,bacs2,1,0,,0,0.0,-10,0
1x8zaa76pikfxwotrhhxcogi,3,1,3b,120,12,24,lose,no-go,ngal,Z,bacs2,0,1,0.406,0,0.0,-10,1
1x8zaa76pikfxwotrhhxcogi,3,2,3a,121,1,12,lose,no-go,ngal,K,bacs2,0,1,0.612,0,0.0,-10,1
1x8zaa76pikfxwotrhhxcogi,3,2,3a,122,1,1,win,go,gw,V,bacs2,1,1,0.69,1,0.0,+10,1
1x8zaa76pikfxwotrhhxcogi,3,2,3a,123,1,4,win,no-go,ngw,M,bacs2,0,0,,1,1.0,+1,0
1x8zaa76pikfxwotrhhxcogi,3,2,3a,124,1,8,lose,go,gal,B,bacs2,1,1,0.758,1,0.0,-1,1
1x8zaa76pikfxwotrhhxcogi,3,2,3a,125,2,1,win,go,gw,V,bacs2,1,0,,0,0.0,+1,0
1x8zaa76pikfxwotrhhxcogi,3,2,3a,126,2,12,lose,no-go,ngal,K,bacs2,0,0,,1,0.0,-1,0
1x8zaa76pikfxwotrhhxcogi,3,2,3a,127,2,8,lose,go,gal,B,bacs2,1,0,,0,0.0,-10,0
1x8zaa76pikfxwotrhhxcogi,3,2,3a,128,2,4,win,no-go,ngw,M,bacs2,0,0,,1,0.0,+10,0
1x8zaa76pikfxwotrhhxcogi,3,2,3a,129,3,12,lose,no-go,ngal,K,bacs2,0,0,,1,0.0,-1,0
1x8zaa76pikfxwotrhhxcogi,3,2,3a,130,3,1,win,go,gw,V,bacs2,1,1,0.379,1,0.0,+10,1
1x8zaa76pikfxwotrhhxcogi,3,2,3a,131,3,8,lose,go,gal,B,bacs2,1,0,,0,1.0,-1,0
1x8zaa76pikfxwotrhhxcogi,3,2,3a,132,3,4,win,no-go,ngw,M,bacs2,0,1,0.336,0,0.0,+1,1
1x8zaa76pikfxwotrhhxcogi,3,2,3a,133,4,1,win,go,gw,V,bacs2,1,1,0.577,1,1.0,+1,1
1x8zaa76pikfxwotrhhxcogi,3,2,3a,134,4,12,lose,no-go,ngal,K,bacs2,0,0,,1,0.0,-1,0
1x8zaa76pikfxwotrhhxcogi,3,2,3a,135,4,4,win,no-go,ngw,M,bacs2,0,0,,1,0.0,+10,0
1x8zaa76pikfxwotrhhxcogi,3,2,3a,136,4,8,lose,go,gal,B,bacs2,1,1,0.205,1,0.0,-1,1
1x8zaa76pikfxwotrhhxcogi,3,2,3a,137,5,8,lose,go,gal,B,bacs2,1,1,0.495,1,0.0,-1,1
1x8zaa76pikfxwotrhhxcogi,3,2,3a,138,5,1,win,go,gw,V,bacs2,1,1,1.106,1,0.0,+10,1
1x8zaa76pikfxwotrhhxcogi,3,2,3a,139,5,4,win,no-go,ngw,M,bacs2,0,0,,1,0.0,+10,0
1x8zaa76pikfxwotrhhxcogi,3,2,3a,140,5,12,lose,no-go,ngal,K,bacs2,0,1,0.27,0,1.0,-1,1
1x8zaa76pikfxwotrhhxcogi,3,2,3a,141,6,1,win,go,gw,V,bacs2,1,1,0.615,1,0.0,+10,1
1x8zaa76pikfxwotrhhxcogi,3,2,3a,142,6,4,win,no-go,ngw,M,bacs2,0,0,,1,0.0,+10,0
1x8zaa76pikfxwotrhhxcogi,3,2,3a,143,6,12,lose,no-go,ngal,K,bacs2,0,1,0.543,0,0.0,-10,1
1x8zaa76pikfxwotrhhxcogi,3,2,3a,144,6,8,lose,go,gal,B,bacs2,1,1,0.833,1,0.0,-1,1
1x8zaa76pikfxwotrhhxcogi,3,2,3a,145,7,8,lose,go,gal,B,bacs2,1,1,0.786,1,0.0,-1,1
1x8zaa76pikfxwotrhhxcogi,3,2,3a,146,7,1,win,go,gw,V,bacs2,1,1,0.714,1,1.0,+1,1
1x8zaa76pikfxwotrhhxcogi,3,2,3a,147,7,12,lose,no-go,ngal,K,bacs2,0,1,0.599,0,1.0,-1,1
1x8zaa76pikfxwotrhhxcogi,3,2,3a,148,7,4,win,no-go,ngw,M,bacs2,0,1,0.521,0,0.0,+1,1
1x8zaa76pikfxwotrhhxcogi,3,2,3a,149,8,8,lose,go,gal,B,bacs2,1,1,1.137,1,0.0,-1,1
1x8zaa76pikfxwotrhhxcogi,3,2,3a,150,8,4,win,no-go,ngw,M,bacs2,0,0,,1,0.0,+10,0
1x8zaa76pikfxwotrhhxcogi,3,2,3a,151,8,1,win,go,gw,V,bacs2,1,1,0.844,1,0.0,+10,1
1x8zaa76pikfxwotrhhxcogi,3,2,3a,152,8,12,lose,no-go,ngal,K,bacs2,0,0,,1,0.0,-1,0
1x8zaa76pikfxwotrhhxcogi,3,2,3a,153,9,12,lose,no-go,ngal,K,bacs2,0,0,,1,0.0,-1,0
1x8zaa76pikfxwotrhhxcogi,3,2,3a,154,9,8,lose,go,gal,B,bacs2,1,0,,0,0.0,-10,0
1x8zaa76pikfxwotrhhxcogi,3,2,3a,155,1,11,lose,no-go,ngal,P,bacs2,0,1,0.307,0,0.0,-10,1
1x8zaa76pikfxwotrhhxcogi,3,2,3a,156,1,9,lose,go,gal,R,bacs2,1,1,0.514,1,0.0,-1,1
1x8zaa76pikfxwotrhhxcogi,3,2,3a,157,2,11,lose,no-go,ngal,P,bacs2,0,0,,1,0.0,-1,0
1x8zaa76pikfxwotrhhxcogi,3,2,3a,158,2,9,lose,go,gal,R,bacs2,1,1,0.462,1,0.0,-1,1
1x8zaa76pikfxwotrhhxcogi,3,2,3a,159,10,8,lose,go,gal,B,bacs2,1,0,,0,1.0,-1,0
1x8zaa76pikfxwotrhhxcogi,3,2,3a,160,10,12,lose,no-go,ngal,K,bacs2,0,1,0.718,0,0.0,-10,1
1x8zaa76pikfxwotrhhxcogi,3,2,3a,161,1,6,win,no-go,ngw,L,bacs2,0,0,,1,1.0,+1,0
1x8zaa76pikfxwotrhhxcogi,3,2,3a,162,11,12,lose,no-go,ngal,K,bacs2,0,0,,1,1.0,-10,1
1x8zaa76pikfxwotrhhxcogi,3,2,3a,163,3,9,lose,go,gal,R,bacs2,1,1,0.222,1,0.0,-1,1
1x8zaa76pikfxwotrhhxcogi,3,2,3a,164,3,11,lose,no-go,ngal,P,bacs2,0,0,,1,0.0,-1,0
1x8zaa76pikfxwotrhhxcogi,3,2,3a,165,2,6,win,no-go,ngw,L,bacs2,0,0,,1,0.0,+10,0
1x8zaa76pikfxwotrhhxcogi,3,2,3a,166,4,9,lose,go,gal,R,bacs2,1,1,0.244,1,0.0,-1,1
1x8zaa76pikfxwotrhhxcogi,3,2,3a,167,12,12,lose,no-go,ngal,K,bacs2,0,1,0.376,0,0.0,-10,1
1x8zaa76pikfxwotrhhxcogi,3,2,3a,168,4,11,lose,no-go,ngal,P,bacs2,0,0,,1,0.0,-1,0
1x8zaa76pikfxwotrhhxcogi,3,2,3a,169,1,2,win,go,gw,S,bacs2,1,1,0.751,1,0.0,+10,1
1x8zaa76pikfxwotrhhxcogi,3,2,3a,170,5,9,lose,go,gal,R,bacs2,1,0,,0,0.0,-10,0
1x8zaa76pikfxwotrhhxcogi,3,2,3a,171,5,11,lose,no-go,ngal,P,bacs2,0,1,0.181,0,0.0,-10,1
1x8zaa76pikfxwotrhhxcogi,3,2,3a,172,3,6,win,no-go,ngw,L,bacs2,0,1,0.697,0,0.0,+1,1
1x8zaa76pikfxwotrhhxcogi,3,2,3a,173,2,2,win,go,gw,S,bacs2,1,1,0.984,1,0.0,+10,1
1x8zaa76pikfxwotrhhxcogi,3,2,3a,174,4,6,win,no-go,ngw,L,bacs2,0,1,0.511,0,0.0,+1,1
1x8zaa76pikfxwotrhhxcogi,3,2,3a,175,6,9,lose,go,gal,R,bacs2,1,0,,0,1.0,-1,0
1x8zaa76pikfxwotrhhxcogi,3,2,3a,176,6,11,lose,no-go,ngal,P,bacs2,0,1,0.351,0,0.0,-10,1
1x8zaa76pikfxwotrhhxcogi,3,2,3a,177,5,6,win,no-go,ngw,L,bacs2,0,1,0.562,0,0.0,+1,1
1x8zaa76pikfxwotrhhxcogi,3,2,3a,178,3,2,win,go,gw,S,bacs2,1,0,,0,0.0,+1,0
1x8zaa76pikfxwotrhhxcogi,3,2,3a,179,7,9,lose,go,gal,R,bacs2,1,1,0.614,1,0.0,-1,1
1x8zaa76pikfxwotrhhxcogi,3,2,3a,180,7,11,lose,no-go,ngal,P,bacs2,0,0,,1,1.0,-10,0
1x8zaa76pikfxwotrhhxcogi,3,2,3a,181,8,11,lose,no-go,ngal,P,bacs2,0,1,0.551,0,1.0,-1,1
1x8zaa76pikfxwotrhhxcogi,3,2,3a,182,8,9,lose,go,gal,R,bacs2,1,1,0.569,1,0.0,-1,1
1x8zaa76pikfxwotrhhxcogi,3,2,3a,183,6,6,win,no-go,ngw,L,bacs2,0,1,0.577,0,1.0,+10,1
1x8zaa76pikfxwotrhhxcogi,3,2,3a,184,4,2,win,go,gw,S,bacs2,1,1,0.521,1,1.0,+1,1
1x8zaa76pikfxwotrhhxcogi,3,2,3a,185,9,11,lose,no-go,ngal,P,bacs2,0,1,0.665,0,1.0,-1,1
1x8zaa76pikfxwotrhhxcogi,3,2,3a,186,5,2,win,go,gw,S,bacs2,1,1,0.815,1,0.0,+10,1
1x8zaa76pikfxwotrhhxcogi,3,2,3a,187,7,6,win,no-go,ngw,L,bacs2,0,1,0.441,0,0.0,+1,1
1x8zaa76pikfxwotrhhxcogi,3,2,3a,188,9,9,lose,go,gal,R,bacs2,1,1,0.506,1,0.0,-1,1
1x8zaa76pikfxwotrhhxcogi,3,2,3a,189,6,2,win,go,gw,S,bacs2,1,1,0.456,1,0.0,+10,1
1x8zaa76pikfxwotrhhxcogi,3,2,3a,190,10,9,lose,go,gal,R,bacs2,1,1,0.586,1,0.0,-1,1
1x8zaa76pikfxwotrhhxcogi,3,2,3a,191,10,11,lose,no-go,ngal,P,bacs2,0,1,0.688,0,0.0,-10,1
1x8zaa76pikfxwotrhhxcogi,3,2,3a,192,8,6,win,no-go,ngw,L,bacs2,0,1,0.562,0,0.0,+1,1
1x8zaa76pikfxwotrhhxcogi,3,2,3a,193,9,6,win,no-go,ngw,L,bacs2,0,1,0.545,0,0.0,+1,1
1x8zaa76pikfxwotrhhxcogi,3,2,3a,194,1,3,win,go,gw,U,bacs2,1,1,0.784,1,0.0,+10,1
1x8zaa76pikfxwotrhhxcogi,3,2,3a,195,11,9,lose,go,gal,R,bacs2,1,1,0.481,1,1.0,-10,1
1x8zaa76pikfxwotrhhxcogi,3,2,3a,196,7,2,win,go,gw,S,bacs2,1,1,0.411,1,0.0,+10,1
1x8zaa76pikfxwotrhhxcogi,3,2,3a,197,2,3,win,go,gw,U,bacs2,1,1,0.375,1,0.0,+10,1
1x8zaa76pikfxwotrhhxcogi,3,2,3a,198,8,2,win,go,gw,S,bacs2,1,1,0.626,1,1.0,+1,1
1x8zaa76pikfxwotrhhxcogi,3,2,3a,199,10,6,win,no-go,ngw,L,bacs2,0,0,,1,0.0,+10,0
1x8zaa76pikfxwotrhhxcogi,3,2,3a,200,12,9,lose,go,gal,R,bacs2,1,1,0.399,1,0.0,-1,1
1x8zaa76pikfxwotrhhxcogi,3,2,3a,201,11,6,win,no-go,ngw,L,bacs2,0,1,0.488,0,0.0,+1,1
1x8zaa76pikfxwotrhhxcogi,3,2,3a,202,1,5,win,no-go,ngw,A,bacs2,0,0,,1,1.0,+1,0
1x8zaa76pikfxwotrhhxcogi,3,2,3a,203,3,3,win,go,gw,U,bacs2,1,1,0.735,1,1.0,+1,1
1x8zaa76pikfxwotrhhxcogi,3,2,3a,204,9,2,win,go,gw,S,bacs2,1,1,0.658,1,0.0,+10,1
1x8zaa76pikfxwotrhhxcogi,3,2,3a,205,2,5,win,no-go,ngw,A,bacs2,0,0,,1,0.0,+10,0
1x8zaa76pikfxwotrhhxcogi,3,2,3a,206,10,2,win,go,gw,S,bacs2,1,1,0.428,1,1.0,+1,1
1x8zaa76pikfxwotrhhxcogi,3,2,3a,207,12,6,win,no-go,ngw,L,bacs2,0,0,,1,0.0,+10,0
1x8zaa76pikfxwotrhhxcogi,3,2,3a,208,4,3,win,go,gw,U,bacs2,1,1,0.414,1,1.0,+1,1
1x8zaa76pikfxwotrhhxcogi,3,2,3a,209,1,10,lose,no-go,ngal,N,bacs2,0,0,,1,1.0,-10,0
1x8zaa76pikfxwotrhhxcogi,3,2,3a,210,3,5,win,no-go,ngw,A,bacs2,0,1,0.549,0,1.0,+10,1
1x8zaa76pikfxwotrhhxcogi,3,2,3a,211,1,7,lose,go,gal,F,bacs2,1,1,0.706,1,0.0,-1,1
1x8zaa76pikfxwotrhhxcogi,3,2,3a,212,5,3,win,go,gw,U,bacs2,1,0,,0,0.0,+1,0
1x8zaa76pikfxwotrhhxcogi,3,2,3a,213,4,5,win,no-go,ngw,A,bacs2,0,1,0.508,0,0.0,+1,1
1x8zaa76pikfxwotrhhxcogi,3,2,3a,214,2,10,lose,no-go,ngal,N,bacs2,0,0,,1,1.0,-10,0
1x8zaa76pikfxwotrhhxcogi,3,2,3a,215,2,7,lose,go,gal,F,bacs2,1,1,0.092,1,1.0,-10,1
1x8zaa76pikfxwotrhhxcogi,3,2,3a,216,6,3,win,go,gw,U,bacs2,1,1,0.593,1,0.0,+10,1
1x8zaa76pikfxwotrhhxcogi,3,2,3a,217,3,7,lose,go,gal,F,bacs2,1,0,,0,0.0,-10,0
1x8zaa76pikfxwotrhhxcogi,3,2,3a,218,5,5,win,no-go,ngw,A,bacs2,0,1,0.468,0,0.0,+1,1
1x8zaa76pikfxwotrhhxcogi,3,2,3a,219,3,10,lose,no-go,ngal,N,bacs2,0,1,0.426,0,0.0,-10,1
1x8zaa76pikfxwotrhhxcogi,3,2,3a,220,7,3,win,go,gw,U,bacs2,1,1,0.409,1,1.0,+1,1
1x8zaa76pikfxwotrhhxcogi,3,2,3a,221,6,5,win,no-go,ngw,A,bacs2,0,1,0.833,0,0.0,+1,1
1x8zaa76pikfxwotrhhxcogi,3,2,3a,222,8,3,win,go,gw,U,bacs2,1,1,0.826,1,0.0,+10,1
1x8zaa76pikfxwotrhhxcogi,3,2,3a,223,4,10,lose,no-go,ngal,N,bacs2,0,0,,1,0.0,-1,0
1x8zaa76pikfxwotrhhxcogi,3,2,3a,224,4,7,lose,go,gal,F,bacs2,1,1,0.774,1,1.0,-10,1
1x8zaa76pikfxwotrhhxcogi,3,2,3a,225,5,7,lose,go,gal,F,bacs2,1,0,,0,0.0,-10,0
1x8zaa76pikfxwotrhhxcogi,3,2,3a,226,9,3,win,go,gw,U,bacs2,1,0,,0,0.0,+1,0
1x8zaa76pikfxwotrhhxcogi,3,2,3a,227,5,10,lose,no-go,ngal,N,bacs2,0,0,,1,1.0,-10,0
1x8zaa76pikfxwotrhhxcogi,3,2,3a,228,7,5,win,no-go,ngw,A,bacs2,0,1,0.497,0,0.0,+1,1
1x8zaa76pikfxwotrhhxcogi,3,2,3a,229,10,3,win,go,gw,U,bacs2,1,0,,0,0.0,+1,0
1x8zaa76pikfxwotrhhxcogi,3,2,3a,230,6,7,lose,go,gal,F,bacs2,1,1,0.445,1,0.0,-1,1
1x8zaa76pikfxwotrhhxcogi,3,2,3a,231,8,5,win,no-go,ngw,A,bacs2,0,0,,1,1.0,+1,0
1x8zaa76pikfxwotrhhxcogi,3,2,3a,232,6,10,lose,no-go,ngal,N,bacs2,0,1,0.623,0,0.0,-10,1
1x8zaa76pikfxwotrhhxcogi,3,2,3a,233,7,10,lose,no-go,ngal,N,bacs2,0,0,,1,1.0,-10,0
1x8zaa76pikfxwotrhhxcogi,3,2,3a,234,9,5,win,no-go,ngw,A,bacs2,0,1,0.343,0,0.0,+1,1
1x8zaa76pikfxwotrhhxcogi,3,2,3a,235,11,3,win,go,gw,U,bacs2,1,0,,0,1.0,+10,0
1x8zaa76pikfxwotrhhxcogi,3,2,3a,236,7,7,lose,go,gal,F,bacs2,1,0,,0,1.0,-1,0
1x8zaa76pikfxwotrhhxcogi,3,2,3a,237,12,3,win,go,gw,U,bacs2,1,1,0.627,1,1.0,+1,1
1x8zaa76pikfxwotrhhxcogi,3,2,3a,238,8,7,lose,go,gal,F,bacs2,1,0,,0,0.0,-10,0
1x8zaa76pikfxwotrhhxcogi,3,2,3a,239,8,10,lose,no-go,ngal,N,bacs2,0,1,0.717,0,0.0,-10,1
1x8zaa76pikfxwotrhhxcogi,3,2,3a,240,10,5,win,no-go,ngw,A,bacs2,0,0,,1,0.0,+10,0
1ztbhfxllii1xhq9f1v62x26,3,1,3a,1,1,4,win,no-go,ngw,Q,bacs1,0,1,0.592,0,0.0,+1,1
1ztbhfxllii1xhq9f1v62x26,3,1,3a,2,1,12,lose,no-go,ngal,C,bacs1,0,0,,1,0.0,-1,0
1ztbhfxllii1xhq9f1v62x26,3,1,3a,3,1,8,lose,go,gal,L,bacs1,1,1,1.031,1,0.0,-1,1
1ztbhfxllii1xhq9f1v62x26,3,1,3a,4,1,1,win,go,gw,A,bacs1,1,0,,0,0.0,+1,0
1ztbhfxllii1xhq9f1v62x26,3,1,3a,5,2,4,win,no-go,ngw,Q,bacs1,0,0,,1,0.0,+10,0
1ztbhfxllii1xhq9f1v62x26,3,1,3a,6,2,12,lose,no-go,ngal,C,bacs1,0,0,,1,0.0,-1,0
1ztbhfxllii1xhq9f1v62x26,3,1,3a,7,2,1,win,go,gw,A,bacs1,1,1,0.671,1,0.0,+10,1
1ztbhfxllii1xhq9f1v62x26,3,1,3a,8,2,8,lose,go,gal,L,bacs1,1,1,0.914,1,1.0,-10,1
1ztbhfxllii1xhq9f1v62x26,3,1,3a,9,3,4,win,no-go,ngw,Q,bacs1,0,0,,1,1.0,+1,0
1ztbhfxllii1xhq9f1v62x26,3,1,3a,10,3,12,lose,no-go,ngal,C,bacs1,0,0,,1,0.0,-1,0
1ztbhfxllii1xhq9f1v62x26,3,1,3a,11,3,8,lose,go,gal,L,bacs1,1,1,0.581,1,0.0,-1,1
1ztbhfxllii1xhq9f1v62x26,3,1,3a,12,3,1,win,go,gw,A,bacs1,1,1,0.582,1,0.0,+10,1
1ztbhfxllii1xhq9f1v62x26,3,1,3a,13,4,12,lose,no-go,ngal,C,bacs1,0,1,1.041,0,0.0,-10,1
1ztbhfxllii1xhq9f1v62x26,3,1,3a,14,4,8,lose,go,gal,L,bacs1,1,1,1.001,1,0.0,-1,1
1ztbhfxllii1xhq9f1v62x26,3,1,3a,15,4,4,win,no-go,ngw,Q,bacs1,0,1,0.574,0,0.0,+1,1
1ztbhfxllii1xhq9f1v62x26,3,1,3a,16,4,1,win,go,gw,A,bacs1,1,1,0.529,1,0.0,+10,1
1ztbhfxllii1xhq9f1v62x26,3,1,3a,17,5,1,win,go,gw,A,bacs1,1,1,0.559,1,0.0,+10,1
1ztbhfxllii1xhq9f1v62x26,3,1,3a,18,5,4,win,no-go,ngw,Q,bacs1,0,0,,1,0.0,+10,0
1ztbhfxllii1xhq9f1v62x26,3,1,3a,19,5,12,lose,no-go,ngal,C,bacs1,0,1,0.949,0,0.0,-10,1
1ztbhfxllii1xhq9f1v62x26,3,1,3a,20,5,8,lose,go,gal,L,bacs1,1,0,,0,0.0,-10,0
1ztbhfxllii1xhq9f1v62x26,3,1,3a,21,6,4,win,no-go,ngw,Q,bacs1,0,0,,1,0.0,+10,0
1ztbhfxllii1xhq9f1v62x26,3,1,3a,22,6,1,win,go,gw,A,bacs1,1,1,0.633,1,1.0,+1,1
1ztbhfxllii1xhq9f1v62x26,3,1,3a,23,6,12,lose,no-go,ngal,C,bacs1,0,1,0.833,0,0.0,-10,1
1ztbhfxllii1xhq9f1v62x26,3,1,3a,24,6,8,lose,go,gal,L,bacs1,1,1,0.444,1,0.0,-1,1
1ztbhfxllii1xhq9f1v62x26,3,1,3a,25,7,12,lose,no-go,ngal,C,bacs1,0,0,,1,0.0,-1,0
1ztbhfxllii1xhq9f1v62x26,3,1,3a,26,7,1,win,go,gw,A,bacs1,1,1,0.697,1,1.0,+1,1
1ztbhfxllii1xhq9f1v62x26,3,1,3a,27,7,8,lose,go,gal,L,bacs1,1,0,,0,1.0,-1,0
1ztbhfxllii1xhq9f1v62x26,3,1,3a,28,7,4,win,no-go,ngw,Q,bacs1,0,1,0.684,0,0.0,+1,1
1ztbhfxllii1xhq9f1v62x26,3,1,3a,29,8,8,lose,go,gal,L,bacs1,1,1,1.096,1,1.0,-10,1
1ztbhfxllii1xhq9f1v62x26,3,1,3a,30,8,1,win,go,gw,A,bacs1,1,1,0.725,1,0.0,+10,1
1ztbhfxllii1xhq9f1v62x26,3,1,3a,31,8,12,lose,no-go,ngal,C,bacs1,0,1,1.062,0,0.0,-10,1
1ztbhfxllii1xhq9f1v62x26,3,1,3a,32,8,4,win,no-go,ngw,Q,bacs1,0,0,,1,0.0,+10,0
1ztbhfxllii1xhq9f1v62x26,3,1,3a,33,9,8,lose,go,gal,L,bacs1,1,1,1.139,1,0.0,-1,1
1ztbhfxllii1xhq9f1v62x26,3,1,3a,34,9,12,lose,no-go,ngal,C,bacs1,0,0,,1,1.0,-10,0
1ztbhfxllii1xhq9f1v62x26,3,1,3a,35,1,9,lose,go,gal,F,bacs1,1,0,,0,1.0,-1,0
1ztbhfxllii1xhq9f1v62x26,3,1,3a,36,1,11,lose,no-go,ngal,T,bacs1,0,1,0.813,0,0.0,-10,1
1ztbhfxllii1xhq9f1v62x26,3,1,3a,37,2,11,lose,no-go,ngal,T,bacs1,0,0,,1,0.0,-1,0
1ztbhfxllii1xhq9f1v62x26,3,1,3a,38,10,12,lose,no-go,ngal,C,bacs1,0,0,,1,0.0,-1,0
1ztbhfxllii1xhq9f1v62x26,3,1,3a,39,10,8,lose,go,gal,L,bacs1,1,1,0.8,1,0.0,-1,1
1ztbhfxllii1xhq9f1v62x26,3,1,3a,40,2,9,lose,go,gal,F,bacs1,1,0,,0,0.0,-10,0
1ztbhfxllii1xhq9f1v62x26,3,1,3a,41,3,9,lose,go,gal,F,bacs1,1,1,0.726,1,1.0,-10,1
1ztbhfxllii1xhq9f1v62x26,3,1,3a,42,1,6,win,no-go,ngw,E,bacs1,0,0,,1,0.0,+10,0
1ztbhfxllii1xhq9f1v62x26,3,1,3a,43,3,11,lose,no-go,ngal,T,bacs1,0,1,0.825,0,0.0,-10,1
1ztbhfxllii1xhq9f1v62x26,3,1,3a,44,11,12,lose,no-go,ngal,C,bacs1,0,1,0.998,0,0.0,-10,1
1ztbhfxllii1xhq9f1v62x26,3,1,3a,45,4,9,lose,go,gal,F,bacs1,1,0,,0,0.0,-10,0
1ztbhfxllii1xhq9f1v62x26,3,1,3a,46,12,12,lose,no-go,ngal,C,bacs1,0,0,,1,0.0,-1,0
1ztbhfxllii1xhq9f1v62x26,3,1,3a,47,4,11,lose,no-go,ngal,T,bacs1,0,0,,1,0.0,-1,0
1ztbhfxllii1xhq9f1v62x26,3,1,3a,48,2,6,win,no-go,ngw,E,bacs1,0,0,,1,0.0,+10,0
1ztbhfxllii1xhq9f1v62x26,3,1,3a,49,5,9,lose,go,gal,F,bacs1,1,0,,0,0.0,-10,0
1ztbhfxllii1xhq9f1v62x26,3,1,3a,50,1,2,win,go,gw,V,bacs1,1,1,1.039,1,1.0,+1,1
1ztbhfxllii1xhq9f1v62x26,3,1,3a,51,5,11,lose,no-go,ngal,T,bacs1,0,1,1.16,0,0.0,-10,1
1ztbhfxllii1xhq9f1v62x26,3,1,3a,52,3,6,win,no-go,ngw,E,bacs1,0,0,,1,0.0,+10,0
1ztbhfxllii1xhq9f1v62x26,3,1,3a,53,2,2,win,go,gw,V,bacs1,1,1,1.262,1,0.0,+10,1
1ztbhfxllii1xhq9f1v62x26,3,1,3a,54,4,6,win,no-go,ngw,E,bacs1,0,0,,1,0.0,+10,0
1ztbhfxllii1xhq9f1v62x26,3,1,3a,55,6,11,lose,no-go,ngal,T,bacs1,0,0,,1,0.0,-1,0
1ztbhfxllii1xhq9f1v62x26,3,1,3a,56,6,9,lose,go,gal,F,bacs1,1,1,0.857,1,0.0,-1,1
1ztbhfxllii1xhq9f1v62x26,3,1,3a,57,7,9,lose,go,gal,F,bacs1,1,1,1.009,1,0.0,-1,1
1ztbhfxllii1xhq9f1v62x26,3,1,3a,58,5,6,win,no-go,ngw,E,bacs1,0,0,,1,1.0,+1,0
1ztbhfxllii1xhq9f1v62x26,3,1,3a,59,3,2,win,go,gw,V,bacs1,1,1,0.763,1,0.0,+10,1
1ztbhfxllii1xhq9f1v62x26,3,1,3a,60,7,11,lose,no-go,ngal,T,bacs1,0,0,,1,0.0,-1,0
1ztbhfxllii1xhq9f1v62x26,3,1,3a,61,8,11,lose,no-go,ngal,T,bacs1,0,0,,1,0.0,-1,0
1ztbhfxllii1xhq9f1v62x26,3,1,3a,62,4,2,win,go,gw,V,bacs1,1,1,0.937,1,1.0,+1,1
1ztbhfxllii1xhq9f1v62x26,3,1,3a,63,8,9,lose,go,gal,F,bacs1,1,1,0.889,1,1.0,-10,1
1ztbhfxllii1xhq9f1v62x26,3,1,3a,64,6,6,win,no-go,ngw,E,bacs1,0,0,,1,0.0,+10,0
1ztbhfxllii1xhq9f1v62x26,3,1,3a,65,9,9,lose,go,gal,F,bacs1,1,0,,0,0.0,-10,0
1ztbhfxllii1xhq9f1v62x26,3,1,3a,66,9,11,lose,no-go,ngal,T,bacs1,0,0,,1,0.0,-1,0
1ztbhfxllii1xhq9f1v62x26,3,1,3a,67,5,2,win,go,gw,V,bacs1,1,1,0.95,1,0.0,+10,1
1ztbhfxllii1xhq9f1v62x26,3,1,3a,68,7,6,win,no-go,ngw,E,bacs1,0,0,,1,0.0,+10,0
1ztbhfxllii1xhq9f1v62x26,3,1,3a,69,6,2,win,go,gw,V,bacs1,1,1,0.715,1,0.0,+10,1
1ztbhfxllii1xhq9f1v62x26,3,1,3a,70,10,9,lose,go,gal,F,bacs1,1,1,0.78,1,0.0,-1,1
1ztbhfxllii1xhq9f1v62x26,3,1,3a,71,8,6,win,no-go,ngw,E,bacs1,0,0,,1,0.0,+10,0
1ztbhfxllii1xhq9f1v62x26,3,1,3a,72,10,11,lose,no-go,ngal,T,bacs1,0,0,,1,0.0,-1,0
1ztbhfxllii1xhq9f1v62x26,3,1,3a,73,1,3,win,go,gw,R,bacs1,1,0,,0,0.0,+1,0
1ztbhfxllii1xhq9f1v62x26,3,1,3a,74,7,2,win,go,gw,V,bacs1,1,0,,0,0.0,+1,0
1ztbhfxllii1xhq9f1v62x26,3,1,3a,75,11,9,lose,go,gal,F,bacs1,1,1,0.778,1,0.0,-1,1
1ztbhfxllii1xhq9f1v62x26,3,1,3a,76,9,6,win,no-go,ngw,E,bacs1,0,0,,1,0.0,+10,0
1ztbhfxllii1xhq9f1v62x26,3,1,3a,77,10,6,win,no-go,ngw,E,bacs1,0,0,,1,0.0,+10,0
1ztbhfxllii1xhq9f1v62x26,3,1,3a,78,8,2,win,go,gw,V,bacs1,1,1,0.696,1,0.0,+10,1
1ztbhfxllii1xhq9f1v62x26,3,1,3a,79,12,9,lose,go,gal,F,bacs1,1,1,0.791,1,0.0,-1,1
1ztbhfxllii1xhq9f1v62x26,3,1,3a,80,2,3,win,go,gw,R,bacs1,1,1,0.697,1,0.0,+10,1
1ztbhfxllii1xhq9f1v62x26,3,1,3a,81,1,5,win,no-go,ngw,J,bacs1,0,0,,1,0.0,+10,0
1ztbhfxllii1xhq9f1v62x26,3,1,3a,82,9,2,win,go,gw,V,bacs1,1,1,0.822,1,1.0,+1,1
1ztbhfxllii1xhq9f1v62x26,3,1,3a,83,11,6,win,no-go,ngw,E,bacs1,0,0,,1,1.0,+1,0
1ztbhfxllii1xhq9f1v62x26,3,1,3a,84,3,3,win,go,gw,R,bacs1,1,1,0.908,1,0.0,+10,1
1ztbhfxllii1xhq9f1v62x26,3,1,3a,85,4,3,win,go,gw,R,bacs1,1,1,0.673,1,0.0,+10,1
1ztbhfxllii1xhq9f1v62x26,3,1,3a,86,10,2,win,go,gw,V,bacs1,1,1,0.994,1,0.0,+10,1
1ztbhfxllii1xhq9f1v62x26,3,1,3a,87,12,6,win,no-go,ngw,E,bacs1,0,0,,1,0.0,+10,0
1ztbhfxllii1xhq9f1v62x26,3,1,3a,88,2,5,win,no-go,ngw,J,bacs1,0,1,1.074,0,0.0,+1,1
1ztbhfxllii1xhq9f1v62x26,3,1,3a,89,5,3,win,go,gw,R,bacs1,1,1,0.729,1,0.0,+10,1
1ztbhfxllii1xhq9f1v62x26,3,1,3a,90,3,5,win,no-go,ngw,J,bacs1,0,0,,1,1.0,+1,0
1ztbhfxllii1xhq9f1v62x26,3,1,3a,91,1,10,lose,no-go,ngal,B,bacs1,0,0,,1,0.0,-1,0
1ztbhfxllii1xhq9f1v62x26,3,1,3a,92,1,7,lose,go,gal,Z,bacs1,1,1,1.25,1,0.0,-1,1
1ztbhfxllii1xhq9f1v62x26,3,1,3a,93,2,7,lose,go,gal,Z,bacs1,1,0,,0,0.0,-10,0
1ztbhfxllii1xhq9f1v62x26,3,1,3a,94,6,3,win,go,gw,R,bacs1,1,1,1.082,1,0.0,+10,1
1ztbhfxllii1xhq9f1v62x26,3,1,3a,95,2,10,lose,no-go,ngal,B,bacs1,0,0,,1,1.0,-10,0
1ztbhfxllii1xhq9f1v62x26,3,1,3a,96,4,5,win,no-go,ngw,J,bacs1,0,1,0.995,0,0.0,+1,1
1ztbhfxllii1xhq9f1v62x26,3,1,3a,97,5,5,win,no-go,ngw,J,bacs1,0,0,,1,0.0,+10,0
1ztbhfxllii1xhq9f1v62x26,3,1,3a,98,3,7,lose,go,gal,Z,bacs1,1,0,,0,0.0,-10,0
1ztbhfxllii1xhq9f1v62x26,3,1,3a,99,3,10,lose,no-go,ngal,B,bacs1,0,0,,1,0.0,-1,0
1ztbhfxllii1xhq9f1v62x26,3,1,3a,100,7,3,win,go,gw,R,bacs1,1,1,0.789,1,0.0,+10,1
1ztbhfxllii1xhq9f1v62x26,3,1,3a,101,6,5,win,no-go,ngw,J,bacs1,0,0,,1,1.0,+1,0
1ztbhfxllii1xhq9f1v62x26,3,1,3a,102,4,10,lose,no-go,ngal,B,bacs1,0,0,,1,0.0,-1,1
1ztbhfxllii1xhq9f1v62x26,3,1,3a,103,8,3,win,go,gw,R,bacs1,1,1,0.657,1,0.0,+10,1
1ztbhfxllii1xhq9f1v62x26,3,1,3a,104,4,7,lose,go,gal,Z,bacs1,1,1,0.703,1,0.0,-1,1
1ztbhfxllii1xhq9f1v62x26,3,1,3a,105,5,7,lose,go,gal,Z,bacs1,1,1,0.571,1,0.0,-1,1
1ztbhfxllii1xhq9f1v62x26,3,1,3a,106,5,10,lose,no-go,ngal,B,bacs1,0,0,,1,0.0,-1,0
1ztbhfxllii1xhq9f1v62x26,3,1,3a,107,9,3,win,go,gw,R,bacs1,1,1,0.635,1,0.0,+10,1
1ztbhfxllii1xhq9f1v62x26,3,1,3a,108,7,5,win,no-go,ngw,J,bacs1,0,1,1.143,0,1.0,+10,1
1ztbhfxllii1xhq9f1v62x26,3,1,3a,109,6,7,lose,go,gal,Z,bacs1,1,1,1.023,1,0.0,-1,1
1ztbhfxllii1xhq9f1v62x26,3,1,3a,110,10,3,win,go,gw,R,bacs1,1,1,0.68,1,0.0,+10,1
1ztbhfxllii1xhq9f1v62x26,3,1,3a,111,8,5,win,no-go,ngw,J,bacs1,0,1,0.71,0,0.0,+1,1
1ztbhfxllii1xhq9f1v62x26,3,1,3a,112,6,10,lose,no-go,ngal,B,bacs1,0,0,,1,0.0,-1,0
1ztbhfxllii1xhq9f1v62x26,3,1,3a,113,11,3,win,go,gw,R,bacs1,1,1,0.627,1,0.0,+10,1
1ztbhfxllii1xhq9f1v62x26,3,1,3a,114,7,7,lose,go,gal,Z,bacs1,1,1,0.763,1,1.0,-10,1
1ztbhfxllii1xhq9f1v62x26,3,1,3a,115,9,5,win,no-go,ngw,J,bacs1,0,1,0.646,0,0.0,+1,1
1ztbhfxllii1xhq9f1v62x26,3,1,3a,116,7,10,lose,no-go,ngal,B,bacs1,0,0,,1,0.0,-1,0
1ztbhfxllii1xhq9f1v62x26,3,1,3a,117,8,7,lose,go,gal,Z,bacs1,1,1,0.819,1,0.0,-1,1
1ztbhfxllii1xhq9f1v62x26,3,1,3a,118,8,10,lose,no-go,ngal,B,bacs1,0,0,,1,0.0,-1,0
1ztbhfxllii1xhq9f1v62x26,3,1,3a,119,10,5,win,no-go,ngw,J,bacs1,0,1,0.737,0,0.0,+1,1
1ztbhfxllii1xhq9f1v62x26,3,1,3a,120,12,3,win,go,gw,R,bacs1,1,1,0.54,1,1.0,+1,1
1ztbhfxllii1xhq9f1v62x26,3,2,3b,121,1,19,lose,go,gal,O,bacs1,1,0,,0,0.0,-10,0
1ztbhfxllii1xhq9f1v62x26,3,2,3b,122,1,15,win,go,gw,I,bacs1,1,0,,0,0.0,+1,0
1ztbhfxllii1xhq9f1v62x26,3,2,3b,123,1,17,win,no-go,ngw,N,bacs1,0,0,,1,0.0,+10,0
1ztbhfxllii1xhq9f1v62x26,3,2,3b,124,1,16,win,no-go,ngw,G,bacs1,0,0,,1,1.0,+1,0
1ztbhfxllii1xhq9f1v62x26,3,2,3b,125,2,17,win,no-go,ngw,N,bacs1,0,0,,1,1.0,+1,0
1ztbhfxllii1xhq9f1v62x26,3,2,3b,126,2,19,lose,go,gal,O,bacs1,1,1,0.817,1,0.0,-1,1
1ztbhfxllii1xhq9f1v62x26,3,2,3b,127,2,15,win,go,gw,I,bacs1,1,0,,0,0.0,+1,0
1ztbhfxllii1xhq9f1v62x26,3,2,3b,128,2,16,win,no-go,ngw,G,bacs1,0,1,0.863,0,0.0,+1,1
1ztbhfxllii1xhq9f1v62x26,3,2,3b,129,3,16,win,no-go,ngw,G,bacs1,0,1,0.63,0,0.0,+1,2
1ztbhfxllii1xhq9f1v62x26,3,2,3b,130,3,15,win,go,gw,I,bacs1,1,1,0.579,1,0.0,+10,1
1ztbhfxllii1xhq9f1v62x26,3,2,3b,131,3,19,lose,go,gal,O,bacs1,1,1,0.778,1,0.0,-1,1
1ztbhfxllii1xhq9f1v62x26,3,2,3b,132,3,17,win,no-go,ngw,N,bacs1,0,1,0.744,0,0.0,+1,1
1ztbhfxllii1xhq9f1v62x26,3,2,3b,133,4,19,lose,go,gal,O,bacs1,1,1,0.796,1,0.0,-1,1
1ztbhfxllii1xhq9f1v62x26,3,2,3b,134,4,15,win,go,gw,I,bacs1,1,1,0.683,1,0.0,+10,1
1ztbhfxllii1xhq9f1v62x26,3,2,3b,135,4,16,win,no-go,ngw,G,bacs1,0,0,,1,0.0,+10,0
1ztbhfxllii1xhq9f1v62x26,3,2,3b,136,4,17,win,no-go,ngw,N,bacs1,0,1,0.977,0,0.0,+1,1
1ztbhfxllii1xhq9f1v62x26,3,2,3b,137,5,19,lose,go,gal,O,bacs1,1,1,0.694,1,1.0,-10,1
1ztbhfxllii1xhq9f1v62x26,3,2,3b,138,5,17,win,no-go,ngw,N,bacs1,0,0,,1,1.0,+1,0
1ztbhfxllii1xhq9f1v62x26,3,2,3b,139,5,15,win,go,gw,I,bacs1,1,1,0.611,1,0.0,+10,1
1ztbhfxllii1xhq9f1v62x26,3,2,3b,140,5,16,win,no-go,ngw,G,bacs1,0,1,0.957,0,1.0,+10,1
1ztbhfxllii1xhq9f1v62x26,3,2,3b,141,6,15,win,go,gw,I,bacs1,1,1,0.789,1,0.0,+10,1
1ztbhfxllii1xhq9f1v62x26,3,2,3b,142,6,16,win,no-go,ngw,G,bacs1,0,1,0.986,0,0.0,+1,1
1ztbhfxllii1xhq9f1v62x26,3,2,3b,143,6,19,lose,go,gal,O,bacs1,1,1,0.852,1,1.0,-10,1
1ztbhfxllii1xhq9f1v62x26,3,2,3b,144,6,17,win,no-go,ngw,N,bacs1,0,0,,1,0.0,+10,0
1ztbhfxllii1xhq9f1v62x26,3,2,3b,145,7,19,lose,go,gal,O,bacs1,1,1,0.741,1,0.0,-1,1
1ztbhfxllii1xhq9f1v62x26,3,2,3b,146,7,17,win,no-go,ngw,N,bacs1,0,0,,1,0.0,+10,0
1ztbhfxllii1xhq9f1v62x26,3,2,3b,147,7,15,win,go,gw,I,bacs1,1,1,0.708,1,1.0,+1,1
1ztbhfxllii1xhq9f1v62x26,3,2,3b,148,7,16,win,no-go,ngw,G,bacs1,0,0,,1,1.0,+1,0
1ztbhfxllii1xhq9f1v62x26,3,2,3b,149,8,19,lose,go,gal,O,bacs1,1,1,0.843,1,0.0,-1,1
1ztbhfxllii1xhq9f1v62x26,3,2,3b,150,8,16,win,no-go,ngw,G,bacs1,0,0,,1,0.0,+10,1
1ztbhfxllii1xhq9f1v62x26,3,2,3b,151,8,15,win,go,gw,I,bacs1,1,0,,0,0.0,+1,0
1ztbhfxllii1xhq9f1v62x26,3,2,3b,152,8,17,win,no-go,ngw,N,bacs1,0,0,,1,0.0,+10,0
1ztbhfxllii1xhq9f1v62x26,3,2,3b,153,1,23,lose,no-go,ngal,D,bacs1,0,0,,1,0.0,-1,0
1ztbhfxllii1xhq9f1v62x26,3,2,3b,154,9,17,win,no-go,ngw,N,bacs1,0,0,,1,0.0,+10,0
1ztbhfxllii1xhq9f1v62x26,3,2,3b,155,1,21,lose,go,gal,K,bacs1,1,1,0.685,1,0.0,-1,1
1ztbhfxllii1xhq9f1v62x26,3,2,3b,156,9,15,win,go,gw,I,bacs1,1,1,0.689,1,0.0,+10,1
1ztbhfxllii1xhq9f1v62x26,3,2,3b,157,2,21,lose,go,gal,K,bacs1,1,0,,0,0.0,-10,0
1ztbhfxllii1xhq9f1v62x26,3,2,3b,158,2,23,lose,no-go,ngal,D,bacs1,0,0,,1,1.0,-10,0
1ztbhfxllii1xhq9f1v62x26,3,2,3b,159,10,15,win,go,gw,I,bacs1,1,1,0.731,1,0.0,+10,1
1ztbhfxllii1xhq9f1v62x26,3,2,3b,160,10,17,win,no-go,ngw,N,bacs1,0,0,,1,0.0,+10,0
1ztbhfxllii1xhq9f1v62x26,3,2,3b,161,11,15,win,go,gw,I,bacs1,1,1,0.787,1,0.0,+10,1
1ztbhfxllii1xhq9f1v62x26,3,2,3b,162,3,23,lose,no-go,ngal,D,bacs1,0,1,0.782,0,0.0,-10,1
1ztbhfxllii1xhq9f1v62x26,3,2,3b,163,3,21,lose,go,gal,K,bacs1,1,1,0.455,1,0.0,-1,1
1ztbhfxllii1xhq9f1v62x26,3,2,3b,164,1,18,win,no-go,ngw,S,bacs1,0,0,,1,0.0,+10,0
1ztbhfxllii1xhq9f1v62x26,3,2,3b,165,4,23,lose,no-go,ngal,D,bacs1,0,1,0.926,0,0.0,-10,1
1ztbhfxllii1xhq9f1v62x26,3,2,3b,166,12,15,win,go,gw,I,bacs1,1,1,0.767,1,0.0,+10,1
1ztbhfxllii1xhq9f1v62x26,3,2,3b,167,4,21,lose,go,gal,K,bacs1,1,1,0.943,1,0.0,-1,1
1ztbhfxllii1xhq9f1v62x26,3,2,3b,168,2,18,win,no-go,ngw,S,bacs1,0,0,,1,0.0,+10,0
1ztbhfxllii1xhq9f1v62x26,3,2,3b,169,3,18,win,no-go,ngw,S,bacs1,0,0,,1,0.0,+10,0
1ztbhfxllii1xhq9f1v62x26,3,2,3b,170,1,22,lose,no-go,ngal,U,bacs1,0,0,,1,1.0,-10,0
1ztbhfxllii1xhq9f1v62x26,3,2,3b,171,5,21,lose,go,gal,K,bacs1,1,0,,0,0.0,-10,0
1ztbhfxllii1xhq9f1v62x26,3,2,3b,172,5,23,lose,no-go,ngal,D,bacs1,0,0,,1,1.0,-10,0
1ztbhfxllii1xhq9f1v62x26,3,2,3b,173,2,22,lose,no-go,ngal,U,bacs1,0,1,0.71,0,0.0,-10,1
1ztbhfxllii1xhq9f1v62x26,3,2,3b,174,6,23,lose,no-go,ngal,D,bacs1,0,1,1.062,0,0.0,-10,1
1ztbhfxllii1xhq9f1v62x26,3,2,3b,175,6,21,lose,go,gal,K,bacs1,1,1,0.418,1,0.0,-1,1
1ztbhfxllii1xhq9f1v62x26,3,2,3b,176,4,18,win,no-go,ngw,S,bacs1,0,0,,1,0.0,+10,0
1ztbhfxllii1xhq9f1v62x26,3,2,3b,177,7,23,lose,no-go,ngal,D,bacs1,0,1,0.899,0,0.0,-10,1
1ztbhfxllii1xhq9f1v62x26,3,2,3b,178,5,18,win,no-go,ngw,S,bacs1,0,0,,1,0.0,+10,0
1ztbhfxllii1xhq9f1v62x26,3,2,3b,179,7,21,lose,go,gal,K,bacs1,1,1,0.733,1,0.0,-1,1
1ztbhfxllii1xhq9f1v62x26,3,2,3b,180,3,22,lose,no-go,ngal,U,bacs1,0,1,0.682,0,0.0,-10,1
1ztbhfxllii1xhq9f1v62x26,3,2,3b,181,8,23,lose,no-go,ngal,D,bacs1,0,0,,1,1.0,-10,0
1ztbhfxllii1xhq9f1v62x26,3,2,3b,182,8,21,lose,go,gal,K,bacs1,1,1,0.451,1,0.0,-1,1
1ztbhfxllii1xhq9f1v62x26,3,2,3b,183,4,22,lose,no-go,ngal,U,bacs1,0,1,0.793,0,1.0,-1,1
1ztbhfxllii1xhq9f1v62x26,3,2,3b,184,6,18,win,no-go,ngw,S,bacs1,0,0,,1,1.0,+1,0
1ztbhfxllii1xhq9f1v62x26,3,2,3b,185,9,21,lose,go,gal,K,bacs1,1,1,0.722,1,0.0,-1,1
1ztbhfxllii1xhq9f1v62x26,3,2,3b,186,5,22,lose,no-go,ngal,U,bacs1,0,1,0.67,0,0.0,-10,1
1ztbhfxllii1xhq9f1v62x26,3,2,3b,187,7,18,win,no-go,ngw,S,bacs1,0,0,,1,1.0,+1,0
1ztbhfxllii1xhq9f1v62x26,3,2,3b,188,9,23,lose,no-go,ngal,D,bacs1,0,0,,1,0.0,-1,0
1ztbhfxllii1xhq9f1v62x26,3,2,3b,189,10,23,lose,no-go,ngal,D,bacs1,0,0,,1,1.0,-10,0
1ztbhfxllii1xhq9f1v62x26,3,2,3b,190,6,22,lose,no-go,ngal,U,bacs1,0,0,,1,0.0,-1,1
1ztbhfxllii1xhq9f1v62x26,3,2,3b,191,10,21,lose,go,gal,K,bacs1,1,1,0.768,1,0.0,-1,1
1ztbhfxllii1xhq9f1v62x26,3,2,3b,192,8,18,win,no-go,ngw,S,bacs1,0,1,1.221,0,1.0,+10,1
1ztbhfxllii1xhq9f1v62x26,3,2,3b,193,9,18,win,no-go,ngw,S,bacs1,0,1,0.724,0,1.0,+10,1
1ztbhfxllii1xhq9f1v62x26,3,2,3b,194,11,21,lose,go,gal,K,bacs1,1,1,0.668,1,0.0,-1,1
1ztbhfxllii1xhq9f1v62x26,3,2,3b,195,7,22,lose,no-go,ngal,U,bacs1,0,0,,1,0.0,-1,0
1ztbhfxllii1xhq9f1v62x26,3,2,3b,196,1,24,lose,no-go,ngal,M,bacs1,0,0,,1,0.0,-1,0
1ztbhfxllii1xhq9f1v62x26,3,2,3b,197,12,21,lose,go,gal,K,bacs1,1,1,0.716,1,0.0,-1,1
1ztbhfxllii1xhq9f1v62x26,3,2,3b,198,10,18,win,no-go,ngw,S,bacs1,0,1,0.987,0,0.0,+1,1
1ztbhfxllii1xhq9f1v62x26,3,2,3b,199,8,22,lose,no-go,ngal,U,bacs1,0,1,0.944,0,1.0,-1,1
1ztbhfxllii1xhq9f1v62x26,3,2,3b,200,2,24,lose,no-go,ngal,M,bacs1,0,0,,1,1.0,-10,0
1ztbhfxllii1xhq9f1v62x26,3,2,3b,201,1,20,lose,go,gal,H,bacs1,1,0,,0,0.0,-10,0
1ztbhfxllii1xhq9f1v62x26,3,2,3b,202,1,14,win,go,gw,P,bacs1,1,1,0.908,1,0.0,+10,1
1ztbhfxllii1xhq9f1v62x26,3,2,3b,203,3,24,lose,no-go,ngal,M,bacs1,0,1,0.867,0,0.0,-10,2
1ztbhfxllii1xhq9f1v62x26,3,2,3b,204,11,18,win,no-go,ngw,S,bacs1,0,1,0.993,0,0.0,+1,1
1ztbhfxllii1xhq9f1v62x26,3,2,3b,205,12,18,win,no-go,ngw,S,bacs1,0,0,,1,0.0,+10,0
1ztbhfxllii1xhq9f1v62x26,3,2,3b,206,4,24,lose,no-go,ngal,M,bacs1,0,0,,1,0.0,-1,0
1ztbhfxllii1xhq9f1v62x26,3,2,3b,207,2,14,win,go,gw,P,bacs1,1,1,1.009,1,0.0,+10,1
1ztbhfxllii1xhq9f1v62x26,3,2,3b,208,2,20,lose,go,gal,H,bacs1,1,1,0.646,1,0.0,-1,1
1ztbhfxllii1xhq9f1v62x26,3,2,3b,209,1,13,win,go,gw,Y,bacs1,1,0,,0,0.0,+1,0
1ztbhfxllii1xhq9f1v62x26,3,2,3b,210,5,24,lose,no-go,ngal,M,bacs1,0,1,0.943,0,1.0,-1,1
1ztbhfxllii1xhq9f1v62x26,3,2,3b,211,3,20,lose,go,gal,H,bacs1,1,1,0.732,1,1.0,-10,1
1ztbhfxllii1xhq9f1v62x26,3,2,3b,212,3,14,win,go,gw,P,bacs1,1,1,0.62,1,0.0,+10,2
1ztbhfxllii1xhq9f1v62x26,3,2,3b,213,4,20,lose,go,gal,H,bacs1,1,1,0.752,1,0.0,-1,1
1ztbhfxllii1xhq9f1v62x26,3,2,3b,214,6,24,lose,no-go,ngal,M,bacs1,0,1,0.74,0,0.0,-10,1
1ztbhfxllii1xhq9f1v62x26,3,2,3b,215,4,14,win,go,gw,P,bacs1,1,1,0.62,1,0.0,+10,1
1ztbhfxllii1xhq9f1v62x26,3,2,3b,216,2,13,win,go,gw,Y,bacs1,1,1,0.958,1,0.0,+10,1
1ztbhfxllii1xhq9f1v62x26,3,2,3b,217,3,13,win,go,gw,Y,bacs1,1,1,0.604,1,1.0,+1,1
1ztbhfxllii1xhq9f1v62x26,3,2,3b,218,7,24,lose,no-go,ngal,M,bacs1,0,0,,1,0.0,-1,0
1ztbhfxllii1xhq9f1v62x26,3,2,3b,219,5,14,win,go,gw,P,bacs1,1,1,0.691,1,0.0,+10,1
1ztbhfxllii1xhq9f1v62x26,3,2,3b,220,5,20,lose,go,gal,H,bacs1,1,1,0.861,1,0.0,-1,1
1ztbhfxllii1xhq9f1v62x26,3,2,3b,221,6,14,win,go,gw,P,bacs1,1,1,0.698,1,0.0,+10,1
1ztbhfxllii1xhq9f1v62x26,3,2,3b,222,6,20,lose,go,gal,H,bacs1,1,1,0.903,1,0.0,-1,1
1ztbhfxllii1xhq9f1v62x26,3,2,3b,223,4,13,win,go,gw,Y,bacs1,1,1,1.253,1,0.0,+10,1
1ztbhfxllii1xhq9f1v62x26,3,2,3b,224,8,24,lose,no-go,ngal,M,bacs1,0,1,0.288,0,0.0,-10,1
1ztbhfxllii1xhq9f1v62x26,3,2,3b,225,7,20,lose,go,gal,H,bacs1,1,1,0.798,1,0.0,-1,1
1ztbhfxllii1xhq9f1v62x26,3,2,3b,226,5,13,win,go,gw,Y,bacs1,1,1,0.702,1,0.0,+10,1
1ztbhfxllii1xhq9f1v62x26,3,2,3b,227,7,14,win,go,gw,P,bacs1,1,1,0.73,1,0.0,+10,1
1ztbhfxllii1xhq9f1v62x26,3,2,3b,228,9,24,lose,no-go,ngal,M,bacs1,0,0,,1,0.0,-1,0
1ztbhfxllii1xhq9f1v62x26,3,2,3b,229,10,24,lose,no-go,ngal,M,bacs1,0,0,,1,1.0,-10,0
1ztbhfxllii1xhq9f1v62x26,3,2,3b,230,6,13,win,go,gw,Y,bacs1,1,1,0.788,1,1.0,+1,1
1ztbhfxllii1xhq9f1v62x26,3,2,3b,231,8,20,lose,go,gal,H,bacs1,1,1,0.802,1,0.0,-1,1
1ztbhfxllii1xhq9f1v62x26,3,2,3b,232,8,14,win,go,gw,P,bacs1,1,1,0.742,1,0.0,+10,1
1ztbhfxllii1xhq9f1v62x26,3,2,3b,233,7,13,win,go,gw,Y,bacs1,1,0,,0,1.0,+10,0
1ztbhfxllii1xhq9f1v62x26,3,2,3b,234,9,20,lose,go,gal,H,bacs1,1,1,0.764,1,0.0,-1,1
1ztbhfxllii1xhq9f1v62x26,3,2,3b,235,9,14,win,go,gw,P,bacs1,1,1,0.795,1,0.0,+10,1
1ztbhfxllii1xhq9f1v62x26,3,2,3b,236,11,24,lose,no-go,ngal,M,bacs1,0,0,,1,0.0,-1,0
1ztbhfxllii1xhq9f1v62x26,3,2,3b,237,12,24,lose,no-go,ngal,M,bacs1,0,1,0.995,0,0.0,-10,1
1ztbhfxllii1xhq9f1v62x26,3,2,3b,238,10,14,win,go,gw,P,bacs1,1,1,0.664,1,0.0,+10,1
1ztbhfxllii1xhq9f1v62x26,3,2,3b,239,10,20,lose,go,gal,H,bacs1,1,1,0.783,1,1.0,-10,1
1ztbhfxllii1xhq9f1v62x26,3,2,3b,240,8,13,win,go,gw,Y,bacs1,1,0,,0,1.0,+10,1
2b5obc6ufsggq6sv58asdi6i,3,1,3b,1,1,15,win,go,gw,J,bacs1,1,1,0.521,1,0.0,+10,1
2b5obc6ufsggq6sv58asdi6i,3,1,3b,2,1,19,lose,go,gal,R,bacs1,1,1,0.643,1,1.0,-10,1
2b5obc6ufsggq6sv58asdi6i,3,1,3b,3,1,16,win,no-go,ngw,Z,bacs1,0,1,1.053,0,0.0,+1,1
2b5obc6ufsggq6sv58asdi6i,3,1,3b,4,1,17,win,no-go,ngw,B,bacs1,0,1,0.837,0,0.0,+1,1
2b5obc6ufsggq6sv58asdi6i,3,1,3b,5,2,19,lose,go,gal,R,bacs1,1,0,,0,0.0,-10,0
2b5obc6ufsggq6sv58asdi6i,3,1,3b,6,2,16,win,no-go,ngw,Z,bacs1,0,0,,1,0.0,+10,0
2b5obc6ufsggq6sv58asdi6i,3,1,3b,7,2,15,win,go,gw,J,bacs1,1,1,0.644,1,0.0,+10,1
2b5obc6ufsggq6sv58asdi6i,3,1,3b,8,2,17,win,no-go,ngw,B,bacs1,0,0,,1,1.0,+1,0
2b5obc6ufsggq6sv58asdi6i,3,1,3b,9,3,17,win,no-go,ngw,B,bacs1,0,1,0.674,0,0.0,+1,1
2b5obc6ufsggq6sv58asdi6i,3,1,3b,10,3,19,lose,go,gal,R,bacs1,1,0,,0,0.0,-10,0
2b5obc6ufsggq6sv58asdi6i,3,1,3b,11,3,16,win,no-go,ngw,Z,bacs1,0,0,,1,0.0,+10,0
2b5obc6ufsggq6sv58asdi6i,3,1,3b,12,3,15,win,go,gw,J,bacs1,1,1,0.888,1,0.0,+10,1
2b5obc6ufsggq6sv58asdi6i,3,1,3b,13,4,19,lose,go,gal,R,bacs1,1,1,0.491,1,0.0,-1,1
2b5obc6ufsggq6sv58asdi6i,3,1,3b,14,4,15,win,go,gw,J,bacs1,1,1,0.604,1,0.0,+10,1
2b5obc6ufsggq6sv58asdi6i,3,1,3b,15,4,17,win,no-go,ngw,B,bacs1,0,1,0.428,0,0.0,+1,1
2b5obc6ufsggq6sv58asdi6i,3,1,3b,16,4,16,win,no-go,ngw,Z,bacs1,0,1,0.918,0,0.0,+1,1
2b5obc6ufsggq6sv58asdi6i,3,1,3b,17,5,17,win,no-go,ngw,B,bacs1,0,1,0.703,0,0.0,+1,1
2b5obc6ufsggq6sv58asdi6i,3,1,3b,18,5,15,win,go,gw,J,bacs1,1,1,0.581,1,0.0,+10,1
2b5obc6ufsggq6sv58asdi6i,3,1,3b,19,5,16,win,no-go,ngw,Z,bacs1,0,0,,1,0.0,+10,0
2b5obc6ufsggq6sv58asdi6i,3,1,3b,20,5,19,lose,go,gal,R,bacs1,1,1,1.192,1,0.0,-1,1
2b5obc6ufsggq6sv58asdi6i,3,1,3b,21,6,16,win,no-go,ngw,Z,bacs1,0,0,,1,0.0,+10,0
2b5obc6ufsggq6sv58asdi6i,3,1,3b,22,6,19,lose,go,gal,R,bacs1,1,1,0.877,1,0.0,-1,1
2b5obc6ufsggq6sv58asdi6i,3,1,3b,23,6,17,win,no-go,ngw,B,bacs1,0,1,0.756,0,0.0,+1,1
2b5obc6ufsggq6sv58asdi6i,3,1,3b,24,6,15,win,go,gw,J,bacs1,1,1,0.647,1,0.0,+10,1
2b5obc6ufsggq6sv58asdi6i,3,1,3b,25,7,16,win,no-go,ngw,Z,bacs1,0,0,,1,0.0,+10,0
2b5obc6ufsggq6sv58asdi6i,3,1,3b,26,7,19,lose,go,gal,R,bacs1,1,1,0.721,1,0.0,-1,1
2b5obc6ufsggq6sv58asdi6i,3,1,3b,27,7,17,win,no-go,ngw,B,bacs1,0,1,0.768,0,0.0,+1,1
