[{"slider_type":"valence","raw_loc":742,"loc":0.984,"trial_type":"affective-slider","trial_index":0,"time_elapsed":4504,"internal_node_id":"0.0-0.0","task_version":"test-retest-t2"},{"responses":{"Q02":"0","Q04":"0","Q05":"0","Q08":"0","Q01":"0","Q03":"0","Q06":"0","Q07":"0"},"rt":16464.64000013657,"survey":"gad7","trial_type":"survey-template","trial_index":1,"time_elapsed":20972,"internal_node_id":"0.0-1.0","task_version":"test-retest-t2"},{"view_history":"[{\"page_index\":0,\"viewing_time\":4841.95000003092},{\"page_index\":1,\"viewing_time\":1437.0249998755753},{\"page_index\":2,\"viewing_time\":2616.1400000564754},{\"page_index\":3,\"viewing_time\":11138.31500010565},{\"page_index\":4,\"viewing_time\":4122.7849998977035},{\"page_index\":5,\"viewing_time\":3053.92500013113}]","rt":27211.475000018254,"trial_type":"pit-instructions","trial_index":2,"time_elapsed":48187,"internal_node_id":"0.0-2.0-0.0","task_version":"test-retest-t2"},{"Rune":"rune_00_ingz","Hex":"#FFFFF080","Correct":32,"Choice":32,"RT":331.9000001065433,"Accuracy":1,"Outcome":"+10","Keys":[1832.5349998194724],"TotalKeys":1,"Block":0,"Action":"Go","trial_type":"pit-trial","trial_index":3,"time_elapsed":51025,"internal_node_id":"0.0-2.0-1.0-0.0","task_version":"test-retest-t2"},{"Rune":"rune_00_ingz","Hex":"#FFFFF080","Correct":32,"Choice":32,"RT":224.65500002726912,"Accuracy":1,"Outcome":"+10","Keys":[1724.7900001239032],"TotalKeys":1,"Block":0,"Action":"Go","trial_type":"pit-trial","trial_index":4,"time_elapsed":53753,"internal_node_id":"0.0-2.0-1.0-0.1","task_version":"test-retest-t2"},{"Rune":"rune_00_ingz","Hex":"#FFFFF080","Correct":32,"Choice":32,"RT":229.85000000335276,"Accuracy":1,"Outcome":"+10","Keys":[1730.3750000428408],"TotalKeys":1,"Block":0,"Action":"Go","trial_type":"pit-trial","trial_index":5,"time_elapsed":56488,"internal_node_id":"0.0-2.0-1.0-0.2","task_version":"test-retest-t2"},{"Rune":"rune_00_ingz","Hex":"#FFFFF080","Correct":32,"Choice":32,"RT":295.4500000923872,"Accuracy":1,"Outcome":"+10","Keys":[1796.0099999327213],"TotalKeys":1,"Block":0,"Action":"Go","trial_type":"pit-trial","trial_index":6,"time_elapsed":59291,"internal_node_id":"0.0-2.0-1.0-0.3","task_version":"test-retest-t2"},{"view_history":"[{\"page_index\":0,\"viewing_time\":2237.6249998342246}]","rt":2238.1499998737127,"trial_type":"pit-instructions","trial_index":7,"time_elapsed":61531,"internal_node_id":"0.0-2.0-2.0","task_version":"test-retest-t2"},{"Rune":"rune_00_isaz","Hex":"#FFFFF080","Correct":-1,"Choice":-1,"RT":-1,"Accuracy":1,"Outcome":"+10","Keys":[],"TotalKeys":0,"Block":0,"Action":"No-Go","trial_type":"pit-trial","trial_index":8,"time_elapsed":65544,"internal_node_id":"0.0-2.0-3.0-0.0","task_version":"test-retest-t2"},{"Rune":"rune_00_isaz","Hex":"#FFFFF080","Correct":-1,"Choice":-1,"RT":-1,"Accuracy":1,"Outcome":"+10","Keys":[],"TotalKeys":0,"Block":0,"Action":"No-Go","trial_type":"pit-trial","trial_index":9,"time_elapsed":69554,"internal_node_id":"0.0-2.0-3.0-0.1","task_version":"test-retest-t2"},{"Rune":"rune_00_isaz","Hex":"#FFFFF080","Correct":-1,"Choice":-1,"RT":-1,"Accuracy":1,"Outcome":"+10","Keys":[],"TotalKeys":0,"Block":0,"Action":"No-Go","trial_type":"pit-trial","trial_index":10,"time_elapsed":73566,"internal_node_id":"0.0-2.0-3.0-0.2","task_version":"test-retest-t2"},{"Rune":"rune_00_isaz","Hex":"#FFFFF080","Correct":-1,"Choice":-1,"RT":-1,"Accuracy":1,"Outcome":"+10","Keys":[],"TotalKeys":0,"Block":0,"Action":"No-Go","trial_type":"pit-trial","trial_index":11,"time_elapsed":77575,"internal_node_id":"0.0-2.0-3.0-0.3","task_version":"test-retest-t2"},{"view_history":"[{\"page_index\":0,\"viewing_time\":1774.4400000665337},{\"page_index\":1,\"viewing_time\":17590.55000008084},{\"page_index\":2,\"viewing_time\":8717.219999991357},{\"page_index\":3,\"viewing_time\":3739.2649999819696},{\"page_index\":4,\"viewing_time\":4090.23500001058},{\"page_index\":5,\"viewing_time\":3593.959999969229},{\"page_index\":6,\"viewing_time\":5142.334999982268},{\"page_index\":7,\"viewing_time\":2535.344999982044}]","rt":47183.77500004135,"trial_type":"pit-instructions","trial_index":12,"time_elapsed":124759,"internal_node_id":"0.0-2.0-4.0","task_version":"test-retest-t2"},{"responses":["Do nothing","+10","-1","True","Yes"],"num_errors":0,"rt":17817.51500000246,"trial_type":"pit-comprehension","trial_index":13,"time_elapsed":142579,"internal_node_id":"0.0-2.0-5.0","task_version":"test-retest-t2"},{"trial_type":"call-function","trial_index":14,"time_elapsed":142582,"internal_node_id":"0.0-3.0","task_version":"test-retest-t2"},{"view_history":"[{\"page_index\":0,\"viewing_time\":1525.7899998687208},{\"page_index\":1,\"viewing_time\":1461.0600001178682},{\"page_index\":2,\"viewing_time\":5859.010000014678}]","rt":8846.384999807924,"trial_type":"pit-instructions","trial_index":15,"time_elapsed":151429,"internal_node_id":"0.0-4.0","task_version":"test-retest-t2"},{"Rune":"rune_04_ac","Hex":"#ffcc3399","Correct":32,"Choice":32,"RT":442.61000002734363,"Accuracy":1,"Outcome":"+10","Keys":[1943.4149998705834],"TotalKeys":1,"Block":1,"Trial":1,"Robot":1,"Valence":"Win","Action":"Go","Sham":0,"Color":"yellow","trial_type":"pit-trial","trial_index":16,"time_elapsed":154381,"internal_node_id":"0.0-5.0","task_version":"test-retest-t2"},{"Rune":"rune_04_wunjo","Hex":"#3366ff99","Correct":32,"Choice":-1,"RT":-1,"Accuracy":0,"Outcome":"-10","Keys":[],"TotalKeys":0,"Block":1,"Trial":2,"Robot":3,"Valence":"Lose","Action":"Go","Sham":0,"Color":"blue","trial_type":"pit-trial","trial_index":17,"time_elapsed":158392,"internal_node_id":"0.0-6.0","task_version":"test-retest-t2"},{"Rune":"rune_04_iwaz","Hex":"#3366ff99","Correct":-1,"Choice":-1,"RT":-1,"Accuracy":1,"Outcome":"-1","Keys":[],"TotalKeys":0,"Block":1,"Trial":3,"Robot":4,"Valence":"Lose","Action":"No-Go","Sham":0,"Color":"blue","trial_type":"pit-trial","trial_index":18,"time_elapsed":162401,"internal_node_id":"0.0-7.0","task_version":"test-retest-t2"},{"Rune":"rune_04_dagaz","Hex":"#ffcc3399","Correct":-1,"Choice":-1,"RT":-1,"Accuracy":1,"Outcome":"+10","Keys":[],"TotalKeys":0,"Block":1,"Trial":4,"Robot":2,"Valence":"Win","Action":"No-Go","Sham":0,"Color":"yellow","trial_type":"pit-trial","trial_index":19,"time_elapsed":166412,"internal_node_id":"0.0-8.0","task_version":"test-retest-t2"},{"Rune":"rune_04_ac","Hex":"#ffcc3399","Correct":32,"Choice":32,"RT":483.74499985948205,"Accuracy":1,"Outcome":"+1","Keys":[1984.1699998360127],"TotalKeys":1,"Block":1,"Trial":5,"Robot":1,"Valence":"Win","Action":"Go","Sham":1,"Color":"yellow","trial_type":"pit-trial","trial_index":20,"time_elapsed":169402,"internal_node_id":"0.0-9.0","task_version":"test-retest-t2"},{"Rune":"rune_04_dagaz","Hex":"#ffcc3399","Correct":-1,"Choice":32,"RT":587.2949999757111,"Accuracy":0,"Outcome":"+1","Keys":[2088.105000089854],"TotalKeys":1,"Block":1,"Trial":6,"Robot":2,"Valence":"Win","Action":"No-Go","Sham":0,"Color":"yellow","trial_type":"pit-trial","trial_index":21,"time_elapsed":172497,"internal_node_id":"0.0-10.0","task_version":"test-retest-t2"},{"Rune":"rune_04_iwaz","Hex":"#3366ff99","Correct":-1,"Choice":32,"RT":534.8050000611693,"Accuracy":0,"Outcome":"-10","Keys":[2035.2400001138449],"TotalKeys":1,"Block":1,"Trial":7,"Robot":4,"Valence":"Lose","Action":"No-Go","Sham":0,"Color":"blue","trial_type":"pit-trial","trial_index":22,"time_elapsed":175539,"internal_node_id":"0.0-11.0","task_version":"test-retest-t2"},{"Rune":"rune_04_wunjo","Hex":"#3366ff99","Correct":32,"Choice":32,"RT":474.7000001370907,"Accuracy":1,"Outcome":"-1","Keys":[1975.0099999364465],"TotalKeys":1,"Block":1,"Trial":8,"Robot":3,"Valence":"Lose","Action":"Go","Sham":0,"Color":"blue","trial_type":"pit-trial","trial_index":23,"time_elapsed":178517,"internal_node_id":"0.0-12.0","task_version":"test-retest-t2"},{"Rune":"rune_04_ac","Hex":"#ffcc3399","Correct":32,"Choice":32,"RT":536.7499999701977,"Accuracy":1,"Outcome":"+10","Keys":[2039.7899998351932],"TotalKeys":1,"Block":1,"Trial":9,"Robot":1,"Valence":"Win","Action":"Go","Sham":0,"Color":"yellow","trial_type":"pit-trial","trial_index":24,"time_elapsed":181562,"internal_node_id":"0.0-13.0","task_version":"test-retest-t2"},{"Rune":"rune_04_iwaz","Hex":"#3366ff99","Correct":-1,"Choice":-1,"RT":-1,"Accuracy":1,"Outcome":"-10","Keys":[],"TotalKeys":0,"Block":1,"Trial":10,"Robot":4,"Valence":"Lose","Action":"No-Go","Sham":1,"Color":"blue","trial_type":"pit-trial","trial_index":25,"time_elapsed":185569,"internal_node_id":"0.0-14.0","task_version":"test-retest-t2"},{"Rune":"rune_04_wunjo","Hex":"#3366ff99","Correct":32,"Choice":32,"RT":559.2099998611957,"Accuracy":1,"Outcome":"-1","Keys":[2060.4099999181926],"TotalKeys":1,"Block":1,"Trial":11,"Robot":3,"Valence":"Lose","Action":"Go","Sham":0,"Color":"blue","trial_type":"pit-trial","trial_index":26,"time_elapsed":188635,"internal_node_id":"0.0-15.0","task_version":"test-retest-t2"},{"Rune":"rune_04_dagaz","Hex":"#ffcc3399","Correct":-1,"Choice":-1,"RT":-1,"Accuracy":1,"Outcome":"+10","Keys":[],"TotalKeys":0,"Block":1,"Trial":12,"Robot":2,"Valence":"Win","Action":"No-Go","Sham":0,"Color":"yellow","trial_type":"pit-trial","trial_index":27,"time_elapsed":192646,"internal_node_id":"0.0-16.0","task_version":"test-retest-t2"},{"Rune":"rune_04_iwaz","Hex":"#3366ff99","Correct":-1,"Choice":32,"RT":610.4999999515712,"Accuracy":0,"Outcome":"-10","Keys":[2111.265000188723],"TotalKeys":1,"Block":1,"Trial":13,"Robot":4,"Valence":"Lose","Action":"No-Go","Sham":0,"Color":"blue","trial_type":"pit-trial","trial_index":28,"time_elapsed":195763,"internal_node_id":"0.0-17.0","task_version":"test-retest-t2"},{"Rune":"rune_04_wunjo","Hex":"#3366ff99","Correct":32,"Choice":32,"RT":466.96999995037913,"Accuracy":1,"Outcome":"-1","Keys":[1967.6050001289696],"TotalKeys":1,"Block":1,"Trial":14,"Robot":3,"Valence":"Lose","Action":"Go","Sham":0,"Color":"blue","trial_type":"pit-trial","trial_index":29,"time_elapsed":198738,"internal_node_id":"0.0-18.0","task_version":"test-retest-t2"},{"Rune":"rune_04_ac","Hex":"#ffcc3399","Correct":32,"Choice":32,"RT":301.63499992340803,"Accuracy":1,"Outcome":"+10","Keys":[1802.4500000756234],"TotalKeys":1,"Block":1,"Trial":15,"Robot":1,"Valence":"Win","Action":"Go","Sham":0,"Color":"yellow","trial_type":"pit-trial","trial_index":30,"time_elapsed":201545,"internal_node_id":"0.0-19.0","task_version":"test-retest-t2"},{"Rune":"rune_04_dagaz","Hex":"#ffcc3399","Correct":-1,"Choice":-1,"RT":-1,"Accuracy":1,"Outcome":"+10","Keys":[],"TotalKeys":0,"Block":1,"Trial":16,"Robot":2,"Valence":"Win","Action":"No-Go","Sham":0,"Color":"yellow","trial_type":"pit-trial","trial_index":31,"time_elapsed":205553,"internal_node_id":"0.0-20.0","task_version":"test-retest-t2"},{"Rune":"rune_04_wunjo","Hex":"#3366ff99","Correct":32,"Choice":32,"RT":417.7999999374151,"Accuracy":1,"Outcome":"-10","Keys":[1920.2450001612306],"TotalKeys":1,"Block":1,"Trial":17,"Robot":3,"Valence":"Lose","Action":"Go","Sham":1,"Color":"blue","trial_type":"pit-trial","trial_index":32,"time_elapsed":208481,"internal_node_id":"0.0-21.0","task_version":"test-retest-t2"},{"Rune":"rune_04_iwaz","Hex":"#3366ff99","Correct":-1,"Choice":-1,"RT":-1,"Accuracy":1,"Outcome":"-1","Keys":[],"TotalKeys":0,"Block":1,"Trial":18,"Robot":4,"Valence":"Lose","Action":"No-Go","Sham":0,"Color":"blue","trial_type":"pit-trial","trial_index":33,"time_elapsed":212489,"internal_node_id":"0.0-22.0","task_version":"test-retest-t2"},{"Rune":"rune_04_dagaz","Hex":"#ffcc3399","Correct":-1,"Choice":-1,"RT":-1,"Accuracy":1,"Outcome":"+1","Keys":[],"TotalKeys":0,"Block":1,"Trial":19,"Robot":2,"Valence":"Win","Action":"No-Go","Sham":1,"Color":"yellow","trial_type":"pit-trial","trial_index":34,"time_elapsed":216495,"internal_node_id":"0.0-23.0","task_version":"test-retest-t2"},{"Rune":"rune_04_ac","Hex":"#ffcc3399","Correct":32,"Choice":32,"RT":548.1399998534471,"Accuracy":1,"Outcome":"+10","Keys":[2048.3200000599027],"TotalKeys":1,"Block":1,"Trial":20,"Robot":1,"Valence":"Win","Action":"Go","Sham":0,"Color":"yellow","trial_type":"pit-trial","trial_index":35,"time_elapsed":219551,"internal_node_id":"0.0-24.0","task_version":"test-retest-t2"},{"Rune":"rune_04_dagaz","Hex":"#ffcc3399","Correct":-1,"Choice":-1,"RT":-1,"Accuracy":1,"Outcome":"+1","Keys":[],"TotalKeys":0,"Block":1,"Trial":21,"Robot":2,"Valence":"Win","Action":"No-Go","Sham":1,"Color":"yellow","trial_type":"pit-trial","trial_index":36,"time_elapsed":223562,"internal_node_id":"0.0-25.0","task_version":"test-retest-t2"},{"Rune":"rune_04_iwaz","Hex":"#3366ff99","Correct":-1,"Choice":-1,"RT":-1,"Accuracy":1,"Outcome":"-1","Keys":[],"TotalKeys":0,"Block":1,"Trial":22,"Robot":4,"Valence":"Lose","Action":"No-Go","Sham":0,"Color":"blue","trial_type":"pit-trial","trial_index":37,"time_elapsed":227570,"internal_node_id":"0.0-26.0","task_version":"test-retest-t2"},{"Rune":"rune_04_ac","Hex":"#ffcc3399","Correct":32,"Choice":32,"RT":608.3899999503046,"Accuracy":1,"Outcome":"+1","Keys":[2108.6500000674278],"TotalKeys":1,"Block":1,"Trial":23,"Robot":1,"Valence":"Win","Action":"Go","Sham":1,"Color":"yellow","trial_type":"pit-trial","trial_index":38,"time_elapsed":230686,"internal_node_id":"0.0-27.0","task_version":"test-retest-t2"},{"Rune":"rune_04_wunjo","Hex":"#3366ff99","Correct":32,"Choice":32,"RT":374.75000019185245,"Accuracy":1,"Outcome":"-10","Keys":[1874.9649999663234],"TotalKeys":1,"Block":1,"Trial":24,"Robot":3,"Valence":"Lose","Action":"Go","Sham":1,"Color":"blue","trial_type":"pit-trial","trial_index":39,"time_elapsed":233569,"internal_node_id":"0.0-28.0","task_version":"test-retest-t2"},{"Rune":"rune_04_wunjo","Hex":"#3366ff99","Correct":32,"Choice":32,"RT":393.28499999828637,"Accuracy":1,"Outcome":"-1","Keys":[1893.8400000333786],"TotalKeys":1,"Block":1,"Trial":25,"Robot":3,"Valence":"Lose","Action":"Go","Sham":0,"Color":"blue","trial_type":"pit-trial","trial_index":40,"time_elapsed":236467,"internal_node_id":"0.0-29.0","task_version":"test-retest-t2"},{"Rune":"rune_04_iwaz","Hex":"#3366ff99","Correct":-1,"Choice":-1,"RT":-1,"Accuracy":1,"Outcome":"-1","Keys":[],"TotalKeys":0,"Block":1,"Trial":26,"Robot":4,"Valence":"Lose","Action":"No-Go","Sham":0,"Color":"blue","trial_type":"pit-trial","trial_index":41,"time_elapsed":240477,"internal_node_id":"0.0-30.0","task_version":"test-retest-t2"},{"Rune":"rune_04_dagaz","Hex":"#ffcc3399","Correct":-1,"Choice":32,"RT":318.10500007122755,"Accuracy":0,"Outcome":"+1","Keys":[1819.4150000344962],"TotalKeys":1,"Block":1,"Trial":27,"Robot":2,"Valence":"Win","Action":"No-Go","Sham":0,"Color":"yellow","trial_type":"pit-trial","trial_index":42,"time_elapsed":243299,"internal_node_id":"0.0-31.0","task_version":"test-retest-t2"},{"Rune":"rune_04_ac","Hex":"#ffcc3399","Correct":32,"Choice":32,"RT":431.15999992005527,"Accuracy":1,"Outcome":"+10","Keys":[1931.7699999082834],"TotalKeys":1,"Block":1,"Trial":28,"Robot":1,"Valence":"Win","Action":"Go","Sham":0,"Color":"yellow","trial_type":"pit-trial","trial_index":43,"time_elapsed":246238,"internal_node_id":"0.0-32.0","task_version":"test-retest-t2"},{"Rune":"rune_04_dagaz","Hex":"#ffcc3399","Correct":-1,"Choice":32,"RT":462.32499997131526,"Accuracy":0,"Outcome":"+1","Keys":[1962.485000025481],"TotalKeys":1,"Block":1,"Trial":29,"Robot":2,"Valence":"Win","Action":"No-Go","Sham":0,"Color":"yellow","trial_type":"pit-trial","trial_index":44,"time_elapsed":249204,"internal_node_id":"0.0-33.0","task_version":"test-retest-t2"},{"Rune":"rune_04_wunjo","Hex":"#3366ff99","Correct":32,"Choice":32,"RT":381.410000147298,"Accuracy":1,"Outcome":"-1","Keys":[1882.3000001721084],"TotalKeys":1,"Block":1,"Trial":30,"Robot":3,"Valence":"Lose","Action":"Go","Sham":0,"Color":"blue","trial_type":"pit-trial","trial_index":45,"time_elapsed":252094,"internal_node_id":"0.0-34.0","task_version":"test-retest-t2"},{"Rune":"rune_04_iwaz","Hex":"#3366ff99","Correct":-1,"Choice":-1,"RT":-1,"Accuracy":1,"Outcome":"-1","Keys":[],"TotalKeys":0,"Block":1,"Trial":31,"Robot":4,"Valence":"Lose","Action":"No-Go","Sham":0,"Color":"blue","trial_type":"pit-trial","trial_index":46,"time_elapsed":256105,"internal_node_id":"0.0-35.0","task_version":"test-retest-t2"},{"Rune":"rune_04_ac","Hex":"#ffcc3399","Correct":32,"Choice":32,"RT":582.929999800399,"Accuracy":1,"Outcome":"+10","Keys":[2083.525000140071],"TotalKeys":1,"Block":1,"Trial":32,"Robot":1,"Valence":"Win","Action":"Go","Sham":0,"Color":"yellow","trial_type":"pit-trial","trial_index":47,"time_elapsed":259194,"internal_node_id":"0.0-36.0","task_version":"test-retest-t2"},{"Rune":"rune_04_iwaz","Hex":"#3366ff99","Correct":-1,"Choice":-1,"RT":-1,"Accuracy":1,"Outcome":"-1","Keys":[],"TotalKeys":0,"Block":1,"Trial":33,"Robot":4,"Valence":"Lose","Action":"No-Go","Sham":0,"Color":"blue","trial_type":"pit-trial","trial_index":48,"time_elapsed":263207,"internal_node_id":"0.0-37.0","task_version":"test-retest-t2"},{"Rune":"rune_04_wunjo","Hex":"#3366ff99","Correct":32,"Choice":32,"RT":468.61999994143844,"Accuracy":1,"Outcome":"-1","Keys":[1968.9249999355525],"TotalKeys":1,"Block":1,"Trial":34,"Robot":3,"Valence":"Lose","Action":"Go","Sham":0,"Color":"blue","trial_type":"pit-trial","trial_index":49,"time_elapsed":266179,"internal_node_id":"0.0-38.0","task_version":"test-retest-t2"},{"Rune":"rune_04_dagaz","Hex":"#ffcc3399","Correct":-1,"Choice":-1,"RT":-1,"Accuracy":1,"Outcome":"+10","Keys":[],"TotalKeys":0,"Block":1,"Trial":35,"Robot":2,"Valence":"Win","Action":"No-Go","Sham":0,"Color":"yellow","trial_type":"pit-trial","trial_index":50,"time_elapsed":270188,"internal_node_id":"0.0-39.0","task_version":"test-retest-t2"},{"Rune":"rune_04_ac","Hex":"#ffcc3399","Correct":32,"Choice":32,"RT":344.5549998432398,"Accuracy":1,"Outcome":"+10","Keys":[1844.8700001463294],"TotalKeys":1,"Block":1,"Trial":36,"Robot":1,"Valence":"Win","Action":"Go","Sham":0,"Color":"yellow","trial_type":"pit-trial","trial_index":51,"time_elapsed":273036,"internal_node_id":"0.0-40.0","task_version":"test-retest-t2"},{"Rune":"rune_04_dagaz","Hex":"#ffcc3399","Correct":-1,"Choice":-1,"RT":-1,"Accuracy":1,"Outcome":"+10","Keys":[],"TotalKeys":0,"Block":1,"Trial":37,"Robot":2,"Valence":"Win","Action":"No-Go","Sham":0,"Color":"yellow","trial_type":"pit-trial","trial_index":52,"time_elapsed":277047,"internal_node_id":"0.0-41.0","task_version":"test-retest-t2"},{"Rune":"rune_04_ac","Hex":"#ffcc3399","Correct":32,"Choice":32,"RT":423.5449999105185,"Accuracy":1,"Outcome":"+10","Keys":[1925.8649998810142],"TotalKeys":1,"Block":1,"Trial":38,"Robot":1,"Valence":"Win","Action":"Go","Sham":0,"Color":"yellow","trial_type":"pit-trial","trial_index":53,"time_elapsed":279981,"internal_node_id":"0.0-42.0","task_version":"test-retest-t2"},{"Rune":"rune_04_wunjo","Hex":"#3366ff99","Correct":32,"Choice":32,"RT":460.8299999963492,"Accuracy":1,"Outcome":"-1","Keys":[1963.274999987334],"TotalKeys":1,"Block":1,"Trial":39,"Robot":3,"Valence":"Lose","Action":"Go","Sham":0,"Color":"blue","trial_type":"pit-trial","trial_index":54,"time_elapsed":282952,"internal_node_id":"0.0-43.0","task_version":"test-retest-t2"},{"Rune":"rune_04_iwaz","Hex":"#3366ff99","Correct":-1,"Choice":-1,"RT":-1,"Accuracy":1,"Outcome":"-10","Keys":[],"TotalKeys":0,"Block":1,"Trial":40,"Robot":4,"Valence":"Lose","Action":"No-Go","Sham":1,"Color":"blue","trial_type":"pit-trial","trial_index":55,"time_elapsed":286962,"internal_node_id":"0.0-44.0","task_version":"test-retest-t2"},{"Rune":"rune_04_iwaz","Hex":"#3366ff99","Correct":-1,"Choice":-1,"RT":-1,"Accuracy":1,"Outcome":"-1","Keys":[],"TotalKeys":0,"Block":1,"Trial":41,"Robot":4,"Valence":"Lose","Action":"No-Go","Sham":0,"Color":"blue","trial_type":"pit-trial","trial_index":56,"time_elapsed":290974,"internal_node_id":"0.0-45.0","task_version":"test-retest-t2"},{"Rune":"rune_04_ac","Hex":"#ffcc3399","Correct":32,"Choice":32,"RT":476.59499989822507,"Accuracy":1,"Outcome":"+10","Keys":[1976.8800002057105],"TotalKeys":1,"Block":1,"Trial":42,"Robot":1,"Valence":"Win","Action":"Go","Sham":0,"Color":"yellow","trial_type":"pit-trial","trial_index":57,"time_elapsed":293957,"internal_node_id":"0.0-46.0","task_version":"test-retest-t2"},{"Rune":"rune_04_wunjo","Hex":"#3366ff99","Correct":32,"Choice":32,"RT":446.995000122115,"Accuracy":1,"Outcome":"-1","Keys":[1947.1400000620633],"TotalKeys":1,"Block":1,"Trial":43,"Robot":3,"Valence":"Lose","Action":"Go","Sham":0,"Color":"blue","trial_type":"pit-trial","trial_index":58,"time_elapsed":296912,"internal_node_id":"0.0-47.0","task_version":"test-retest-t2"},{"Rune":"rune_04_dagaz","Hex":"#ffcc3399","Correct":-1,"Choice":-1,"RT":-1,"Accuracy":1,"Outcome":"+10","Keys":[],"TotalKeys":0,"Block":1,"Trial":44,"Robot":2,"Valence":"Win","Action":"No-Go","Sham":0,"Color":"yellow","trial_type":"pit-trial","trial_index":59,"time_elapsed":300924,"internal_node_id":"0.0-48.0","task_version":"test-retest-t2"},{"Rune":"rune_04_iwaz","Hex":"#3366ff99","Correct":-1,"Choice":-1,"RT":-1,"Accuracy":1,"Outcome":"-1","Keys":[],"TotalKeys":0,"Block":1,"Trial":45,"Robot":4,"Valence":"Lose","Action":"No-Go","Sham":0,"Color":"blue","trial_type":"pit-trial","trial_index":60,"time_elapsed":304934,"internal_node_id":"0.0-49.0","task_version":"test-retest-t2"},{"Rune":"rune_04_ac","Hex":"#ffcc3399","Correct":32,"Choice":32,"RT":487.8350000362843,"Accuracy":1,"Outcome":"+10","Keys":[1990.4450001195073],"TotalKeys":1,"Block":1,"Trial":46,"Robot":1,"Valence":"Win","Action":"Go","Sham":0,"Color":"yellow","trial_type":"pit-trial","trial_index":61,"time_elapsed":307930,"internal_node_id":"0.0-50.0","task_version":"test-retest-t2"},{"Rune":"rune_04_wunjo","Hex":"#3366ff99","Correct":32,"Choice":32,"RT":325.29999990947545,"Accuracy":1,"Outcome":"-1","Keys":[1825.6349998991936],"TotalKeys":1,"Block":1,"Trial":47,"Robot":3,"Valence":"Lose","Action":"Go","Sham":0,"Color":"blue","trial_type":"pit-trial","trial_index":62,"time_elapsed":310762,"internal_node_id":"0.0-51.0","task_version":"test-retest-t2"},{"Rune":"rune_04_dagaz","Hex":"#ffcc3399","Correct":-1,"Choice":-1,"RT":-1,"Accuracy":1,"Outcome":"+10","Keys":[],"TotalKeys":0,"Block":1,"Trial":48,"Robot":2,"Valence":"Win","Action":"No-Go","Sham":0,"Color":"yellow","trial_type":"pit-trial","trial_index":63,"time_elapsed":314774,"internal_node_id":"0.0-52.0","task_version":"test-retest-t2"},{"Rune":"rune_04_dagaz","Hex":"#ffcc3399","Correct":-1,"Choice":-1,"RT":-1,"Accuracy":1,"Outcome":"+10","Keys":[],"TotalKeys":0,"Block":1,"Trial":49,"Robot":2,"Valence":"Win","Action":"No-Go","Sham":0,"Color":"yellow","trial_type":"pit-trial","trial_index":64,"time_elapsed":318786,"internal_node_id":"0.0-53.0","task_version":"test-retest-t2"},{"Rune":"rune_04_wunjo","Hex":"#3366ff99","Correct":32,"Choice":32,"RT":329.11500008776784,"Accuracy":1,"Outcome":"-1","Keys":[1831.755000166595],"TotalKeys":1,"Block":1,"Trial":50,"Robot":3,"Valence":"Lose","Action":"Go","Sham":0,"Color":"blue","trial_type":"pit-trial","trial_index":65,"time_elapsed":321623,"internal_node_id":"0.0-54.0","task_version":"test-retest-t2"},{"Rune":"rune_04_ac","Hex":"#ffcc3399","Correct":32,"Choice":32,"RT":302.4549998808652,"Accuracy":1,"Outcome":"+10","Keys":[1804.8450001515448],"TotalKeys":1,"Block":1,"Trial":51,"Robot":1,"Valence":"Win","Action":"Go","Sham":0,"Color":"yellow","trial_type":"pit-trial","trial_index":66,"time_elapsed":324435,"internal_node_id":"0.0-55.0","task_version":"test-retest-t2"},{"Rune":"rune_04_iwaz","Hex":"#3366ff99","Correct":-1,"Choice":-1,"RT":-1,"Accuracy":1,"Outcome":"-1","Keys":[],"TotalKeys":0,"Block":1,"Trial":52,"Robot":4,"Valence":"Lose","Action":"No-Go","Sham":0,"Color":"blue","trial_type":"pit-trial","trial_index":67,"time_elapsed":328442,"internal_node_id":"0.0-56.0","task_version":"test-retest-t2"},{"Rune":"rune_04_dagaz","Hex":"#ffcc3399","Correct":-1,"Choice":-1,"RT":-1,"Accuracy":1,"Outcome":"+1","Keys":[],"TotalKeys":0,"Block":1,"Trial":53,"Robot":2,"Valence":"Win","Action":"No-Go","Sham":1,"Color":"yellow","trial_type":"pit-trial","trial_index":68,"time_elapsed":332455,"internal_node_id":"0.0-57.0","task_version":"test-retest-t2"},{"Rune":"rune_04_wunjo","Hex":"#3366ff99","Correct":32,"Choice":32,"RT":417.1700000297278,"Accuracy":1,"Outcome":"-10","Keys":[1919.1500002052635],"TotalKeys":1,"Block":1,"Trial":54,"Robot":3,"Valence":"Lose","Action":"Go","Sham":1,"Color":"blue","trial_type":"pit-trial","trial_index":69,"time_elapsed":335381,"internal_node_id":"0.0-58.0","task_version":"test-retest-t2"},{"Rune":"rune_04_iwaz","Hex":"#3366ff99","Correct":-1,"Choice":-1,"RT":-1,"Accuracy":1,"Outcome":"-1","Keys":[],"TotalKeys":0,"Block":1,"Trial":55,"Robot":4,"Valence":"Lose","Action":"No-Go","Sham":0,"Color":"blue","trial_type":"pit-trial","trial_index":70,"time_elapsed":339391,"internal_node_id":"0.0-59.0","task_version":"test-retest-t2"},{"Rune":"rune_04_ac","Hex":"#ffcc3399","Correct":32,"Choice":32,"RT":413.99000003002584,"Accuracy":1,"Outcome":"+1","Keys":[1914.1350002028048],"TotalKeys":1,"Block":1,"Trial":56,"Robot":1,"Valence":"Win","Action":"Go","Sham":1,"Color":"yellow","trial_type":"pit-trial","trial_index":71,"time_elapsed":342312,"internal_node_id":"0.0-60.0","task_version":"test-retest-t2"},{"Rune":"rune_04_iwaz","Hex":"#3366ff99","Correct":-1,"Choice":-1,"RT":-1,"Accuracy":1,"Outcome":"-10","Keys":[],"TotalKeys":0,"Block":1,"Trial":57,"Robot":4,"Valence":"Lose","Action":"No-Go","Sham":1,"Color":"blue","trial_type":"pit-trial","trial_index":72,"time_elapsed":346323,"internal_node_id":"0.0-61.0","task_version":"test-retest-t2"},{"Rune":"rune_04_ac","Hex":"#ffcc3399","Correct":32,"Choice":32,"RT":473.4799999278039,"Accuracy":1,"Outcome":"+10","Keys":[1976.3350000139326],"TotalKeys":1,"Block":1,"Trial":58,"Robot":1,"Valence":"Win","Action":"Go","Sham":0,"Color":"yellow","trial_type":"pit-trial","trial_index":73,"time_elapsed":349304,"internal_node_id":"0.0-62.0","task_version":"test-retest-t2"},{"Rune":"rune_04_dagaz","Hex":"#ffcc3399","Correct":-1,"Choice":-1,"RT":-1,"Accuracy":1,"Outcome":"+10","Keys":[],"TotalKeys":0,"Block":1,"Trial":59,"Robot":2,"Valence":"Win","Action":"No-Go","Sham":0,"Color":"yellow","trial_type":"pit-trial","trial_index":74,"time_elapsed":353313,"internal_node_id":"0.0-63.0","task_version":"test-retest-t2"},{"Rune":"rune_04_wunjo","Hex":"#3366ff99","Correct":32,"Choice":32,"RT":366.6349998675287,"Accuracy":1,"Outcome":"-1","Keys":[1867.1200000680983],"TotalKeys":1,"Block":1,"Trial":60,"Robot":3,"Valence":"Lose","Action":"Go","Sham":0,"Color":"blue","trial_type":"pit-trial","trial_index":75,"time_elapsed":356185,"internal_node_id":"0.0-64.0","task_version":"test-retest-t2"},{"value":false,"trial_type":"call-function","trial_index":76,"time_elapsed":356188,"internal_node_id":"0.0-65.0","task_version":"test-retest-t2"},{"view_history":"[{\"page_index\":0,\"viewing_time\":2787.7950000111014},{\"page_index\":1,\"viewing_time\":2225.8400002028793}]","rt":5014.150000177324,"trial_type":"pit-instructions","trial_index":77,"time_elapsed":361203,"internal_node_id":"0.0-66.0","task_version":"test-retest-t2"},{"Rune":"rune_04_dagaz","Hex":"#ffcc3399","Correct":-1,"Choice":-1,"RT":-1,"Accuracy":1,"Outcome":"+1","Keys":[],"TotalKeys":0,"Block":1,"Trial":61,"Robot":2,"Valence":"Win","Action":"No-Go","Sham":1,"Color":"yellow","trial_type":"pit-trial","trial_index":78,"time_elapsed":365208,"internal_node_id":"0.0-67.0","task_version":"test-retest-t2"},{"Rune":"rune_04_iwaz","Hex":"#3366ff99","Correct":-1,"Choice":-1,"RT":-1,"Accuracy":1,"Outcome":"-10","Keys":[],"TotalKeys":0,"Block":1,"Trial":62,"Robot":4,"Valence":"Lose","Action":"No-Go","Sham":1,"Color":"blue","trial_type":"pit-trial","trial_index":79,"time_elapsed":369215,"internal_node_id":"0.0-68.0","task_version":"test-retest-t2"},{"Rune":"rune_04_ac","Hex":"#ffcc3399","Correct":32,"Choice":32,"RT":463.41000008396804,"Accuracy":1,"Outcome":"+10","Keys":[1963.8649998232722],"TotalKeys":1,"Block":1,"Trial":63,"Robot":1,"Valence":"Win","Action":"Go","Sham":0,"Color":"yellow","trial_type":"pit-trial","trial_index":80,"time_elapsed":372183,"internal_node_id":"0.0-69.0","task_version":"test-retest-t2"},{"Rune":"rune_04_wunjo","Hex":"#3366ff99","Correct":32,"Choice":32,"RT":329.0649999398738,"Accuracy":1,"Outcome":"-1","Keys":[1829.2650000657886],"TotalKeys":1,"Block":1,"Trial":64,"Robot":3,"Valence":"Lose","Action":"Go","Sham":0,"Color":"blue","trial_type":"pit-trial","trial_index":81,"time_elapsed":375016,"internal_node_id":"0.0-70.0","task_version":"test-retest-t2"},{"Rune":"rune_04_iwaz","Hex":"#3366ff99","Correct":-1,"Choice":-1,"RT":-1,"Accuracy":1,"Outcome":"-1","Keys":[],"TotalKeys":0,"Block":1,"Trial":65,"Robot":4,"Valence":"Lose","Action":"No-Go","Sham":0,"Color":"blue","trial_type":"pit-trial","trial_index":82,"time_elapsed":379026,"internal_node_id":"0.0-71.0","task_version":"test-retest-t2"},{"Rune":"rune_04_wunjo","Hex":"#3366ff99","Correct":32,"Choice":32,"RT":519.8800000362098,"Accuracy":1,"Outcome":"-10","Keys":[2021.0349999833852],"TotalKeys":1,"Block":1,"Trial":66,"Robot":3,"Valence":"Lose","Action":"Go","Sham":1,"Color":"blue","trial_type":"pit-trial","trial_index":83,"time_elapsed":382053,"internal_node_id":"0.0-72.0","task_version":"test-retest-t2"},{"Rune":"rune_04_dagaz","Hex":"#ffcc3399","Correct":-1,"Choice":-1,"RT":-1,"Accuracy":1,"Outcome":"+10","Keys":[],"TotalKeys":0,"Block":1,"Trial":67,"Robot":2,"Valence":"Win","Action":"No-Go","Sham":0,"Color":"yellow","trial_type":"pit-trial","trial_index":84,"time_elapsed":386063,"internal_node_id":"0.0-73.0","task_version":"test-retest-t2"},{"Rune":"rune_04_ac","Hex":"#ffcc3399","Correct":32,"Choice":32,"RT":479.6450000721961,"Accuracy":1,"Outcome":"+10","Keys":[1980.9550000354648],"TotalKeys":1,"Block":1,"Trial":68,"Robot":1,"Valence":"Win","Action":"Go","Sham":0,"Color":"yellow","trial_type":"pit-trial","trial_index":85,"time_elapsed":389051,"internal_node_id":"0.0-74.0","task_version":"test-retest-t2"},{"Rune":"rune_04_iwaz","Hex":"#3366ff99","Correct":-1,"Choice":-1,"RT":-1,"Accuracy":1,"Outcome":"-1","Keys":[],"TotalKeys":0,"Block":1,"Trial":69,"Robot":4,"Valence":"Lose","Action":"No-Go","Sham":0,"Color":"blue","trial_type":"pit-trial","trial_index":86,"time_elapsed":393063,"internal_node_id":"0.0-75.0","task_version":"test-retest-t2"},{"Rune":"rune_04_wunjo","Hex":"#3366ff99","Correct":32,"Choice":32,"RT":403.2699998933822,"Accuracy":1,"Outcome":"-1","Keys":[1905.4699998814613],"TotalKeys":1,"Block":1,"Trial":70,"Robot":3,"Valence":"Lose","Action":"Go","Sham":0,"Color":"blue","trial_type":"pit-trial","trial_index":87,"time_elapsed":395976,"internal_node_id":"0.0-76.0","task_version":"test-retest-t2"},{"Rune":"rune_04_dagaz","Hex":"#ffcc3399","Correct":-1,"Choice":-1,"RT":-1,"Accuracy":1,"Outcome":"+10","Keys":[],"TotalKeys":0,"Block":1,"Trial":71,"Robot":2,"Valence":"Win","Action":"No-Go","Sham":0,"Color":"yellow","trial_type":"pit-trial","trial_index":88,"time_elapsed":399988,"internal_node_id":"0.0-77.0","task_version":"test-retest-t2"},{"Rune":"rune_04_ac","Hex":"#ffcc3399","Correct":32,"Choice":32,"RT":492.32499999925494,"Accuracy":1,"Outcome":"+10","Keys":[1992.5499998498708],"TotalKeys":1,"Block":1,"Trial":72,"Robot":1,"Valence":"Win","Action":"Go","Sham":0,"Color":"yellow","trial_type":"pit-trial","trial_index":89,"time_elapsed":402988,"internal_node_id":"0.0-78.0","task_version":"test-retest-t2"},{"Rune":"rune_04_ac","Hex":"#ffcc3399","Correct":32,"Choice":32,"RT":346.95000015199184,"Accuracy":1,"Outcome":"+10","Keys":[1847.105000168085],"TotalKeys":1,"Block":1,"Trial":73,"Robot":1,"Valence":"Win","Action":"Go","Sham":0,"Color":"yellow","trial_type":"pit-trial","trial_index":90,"time_elapsed":405842,"internal_node_id":"0.0-79.0","task_version":"test-retest-t2"},{"Rune":"rune_04_dagaz","Hex":"#ffcc3399","Correct":-1,"Choice":-1,"RT":-1,"Accuracy":1,"Outcome":"+10","Keys":[],"TotalKeys":0,"Block":1,"Trial":74,"Robot":2,"Valence":"Win","Action":"No-Go","Sham":0,"Color":"yellow","trial_type":"pit-trial","trial_index":91,"time_elapsed":409850,"internal_node_id":"0.0-80.0","task_version":"test-retest-t2"},{"Rune":"rune_04_iwaz","Hex":"#3366ff99","Correct":-1,"Choice":-1,"RT":-1,"Accuracy":1,"Outcome":"-1","Keys":[],"TotalKeys":0,"Block":1,"Trial":75,"Robot":4,"Valence":"Lose","Action":"No-Go","Sham":0,"Color":"blue","trial_type":"pit-trial","trial_index":92,"time_elapsed":413859,"internal_node_id":"0.0-81.0","task_version":"test-retest-t2"},{"Rune":"rune_04_wunjo","Hex":"#3366ff99","Correct":32,"Choice":32,"RT":410.2100001182407,"Accuracy":1,"Outcome":"-1","Keys":[1911.0550000332296],"TotalKeys":1,"Block":1,"Trial":76,"Robot":3,"Valence":"Lose","Action":"Go","Sham":0,"Color":"blue","trial_type":"pit-trial","trial_index":93,"time_elapsed":416777,"internal_node_id":"0.0-82.0","task_version":"test-retest-t2"},{"Rune":"rune_04_ac","Hex":"#ffcc3399","Correct":32,"Choice":32,"RT":473.2600001152605,"Accuracy":1,"Outcome":"+1","Keys":[1973.5900000669062],"TotalKeys":1,"Block":1,"Trial":77,"Robot":1,"Valence":"Win","Action":"Go","Sham":1,"Color":"yellow","trial_type":"pit-trial","trial_index":94,"time_elapsed":419754,"internal_node_id":"0.0-83.0","task_version":"test-retest-t2"},{"Rune":"rune_04_iwaz","Hex":"#3366ff99","Correct":-1,"Choice":-1,"RT":-1,"Accuracy":1,"Outcome":"-1","Keys":[],"TotalKeys":0,"Block":1,"Trial":78,"Robot":4,"Valence":"Lose","Action":"No-Go","Sham":0,"Color":"blue","trial_type":"pit-trial","trial_index":95,"time_elapsed":423766,"internal_node_id":"0.0-84.0","task_version":"test-retest-t2"},{"Rune":"rune_04_dagaz","Hex":"#ffcc3399","Correct":-1,"Choice":-1,"RT":-1,"Accuracy":1,"Outcome":"+10","Keys":[],"TotalKeys":0,"Block":1,"Trial":79,"Robot":2,"Valence":"Win","Action":"No-Go","Sham":0,"Color":"yellow","trial_type":"pit-trial","trial_index":96,"time_elapsed":427776,"internal_node_id":"0.0-85.0","task_version":"test-retest-t2"},{"Rune":"rune_04_wunjo","Hex":"#3366ff99","Correct":32,"Choice":32,"RT":346.7550000641495,"Accuracy":1,"Outcome":"-1","Keys":[1847.1450000070035],"TotalKeys":1,"Block":1,"Trial":80,"Robot":3,"Valence":"Lose","Action":"Go","Sham":0,"Color":"blue","trial_type":"pit-trial","trial_index":97,"time_elapsed":430626,"internal_node_id":"0.0-86.0","task_version":"test-retest-t2"},{"Rune":"rune_04_iwaz","Hex":"#3366ff99","Correct":-1,"Choice":-1,"RT":-1,"Accuracy":1,"Outcome":"-1","Keys":[],"TotalKeys":0,"Block":1,"Trial":81,"Robot":4,"Valence":"Lose","Action":"No-Go","Sham":0,"Color":"blue","trial_type":"pit-trial","trial_index":98,"time_elapsed":434637,"internal_node_id":"0.0-87.0","task_version":"test-retest-t2"},{"Rune":"rune_04_ac","Hex":"#ffcc3399","Correct":32,"Choice":32,"RT":428.7250000052154,"Accuracy":1,"Outcome":"+10","Keys":[1929.2250000871718],"TotalKeys":1,"Block":1,"Trial":82,"Robot":1,"Valence":"Win","Action":"Go","Sham":0,"Color":"yellow","trial_type":"pit-trial","trial_index":99,"time_elapsed":437569,"internal_node_id":"0.0-88.0","task_version":"test-retest-t2"},{"Rune":"rune_04_dagaz","Hex":"#ffcc3399","Correct":-1,"Choice":-1,"RT":-1,"Accuracy":1,"Outcome":"+10","Keys":[],"TotalKeys":0,"Block":1,"Trial":83,"Robot":2,"Valence":"Win","Action":"No-Go","Sham":0,"Color":"yellow","trial_type":"pit-trial","trial_index":100,"time_elapsed":441580,"internal_node_id":"0.0-89.0","task_version":"test-retest-t2"},{"Rune":"rune_04_wunjo","Hex":"#3366ff99","Correct":32,"Choice":32,"RT":427.2849999833852,"Accuracy":1,"Outcome":"-1","Keys":[1928.0499999877065],"TotalKeys":1,"Block":1,"Trial":84,"Robot":3,"Valence":"Lose","Action":"Go","Sham":0,"Color":"blue","trial_type":"pit-trial","trial_index":101,"time_elapsed":444511,"internal_node_id":"0.0-90.0","task_version":"test-retest-t2"},{"Rune":"rune_04_wunjo","Hex":"#3366ff99","Correct":32,"Choice":32,"RT":334.7849999554455,"Accuracy":1,"Outcome":"-1","Keys":[1835.094999987632],"TotalKeys":1,"Block":1,"Trial":85,"Robot":3,"Valence":"Lose","Action":"Go","Sham":0,"Color":"blue","trial_type":"pit-trial","trial_index":102,"time_elapsed":447350,"internal_node_id":"0.0-91.0","task_version":"test-retest-t2"},{"Rune":"rune_04_iwaz","Hex":"#3366ff99","Correct":-1,"Choice":-1,"RT":-1,"Accuracy":1,"Outcome":"-10","Keys":[],"TotalKeys":0,"Block":1,"Trial":86,"Robot":4,"Valence":"Lose","Action":"No-Go","Sham":1,"Color":"blue","trial_type":"pit-trial","trial_index":103,"time_elapsed":451361,"internal_node_id":"0.0-92.0","task_version":"test-retest-t2"},{"Rune":"rune_04_dagaz","Hex":"#ffcc3399","Correct":-1,"Choice":-1,"RT":-1,"Accuracy":1,"Outcome":"+10","Keys":[],"TotalKeys":0,"Block":1,"Trial":87,"Robot":2,"Valence":"Win","Action":"No-Go","Sham":0,"Color":"yellow","trial_type":"pit-trial","trial_index":104,"time_elapsed":455372,"internal_node_id":"0.0-93.0","task_version":"test-retest-t2"},{"Rune":"rune_04_ac","Hex":"#ffcc3399","Correct":32,"Choice":32,"RT":402.58500003255904,"Accuracy":1,"Outcome":"+10","Keys":[1903.999999864027],"TotalKeys":1,"Block":1,"Trial":88,"Robot":1,"Valence":"Win","Action":"Go","Sham":0,"Color":"yellow","trial_type":"pit-trial","trial_index":105,"time_elapsed":458284,"internal_node_id":"0.0-94.0","task_version":"test-retest-t2"},{"Rune":"rune_04_iwaz","Hex":"#3366ff99","Correct":-1,"Choice":-1,"RT":-1,"Accuracy":1,"Outcome":"-1","Keys":[],"TotalKeys":0,"Block":1,"Trial":89,"Robot":4,"Valence":"Lose","Action":"No-Go","Sham":0,"Color":"blue","trial_type":"pit-trial","trial_index":106,"time_elapsed":462291,"internal_node_id":"0.0-95.0","task_version":"test-retest-t2"},{"Rune":"rune_04_dagaz","Hex":"#ffcc3399","Correct":-1,"Choice":-1,"RT":-1,"Accuracy":1,"Outcome":"+10","Keys":[],"TotalKeys":0,"Block":1,"Trial":90,"Robot":2,"Valence":"Win","Action":"No-Go","Sham":0,"Color":"yellow","trial_type":"pit-trial","trial_index":107,"time_elapsed":466296,"internal_node_id":"0.0-96.0","task_version":"test-retest-t2"},{"Rune":"rune_04_ac","Hex":"#ffcc3399","Correct":32,"Choice":32,"RT":440.22500002756715,"Accuracy":1,"Outcome":"+1","Keys":[1940.659999847412],"TotalKeys":1,"Block":1,"Trial":91,"Robot":1,"Valence":"Win","Action":"Go","Sham":1,"Color":"yellow","trial_type":"pit-trial","trial_index":108,"time_elapsed":469240,"internal_node_id":"0.0-97.0","task_version":"test-retest-t2"},{"Rune":"rune_04_wunjo","Hex":"#3366ff99","Correct":32,"Choice":32,"RT":376.9000000320375,"Accuracy":1,"Outcome":"-1","Keys":[1878.9800000377],"TotalKeys":1,"Block":1,"Trial":92,"Robot":3,"Valence":"Lose","Action":"Go","Sham":0,"Color":"blue","trial_type":"pit-trial","trial_index":109,"time_elapsed":472125,"internal_node_id":"0.0-98.0","task_version":"test-retest-t2"},{"Rune":"rune_04_iwaz","Hex":"#3366ff99","Correct":-1,"Choice":-1,"RT":-1,"Accuracy":1,"Outcome":"-1","Keys":[],"TotalKeys":0,"Block":1,"Trial":93,"Robot":4,"Valence":"Lose","Action":"No-Go","Sham":0,"Color":"blue","trial_type":"pit-trial","trial_index":110,"time_elapsed":476136,"internal_node_id":"0.0-99.0","task_version":"test-retest-t2"},{"Rune":"rune_04_ac","Hex":"#ffcc3399","Correct":32,"Choice":32,"RT":408.5200000554323,"Accuracy":1,"Outcome":"+10","Keys":[1908.7300000246614],"TotalKeys":1,"Block":1,"Trial":94,"Robot":1,"Valence":"Win","Action":"Go","Sham":0,"Color":"yellow","trial_type":"pit-trial","trial_index":111,"time_elapsed":479052,"internal_node_id":"0.0-100.0","task_version":"test-retest-t2"},{"Rune":"rune_04_dagaz","Hex":"#ffcc3399","Correct":-1,"Choice":-1,"RT":-1,"Accuracy":1,"Outcome":"+1","Keys":[],"TotalKeys":0,"Block":1,"Trial":95,"Robot":2,"Valence":"Win","Action":"No-Go","Sham":1,"Color":"yellow","trial_type":"pit-trial","trial_index":112,"time_elapsed":483061,"internal_node_id":"0.0-101.0","task_version":"test-retest-t2"},{"Rune":"rune_04_wunjo","Hex":"#3366ff99","Correct":32,"Choice":32,"RT":387.0949998963624,"Accuracy":1,"Outcome":"-10","Keys":[1890.18000010401],"TotalKeys":1,"Block":1,"Trial":96,"Robot":3,"Valence":"Lose","Action":"Go","Sham":1,"Color":"blue","trial_type":"pit-trial","trial_index":113,"time_elapsed":485957,"internal_node_id":"0.0-102.0","task_version":"test-retest-t2"},{"Rune":"rune_04_ac","Hex":"#ffcc3399","Correct":32,"Choice":32,"RT":426.160000031814,"Accuracy":1,"Outcome":"+10","Keys":[1927.7550000697374],"TotalKeys":1,"Block":1,"Trial":97,"Robot":1,"Valence":"Win","Action":"Go","Sham":0,"Color":"yellow","trial_type":"pit-trial","trial_index":114,"time_elapsed":488889,"internal_node_id":"0.0-103.0","task_version":"test-retest-t2"},{"Rune":"rune_04_dagaz","Hex":"#ffcc3399","Correct":-1,"Choice":-1,"RT":-1,"Accuracy":1,"Outcome":"+10","Keys":[],"TotalKeys":0,"Block":1,"Trial":98,"Robot":2,"Valence":"Win","Action":"No-Go","Sham":0,"Color":"yellow","trial_type":"pit-trial","trial_index":115,"time_elapsed":492900,"internal_node_id":"0.0-104.0","task_version":"test-retest-t2"},{"Rune":"rune_04_wunjo","Hex":"#3366ff99","Correct":32,"Choice":32,"RT":384.5749997999519,"Accuracy":1,"Outcome":"-1","Keys":[1884.8149999976158],"TotalKeys":1,"Block":1,"Trial":99,"Robot":3,"Valence":"Lose","Action":"Go","Sham":0,"Color":"blue","trial_type":"pit-trial","trial_index":116,"time_elapsed":495792,"internal_node_id":"0.0-105.0","task_version":"test-retest-t2"},{"Rune":"rune_04_iwaz","Hex":"#3366ff99","Correct":-1,"Choice":-1,"RT":-1,"Accuracy":1,"Outcome":"-1","Keys":[],"TotalKeys":0,"Block":1,"Trial":100,"Robot":4,"Valence":"Lose","Action":"No-Go","Sham":0,"Color":"blue","trial_type":"pit-trial","trial_index":117,"time_elapsed":499803,"internal_node_id":"0.0-106.0","task_version":"test-retest-t2"},{"Rune":"rune_04_wunjo","Hex":"#3366ff99","Correct":32,"Choice":32,"RT":440.95499999821186,"Accuracy":1,"Outcome":"-1","Keys":[1941.6300000157207],"TotalKeys":1,"Block":1,"Trial":101,"Robot":3,"Valence":"Lose","Action":"Go","Sham":0,"Color":"blue","trial_type":"pit-trial","trial_index":118,"time_elapsed":502751,"internal_node_id":"0.0-107.0","task_version":"test-retest-t2"},{"Rune":"rune_04_ac","Hex":"#ffcc3399","Correct":32,"Choice":32,"RT":406.9850000087172,"Accuracy":1,"Outcome":"+10","Keys":[1907.1649999823421],"TotalKeys":1,"Block":1,"Trial":102,"Robot":1,"Valence":"Win","Action":"Go","Sham":0,"Color":"yellow","trial_type":"pit-trial","trial_index":119,"time_elapsed":505666,"internal_node_id":"0.0-108.0","task_version":"test-retest-t2"},{"Rune":"rune_04_dagaz","Hex":"#ffcc3399","Correct":-1,"Choice":-1,"RT":-1,"Accuracy":1,"Outcome":"+10","Keys":[],"TotalKeys":0,"Block":1,"Trial":103,"Robot":2,"Valence":"Win","Action":"No-Go","Sham":0,"Color":"yellow","trial_type":"pit-trial","trial_index":120,"time_elapsed":509677,"internal_node_id":"0.0-109.0","task_version":"test-retest-t2"},{"Rune":"rune_04_iwaz","Hex":"#3366ff99","Correct":-1,"Choice":-1,"RT":-1,"Accuracy":1,"Outcome":"-1","Keys":[],"TotalKeys":0,"Block":1,"Trial":104,"Robot":4,"Valence":"Lose","Action":"No-Go","Sham":0,"Color":"blue","trial_type":"pit-trial","trial_index":121,"time_elapsed":513687,"internal_node_id":"0.0-110.0","task_version":"test-retest-t2"},{"Rune":"rune_04_iwaz","Hex":"#3366ff99","Correct":-1,"Choice":-1,"RT":-1,"Accuracy":1,"Outcome":"-1","Keys":[],"TotalKeys":0,"Block":1,"Trial":105,"Robot":4,"Valence":"Lose","Action":"No-Go","Sham":0,"Color":"blue","trial_type":"pit-trial","trial_index":122,"time_elapsed":517698,"internal_node_id":"0.0-111.0","task_version":"test-retest-t2"},{"Rune":"rune_04_dagaz","Hex":"#ffcc3399","Correct":-1,"Choice":-1,"RT":-1,"Accuracy":1,"Outcome":"+10","Keys":[],"TotalKeys":0,"Block":1,"Trial":106,"Robot":2,"Valence":"Win","Action":"No-Go","Sham":0,"Color":"yellow","trial_type":"pit-trial","trial_index":123,"time_elapsed":521710,"internal_node_id":"0.0-112.0","task_version":"test-retest-t2"},{"Rune":"rune_04_ac","Hex":"#ffcc3399","Correct":32,"Choice":32,"RT":482.1150000207126,"Accuracy":1,"Outcome":"+10","Keys":[1982.734999852255],"TotalKeys":1,"Block":1,"Trial":107,"Robot":1,"Valence":"Win","Action":"Go","Sham":0,"Color":"yellow","trial_type":"pit-trial","trial_index":124,"time_elapsed":524699,"internal_node_id":"0.0-113.0","task_version":"test-retest-t2"},{"Rune":"rune_04_wunjo","Hex":"#3366ff99","Correct":32,"Choice":32,"RT":407.0449999999255,"Accuracy":1,"Outcome":"-1","Keys":[1907.5400000438094],"TotalKeys":1,"Block":1,"Trial":108,"Robot":3,"Valence":"Lose","Action":"Go","Sham":0,"Color":"blue","trial_type":"pit-trial","trial_index":125,"time_elapsed":527614,"internal_node_id":"0.0-114.0","task_version":"test-retest-t2"},{"Rune":"rune_04_ac","Hex":"#ffcc3399","Correct":32,"Choice":32,"RT":303.29499999061227,"Accuracy":1,"Outcome":"+1","Keys":[1805.6649998761714],"TotalKeys":1,"Block":1,"Trial":109,"Robot":1,"Valence":"Win","Action":"Go","Sham":1,"Color":"yellow","trial_type":"pit-trial","trial_index":126,"time_elapsed":530423,"internal_node_id":"0.0-115.0","task_version":"test-retest-t2"},{"Rune":"rune_04_dagaz","Hex":"#ffcc3399","Correct":-1,"Choice":-1,"RT":-1,"Accuracy":1,"Outcome":"+10","Keys":[],"TotalKeys":0,"Block":1,"Trial":110,"Robot":2,"Valence":"Win","Action":"No-Go","Sham":0,"Color":"yellow","trial_type":"pit-trial","trial_index":127,"time_elapsed":534433,"internal_node_id":"0.0-116.0","task_version":"test-retest-t2"},{"Rune":"rune_04_iwaz","Hex":"#3366ff99","Correct":-1,"Choice":-1,"RT":-1,"Accuracy":1,"Outcome":"-1","Keys":[],"TotalKeys":0,"Block":1,"Trial":111,"Robot":4,"Valence":"Lose","Action":"No-Go","Sham":0,"Color":"blue","trial_type":"pit-trial","trial_index":128,"time_elapsed":538445,"internal_node_id":"0.0-117.0","task_version":"test-retest-t2"},{"Rune":"rune_04_wunjo","Hex":"#3366ff99","Correct":32,"Choice":32,"RT":381.8149999715388,"Accuracy":1,"Outcome":"-10","Keys":[1882.1650000754744],"TotalKeys":1,"Block":1,"Trial":112,"Robot":3,"Valence":"Lose","Action":"Go","Sham":1,"Color":"blue","trial_type":"pit-trial","trial_index":129,"time_elapsed":541334,"internal_node_id":"0.0-118.0","task_version":"test-retest-t2"},{"Rune":"rune_04_ac","Hex":"#ffcc3399","Correct":32,"Choice":32,"RT":433.2100001629442,"Accuracy":1,"Outcome":"+10","Keys":[1934.0099999681115],"TotalKeys":1,"Block":1,"Trial":113,"Robot":1,"Valence":"Win","Action":"Go","Sham":0,"Color":"yellow","trial_type":"pit-trial","trial_index":130,"time_elapsed":544272,"internal_node_id":"0.0-119.0","task_version":"test-retest-t2"},{"Rune":"rune_04_dagaz","Hex":"#ffcc3399","Correct":-1,"Choice":-1,"RT":-1,"Accuracy":1,"Outcome":"+1","Keys":[],"TotalKeys":0,"Block":1,"Trial":114,"Robot":2,"Valence":"Win","Action":"No-Go","Sham":1,"Color":"yellow","trial_type":"pit-trial","trial_index":131,"time_elapsed":548284,"internal_node_id":"0.0-120.0","task_version":"test-retest-t2"},{"Rune":"rune_04_iwaz","Hex":"#3366ff99","Correct":-1,"Choice":-1,"RT":-1,"Accuracy":1,"Outcome":"-1","Keys":[],"TotalKeys":0,"Block":1,"Trial":115,"Robot":4,"Valence":"Lose","Action":"No-Go","Sham":0,"Color":"blue","trial_type":"pit-trial","trial_index":132,"time_elapsed":552295,"internal_node_id":"0.0-121.0","task_version":"test-retest-t2"},{"Rune":"rune_04_wunjo","Hex":"#3366ff99","Correct":32,"Choice":32,"RT":333.70500011369586,"Accuracy":1,"Outcome":"-1","Keys":[1834.549999795854],"TotalKeys":1,"Block":1,"Trial":116,"Robot":3,"Valence":"Lose","Action":"Go","Sham":0,"Color":"blue","trial_type":"pit-trial","trial_index":133,"time_elapsed":555138,"internal_node_id":"0.0-122.0","task_version":"test-retest-t2"},{"Rune":"rune_04_dagaz","Hex":"#ffcc3399","Correct":-1,"Choice":-1,"RT":-1,"Accuracy":1,"Outcome":"+10","Keys":[],"TotalKeys":0,"Block":1,"Trial":117,"Robot":2,"Valence":"Win","Action":"No-Go","Sham":0,"Color":"yellow","trial_type":"pit-trial","trial_index":134,"time_elapsed":559147,"internal_node_id":"0.0-123.0","task_version":"test-retest-t2"},{"Rune":"rune_04_iwaz","Hex":"#3366ff99","Correct":-1,"Choice":-1,"RT":-1,"Accuracy":1,"Outcome":"-10","Keys":[],"TotalKeys":0,"Block":1,"Trial":118,"Robot":4,"Valence":"Lose","Action":"No-Go","Sham":1,"Color":"blue","trial_type":"pit-trial","trial_index":135,"time_elapsed":563160,"internal_node_id":"0.0-124.0","task_version":"test-retest-t2"},{"Rune":"rune_04_wunjo","Hex":"#3366ff99","Correct":32,"Choice":32,"RT":495.10499997995794,"Accuracy":1,"Outcome":"-1","Keys":[1995.4300001263618],"TotalKeys":1,"Block":1,"Trial":119,"Robot":3,"Valence":"Lose","Action":"Go","Sham":0,"Color":"blue","trial_type":"pit-trial","trial_index":136,"time_elapsed":566158,"internal_node_id":"0.0-125.0","task_version":"test-retest-t2"},{"Rune":"rune_04_ac","Hex":"#ffcc3399","Correct":32,"Choice":32,"RT":442.8349998779595,"Accuracy":1,"Outcome":"+10","Keys":[1943.3200000785291],"TotalKeys":1,"Block":1,"Trial":120,"Robot":1,"Valence":"Win","Action":"Go","Sham":0,"Color":"yellow","trial_type":"pit-trial","trial_index":137,"time_elapsed":569104,"internal_node_id":"0.0-126.0","task_version":"test-retest-t2"},{"view_history":"[{\"page_index\":0,\"viewing_time\":7080.889999866486},{\"page_index\":1,\"viewing_time\":2658.1699999514967},{\"page_index\":2,\"viewing_time\":2384.12500009872}]","rt":12123.70999995619,"trial_type":"pit-instructions","trial_index":138,"time_elapsed":581229,"internal_node_id":"0.0-127.0","task_version":"test-retest-t2"},{"Rune":"rune_03_othalan","Hex":"#3366ff99","Correct":-1,"Choice":32,"RT":416.2500000093132,"Accuracy":0,"Outcome":"-10","Keys":[1916.749999858439],"TotalKeys":1,"Block":2,"Trial":121,"Robot":4,"Valence":"Lose","Action":"No-Go","Sham":0,"Color":"blue","trial_type":"pit-trial","trial_index":139,"time_elapsed":584153,"internal_node_id":"0.0-128.0","task_version":"test-retest-t2"},{"Rune":"rune_03_uruz","Hex":"#ffcc3399","Correct":-1,"Choice":32,"RT":455.7950000744313,"Accuracy":0,"Outcome":"+1","Keys":[1956.3250001519918],"TotalKeys":1,"Block":2,"Trial":122,"Robot":2,"Valence":"Win","Action":"No-Go","Sham":0,"Color":"yellow","trial_type":"pit-trial","trial_index":140,"time_elapsed":587117,"internal_node_id":"0.0-129.0","task_version":"test-retest-t2"},{"Rune":"rune_03_algiz","Hex":"#ffcc3399","Correct":32,"Choice":32,"RT":625.9900000877678,"Accuracy":1,"Outcome":"+10","Keys":[2126.18500017561],"TotalKeys":1,"Block":2,"Trial":123,"Robot":1,"Valence":"Win","Action":"Go","Sham":0,"Color":"yellow","trial_type":"pit-trial","trial_index":141,"time_elapsed":590248,"internal_node_id":"0.0-130.0","task_version":"test-retest-t2"},{"Rune":"rune_03_naudiz","Hex":"#3366ff99","Correct":32,"Choice":32,"RT":632.0749998558313,"Accuracy":1,"Outcome":"-1","Keys":[2132.835000054911],"TotalKeys":1,"Block":2,"Trial":124,"Robot":3,"Valence":"Lose","Action":"Go","Sham":0,"Color":"blue","trial_type":"pit-trial","trial_index":142,"time_elapsed":593388,"internal_node_id":"0.0-131.0","task_version":"test-retest-t2"},{"Rune":"rune_03_othalan","Hex":"#3366ff99","Correct":-1,"Choice":-1,"RT":-1,"Accuracy":1,"Outcome":"-1","Keys":[],"TotalKeys":0,"Block":2,"Trial":125,"Robot":4,"Valence":"Lose","Action":"No-Go","Sham":0,"Color":"blue","trial_type":"pit-trial","trial_index":143,"time_elapsed":597397,"internal_node_id":"0.0-132.0","task_version":"test-retest-t2"},{"Rune":"rune_03_algiz","Hex":"#ffcc3399","Correct":32,"Choice":32,"RT":404.70500010997057,"Accuracy":1,"Outcome":"+1","Keys":[1905.0149999093264],"TotalKeys":1,"Block":2,"Trial":126,"Robot":1,"Valence":"Win","Action":"Go","Sham":1,"Color":"yellow","trial_type":"pit-trial","trial_index":144,"time_elapsed":600310,"internal_node_id":"0.0-133.0","task_version":"test-retest-t2"},{"Rune":"rune_03_naudiz","Hex":"#3366ff99","Correct":32,"Choice":32,"RT":333.8099999818951,"Accuracy":1,"Outcome":"-1","Keys":[1834.2899999115616],"TotalKeys":1,"Block":2,"Trial":127,"Robot":3,"Valence":"Lose","Action":"Go","Sham":0,"Color":"blue","trial_type":"pit-trial","trial_index":145,"time_elapsed":603151,"internal_node_id":"0.0-134.0","task_version":"test-retest-t2"},{"Rune":"rune_03_uruz","Hex":"#ffcc3399","Correct":-1,"Choice":-1,"RT":-1,"Accuracy":1,"Outcome":"+10","Keys":[],"TotalKeys":0,"Block":2,"Trial":128,"Robot":2,"Valence":"Win","Action":"No-Go","Sham":0,"Color":"yellow","trial_type":"pit-trial","trial_index":146,"time_elapsed":607162,"internal_node_id":"0.0-135.0","task_version":"test-retest-t2"},{"Rune":"rune_03_algiz","Hex":"#ffcc3399","Correct":32,"Choice":32,"RT":367.7300000563264,"Accuracy":1,"Outcome":"+10","Keys":[1870.3399999067187],"TotalKeys":1,"Block":2,"Trial":129,"Robot":1,"Valence":"Win","Action":"Go","Sham":0,"Color":"yellow","trial_type":"pit-trial","trial_index":147,"time_elapsed":610036,"internal_node_id":"0.0-136.0","task_version":"test-retest-t2"},{"Rune":"rune_03_uruz","Hex":"#ffcc3399","Correct":-1,"Choice":-1,"RT":-1,"Accuracy":1,"Outcome":"+10","Keys":[],"TotalKeys":0,"Block":2,"Trial":130,"Robot":2,"Valence":"Win","Action":"No-Go","Sham":0,"Color":"yellow","trial_type":"pit-trial","trial_index":148,"time_elapsed":614047,"internal_node_id":"0.0-137.0","task_version":"test-retest-t2"},{"Rune":"rune_03_naudiz","Hex":"#3366ff99","Correct":32,"Choice":32,"RT":636.8150000926107,"Accuracy":1,"Outcome":"-1","Keys":[2137.170000001788],"TotalKeys":1,"Block":2,"Trial":131,"Robot":3,"Valence":"Lose","Action":"Go","Sham":0,"Color":"blue","trial_type":"pit-trial","trial_index":149,"time_elapsed":617189,"internal_node_id":"0.0-138.0","task_version":"test-retest-t2"},{"Rune":"rune_03_othalan","Hex":"#3366ff99","Correct":-1,"Choice":-1,"RT":-1,"Accuracy":1,"Outcome":"-10","Keys":[],"TotalKeys":0,"Block":2,"Trial":132,"Robot":4,"Valence":"Lose","Action":"No-Go","Sham":1,"Color":"blue","trial_type":"pit-trial","trial_index":150,"time_elapsed":621199,"internal_node_id":"0.0-139.0","task_version":"test-retest-t2"},{"Rune":"rune_03_othalan","Hex":"#3366ff99","Correct":-1,"Choice":-1,"RT":-1,"Accuracy":1,"Outcome":"-1","Keys":[],"TotalKeys":0,"Block":2,"Trial":133,"Robot":4,"Valence":"Lose","Action":"No-Go","Sham":0,"Color":"blue","trial_type":"pit-trial","trial_index":151,"time_elapsed":625210,"internal_node_id":"0.0-140.0","task_version":"test-retest-t2"},{"Rune":"rune_03_algiz","Hex":"#ffcc3399","Correct":32,"Choice":32,"RT":578.9599998388439,"Accuracy":1,"Outcome":"+10","Keys":[2079.8599999397993],"TotalKeys":1,"Block":2,"Trial":134,"Robot":1,"Valence":"Win","Action":"Go","Sham":0,"Color":"yellow","trial_type":"pit-trial","trial_index":152,"time_elapsed":628295,"internal_node_id":"0.0-141.0","task_version":"test-retest-t2"},{"Rune":"rune_03_uruz","Hex":"#ffcc3399","Correct":-1,"Choice":-1,"RT":-1,"Accuracy":1,"Outcome":"+10","Keys":[],"TotalKeys":0,"Block":2,"Trial":135,"Robot":2,"Valence":"Win","Action":"No-Go","Sham":0,"Color":"yellow","trial_type":"pit-trial","trial_index":153,"time_elapsed":632303,"internal_node_id":"0.0-142.0","task_version":"test-retest-t2"},{"Rune":"rune_03_naudiz","Hex":"#3366ff99","Correct":32,"Choice":32,"RT":314.6600001491606,"Accuracy":1,"Outcome":"-1","Keys":[1815.144999884069],"TotalKeys":1,"Block":2,"Trial":136,"Robot":3,"Valence":"Lose","Action":"Go","Sham":0,"Color":"blue","trial_type":"pit-trial","trial_index":154,"time_elapsed":635124,"internal_node_id":"0.0-143.0","task_version":"test-retest-t2"},{"Rune":"rune_03_uruz","Hex":"#ffcc3399","Correct":-1,"Choice":-1,"RT":-1,"Accuracy":1,"Outcome":"+1","Keys":[],"TotalKeys":0,"Block":2,"Trial":137,"Robot":2,"Valence":"Win","Action":"No-Go","Sham":1,"Color":"yellow","trial_type":"pit-trial","trial_index":155,"time_elapsed":639137,"internal_node_id":"0.0-144.0","task_version":"test-retest-t2"},{"Rune":"rune_03_naudiz","Hex":"#3366ff99","Correct":32,"Choice":32,"RT":373.88999992981553,"Accuracy":1,"Outcome":"-10","Keys":[1874.3549999780953],"TotalKeys":1,"Block":2,"Trial":138,"Robot":3,"Valence":"Lose","Action":"Go","Sham":1,"Color":"blue","trial_type":"pit-trial","trial_index":156,"time_elapsed":642015,"internal_node_id":"0.0-145.0","task_version":"test-retest-t2"},{"Rune":"rune_03_algiz","Hex":"#ffcc3399","Correct":32,"Choice":32,"RT":506.4499999862164,"Accuracy":1,"Outcome":"+10","Keys":[2006.6349999979138],"TotalKeys":1,"Block":2,"Trial":139,"Robot":1,"Valence":"Win","Action":"Go","Sham":0,"Color":"yellow","trial_type":"pit-trial","trial_index":157,"time_elapsed":645025,"internal_node_id":"0.0-146.0","task_version":"test-retest-t2"},{"Rune":"rune_03_othalan","Hex":"#3366ff99","Correct":-1,"Choice":-1,"RT":-1,"Accuracy":1,"Outcome":"-1","Keys":[],"TotalKeys":0,"Block":2,"Trial":140,"Robot":4,"Valence":"Lose","Action":"No-Go","Sham":0,"Color":"blue","trial_type":"pit-trial","trial_index":158,"time_elapsed":649038,"internal_node_id":"0.0-147.0","task_version":"test-retest-t2"},{"Rune":"rune_03_algiz","Hex":"#ffcc3399","Correct":32,"Choice":32,"RT":462.1500000357628,"Accuracy":1,"Outcome":"+1","Keys":[1962.6249999273568],"TotalKeys":1,"Block":2,"Trial":141,"Robot":1,"Valence":"Win","Action":"Go","Sham":1,"Color":"yellow","trial_type":"pit-trial","trial_index":159,"time_elapsed":652005,"internal_node_id":"0.0-148.0","task_version":"test-retest-t2"},{"Rune":"rune_03_uruz","Hex":"#ffcc3399","Correct":-1,"Choice":-1,"RT":-1,"Accuracy":1,"Outcome":"+1","Keys":[],"TotalKeys":0,"Block":2,"Trial":142,"Robot":2,"Valence":"Win","Action":"No-Go","Sham":1,"Color":"yellow","trial_type":"pit-trial","trial_index":160,"time_elapsed":656015,"internal_node_id":"0.0-149.0","task_version":"test-retest-t2"},{"Rune":"rune_03_othalan","Hex":"#3366ff99","Correct":-1,"Choice":-1,"RT":-1,"Accuracy":1,"Outcome":"-1","Keys":[],"TotalKeys":0,"Block":2,"Trial":143,"Robot":4,"Valence":"Lose","Action":"No-Go","Sham":0,"Color":"blue","trial_type":"pit-trial","trial_index":161,"time_elapsed":660026,"internal_node_id":"0.0-150.0","task_version":"test-retest-t2"},{"Rune":"rune_03_naudiz","Hex":"#3366ff99","Correct":32,"Choice":32,"RT":489.449999993667,"Accuracy":1,"Outcome":"-10","Keys":[1989.8950001224875],"TotalKeys":1,"Block":2,"Trial":144,"Robot":3,"Valence":"Lose","Action":"Go","Sham":1,"Color":"blue","trial_type":"pit-trial","trial_index":162,"time_elapsed":663022,"internal_node_id":"0.0-151.0","task_version":"test-retest-t2"},{"Rune":"rune_03_algiz","Hex":"#ffcc3399","Correct":32,"Choice":32,"RT":474.87500007264316,"Accuracy":1,"Outcome":"+10","Keys":[1975.4100001882762],"TotalKeys":1,"Block":2,"Trial":145,"Robot":1,"Valence":"Win","Action":"Go","Sham":0,"Color":"yellow","trial_type":"pit-trial","trial_index":163,"time_elapsed":666005,"internal_node_id":"0.0-152.0","task_version":"test-retest-t2"},{"Rune":"rune_03_uruz","Hex":"#ffcc3399","Correct":-1,"Choice":-1,"RT":-1,"Accuracy":1,"Outcome":"+10","Keys":[],"TotalKeys":0,"Block":2,"Trial":146,"Robot":2,"Valence":"Win","Action":"No-Go","Sham":0,"Color":"yellow","trial_type":"pit-trial","trial_index":164,"time_elapsed":670011,"internal_node_id":"0.0-153.0","task_version":"test-retest-t2"},{"Rune":"rune_03_othalan","Hex":"#3366ff99","Correct":-1,"Choice":-1,"RT":-1,"Accuracy":1,"Outcome":"-1","Keys":[],"TotalKeys":0,"Block":2,"Trial":147,"Robot":4,"Valence":"Lose","Action":"No-Go","Sham":0,"Color":"blue","trial_type":"pit-trial","trial_index":165,"time_elapsed":674021,"internal_node_id":"0.0-154.0","task_version":"test-retest-t2"},{"Rune":"rune_03_naudiz","Hex":"#3366ff99","Correct":32,"Choice":32,"RT":507.33000016771257,"Accuracy":1,"Outcome":"-1","Keys":[2007.4350000359118],"TotalKeys":1,"Block":2,"Trial":148,"Robot":3,"Valence":"Lose","Action":"Go","Sham":0,"Color":"blue","trial_type":"pit-trial","trial_index":166,"time_elapsed":677034,"internal_node_id":"0.0-155.0","task_version":"test-retest-t2"},{"Rune":"rune_03_othalan","Hex":"#3366ff99","Correct":-1,"Choice":-1,"RT":-1,"Accuracy":1,"Outcome":"-1","Keys":[],"TotalKeys":0,"Block":2,"Trial":149,"Robot":4,"Valence":"Lose","Action":"No-Go","Sham":0,"Color":"blue","trial_type":"pit-trial","trial_index":167,"time_elapsed":681047,"internal_node_id":"0.0-156.0","task_version":"test-retest-t2"},{"Rune":"rune_03_naudiz","Hex":"#3366ff99","Correct":32,"Choice":32,"RT":488.575000083074,"Accuracy":1,"Outcome":"-1","Keys":[1988.69499983266],"TotalKeys":1,"Block":2,"Trial":150,"Robot":3,"Valence":"Lose","Action":"Go","Sham":0,"Color":"blue","trial_type":"pit-trial","trial_index":168,"time_elapsed":684041,"internal_node_id":"0.0-157.0","task_version":"test-retest-t2"},{"Rune":"rune_03_uruz","Hex":"#ffcc3399","Correct":-1,"Choice":-1,"RT":-1,"Accuracy":1,"Outcome":"+10","Keys":[],"TotalKeys":0,"Block":2,"Trial":151,"Robot":2,"Valence":"Win","Action":"No-Go","Sham":0,"Color":"yellow","trial_type":"pit-trial","trial_index":169,"time_elapsed":688047,"internal_node_id":"0.0-158.0","task_version":"test-retest-t2"},{"Rune":"rune_03_algiz","Hex":"#ffcc3399","Correct":32,"Choice":32,"RT":522.3799999803305,"Accuracy":1,"Outcome":"+10","Keys":[2022.9700000490993],"TotalKeys":1,"Block":2,"Trial":152,"Robot":1,"Valence":"Win","Action":"Go","Sham":0,"Color":"yellow","trial_type":"pit-trial","trial_index":170,"time_elapsed":691074,"internal_node_id":"0.0-159.0","task_version":"test-retest-t2"},{"Rune":"rune_03_uruz","Hex":"#ffcc3399","Correct":-1,"Choice":32,"RT":958.7050001136959,"Accuracy":0,"Outcome":"+1","Keys":[2458.9549999218434],"TotalKeys":1,"Block":2,"Trial":153,"Robot":2,"Valence":"Win","Action":"No-Go","Sham":0,"Color":"yellow","trial_type":"pit-trial","trial_index":171,"time_elapsed":694538,"internal_node_id":"0.0-160.0","task_version":"test-retest-t2"},{"Rune":"rune_03_naudiz","Hex":"#3366ff99","Correct":32,"Choice":32,"RT":401.20500000193715,"Accuracy":1,"Outcome":"-1","Keys":[1902.2349999286234],"TotalKeys":1,"Block":2,"Trial":154,"Robot":3,"Valence":"Lose","Action":"Go","Sham":0,"Color":"blue","trial_type":"pit-trial","trial_index":172,"time_elapsed":697445,"internal_node_id":"0.0-161.0","task_version":"test-retest-t2"},{"Rune":"rune_03_othalan","Hex":"#3366ff99","Correct":-1,"Choice":-1,"RT":-1,"Accuracy":1,"Outcome":"-1","Keys":[],"TotalKeys":0,"Block":2,"Trial":155,"Robot":4,"Valence":"Lose","Action":"No-Go","Sham":0,"Color":"blue","trial_type":"pit-trial","trial_index":173,"time_elapsed":701457,"internal_node_id":"0.0-162.0","task_version":"test-retest-t2"},{"Rune":"rune_03_algiz","Hex":"#ffcc3399","Correct":32,"Choice":32,"RT":601.6449998132885,"Accuracy":1,"Outcome":"+10","Keys":[2101.855000015348],"TotalKeys":1,"Block":2,"Trial":156,"Robot":1,"Valence":"Win","Action":"Go","Sham":0,"Color":"yellow","trial_type":"pit-trial","trial_index":174,"time_elapsed":704564,"internal_node_id":"0.0-163.0","task_version":"test-retest-t2"},{"Rune":"rune_03_othalan","Hex":"#3366ff99","Correct":-1,"Choice":-1,"RT":-1,"Accuracy":1,"Outcome":"-10","Keys":[],"TotalKeys":0,"Block":2,"Trial":157,"Robot":4,"Valence":"Lose","Action":"No-Go","Sham":1,"Color":"blue","trial_type":"pit-trial","trial_index":175,"time_elapsed":708576,"internal_node_id":"0.0-164.0","task_version":"test-retest-t2"},{"Rune":"rune_03_algiz","Hex":"#ffcc3399","Correct":32,"Choice":32,"RT":461.05999988503754,"Accuracy":1,"Outcome":"+10","Keys":[1961.2900000065565],"TotalKeys":1,"Block":2,"Trial":158,"Robot":1,"Valence":"Win","Action":"Go","Sham":0,"Color":"yellow","trial_type":"pit-trial","trial_index":176,"time_elapsed":711545,"internal_node_id":"0.0-165.0","task_version":"test-retest-t2"},{"Rune":"rune_03_uruz","Hex":"#ffcc3399","Correct":-1,"Choice":-1,"RT":-1,"Accuracy":1,"Outcome":"+10","Keys":[],"TotalKeys":0,"Block":2,"Trial":159,"Robot":2,"Valence":"Win","Action":"No-Go","Sham":0,"Color":"yellow","trial_type":"pit-trial","trial_index":177,"time_elapsed":715554,"internal_node_id":"0.0-166.0","task_version":"test-retest-t2"},{"Rune":"rune_03_naudiz","Hex":"#3366ff99","Correct":32,"Choice":32,"RT":534.8400000948459,"Accuracy":1,"Outcome":"-1","Keys":[2035.0549998693168],"TotalKeys":1,"Block":2,"Trial":160,"Robot":3,"Valence":"Lose","Action":"Go","Sham":0,"Color":"blue","trial_type":"pit-trial","trial_index":178,"time_elapsed":718595,"internal_node_id":"0.0-167.0","task_version":"test-retest-t2"},{"Rune":"rune_03_othalan","Hex":"#3366ff99","Correct":-1,"Choice":-1,"RT":-1,"Accuracy":1,"Outcome":"-1","Keys":[],"TotalKeys":0,"Block":2,"Trial":161,"Robot":4,"Valence":"Lose","Action":"No-Go","Sham":0,"Color":"blue","trial_type":"pit-trial","trial_index":179,"time_elapsed":722607,"internal_node_id":"0.0-168.0","task_version":"test-retest-t2"},{"Rune":"rune_03_uruz","Hex":"#ffcc3399","Correct":-1,"Choice":-1,"RT":-1,"Accuracy":1,"Outcome":"+10","Keys":[],"TotalKeys":0,"Block":2,"Trial":162,"Robot":2,"Valence":"Win","Action":"No-Go","Sham":0,"Color":"yellow","trial_type":"pit-trial","trial_index":180,"time_elapsed":726620,"internal_node_id":"0.0-169.0","task_version":"test-retest-t2"},{"Rune":"rune_03_algiz","Hex":"#ffcc3399","Correct":32,"Choice":32,"RT":473.56000007130206,"Accuracy":1,"Outcome":"+10","Keys":[1974.0200000815094],"TotalKeys":1,"Block":2,"Trial":163,"Robot":1,"Valence":"Win","Action":"Go","Sham":0,"Color":"yellow","trial_type":"pit-trial","trial_index":181,"time_elapsed":729601,"internal_node_id":"0.0-170.0","task_version":"test-retest-t2"},{"Rune":"rune_03_naudiz","Hex":"#3366ff99","Correct":32,"Choice":32,"RT":416.83000000193715,"Accuracy":1,"Outcome":"-1","Keys":[1917.6399998832494],"TotalKeys":1,"Block":2,"Trial":164,"Robot":3,"Valence":"Lose","Action":"Go","Sham":0,"Color":"blue","trial_type":"pit-trial","trial_index":182,"time_elapsed":732524,"internal_node_id":"0.0-171.0","task_version":"test-retest-t2"},{"Rune":"rune_03_uruz","Hex":"#ffcc3399","Correct":-1,"Choice":-1,"RT":-1,"Accuracy":1,"Outcome":"+10","Keys":[],"TotalKeys":0,"Block":2,"Trial":165,"Robot":2,"Valence":"Win","Action":"No-Go","Sham":0,"Color":"yellow","trial_type":"pit-trial","trial_index":183,"time_elapsed":736534,"internal_node_id":"0.0-172.0","task_version":"test-retest-t2"},{"Rune":"rune_03_othalan","Hex":"#3366ff99","Correct":-1,"Choice":-1,"RT":-1,"Accuracy":1,"Outcome":"-1","Keys":[],"TotalKeys":0,"Block":2,"Trial":166,"Robot":4,"Valence":"Lose","Action":"No-Go","Sham":0,"Color":"blue","trial_type":"pit-trial","trial_index":184,"time_elapsed":740545,"internal_node_id":"0.0-173.0","task_version":"test-retest-t2"},{"Rune":"rune_03_naudiz","Hex":"#3366ff99","Correct":32,"Choice":32,"RT":447.6450001820922,"Accuracy":1,"Outcome":"-1","Keys":[1948.3649998437613],"TotalKeys":1,"Block":2,"Trial":167,"Robot":3,"Valence":"Lose","Action":"Go","Sham":0,"Color":"blue","trial_type":"pit-trial","trial_index":185,"time_elapsed":743500,"internal_node_id":"0.0-174.0","task_version":"test-retest-t2"},{"Rune":"rune_03_algiz","Hex":"#ffcc3399","Correct":32,"Choice":32,"RT":379.0750000625849,"Accuracy":1,"Outcome":"+10","Keys":[1879.285000031814],"TotalKeys":1,"Block":2,"Trial":168,"Robot":1,"Valence":"Win","Action":"Go","Sham":0,"Color":"yellow","trial_type":"pit-trial","trial_index":186,"time_elapsed":746386,"internal_node_id":"0.0-175.0","task_version":"test-retest-t2"},{"Rune":"rune_03_uruz","Hex":"#ffcc3399","Correct":-1,"Choice":-1,"RT":-1,"Accuracy":1,"Outcome":"+10","Keys":[],"TotalKeys":0,"Block":2,"Trial":169,"Robot":2,"Valence":"Win","Action":"No-Go","Sham":0,"Color":"yellow","trial_type":"pit-trial","trial_index":187,"time_elapsed":750396,"internal_node_id":"0.0-176.0","task_version":"test-retest-t2"},{"Rune":"rune_03_naudiz","Hex":"#3366ff99","Correct":32,"Choice":32,"RT":376.810000045225,"Accuracy":1,"Outcome":"-1","Keys":[1878.3199999015778],"TotalKeys":1,"Block":2,"Trial":170,"Robot":3,"Valence":"Lose","Action":"Go","Sham":0,"Color":"blue","trial_type":"pit-trial","trial_index":188,"time_elapsed":753281,"internal_node_id":"0.0-177.0","task_version":"test-retest-t2"},{"Rune":"rune_03_algiz","Hex":"#ffcc3399","Correct":32,"Choice":32,"RT":463.81499990820885,"Accuracy":1,"Outcome":"+10","Keys":[1966.2049999460578],"TotalKeys":1,"Block":2,"Trial":171,"Robot":1,"Valence":"Win","Action":"Go","Sham":0,"Color":"yellow","trial_type":"pit-trial","trial_index":189,"time_elapsed":756254,"internal_node_id":"0.0-178.0","task_version":"test-retest-t2"},{"Rune":"rune_03_othalan","Hex":"#3366ff99","Correct":-1,"Choice":-1,"RT":-1,"Accuracy":1,"Outcome":"-1","Keys":[],"TotalKeys":0,"Block":2,"Trial":172,"Robot":4,"Valence":"Lose","Action":"No-Go","Sham":0,"Color":"blue","trial_type":"pit-trial","trial_index":190,"time_elapsed":760266,"internal_node_id":"0.0-179.0","task_version":"test-retest-t2"},{"Rune":"rune_03_othalan","Hex":"#3366ff99","Correct":-1,"Choice":-1,"RT":-1,"Accuracy":1,"Outcome":"-1","Keys":[],"TotalKeys":0,"Block":2,"Trial":173,"Robot":4,"Valence":"Lose","Action":"No-Go","Sham":0,"Color":"blue","trial_type":"pit-trial","trial_index":191,"time_elapsed":764276,"internal_node_id":"0.0-180.0","task_version":"test-retest-t2"},{"Rune":"rune_03_naudiz","Hex":"#3366ff99","Correct":32,"Choice":32,"RT":460.44999989680946,"Accuracy":1,"Outcome":"-10","Keys":[1961.0100002028048],"TotalKeys":1,"Block":2,"Trial":174,"Robot":3,"Valence":"Lose","Action":"Go","Sham":1,"Color":"blue","trial_type":"pit-trial","trial_index":192,"time_elapsed":767241,"internal_node_id":"0.0-181.0","task_version":"test-retest-t2"},{"Rune":"rune_03_algiz","Hex":"#ffcc3399","Correct":32,"Choice":32,"RT":428.97499981336296,"Accuracy":1,"Outcome":"+1","Keys":[1929.2599998880178],"TotalKeys":1,"Block":2,"Trial":175,"Robot":1,"Valence":"Win","Action":"Go","Sham":1,"Color":"yellow","trial_type":"pit-trial","trial_index":193,"time_elapsed":770177,"internal_node_id":"0.0-182.0","task_version":"test-retest-t2"},{"Rune":"rune_03_uruz","Hex":"#ffcc3399","Correct":-1,"Choice":-1,"RT":-1,"Accuracy":1,"Outcome":"+1","Keys":[],"TotalKeys":0,"Block":2,"Trial":176,"Robot":2,"Valence":"Win","Action":"No-Go","Sham":1,"Color":"yellow","trial_type":"pit-trial","trial_index":194,"time_elapsed":774184,"internal_node_id":"0.0-183.0","task_version":"test-retest-t2"},{"Rune":"rune_03_algiz","Hex":"#ffcc3399","Correct":32,"Choice":32,"RT":503.18500003777444,"Accuracy":1,"Outcome":"+10","Keys":[2003.6700000055134],"TotalKeys":1,"Block":2,"Trial":177,"Robot":1,"Valence":"Win","Action":"Go","Sham":0,"Color":"yellow","trial_type":"pit-trial","trial_index":195,"time_elapsed":777191,"internal_node_id":"0.0-184.0","task_version":"test-retest-t2"},{"Rune":"rune_03_naudiz","Hex":"#3366ff99","Correct":32,"Choice":32,"RT":325.57499990798533,"Accuracy":1,"Outcome":"-1","Keys":[1826.6650000587106],"TotalKeys":1,"Block":2,"Trial":178,"Robot":3,"Valence":"Lose","Action":"Go","Sham":0,"Color":"blue","trial_type":"pit-trial","trial_index":196,"time_elapsed":780025,"internal_node_id":"0.0-185.0","task_version":"test-retest-t2"},{"Rune":"rune_03_uruz","Hex":"#ffcc3399","Correct":-1,"Choice":-1,"RT":-1,"Accuracy":1,"Outcome":"+10","Keys":[],"TotalKeys":0,"Block":2,"Trial":179,"Robot":2,"Valence":"Win","Action":"No-Go","Sham":0,"Color":"yellow","trial_type":"pit-trial","trial_index":197,"time_elapsed":784038,"internal_node_id":"0.0-186.0","task_version":"test-retest-t2"},{"Rune":"rune_03_othalan","Hex":"#3366ff99","Correct":-1,"Choice":-1,"RT":-1,"Accuracy":1,"Outcome":"-10","Keys":[],"TotalKeys":0,"Block":2,"Trial":180,"Robot":4,"Valence":"Lose","Action":"No-Go","Sham":1,"Color":"blue","trial_type":"pit-trial","trial_index":198,"time_elapsed":788046,"internal_node_id":"0.0-187.0","task_version":"test-retest-t2"},{"view_history":"[{\"page_index\":0,\"viewing_time\":5307.874999940395},{\"page_index\":1,\"viewing_time\":1631.755000213161}]","rt":6940.150000154972,"trial_type":"pit-instructions","trial_index":199,"time_elapsed":794988,"internal_node_id":"0.0-188.0","task_version":"test-retest-t2"},{"Rune":"rune_03_naudiz","Hex":"#3366ff99","Correct":32,"Choice":32,"RT":475.07499996572733,"Accuracy":1,"Outcome":"-1","Keys":[1975.2150001004338],"TotalKeys":1,"Block":2,"Trial":181,"Robot":3,"Valence":"Lose","Action":"Go","Sham":0,"Color":"blue","trial_type":"pit-trial","trial_index":200,"time_elapsed":797972,"internal_node_id":"0.0-189.0","task_version":"test-retest-t2"},{"Rune":"rune_03_uruz","Hex":"#ffcc3399","Correct":-1,"Choice":-1,"RT":-1,"Accuracy":1,"Outcome":"+1","Keys":[],"TotalKeys":0,"Block":2,"Trial":182,"Robot":2,"Valence":"Win","Action":"No-Go","Sham":1,"Color":"yellow","trial_type":"pit-trial","trial_index":201,"time_elapsed":801984,"internal_node_id":"0.0-190.0","task_version":"test-retest-t2"},{"Rune":"rune_03_algiz","Hex":"#ffcc3399","Correct":32,"Choice":32,"RT":457.10500003769994,"Accuracy":1,"Outcome":"+10","Keys":[1958.955000154674],"TotalKeys":1,"Block":2,"Trial":183,"Robot":1,"Valence":"Win","Action":"Go","Sham":0,"Color":"yellow","trial_type":"pit-trial","trial_index":202,"time_elapsed":804950,"internal_node_id":"0.0-191.0","task_version":"test-retest-t2"},{"Rune":"rune_03_othalan","Hex":"#3366ff99","Correct":-1,"Choice":-1,"RT":-1,"Accuracy":1,"Outcome":"-10","Keys":[],"TotalKeys":0,"Block":2,"Trial":184,"Robot":4,"Valence":"Lose","Action":"No-Go","Sham":1,"Color":"blue","trial_type":"pit-trial","trial_index":203,"time_elapsed":808961,"internal_node_id":"0.0-192.0","task_version":"test-retest-t2"},{"Rune":"rune_03_othalan","Hex":"#3366ff99","Correct":-1,"Choice":-1,"RT":-1,"Accuracy":1,"Outcome":"-1","Keys":[],"TotalKeys":0,"Block":2,"Trial":185,"Robot":4,"Valence":"Lose","Action":"No-Go","Sham":0,"Color":"blue","trial_type":"pit-trial","trial_index":204,"time_elapsed":812973,"internal_node_id":"0.0-193.0","task_version":"test-retest-t2"},{"Rune":"rune_03_naudiz","Hex":"#3366ff99","Correct":32,"Choice":32,"RT":495.2350000385195,"Accuracy":1,"Outcome":"-10","Keys":[1996.4499999769032],"TotalKeys":1,"Block":2,"Trial":186,"Robot":3,"Valence":"Lose","Action":"Go","Sham":1,"Color":"blue","trial_type":"pit-trial","trial_index":205,"time_elapsed":815974,"internal_node_id":"0.0-194.0","task_version":"test-retest-t2"},{"Rune":"rune_03_algiz","Hex":"#ffcc3399","Correct":32,"Choice":32,"RT":452.48500001616776,"Accuracy":1,"Outcome":"+10","Keys":[1954.884999897331],"TotalKeys":1,"Block":2,"Trial":187,"Robot":1,"Valence":"Win","Action":"Go","Sham":0,"Color":"yellow","trial_type":"pit-trial","trial_index":206,"time_elapsed":818934,"internal_node_id":"0.0-195.0","task_version":"test-retest-t2"},{"Rune":"rune_03_uruz","Hex":"#ffcc3399","Correct":-1,"Choice":-1,"RT":-1,"Accuracy":1,"Outcome":"+10","Keys":[],"TotalKeys":0,"Block":2,"Trial":188,"Robot":2,"Valence":"Win","Action":"No-Go","Sham":0,"Color":"yellow","trial_type":"pit-trial","trial_index":207,"time_elapsed":822945,"internal_node_id":"0.0-196.0","task_version":"test-retest-t2"},{"Rune":"rune_03_othalan","Hex":"#3366ff99","Correct":-1,"Choice":-1,"RT":-1,"Accuracy":1,"Outcome":"-1","Keys":[],"TotalKeys":0,"Block":2,"Trial":189,"Robot":4,"Valence":"Lose","Action":"No-Go","Sham":0,"Color":"blue","trial_type":"pit-trial","trial_index":208,"time_elapsed":826953,"internal_node_id":"0.0-197.0","task_version":"test-retest-t2"},{"Rune":"rune_03_algiz","Hex":"#ffcc3399","Correct":32,"Choice":32,"RT":473.3649999834597,"Accuracy":1,"Outcome":"+10","Keys":[1975.1550001092255],"TotalKeys":1,"Block":2,"Trial":190,"Robot":1,"Valence":"Win","Action":"Go","Sham":0,"Color":"yellow","trial_type":"pit-trial","trial_index":209,"time_elapsed":829934,"internal_node_id":"0.0-198.0","task_version":"test-retest-t2"},{"Rune":"rune_03_naudiz","Hex":"#3366ff99","Correct":32,"Choice":32,"RT":394.4850000552833,"Accuracy":1,"Outcome":"-1","Keys":[1895.4600000288337],"TotalKeys":1,"Block":2,"Trial":191,"Robot":3,"Valence":"Lose","Action":"Go","Sham":0,"Color":"blue","trial_type":"pit-trial","trial_index":210,"time_elapsed":832837,"internal_node_id":"0.0-199.0","task_version":"test-retest-t2"},{"Rune":"rune_03_uruz","Hex":"#ffcc3399","Correct":-1,"Choice":-1,"RT":-1,"Accuracy":1,"Outcome":"+10","Keys":[],"TotalKeys":0,"Block":2,"Trial":192,"Robot":2,"Valence":"Win","Action":"No-Go","Sham":0,"Color":"yellow","trial_type":"pit-trial","trial_index":211,"time_elapsed":836846,"internal_node_id":"0.0-200.0","task_version":"test-retest-t2"},{"Rune":"rune_03_naudiz","Hex":"#3366ff99","Correct":32,"Choice":32,"RT":453.67499999701977,"Accuracy":1,"Outcome":"-1","Keys":[1954.230000032112],"TotalKeys":1,"Block":2,"Trial":193,"Robot":3,"Valence":"Lose","Action":"Go","Sham":0,"Color":"blue","trial_type":"pit-trial","trial_index":212,"time_elapsed":839807,"internal_node_id":"0.0-201.0","task_version":"test-retest-t2"},{"Rune":"rune_03_othalan","Hex":"#3366ff99","Correct":-1,"Choice":-1,"RT":-1,"Accuracy":1,"Outcome":"-1","Keys":[],"TotalKeys":0,"Block":2,"Trial":194,"Robot":4,"Valence":"Lose","Action":"No-Go","Sham":0,"Color":"blue","trial_type":"pit-trial","trial_index":213,"time_elapsed":843813,"internal_node_id":"0.0-202.0","task_version":"test-retest-t2"},{"Rune":"rune_03_algiz","Hex":"#ffcc3399","Correct":32,"Choice":32,"RT":356.0799998231232,"Accuracy":1,"Outcome":"+10","Keys":[1856.4899999182671],"TotalKeys":1,"Block":2,"Trial":195,"Robot":1,"Valence":"Win","Action":"Go","Sham":0,"Color":"yellow","trial_type":"pit-trial","trial_index":214,"time_elapsed":846674,"internal_node_id":"0.0-203.0","task_version":"test-retest-t2"},{"Rune":"rune_03_uruz","Hex":"#ffcc3399","Correct":-1,"Choice":-1,"RT":-1,"Accuracy":1,"Outcome":"+10","Keys":[],"TotalKeys":0,"Block":2,"Trial":196,"Robot":2,"Valence":"Win","Action":"No-Go","Sham":0,"Color":"yellow","trial_type":"pit-trial","trial_index":215,"time_elapsed":850686,"internal_node_id":"0.0-204.0","task_version":"test-retest-t2"},{"Rune":"rune_03_naudiz","Hex":"#3366ff99","Correct":32,"Choice":32,"RT":447.2700001206249,"Accuracy":1,"Outcome":"-1","Keys":[1947.395000141114],"TotalKeys":1,"Block":2,"Trial":197,"Robot":3,"Valence":"Lose","Action":"Go","Sham":0,"Color":"blue","trial_type":"pit-trial","trial_index":216,"time_elapsed":853639,"internal_node_id":"0.0-205.0","task_version":"test-retest-t2"},{"Rune":"rune_03_uruz","Hex":"#ffcc3399","Correct":-1,"Choice":-1,"RT":-1,"Accuracy":1,"Outcome":"+10","Keys":[],"TotalKeys":0,"Block":2,"Trial":198,"Robot":2,"Valence":"Win","Action":"No-Go","Sham":0,"Color":"yellow","trial_type":"pit-trial","trial_index":217,"time_elapsed":857651,"internal_node_id":"0.0-206.0","task_version":"test-retest-t2"},{"Rune":"rune_03_othalan","Hex":"#3366ff99","Correct":-1,"Choice":-1,"RT":-1,"Accuracy":1,"Outcome":"-1","Keys":[],"TotalKeys":0,"Block":2,"Trial":199,"Robot":4,"Valence":"Lose","Action":"No-Go","Sham":0,"Color":"blue","trial_type":"pit-trial","trial_index":218,"time_elapsed":861657,"internal_node_id":"0.0-207.0","task_version":"test-retest-t2"},{"Rune":"rune_03_algiz","Hex":"#ffcc3399","Correct":32,"Choice":32,"RT":446.28999987617135,"Accuracy":1,"Outcome":"+1","Keys":[1948.3450001571327],"TotalKeys":1,"Block":2,"Trial":200,"Robot":1,"Valence":"Win","Action":"Go","Sham":1,"Color":"yellow","trial_type":"pit-trial","trial_index":219,"time_elapsed":864613,"internal_node_id":"0.0-208.0","task_version":"test-retest-t2"},{"Rune":"rune_03_uruz","Hex":"#ffcc3399","Correct":-1,"Choice":-1,"RT":-1,"Accuracy":1,"Outcome":"+10","Keys":[],"TotalKeys":0,"Block":2,"Trial":201,"Robot":2,"Valence":"Win","Action":"No-Go","Sham":0,"Color":"yellow","trial_type":"pit-trial","trial_index":220,"time_elapsed":868626,"internal_node_id":"0.0-209.0","task_version":"test-retest-t2"},{"Rune":"rune_03_othalan","Hex":"#3366ff99","Correct":-1,"Choice":-1,"RT":-1,"Accuracy":1,"Outcome":"-1","Keys":[],"TotalKeys":0,"Block":2,"Trial":202,"Robot":4,"Valence":"Lose","Action":"No-Go","Sham":0,"Color":"blue","trial_type":"pit-trial","trial_index":221,"time_elapsed":872635,"internal_node_id":"0.0-210.0","task_version":"test-retest-t2"},{"Rune":"rune_03_naudiz","Hex":"#3366ff99","Correct":32,"Choice":32,"RT":406.56499983742833,"Accuracy":1,"Outcome":"-1","Keys":[1906.8799999076873],"TotalKeys":1,"Block":2,"Trial":203,"Robot":3,"Valence":"Lose","Action":"Go","Sham":0,"Color":"blue","trial_type":"pit-trial","trial_index":222,"time_elapsed":875548,"internal_node_id":"0.0-211.0","task_version":"test-retest-t2"},{"Rune":"rune_03_algiz","Hex":"#ffcc3399","Correct":32,"Choice":32,"RT":299.1600001696497,"Accuracy":1,"Outcome":"+10","Keys":[1799.3850000202656],"TotalKeys":1,"Block":2,"Trial":204,"Robot":1,"Valence":"Win","Action":"Go","Sham":0,"Color":"yellow","trial_type":"pit-trial","trial_index":223,"time_elapsed":878352,"internal_node_id":"0.0-212.0","task_version":"test-retest-t2"},{"Rune":"rune_03_uruz","Hex":"#ffcc3399","Correct":-1,"Choice":-1,"RT":-1,"Accuracy":1,"Outcome":"+10","Keys":[],"TotalKeys":0,"Block":2,"Trial":205,"Robot":2,"Valence":"Win","Action":"No-Go","Sham":0,"Color":"yellow","trial_type":"pit-trial","trial_index":224,"time_elapsed":882363,"internal_node_id":"0.0-213.0","task_version":"test-retest-t2"},{"Rune":"rune_03_othalan","Hex":"#3366ff99","Correct":-1,"Choice":-1,"RT":-1,"Accuracy":1,"Outcome":"-10","Keys":[],"TotalKeys":0,"Block":2,"Trial":206,"Robot":4,"Valence":"Lose","Action":"No-Go","Sham":1,"Color":"blue","trial_type":"pit-trial","trial_index":225,"time_elapsed":886374,"internal_node_id":"0.0-214.0","task_version":"test-retest-t2"},{"Rune":"rune_03_algiz","Hex":"#ffcc3399","Correct":32,"Choice":32,"RT":436.8549999780953,"Accuracy":1,"Outcome":"+10","Keys":[1937.4400000087917],"TotalKeys":1,"Block":2,"Trial":207,"Robot":1,"Valence":"Win","Action":"Go","Sham":0,"Color":"yellow","trial_type":"pit-trial","trial_index":226,"time_elapsed":889317,"internal_node_id":"0.0-215.0","task_version":"test-retest-t2"},{"Rune":"rune_03_naudiz","Hex":"#3366ff99","Correct":32,"Choice":32,"RT":515.8849998842925,"Accuracy":1,"Outcome":"-1","Keys":[2016.0900000482798],"TotalKeys":1,"Block":2,"Trial":208,"Robot":3,"Valence":"Lose","Action":"Go","Sham":0,"Color":"blue","trial_type":"pit-trial","trial_index":227,"time_elapsed":892339,"internal_node_id":"0.0-216.0","task_version":"test-retest-t2"},{"Rune":"rune_03_naudiz","Hex":"#3366ff99","Correct":32,"Choice":32,"RT":320.5499998293817,"Accuracy":1,"Outcome":"-1","Keys":[1820.7050000783056],"TotalKeys":1,"Block":2,"Trial":209,"Robot":3,"Valence":"Lose","Action":"Go","Sham":0,"Color":"blue","trial_type":"pit-trial","trial_index":228,"time_elapsed":895167,"internal_node_id":"0.0-217.0","task_version":"test-retest-t2"},{"Rune":"rune_03_algiz","Hex":"#ffcc3399","Correct":32,"Choice":32,"RT":409.23499991185963,"Accuracy":1,"Outcome":"+1","Keys":[1909.8950000479817],"TotalKeys":1,"Block":2,"Trial":210,"Robot":1,"Valence":"Win","Action":"Go","Sham":1,"Color":"yellow","trial_type":"pit-trial","trial_index":229,"time_elapsed":898085,"internal_node_id":"0.0-218.0","task_version":"test-retest-t2"},{"Rune":"rune_03_othalan","Hex":"#3366ff99","Correct":-1,"Choice":-1,"RT":-1,"Accuracy":1,"Outcome":"-1","Keys":[],"TotalKeys":0,"Block":2,"Trial":211,"Robot":4,"Valence":"Lose","Action":"No-Go","Sham":0,"Color":"blue","trial_type":"pit-trial","trial_index":230,"time_elapsed":902095,"internal_node_id":"0.0-219.0","task_version":"test-retest-t2"},{"Rune":"rune_03_uruz","Hex":"#ffcc3399","Correct":-1,"Choice":-1,"RT":-1,"Accuracy":1,"Outcome":"+10","Keys":[],"TotalKeys":0,"Block":2,"Trial":212,"Robot":2,"Valence":"Win","Action":"No-Go","Sham":0,"Color":"yellow","trial_type":"pit-trial","trial_index":231,"time_elapsed":906104,"internal_node_id":"0.0-220.0","task_version":"test-retest-t2"},{"Rune":"rune_03_algiz","Hex":"#ffcc3399","Correct":32,"Choice":32,"RT":454.4599999208003,"Accuracy":1,"Outcome":"+10","Keys":[1955.0250000320375],"TotalKeys":1,"Block":2,"Trial":213,"Robot":1,"Valence":"Win","Action":"Go","Sham":0,"Color":"yellow","trial_type":"pit-trial","trial_index":232,"time_elapsed":909067,"internal_node_id":"0.0-221.0","task_version":"test-retest-t2"},{"Rune":"rune_03_naudiz","Hex":"#3366ff99","Correct":32,"Choice":32,"RT":456.56000007875264,"Accuracy":1,"Outcome":"-10","Keys":[1957.0650001987815],"TotalKeys":1,"Block":2,"Trial":214,"Robot":3,"Valence":"Lose","Action":"Go","Sham":1,"Color":"blue","trial_type":"pit-trial","trial_index":233,"time_elapsed":912032,"internal_node_id":"0.0-222.0","task_version":"test-retest-t2"},{"Rune":"rune_03_uruz","Hex":"#ffcc3399","Correct":-1,"Choice":-1,"RT":-1,"Accuracy":1,"Outcome":"+1","Keys":[],"TotalKeys":0,"Block":2,"Trial":215,"Robot":2,"Valence":"Win","Action":"No-Go","Sham":1,"Color":"yellow","trial_type":"pit-trial","trial_index":234,"time_elapsed":916043,"internal_node_id":"0.0-223.0","task_version":"test-retest-t2"},{"Rune":"rune_03_othalan","Hex":"#3366ff99","Correct":-1,"Choice":-1,"RT":-1,"Accuracy":1,"Outcome":"-1","Keys":[],"TotalKeys":0,"Block":2,"Trial":216,"Robot":4,"Valence":"Lose","Action":"No-Go","Sham":0,"Color":"blue","trial_type":"pit-trial","trial_index":235,"time_elapsed":920055,"internal_node_id":"0.0-224.0","task_version":"test-retest-t2"},{"Rune":"rune_03_uruz","Hex":"#ffcc3399","Correct":-1,"Choice":-1,"RT":-1,"Accuracy":1,"Outcome":"+10","Keys":[],"TotalKeys":0,"Block":2,"Trial":217,"Robot":2,"Valence":"Win","Action":"No-Go","Sham":0,"Color":"yellow","trial_type":"pit-trial","trial_index":236,"time_elapsed":924065,"internal_node_id":"0.0-225.0","task_version":"test-retest-t2"},{"Rune":"rune_03_naudiz","Hex":"#3366ff99","Correct":32,"Choice":32,"RT":456.57999999821186,"Accuracy":1,"Outcome":"-1","Keys":[1957.230000058189],"TotalKeys":1,"Block":2,"Trial":218,"Robot":3,"Valence":"Lose","Action":"Go","Sham":0,"Color":"blue","trial_type":"pit-trial","trial_index":237,"time_elapsed":927029,"internal_node_id":"0.0-226.0","task_version":"test-retest-t2"},{"Rune":"rune_03_algiz","Hex":"#ffcc3399","Correct":32,"Choice":32,"RT":434.5900001935661,"Accuracy":1,"Outcome":"+10","Keys":[1934.7699999343604],"TotalKeys":1,"Block":2,"Trial":219,"Robot":1,"Valence":"Win","Action":"Go","Sham":0,"Color":"yellow","trial_type":"pit-trial","trial_index":238,"time_elapsed":929972,"internal_node_id":"0.0-227.0","task_version":"test-retest-t2"},{"Rune":"rune_03_othalan","Hex":"#3366ff99","Correct":-1,"Choice":-1,"RT":-1,"Accuracy":1,"Outcome":"-1","Keys":[],"TotalKeys":0,"Block":2,"Trial":220,"Robot":4,"Valence":"Lose","Action":"No-Go","Sham":0,"Color":"blue","trial_type":"pit-trial","trial_index":239,"time_elapsed":933980,"internal_node_id":"0.0-228.0","task_version":"test-retest-t2"},{"Rune":"rune_03_uruz","Hex":"#ffcc3399","Correct":-1,"Choice":-1,"RT":-1,"Accuracy":1,"Outcome":"+10","Keys":[],"TotalKeys":0,"Block":2,"Trial":221,"Robot":2,"Valence":"Win","Action":"No-Go","Sham":0,"Color":"yellow","trial_type":"pit-trial","trial_index":240,"time_elapsed":937990,"internal_node_id":"0.0-229.0","task_version":"test-retest-t2"},{"Rune":"rune_03_algiz","Hex":"#ffcc3399","Correct":32,"Choice":32,"RT":493.16499987617135,"Accuracy":1,"Outcome":"+10","Keys":[1993.4350000694394],"TotalKeys":1,"Block":2,"Trial":222,"Robot":1,"Valence":"Win","Action":"Go","Sham":0,"Color":"yellow","trial_type":"pit-trial","trial_index":241,"time_elapsed":940991,"internal_node_id":"0.0-230.0","task_version":"test-retest-t2"},{"Rune":"rune_03_naudiz","Hex":"#3366ff99","Correct":32,"Choice":32,"RT":600.9700000286102,"Accuracy":1,"Outcome":"-1","Keys":[2101.49999987334],"TotalKeys":1,"Block":2,"Trial":223,"Robot":3,"Valence":"Lose","Action":"Go","Sham":0,"Color":"blue","trial_type":"pit-trial","trial_index":242,"time_elapsed":944099,"internal_node_id":"0.0-231.0","task_version":"test-retest-t2"},{"Rune":"rune_03_othalan","Hex":"#3366ff99","Correct":-1,"Choice":-1,"RT":-1,"Accuracy":1,"Outcome":"-1","Keys":[],"TotalKeys":0,"Block":2,"Trial":224,"Robot":4,"Valence":"Lose","Action":"No-Go","Sham":0,"Color":"blue","trial_type":"pit-trial","trial_index":243,"time_elapsed":948108,"internal_node_id":"0.0-232.0","task_version":"test-retest-t2"},{"Rune":"rune_03_othalan","Hex":"#3366ff99","Correct":-1,"Choice":-1,"RT":-1,"Accuracy":1,"Outcome":"-1","Keys":[],"TotalKeys":0,"Block":2,"Trial":225,"Robot":4,"Valence":"Lose","Action":"No-Go","Sham":0,"Color":"blue","trial_type":"pit-trial","trial_index":244,"time_elapsed":952114,"internal_node_id":"0.0-233.0","task_version":"test-retest-t2"},{"Rune":"rune_03_algiz","Hex":"#ffcc3399","Correct":32,"Choice":32,"RT":471.614999929443,"Accuracy":1,"Outcome":"+10","Keys":[1972.4200000055134],"TotalKeys":1,"Block":2,"Trial":226,"Robot":1,"Valence":"Win","Action":"Go","Sham":0,"Color":"yellow","trial_type":"pit-trial","trial_index":245,"time_elapsed":955094,"internal_node_id":"0.0-234.0","task_version":"test-retest-t2"},{"Rune":"rune_03_uruz","Hex":"#ffcc3399","Correct":-1,"Choice":-1,"RT":-1,"Accuracy":1,"Outcome":"+10","Keys":[],"TotalKeys":0,"Block":2,"Trial":227,"Robot":2,"Valence":"Win","Action":"No-Go","Sham":0,"Color":"yellow","trial_type":"pit-trial","trial_index":246,"time_elapsed":959102,"internal_node_id":"0.0-235.0","task_version":"test-retest-t2"},{"Rune":"rune_03_naudiz","Hex":"#3366ff99","Correct":32,"Choice":32,"RT":486.2100000027567,"Accuracy":1,"Outcome":"-1","Keys":[1986.4000000525266],"TotalKeys":1,"Block":2,"Trial":228,"Robot":3,"Valence":"Lose","Action":"Go","Sham":0,"Color":"blue","trial_type":"pit-trial","trial_index":247,"time_elapsed":962092,"internal_node_id":"0.0-236.0","task_version":"test-retest-t2"},{"Rune":"rune_03_uruz","Hex":"#ffcc3399","Correct":-1,"Choice":-1,"RT":-1,"Accuracy":1,"Outcome":"+10","Keys":[],"TotalKeys":0,"Block":2,"Trial":229,"Robot":2,"Valence":"Win","Action":"No-Go","Sham":0,"Color":"yellow","trial_type":"pit-trial","trial_index":248,"time_elapsed":966104,"internal_node_id":"0.0-237.0","task_version":"test-retest-t2"},{"Rune":"rune_03_naudiz","Hex":"#3366ff99","Correct":32,"Choice":32,"RT":476.8749999348074,"Accuracy":1,"Outcome":"-10","Keys":[1977.3750000167638],"TotalKeys":1,"Block":2,"Trial":230,"Robot":3,"Valence":"Lose","Action":"Go","Sham":1,"Color":"blue","trial_type":"pit-trial","trial_index":249,"time_elapsed":969086,"internal_node_id":"0.0-238.0","task_version":"test-retest-t2"},{"Rune":"rune_03_othalan","Hex":"#3366ff99","Correct":-1,"Choice":-1,"RT":-1,"Accuracy":1,"Outcome":"-1","Keys":[],"TotalKeys":0,"Block":2,"Trial":231,"Robot":4,"Valence":"Lose","Action":"No-Go","Sham":0,"Color":"blue","trial_type":"pit-trial","trial_index":250,"time_elapsed":973098,"internal_node_id":"0.0-239.0","task_version":"test-retest-t2"},{"Rune":"rune_03_algiz","Hex":"#ffcc3399","Correct":32,"Choice":32,"RT":384.5850001089275,"Accuracy":1,"Outcome":"+1","Keys":[1884.7899998072535],"TotalKeys":1,"Block":2,"Trial":232,"Robot":1,"Valence":"Win","Action":"Go","Sham":1,"Color":"yellow","trial_type":"pit-trial","trial_index":251,"time_elapsed":975990,"internal_node_id":"0.0-240.0","task_version":"test-retest-t2"},{"Rune":"rune_03_algiz","Hex":"#ffcc3399","Correct":32,"Choice":32,"RT":452.4049998726696,"Accuracy":1,"Outcome":"+10","Keys":[1955.2450000774115],"TotalKeys":1,"Block":2,"Trial":233,"Robot":1,"Valence":"Win","Action":"Go","Sham":0,"Color":"yellow","trial_type":"pit-trial","trial_index":252,"time_elapsed":978950,"internal_node_id":"0.0-241.0","task_version":"test-retest-t2"},{"Rune":"rune_03_naudiz","Hex":"#3366ff99","Correct":32,"Choice":32,"RT":412.8749999217689,"Accuracy":1,"Outcome":"-1","Keys":[1913.3350001648068],"TotalKeys":1,"Block":2,"Trial":234,"Robot":3,"Valence":"Lose","Action":"Go","Sham":0,"Color":"blue","trial_type":"pit-trial","trial_index":253,"time_elapsed":981869,"internal_node_id":"0.0-242.0","task_version":"test-retest-t2"},{"Rune":"rune_03_uruz","Hex":"#ffcc3399","Correct":-1,"Choice":-1,"RT":-1,"Accuracy":1,"Outcome":"+1","Keys":[],"TotalKeys":0,"Block":2,"Trial":235,"Robot":2,"Valence":"Win","Action":"No-Go","Sham":1,"Color":"yellow","trial_type":"pit-trial","trial_index":254,"time_elapsed":985880,"internal_node_id":"0.0-243.0","task_version":"test-retest-t2"},{"Rune":"rune_03_othalan","Hex":"#3366ff99","Correct":-1,"Choice":-1,"RT":-1,"Accuracy":1,"Outcome":"-1","Keys":[],"TotalKeys":0,"Block":2,"Trial":236,"Robot":4,"Valence":"Lose","Action":"No-Go","Sham":0,"Color":"blue","trial_type":"pit-trial","trial_index":255,"time_elapsed":989884,"internal_node_id":"0.0-244.0","task_version":"test-retest-t2"},{"Rune":"rune_03_uruz","Hex":"#ffcc3399","Correct":-1,"Choice":-1,"RT":-1,"Accuracy":1,"Outcome":"+10","Keys":[],"TotalKeys":0,"Block":2,"Trial":237,"Robot":2,"Valence":"Win","Action":"No-Go","Sham":0,"Color":"yellow","trial_type":"pit-trial","trial_index":256,"time_elapsed":993891,"internal_node_id":"0.0-245.0","task_version":"test-retest-t2"},{"Rune":"rune_03_algiz","Hex":"#ffcc3399","Correct":32,"Choice":32,"RT":474.0750000346452,"Accuracy":1,"Outcome":"+10","Keys":[1974.269999889657],"TotalKeys":1,"Block":2,"Trial":238,"Robot":1,"Valence":"Win","Action":"Go","Sham":0,"Color":"yellow","trial_type":"pit-trial","trial_index":257,"time_elapsed":996869,"internal_node_id":"0.0-246.0","task_version":"test-retest-t2"},{"Rune":"rune_03_othalan","Hex":"#3366ff99","Correct":-1,"Choice":-1,"RT":-1,"Accuracy":1,"Outcome":"-10","Keys":[],"TotalKeys":0,"Block":2,"Trial":239,"Robot":4,"Valence":"Lose","Action":"No-Go","Sham":1,"Color":"blue","trial_type":"pit-trial","trial_index":258,"time_elapsed":1000880,"internal_node_id":"0.0-247.0","task_version":"test-retest-t2"},{"Rune":"rune_03_naudiz","Hex":"#3366ff99","Correct":32,"Choice":32,"RT":522.435000166297,"Accuracy":1,"Outcome":"-1","Keys":[2022.7700001560152],"TotalKeys":1,"Block":2,"Trial":240,"Robot":3,"Valence":"Lose","Action":"Go","Sham":0,"Color":"blue","trial_type":"pit-trial","trial_index":259,"time_elapsed":1003908,"internal_node_id":"0.0-248.0","task_version":"test-retest-t2"},{"view_history":"[{\"page_index\":0,\"viewing_time\":2087.9750000312924}]","rt":2088.4800001513213,"trial_type":"pit-instructions","trial_index":260,"time_elapsed":1005998,"internal_node_id":"0.0-249.0","task_version":"test-retest-t2"},{"rt":20527.239999966696,"responses":{"difficulty":"4","fun":"3","clarity":"5","strategy":"no","feedback":"no"},"survey":"debrief","trial_type":"survey-debrief","trial_index":261,"time_elapsed":1026528,"internal_node_id":"0.0-250.0","task_version":"test-retest-t2"},{"rt":6717.6500000059605,"stimulus":"You earned a bonus of $1.45 out of $1.5.<br><br>Press any key to complete the experiment.","key_press":32,"trial_type":"html-keyboard-response","trial_index":262,"time_elapsed":1033248,"internal_node_id":"0.0-251.0","task_version":"test-retest-t2","accuracy":0.9625,"bonus":1.45,"interactions":"[]"}]