[{"slider_type":"valence","raw_loc":494.5,"loc":0.489,"trial_type":"affective-slider","trial_index":0,"time_elapsed":5474,"internal_node_id":"0.0-0.0","task_version":"test-retest-t2"},{"responses":{"Q07":"0","Q04":"0","Q03":"0","Q08":"0","Q02":"0","Q05":"0","Q01":"1","Q06":"0"},"rt":31575.77499999934,"survey":"gad7","trial_type":"survey-template","trial_index":1,"time_elapsed":37060,"internal_node_id":"0.0-1.0","task_version":"test-retest-t2"},{"view_history":"[{\"page_index\":0,\"viewing_time\":2967.319999999745},{\"page_index\":1,\"viewing_time\":2103.820000000269},{\"page_index\":2,\"viewing_time\":1555.2150000003166},{\"page_index\":3,\"viewing_time\":4702.729999999065},{\"page_index\":4,\"viewing_time\":3852.6899999997113},{\"page_index\":5,\"viewing_time\":2497.3900000004505}]","rt":17680.599999999686,"trial_type":"pit-instructions","trial_index":2,"time_elapsed":54752,"internal_node_id":"0.0-2.0-0.0","task_version":"test-retest-t2"},{"Rune":"rune_00_ingz","Hex":"#FFFFF080","Correct":32,"Choice":32,"RT":472.4999999998545,"Accuracy":1,"Outcome":"+10","Keys":[1973.3449999985169],"TotalKeys":1,"Block":0,"Action":"Go","trial_type":"pit-trial","trial_index":3,"time_elapsed":57734,"internal_node_id":"0.0-2.0-1.0-0.0","task_version":"test-retest-t2"},{"Rune":"rune_00_ingz","Hex":"#FFFFF080","Correct":32,"Choice":32,"RT":433.81500000032247,"Accuracy":1,"Outcome":"+10","Keys":[1933.95000000055],"TotalKeys":1,"Block":0,"Action":"Go","trial_type":"pit-trial","trial_index":4,"time_elapsed":60677,"internal_node_id":"0.0-2.0-1.0-0.1","task_version":"test-retest-t2"},{"Rune":"rune_00_ingz","Hex":"#FFFFF080","Correct":32,"Choice":32,"RT":456.3450000005105,"Accuracy":1,"Outcome":"+10","Keys":[1957.8700000001845],"TotalKeys":1,"Block":0,"Action":"Go","trial_type":"pit-trial","trial_index":5,"time_elapsed":63644,"internal_node_id":"0.0-2.0-1.0-0.2","task_version":"test-retest-t2"},{"Rune":"rune_00_ingz","Hex":"#FFFFF080","Correct":32,"Choice":32,"RT":230.66500000095402,"Accuracy":1,"Outcome":"+10","Keys":[1732.3949999990873],"TotalKeys":1,"Block":0,"Action":"Go","trial_type":"pit-trial","trial_index":6,"time_elapsed":66387,"internal_node_id":"0.0-2.0-1.0-0.3","task_version":"test-retest-t2"},{"view_history":"[{\"page_index\":0,\"viewing_time\":2558.1750000001193}]","rt":2558.905000001687,"trial_type":"pit-instructions","trial_index":7,"time_elapsed":68949,"internal_node_id":"0.0-2.0-2.0","task_version":"test-retest-t2"},{"Rune":"rune_00_isaz","Hex":"#FFFFF080","Correct":-1,"Choice":-1,"RT":-1,"Accuracy":1,"Outcome":"+10","Keys":[],"TotalKeys":0,"Block":0,"Action":"No-Go","trial_type":"pit-trial","trial_index":8,"time_elapsed":72962,"internal_node_id":"0.0-2.0-3.0-0.0","task_version":"test-retest-t2"},{"Rune":"rune_00_isaz","Hex":"#FFFFF080","Correct":-1,"Choice":-1,"RT":-1,"Accuracy":1,"Outcome":"+10","Keys":[],"TotalKeys":0,"Block":0,"Action":"No-Go","trial_type":"pit-trial","trial_index":9,"time_elapsed":76972,"internal_node_id":"0.0-2.0-3.0-0.1","task_version":"test-retest-t2"},{"Rune":"rune_00_isaz","Hex":"#FFFFF080","Correct":-1,"Choice":-1,"RT":-1,"Accuracy":1,"Outcome":"+10","Keys":[],"TotalKeys":0,"Block":0,"Action":"No-Go","trial_type":"pit-trial","trial_index":10,"time_elapsed":80984,"internal_node_id":"0.0-2.0-3.0-0.2","task_version":"test-retest-t2"},{"Rune":"rune_00_isaz","Hex":"#FFFFF080","Correct":-1,"Choice":-1,"RT":-1,"Accuracy":1,"Outcome":"+10","Keys":[],"TotalKeys":0,"Block":0,"Action":"No-Go","trial_type":"pit-trial","trial_index":11,"time_elapsed":84994,"internal_node_id":"0.0-2.0-3.0-0.3","task_version":"test-retest-t2"},{"view_history":"[{\"page_index\":0,\"viewing_time\":5680.239999999685},{\"page_index\":1,\"viewing_time\":6947.42000000042},{\"page_index\":2,\"viewing_time\":5999.535000000833},{\"page_index\":3,\"viewing_time\":2669.2199999997683},{\"page_index\":4,\"viewing_time\":2272.7949999989505},{\"page_index\":5,\"viewing_time\":4059.3250000001717},{\"page_index\":6,\"viewing_time\":2272.7150000009715},{\"page_index\":7,\"viewing_time\":5435.369999999239}]","rt":35337.359999999535,"trial_type":"pit-instructions","trial_index":12,"time_elapsed":120334,"internal_node_id":"0.0-2.0-4.0","task_version":"test-retest-t2"},{"responses":["Do nothing","+10","-1","True","Yes"],"num_errors":0,"rt":21396.994999999137,"trial_type":"pit-comprehension","trial_index":13,"time_elapsed":141740,"internal_node_id":"0.0-2.0-5.0","task_version":"test-retest-t2"},{"trial_type":"call-function","trial_index":14,"time_elapsed":141745,"internal_node_id":"0.0-3.0","task_version":"test-retest-t2"},{"view_history":"[{\"page_index\":0,\"viewing_time\":1399.3399999999674},{\"page_index\":1,\"viewing_time\":1587.1999999999243},{\"page_index\":2,\"viewing_time\":1896.3550000007672}]","rt":4883.514999999548,"trial_type":"pit-instructions","trial_index":15,"time_elapsed":146629,"internal_node_id":"0.0-4.0","task_version":"test-retest-t2"},{"Rune":"rune_03_naudiz","Hex":"#3366ff99","Correct":-1,"Choice":32,"RT":495.46000000007916,"Accuracy":0,"Outcome":"-10","Keys":[1998.0849999992643],"TotalKeys":1,"Block":1,"Trial":1,"Robot":4,"Valence":"Lose","Action":"No-Go","Sham":0,"Color":"blue","trial_type":"pit-trial","trial_index":16,"time_elapsed":149643,"internal_node_id":"0.0-5.0","task_version":"test-retest-t2"},{"Rune":"rune_03_uruz","Hex":"#3366ff99","Correct":32,"Choice":32,"RT":572.7249999999767,"Accuracy":1,"Outcome":"-1","Keys":[2073.114999999234],"TotalKeys":1,"Block":1,"Trial":2,"Robot":3,"Valence":"Lose","Action":"Go","Sham":0,"Color":"blue","trial_type":"pit-trial","trial_index":17,"time_elapsed":152723,"internal_node_id":"0.0-6.0","task_version":"test-retest-t2"},{"Rune":"rune_03_algiz","Hex":"#ffcc3399","Correct":32,"Choice":32,"RT":832.2399999997579,"Accuracy":1,"Outcome":"+10","Keys":[2332.9549999998417],"TotalKeys":1,"Block":1,"Trial":3,"Robot":1,"Valence":"Win","Action":"Go","Sham":0,"Color":"yellow","trial_type":"pit-trial","trial_index":18,"time_elapsed":156064,"internal_node_id":"0.0-7.0","task_version":"test-retest-t2"},{"Rune":"rune_03_othalan","Hex":"#ffcc3399","Correct":-1,"Choice":32,"RT":643.6799999992072,"Accuracy":0,"Outcome":"+1","Keys":[2143.785000000207],"TotalKeys":1,"Block":1,"Trial":4,"Robot":2,"Valence":"Win","Action":"No-Go","Sham":0,"Color":"yellow","trial_type":"pit-trial","trial_index":19,"time_elapsed":159215,"internal_node_id":"0.0-8.0","task_version":"test-retest-t2"},{"Rune":"rune_03_othalan","Hex":"#ffcc3399","Correct":-1,"Choice":32,"RT":712.6399999997229,"Accuracy":0,"Outcome":"+1","Keys":[2213.0900000011316],"TotalKeys":1,"Block":1,"Trial":5,"Robot":2,"Valence":"Win","Action":"No-Go","Sham":0,"Color":"yellow","trial_type":"pit-trial","trial_index":20,"time_elapsed":162436,"internal_node_id":"0.0-9.0","task_version":"test-retest-t2"},{"Rune":"rune_03_uruz","Hex":"#3366ff99","Correct":32,"Choice":32,"RT":714.229999999603,"Accuracy":1,"Outcome":"-10","Keys":[2214.6800000009825],"TotalKeys":1,"Block":1,"Trial":6,"Robot":3,"Valence":"Lose","Action":"Go","Sham":1,"Color":"blue","trial_type":"pit-trial","trial_index":21,"time_elapsed":165657,"internal_node_id":"0.0-10.0","task_version":"test-retest-t2"},{"Rune":"rune_03_algiz","Hex":"#ffcc3399","Correct":32,"Choice":32,"RT":610.2399999999616,"Accuracy":1,"Outcome":"+1","Keys":[2110.7799999990675],"TotalKeys":1,"Block":1,"Trial":7,"Robot":1,"Valence":"Win","Action":"Go","Sham":1,"Color":"yellow","trial_type":"pit-trial","trial_index":22,"time_elapsed":168776,"internal_node_id":"0.0-11.0","task_version":"test-retest-t2"},{"Rune":"rune_03_naudiz","Hex":"#3366ff99","Correct":-1,"Choice":-1,"RT":-1,"Accuracy":1,"Outcome":"-1","Keys":[],"TotalKeys":0,"Block":1,"Trial":8,"Robot":4,"Valence":"Lose","Action":"No-Go","Sham":0,"Color":"blue","trial_type":"pit-trial","trial_index":23,"time_elapsed":172788,"internal_node_id":"0.0-12.0","task_version":"test-retest-t2"},{"Rune":"rune_03_uruz","Hex":"#3366ff99","Correct":32,"Choice":32,"RT":685.6549999993294,"Accuracy":1,"Outcome":"-1","Keys":[2187.954999999405],"TotalKeys":1,"Block":1,"Trial":9,"Robot":3,"Valence":"Lose","Action":"Go","Sham":0,"Color":"blue","trial_type":"pit-trial","trial_index":24,"time_elapsed":175984,"internal_node_id":"0.0-13.0","task_version":"test-retest-t2"},{"Rune":"rune_03_naudiz","Hex":"#3366ff99","Correct":-1,"Choice":-1,"RT":-1,"Accuracy":1,"Outcome":"-10","Keys":[],"TotalKeys":0,"Block":1,"Trial":10,"Robot":4,"Valence":"Lose","Action":"No-Go","Sham":1,"Color":"blue","trial_type":"pit-trial","trial_index":25,"time_elapsed":179996,"internal_node_id":"0.0-14.0","task_version":"test-retest-t2"},{"Rune":"rune_03_othalan","Hex":"#ffcc3399","Correct":-1,"Choice":32,"RT":693.3349999999045,"Accuracy":0,"Outcome":"+1","Keys":[2193.7050000015006],"TotalKeys":1,"Block":1,"Trial":11,"Robot":2,"Valence":"Win","Action":"No-Go","Sham":0,"Color":"yellow","trial_type":"pit-trial","trial_index":26,"time_elapsed":183197,"internal_node_id":"0.0-15.0","task_version":"test-retest-t2"},{"Rune":"rune_03_algiz","Hex":"#ffcc3399","Correct":32,"Choice":32,"RT":751.419999998674,"Accuracy":1,"Outcome":"+10","Keys":[2252.6799999996147],"TotalKeys":1,"Block":1,"Trial":12,"Robot":1,"Valence":"Win","Action":"Go","Sham":0,"Color":"yellow","trial_type":"pit-trial","trial_index":27,"time_elapsed":186457,"internal_node_id":"0.0-16.0","task_version":"test-retest-t2"},{"Rune":"rune_03_algiz","Hex":"#ffcc3399","Correct":32,"Choice":32,"RT":1215.3950000010664,"Accuracy":1,"Outcome":"+10","Keys":[2715.5149999998685],"TotalKeys":1,"Block":1,"Trial":13,"Robot":1,"Valence":"Win","Action":"Go","Sham":0,"Color":"yellow","trial_type":"pit-trial","trial_index":28,"time_elapsed":190178,"internal_node_id":"0.0-17.0","task_version":"test-retest-t2"},{"Rune":"rune_03_othalan","Hex":"#ffcc3399","Correct":-1,"Choice":32,"RT":627.889999999752,"Accuracy":0,"Outcome":"+1","Keys":[2128.5250000000815],"TotalKeys":1,"Block":1,"Trial":14,"Robot":2,"Valence":"Win","Action":"No-Go","Sham":0,"Color":"yellow","trial_type":"pit-trial","trial_index":29,"time_elapsed":193314,"internal_node_id":"0.0-18.0","task_version":"test-retest-t2"},{"Rune":"rune_03_uruz","Hex":"#3366ff99","Correct":32,"Choice":32,"RT":557.7350000003353,"Accuracy":1,"Outcome":"-1","Keys":[2058.004999998957],"TotalKeys":1,"Block":1,"Trial":15,"Robot":3,"Valence":"Lose","Action":"Go","Sham":0,"Color":"blue","trial_type":"pit-trial","trial_index":30,"time_elapsed":196380,"internal_node_id":"0.0-19.0","task_version":"test-retest-t2"},{"Rune":"rune_03_naudiz","Hex":"#3366ff99","Correct":-1,"Choice":-1,"RT":-1,"Accuracy":1,"Outcome":"-1","Keys":[],"TotalKeys":0,"Block":1,"Trial":16,"Robot":4,"Valence":"Lose","Action":"No-Go","Sham":0,"Color":"blue","trial_type":"pit-trial","trial_index":31,"time_elapsed":200389,"internal_node_id":"0.0-20.0","task_version":"test-retest-t2"},{"Rune":"rune_03_algiz","Hex":"#ffcc3399","Correct":32,"Choice":32,"RT":502.4999999986903,"Accuracy":1,"Outcome":"+10","Keys":[2004.6300000012852],"TotalKeys":1,"Block":1,"Trial":17,"Robot":1,"Valence":"Win","Action":"Go","Sham":0,"Color":"yellow","trial_type":"pit-trial","trial_index":32,"time_elapsed":203398,"internal_node_id":"0.0-21.0","task_version":"test-retest-t2"},{"Rune":"rune_03_naudiz","Hex":"#3366ff99","Correct":-1,"Choice":-1,"RT":-1,"Accuracy":1,"Outcome":"-1","Keys":[],"TotalKeys":0,"Block":1,"Trial":18,"Robot":4,"Valence":"Lose","Action":"No-Go","Sham":0,"Color":"blue","trial_type":"pit-trial","trial_index":33,"time_elapsed":207407,"internal_node_id":"0.0-22.0","task_version":"test-retest-t2"},{"Rune":"rune_03_othalan","Hex":"#ffcc3399","Correct":-1,"Choice":32,"RT":561.2700000001641,"Accuracy":0,"Outcome":"+10","Keys":[2062.459999999206],"TotalKeys":1,"Block":1,"Trial":19,"Robot":2,"Valence":"Win","Action":"No-Go","Sham":1,"Color":"yellow","trial_type":"pit-trial","trial_index":34,"time_elapsed":210478,"internal_node_id":"0.0-23.0","task_version":"test-retest-t2"},{"Rune":"rune_03_uruz","Hex":"#3366ff99","Correct":32,"Choice":32,"RT":632.5599999999977,"Accuracy":1,"Outcome":"-1","Keys":[2132.985000000219],"TotalKeys":1,"Block":1,"Trial":20,"Robot":3,"Valence":"Lose","Action":"Go","Sham":0,"Color":"blue","trial_type":"pit-trial","trial_index":35,"time_elapsed":213619,"internal_node_id":"0.0-24.0","task_version":"test-retest-t2"},{"Rune":"rune_03_algiz","Hex":"#ffcc3399","Correct":32,"Choice":32,"RT":552.479999998468,"Accuracy":1,"Outcome":"+1","Keys":[2052.649999999616],"TotalKeys":1,"Block":1,"Trial":21,"Robot":1,"Valence":"Win","Action":"Go","Sham":1,"Color":"yellow","trial_type":"pit-trial","trial_index":36,"time_elapsed":216679,"internal_node_id":"0.0-25.0","task_version":"test-retest-t2"},{"Rune":"rune_03_uruz","Hex":"#3366ff99","Correct":32,"Choice":32,"RT":805.3550000004179,"Accuracy":1,"Outcome":"-1","Keys":[2306.9550000000163],"TotalKeys":1,"Block":1,"Trial":22,"Robot":3,"Valence":"Lose","Action":"Go","Sham":0,"Color":"blue","trial_type":"pit-trial","trial_index":37,"time_elapsed":219993,"internal_node_id":"0.0-26.0","task_version":"test-retest-t2"},{"Rune":"rune_03_othalan","Hex":"#ffcc3399","Correct":-1,"Choice":32,"RT":499.4549999992305,"Accuracy":0,"Outcome":"+10","Keys":[2000.330000000773],"TotalKeys":1,"Block":1,"Trial":23,"Robot":2,"Valence":"Win","Action":"No-Go","Sham":1,"Color":"yellow","trial_type":"pit-trial","trial_index":38,"time_elapsed":223000,"internal_node_id":"0.0-27.0","task_version":"test-retest-t2"},{"Rune":"rune_03_naudiz","Hex":"#3366ff99","Correct":-1,"Choice":-1,"RT":-1,"Accuracy":1,"Outcome":"-1","Keys":[],"TotalKeys":0,"Block":1,"Trial":24,"Robot":4,"Valence":"Lose","Action":"No-Go","Sham":0,"Color":"blue","trial_type":"pit-trial","trial_index":39,"time_elapsed":227012,"internal_node_id":"0.0-28.0","task_version":"test-retest-t2"},{"Rune":"rune_03_othalan","Hex":"#ffcc3399","Correct":-1,"Choice":32,"RT":521.4749999995693,"Accuracy":0,"Outcome":"+1","Keys":[2022.7750000013039],"TotalKeys":1,"Block":1,"Trial":25,"Robot":2,"Valence":"Win","Action":"No-Go","Sham":0,"Color":"yellow","trial_type":"pit-trial","trial_index":40,"time_elapsed":230042,"internal_node_id":"0.0-29.0","task_version":"test-retest-t2"},{"Rune":"rune_03_uruz","Hex":"#3366ff99","Correct":32,"Choice":32,"RT":589.5099999997765,"Accuracy":1,"Outcome":"-1","Keys":[2092.0550000009825],"TotalKeys":1,"Block":1,"Trial":26,"Robot":3,"Valence":"Lose","Action":"Go","Sham":0,"Color":"blue","trial_type":"pit-trial","trial_index":41,"time_elapsed":233142,"internal_node_id":"0.0-30.0","task_version":"test-retest-t2"},{"Rune":"rune_03_algiz","Hex":"#ffcc3399","Correct":32,"Choice":32,"RT":1052.3200000007055,"Accuracy":1,"Outcome":"+10","Keys":[2553.2400000010966],"TotalKeys":1,"Block":1,"Trial":27,"Robot":1,"Valence":"Win","Action":"Go","Sham":0,"Color":"yellow","trial_type":"pit-trial","trial_index":42,"time_elapsed":236703,"internal_node_id":"0.0-31.0","task_version":"test-retest-t2"},{"Rune":"rune_03_naudiz","Hex":"#3366ff99","Correct":-1,"Choice":-1,"RT":-1,"Accuracy":1,"Outcome":"-1","Keys":[604.2199999992736],"TotalKeys":1,"Block":1,"Trial":28,"Robot":4,"Valence":"Lose","Action":"No-Go","Sham":0,"Color":"blue","trial_type":"pit-trial","trial_index":43,"time_elapsed":240712,"internal_node_id":"0.0-32.0","task_version":"test-retest-t2"},{"Rune":"rune_03_algiz","Hex":"#ffcc3399","Correct":32,"Choice":32,"RT":468.02000000025146,"Accuracy":1,"Outcome":"+10","Keys":[1969.7450000003446],"TotalKeys":1,"Block":1,"Trial":29,"Robot":1,"Valence":"Win","Action":"Go","Sham":0,"Color":"yellow","trial_type":"pit-trial","trial_index":44,"time_elapsed":243690,"internal_node_id":"0.0-33.0","task_version":"test-retest-t2"},{"Rune":"rune_03_othalan","Hex":"#ffcc3399","Correct":-1,"Choice":32,"RT":499.5299999991548,"Accuracy":0,"Outcome":"+1","Keys":[1999.7299999995448],"TotalKeys":1,"Block":1,"Trial":30,"Robot":2,"Valence":"Win","Action":"No-Go","Sham":0,"Color":"yellow","trial_type":"pit-trial","trial_index":45,"time_elapsed":246698,"internal_node_id":"0.0-34.0","task_version":"test-retest-t2"},{"Rune":"rune_03_naudiz","Hex":"#3366ff99","Correct":-1,"Choice":-1,"RT":-1,"Accuracy":1,"Outcome":"-1","Keys":[],"TotalKeys":0,"Block":1,"Trial":31,"Robot":4,"Valence":"Lose","Action":"No-Go","Sham":0,"Color":"blue","trial_type":"pit-trial","trial_index":46,"time_elapsed":250709,"internal_node_id":"0.0-35.0","task_version":"test-retest-t2"},{"Rune":"rune_03_uruz","Hex":"#3366ff99","Correct":32,"Choice":32,"RT":686.4249999998719,"Accuracy":1,"Outcome":"-1","Keys":[2186.760000000475],"TotalKeys":1,"Block":1,"Trial":32,"Robot":3,"Valence":"Lose","Action":"Go","Sham":0,"Color":"blue","trial_type":"pit-trial","trial_index":47,"time_elapsed":253901,"internal_node_id":"0.0-36.0","task_version":"test-retest-t2"},{"Rune":"rune_03_algiz","Hex":"#ffcc3399","Correct":32,"Choice":32,"RT":607.09499999939,"Accuracy":1,"Outcome":"+10","Keys":[2108.275000000518],"TotalKeys":1,"Block":1,"Trial":33,"Robot":1,"Valence":"Win","Action":"Go","Sham":0,"Color":"yellow","trial_type":"pit-trial","trial_index":48,"time_elapsed":257016,"internal_node_id":"0.0-37.0","task_version":"test-retest-t2"},{"Rune":"rune_03_naudiz","Hex":"#3366ff99","Correct":-1,"Choice":-1,"RT":-1,"Accuracy":1,"Outcome":"-10","Keys":[],"TotalKeys":0,"Block":1,"Trial":34,"Robot":4,"Valence":"Lose","Action":"No-Go","Sham":1,"Color":"blue","trial_type":"pit-trial","trial_index":49,"time_elapsed":261027,"internal_node_id":"0.0-38.0","task_version":"test-retest-t2"},{"Rune":"rune_03_uruz","Hex":"#3366ff99","Correct":32,"Choice":32,"RT":588.595000001078,"Accuracy":1,"Outcome":"-10","Keys":[2090.1799999992363],"TotalKeys":1,"Block":1,"Trial":35,"Robot":3,"Valence":"Lose","Action":"Go","Sham":1,"Color":"blue","trial_type":"pit-trial","trial_index":50,"time_elapsed":264124,"internal_node_id":"0.0-39.0","task_version":"test-retest-t2"},{"Rune":"rune_03_othalan","Hex":"#ffcc3399","Correct":-1,"Choice":32,"RT":464.050000000454,"Accuracy":0,"Outcome":"+1","Keys":[1964.7349999995786],"TotalKeys":1,"Block":1,"Trial":36,"Robot":2,"Valence":"Win","Action":"No-Go","Sham":0,"Color":"yellow","trial_type":"pit-trial","trial_index":51,"time_elapsed":267097,"internal_node_id":"0.0-40.0","task_version":"test-retest-t2"},{"Rune":"rune_03_algiz","Hex":"#ffcc3399","Correct":32,"Choice":32,"RT":581.3199999993085,"Accuracy":1,"Outcome":"+10","Keys":[2083.2049999990268],"TotalKeys":1,"Block":1,"Trial":37,"Robot":1,"Valence":"Win","Action":"Go","Sham":0,"Color":"yellow","trial_type":"pit-trial","trial_index":52,"time_elapsed":270188,"internal_node_id":"0.0-41.0","task_version":"test-retest-t2"},{"Rune":"rune_03_othalan","Hex":"#ffcc3399","Correct":-1,"Choice":-1,"RT":-1,"Accuracy":1,"Outcome":"+10","Keys":[],"TotalKeys":0,"Block":1,"Trial":38,"Robot":2,"Valence":"Win","Action":"No-Go","Sham":0,"Color":"yellow","trial_type":"pit-trial","trial_index":53,"time_elapsed":274197,"internal_node_id":"0.0-42.0","task_version":"test-retest-t2"},{"Rune":"rune_03_uruz","Hex":"#3366ff99","Correct":32,"Choice":32,"RT":511.1450000003679,"Accuracy":1,"Outcome":"-1","Keys":[2011.4049999992712],"TotalKeys":1,"Block":1,"Trial":39,"Robot":3,"Valence":"Lose","Action":"Go","Sham":0,"Color":"blue","trial_type":"pit-trial","trial_index":54,"time_elapsed":277212,"internal_node_id":"0.0-43.0","task_version":"test-retest-t2"},{"Rune":"rune_03_naudiz","Hex":"#3366ff99","Correct":-1,"Choice":-1,"RT":-1,"Accuracy":1,"Outcome":"-1","Keys":[],"TotalKeys":0,"Block":1,"Trial":40,"Robot":4,"Valence":"Lose","Action":"No-Go","Sham":0,"Color":"blue","trial_type":"pit-trial","trial_index":55,"time_elapsed":281222,"internal_node_id":"0.0-44.0","task_version":"test-retest-t2"},{"Rune":"rune_03_algiz","Hex":"#ffcc3399","Correct":32,"Choice":32,"RT":703.8250000004773,"Accuracy":1,"Outcome":"+10","Keys":[2205.254999998957],"TotalKeys":1,"Block":1,"Trial":41,"Robot":1,"Valence":"Win","Action":"Go","Sham":0,"Color":"yellow","trial_type":"pit-trial","trial_index":56,"time_elapsed":284431,"internal_node_id":"0.0-45.0","task_version":"test-retest-t2"},{"Rune":"rune_03_uruz","Hex":"#3366ff99","Correct":32,"Choice":32,"RT":785.6849999989499,"Accuracy":1,"Outcome":"-1","Keys":[2286.2800000002608],"TotalKeys":1,"Block":1,"Trial":42,"Robot":3,"Valence":"Lose","Action":"Go","Sham":0,"Color":"blue","trial_type":"pit-trial","trial_index":57,"time_elapsed":287725,"internal_node_id":"0.0-46.0","task_version":"test-retest-t2"},{"Rune":"rune_03_othalan","Hex":"#ffcc3399","Correct":-1,"Choice":-1,"RT":-1,"Accuracy":1,"Outcome":"+10","Keys":[],"TotalKeys":0,"Block":1,"Trial":43,"Robot":2,"Valence":"Win","Action":"No-Go","Sham":0,"Color":"yellow","trial_type":"pit-trial","trial_index":58,"time_elapsed":291733,"internal_node_id":"0.0-47.0","task_version":"test-retest-t2"},{"Rune":"rune_03_naudiz","Hex":"#3366ff99","Correct":-1,"Choice":-1,"RT":-1,"Accuracy":1,"Outcome":"-1","Keys":[],"TotalKeys":0,"Block":1,"Trial":44,"Robot":4,"Valence":"Lose","Action":"No-Go","Sham":0,"Color":"blue","trial_type":"pit-trial","trial_index":59,"time_elapsed":295744,"internal_node_id":"0.0-48.0","task_version":"test-retest-t2"},{"Rune":"rune_03_naudiz","Hex":"#3366ff99","Correct":-1,"Choice":-1,"RT":-1,"Accuracy":1,"Outcome":"-1","Keys":[],"TotalKeys":0,"Block":1,"Trial":45,"Robot":4,"Valence":"Lose","Action":"No-Go","Sham":0,"Color":"blue","trial_type":"pit-trial","trial_index":60,"time_elapsed":299758,"internal_node_id":"0.0-49.0","task_version":"test-retest-t2"},{"Rune":"rune_03_algiz","Hex":"#ffcc3399","Correct":32,"Choice":32,"RT":615.2500000006985,"Accuracy":1,"Outcome":"+10","Keys":[2115.4750000005006],"TotalKeys":1,"Block":1,"Trial":46,"Robot":1,"Valence":"Win","Action":"Go","Sham":0,"Color":"yellow","trial_type":"pit-trial","trial_index":61,"time_elapsed":302882,"internal_node_id":"0.0-50.0","task_version":"test-retest-t2"},{"Rune":"rune_03_uruz","Hex":"#3366ff99","Correct":32,"Choice":32,"RT":605.1900000002352,"Accuracy":1,"Outcome":"-1","Keys":[2106.6300000002375],"TotalKeys":1,"Block":1,"Trial":47,"Robot":3,"Valence":"Lose","Action":"Go","Sham":0,"Color":"blue","trial_type":"pit-trial","trial_index":62,"time_elapsed":305996,"internal_node_id":"0.0-51.0","task_version":"test-retest-t2"},{"Rune":"rune_03_othalan","Hex":"#ffcc3399","Correct":-1,"Choice":-1,"RT":-1,"Accuracy":1,"Outcome":"+1","Keys":[],"TotalKeys":0,"Block":1,"Trial":48,"Robot":2,"Valence":"Win","Action":"No-Go","Sham":1,"Color":"yellow","trial_type":"pit-trial","trial_index":63,"time_elapsed":310008,"internal_node_id":"0.0-52.0","task_version":"test-retest-t2"},{"Rune":"rune_03_algiz","Hex":"#ffcc3399","Correct":32,"Choice":32,"RT":543.6399999998393,"Accuracy":1,"Outcome":"+1","Keys":[2044.1350000001257],"TotalKeys":1,"Block":1,"Trial":49,"Robot":1,"Valence":"Win","Action":"Go","Sham":1,"Color":"yellow","trial_type":"pit-trial","trial_index":64,"time_elapsed":313060,"internal_node_id":"0.0-53.0","task_version":"test-retest-t2"},{"Rune":"rune_03_uruz","Hex":"#3366ff99","Correct":32,"Choice":32,"RT":554.3400000006077,"Accuracy":1,"Outcome":"-1","Keys":[2054.789999998291],"TotalKeys":1,"Block":1,"Trial":50,"Robot":3,"Valence":"Lose","Action":"Go","Sham":0,"Color":"blue","trial_type":"pit-trial","trial_index":65,"time_elapsed":316123,"internal_node_id":"0.0-54.0","task_version":"test-retest-t2"},{"Rune":"rune_03_othalan","Hex":"#ffcc3399","Correct":-1,"Choice":-1,"RT":-1,"Accuracy":1,"Outcome":"+10","Keys":[],"TotalKeys":0,"Block":1,"Trial":51,"Robot":2,"Valence":"Win","Action":"No-Go","Sham":0,"Color":"yellow","trial_type":"pit-trial","trial_index":66,"time_elapsed":320133,"internal_node_id":"0.0-55.0","task_version":"test-retest-t2"},{"Rune":"rune_03_naudiz","Hex":"#3366ff99","Correct":-1,"Choice":-1,"RT":-1,"Accuracy":1,"Outcome":"-1","Keys":[],"TotalKeys":0,"Block":1,"Trial":52,"Robot":4,"Valence":"Lose","Action":"No-Go","Sham":0,"Color":"blue","trial_type":"pit-trial","trial_index":67,"time_elapsed":324142,"internal_node_id":"0.0-56.0","task_version":"test-retest-t2"},{"Rune":"rune_03_algiz","Hex":"#ffcc3399","Correct":32,"Choice":32,"RT":549.8900000001886,"Accuracy":1,"Outcome":"+10","Keys":[2052.429999999702],"TotalKeys":1,"Block":1,"Trial":53,"Robot":1,"Valence":"Win","Action":"Go","Sham":0,"Color":"yellow","trial_type":"pit-trial","trial_index":68,"time_elapsed":327202,"internal_node_id":"0.0-57.0","task_version":"test-retest-t2"},{"Rune":"rune_03_naudiz","Hex":"#3366ff99","Correct":-1,"Choice":-1,"RT":-1,"Accuracy":1,"Outcome":"-1","Keys":[],"TotalKeys":0,"Block":1,"Trial":54,"Robot":4,"Valence":"Lose","Action":"No-Go","Sham":0,"Color":"blue","trial_type":"pit-trial","trial_index":69,"time_elapsed":331209,"internal_node_id":"0.0-58.0","task_version":"test-retest-t2"},{"Rune":"rune_03_othalan","Hex":"#ffcc3399","Correct":-1,"Choice":32,"RT":499.67000000103144,"Accuracy":0,"Outcome":"+1","Keys":[2001.7549999993062],"TotalKeys":1,"Block":1,"Trial":55,"Robot":2,"Valence":"Win","Action":"No-Go","Sham":0,"Color":"yellow","trial_type":"pit-trial","trial_index":70,"time_elapsed":334217,"internal_node_id":"0.0-59.0","task_version":"test-retest-t2"},{"Rune":"rune_03_uruz","Hex":"#3366ff99","Correct":32,"Choice":32,"RT":1453.6349999998347,"Accuracy":1,"Outcome":"-1","Keys":[2954.4100000003236],"TotalKeys":1,"Block":1,"Trial":56,"Robot":3,"Valence":"Lose","Action":"Go","Sham":0,"Color":"blue","trial_type":"pit-trial","trial_index":71,"time_elapsed":338177,"internal_node_id":"0.0-60.0","task_version":"test-retest-t2"},{"Rune":"rune_03_uruz","Hex":"#3366ff99","Correct":32,"Choice":32,"RT":626.1950000007637,"Accuracy":1,"Outcome":"-10","Keys":[2127.329999999318],"TotalKeys":1,"Block":1,"Trial":57,"Robot":3,"Valence":"Lose","Action":"Go","Sham":1,"Color":"blue","trial_type":"pit-trial","trial_index":72,"time_elapsed":341313,"internal_node_id":"0.0-61.0","task_version":"test-retest-t2"},{"Rune":"rune_03_algiz","Hex":"#ffcc3399","Correct":32,"Choice":32,"RT":508.4999999998836,"Accuracy":1,"Outcome":"+10","Keys":[2008.7099999982747],"TotalKeys":1,"Block":1,"Trial":58,"Robot":1,"Valence":"Win","Action":"Go","Sham":0,"Color":"yellow","trial_type":"pit-trial","trial_index":73,"time_elapsed":344327,"internal_node_id":"0.0-62.0","task_version":"test-retest-t2"},{"Rune":"rune_03_othalan","Hex":"#ffcc3399","Correct":-1,"Choice":-1,"RT":-1,"Accuracy":1,"Outcome":"+10","Keys":[],"TotalKeys":0,"Block":1,"Trial":59,"Robot":2,"Valence":"Win","Action":"No-Go","Sham":0,"Color":"yellow","trial_type":"pit-trial","trial_index":74,"time_elapsed":348340,"internal_node_id":"0.0-63.0","task_version":"test-retest-t2"},{"Rune":"rune_03_naudiz","Hex":"#3366ff99","Correct":-1,"Choice":-1,"RT":-1,"Accuracy":1,"Outcome":"-10","Keys":[],"TotalKeys":0,"Block":1,"Trial":60,"Robot":4,"Valence":"Lose","Action":"No-Go","Sham":1,"Color":"blue","trial_type":"pit-trial","trial_index":75,"time_elapsed":352349,"internal_node_id":"0.0-64.0","task_version":"test-retest-t2"},{"value":false,"trial_type":"call-function","trial_index":76,"time_elapsed":352352,"internal_node_id":"0.0-65.0","task_version":"test-retest-t2"},{"view_history":"[{\"page_index\":0,\"viewing_time\":6072.694999998901},{\"page_index\":1,\"viewing_time\":1258.7350000012666}]","rt":7332.199999998906,"trial_type":"pit-instructions","trial_index":77,"time_elapsed":359686,"internal_node_id":"0.0-66.0","task_version":"test-retest-t2"},{"Rune":"rune_03_uruz","Hex":"#3366ff99","Correct":32,"Choice":32,"RT":411.5899999997346,"Accuracy":1,"Outcome":"-1","Keys":[1913.3099999998813],"TotalKeys":1,"Block":1,"Trial":61,"Robot":3,"Valence":"Lose","Action":"Go","Sham":0,"Color":"blue","trial_type":"pit-trial","trial_index":78,"time_elapsed":362608,"internal_node_id":"0.0-67.0","task_version":"test-retest-t2"},{"Rune":"rune_03_naudiz","Hex":"#3366ff99","Correct":-1,"Choice":-1,"RT":-1,"Accuracy":1,"Outcome":"-1","Keys":[],"TotalKeys":0,"Block":1,"Trial":62,"Robot":4,"Valence":"Lose","Action":"No-Go","Sham":0,"Color":"blue","trial_type":"pit-trial","trial_index":79,"time_elapsed":366614,"internal_node_id":"0.0-68.0","task_version":"test-retest-t2"},{"Rune":"rune_03_othalan","Hex":"#ffcc3399","Correct":-1,"Choice":-1,"RT":-1,"Accuracy":1,"Outcome":"+1","Keys":[],"TotalKeys":0,"Block":1,"Trial":63,"Robot":2,"Valence":"Win","Action":"No-Go","Sham":1,"Color":"yellow","trial_type":"pit-trial","trial_index":80,"time_elapsed":370620,"internal_node_id":"0.0-69.0","task_version":"test-retest-t2"},{"Rune":"rune_03_algiz","Hex":"#ffcc3399","Correct":32,"Choice":32,"RT":437.7499999991851,"Accuracy":1,"Outcome":"+10","Keys":[1938.0049999999464],"TotalKeys":1,"Block":1,"Trial":64,"Robot":1,"Valence":"Win","Action":"Go","Sham":0,"Color":"yellow","trial_type":"pit-trial","trial_index":81,"time_elapsed":373564,"internal_node_id":"0.0-70.0","task_version":"test-retest-t2"},{"Rune":"rune_03_naudiz","Hex":"#3366ff99","Correct":-1,"Choice":-1,"RT":-1,"Accuracy":1,"Outcome":"-1","Keys":[],"TotalKeys":0,"Block":1,"Trial":65,"Robot":4,"Valence":"Lose","Action":"No-Go","Sham":0,"Color":"blue","trial_type":"pit-trial","trial_index":82,"time_elapsed":377577,"internal_node_id":"0.0-71.0","task_version":"test-retest-t2"},{"Rune":"rune_03_uruz","Hex":"#3366ff99","Correct":32,"Choice":32,"RT":460.58500000071945,"Accuracy":1,"Outcome":"-1","Keys":[1962.100000000617],"TotalKeys":1,"Block":1,"Trial":66,"Robot":3,"Valence":"Lose","Action":"Go","Sham":0,"Color":"blue","trial_type":"pit-trial","trial_index":83,"time_elapsed":380544,"internal_node_id":"0.0-72.0","task_version":"test-retest-t2"},{"Rune":"rune_03_algiz","Hex":"#ffcc3399","Correct":32,"Choice":32,"RT":541.9299999994109,"Accuracy":1,"Outcome":"+10","Keys":[2043.1950000001816],"TotalKeys":1,"Block":1,"Trial":67,"Robot":1,"Valence":"Win","Action":"Go","Sham":0,"Color":"yellow","trial_type":"pit-trial","trial_index":84,"time_elapsed":383595,"internal_node_id":"0.0-73.0","task_version":"test-retest-t2"},{"Rune":"rune_03_othalan","Hex":"#ffcc3399","Correct":-1,"Choice":32,"RT":656.9749999998603,"Accuracy":0,"Outcome":"+1","Keys":[2158.7700000000186],"TotalKeys":1,"Block":1,"Trial":68,"Robot":2,"Valence":"Win","Action":"No-Go","Sham":0,"Color":"yellow","trial_type":"pit-trial","trial_index":85,"time_elapsed":386761,"internal_node_id":"0.0-74.0","task_version":"test-retest-t2"},{"Rune":"rune_03_othalan","Hex":"#ffcc3399","Correct":-1,"Choice":-1,"RT":-1,"Accuracy":1,"Outcome":"+10","Keys":[],"TotalKeys":0,"Block":1,"Trial":69,"Robot":2,"Valence":"Win","Action":"No-Go","Sham":0,"Color":"yellow","trial_type":"pit-trial","trial_index":86,"time_elapsed":390770,"internal_node_id":"0.0-75.0","task_version":"test-retest-t2"},{"Rune":"rune_03_algiz","Hex":"#ffcc3399","Correct":32,"Choice":32,"RT":459.345000001078,"Accuracy":1,"Outcome":"+10","Keys":[1959.5399999998626],"TotalKeys":1,"Block":1,"Trial":70,"Robot":1,"Valence":"Win","Action":"Go","Sham":0,"Color":"yellow","trial_type":"pit-trial","trial_index":87,"time_elapsed":393733,"internal_node_id":"0.0-76.0","task_version":"test-retest-t2"},{"Rune":"rune_03_naudiz","Hex":"#3366ff99","Correct":-1,"Choice":-1,"RT":-1,"Accuracy":1,"Outcome":"-1","Keys":[],"TotalKeys":0,"Block":1,"Trial":71,"Robot":4,"Valence":"Lose","Action":"No-Go","Sham":0,"Color":"blue","trial_type":"pit-trial","trial_index":88,"time_elapsed":397742,"internal_node_id":"0.0-77.0","task_version":"test-retest-t2"},{"Rune":"rune_03_uruz","Hex":"#3366ff99","Correct":32,"Choice":32,"RT":515.0900000007823,"Accuracy":1,"Outcome":"-10","Keys":[2015.4649999985704],"TotalKeys":1,"Block":1,"Trial":72,"Robot":3,"Valence":"Lose","Action":"Go","Sham":1,"Color":"blue","trial_type":"pit-trial","trial_index":89,"time_elapsed":400765,"internal_node_id":"0.0-78.0","task_version":"test-retest-t2"},{"Rune":"rune_03_naudiz","Hex":"#3366ff99","Correct":-1,"Choice":-1,"RT":-1,"Accuracy":1,"Outcome":"-1","Keys":[],"TotalKeys":0,"Block":1,"Trial":73,"Robot":4,"Valence":"Lose","Action":"No-Go","Sham":0,"Color":"blue","trial_type":"pit-trial","trial_index":90,"time_elapsed":404778,"internal_node_id":"0.0-79.0","task_version":"test-retest-t2"},{"Rune":"rune_03_othalan","Hex":"#ffcc3399","Correct":-1,"Choice":-1,"RT":-1,"Accuracy":1,"Outcome":"+10","Keys":[],"TotalKeys":0,"Block":1,"Trial":74,"Robot":2,"Valence":"Win","Action":"No-Go","Sham":0,"Color":"yellow","trial_type":"pit-trial","trial_index":91,"time_elapsed":408791,"internal_node_id":"0.0-80.0","task_version":"test-retest-t2"},{"Rune":"rune_03_algiz","Hex":"#ffcc3399","Correct":32,"Choice":32,"RT":742.3250000010594,"Accuracy":1,"Outcome":"+1","Keys":[2242.6099999993457],"TotalKeys":1,"Block":1,"Trial":75,"Robot":1,"Valence":"Win","Action":"Go","Sham":1,"Color":"yellow","trial_type":"pit-trial","trial_index":92,"time_elapsed":412041,"internal_node_id":"0.0-81.0","task_version":"test-retest-t2"},{"Rune":"rune_03_uruz","Hex":"#3366ff99","Correct":32,"Choice":32,"RT":684.9700000002631,"Accuracy":1,"Outcome":"-1","Keys":[2185.075000001234],"TotalKeys":1,"Block":1,"Trial":76,"Robot":3,"Valence":"Lose","Action":"Go","Sham":0,"Color":"blue","trial_type":"pit-trial","trial_index":93,"time_elapsed":415234,"internal_node_id":"0.0-82.0","task_version":"test-retest-t2"},{"Rune":"rune_03_uruz","Hex":"#3366ff99","Correct":32,"Choice":32,"RT":512.9300000007497,"Accuracy":1,"Outcome":"-1","Keys":[2013.184999999823],"TotalKeys":1,"Block":1,"Trial":77,"Robot":3,"Valence":"Lose","Action":"Go","Sham":0,"Color":"blue","trial_type":"pit-trial","trial_index":94,"time_elapsed":418252,"internal_node_id":"0.0-83.0","task_version":"test-retest-t2"},{"Rune":"rune_03_algiz","Hex":"#ffcc3399","Correct":32,"Choice":32,"RT":414.6249999994179,"Accuracy":1,"Outcome":"+10","Keys":[1915.8449999995064],"TotalKeys":1,"Block":1,"Trial":78,"Robot":1,"Valence":"Win","Action":"Go","Sham":0,"Color":"yellow","trial_type":"pit-trial","trial_index":95,"time_elapsed":421172,"internal_node_id":"0.0-84.0","task_version":"test-retest-t2"},{"Rune":"rune_03_othalan","Hex":"#ffcc3399","Correct":-1,"Choice":32,"RT":349.3899999993737,"Accuracy":0,"Outcome":"+1","Keys":[1850.8300000012387],"TotalKeys":1,"Block":1,"Trial":79,"Robot":2,"Valence":"Win","Action":"No-Go","Sham":0,"Color":"yellow","trial_type":"pit-trial","trial_index":96,"time_elapsed":424036,"internal_node_id":"0.0-85.0","task_version":"test-retest-t2"},{"Rune":"rune_03_naudiz","Hex":"#3366ff99","Correct":-1,"Choice":-1,"RT":-1,"Accuracy":1,"Outcome":"-10","Keys":[],"TotalKeys":0,"Block":1,"Trial":80,"Robot":4,"Valence":"Lose","Action":"No-Go","Sham":1,"Color":"blue","trial_type":"pit-trial","trial_index":97,"time_elapsed":428044,"internal_node_id":"0.0-86.0","task_version":"test-retest-t2"},{"Rune":"rune_03_naudiz","Hex":"#3366ff99","Correct":-1,"Choice":-1,"RT":-1,"Accuracy":1,"Outcome":"-1","Keys":[],"TotalKeys":0,"Block":1,"Trial":81,"Robot":4,"Valence":"Lose","Action":"No-Go","Sham":0,"Color":"blue","trial_type":"pit-trial","trial_index":98,"time_elapsed":432054,"internal_node_id":"0.0-87.0","task_version":"test-retest-t2"},{"Rune":"rune_03_uruz","Hex":"#3366ff99","Correct":32,"Choice":32,"RT":376.3650000001071,"Accuracy":1,"Outcome":"-10","Keys":[1876.600000001432],"TotalKeys":1,"Block":1,"Trial":82,"Robot":3,"Valence":"Lose","Action":"Go","Sham":1,"Color":"blue","trial_type":"pit-trial","trial_index":99,"time_elapsed":434940,"internal_node_id":"0.0-88.0","task_version":"test-retest-t2"},{"Rune":"rune_03_algiz","Hex":"#ffcc3399","Correct":32,"Choice":32,"RT":443.4200000014389,"Accuracy":1,"Outcome":"+10","Keys":[1943.5849999990314],"TotalKeys":1,"Block":1,"Trial":83,"Robot":1,"Valence":"Win","Action":"Go","Sham":0,"Color":"yellow","trial_type":"pit-trial","trial_index":100,"time_elapsed":437890,"internal_node_id":"0.0-89.0","task_version":"test-retest-t2"},{"Rune":"rune_03_othalan","Hex":"#ffcc3399","Correct":-1,"Choice":-1,"RT":-1,"Accuracy":1,"Outcome":"+10","Keys":[],"TotalKeys":0,"Block":1,"Trial":84,"Robot":2,"Valence":"Win","Action":"No-Go","Sham":0,"Color":"yellow","trial_type":"pit-trial","trial_index":101,"time_elapsed":441902,"internal_node_id":"0.0-90.0","task_version":"test-retest-t2"},{"Rune":"rune_03_uruz","Hex":"#3366ff99","Correct":32,"Choice":32,"RT":515.0949999988079,"Accuracy":1,"Outcome":"-1","Keys":[2015.2799999996205],"TotalKeys":1,"Block":1,"Trial":85,"Robot":3,"Valence":"Lose","Action":"Go","Sham":0,"Color":"blue","trial_type":"pit-trial","trial_index":102,"time_elapsed":444924,"internal_node_id":"0.0-91.0","task_version":"test-retest-t2"},{"Rune":"rune_03_naudiz","Hex":"#3366ff99","Correct":-1,"Choice":-1,"RT":-1,"Accuracy":1,"Outcome":"-1","Keys":[],"TotalKeys":0,"Block":1,"Trial":86,"Robot":4,"Valence":"Lose","Action":"No-Go","Sham":0,"Color":"blue","trial_type":"pit-trial","trial_index":103,"time_elapsed":448932,"internal_node_id":"0.0-92.0","task_version":"test-retest-t2"},{"Rune":"rune_03_othalan","Hex":"#ffcc3399","Correct":-1,"Choice":32,"RT":1127.199999998964,"Accuracy":0,"Outcome":"+1","Keys":[2629.605000000098],"TotalKeys":1,"Block":1,"Trial":87,"Robot":2,"Valence":"Win","Action":"No-Go","Sham":0,"Color":"yellow","trial_type":"pit-trial","trial_index":104,"time_elapsed":452569,"internal_node_id":"0.0-93.0","task_version":"test-retest-t2"},{"Rune":"rune_03_algiz","Hex":"#ffcc3399","Correct":32,"Choice":32,"RT":521.3750000002328,"Accuracy":1,"Outcome":"+10","Keys":[2023.354999999341],"TotalKeys":1,"Block":1,"Trial":88,"Robot":1,"Valence":"Win","Action":"Go","Sham":0,"Color":"yellow","trial_type":"pit-trial","trial_index":105,"time_elapsed":455596,"internal_node_id":"0.0-94.0","task_version":"test-retest-t2"},{"Rune":"rune_03_uruz","Hex":"#3366ff99","Correct":32,"Choice":32,"RT":482.18500000075437,"Accuracy":1,"Outcome":"-1","Keys":[1983.009999999951],"TotalKeys":1,"Block":1,"Trial":89,"Robot":3,"Valence":"Lose","Action":"Go","Sham":0,"Color":"blue","trial_type":"pit-trial","trial_index":106,"time_elapsed":458584,"internal_node_id":"0.0-95.0","task_version":"test-retest-t2"},{"Rune":"rune_03_algiz","Hex":"#ffcc3399","Correct":32,"Choice":32,"RT":563.3350000007194,"Accuracy":1,"Outcome":"+1","Keys":[2065.7599999994854],"TotalKeys":1,"Block":1,"Trial":90,"Robot":1,"Valence":"Win","Action":"Go","Sham":1,"Color":"yellow","trial_type":"pit-trial","trial_index":107,"time_elapsed":461658,"internal_node_id":"0.0-96.0","task_version":"test-retest-t2"},{"Rune":"rune_03_othalan","Hex":"#ffcc3399","Correct":-1,"Choice":-1,"RT":-1,"Accuracy":1,"Outcome":"+10","Keys":[],"TotalKeys":0,"Block":1,"Trial":91,"Robot":2,"Valence":"Win","Action":"No-Go","Sham":0,"Color":"yellow","trial_type":"pit-trial","trial_index":108,"time_elapsed":465668,"internal_node_id":"0.0-97.0","task_version":"test-retest-t2"},{"Rune":"rune_03_naudiz","Hex":"#3366ff99","Correct":-1,"Choice":-1,"RT":-1,"Accuracy":1,"Outcome":"-1","Keys":[],"TotalKeys":0,"Block":1,"Trial":92,"Robot":4,"Valence":"Lose","Action":"No-Go","Sham":0,"Color":"blue","trial_type":"pit-trial","trial_index":109,"time_elapsed":469681,"internal_node_id":"0.0-98.0","task_version":"test-retest-t2"},{"Rune":"rune_03_algiz","Hex":"#ffcc3399","Correct":32,"Choice":32,"RT":750.7499999992433,"Accuracy":1,"Outcome":"+10","Keys":[2252.2950000002165],"TotalKeys":1,"Block":1,"Trial":93,"Robot":1,"Valence":"Win","Action":"Go","Sham":0,"Color":"yellow","trial_type":"pit-trial","trial_index":110,"time_elapsed":472941,"internal_node_id":"0.0-99.0","task_version":"test-retest-t2"},{"Rune":"rune_03_othalan","Hex":"#ffcc3399","Correct":-1,"Choice":-1,"RT":-1,"Accuracy":1,"Outcome":"+1","Keys":[],"TotalKeys":0,"Block":1,"Trial":94,"Robot":2,"Valence":"Win","Action":"No-Go","Sham":1,"Color":"yellow","trial_type":"pit-trial","trial_index":111,"time_elapsed":476954,"internal_node_id":"0.0-100.0","task_version":"test-retest-t2"},{"Rune":"rune_03_uruz","Hex":"#3366ff99","Correct":32,"Choice":32,"RT":591.1049999995157,"Accuracy":1,"Outcome":"-1","Keys":[2093.394999999902],"TotalKeys":1,"Block":1,"Trial":95,"Robot":3,"Valence":"Lose","Action":"Go","Sham":0,"Color":"blue","trial_type":"pit-trial","trial_index":112,"time_elapsed":480053,"internal_node_id":"0.0-101.0","task_version":"test-retest-t2"},{"Rune":"rune_03_naudiz","Hex":"#3366ff99","Correct":-1,"Choice":-1,"RT":-1,"Accuracy":1,"Outcome":"-10","Keys":[],"TotalKeys":0,"Block":1,"Trial":96,"Robot":4,"Valence":"Lose","Action":"No-Go","Sham":1,"Color":"blue","trial_type":"pit-trial","trial_index":113,"time_elapsed":484065,"internal_node_id":"0.0-102.0","task_version":"test-retest-t2"},{"Rune":"rune_03_uruz","Hex":"#3366ff99","Correct":32,"Choice":32,"RT":515.3549999995157,"Accuracy":1,"Outcome":"-1","Keys":[2015.9550000007148],"TotalKeys":1,"Block":1,"Trial":97,"Robot":3,"Valence":"Lose","Action":"Go","Sham":0,"Color":"blue","trial_type":"pit-trial","trial_index":114,"time_elapsed":487084,"internal_node_id":"0.0-103.0","task_version":"test-retest-t2"},{"Rune":"rune_03_othalan","Hex":"#ffcc3399","Correct":-1,"Choice":-1,"RT":-1,"Accuracy":1,"Outcome":"+10","Keys":[],"TotalKeys":0,"Block":1,"Trial":98,"Robot":2,"Valence":"Win","Action":"No-Go","Sham":0,"Color":"yellow","trial_type":"pit-trial","trial_index":115,"time_elapsed":491096,"internal_node_id":"0.0-104.0","task_version":"test-retest-t2"},{"Rune":"rune_03_algiz","Hex":"#ffcc3399","Correct":32,"Choice":32,"RT":621.3800000005285,"Accuracy":1,"Outcome":"+10","Keys":[2121.509999999078],"TotalKeys":1,"Block":1,"Trial":99,"Robot":1,"Valence":"Win","Action":"Go","Sham":0,"Color":"yellow","trial_type":"pit-trial","trial_index":116,"time_elapsed":494225,"internal_node_id":"0.0-105.0","task_version":"test-retest-t2"},{"Rune":"rune_03_naudiz","Hex":"#3366ff99","Correct":-1,"Choice":32,"RT":814.2050000005402,"Accuracy":0,"Outcome":"-10","Keys":[2316.7400000002235],"TotalKeys":1,"Block":1,"Trial":100,"Robot":4,"Valence":"Lose","Action":"No-Go","Sham":0,"Color":"blue","trial_type":"pit-trial","trial_index":117,"time_elapsed":497549,"internal_node_id":"0.0-106.0","task_version":"test-retest-t2"},{"Rune":"rune_03_uruz","Hex":"#3366ff99","Correct":32,"Choice":32,"RT":346.5649999998277,"Accuracy":1,"Outcome":"-10","Keys":[1846.7600000003586],"TotalKeys":1,"Block":1,"Trial":101,"Robot":3,"Valence":"Lose","Action":"Go","Sham":1,"Color":"blue","trial_type":"pit-trial","trial_index":118,"time_elapsed":500404,"internal_node_id":"0.0-107.0","task_version":"test-retest-t2"},{"Rune":"rune_03_othalan","Hex":"#ffcc3399","Correct":-1,"Choice":-1,"RT":-1,"Accuracy":1,"Outcome":"+10","Keys":[],"TotalKeys":0,"Block":1,"Trial":102,"Robot":2,"Valence":"Win","Action":"No-Go","Sham":0,"Color":"yellow","trial_type":"pit-trial","trial_index":119,"time_elapsed":504417,"internal_node_id":"0.0-108.0","task_version":"test-retest-t2"},{"Rune":"rune_03_naudiz","Hex":"#3366ff99","Correct":-1,"Choice":32,"RT":802.5999999990454,"Accuracy":0,"Outcome":"-10","Keys":[2302.7099999999045],"TotalKeys":1,"Block":1,"Trial":103,"Robot":4,"Valence":"Lose","Action":"No-Go","Sham":0,"Color":"blue","trial_type":"pit-trial","trial_index":120,"time_elapsed":507727,"internal_node_id":"0.0-109.0","task_version":"test-retest-t2"},{"Rune":"rune_03_algiz","Hex":"#ffcc3399","Correct":32,"Choice":32,"RT":488.6649999989313,"Accuracy":1,"Outcome":"+1","Keys":[1990.1449999997276],"TotalKeys":1,"Block":1,"Trial":104,"Robot":1,"Valence":"Win","Action":"Go","Sham":1,"Color":"yellow","trial_type":"pit-trial","trial_index":121,"time_elapsed":510726,"internal_node_id":"0.0-110.0","task_version":"test-retest-t2"},{"Rune":"rune_03_uruz","Hex":"#3366ff99","Correct":32,"Choice":32,"RT":506.33500000002095,"Accuracy":1,"Outcome":"-1","Keys":[2006.6200000001118],"TotalKeys":1,"Block":1,"Trial":105,"Robot":3,"Valence":"Lose","Action":"Go","Sham":0,"Color":"blue","trial_type":"pit-trial","trial_index":122,"time_elapsed":513737,"internal_node_id":"0.0-111.0","task_version":"test-retest-t2"},{"Rune":"rune_03_naudiz","Hex":"#3366ff99","Correct":-1,"Choice":-1,"RT":-1,"Accuracy":1,"Outcome":"-1","Keys":[],"TotalKeys":0,"Block":1,"Trial":106,"Robot":4,"Valence":"Lose","Action":"No-Go","Sham":0,"Color":"blue","trial_type":"pit-trial","trial_index":123,"time_elapsed":517746,"internal_node_id":"0.0-112.0","task_version":"test-retest-t2"},{"Rune":"rune_03_algiz","Hex":"#ffcc3399","Correct":32,"Choice":32,"RT":430.92500000057044,"Accuracy":1,"Outcome":"+10","Keys":[1931.7549999996554],"TotalKeys":1,"Block":1,"Trial":107,"Robot":1,"Valence":"Win","Action":"Go","Sham":0,"Color":"yellow","trial_type":"pit-trial","trial_index":124,"time_elapsed":520683,"internal_node_id":"0.0-113.0","task_version":"test-retest-t2"},{"Rune":"rune_03_othalan","Hex":"#ffcc3399","Correct":-1,"Choice":-1,"RT":-1,"Accuracy":1,"Outcome":"+10","Keys":[],"TotalKeys":0,"Block":1,"Trial":108,"Robot":2,"Valence":"Win","Action":"No-Go","Sham":0,"Color":"yellow","trial_type":"pit-trial","trial_index":125,"time_elapsed":524695,"internal_node_id":"0.0-114.0","task_version":"test-retest-t2"},{"Rune":"rune_03_othalan","Hex":"#ffcc3399","Correct":-1,"Choice":-1,"RT":-1,"Accuracy":1,"Outcome":"+1","Keys":[],"TotalKeys":0,"Block":1,"Trial":109,"Robot":2,"Valence":"Win","Action":"No-Go","Sham":1,"Color":"yellow","trial_type":"pit-trial","trial_index":126,"time_elapsed":528706,"internal_node_id":"0.0-115.0","task_version":"test-retest-t2"},{"Rune":"rune_03_naudiz","Hex":"#3366ff99","Correct":-1,"Choice":-1,"RT":-1,"Accuracy":1,"Outcome":"-1","Keys":[],"TotalKeys":0,"Block":1,"Trial":110,"Robot":4,"Valence":"Lose","Action":"No-Go","Sham":0,"Color":"blue","trial_type":"pit-trial","trial_index":127,"time_elapsed":532717,"internal_node_id":"0.0-116.0","task_version":"test-retest-t2"},{"Rune":"rune_03_uruz","Hex":"#3366ff99","Correct":32,"Choice":32,"RT":427.6100000006845,"Accuracy":1,"Outcome":"-1","Keys":[1927.7200000014855],"TotalKeys":1,"Block":1,"Trial":111,"Robot":3,"Valence":"Lose","Action":"Go","Sham":0,"Color":"blue","trial_type":"pit-trial","trial_index":128,"time_elapsed":535649,"internal_node_id":"0.0-117.0","task_version":"test-retest-t2"},{"Rune":"rune_03_algiz","Hex":"#ffcc3399","Correct":32,"Choice":32,"RT":535.0549999984214,"Accuracy":1,"Outcome":"+10","Keys":[2035.2050000000745],"TotalKeys":1,"Block":1,"Trial":112,"Robot":1,"Valence":"Win","Action":"Go","Sham":0,"Color":"yellow","trial_type":"pit-trial","trial_index":129,"time_elapsed":538691,"internal_node_id":"0.0-118.0","task_version":"test-retest-t2"},{"Rune":"rune_03_naudiz","Hex":"#3366ff99","Correct":-1,"Choice":-1,"RT":-1,"Accuracy":1,"Outcome":"-1","Keys":[],"TotalKeys":0,"Block":1,"Trial":113,"Robot":4,"Valence":"Lose","Action":"No-Go","Sham":0,"Color":"blue","trial_type":"pit-trial","trial_index":130,"time_elapsed":542702,"internal_node_id":"0.0-119.0","task_version":"test-retest-t2"},{"Rune":"rune_03_othalan","Hex":"#ffcc3399","Correct":-1,"Choice":-1,"RT":-1,"Accuracy":1,"Outcome":"+10","Keys":[],"TotalKeys":0,"Block":1,"Trial":114,"Robot":2,"Valence":"Win","Action":"No-Go","Sham":0,"Color":"yellow","trial_type":"pit-trial","trial_index":131,"time_elapsed":546711,"internal_node_id":"0.0-120.0","task_version":"test-retest-t2"},{"Rune":"rune_03_algiz","Hex":"#ffcc3399","Correct":32,"Choice":32,"RT":504.9500000004191,"Accuracy":1,"Outcome":"+10","Keys":[2005.424999999348],"TotalKeys":1,"Block":1,"Trial":115,"Robot":1,"Valence":"Win","Action":"Go","Sham":0,"Color":"yellow","trial_type":"pit-trial","trial_index":132,"time_elapsed":549720,"internal_node_id":"0.0-121.0","task_version":"test-retest-t2"},{"Rune":"rune_03_uruz","Hex":"#3366ff99","Correct":32,"Choice":32,"RT":521.7449999999953,"Accuracy":1,"Outcome":"-1","Keys":[2021.935000000638],"TotalKeys":1,"Block":1,"Trial":116,"Robot":3,"Valence":"Lose","Action":"Go","Sham":0,"Color":"blue","trial_type":"pit-trial","trial_index":133,"time_elapsed":552750,"internal_node_id":"0.0-122.0","task_version":"test-retest-t2"},{"Rune":"rune_03_uruz","Hex":"#3366ff99","Correct":32,"Choice":32,"RT":754.315000000177,"Accuracy":1,"Outcome":"-1","Keys":[2254.580000000773],"TotalKeys":1,"Block":1,"Trial":117,"Robot":3,"Valence":"Lose","Action":"Go","Sham":0,"Color":"blue","trial_type":"pit-trial","trial_index":134,"time_elapsed":556013,"internal_node_id":"0.0-123.0","task_version":"test-retest-t2"},{"Rune":"rune_03_othalan","Hex":"#ffcc3399","Correct":-1,"Choice":-1,"RT":-1,"Accuracy":1,"Outcome":"+10","Keys":[],"TotalKeys":0,"Block":1,"Trial":118,"Robot":2,"Valence":"Win","Action":"No-Go","Sham":0,"Color":"yellow","trial_type":"pit-trial","trial_index":135,"time_elapsed":560026,"internal_node_id":"0.0-124.0","task_version":"test-retest-t2"},{"Rune":"rune_03_algiz","Hex":"#ffcc3399","Correct":32,"Choice":32,"RT":594.0800000006566,"Accuracy":1,"Outcome":"+10","Keys":[2095.6200000001118],"TotalKeys":1,"Block":1,"Trial":119,"Robot":1,"Valence":"Win","Action":"Go","Sham":0,"Color":"yellow","trial_type":"pit-trial","trial_index":136,"time_elapsed":563130,"internal_node_id":"0.0-125.0","task_version":"test-retest-t2"},{"Rune":"rune_03_naudiz","Hex":"#3366ff99","Correct":-1,"Choice":-1,"RT":-1,"Accuracy":1,"Outcome":"-10","Keys":[],"TotalKeys":0,"Block":1,"Trial":120,"Robot":4,"Valence":"Lose","Action":"No-Go","Sham":1,"Color":"blue","trial_type":"pit-trial","trial_index":137,"time_elapsed":567140,"internal_node_id":"0.0-126.0","task_version":"test-retest-t2"},{"view_history":"[{\"page_index\":0,\"viewing_time\":19927.68000000075},{\"page_index\":1,\"viewing_time\":1410.7299999995157},{\"page_index\":2,\"viewing_time\":1170.3649999999907}]","rt":22509.509999999893,"trial_type":"pit-instructions","trial_index":138,"time_elapsed":589656,"internal_node_id":"0.0-127.0","task_version":"test-retest-t2"},{"Rune":"rune_04_ac","Hex":"#3366ff99","Correct":-1,"Choice":32,"RT":489.1399999996647,"Accuracy":0,"Outcome":"-10","Keys":[1990.0749999997206],"TotalKeys":1,"Block":2,"Trial":121,"Robot":4,"Valence":"Lose","Action":"No-Go","Sham":0,"Color":"blue","trial_type":"pit-trial","trial_index":139,"time_elapsed":592658,"internal_node_id":"0.0-128.0","task_version":"test-retest-t2"},{"Rune":"rune_04_wunjo","Hex":"#3366ff99","Correct":32,"Choice":32,"RT":558.3000000006286,"Accuracy":1,"Outcome":"-1","Keys":[2059.01499999885],"TotalKeys":1,"Block":2,"Trial":122,"Robot":3,"Valence":"Lose","Action":"Go","Sham":0,"Color":"blue","trial_type":"pit-trial","trial_index":140,"time_elapsed":595723,"internal_node_id":"0.0-129.0","task_version":"test-retest-t2"},{"Rune":"rune_04_iwaz","Hex":"#ffcc3399","Correct":32,"Choice":32,"RT":558.3800000003539,"Accuracy":1,"Outcome":"+10","Keys":[2058.9500000005355],"TotalKeys":1,"Block":2,"Trial":123,"Robot":1,"Valence":"Win","Action":"Go","Sham":0,"Color":"yellow","trial_type":"pit-trial","trial_index":141,"time_elapsed":598789,"internal_node_id":"0.0-130.0","task_version":"test-retest-t2"},{"Rune":"rune_04_dagaz","Hex":"#ffcc3399","Correct":-1,"Choice":32,"RT":765.199999999837,"Accuracy":0,"Outcome":"+1","Keys":[2267.195000000298],"TotalKeys":1,"Block":2,"Trial":124,"Robot":2,"Valence":"Win","Action":"No-Go","Sham":0,"Color":"yellow","trial_type":"pit-trial","trial_index":142,"time_elapsed":602064,"internal_node_id":"0.0-131.0","task_version":"test-retest-t2"},{"Rune":"rune_04_ac","Hex":"#3366ff99","Correct":-1,"Choice":32,"RT":473.1450000000186,"Accuracy":0,"Outcome":"-10","Keys":[1973.324999999022],"TotalKeys":1,"Block":2,"Trial":125,"Robot":4,"Valence":"Lose","Action":"No-Go","Sham":0,"Color":"blue","trial_type":"pit-trial","trial_index":143,"time_elapsed":605041,"internal_node_id":"0.0-132.0","task_version":"test-retest-t2"},{"Rune":"rune_04_iwaz","Hex":"#ffcc3399","Correct":32,"Choice":32,"RT":584.7649999995483,"Accuracy":1,"Outcome":"+1","Keys":[2087.0900000008987],"TotalKeys":1,"Block":2,"Trial":126,"Robot":1,"Valence":"Win","Action":"Go","Sham":1,"Color":"yellow","trial_type":"pit-trial","trial_index":144,"time_elapsed":608135,"internal_node_id":"0.0-133.0","task_version":"test-retest-t2"},{"Rune":"rune_04_dagaz","Hex":"#ffcc3399","Correct":-1,"Choice":32,"RT":350.67999999958556,"Accuracy":0,"Outcome":"+1","Keys":[1851.0050000004703],"TotalKeys":1,"Block":2,"Trial":127,"Robot":2,"Valence":"Win","Action":"No-Go","Sham":0,"Color":"yellow","trial_type":"pit-trial","trial_index":145,"time_elapsed":610991,"internal_node_id":"0.0-134.0","task_version":"test-retest-t2"},{"Rune":"rune_04_wunjo","Hex":"#3366ff99","Correct":32,"Choice":32,"RT":413.55999999912456,"Accuracy":1,"Outcome":"-10","Keys":[1914.8750000004657],"TotalKeys":1,"Block":2,"Trial":128,"Robot":3,"Valence":"Lose","Action":"Go","Sham":1,"Color":"blue","trial_type":"pit-trial","trial_index":146,"time_elapsed":613911,"internal_node_id":"0.0-135.0","task_version":"test-retest-t2"},{"Rune":"rune_04_iwaz","Hex":"#ffcc3399","Correct":32,"Choice":32,"RT":522.7400000003399,"Accuracy":1,"Outcome":"+10","Keys":[2023.165000000503],"TotalKeys":1,"Block":2,"Trial":129,"Robot":1,"Valence":"Win","Action":"Go","Sham":0,"Color":"yellow","trial_type":"pit-trial","trial_index":147,"time_elapsed":616941,"internal_node_id":"0.0-136.0","task_version":"test-retest-t2"},{"Rune":"rune_04_ac","Hex":"#3366ff99","Correct":-1,"Choice":-1,"RT":-1,"Accuracy":1,"Outcome":"-10","Keys":[],"TotalKeys":0,"Block":2,"Trial":130,"Robot":4,"Valence":"Lose","Action":"No-Go","Sham":1,"Color":"blue","trial_type":"pit-trial","trial_index":148,"time_elapsed":620954,"internal_node_id":"0.0-137.0","task_version":"test-retest-t2"},{"Rune":"rune_04_dagaz","Hex":"#ffcc3399","Correct":-1,"Choice":32,"RT":590.3600000001024,"Accuracy":0,"Outcome":"+1","Keys":[2092.6300000010524],"TotalKeys":1,"Block":2,"Trial":131,"Robot":2,"Valence":"Win","Action":"No-Go","Sham":0,"Color":"yellow","trial_type":"pit-trial","trial_index":149,"time_elapsed":624054,"internal_node_id":"0.0-138.0","task_version":"test-retest-t2"},{"Rune":"rune_04_wunjo","Hex":"#3366ff99","Correct":32,"Choice":-1,"RT":-1,"Accuracy":0,"Outcome":"-10","Keys":[],"TotalKeys":0,"Block":2,"Trial":132,"Robot":3,"Valence":"Lose","Action":"Go","Sham":0,"Color":"blue","trial_type":"pit-trial","trial_index":150,"time_elapsed":628064,"internal_node_id":"0.0-139.0","task_version":"test-retest-t2"},{"Rune":"rune_04_ac","Hex":"#3366ff99","Correct":-1,"Choice":-1,"RT":-1,"Accuracy":1,"Outcome":"-1","Keys":[],"TotalKeys":0,"Block":2,"Trial":133,"Robot":4,"Valence":"Lose","Action":"No-Go","Sham":0,"Color":"blue","trial_type":"pit-trial","trial_index":151,"time_elapsed":632073,"internal_node_id":"0.0-140.0","task_version":"test-retest-t2"},{"Rune":"rune_04_dagaz","Hex":"#ffcc3399","Correct":-1,"Choice":32,"RT":458.34000000101514,"Accuracy":0,"Outcome":"+1","Keys":[1959.909999999567],"TotalKeys":1,"Block":2,"Trial":134,"Robot":2,"Valence":"Win","Action":"No-Go","Sham":0,"Color":"yellow","trial_type":"pit-trial","trial_index":152,"time_elapsed":635037,"internal_node_id":"0.0-141.0","task_version":"test-retest-t2"},{"Rune":"rune_04_iwaz","Hex":"#ffcc3399","Correct":32,"Choice":32,"RT":526.244999999064,"Accuracy":1,"Outcome":"+10","Keys":[2026.3549999999814],"TotalKeys":1,"Block":2,"Trial":135,"Robot":1,"Valence":"Win","Action":"Go","Sham":0,"Color":"yellow","trial_type":"pit-trial","trial_index":153,"time_elapsed":638071,"internal_node_id":"0.0-142.0","task_version":"test-retest-t2"},{"Rune":"rune_04_wunjo","Hex":"#3366ff99","Correct":32,"Choice":32,"RT":502.5150000001304,"Accuracy":1,"Outcome":"-1","Keys":[2002.7700000010664],"TotalKeys":1,"Block":2,"Trial":136,"Robot":3,"Valence":"Lose","Action":"Go","Sham":0,"Color":"blue","trial_type":"pit-trial","trial_index":154,"time_elapsed":641079,"internal_node_id":"0.0-143.0","task_version":"test-retest-t2"},{"Rune":"rune_04_iwaz","Hex":"#ffcc3399","Correct":32,"Choice":32,"RT":602.3700000005774,"Accuracy":1,"Outcome":"+10","Keys":[2104.7049999997253],"TotalKeys":1,"Block":2,"Trial":137,"Robot":1,"Valence":"Win","Action":"Go","Sham":0,"Color":"yellow","trial_type":"pit-trial","trial_index":155,"time_elapsed":644191,"internal_node_id":"0.0-144.0","task_version":"test-retest-t2"},{"Rune":"rune_04_ac","Hex":"#3366ff99","Correct":-1,"Choice":-1,"RT":-1,"Accuracy":1,"Outcome":"-1","Keys":[],"TotalKeys":0,"Block":2,"Trial":138,"Robot":4,"Valence":"Lose","Action":"No-Go","Sham":0,"Color":"blue","trial_type":"pit-trial","trial_index":156,"time_elapsed":648204,"internal_node_id":"0.0-145.0","task_version":"test-retest-t2"},{"Rune":"rune_04_dagaz","Hex":"#ffcc3399","Correct":-1,"Choice":32,"RT":442.6449999992037,"Accuracy":0,"Outcome":"+10","Keys":[1942.9450000006473],"TotalKeys":1,"Block":2,"Trial":139,"Robot":2,"Valence":"Win","Action":"No-Go","Sham":1,"Color":"yellow","trial_type":"pit-trial","trial_index":157,"time_elapsed":651156,"internal_node_id":"0.0-146.0","task_version":"test-retest-t2"},{"Rune":"rune_04_wunjo","Hex":"#3366ff99","Correct":32,"Choice":32,"RT":663.4049999993294,"Accuracy":1,"Outcome":"-1","Keys":[2163.635000000708],"TotalKeys":1,"Block":2,"Trial":140,"Robot":3,"Valence":"Lose","Action":"Go","Sham":0,"Color":"blue","trial_type":"pit-trial","trial_index":158,"time_elapsed":654326,"internal_node_id":"0.0-147.0","task_version":"test-retest-t2"},{"Rune":"rune_04_dagaz","Hex":"#ffcc3399","Correct":-1,"Choice":32,"RT":825.9799999995157,"Accuracy":0,"Outcome":"+10","Keys":[2328.7399999990594],"TotalKeys":1,"Block":2,"Trial":141,"Robot":2,"Valence":"Win","Action":"No-Go","Sham":1,"Color":"yellow","trial_type":"pit-trial","trial_index":159,"time_elapsed":657664,"internal_node_id":"0.0-148.0","task_version":"test-retest-t2"},{"Rune":"rune_04_wunjo","Hex":"#3366ff99","Correct":32,"Choice":32,"RT":488.28999999933876,"Accuracy":1,"Outcome":"-1","Keys":[1989.1749999988824],"TotalKeys":1,"Block":2,"Trial":142,"Robot":3,"Valence":"Lose","Action":"Go","Sham":0,"Color":"blue","trial_type":"pit-trial","trial_index":160,"time_elapsed":660660,"internal_node_id":"0.0-149.0","task_version":"test-retest-t2"},{"Rune":"rune_04_ac","Hex":"#3366ff99","Correct":-1,"Choice":-1,"RT":-1,"Accuracy":1,"Outcome":"-1","Keys":[],"TotalKeys":0,"Block":2,"Trial":143,"Robot":4,"Valence":"Lose","Action":"No-Go","Sham":0,"Color":"blue","trial_type":"pit-trial","trial_index":161,"time_elapsed":664673,"internal_node_id":"0.0-150.0","task_version":"test-retest-t2"},{"Rune":"rune_04_iwaz","Hex":"#ffcc3399","Correct":32,"Choice":32,"RT":686.714999999851,"Accuracy":1,"Outcome":"+1","Keys":[2187.1950000004144],"TotalKeys":1,"Block":2,"Trial":144,"Robot":1,"Valence":"Win","Action":"Go","Sham":1,"Color":"yellow","trial_type":"pit-trial","trial_index":162,"time_elapsed":667868,"internal_node_id":"0.0-151.0","task_version":"test-retest-t2"},{"Rune":"rune_04_ac","Hex":"#3366ff99","Correct":-1,"Choice":-1,"RT":-1,"Accuracy":1,"Outcome":"-1","Keys":[],"TotalKeys":0,"Block":2,"Trial":145,"Robot":4,"Valence":"Lose","Action":"No-Go","Sham":0,"Color":"blue","trial_type":"pit-trial","trial_index":163,"time_elapsed":671876,"internal_node_id":"0.0-152.0","task_version":"test-retest-t2"},{"Rune":"rune_04_wunjo","Hex":"#3366ff99","Correct":32,"Choice":32,"RT":556.4799999992829,"Accuracy":1,"Outcome":"-1","Keys":[2056.6699999999255],"TotalKeys":1,"Block":2,"Trial":146,"Robot":3,"Valence":"Lose","Action":"Go","Sham":0,"Color":"blue","trial_type":"pit-trial","trial_index":164,"time_elapsed":674941,"internal_node_id":"0.0-153.0","task_version":"test-retest-t2"},{"Rune":"rune_04_dagaz","Hex":"#ffcc3399","Correct":-1,"Choice":32,"RT":550.4600000004284,"Accuracy":0,"Outcome":"+1","Keys":[2051.325000000419],"TotalKeys":1,"Block":2,"Trial":147,"Robot":2,"Valence":"Win","Action":"No-Go","Sham":0,"Color":"yellow","trial_type":"pit-trial","trial_index":165,"time_elapsed":678000,"internal_node_id":"0.0-154.0","task_version":"test-retest-t2"},{"Rune":"rune_04_iwaz","Hex":"#ffcc3399","Correct":32,"Choice":32,"RT":561.9850000003353,"Accuracy":1,"Outcome":"+10","Keys":[2064.1249999989523],"TotalKeys":1,"Block":2,"Trial":148,"Robot":1,"Valence":"Win","Action":"Go","Sham":0,"Color":"yellow","trial_type":"pit-trial","trial_index":166,"time_elapsed":681068,"internal_node_id":"0.0-155.0","task_version":"test-retest-t2"},{"Rune":"rune_04_iwaz","Hex":"#ffcc3399","Correct":32,"Choice":32,"RT":888.9900000012713,"Accuracy":1,"Outcome":"+10","Keys":[2391.2249999993946],"TotalKeys":1,"Block":2,"Trial":149,"Robot":1,"Valence":"Win","Action":"Go","Sham":0,"Color":"yellow","trial_type":"pit-trial","trial_index":167,"time_elapsed":684468,"internal_node_id":"0.0-156.0","task_version":"test-retest-t2"},{"Rune":"rune_04_ac","Hex":"#3366ff99","Correct":-1,"Choice":-1,"RT":-1,"Accuracy":1,"Outcome":"-1","Keys":[],"TotalKeys":0,"Block":2,"Trial":150,"Robot":4,"Valence":"Lose","Action":"No-Go","Sham":0,"Color":"blue","trial_type":"pit-trial","trial_index":168,"time_elapsed":688480,"internal_node_id":"0.0-157.0","task_version":"test-retest-t2"},{"Rune":"rune_04_wunjo","Hex":"#3366ff99","Correct":32,"Choice":32,"RT":532.4049999999115,"Accuracy":1,"Outcome":"-1","Keys":[2034.5999999990454],"TotalKeys":1,"Block":2,"Trial":151,"Robot":3,"Valence":"Lose","Action":"Go","Sham":0,"Color":"blue","trial_type":"pit-trial","trial_index":169,"time_elapsed":691524,"internal_node_id":"0.0-158.0","task_version":"test-retest-t2"},{"Rune":"rune_04_dagaz","Hex":"#ffcc3399","Correct":-1,"Choice":32,"RT":1047.4899999990594,"Accuracy":0,"Outcome":"+1","Keys":[2547.700000001001],"TotalKeys":1,"Block":2,"Trial":152,"Robot":2,"Valence":"Win","Action":"No-Go","Sham":0,"Color":"yellow","trial_type":"pit-trial","trial_index":170,"time_elapsed":695079,"internal_node_id":"0.0-159.0","task_version":"test-retest-t2"},{"Rune":"rune_04_wunjo","Hex":"#3366ff99","Correct":32,"Choice":32,"RT":509.21000000007916,"Accuracy":1,"Outcome":"-10","Keys":[2009.8399999988033],"TotalKeys":1,"Block":2,"Trial":153,"Robot":3,"Valence":"Lose","Action":"Go","Sham":1,"Color":"blue","trial_type":"pit-trial","trial_index":171,"time_elapsed":698094,"internal_node_id":"0.0-160.0","task_version":"test-retest-t2"},{"Rune":"rune_04_ac","Hex":"#3366ff99","Correct":-1,"Choice":-1,"RT":-1,"Accuracy":1,"Outcome":"-10","Keys":[],"TotalKeys":0,"Block":2,"Trial":154,"Robot":4,"Valence":"Lose","Action":"No-Go","Sham":1,"Color":"blue","trial_type":"pit-trial","trial_index":172,"time_elapsed":702104,"internal_node_id":"0.0-161.0","task_version":"test-retest-t2"},{"Rune":"rune_04_dagaz","Hex":"#ffcc3399","Correct":-1,"Choice":-1,"RT":-1,"Accuracy":1,"Outcome":"+10","Keys":[],"TotalKeys":0,"Block":2,"Trial":155,"Robot":2,"Valence":"Win","Action":"No-Go","Sham":0,"Color":"yellow","trial_type":"pit-trial","trial_index":173,"time_elapsed":706115,"internal_node_id":"0.0-162.0","task_version":"test-retest-t2"},{"Rune":"rune_04_iwaz","Hex":"#ffcc3399","Correct":32,"Choice":32,"RT":545.8350000007777,"Accuracy":1,"Outcome":"+10","Keys":[2046.5200000016484],"TotalKeys":1,"Block":2,"Trial":156,"Robot":1,"Valence":"Win","Action":"Go","Sham":0,"Color":"yellow","trial_type":"pit-trial","trial_index":174,"time_elapsed":709168,"internal_node_id":"0.0-163.0","task_version":"test-retest-t2"},{"Rune":"rune_04_iwaz","Hex":"#ffcc3399","Correct":32,"Choice":32,"RT":753.9550000000745,"Accuracy":1,"Outcome":"+10","Keys":[2256.2149999993853],"TotalKeys":1,"Block":2,"Trial":157,"Robot":1,"Valence":"Win","Action":"Go","Sham":0,"Color":"yellow","trial_type":"pit-trial","trial_index":175,"time_elapsed":712432,"internal_node_id":"0.0-164.0","task_version":"test-retest-t2"},{"Rune":"rune_04_ac","Hex":"#3366ff99","Correct":-1,"Choice":-1,"RT":-1,"Accuracy":1,"Outcome":"-1","Keys":[],"TotalKeys":0,"Block":2,"Trial":158,"Robot":4,"Valence":"Lose","Action":"No-Go","Sham":0,"Color":"blue","trial_type":"pit-trial","trial_index":176,"time_elapsed":716445,"internal_node_id":"0.0-165.0","task_version":"test-retest-t2"},{"Rune":"rune_04_dagaz","Hex":"#ffcc3399","Correct":-1,"Choice":-1,"RT":-1,"Accuracy":1,"Outcome":"+10","Keys":[],"TotalKeys":0,"Block":2,"Trial":159,"Robot":2,"Valence":"Win","Action":"No-Go","Sham":0,"Color":"yellow","trial_type":"pit-trial","trial_index":177,"time_elapsed":720459,"internal_node_id":"0.0-166.0","task_version":"test-retest-t2"},{"Rune":"rune_04_wunjo","Hex":"#3366ff99","Correct":32,"Choice":32,"RT":564.6799999995856,"Accuracy":1,"Outcome":"-1","Keys":[2064.9950000005774],"TotalKeys":1,"Block":2,"Trial":160,"Robot":3,"Valence":"Lose","Action":"Go","Sham":0,"Color":"blue","trial_type":"pit-trial","trial_index":178,"time_elapsed":723530,"internal_node_id":"0.0-167.0","task_version":"test-retest-t2"},{"Rune":"rune_04_wunjo","Hex":"#3366ff99","Correct":32,"Choice":32,"RT":544.3350000005448,"Accuracy":1,"Outcome":"-1","Keys":[2044.81000000122],"TotalKeys":1,"Block":2,"Trial":161,"Robot":3,"Valence":"Lose","Action":"Go","Sham":0,"Color":"blue","trial_type":"pit-trial","trial_index":179,"time_elapsed":726583,"internal_node_id":"0.0-168.0","task_version":"test-retest-t2"},{"Rune":"rune_04_dagaz","Hex":"#ffcc3399","Correct":-1,"Choice":-1,"RT":-1,"Accuracy":1,"Outcome":"+10","Keys":[],"TotalKeys":0,"Block":2,"Trial":162,"Robot":2,"Valence":"Win","Action":"No-Go","Sham":0,"Color":"yellow","trial_type":"pit-trial","trial_index":180,"time_elapsed":730591,"internal_node_id":"0.0-169.0","task_version":"test-retest-t2"},{"Rune":"rune_04_ac","Hex":"#3366ff99","Correct":-1,"Choice":-1,"RT":-1,"Accuracy":1,"Outcome":"-1","Keys":[],"TotalKeys":0,"Block":2,"Trial":163,"Robot":4,"Valence":"Lose","Action":"No-Go","Sham":0,"Color":"blue","trial_type":"pit-trial","trial_index":181,"time_elapsed":734601,"internal_node_id":"0.0-170.0","task_version":"test-retest-t2"},{"Rune":"rune_04_iwaz","Hex":"#ffcc3399","Correct":32,"Choice":32,"RT":557.6450000007171,"Accuracy":1,"Outcome":"+10","Keys":[2059.709999999497],"TotalKeys":1,"Block":2,"Trial":164,"Robot":1,"Valence":"Win","Action":"Go","Sham":0,"Color":"yellow","trial_type":"pit-trial","trial_index":182,"time_elapsed":737666,"internal_node_id":"0.0-171.0","task_version":"test-retest-t2"},{"Rune":"rune_04_iwaz","Hex":"#ffcc3399","Correct":32,"Choice":32,"RT":664.5799999986775,"Accuracy":1,"Outcome":"+10","Keys":[2165.315000000177],"TotalKeys":1,"Block":2,"Trial":165,"Robot":1,"Valence":"Win","Action":"Go","Sham":0,"Color":"yellow","trial_type":"pit-trial","trial_index":183,"time_elapsed":740839,"internal_node_id":"0.0-172.0","task_version":"test-retest-t2"},{"Rune":"rune_04_dagaz","Hex":"#ffcc3399","Correct":-1,"Choice":-1,"RT":-1,"Accuracy":1,"Outcome":"+1","Keys":[],"TotalKeys":0,"Block":2,"Trial":166,"Robot":2,"Valence":"Win","Action":"No-Go","Sham":1,"Color":"yellow","trial_type":"pit-trial","trial_index":184,"time_elapsed":744848,"internal_node_id":"0.0-173.0","task_version":"test-retest-t2"},{"Rune":"rune_04_ac","Hex":"#3366ff99","Correct":-1,"Choice":-1,"RT":-1,"Accuracy":1,"Outcome":"-1","Keys":[],"TotalKeys":0,"Block":2,"Trial":167,"Robot":4,"Valence":"Lose","Action":"No-Go","Sham":0,"Color":"blue","trial_type":"pit-trial","trial_index":185,"time_elapsed":748859,"internal_node_id":"0.0-174.0","task_version":"test-retest-t2"},{"Rune":"rune_04_wunjo","Hex":"#3366ff99","Correct":32,"Choice":32,"RT":488.0350000002654,"Accuracy":1,"Outcome":"-1","Keys":[1990.5299999990966],"TotalKeys":1,"Block":2,"Trial":168,"Robot":3,"Valence":"Lose","Action":"Go","Sham":0,"Color":"blue","trial_type":"pit-trial","trial_index":186,"time_elapsed":751858,"internal_node_id":"0.0-175.0","task_version":"test-retest-t2"},{"Rune":"rune_04_dagaz","Hex":"#ffcc3399","Correct":-1,"Choice":32,"RT":1098.5899999996182,"Accuracy":0,"Outcome":"+1","Keys":[2599.9800000009127],"TotalKeys":1,"Block":2,"Trial":169,"Robot":2,"Valence":"Win","Action":"No-Go","Sham":0,"Color":"yellow","trial_type":"pit-trial","trial_index":187,"time_elapsed":755466,"internal_node_id":"0.0-176.0","task_version":"test-retest-t2"},{"Rune":"rune_04_wunjo","Hex":"#3366ff99","Correct":32,"Choice":32,"RT":662.5399999993388,"Accuracy":1,"Outcome":"-1","Keys":[2163.020000001765],"TotalKeys":1,"Block":2,"Trial":170,"Robot":3,"Valence":"Lose","Action":"Go","Sham":0,"Color":"blue","trial_type":"pit-trial","trial_index":188,"time_elapsed":758633,"internal_node_id":"0.0-177.0","task_version":"test-retest-t2"},{"Rune":"rune_04_ac","Hex":"#3366ff99","Correct":-1,"Choice":-1,"RT":-1,"Accuracy":1,"Outcome":"-1","Keys":[],"TotalKeys":0,"Block":2,"Trial":171,"Robot":4,"Valence":"Lose","Action":"No-Go","Sham":0,"Color":"blue","trial_type":"pit-trial","trial_index":189,"time_elapsed":762645,"internal_node_id":"0.0-178.0","task_version":"test-retest-t2"},{"Rune":"rune_04_iwaz","Hex":"#ffcc3399","Correct":32,"Choice":32,"RT":567.0100000007078,"Accuracy":1,"Outcome":"+1","Keys":[2067.3299999998417],"TotalKeys":1,"Block":2,"Trial":172,"Robot":1,"Valence":"Win","Action":"Go","Sham":1,"Color":"yellow","trial_type":"pit-trial","trial_index":190,"time_elapsed":765721,"internal_node_id":"0.0-179.0","task_version":"test-retest-t2"},{"Rune":"rune_04_dagaz","Hex":"#ffcc3399","Correct":-1,"Choice":-1,"RT":-1,"Accuracy":1,"Outcome":"+10","Keys":[],"TotalKeys":0,"Block":2,"Trial":173,"Robot":2,"Valence":"Win","Action":"No-Go","Sham":0,"Color":"yellow","trial_type":"pit-trial","trial_index":191,"time_elapsed":769729,"internal_node_id":"0.0-180.0","task_version":"test-retest-t2"},{"Rune":"rune_04_wunjo","Hex":"#3366ff99","Correct":32,"Choice":32,"RT":573.6899999992456,"Accuracy":1,"Outcome":"-1","Keys":[2074.85500000068],"TotalKeys":1,"Block":2,"Trial":174,"Robot":3,"Valence":"Lose","Action":"Go","Sham":0,"Color":"blue","trial_type":"pit-trial","trial_index":192,"time_elapsed":772812,"internal_node_id":"0.0-181.0","task_version":"test-retest-t2"},{"Rune":"rune_04_ac","Hex":"#3366ff99","Correct":-1,"Choice":-1,"RT":-1,"Accuracy":1,"Outcome":"-1","Keys":[],"TotalKeys":0,"Block":2,"Trial":175,"Robot":4,"Valence":"Lose","Action":"No-Go","Sham":0,"Color":"blue","trial_type":"pit-trial","trial_index":193,"time_elapsed":776821,"internal_node_id":"0.0-182.0","task_version":"test-retest-t2"},{"Rune":"rune_04_iwaz","Hex":"#ffcc3399","Correct":32,"Choice":32,"RT":729.7400000006892,"Accuracy":1,"Outcome":"+10","Keys":[2232.1400000001304],"TotalKeys":1,"Block":2,"Trial":176,"Robot":1,"Valence":"Win","Action":"Go","Sham":0,"Color":"yellow","trial_type":"pit-trial","trial_index":194,"time_elapsed":780057,"internal_node_id":"0.0-183.0","task_version":"test-retest-t2"},{"Rune":"rune_04_iwaz","Hex":"#ffcc3399","Correct":32,"Choice":32,"RT":578.1200000001118,"Accuracy":1,"Outcome":"+10","Keys":[2079.8899999990826],"TotalKeys":1,"Block":2,"Trial":177,"Robot":1,"Valence":"Win","Action":"Go","Sham":0,"Color":"yellow","trial_type":"pit-trial","trial_index":195,"time_elapsed":783145,"internal_node_id":"0.0-184.0","task_version":"test-retest-t2"},{"Rune":"rune_04_wunjo","Hex":"#3366ff99","Correct":32,"Choice":32,"RT":519.8699999999953,"Accuracy":1,"Outcome":"-10","Keys":[2019.9950000005774],"TotalKeys":1,"Block":2,"Trial":178,"Robot":3,"Valence":"Lose","Action":"Go","Sham":1,"Color":"blue","trial_type":"pit-trial","trial_index":196,"time_elapsed":786172,"internal_node_id":"0.0-185.0","task_version":"test-retest-t2"},{"Rune":"rune_04_dagaz","Hex":"#ffcc3399","Correct":-1,"Choice":-1,"RT":-1,"Accuracy":1,"Outcome":"+10","Keys":[],"TotalKeys":0,"Block":2,"Trial":179,"Robot":2,"Valence":"Win","Action":"No-Go","Sham":0,"Color":"yellow","trial_type":"pit-trial","trial_index":197,"time_elapsed":790181,"internal_node_id":"0.0-186.0","task_version":"test-retest-t2"},{"Rune":"rune_04_ac","Hex":"#3366ff99","Correct":-1,"Choice":-1,"RT":-1,"Accuracy":1,"Outcome":"-10","Keys":[],"TotalKeys":0,"Block":2,"Trial":180,"Robot":4,"Valence":"Lose","Action":"No-Go","Sham":1,"Color":"blue","trial_type":"pit-trial","trial_index":198,"time_elapsed":794189,"internal_node_id":"0.0-187.0","task_version":"test-retest-t2"},{"view_history":"[{\"page_index\":0,\"viewing_time\":51226.93500000064},{\"page_index\":1,\"viewing_time\":1390.7799999996787}]","rt":52618.51000000024,"trial_type":"pit-instructions","trial_index":199,"time_elapsed":846811,"internal_node_id":"0.0-188.0","task_version":"test-retest-t2"},{"Rune":"rune_04_wunjo","Hex":"#3366ff99","Correct":32,"Choice":32,"RT":402.91499999864027,"Accuracy":1,"Outcome":"-1","Keys":[1904.9450000001816],"TotalKeys":1,"Block":2,"Trial":181,"Robot":3,"Valence":"Lose","Action":"Go","Sham":0,"Color":"blue","trial_type":"pit-trial","trial_index":200,"time_elapsed":849729,"internal_node_id":"0.0-189.0","task_version":"test-retest-t2"},{"Rune":"rune_04_dagaz","Hex":"#ffcc3399","Correct":-1,"Choice":-1,"RT":-1,"Accuracy":1,"Outcome":"+1","Keys":[],"TotalKeys":0,"Block":2,"Trial":182,"Robot":2,"Valence":"Win","Action":"No-Go","Sham":1,"Color":"yellow","trial_type":"pit-trial","trial_index":201,"time_elapsed":853737,"internal_node_id":"0.0-190.0","task_version":"test-retest-t2"},{"Rune":"rune_04_iwaz","Hex":"#ffcc3399","Correct":32,"Choice":32,"RT":495.0950000002049,"Accuracy":1,"Outcome":"+10","Keys":[1995.5399999999208],"TotalKeys":1,"Block":2,"Trial":183,"Robot":1,"Valence":"Win","Action":"Go","Sham":0,"Color":"yellow","trial_type":"pit-trial","trial_index":202,"time_elapsed":856741,"internal_node_id":"0.0-191.0","task_version":"test-retest-t2"},{"Rune":"rune_04_ac","Hex":"#3366ff99","Correct":-1,"Choice":-1,"RT":-1,"Accuracy":1,"Outcome":"-1","Keys":[],"TotalKeys":0,"Block":2,"Trial":184,"Robot":4,"Valence":"Lose","Action":"No-Go","Sham":0,"Color":"blue","trial_type":"pit-trial","trial_index":203,"time_elapsed":860747,"internal_node_id":"0.0-192.0","task_version":"test-retest-t2"},{"Rune":"rune_04_dagaz","Hex":"#ffcc3399","Correct":-1,"Choice":-1,"RT":-1,"Accuracy":1,"Outcome":"+10","Keys":[],"TotalKeys":0,"Block":2,"Trial":185,"Robot":2,"Valence":"Win","Action":"No-Go","Sham":0,"Color":"yellow","trial_type":"pit-trial","trial_index":204,"time_elapsed":864757,"internal_node_id":"0.0-193.0","task_version":"test-retest-t2"},{"Rune":"rune_04_iwaz","Hex":"#ffcc3399","Correct":32,"Choice":32,"RT":557.9550000001909,"Accuracy":1,"Outcome":"+10","Keys":[2058.089999998687],"TotalKeys":1,"Block":2,"Trial":186,"Robot":1,"Valence":"Win","Action":"Go","Sham":0,"Color":"yellow","trial_type":"pit-trial","trial_index":205,"time_elapsed":867822,"internal_node_id":"0.0-194.0","task_version":"test-retest-t2"},{"Rune":"rune_04_ac","Hex":"#3366ff99","Correct":-1,"Choice":32,"RT":475.65000000037253,"Accuracy":0,"Outcome":"-10","Keys":[1976.3249999996042],"TotalKeys":1,"Block":2,"Trial":187,"Robot":4,"Valence":"Lose","Action":"No-Go","Sham":0,"Color":"blue","trial_type":"pit-trial","trial_index":206,"time_elapsed":870807,"internal_node_id":"0.0-195.0","task_version":"test-retest-t2"},{"Rune":"rune_04_wunjo","Hex":"#3366ff99","Correct":32,"Choice":32,"RT":522.6700000002747,"Accuracy":1,"Outcome":"-1","Keys":[2022.92999999912],"TotalKeys":1,"Block":2,"Trial":188,"Robot":3,"Valence":"Lose","Action":"Go","Sham":0,"Color":"blue","trial_type":"pit-trial","trial_index":207,"time_elapsed":873836,"internal_node_id":"0.0-196.0","task_version":"test-retest-t2"},{"Rune":"rune_04_wunjo","Hex":"#3366ff99","Correct":32,"Choice":32,"RT":589.0049999997718,"Accuracy":1,"Outcome":"-10","Keys":[2089.785000000149],"TotalKeys":1,"Block":2,"Trial":189,"Robot":3,"Valence":"Lose","Action":"Go","Sham":1,"Color":"blue","trial_type":"pit-trial","trial_index":208,"time_elapsed":876932,"internal_node_id":"0.0-197.0","task_version":"test-retest-t2"},{"Rune":"rune_04_dagaz","Hex":"#ffcc3399","Correct":-1,"Choice":-1,"RT":-1,"Accuracy":1,"Outcome":"+10","Keys":[],"TotalKeys":0,"Block":2,"Trial":190,"Robot":2,"Valence":"Win","Action":"No-Go","Sham":0,"Color":"yellow","trial_type":"pit-trial","trial_index":209,"time_elapsed":880945,"internal_node_id":"0.0-198.0","task_version":"test-retest-t2"},{"Rune":"rune_04_ac","Hex":"#3366ff99","Correct":-1,"Choice":-1,"RT":-1,"Accuracy":1,"Outcome":"-1","Keys":[],"TotalKeys":0,"Block":2,"Trial":191,"Robot":4,"Valence":"Lose","Action":"No-Go","Sham":0,"Color":"blue","trial_type":"pit-trial","trial_index":210,"time_elapsed":884955,"internal_node_id":"0.0-199.0","task_version":"test-retest-t2"},{"Rune":"rune_04_iwaz","Hex":"#ffcc3399","Correct":32,"Choice":32,"RT":537.0050000001211,"Accuracy":1,"Outcome":"+10","Keys":[2038.4850000009174],"TotalKeys":1,"Block":2,"Trial":192,"Robot":1,"Valence":"Win","Action":"Go","Sham":0,"Color":"yellow","trial_type":"pit-trial","trial_index":211,"time_elapsed":887997,"internal_node_id":"0.0-200.0","task_version":"test-retest-t2"},{"Rune":"rune_04_wunjo","Hex":"#3366ff99","Correct":32,"Choice":32,"RT":514.054999999702,"Accuracy":1,"Outcome":"-1","Keys":[2014.1750000002794],"TotalKeys":1,"Block":2,"Trial":193,"Robot":3,"Valence":"Lose","Action":"Go","Sham":0,"Color":"blue","trial_type":"pit-trial","trial_index":212,"time_elapsed":891014,"internal_node_id":"0.0-201.0","task_version":"test-retest-t2"},{"Rune":"rune_04_dagaz","Hex":"#ffcc3399","Correct":-1,"Choice":-1,"RT":-1,"Accuracy":1,"Outcome":"+10","Keys":[],"TotalKeys":0,"Block":2,"Trial":194,"Robot":2,"Valence":"Win","Action":"No-Go","Sham":0,"Color":"yellow","trial_type":"pit-trial","trial_index":213,"time_elapsed":895025,"internal_node_id":"0.0-202.0","task_version":"test-retest-t2"},{"Rune":"rune_04_iwaz","Hex":"#ffcc3399","Correct":32,"Choice":32,"RT":502.26000000105705,"Accuracy":1,"Outcome":"+1","Keys":[2003.114999999525],"TotalKeys":1,"Block":2,"Trial":195,"Robot":1,"Valence":"Win","Action":"Go","Sham":1,"Color":"yellow","trial_type":"pit-trial","trial_index":214,"time_elapsed":898032,"internal_node_id":"0.0-203.0","task_version":"test-retest-t2"},{"Rune":"rune_04_ac","Hex":"#3366ff99","Correct":-1,"Choice":-1,"RT":-1,"Accuracy":1,"Outcome":"-1","Keys":[],"TotalKeys":0,"Block":2,"Trial":196,"Robot":4,"Valence":"Lose","Action":"No-Go","Sham":0,"Color":"blue","trial_type":"pit-trial","trial_index":215,"time_elapsed":902042,"internal_node_id":"0.0-204.0","task_version":"test-retest-t2"},{"Rune":"rune_04_dagaz","Hex":"#ffcc3399","Correct":-1,"Choice":-1,"RT":-1,"Accuracy":1,"Outcome":"+10","Keys":[],"TotalKeys":0,"Block":2,"Trial":197,"Robot":2,"Valence":"Win","Action":"No-Go","Sham":0,"Color":"yellow","trial_type":"pit-trial","trial_index":216,"time_elapsed":906047,"internal_node_id":"0.0-205.0","task_version":"test-retest-t2"},{"Rune":"rune_04_wunjo","Hex":"#3366ff99","Correct":32,"Choice":32,"RT":919.3549999999814,"Accuracy":1,"Outcome":"-1","Keys":[2419.5550000004005],"TotalKeys":1,"Block":2,"Trial":198,"Robot":3,"Valence":"Lose","Action":"Go","Sham":0,"Color":"blue","trial_type":"pit-trial","trial_index":217,"time_elapsed":909474,"internal_node_id":"0.0-206.0","task_version":"test-retest-t2"},{"Rune":"rune_04_ac","Hex":"#3366ff99","Correct":-1,"Choice":-1,"RT":-1,"Accuracy":1,"Outcome":"-10","Keys":[],"TotalKeys":0,"Block":2,"Trial":199,"Robot":4,"Valence":"Lose","Action":"No-Go","Sham":1,"Color":"blue","trial_type":"pit-trial","trial_index":218,"time_elapsed":913485,"internal_node_id":"0.0-207.0","task_version":"test-retest-t2"},{"Rune":"rune_04_iwaz","Hex":"#ffcc3399","Correct":32,"Choice":32,"RT":475.1000000014901,"Accuracy":1,"Outcome":"+10","Keys":[1976.020000000135],"TotalKeys":1,"Block":2,"Trial":200,"Robot":1,"Valence":"Win","Action":"Go","Sham":0,"Color":"yellow","trial_type":"pit-trial","trial_index":219,"time_elapsed":916470,"internal_node_id":"0.0-208.0","task_version":"test-retest-t2"},{"Rune":"rune_04_dagaz","Hex":"#ffcc3399","Correct":-1,"Choice":-1,"RT":-1,"Accuracy":1,"Outcome":"+10","Keys":[],"TotalKeys":0,"Block":2,"Trial":201,"Robot":2,"Valence":"Win","Action":"No-Go","Sham":0,"Color":"yellow","trial_type":"pit-trial","trial_index":220,"time_elapsed":920479,"internal_node_id":"0.0-209.0","task_version":"test-retest-t2"},{"Rune":"rune_04_wunjo","Hex":"#3366ff99","Correct":32,"Choice":32,"RT":497.8299999984447,"Accuracy":1,"Outcome":"-10","Keys":[1998.0699999995995],"TotalKeys":1,"Block":2,"Trial":202,"Robot":3,"Valence":"Lose","Action":"Go","Sham":1,"Color":"blue","trial_type":"pit-trial","trial_index":221,"time_elapsed":923484,"internal_node_id":"0.0-210.0","task_version":"test-retest-t2"},{"Rune":"rune_04_ac","Hex":"#3366ff99","Correct":-1,"Choice":-1,"RT":-1,"Accuracy":1,"Outcome":"-1","Keys":[],"TotalKeys":0,"Block":2,"Trial":203,"Robot":4,"Valence":"Lose","Action":"No-Go","Sham":0,"Color":"blue","trial_type":"pit-trial","trial_index":222,"time_elapsed":927494,"internal_node_id":"0.0-211.0","task_version":"test-retest-t2"},{"Rune":"rune_04_iwaz","Hex":"#ffcc3399","Correct":32,"Choice":32,"RT":496.6850000000559,"Accuracy":1,"Outcome":"+10","Keys":[1997.9450000009965],"TotalKeys":1,"Block":2,"Trial":204,"Robot":1,"Valence":"Win","Action":"Go","Sham":0,"Color":"yellow","trial_type":"pit-trial","trial_index":223,"time_elapsed":930496,"internal_node_id":"0.0-212.0","task_version":"test-retest-t2"},{"Rune":"rune_04_wunjo","Hex":"#3366ff99","Correct":32,"Choice":-1,"RT":-1,"Accuracy":0,"Outcome":"-10","Keys":[],"TotalKeys":0,"Block":2,"Trial":205,"Robot":3,"Valence":"Lose","Action":"Go","Sham":0,"Color":"blue","trial_type":"pit-trial","trial_index":224,"time_elapsed":934507,"internal_node_id":"0.0-213.0","task_version":"test-retest-t2"},{"Rune":"rune_04_iwaz","Hex":"#ffcc3399","Correct":32,"Choice":32,"RT":472.62500000034925,"Accuracy":1,"Outcome":"+10","Keys":[1974.2349999996368],"TotalKeys":1,"Block":2,"Trial":206,"Robot":1,"Valence":"Win","Action":"Go","Sham":0,"Color":"yellow","trial_type":"pit-trial","trial_index":225,"time_elapsed":937485,"internal_node_id":"0.0-214.0","task_version":"test-retest-t2"},{"Rune":"rune_04_dagaz","Hex":"#ffcc3399","Correct":-1,"Choice":-1,"RT":-1,"Accuracy":1,"Outcome":"+10","Keys":[],"TotalKeys":0,"Block":2,"Trial":207,"Robot":2,"Valence":"Win","Action":"No-Go","Sham":0,"Color":"yellow","trial_type":"pit-trial","trial_index":226,"time_elapsed":941497,"internal_node_id":"0.0-215.0","task_version":"test-retest-t2"},{"Rune":"rune_04_ac","Hex":"#3366ff99","Correct":-1,"Choice":-1,"RT":-1,"Accuracy":1,"Outcome":"-1","Keys":[],"TotalKeys":0,"Block":2,"Trial":208,"Robot":4,"Valence":"Lose","Action":"No-Go","Sham":0,"Color":"blue","trial_type":"pit-trial","trial_index":227,"time_elapsed":945509,"internal_node_id":"0.0-216.0","task_version":"test-retest-t2"},{"Rune":"rune_04_dagaz","Hex":"#ffcc3399","Correct":-1,"Choice":-1,"RT":-1,"Accuracy":1,"Outcome":"+10","Keys":[],"TotalKeys":0,"Block":2,"Trial":209,"Robot":2,"Valence":"Win","Action":"No-Go","Sham":0,"Color":"yellow","trial_type":"pit-trial","trial_index":228,"time_elapsed":949519,"internal_node_id":"0.0-217.0","task_version":"test-retest-t2"},{"Rune":"rune_04_ac","Hex":"#3366ff99","Correct":-1,"Choice":-1,"RT":-1,"Accuracy":1,"Outcome":"-1","Keys":[],"TotalKeys":0,"Block":2,"Trial":210,"Robot":4,"Valence":"Lose","Action":"No-Go","Sham":0,"Color":"blue","trial_type":"pit-trial","trial_index":229,"time_elapsed":953531,"internal_node_id":"0.0-218.0","task_version":"test-retest-t2"},{"Rune":"rune_04_wunjo","Hex":"#3366ff99","Correct":32,"Choice":32,"RT":586.1050000003306,"Accuracy":1,"Outcome":"-1","Keys":[2086.94500000088],"TotalKeys":1,"Block":2,"Trial":211,"Robot":3,"Valence":"Lose","Action":"Go","Sham":0,"Color":"blue","trial_type":"pit-trial","trial_index":230,"time_elapsed":956626,"internal_node_id":"0.0-219.0","task_version":"test-retest-t2"},{"Rune":"rune_04_iwaz","Hex":"#ffcc3399","Correct":32,"Choice":32,"RT":505.6250000016298,"Accuracy":1,"Outcome":"+1","Keys":[2006.7149999995017],"TotalKeys":1,"Block":2,"Trial":212,"Robot":1,"Valence":"Win","Action":"Go","Sham":1,"Color":"yellow","trial_type":"pit-trial","trial_index":231,"time_elapsed":959636,"internal_node_id":"0.0-220.0","task_version":"test-retest-t2"},{"Rune":"rune_04_iwaz","Hex":"#ffcc3399","Correct":32,"Choice":32,"RT":516.7249999993946,"Accuracy":1,"Outcome":"+10","Keys":[2016.9999999997672],"TotalKeys":1,"Block":2,"Trial":213,"Robot":1,"Valence":"Win","Action":"Go","Sham":0,"Color":"yellow","trial_type":"pit-trial","trial_index":232,"time_elapsed":962657,"internal_node_id":"0.0-221.0","task_version":"test-retest-t2"},{"Rune":"rune_04_wunjo","Hex":"#3366ff99","Correct":32,"Choice":32,"RT":1041.839999999851,"Accuracy":1,"Outcome":"-1","Keys":[2543.01000000129],"TotalKeys":1,"Block":2,"Trial":214,"Robot":3,"Valence":"Lose","Action":"Go","Sham":0,"Color":"blue","trial_type":"pit-trial","trial_index":233,"time_elapsed":966205,"internal_node_id":"0.0-222.0","task_version":"test-retest-t2"},{"Rune":"rune_04_ac","Hex":"#3366ff99","Correct":-1,"Choice":-1,"RT":-1,"Accuracy":1,"Outcome":"-10","Keys":[],"TotalKeys":0,"Block":2,"Trial":215,"Robot":4,"Valence":"Lose","Action":"No-Go","Sham":1,"Color":"blue","trial_type":"pit-trial","trial_index":234,"time_elapsed":970215,"internal_node_id":"0.0-223.0","task_version":"test-retest-t2"},{"Rune":"rune_04_dagaz","Hex":"#ffcc3399","Correct":-1,"Choice":-1,"RT":-1,"Accuracy":1,"Outcome":"+1","Keys":[],"TotalKeys":0,"Block":2,"Trial":216,"Robot":2,"Valence":"Win","Action":"No-Go","Sham":1,"Color":"yellow","trial_type":"pit-trial","trial_index":235,"time_elapsed":974220,"internal_node_id":"0.0-224.0","task_version":"test-retest-t2"},{"Rune":"rune_04_wunjo","Hex":"#3366ff99","Correct":32,"Choice":32,"RT":528.8400000008987,"Accuracy":1,"Outcome":"-1","Keys":[2029.6349999989616],"TotalKeys":1,"Block":2,"Trial":217,"Robot":3,"Valence":"Lose","Action":"Go","Sham":0,"Color":"blue","trial_type":"pit-trial","trial_index":236,"time_elapsed":977260,"internal_node_id":"0.0-225.0","task_version":"test-retest-t2"},{"Rune":"rune_04_ac","Hex":"#3366ff99","Correct":-1,"Choice":-1,"RT":-1,"Accuracy":1,"Outcome":"-1","Keys":[],"TotalKeys":0,"Block":2,"Trial":218,"Robot":4,"Valence":"Lose","Action":"No-Go","Sham":0,"Color":"blue","trial_type":"pit-trial","trial_index":237,"time_elapsed":981271,"internal_node_id":"0.0-226.0","task_version":"test-retest-t2"},{"Rune":"rune_04_dagaz","Hex":"#ffcc3399","Correct":-1,"Choice":-1,"RT":-1,"Accuracy":1,"Outcome":"+10","Keys":[],"TotalKeys":0,"Block":2,"Trial":219,"Robot":2,"Valence":"Win","Action":"No-Go","Sham":0,"Color":"yellow","trial_type":"pit-trial","trial_index":238,"time_elapsed":985282,"internal_node_id":"0.0-227.0","task_version":"test-retest-t2"},{"Rune":"rune_04_iwaz","Hex":"#ffcc3399","Correct":32,"Choice":32,"RT":529.4249999988824,"Accuracy":1,"Outcome":"+10","Keys":[2029.8500000007916],"TotalKeys":1,"Block":2,"Trial":220,"Robot":1,"Valence":"Win","Action":"Go","Sham":0,"Color":"yellow","trial_type":"pit-trial","trial_index":239,"time_elapsed":988320,"internal_node_id":"0.0-228.0","task_version":"test-retest-t2"},{"Rune":"rune_04_iwaz","Hex":"#ffcc3399","Correct":32,"Choice":32,"RT":540.0850000005448,"Accuracy":1,"Outcome":"+1","Keys":[2040.6849999999395],"TotalKeys":1,"Block":2,"Trial":221,"Robot":1,"Valence":"Win","Action":"Go","Sham":1,"Color":"yellow","trial_type":"pit-trial","trial_index":240,"time_elapsed":991369,"internal_node_id":"0.0-229.0","task_version":"test-retest-t2"},{"Rune":"rune_04_wunjo","Hex":"#3366ff99","Correct":32,"Choice":32,"RT":422.26499999919906,"Accuracy":1,"Outcome":"-10","Keys":[1922.4850000009174],"TotalKeys":1,"Block":2,"Trial":222,"Robot":3,"Valence":"Lose","Action":"Go","Sham":1,"Color":"blue","trial_type":"pit-trial","trial_index":241,"time_elapsed":994300,"internal_node_id":"0.0-230.0","task_version":"test-retest-t2"},{"Rune":"rune_04_ac","Hex":"#3366ff99","Correct":-1,"Choice":-1,"RT":-1,"Accuracy":1,"Outcome":"-1","Keys":[],"TotalKeys":0,"Block":2,"Trial":223,"Robot":4,"Valence":"Lose","Action":"No-Go","Sham":0,"Color":"blue","trial_type":"pit-trial","trial_index":242,"time_elapsed":998313,"internal_node_id":"0.0-231.0","task_version":"test-retest-t2"},{"Rune":"rune_04_dagaz","Hex":"#ffcc3399","Correct":-1,"Choice":-1,"RT":-1,"Accuracy":1,"Outcome":"+10","Keys":[577.3800000005867],"TotalKeys":1,"Block":2,"Trial":224,"Robot":2,"Valence":"Win","Action":"No-Go","Sham":0,"Color":"yellow","trial_type":"pit-trial","trial_index":243,"time_elapsed":1002324,"internal_node_id":"0.0-232.0","task_version":"test-retest-t2"},{"Rune":"rune_04_iwaz","Hex":"#ffcc3399","Correct":32,"Choice":32,"RT":567.0149999987334,"Accuracy":1,"Outcome":"+10","Keys":[2067.1949999995995],"TotalKeys":1,"Block":2,"Trial":225,"Robot":1,"Valence":"Win","Action":"Go","Sham":0,"Color":"yellow","trial_type":"pit-trial","trial_index":244,"time_elapsed":1005396,"internal_node_id":"0.0-233.0","task_version":"test-retest-t2"},{"Rune":"rune_04_dagaz","Hex":"#ffcc3399","Correct":-1,"Choice":-1,"RT":-1,"Accuracy":1,"Outcome":"+10","Keys":[],"TotalKeys":0,"Block":2,"Trial":226,"Robot":2,"Valence":"Win","Action":"No-Go","Sham":0,"Color":"yellow","trial_type":"pit-trial","trial_index":245,"time_elapsed":1009405,"internal_node_id":"0.0-234.0","task_version":"test-retest-t2"},{"Rune":"rune_04_ac","Hex":"#3366ff99","Correct":-1,"Choice":-1,"RT":-1,"Accuracy":1,"Outcome":"-1","Keys":[],"TotalKeys":0,"Block":2,"Trial":227,"Robot":4,"Valence":"Lose","Action":"No-Go","Sham":0,"Color":"blue","trial_type":"pit-trial","trial_index":246,"time_elapsed":1013416,"internal_node_id":"0.0-235.0","task_version":"test-retest-t2"},{"Rune":"rune_04_wunjo","Hex":"#3366ff99","Correct":32,"Choice":32,"RT":492.36000000021886,"Accuracy":1,"Outcome":"-1","Keys":[1992.7750000006054],"TotalKeys":1,"Block":2,"Trial":228,"Robot":3,"Valence":"Lose","Action":"Go","Sham":0,"Color":"blue","trial_type":"pit-trial","trial_index":247,"time_elapsed":1016412,"internal_node_id":"0.0-236.0","task_version":"test-retest-t2"},{"Rune":"rune_04_wunjo","Hex":"#3366ff99","Correct":32,"Choice":32,"RT":538.7150000005495,"Accuracy":1,"Outcome":"-1","Keys":[2039.3949999997858],"TotalKeys":1,"Block":2,"Trial":229,"Robot":3,"Valence":"Lose","Action":"Go","Sham":0,"Color":"blue","trial_type":"pit-trial","trial_index":248,"time_elapsed":1019459,"internal_node_id":"0.0-237.0","task_version":"test-retest-t2"},{"Rune":"rune_04_ac","Hex":"#3366ff99","Correct":-1,"Choice":-1,"RT":-1,"Accuracy":1,"Outcome":"-1","Keys":[],"TotalKeys":0,"Block":2,"Trial":230,"Robot":4,"Valence":"Lose","Action":"No-Go","Sham":0,"Color":"blue","trial_type":"pit-trial","trial_index":249,"time_elapsed":1023472,"internal_node_id":"0.0-238.0","task_version":"test-retest-t2"},{"Rune":"rune_04_iwaz","Hex":"#ffcc3399","Correct":32,"Choice":32,"RT":567.6500000009546,"Accuracy":1,"Outcome":"+10","Keys":[2068.250000000233],"TotalKeys":1,"Block":2,"Trial":231,"Robot":1,"Valence":"Win","Action":"Go","Sham":0,"Color":"yellow","trial_type":"pit-trial","trial_index":250,"time_elapsed":1026546,"internal_node_id":"0.0-239.0","task_version":"test-retest-t2"},{"Rune":"rune_04_dagaz","Hex":"#ffcc3399","Correct":-1,"Choice":-1,"RT":-1,"Accuracy":1,"Outcome":"+1","Keys":[],"TotalKeys":0,"Block":2,"Trial":232,"Robot":2,"Valence":"Win","Action":"No-Go","Sham":1,"Color":"yellow","trial_type":"pit-trial","trial_index":251,"time_elapsed":1030559,"internal_node_id":"0.0-240.0","task_version":"test-retest-t2"},{"Rune":"rune_04_dagaz","Hex":"#ffcc3399","Correct":-1,"Choice":-1,"RT":-1,"Accuracy":1,"Outcome":"+10","Keys":[],"TotalKeys":0,"Block":2,"Trial":233,"Robot":2,"Valence":"Win","Action":"No-Go","Sham":0,"Color":"yellow","trial_type":"pit-trial","trial_index":252,"time_elapsed":1034571,"internal_node_id":"0.0-241.0","task_version":"test-retest-t2"},{"Rune":"rune_04_iwaz","Hex":"#ffcc3399","Correct":32,"Choice":32,"RT":513.7349999987055,"Accuracy":1,"Outcome":"+10","Keys":[2016.1950000001816],"TotalKeys":1,"Block":2,"Trial":234,"Robot":1,"Valence":"Win","Action":"Go","Sham":0,"Color":"yellow","trial_type":"pit-trial","trial_index":253,"time_elapsed":1037591,"internal_node_id":"0.0-242.0","task_version":"test-retest-t2"},{"Rune":"rune_04_ac","Hex":"#3366ff99","Correct":-1,"Choice":-1,"RT":-1,"Accuracy":1,"Outcome":"-1","Keys":[],"TotalKeys":0,"Block":2,"Trial":235,"Robot":4,"Valence":"Lose","Action":"No-Go","Sham":0,"Color":"blue","trial_type":"pit-trial","trial_index":254,"time_elapsed":1041600,"internal_node_id":"0.0-243.0","task_version":"test-retest-t2"},{"Rune":"rune_04_wunjo","Hex":"#3366ff99","Correct":32,"Choice":32,"RT":636.0950000016019,"Accuracy":1,"Outcome":"-1","Keys":[2136.8700000003446],"TotalKeys":1,"Block":2,"Trial":236,"Robot":3,"Valence":"Lose","Action":"Go","Sham":0,"Color":"blue","trial_type":"pit-trial","trial_index":255,"time_elapsed":1044745,"internal_node_id":"0.0-244.0","task_version":"test-retest-t2"},{"Rune":"rune_04_iwaz","Hex":"#ffcc3399","Correct":32,"Choice":32,"RT":512.4149999992223,"Accuracy":1,"Outcome":"+10","Keys":[2013.2750000011874],"TotalKeys":1,"Block":2,"Trial":237,"Robot":1,"Valence":"Win","Action":"Go","Sham":0,"Color":"yellow","trial_type":"pit-trial","trial_index":256,"time_elapsed":1047765,"internal_node_id":"0.0-245.0","task_version":"test-retest-t2"},{"Rune":"rune_04_ac","Hex":"#3366ff99","Correct":-1,"Choice":-1,"RT":-1,"Accuracy":1,"Outcome":"-10","Keys":[],"TotalKeys":0,"Block":2,"Trial":238,"Robot":4,"Valence":"Lose","Action":"No-Go","Sham":1,"Color":"blue","trial_type":"pit-trial","trial_index":257,"time_elapsed":1051775,"internal_node_id":"0.0-246.0","task_version":"test-retest-t2"},{"Rune":"rune_04_wunjo","Hex":"#3366ff99","Correct":32,"Choice":32,"RT":586.5549999999348,"Accuracy":1,"Outcome":"-1","Keys":[2086.6650000007357],"TotalKeys":1,"Block":2,"Trial":239,"Robot":3,"Valence":"Lose","Action":"Go","Sham":0,"Color":"blue","trial_type":"pit-trial","trial_index":258,"time_elapsed":1054869,"internal_node_id":"0.0-247.0","task_version":"test-retest-t2"},{"Rune":"rune_04_dagaz","Hex":"#ffcc3399","Correct":-1,"Choice":-1,"RT":-1,"Accuracy":1,"Outcome":"+10","Keys":[],"TotalKeys":0,"Block":2,"Trial":240,"Robot":2,"Valence":"Win","Action":"No-Go","Sham":0,"Color":"yellow","trial_type":"pit-trial","trial_index":259,"time_elapsed":1058879,"internal_node_id":"0.0-248.0","task_version":"test-retest-t2"},{"view_history":"[{\"page_index\":0,\"viewing_time\":2836.220000001136}]","rt":2836.9450000009965,"trial_type":"pit-instructions","trial_index":260,"time_elapsed":1061718,"internal_node_id":"0.0-249.0","task_version":"test-retest-t2"},{"rt":43504.58000000054,"responses":{"difficulty":"4","fun":"3","clarity":"5","strategy":"I tried to remember in my head which ones not to accept.","feedback":""},"survey":"debrief","trial_type":"survey-debrief","trial_index":261,"time_elapsed":1105231,"internal_node_id":"0.0-250.0","task_version":"test-retest-t2"},{"rt":3413.4549999998417,"stimulus":"You earned a bonus of $1.32 out of $1.5.<br><br>Press any key to complete the experiment.","key_press":32,"trial_type":"html-keyboard-response","trial_index":262,"time_elapsed":1108651,"internal_node_id":"0.0-251.0","task_version":"test-retest-t2","accuracy":0.875,"bonus":1.32,"interactions":"[{\"event\":\"blur\",\"trial\":138,\"time\":570790},{\"event\":\"focus\",\"trial\":138,\"time\":586440},{\"event\":\"blur\",\"trial\":199,\"time\":798835},{\"event\":\"focus\",\"trial\":199,\"time\":843978}]"}]