[{"slider_type":"valence","raw_loc":639,"loc":0.778,"trial_type":"affective-slider","trial_index":0,"time_elapsed":6132,"internal_node_id":"0.0-0.0","task_version":"test-retest-t2"},{"responses":{"Q01":"0","Q08":"0","Q02":"0","Q07":"0","Q03":"0","Q04":"0","Q05":"0","Q06":"0"},"rt":20268.45499999945,"survey":"gad7","trial_type":"survey-template","trial_index":1,"time_elapsed":26405,"internal_node_id":"0.0-1.0","task_version":"test-retest-t2"},{"view_history":"[{\"page_index\":0,\"viewing_time\":3639.1499999999724},{\"page_index\":1,\"viewing_time\":5416.000000000167},{\"page_index\":2,\"viewing_time\":9680.049999999937},{\"page_index\":3,\"viewing_time\":7815.9850000001825},{\"page_index\":4,\"viewing_time\":3143.9599999994243}]","rt":29696.084999999584,"trial_type":"pit-instructions","trial_index":2,"time_elapsed":56107,"internal_node_id":"0.0-2.0-0.0","task_version":"test-retest-t2"},{"Rune":"rune_00_ingz","Hex":"#FFFFF080","Correct":32,"Choice":32,"RT":702.4950000004465,"Accuracy":1,"Outcome":"+10","Keys":[2202.8449999997974],"TotalKeys":1,"Block":0,"Action":"Go","trial_type":"pit-trial","trial_index":3,"time_elapsed":59314,"internal_node_id":"0.0-2.0-1.0-0.0","task_version":"test-retest-t2"},{"Rune":"rune_00_ingz","Hex":"#FFFFF080","Correct":32,"Choice":-1,"RT":-1,"Accuracy":0,"Outcome":"+0","Keys":[3082.570000000487],"TotalKeys":1,"Block":0,"Action":"Go","trial_type":"pit-trial","trial_index":4,"time_elapsed":63318,"internal_node_id":"0.0-2.0-1.0-0.1","task_version":"test-retest-t2"},{"Rune":"rune_00_ingz","Hex":"#FFFFF080","Correct":32,"Choice":32,"RT":490.11500000051456,"Accuracy":1,"Outcome":"+10","Keys":[1990.675000000003],"TotalKeys":1,"Block":0,"Action":"Go","trial_type":"pit-trial","trial_index":5,"time_elapsed":66312,"internal_node_id":"0.0-2.0-1.0-0.2","task_version":"test-retest-t2"},{"Rune":"rune_00_ingz","Hex":"#FFFFF080","Correct":32,"Choice":32,"RT":1141.7450000008103,"Accuracy":1,"Outcome":"+10","Keys":[2643.444999999687],"TotalKeys":1,"Block":0,"Action":"Go","trial_type":"pit-trial","trial_index":6,"time_elapsed":69960,"internal_node_id":"0.0-2.0-1.0-0.3","task_version":"test-retest-t2"},{"view_history":"[{\"page_index\":0,\"viewing_time\":6689.049999999959}]","rt":6689.510000000155,"trial_type":"pit-instructions","trial_index":7,"time_elapsed":76650,"internal_node_id":"0.0-2.0-2.0","task_version":"test-retest-t2"},{"Rune":"rune_00_isaz","Hex":"#FFFFF080","Correct":-1,"Choice":-1,"RT":-1,"Accuracy":1,"Outcome":"+10","Keys":[],"TotalKeys":0,"Block":0,"Action":"No-Go","trial_type":"pit-trial","trial_index":8,"time_elapsed":80655,"internal_node_id":"0.0-2.0-3.0-0.0","task_version":"test-retest-t2"},{"Rune":"rune_00_isaz","Hex":"#FFFFF080","Correct":-1,"Choice":-1,"RT":-1,"Accuracy":1,"Outcome":"+10","Keys":[],"TotalKeys":0,"Block":0,"Action":"No-Go","trial_type":"pit-trial","trial_index":9,"time_elapsed":84660,"internal_node_id":"0.0-2.0-3.0-0.1","task_version":"test-retest-t2"},{"Rune":"rune_00_isaz","Hex":"#FFFFF080","Correct":-1,"Choice":-1,"RT":-1,"Accuracy":1,"Outcome":"+10","Keys":[],"TotalKeys":0,"Block":0,"Action":"No-Go","trial_type":"pit-trial","trial_index":10,"time_elapsed":88666,"internal_node_id":"0.0-2.0-3.0-0.2","task_version":"test-retest-t2"},{"Rune":"rune_00_isaz","Hex":"#FFFFF080","Correct":-1,"Choice":-1,"RT":-1,"Accuracy":1,"Outcome":"+10","Keys":[],"TotalKeys":0,"Block":0,"Action":"No-Go","trial_type":"pit-trial","trial_index":11,"time_elapsed":92670,"internal_node_id":"0.0-2.0-3.0-0.3","task_version":"test-retest-t2"},{"view_history":"[{\"page_index\":0,\"viewing_time\":7123.290000000459},{\"page_index\":1,\"viewing_time\":14367.734999999811},{\"page_index\":2,\"viewing_time\":6655.9849999994185},{\"page_index\":3,\"viewing_time\":6287.915000000794},{\"page_index\":4,\"viewing_time\":6496.169999999431},{\"page_index\":5,\"viewing_time\":6088.370000000403},{\"page_index\":6,\"viewing_time\":4023.4899999995832},{\"page_index\":7,\"viewing_time\":3152.0250000003143}]","rt":54195.415000000154,"trial_type":"pit-instructions","trial_index":12,"time_elapsed":146866,"internal_node_id":"0.0-2.0-4.0","task_version":"test-retest-t2"},{"responses":["Do nothing","+10","-1","True","Yes"],"num_errors":0,"rt":18574.38999999978,"trial_type":"pit-comprehension","trial_index":13,"time_elapsed":165445,"internal_node_id":"0.0-2.0-5.0","task_version":"test-retest-t2"},{"trial_type":"call-function","trial_index":14,"time_elapsed":165449,"internal_node_id":"0.0-3.0","task_version":"test-retest-t2"},{"view_history":"[{\"page_index\":0,\"viewing_time\":2264.5249999995867},{\"page_index\":1,\"viewing_time\":2799.9799999997776},{\"page_index\":2,\"viewing_time\":4551.985000000073}]","rt":9616.934999999998,"trial_type":"pit-instructions","trial_index":15,"time_elapsed":175067,"internal_node_id":"0.0-4.0","task_version":"test-retest-t2"},{"Rune":"rune_04_ac","Hex":"#3366ff99","Correct":32,"Choice":32,"RT":905.9549999992887,"Accuracy":1,"Outcome":"+10","Keys":[2407.4700000001176],"TotalKeys":1,"Block":1,"Trial":1,"Robot":1,"Valence":"Win","Action":"Go","Sham":0,"Color":"blue","trial_type":"pit-trial","trial_index":16,"time_elapsed":178480,"internal_node_id":"0.0-5.0","task_version":"test-retest-t2"},{"Rune":"rune_04_wunjo","Hex":"#ffcc3399","Correct":-1,"Choice":-1,"RT":-1,"Accuracy":1,"Outcome":"-1","Keys":[],"TotalKeys":0,"Block":1,"Trial":2,"Robot":4,"Valence":"Lose","Action":"No-Go","Sham":0,"Color":"yellow","trial_type":"pit-trial","trial_index":17,"time_elapsed":182485,"internal_node_id":"0.0-6.0","task_version":"test-retest-t2"},{"Rune":"rune_04_dagaz","Hex":"#3366ff99","Correct":-1,"Choice":32,"RT":980.054999999993,"Accuracy":0,"Outcome":"+1","Keys":[2480.144999999553],"TotalKeys":1,"Block":1,"Trial":3,"Robot":2,"Valence":"Win","Action":"No-Go","Sham":0,"Color":"blue","trial_type":"pit-trial","trial_index":18,"time_elapsed":185969,"internal_node_id":"0.0-7.0","task_version":"test-retest-t2"},{"Rune":"rune_04_iwaz","Hex":"#ffcc3399","Correct":32,"Choice":-1,"RT":-1,"Accuracy":0,"Outcome":"-1","Keys":[],"TotalKeys":0,"Block":1,"Trial":4,"Robot":3,"Valence":"Lose","Action":"Go","Sham":1,"Color":"yellow","trial_type":"pit-trial","trial_index":19,"time_elapsed":189973,"internal_node_id":"0.0-8.0","task_version":"test-retest-t2"},{"Rune":"rune_04_dagaz","Hex":"#3366ff99","Correct":-1,"Choice":32,"RT":635.6849999992701,"Accuracy":0,"Outcome":"+1","Keys":[2136.0050000002957],"TotalKeys":1,"Block":1,"Trial":5,"Robot":2,"Valence":"Win","Action":"No-Go","Sham":0,"Color":"blue","trial_type":"pit-trial","trial_index":20,"time_elapsed":193111,"internal_node_id":"0.0-9.0","task_version":"test-retest-t2"},{"Rune":"rune_04_ac","Hex":"#3366ff99","Correct":32,"Choice":32,"RT":1026.4049999996205,"Accuracy":1,"Outcome":"+1","Keys":[2526.444999999512],"TotalKeys":1,"Block":1,"Trial":6,"Robot":1,"Valence":"Win","Action":"Go","Sham":1,"Color":"blue","trial_type":"pit-trial","trial_index":21,"time_elapsed":196641,"internal_node_id":"0.0-10.0","task_version":"test-retest-t2"},{"Rune":"rune_04_iwaz","Hex":"#ffcc3399","Correct":32,"Choice":-1,"RT":-1,"Accuracy":0,"Outcome":"-10","Keys":[],"TotalKeys":0,"Block":1,"Trial":7,"Robot":3,"Valence":"Lose","Action":"Go","Sham":0,"Color":"yellow","trial_type":"pit-trial","trial_index":22,"time_elapsed":200647,"internal_node_id":"0.0-11.0","task_version":"test-retest-t2"},{"Rune":"rune_04_wunjo","Hex":"#ffcc3399","Correct":-1,"Choice":32,"RT":960.8500000004133,"Accuracy":0,"Outcome":"-10","Keys":[2462.0850000001083],"TotalKeys":1,"Block":1,"Trial":8,"Robot":4,"Valence":"Lose","Action":"No-Go","Sham":0,"Color":"yellow","trial_type":"pit-trial","trial_index":23,"time_elapsed":204113,"internal_node_id":"0.0-12.0","task_version":"test-retest-t2"},{"Rune":"rune_04_iwaz","Hex":"#ffcc3399","Correct":32,"Choice":-1,"RT":-1,"Accuracy":0,"Outcome":"-10","Keys":[],"TotalKeys":0,"Block":1,"Trial":9,"Robot":3,"Valence":"Lose","Action":"Go","Sham":0,"Color":"yellow","trial_type":"pit-trial","trial_index":24,"time_elapsed":208116,"internal_node_id":"0.0-13.0","task_version":"test-retest-t2"},{"Rune":"rune_04_wunjo","Hex":"#ffcc3399","Correct":-1,"Choice":32,"RT":635.7799999996205,"Accuracy":0,"Outcome":"-1","Keys":[2137.004999999568],"TotalKeys":1,"Block":1,"Trial":10,"Robot":4,"Valence":"Lose","Action":"No-Go","Sham":1,"Color":"yellow","trial_type":"pit-trial","trial_index":25,"time_elapsed":211257,"internal_node_id":"0.0-14.0","task_version":"test-retest-t2"},{"Rune":"rune_04_ac","Hex":"#3366ff99","Correct":32,"Choice":32,"RT":470.76499999911175,"Accuracy":1,"Outcome":"+10","Keys":[1971.9450000002107],"TotalKeys":1,"Block":1,"Trial":11,"Robot":1,"Valence":"Win","Action":"Go","Sham":0,"Color":"blue","trial_type":"pit-trial","trial_index":26,"time_elapsed":214231,"internal_node_id":"0.0-15.0","task_version":"test-retest-t2"},{"Rune":"rune_04_dagaz","Hex":"#3366ff99","Correct":-1,"Choice":32,"RT":608.8600000002771,"Accuracy":0,"Outcome":"+1","Keys":[2110.024999999936],"TotalKeys":1,"Block":1,"Trial":12,"Robot":2,"Valence":"Win","Action":"No-Go","Sham":0,"Color":"blue","trial_type":"pit-trial","trial_index":27,"time_elapsed":217344,"internal_node_id":"0.0-16.0","task_version":"test-retest-t2"},{"Rune":"rune_04_ac","Hex":"#3366ff99","Correct":32,"Choice":32,"RT":591.8400000000256,"Accuracy":1,"Outcome":"+10","Keys":[2092.5050000005285],"TotalKeys":1,"Block":1,"Trial":13,"Robot":1,"Valence":"Win","Action":"Go","Sham":0,"Color":"blue","trial_type":"pit-trial","trial_index":28,"time_elapsed":220440,"internal_node_id":"0.0-17.0","task_version":"test-retest-t2"},{"Rune":"rune_04_iwaz","Hex":"#ffcc3399","Correct":32,"Choice":-1,"RT":-1,"Accuracy":0,"Outcome":"-10","Keys":[],"TotalKeys":0,"Block":1,"Trial":14,"Robot":3,"Valence":"Lose","Action":"Go","Sham":0,"Color":"yellow","trial_type":"pit-trial","trial_index":29,"time_elapsed":224443,"internal_node_id":"0.0-18.0","task_version":"test-retest-t2"},{"Rune":"rune_04_wunjo","Hex":"#ffcc3399","Correct":-1,"Choice":32,"RT":1068.6249999998836,"Accuracy":0,"Outcome":"-10","Keys":[2569.95000000007],"TotalKeys":1,"Block":1,"Trial":15,"Robot":4,"Valence":"Lose","Action":"No-Go","Sham":0,"Color":"yellow","trial_type":"pit-trial","trial_index":30,"time_elapsed":228016,"internal_node_id":"0.0-19.0","task_version":"test-retest-t2"},{"Rune":"rune_04_dagaz","Hex":"#3366ff99","Correct":-1,"Choice":32,"RT":529.4249999996973,"Accuracy":0,"Outcome":"+1","Keys":[2029.4899999999034],"TotalKeys":1,"Block":1,"Trial":16,"Robot":2,"Valence":"Win","Action":"No-Go","Sham":0,"Color":"blue","trial_type":"pit-trial","trial_index":31,"time_elapsed":231048,"internal_node_id":"0.0-20.0","task_version":"test-retest-t2"},{"Rune":"rune_04_ac","Hex":"#3366ff99","Correct":32,"Choice":32,"RT":576.4749999998603,"Accuracy":1,"Outcome":"+10","Keys":[2077.7199999993027],"TotalKeys":1,"Block":1,"Trial":17,"Robot":1,"Valence":"Win","Action":"Go","Sham":0,"Color":"blue","trial_type":"pit-trial","trial_index":32,"time_elapsed":234129,"internal_node_id":"0.0-21.0","task_version":"test-retest-t2"},{"Rune":"rune_04_wunjo","Hex":"#ffcc3399","Correct":-1,"Choice":-1,"RT":-1,"Accuracy":1,"Outcome":"-1","Keys":[],"TotalKeys":0,"Block":1,"Trial":18,"Robot":4,"Valence":"Lose","Action":"No-Go","Sham":0,"Color":"yellow","trial_type":"pit-trial","trial_index":33,"time_elapsed":238132,"internal_node_id":"0.0-22.0","task_version":"test-retest-t2"},{"Rune":"rune_04_iwaz","Hex":"#ffcc3399","Correct":32,"Choice":-1,"RT":-1,"Accuracy":0,"Outcome":"-10","Keys":[],"TotalKeys":0,"Block":1,"Trial":19,"Robot":3,"Valence":"Lose","Action":"Go","Sham":0,"Color":"yellow","trial_type":"pit-trial","trial_index":34,"time_elapsed":242135,"internal_node_id":"0.0-23.0","task_version":"test-retest-t2"},{"Rune":"rune_04_dagaz","Hex":"#3366ff99","Correct":-1,"Choice":32,"RT":641.7100000007777,"Accuracy":0,"Outcome":"+10","Keys":[2142.8749999995343],"TotalKeys":1,"Block":1,"Trial":20,"Robot":2,"Valence":"Win","Action":"No-Go","Sham":1,"Color":"blue","trial_type":"pit-trial","trial_index":35,"time_elapsed":245280,"internal_node_id":"0.0-24.0","task_version":"test-retest-t2"},{"Rune":"rune_04_ac","Hex":"#3366ff99","Correct":32,"Choice":32,"RT":512.2049999999872,"Accuracy":1,"Outcome":"+10","Keys":[2013.2700000003679],"TotalKeys":1,"Block":1,"Trial":21,"Robot":1,"Valence":"Win","Action":"Go","Sham":0,"Color":"blue","trial_type":"pit-trial","trial_index":36,"time_elapsed":248296,"internal_node_id":"0.0-25.0","task_version":"test-retest-t2"},{"Rune":"rune_04_wunjo","Hex":"#ffcc3399","Correct":-1,"Choice":-1,"RT":-1,"Accuracy":1,"Outcome":"-1","Keys":[],"TotalKeys":0,"Block":1,"Trial":22,"Robot":4,"Valence":"Lose","Action":"No-Go","Sham":0,"Color":"yellow","trial_type":"pit-trial","trial_index":37,"time_elapsed":252300,"internal_node_id":"0.0-26.0","task_version":"test-retest-t2"},{"Rune":"rune_04_dagaz","Hex":"#3366ff99","Correct":-1,"Choice":32,"RT":429.7249999999185,"Accuracy":0,"Outcome":"+10","Keys":[1929.8949999993201],"TotalKeys":1,"Block":1,"Trial":23,"Robot":2,"Valence":"Win","Action":"No-Go","Sham":1,"Color":"blue","trial_type":"pit-trial","trial_index":38,"time_elapsed":255232,"internal_node_id":"0.0-27.0","task_version":"test-retest-t2"},{"Rune":"rune_04_iwaz","Hex":"#ffcc3399","Correct":32,"Choice":32,"RT":785.0300000000279,"Accuracy":1,"Outcome":"-10","Keys":[2286.2249999998603],"TotalKeys":1,"Block":1,"Trial":24,"Robot":3,"Valence":"Lose","Action":"Go","Sham":1,"Color":"yellow","trial_type":"pit-trial","trial_index":39,"time_elapsed":258521,"internal_node_id":"0.0-28.0","task_version":"test-retest-t2"},{"Rune":"rune_04_ac","Hex":"#3366ff99","Correct":32,"Choice":32,"RT":567.8299999999581,"Accuracy":1,"Outcome":"+10","Keys":[2068.905000000086],"TotalKeys":1,"Block":1,"Trial":25,"Robot":1,"Valence":"Win","Action":"Go","Sham":0,"Color":"blue","trial_type":"pit-trial","trial_index":40,"time_elapsed":261593,"internal_node_id":"0.0-29.0","task_version":"test-retest-t2"},{"Rune":"rune_04_wunjo","Hex":"#ffcc3399","Correct":-1,"Choice":-1,"RT":-1,"Accuracy":1,"Outcome":"-1","Keys":[],"TotalKeys":0,"Block":1,"Trial":26,"Robot":4,"Valence":"Lose","Action":"No-Go","Sham":0,"Color":"yellow","trial_type":"pit-trial","trial_index":41,"time_elapsed":265597,"internal_node_id":"0.0-30.0","task_version":"test-retest-t2"},{"Rune":"rune_04_iwaz","Hex":"#ffcc3399","Correct":32,"Choice":-1,"RT":-1,"Accuracy":0,"Outcome":"-10","Keys":[],"TotalKeys":0,"Block":1,"Trial":27,"Robot":3,"Valence":"Lose","Action":"Go","Sham":0,"Color":"yellow","trial_type":"pit-trial","trial_index":42,"time_elapsed":269602,"internal_node_id":"0.0-31.0","task_version":"test-retest-t2"},{"Rune":"rune_04_dagaz","Hex":"#3366ff99","Correct":-1,"Choice":32,"RT":455.4399999997695,"Accuracy":0,"Outcome":"+1","Keys":[1956.4899999995832],"TotalKeys":1,"Block":1,"Trial":28,"Robot":2,"Valence":"Win","Action":"No-Go","Sham":0,"Color":"blue","trial_type":"pit-trial","trial_index":43,"time_elapsed":272562,"internal_node_id":"0.0-32.0","task_version":"test-retest-t2"},{"Rune":"rune_04_dagaz","Hex":"#3366ff99","Correct":-1,"Choice":32,"RT":494.82999999960884,"Accuracy":0,"Outcome":"+1","Keys":[1995.7549999999464],"TotalKeys":1,"Block":1,"Trial":29,"Robot":2,"Valence":"Win","Action":"No-Go","Sham":0,"Color":"blue","trial_type":"pit-trial","trial_index":44,"time_elapsed":275561,"internal_node_id":"0.0-33.0","task_version":"test-retest-t2"},{"Rune":"rune_04_ac","Hex":"#3366ff99","Correct":32,"Choice":32,"RT":551.8250000004773,"Accuracy":1,"Outcome":"+10","Keys":[2052.045000000391],"TotalKeys":1,"Block":1,"Trial":30,"Robot":1,"Valence":"Win","Action":"Go","Sham":0,"Color":"blue","trial_type":"pit-trial","trial_index":45,"time_elapsed":278618,"internal_node_id":"0.0-34.0","task_version":"test-retest-t2"},{"Rune":"rune_04_iwaz","Hex":"#ffcc3399","Correct":32,"Choice":-1,"RT":-1,"Accuracy":0,"Outcome":"-10","Keys":[],"TotalKeys":0,"Block":1,"Trial":31,"Robot":3,"Valence":"Lose","Action":"Go","Sham":0,"Color":"yellow","trial_type":"pit-trial","trial_index":46,"time_elapsed":282622,"internal_node_id":"0.0-35.0","task_version":"test-retest-t2"},{"Rune":"rune_04_wunjo","Hex":"#ffcc3399","Correct":-1,"Choice":-1,"RT":-1,"Accuracy":1,"Outcome":"-1","Keys":[],"TotalKeys":0,"Block":1,"Trial":32,"Robot":4,"Valence":"Lose","Action":"No-Go","Sham":0,"Color":"yellow","trial_type":"pit-trial","trial_index":47,"time_elapsed":286626,"internal_node_id":"0.0-36.0","task_version":"test-retest-t2"},{"Rune":"rune_04_iwaz","Hex":"#ffcc3399","Correct":32,"Choice":-1,"RT":-1,"Accuracy":0,"Outcome":"-10","Keys":[],"TotalKeys":0,"Block":1,"Trial":33,"Robot":3,"Valence":"Lose","Action":"Go","Sham":0,"Color":"yellow","trial_type":"pit-trial","trial_index":48,"time_elapsed":290630,"internal_node_id":"0.0-37.0","task_version":"test-retest-t2"},{"Rune":"rune_04_wunjo","Hex":"#ffcc3399","Correct":-1,"Choice":-1,"RT":-1,"Accuracy":1,"Outcome":"-1","Keys":[],"TotalKeys":0,"Block":1,"Trial":34,"Robot":4,"Valence":"Lose","Action":"No-Go","Sham":0,"Color":"yellow","trial_type":"pit-trial","trial_index":49,"time_elapsed":294635,"internal_node_id":"0.0-38.0","task_version":"test-retest-t2"},{"Rune":"rune_04_dagaz","Hex":"#3366ff99","Correct":-1,"Choice":32,"RT":662.3450000006706,"Accuracy":0,"Outcome":"+1","Keys":[2162.589999999909],"TotalKeys":1,"Block":1,"Trial":35,"Robot":2,"Valence":"Win","Action":"No-Go","Sham":0,"Color":"blue","trial_type":"pit-trial","trial_index":50,"time_elapsed":297800,"internal_node_id":"0.0-39.0","task_version":"test-retest-t2"},{"Rune":"rune_04_ac","Hex":"#3366ff99","Correct":32,"Choice":32,"RT":536.2400000003981,"Accuracy":1,"Outcome":"+1","Keys":[2037.4099999999162],"TotalKeys":1,"Block":1,"Trial":36,"Robot":1,"Valence":"Win","Action":"Go","Sham":1,"Color":"blue","trial_type":"pit-trial","trial_index":51,"time_elapsed":300841,"internal_node_id":"0.0-40.0","task_version":"test-retest-t2"},{"Rune":"rune_04_wunjo","Hex":"#ffcc3399","Correct":-1,"Choice":-1,"RT":-1,"Accuracy":1,"Outcome":"-10","Keys":[],"TotalKeys":0,"Block":1,"Trial":37,"Robot":4,"Valence":"Lose","Action":"No-Go","Sham":1,"Color":"yellow","trial_type":"pit-trial","trial_index":52,"time_elapsed":304846,"internal_node_id":"0.0-41.0","task_version":"test-retest-t2"},{"Rune":"rune_04_ac","Hex":"#3366ff99","Correct":32,"Choice":32,"RT":338.1600000002654,"Accuracy":1,"Outcome":"+10","Keys":[1839.4850000004517],"TotalKeys":1,"Block":1,"Trial":38,"Robot":1,"Valence":"Win","Action":"Go","Sham":0,"Color":"blue","trial_type":"pit-trial","trial_index":53,"time_elapsed":307689,"internal_node_id":"0.0-42.0","task_version":"test-retest-t2"},{"Rune":"rune_04_dagaz","Hex":"#3366ff99","Correct":-1,"Choice":32,"RT":446.83999999961816,"Accuracy":0,"Outcome":"+1","Keys":[1948.6600000000326],"TotalKeys":1,"Block":1,"Trial":39,"Robot":2,"Valence":"Win","Action":"No-Go","Sham":0,"Color":"blue","trial_type":"pit-trial","trial_index":54,"time_elapsed":310641,"internal_node_id":"0.0-43.0","task_version":"test-retest-t2"},{"Rune":"rune_04_iwaz","Hex":"#ffcc3399","Correct":32,"Choice":-1,"RT":-1,"Accuracy":0,"Outcome":"-10","Keys":[],"TotalKeys":0,"Block":1,"Trial":40,"Robot":3,"Valence":"Lose","Action":"Go","Sham":0,"Color":"yellow","trial_type":"pit-trial","trial_index":55,"time_elapsed":314645,"internal_node_id":"0.0-44.0","task_version":"test-retest-t2"},{"Rune":"rune_04_wunjo","Hex":"#ffcc3399","Correct":-1,"Choice":-1,"RT":-1,"Accuracy":1,"Outcome":"-1","Keys":[],"TotalKeys":0,"Block":1,"Trial":41,"Robot":4,"Valence":"Lose","Action":"No-Go","Sham":0,"Color":"yellow","trial_type":"pit-trial","trial_index":56,"time_elapsed":318650,"internal_node_id":"0.0-45.0","task_version":"test-retest-t2"},{"Rune":"rune_04_ac","Hex":"#3366ff99","Correct":32,"Choice":32,"RT":525.9649999997928,"Accuracy":1,"Outcome":"+1","Keys":[2027.914999999688],"TotalKeys":1,"Block":1,"Trial":42,"Robot":1,"Valence":"Win","Action":"Go","Sham":1,"Color":"blue","trial_type":"pit-trial","trial_index":57,"time_elapsed":321681,"internal_node_id":"0.0-46.0","task_version":"test-retest-t2"},{"Rune":"rune_04_dagaz","Hex":"#3366ff99","Correct":-1,"Choice":32,"RT":527.6349999994854,"Accuracy":0,"Outcome":"+1","Keys":[2028.6550000000861],"TotalKeys":1,"Block":1,"Trial":43,"Robot":2,"Valence":"Win","Action":"No-Go","Sham":0,"Color":"blue","trial_type":"pit-trial","trial_index":58,"time_elapsed":324713,"internal_node_id":"0.0-47.0","task_version":"test-retest-t2"},{"Rune":"rune_04_iwaz","Hex":"#ffcc3399","Correct":32,"Choice":-1,"RT":-1,"Accuracy":0,"Outcome":"-10","Keys":[],"TotalKeys":0,"Block":1,"Trial":44,"Robot":3,"Valence":"Lose","Action":"Go","Sham":0,"Color":"yellow","trial_type":"pit-trial","trial_index":59,"time_elapsed":328718,"internal_node_id":"0.0-48.0","task_version":"test-retest-t2"},{"Rune":"rune_04_ac","Hex":"#3366ff99","Correct":32,"Choice":32,"RT":626.560000000638,"Accuracy":1,"Outcome":"+10","Keys":[2127.8099999999395],"TotalKeys":1,"Block":1,"Trial":45,"Robot":1,"Valence":"Win","Action":"Go","Sham":0,"Color":"blue","trial_type":"pit-trial","trial_index":60,"time_elapsed":331848,"internal_node_id":"0.0-49.0","task_version":"test-retest-t2"},{"Rune":"rune_04_dagaz","Hex":"#3366ff99","Correct":-1,"Choice":32,"RT":633.640000000014,"Accuracy":0,"Outcome":"+1","Keys":[2133.8050000004005],"TotalKeys":1,"Block":1,"Trial":46,"Robot":2,"Valence":"Win","Action":"No-Go","Sham":0,"Color":"blue","trial_type":"pit-trial","trial_index":61,"time_elapsed":334985,"internal_node_id":"0.0-50.0","task_version":"test-retest-t2"},{"Rune":"rune_04_iwaz","Hex":"#ffcc3399","Correct":32,"Choice":-1,"RT":-1,"Accuracy":0,"Outcome":"-10","Keys":[],"TotalKeys":0,"Block":1,"Trial":47,"Robot":3,"Valence":"Lose","Action":"Go","Sham":0,"Color":"yellow","trial_type":"pit-trial","trial_index":62,"time_elapsed":338989,"internal_node_id":"0.0-51.0","task_version":"test-retest-t2"},{"Rune":"rune_04_wunjo","Hex":"#ffcc3399","Correct":-1,"Choice":-1,"RT":-1,"Accuracy":1,"Outcome":"-10","Keys":[],"TotalKeys":0,"Block":1,"Trial":48,"Robot":4,"Valence":"Lose","Action":"No-Go","Sham":1,"Color":"yellow","trial_type":"pit-trial","trial_index":63,"time_elapsed":342995,"internal_node_id":"0.0-52.0","task_version":"test-retest-t2"},{"Rune":"rune_04_wunjo","Hex":"#ffcc3399","Correct":-1,"Choice":-1,"RT":-1,"Accuracy":1,"Outcome":"-1","Keys":[],"TotalKeys":0,"Block":1,"Trial":49,"Robot":4,"Valence":"Lose","Action":"No-Go","Sham":0,"Color":"yellow","trial_type":"pit-trial","trial_index":64,"time_elapsed":346999,"internal_node_id":"0.0-53.0","task_version":"test-retest-t2"},{"Rune":"rune_04_iwaz","Hex":"#ffcc3399","Correct":32,"Choice":-1,"RT":-1,"Accuracy":0,"Outcome":"-10","Keys":[],"TotalKeys":0,"Block":1,"Trial":50,"Robot":3,"Valence":"Lose","Action":"Go","Sham":0,"Color":"yellow","trial_type":"pit-trial","trial_index":65,"time_elapsed":351005,"internal_node_id":"0.0-54.0","task_version":"test-retest-t2"},{"Rune":"rune_04_dagaz","Hex":"#3366ff99","Correct":-1,"Choice":32,"RT":547.3750000001164,"Accuracy":0,"Outcome":"+1","Keys":[2047.6050000006217],"TotalKeys":1,"Block":1,"Trial":51,"Robot":2,"Valence":"Win","Action":"No-Go","Sham":0,"Color":"blue","trial_type":"pit-trial","trial_index":66,"time_elapsed":354056,"internal_node_id":"0.0-55.0","task_version":"test-retest-t2"},{"Rune":"rune_04_ac","Hex":"#3366ff99","Correct":32,"Choice":32,"RT":639.2900000000373,"Accuracy":1,"Outcome":"+10","Keys":[2141.139999999723],"TotalKeys":1,"Block":1,"Trial":52,"Robot":1,"Valence":"Win","Action":"Go","Sham":0,"Color":"blue","trial_type":"pit-trial","trial_index":67,"time_elapsed":357200,"internal_node_id":"0.0-56.0","task_version":"test-retest-t2"},{"Rune":"rune_04_wunjo","Hex":"#ffcc3399","Correct":-1,"Choice":-1,"RT":-1,"Accuracy":1,"Outcome":"-1","Keys":[],"TotalKeys":0,"Block":1,"Trial":53,"Robot":4,"Valence":"Lose","Action":"No-Go","Sham":0,"Color":"yellow","trial_type":"pit-trial","trial_index":68,"time_elapsed":361205,"internal_node_id":"0.0-57.0","task_version":"test-retest-t2"},{"Rune":"rune_04_iwaz","Hex":"#ffcc3399","Correct":32,"Choice":-1,"RT":-1,"Accuracy":0,"Outcome":"-10","Keys":[],"TotalKeys":0,"Block":1,"Trial":54,"Robot":3,"Valence":"Lose","Action":"Go","Sham":0,"Color":"yellow","trial_type":"pit-trial","trial_index":69,"time_elapsed":365210,"internal_node_id":"0.0-58.0","task_version":"test-retest-t2"},{"Rune":"rune_04_ac","Hex":"#3366ff99","Correct":32,"Choice":32,"RT":532.455000000482,"Accuracy":1,"Outcome":"+10","Keys":[2033.1900000001187],"TotalKeys":1,"Block":1,"Trial":55,"Robot":1,"Valence":"Win","Action":"Go","Sham":0,"Color":"blue","trial_type":"pit-trial","trial_index":70,"time_elapsed":368248,"internal_node_id":"0.0-59.0","task_version":"test-retest-t2"},{"Rune":"rune_04_dagaz","Hex":"#3366ff99","Correct":-1,"Choice":32,"RT":480.12000000016997,"Accuracy":0,"Outcome":"+10","Keys":[1981.3150000000023],"TotalKeys":1,"Block":1,"Trial":56,"Robot":2,"Valence":"Win","Action":"No-Go","Sham":1,"Color":"blue","trial_type":"pit-trial","trial_index":71,"time_elapsed":371233,"internal_node_id":"0.0-60.0","task_version":"test-retest-t2"},{"Rune":"rune_04_ac","Hex":"#3366ff99","Correct":32,"Choice":32,"RT":583.7999999994645,"Accuracy":1,"Outcome":"+10","Keys":[2083.9999999998254],"TotalKeys":1,"Block":1,"Trial":57,"Robot":1,"Valence":"Win","Action":"Go","Sham":0,"Color":"blue","trial_type":"pit-trial","trial_index":72,"time_elapsed":374319,"internal_node_id":"0.0-61.0","task_version":"test-retest-t2"},{"Rune":"rune_04_iwaz","Hex":"#ffcc3399","Correct":32,"Choice":-1,"RT":-1,"Accuracy":0,"Outcome":"-1","Keys":[],"TotalKeys":0,"Block":1,"Trial":58,"Robot":3,"Valence":"Lose","Action":"Go","Sham":1,"Color":"yellow","trial_type":"pit-trial","trial_index":73,"time_elapsed":378324,"internal_node_id":"0.0-62.0","task_version":"test-retest-t2"},{"Rune":"rune_04_dagaz","Hex":"#3366ff99","Correct":-1,"Choice":32,"RT":580.6449999999604,"Accuracy":0,"Outcome":"+1","Keys":[2081.6299999996554],"TotalKeys":1,"Block":1,"Trial":59,"Robot":2,"Valence":"Win","Action":"No-Go","Sham":0,"Color":"blue","trial_type":"pit-trial","trial_index":74,"time_elapsed":381408,"internal_node_id":"0.0-63.0","task_version":"test-retest-t2"},{"Rune":"rune_04_wunjo","Hex":"#ffcc3399","Correct":-1,"Choice":-1,"RT":-1,"Accuracy":1,"Outcome":"-1","Keys":[],"TotalKeys":0,"Block":1,"Trial":60,"Robot":4,"Valence":"Lose","Action":"No-Go","Sham":0,"Color":"yellow","trial_type":"pit-trial","trial_index":75,"time_elapsed":385415,"internal_node_id":"0.0-64.0","task_version":"test-retest-t2"},{"value":false,"trial_type":"call-function","trial_index":76,"time_elapsed":385417,"internal_node_id":"0.0-65.0","task_version":"test-retest-t2"},{"view_history":"[{\"page_index\":0,\"viewing_time\":70672.8549999998},{\"page_index\":1,\"viewing_time\":2703.8549999997485}]","rt":73377.17499999964,"trial_type":"pit-instructions","trial_index":77,"time_elapsed":458796,"internal_node_id":"0.0-66.0","task_version":"test-retest-t2"},{"Rune":"rune_04_iwaz","Hex":"#ffcc3399","Correct":32,"Choice":-1,"RT":-1,"Accuracy":0,"Outcome":"-10","Keys":[],"TotalKeys":0,"Block":1,"Trial":61,"Robot":3,"Valence":"Lose","Action":"Go","Sham":0,"Color":"yellow","trial_type":"pit-trial","trial_index":78,"time_elapsed":462802,"internal_node_id":"0.0-67.0","task_version":"test-retest-t2"},{"Rune":"rune_04_ac","Hex":"#3366ff99","Correct":32,"Choice":32,"RT":527.6399999993737,"Accuracy":1,"Outcome":"+10","Keys":[2027.865000000049],"TotalKeys":1,"Block":1,"Trial":62,"Robot":1,"Valence":"Win","Action":"Go","Sham":0,"Color":"blue","trial_type":"pit-trial","trial_index":79,"time_elapsed":465832,"internal_node_id":"0.0-68.0","task_version":"test-retest-t2"},{"Rune":"rune_04_wunjo","Hex":"#ffcc3399","Correct":-1,"Choice":-1,"RT":-1,"Accuracy":1,"Outcome":"-10","Keys":[],"TotalKeys":0,"Block":1,"Trial":63,"Robot":4,"Valence":"Lose","Action":"No-Go","Sham":1,"Color":"yellow","trial_type":"pit-trial","trial_index":80,"time_elapsed":469836,"internal_node_id":"0.0-69.0","task_version":"test-retest-t2"},{"Rune":"rune_04_dagaz","Hex":"#3366ff99","Correct":-1,"Choice":32,"RT":468.5699999999488,"Accuracy":0,"Outcome":"+1","Keys":[1969.8350000007777],"TotalKeys":1,"Block":1,"Trial":64,"Robot":2,"Valence":"Win","Action":"No-Go","Sham":0,"Color":"blue","trial_type":"pit-trial","trial_index":81,"time_elapsed":472809,"internal_node_id":"0.0-70.0","task_version":"test-retest-t2"},{"Rune":"rune_04_iwaz","Hex":"#ffcc3399","Correct":32,"Choice":-1,"RT":-1,"Accuracy":0,"Outcome":"-1","Keys":[],"TotalKeys":0,"Block":1,"Trial":65,"Robot":3,"Valence":"Lose","Action":"Go","Sham":1,"Color":"yellow","trial_type":"pit-trial","trial_index":82,"time_elapsed":476812,"internal_node_id":"0.0-71.0","task_version":"test-retest-t2"},{"Rune":"rune_04_dagaz","Hex":"#3366ff99","Correct":-1,"Choice":32,"RT":428.49499999918044,"Accuracy":0,"Outcome":"+10","Keys":[1929.485000000568],"TotalKeys":1,"Block":1,"Trial":66,"Robot":2,"Valence":"Win","Action":"No-Go","Sham":1,"Color":"blue","trial_type":"pit-trial","trial_index":83,"time_elapsed":479744,"internal_node_id":"0.0-72.0","task_version":"test-retest-t2"},{"Rune":"rune_04_ac","Hex":"#3366ff99","Correct":32,"Choice":32,"RT":497.33500000002095,"Accuracy":1,"Outcome":"+10","Keys":[1997.5599999997648],"TotalKeys":1,"Block":1,"Trial":67,"Robot":1,"Valence":"Win","Action":"Go","Sham":0,"Color":"blue","trial_type":"pit-trial","trial_index":84,"time_elapsed":482747,"internal_node_id":"0.0-73.0","task_version":"test-retest-t2"},{"Rune":"rune_04_wunjo","Hex":"#ffcc3399","Correct":-1,"Choice":-1,"RT":-1,"Accuracy":1,"Outcome":"-1","Keys":[],"TotalKeys":0,"Block":1,"Trial":68,"Robot":4,"Valence":"Lose","Action":"No-Go","Sham":0,"Color":"yellow","trial_type":"pit-trial","trial_index":85,"time_elapsed":486751,"internal_node_id":"0.0-74.0","task_version":"test-retest-t2"},{"Rune":"rune_04_dagaz","Hex":"#3366ff99","Correct":-1,"Choice":32,"RT":457.2800000004936,"Accuracy":0,"Outcome":"+1","Keys":[1958.2149999996764],"TotalKeys":1,"Block":1,"Trial":69,"Robot":2,"Valence":"Win","Action":"No-Go","Sham":0,"Color":"blue","trial_type":"pit-trial","trial_index":86,"time_elapsed":489713,"internal_node_id":"0.0-75.0","task_version":"test-retest-t2"},{"Rune":"rune_04_iwaz","Hex":"#ffcc3399","Correct":32,"Choice":-1,"RT":-1,"Accuracy":0,"Outcome":"-10","Keys":[],"TotalKeys":0,"Block":1,"Trial":70,"Robot":3,"Valence":"Lose","Action":"Go","Sham":0,"Color":"yellow","trial_type":"pit-trial","trial_index":87,"time_elapsed":493717,"internal_node_id":"0.0-76.0","task_version":"test-retest-t2"},{"Rune":"rune_04_ac","Hex":"#3366ff99","Correct":32,"Choice":32,"RT":451.63500000035856,"Accuracy":1,"Outcome":"+10","Keys":[1952.88499999966],"TotalKeys":1,"Block":1,"Trial":71,"Robot":1,"Valence":"Win","Action":"Go","Sham":0,"Color":"blue","trial_type":"pit-trial","trial_index":88,"time_elapsed":496673,"internal_node_id":"0.0-77.0","task_version":"test-retest-t2"},{"Rune":"rune_04_wunjo","Hex":"#ffcc3399","Correct":-1,"Choice":-1,"RT":-1,"Accuracy":1,"Outcome":"-1","Keys":[],"TotalKeys":0,"Block":1,"Trial":72,"Robot":4,"Valence":"Lose","Action":"No-Go","Sham":0,"Color":"yellow","trial_type":"pit-trial","trial_index":89,"time_elapsed":500677,"internal_node_id":"0.0-78.0","task_version":"test-retest-t2"},{"Rune":"rune_04_iwaz","Hex":"#ffcc3399","Correct":32,"Choice":-1,"RT":-1,"Accuracy":0,"Outcome":"-10","Keys":[],"TotalKeys":0,"Block":1,"Trial":73,"Robot":3,"Valence":"Lose","Action":"Go","Sham":0,"Color":"yellow","trial_type":"pit-trial","trial_index":90,"time_elapsed":504682,"internal_node_id":"0.0-79.0","task_version":"test-retest-t2"},{"Rune":"rune_04_ac","Hex":"#3366ff99","Correct":32,"Choice":32,"RT":422.929999999702,"Accuracy":1,"Outcome":"+10","Keys":[1923.399999999674],"TotalKeys":1,"Block":1,"Trial":74,"Robot":1,"Valence":"Win","Action":"Go","Sham":0,"Color":"blue","trial_type":"pit-trial","trial_index":91,"time_elapsed":507609,"internal_node_id":"0.0-80.0","task_version":"test-retest-t2"},{"Rune":"rune_04_wunjo","Hex":"#ffcc3399","Correct":-1,"Choice":-1,"RT":-1,"Accuracy":1,"Outcome":"-1","Keys":[],"TotalKeys":0,"Block":1,"Trial":75,"Robot":4,"Valence":"Lose","Action":"No-Go","Sham":0,"Color":"yellow","trial_type":"pit-trial","trial_index":92,"time_elapsed":511614,"internal_node_id":"0.0-81.0","task_version":"test-retest-t2"},{"Rune":"rune_04_dagaz","Hex":"#3366ff99","Correct":-1,"Choice":32,"RT":393.88499999948544,"Accuracy":0,"Outcome":"+1","Keys":[1895.9150000000955],"TotalKeys":1,"Block":1,"Trial":76,"Robot":2,"Valence":"Win","Action":"No-Go","Sham":0,"Color":"blue","trial_type":"pit-trial","trial_index":93,"time_elapsed":514513,"internal_node_id":"0.0-82.0","task_version":"test-retest-t2"},{"Rune":"rune_04_ac","Hex":"#3366ff99","Correct":32,"Choice":32,"RT":656.3749999996508,"Accuracy":1,"Outcome":"+1","Keys":[2157.3649999999907],"TotalKeys":1,"Block":1,"Trial":77,"Robot":1,"Valence":"Win","Action":"Go","Sham":1,"Color":"blue","trial_type":"pit-trial","trial_index":94,"time_elapsed":517674,"internal_node_id":"0.0-83.0","task_version":"test-retest-t2"},{"Rune":"rune_04_iwaz","Hex":"#ffcc3399","Correct":32,"Choice":-1,"RT":-1,"Accuracy":0,"Outcome":"-10","Keys":[],"TotalKeys":0,"Block":1,"Trial":78,"Robot":3,"Valence":"Lose","Action":"Go","Sham":0,"Color":"yellow","trial_type":"pit-trial","trial_index":95,"time_elapsed":521677,"internal_node_id":"0.0-84.0","task_version":"test-retest-t2"},{"Rune":"rune_04_dagaz","Hex":"#3366ff99","Correct":-1,"Choice":32,"RT":449.9299999998184,"Accuracy":0,"Outcome":"+1","Keys":[1950.595000000205],"TotalKeys":1,"Block":1,"Trial":79,"Robot":2,"Valence":"Win","Action":"No-Go","Sham":0,"Color":"blue","trial_type":"pit-trial","trial_index":96,"time_elapsed":524633,"internal_node_id":"0.0-85.0","task_version":"test-retest-t2"},{"Rune":"rune_04_wunjo","Hex":"#ffcc3399","Correct":-1,"Choice":-1,"RT":-1,"Accuracy":1,"Outcome":"-1","Keys":[],"TotalKeys":0,"Block":1,"Trial":80,"Robot":4,"Valence":"Lose","Action":"No-Go","Sham":0,"Color":"yellow","trial_type":"pit-trial","trial_index":97,"time_elapsed":528636,"internal_node_id":"0.0-86.0","task_version":"test-retest-t2"},{"Rune":"rune_04_dagaz","Hex":"#3366ff99","Correct":-1,"Choice":32,"RT":420.2350000005681,"Accuracy":0,"Outcome":"+1","Keys":[1921.2150000003166],"TotalKeys":1,"Block":1,"Trial":81,"Robot":2,"Valence":"Win","Action":"No-Go","Sham":0,"Color":"blue","trial_type":"pit-trial","trial_index":98,"time_elapsed":531561,"internal_node_id":"0.0-87.0","task_version":"test-retest-t2"},{"Rune":"rune_04_iwaz","Hex":"#ffcc3399","Correct":32,"Choice":-1,"RT":-1,"Accuracy":0,"Outcome":"-10","Keys":[],"TotalKeys":0,"Block":1,"Trial":82,"Robot":3,"Valence":"Lose","Action":"Go","Sham":0,"Color":"yellow","trial_type":"pit-trial","trial_index":99,"time_elapsed":535564,"internal_node_id":"0.0-88.0","task_version":"test-retest-t2"},{"Rune":"rune_04_ac","Hex":"#3366ff99","Correct":32,"Choice":32,"RT":395.98500000010245,"Accuracy":1,"Outcome":"+10","Keys":[1897.0250000002561],"TotalKeys":1,"Block":1,"Trial":83,"Robot":1,"Valence":"Win","Action":"Go","Sham":0,"Color":"blue","trial_type":"pit-trial","trial_index":100,"time_elapsed":538465,"internal_node_id":"0.0-89.0","task_version":"test-retest-t2"},{"Rune":"rune_04_wunjo","Hex":"#ffcc3399","Correct":-1,"Choice":-1,"RT":-1,"Accuracy":1,"Outcome":"-1","Keys":[],"TotalKeys":0,"Block":1,"Trial":84,"Robot":4,"Valence":"Lose","Action":"No-Go","Sham":0,"Color":"yellow","trial_type":"pit-trial","trial_index":101,"time_elapsed":542470,"internal_node_id":"0.0-90.0","task_version":"test-retest-t2"},{"Rune":"rune_04_iwaz","Hex":"#ffcc3399","Correct":32,"Choice":-1,"RT":-1,"Accuracy":0,"Outcome":"-1","Keys":[],"TotalKeys":0,"Block":1,"Trial":85,"Robot":3,"Valence":"Lose","Action":"Go","Sham":1,"Color":"yellow","trial_type":"pit-trial","trial_index":102,"time_elapsed":546474,"internal_node_id":"0.0-91.0","task_version":"test-retest-t2"},{"Rune":"rune_04_dagaz","Hex":"#3366ff99","Correct":-1,"Choice":32,"RT":405.9400000006426,"Accuracy":0,"Outcome":"+1","Keys":[1906.8200000000652],"TotalKeys":1,"Block":1,"Trial":86,"Robot":2,"Valence":"Win","Action":"No-Go","Sham":0,"Color":"blue","trial_type":"pit-trial","trial_index":103,"time_elapsed":549384,"internal_node_id":"0.0-92.0","task_version":"test-retest-t2"},{"Rune":"rune_04_ac","Hex":"#3366ff99","Correct":32,"Choice":32,"RT":431.91500000003725,"Accuracy":1,"Outcome":"+10","Keys":[1932.9799999996321],"TotalKeys":1,"Block":1,"Trial":87,"Robot":1,"Valence":"Win","Action":"Go","Sham":0,"Color":"blue","trial_type":"pit-trial","trial_index":104,"time_elapsed":552321,"internal_node_id":"0.0-93.0","task_version":"test-retest-t2"},{"Rune":"rune_04_wunjo","Hex":"#ffcc3399","Correct":-1,"Choice":-1,"RT":-1,"Accuracy":1,"Outcome":"-1","Keys":[],"TotalKeys":0,"Block":1,"Trial":88,"Robot":4,"Valence":"Lose","Action":"No-Go","Sham":0,"Color":"yellow","trial_type":"pit-trial","trial_index":105,"time_elapsed":556327,"internal_node_id":"0.0-94.0","task_version":"test-retest-t2"},{"Rune":"rune_04_ac","Hex":"#3366ff99","Correct":32,"Choice":32,"RT":329.8399999993853,"Accuracy":1,"Outcome":"+10","Keys":[1830.090000000433],"TotalKeys":1,"Block":1,"Trial":89,"Robot":1,"Valence":"Win","Action":"Go","Sham":0,"Color":"blue","trial_type":"pit-trial","trial_index":106,"time_elapsed":559160,"internal_node_id":"0.0-95.0","task_version":"test-retest-t2"},{"Rune":"rune_04_dagaz","Hex":"#3366ff99","Correct":-1,"Choice":32,"RT":432.96999999985565,"Accuracy":0,"Outcome":"+1","Keys":[1933.7649999997811],"TotalKeys":1,"Block":1,"Trial":90,"Robot":2,"Valence":"Win","Action":"No-Go","Sham":0,"Color":"blue","trial_type":"pit-trial","trial_index":107,"time_elapsed":562097,"internal_node_id":"0.0-96.0","task_version":"test-retest-t2"},{"Rune":"rune_04_wunjo","Hex":"#ffcc3399","Correct":-1,"Choice":-1,"RT":-1,"Accuracy":1,"Outcome":"-1","Keys":[],"TotalKeys":0,"Block":1,"Trial":91,"Robot":4,"Valence":"Lose","Action":"No-Go","Sham":0,"Color":"yellow","trial_type":"pit-trial","trial_index":108,"time_elapsed":566102,"internal_node_id":"0.0-97.0","task_version":"test-retest-t2"},{"Rune":"rune_04_iwaz","Hex":"#ffcc3399","Correct":32,"Choice":-1,"RT":-1,"Accuracy":0,"Outcome":"-10","Keys":[],"TotalKeys":0,"Block":1,"Trial":92,"Robot":3,"Valence":"Lose","Action":"Go","Sham":0,"Color":"yellow","trial_type":"pit-trial","trial_index":109,"time_elapsed":570108,"internal_node_id":"0.0-98.0","task_version":"test-retest-t2"},{"Rune":"rune_04_wunjo","Hex":"#ffcc3399","Correct":-1,"Choice":-1,"RT":-1,"Accuracy":1,"Outcome":"-1","Keys":[],"TotalKeys":0,"Block":1,"Trial":93,"Robot":4,"Valence":"Lose","Action":"No-Go","Sham":0,"Color":"yellow","trial_type":"pit-trial","trial_index":110,"time_elapsed":574112,"internal_node_id":"0.0-99.0","task_version":"test-retest-t2"},{"Rune":"rune_04_dagaz","Hex":"#3366ff99","Correct":-1,"Choice":32,"RT":424.0499999996973,"Accuracy":0,"Outcome":"+1","Keys":[1925.210000000312],"TotalKeys":1,"Block":1,"Trial":94,"Robot":2,"Valence":"Win","Action":"No-Go","Sham":0,"Color":"blue","trial_type":"pit-trial","trial_index":111,"time_elapsed":577040,"internal_node_id":"0.0-100.0","task_version":"test-retest-t2"},{"Rune":"rune_04_ac","Hex":"#3366ff99","Correct":32,"Choice":32,"RT":456.7499999993015,"Accuracy":1,"Outcome":"+10","Keys":[1956.9900000005728],"TotalKeys":1,"Block":1,"Trial":95,"Robot":1,"Valence":"Win","Action":"Go","Sham":0,"Color":"blue","trial_type":"pit-trial","trial_index":112,"time_elapsed":580000,"internal_node_id":"0.0-101.0","task_version":"test-retest-t2"},{"Rune":"rune_04_iwaz","Hex":"#ffcc3399","Correct":32,"Choice":-1,"RT":-1,"Accuracy":0,"Outcome":"-10","Keys":[],"TotalKeys":0,"Block":1,"Trial":96,"Robot":3,"Valence":"Lose","Action":"Go","Sham":0,"Color":"yellow","trial_type":"pit-trial","trial_index":113,"time_elapsed":584004,"internal_node_id":"0.0-102.0","task_version":"test-retest-t2"},{"Rune":"rune_04_ac","Hex":"#3366ff99","Correct":32,"Choice":32,"RT":355.8250000005355,"Accuracy":1,"Outcome":"+1","Keys":[1856.7749999993248],"TotalKeys":1,"Block":1,"Trial":97,"Robot":1,"Valence":"Win","Action":"Go","Sham":1,"Color":"blue","trial_type":"pit-trial","trial_index":114,"time_elapsed":586865,"internal_node_id":"0.0-103.0","task_version":"test-retest-t2"},{"Rune":"rune_04_iwaz","Hex":"#ffcc3399","Correct":32,"Choice":-1,"RT":-1,"Accuracy":0,"Outcome":"-10","Keys":[],"TotalKeys":0,"Block":1,"Trial":98,"Robot":3,"Valence":"Lose","Action":"Go","Sham":0,"Color":"yellow","trial_type":"pit-trial","trial_index":115,"time_elapsed":590870,"internal_node_id":"0.0-104.0","task_version":"test-retest-t2"},{"Rune":"rune_04_wunjo","Hex":"#ffcc3399","Correct":-1,"Choice":-1,"RT":-1,"Accuracy":1,"Outcome":"-10","Keys":[],"TotalKeys":0,"Block":1,"Trial":99,"Robot":4,"Valence":"Lose","Action":"No-Go","Sham":1,"Color":"yellow","trial_type":"pit-trial","trial_index":116,"time_elapsed":594874,"internal_node_id":"0.0-105.0","task_version":"test-retest-t2"},{"Rune":"rune_04_dagaz","Hex":"#3366ff99","Correct":-1,"Choice":32,"RT":423.0299999999115,"Accuracy":0,"Outcome":"+10","Keys":[1923.1800000007497],"TotalKeys":1,"Block":1,"Trial":100,"Robot":2,"Valence":"Win","Action":"No-Go","Sham":1,"Color":"blue","trial_type":"pit-trial","trial_index":117,"time_elapsed":597802,"internal_node_id":"0.0-106.0","task_version":"test-retest-t2"},{"Rune":"rune_04_wunjo","Hex":"#ffcc3399","Correct":-1,"Choice":-1,"RT":-1,"Accuracy":1,"Outcome":"-1","Keys":[],"TotalKeys":0,"Block":1,"Trial":101,"Robot":4,"Valence":"Lose","Action":"No-Go","Sham":0,"Color":"yellow","trial_type":"pit-trial","trial_index":118,"time_elapsed":601811,"internal_node_id":"0.0-107.0","task_version":"test-retest-t2"},{"Rune":"rune_04_iwaz","Hex":"#ffcc3399","Correct":32,"Choice":-1,"RT":-1,"Accuracy":0,"Outcome":"-10","Keys":[],"TotalKeys":0,"Block":1,"Trial":102,"Robot":3,"Valence":"Lose","Action":"Go","Sham":0,"Color":"yellow","trial_type":"pit-trial","trial_index":119,"time_elapsed":605817,"internal_node_id":"0.0-108.0","task_version":"test-retest-t2"},{"Rune":"rune_04_ac","Hex":"#3366ff99","Correct":32,"Choice":32,"RT":416.07500000006985,"Accuracy":1,"Outcome":"+10","Keys":[1916.3399999997346],"TotalKeys":1,"Block":1,"Trial":103,"Robot":1,"Valence":"Win","Action":"Go","Sham":0,"Color":"blue","trial_type":"pit-trial","trial_index":120,"time_elapsed":608736,"internal_node_id":"0.0-109.0","task_version":"test-retest-t2"},{"Rune":"rune_04_dagaz","Hex":"#3366ff99","Correct":-1,"Choice":32,"RT":464.1449999999022,"Accuracy":0,"Outcome":"+1","Keys":[1965.2150000002002],"TotalKeys":1,"Block":1,"Trial":104,"Robot":2,"Valence":"Win","Action":"No-Go","Sham":0,"Color":"blue","trial_type":"pit-trial","trial_index":121,"time_elapsed":611705,"internal_node_id":"0.0-110.0","task_version":"test-retest-t2"},{"Rune":"rune_04_dagaz","Hex":"#3366ff99","Correct":-1,"Choice":32,"RT":463.9399999995949,"Accuracy":0,"Outcome":"+1","Keys":[1964.0399999998044],"TotalKeys":1,"Block":1,"Trial":105,"Robot":2,"Valence":"Win","Action":"No-Go","Sham":0,"Color":"blue","trial_type":"pit-trial","trial_index":122,"time_elapsed":614674,"internal_node_id":"0.0-111.0","task_version":"test-retest-t2"},{"Rune":"rune_04_iwaz","Hex":"#ffcc3399","Correct":32,"Choice":-1,"RT":-1,"Accuracy":0,"Outcome":"-1","Keys":[],"TotalKeys":0,"Block":1,"Trial":106,"Robot":3,"Valence":"Lose","Action":"Go","Sham":1,"Color":"yellow","trial_type":"pit-trial","trial_index":123,"time_elapsed":618679,"internal_node_id":"0.0-112.0","task_version":"test-retest-t2"},{"Rune":"rune_04_wunjo","Hex":"#ffcc3399","Correct":-1,"Choice":-1,"RT":-1,"Accuracy":1,"Outcome":"-1","Keys":[],"TotalKeys":0,"Block":1,"Trial":107,"Robot":4,"Valence":"Lose","Action":"No-Go","Sham":0,"Color":"yellow","trial_type":"pit-trial","trial_index":124,"time_elapsed":622683,"internal_node_id":"0.0-113.0","task_version":"test-retest-t2"},{"Rune":"rune_04_ac","Hex":"#3366ff99","Correct":32,"Choice":32,"RT":485.17499999981374,"Accuracy":1,"Outcome":"+10","Keys":[1985.9400000005262],"TotalKeys":1,"Block":1,"Trial":108,"Robot":1,"Valence":"Win","Action":"Go","Sham":0,"Color":"blue","trial_type":"pit-trial","trial_index":125,"time_elapsed":625672,"internal_node_id":"0.0-114.0","task_version":"test-retest-t2"},{"Rune":"rune_04_iwaz","Hex":"#ffcc3399","Correct":32,"Choice":-1,"RT":-1,"Accuracy":0,"Outcome":"-10","Keys":[],"TotalKeys":0,"Block":1,"Trial":109,"Robot":3,"Valence":"Lose","Action":"Go","Sham":0,"Color":"yellow","trial_type":"pit-trial","trial_index":126,"time_elapsed":629677,"internal_node_id":"0.0-115.0","task_version":"test-retest-t2"},{"Rune":"rune_04_ac","Hex":"#3366ff99","Correct":32,"Choice":32,"RT":392.9600000001956,"Accuracy":1,"Outcome":"+10","Keys":[1894.0449999999255],"TotalKeys":1,"Block":1,"Trial":110,"Robot":1,"Valence":"Win","Action":"Go","Sham":0,"Color":"blue","trial_type":"pit-trial","trial_index":127,"time_elapsed":632576,"internal_node_id":"0.0-116.0","task_version":"test-retest-t2"},{"Rune":"rune_04_wunjo","Hex":"#ffcc3399","Correct":-1,"Choice":-1,"RT":-1,"Accuracy":1,"Outcome":"-1","Keys":[],"TotalKeys":0,"Block":1,"Trial":111,"Robot":4,"Valence":"Lose","Action":"No-Go","Sham":0,"Color":"yellow","trial_type":"pit-trial","trial_index":128,"time_elapsed":636581,"internal_node_id":"0.0-117.0","task_version":"test-retest-t2"},{"Rune":"rune_04_dagaz","Hex":"#3366ff99","Correct":-1,"Choice":32,"RT":611.6049999999814,"Accuracy":0,"Outcome":"+1","Keys":[2112.129999999539],"TotalKeys":1,"Block":1,"Trial":112,"Robot":2,"Valence":"Win","Action":"No-Go","Sham":0,"Color":"blue","trial_type":"pit-trial","trial_index":129,"time_elapsed":639698,"internal_node_id":"0.0-118.0","task_version":"test-retest-t2"},{"Rune":"rune_04_dagaz","Hex":"#3366ff99","Correct":-1,"Choice":32,"RT":575.0299999999115,"Accuracy":0,"Outcome":"+1","Keys":[2075.6099999998696],"TotalKeys":1,"Block":1,"Trial":113,"Robot":2,"Valence":"Win","Action":"No-Go","Sham":0,"Color":"blue","trial_type":"pit-trial","trial_index":130,"time_elapsed":642777,"internal_node_id":"0.0-119.0","task_version":"test-retest-t2"},{"Rune":"rune_04_iwaz","Hex":"#ffcc3399","Correct":32,"Choice":-1,"RT":-1,"Accuracy":0,"Outcome":"-10","Keys":[],"TotalKeys":0,"Block":1,"Trial":114,"Robot":3,"Valence":"Lose","Action":"Go","Sham":0,"Color":"yellow","trial_type":"pit-trial","trial_index":131,"time_elapsed":646782,"internal_node_id":"0.0-120.0","task_version":"test-retest-t2"},{"Rune":"rune_04_ac","Hex":"#3366ff99","Correct":32,"Choice":32,"RT":400.97499999962747,"Accuracy":1,"Outcome":"+10","Keys":[1902.7300000006799],"TotalKeys":1,"Block":1,"Trial":115,"Robot":1,"Valence":"Win","Action":"Go","Sham":0,"Color":"blue","trial_type":"pit-trial","trial_index":132,"time_elapsed":649689,"internal_node_id":"0.0-121.0","task_version":"test-retest-t2"},{"Rune":"rune_04_wunjo","Hex":"#ffcc3399","Correct":-1,"Choice":-1,"RT":-1,"Accuracy":1,"Outcome":"-1","Keys":[],"TotalKeys":0,"Block":1,"Trial":116,"Robot":4,"Valence":"Lose","Action":"No-Go","Sham":0,"Color":"yellow","trial_type":"pit-trial","trial_index":133,"time_elapsed":653694,"internal_node_id":"0.0-122.0","task_version":"test-retest-t2"},{"Rune":"rune_04_dagaz","Hex":"#3366ff99","Correct":-1,"Choice":32,"RT":362.7349999996368,"Accuracy":0,"Outcome":"+10","Keys":[1863.6100000003353],"TotalKeys":1,"Block":1,"Trial":117,"Robot":2,"Valence":"Win","Action":"No-Go","Sham":1,"Color":"blue","trial_type":"pit-trial","trial_index":134,"time_elapsed":656560,"internal_node_id":"0.0-123.0","task_version":"test-retest-t2"},{"Rune":"rune_04_iwaz","Hex":"#ffcc3399","Correct":32,"Choice":-1,"RT":-1,"Accuracy":0,"Outcome":"-10","Keys":[],"TotalKeys":0,"Block":1,"Trial":118,"Robot":3,"Valence":"Lose","Action":"Go","Sham":0,"Color":"yellow","trial_type":"pit-trial","trial_index":135,"time_elapsed":660565,"internal_node_id":"0.0-124.0","task_version":"test-retest-t2"},{"Rune":"rune_04_ac","Hex":"#3366ff99","Correct":32,"Choice":32,"RT":419.6400000001304,"Accuracy":1,"Outcome":"+1","Keys":[1920.6400000002468],"TotalKeys":1,"Block":1,"Trial":119,"Robot":1,"Valence":"Win","Action":"Go","Sham":1,"Color":"blue","trial_type":"pit-trial","trial_index":136,"time_elapsed":663487,"internal_node_id":"0.0-125.0","task_version":"test-retest-t2"},{"Rune":"rune_04_wunjo","Hex":"#ffcc3399","Correct":-1,"Choice":-1,"RT":-1,"Accuracy":1,"Outcome":"-10","Keys":[],"TotalKeys":0,"Block":1,"Trial":120,"Robot":4,"Valence":"Lose","Action":"No-Go","Sham":1,"Color":"yellow","trial_type":"pit-trial","trial_index":137,"time_elapsed":667493,"internal_node_id":"0.0-126.0","task_version":"test-retest-t2"},{"view_history":"[{\"page_index\":0,\"viewing_time\":61036.790000000154},{\"page_index\":1,\"viewing_time\":5343.84499999939},{\"page_index\":2,\"viewing_time\":2376.025000000489}]","rt":68757.13999999978,"trial_type":"pit-instructions","trial_index":138,"time_elapsed":736252,"internal_node_id":"0.0-127.0","task_version":"test-retest-t2"},{"Rune":"rune_03_uruz","Hex":"#ffcc3399","Correct":32,"Choice":-1,"RT":-1,"Accuracy":0,"Outcome":"-1","Keys":[],"TotalKeys":0,"Block":2,"Trial":121,"Robot":3,"Valence":"Lose","Action":"Go","Sham":1,"Color":"yellow","trial_type":"pit-trial","trial_index":139,"time_elapsed":740258,"internal_node_id":"0.0-128.0","task_version":"test-retest-t2"},{"Rune":"rune_03_algiz","Hex":"#3366ff99","Correct":-1,"Choice":32,"RT":478.17000000027474,"Accuracy":0,"Outcome":"+1","Keys":[1980.3499999998603],"TotalKeys":1,"Block":2,"Trial":122,"Robot":2,"Valence":"Win","Action":"No-Go","Sham":0,"Color":"blue","trial_type":"pit-trial","trial_index":140,"time_elapsed":743242,"internal_node_id":"0.0-129.0","task_version":"test-retest-t2"},{"Rune":"rune_03_naudiz","Hex":"#3366ff99","Correct":32,"Choice":32,"RT":974.7850000003818,"Accuracy":1,"Outcome":"+10","Keys":[2475.7399999998743],"TotalKeys":1,"Block":2,"Trial":123,"Robot":1,"Valence":"Win","Action":"Go","Sham":0,"Color":"blue","trial_type":"pit-trial","trial_index":141,"time_elapsed":746721,"internal_node_id":"0.0-130.0","task_version":"test-retest-t2"},{"Rune":"rune_03_othalan","Hex":"#ffcc3399","Correct":-1,"Choice":-1,"RT":-1,"Accuracy":1,"Outcome":"-1","Keys":[],"TotalKeys":0,"Block":2,"Trial":124,"Robot":4,"Valence":"Lose","Action":"No-Go","Sham":0,"Color":"yellow","trial_type":"pit-trial","trial_index":142,"time_elapsed":750726,"internal_node_id":"0.0-131.0","task_version":"test-retest-t2"},{"Rune":"rune_03_othalan","Hex":"#ffcc3399","Correct":-1,"Choice":-1,"RT":-1,"Accuracy":1,"Outcome":"-1","Keys":[],"TotalKeys":0,"Block":2,"Trial":125,"Robot":4,"Valence":"Lose","Action":"No-Go","Sham":0,"Color":"yellow","trial_type":"pit-trial","trial_index":143,"time_elapsed":754732,"internal_node_id":"0.0-132.0","task_version":"test-retest-t2"},{"Rune":"rune_03_algiz","Hex":"#3366ff99","Correct":-1,"Choice":32,"RT":492.9000000002561,"Accuracy":0,"Outcome":"+1","Keys":[1993.7250000002095],"TotalKeys":1,"Block":2,"Trial":126,"Robot":2,"Valence":"Win","Action":"No-Go","Sham":0,"Color":"blue","trial_type":"pit-trial","trial_index":144,"time_elapsed":757729,"internal_node_id":"0.0-133.0","task_version":"test-retest-t2"},{"Rune":"rune_03_naudiz","Hex":"#3366ff99","Correct":32,"Choice":32,"RT":488.7100000005448,"Accuracy":1,"Outcome":"+1","Keys":[1988.755000000354],"TotalKeys":1,"Block":2,"Trial":127,"Robot":1,"Valence":"Win","Action":"Go","Sham":1,"Color":"blue","trial_type":"pit-trial","trial_index":145,"time_elapsed":760721,"internal_node_id":"0.0-134.0","task_version":"test-retest-t2"},{"Rune":"rune_03_uruz","Hex":"#ffcc3399","Correct":32,"Choice":-1,"RT":-1,"Accuracy":0,"Outcome":"-10","Keys":[],"TotalKeys":0,"Block":2,"Trial":128,"Robot":3,"Valence":"Lose","Action":"Go","Sham":0,"Color":"yellow","trial_type":"pit-trial","trial_index":146,"time_elapsed":764725,"internal_node_id":"0.0-135.0","task_version":"test-retest-t2"},{"Rune":"rune_03_algiz","Hex":"#3366ff99","Correct":-1,"Choice":32,"RT":466.85500000056345,"Accuracy":0,"Outcome":"+1","Keys":[1967.9500000001863],"TotalKeys":1,"Block":2,"Trial":129,"Robot":2,"Valence":"Win","Action":"No-Go","Sham":0,"Color":"blue","trial_type":"pit-trial","trial_index":147,"time_elapsed":767697,"internal_node_id":"0.0-136.0","task_version":"test-retest-t2"},{"Rune":"rune_03_naudiz","Hex":"#3366ff99","Correct":32,"Choice":32,"RT":448.0199999997858,"Accuracy":1,"Outcome":"+10","Keys":[1948.8449999998556],"TotalKeys":1,"Block":2,"Trial":130,"Robot":1,"Valence":"Win","Action":"Go","Sham":0,"Color":"blue","trial_type":"pit-trial","trial_index":148,"time_elapsed":770649,"internal_node_id":"0.0-137.0","task_version":"test-retest-t2"},{"Rune":"rune_03_othalan","Hex":"#ffcc3399","Correct":-1,"Choice":-1,"RT":-1,"Accuracy":1,"Outcome":"-10","Keys":[],"TotalKeys":0,"Block":2,"Trial":131,"Robot":4,"Valence":"Lose","Action":"No-Go","Sham":1,"Color":"yellow","trial_type":"pit-trial","trial_index":149,"time_elapsed":774654,"internal_node_id":"0.0-138.0","task_version":"test-retest-t2"},{"Rune":"rune_03_uruz","Hex":"#ffcc3399","Correct":32,"Choice":-1,"RT":-1,"Accuracy":0,"Outcome":"-10","Keys":[],"TotalKeys":0,"Block":2,"Trial":132,"Robot":3,"Valence":"Lose","Action":"Go","Sham":0,"Color":"yellow","trial_type":"pit-trial","trial_index":150,"time_elapsed":778660,"internal_node_id":"0.0-139.0","task_version":"test-retest-t2"},{"Rune":"rune_03_uruz","Hex":"#ffcc3399","Correct":32,"Choice":-1,"RT":-1,"Accuracy":0,"Outcome":"-10","Keys":[],"TotalKeys":0,"Block":2,"Trial":133,"Robot":3,"Valence":"Lose","Action":"Go","Sham":0,"Color":"yellow","trial_type":"pit-trial","trial_index":151,"time_elapsed":782665,"internal_node_id":"0.0-140.0","task_version":"test-retest-t2"},{"Rune":"rune_03_naudiz","Hex":"#3366ff99","Correct":32,"Choice":32,"RT":480.09499999985565,"Accuracy":1,"Outcome":"+10","Keys":[1981.0299999999115],"TotalKeys":1,"Block":2,"Trial":134,"Robot":1,"Valence":"Win","Action":"Go","Sham":0,"Color":"blue","trial_type":"pit-trial","trial_index":152,"time_elapsed":785649,"internal_node_id":"0.0-141.0","task_version":"test-retest-t2"},{"Rune":"rune_03_algiz","Hex":"#3366ff99","Correct":-1,"Choice":32,"RT":583.8850000000093,"Accuracy":0,"Outcome":"+1","Keys":[2084.4450000004144],"TotalKeys":1,"Block":2,"Trial":135,"Robot":2,"Valence":"Win","Action":"No-Go","Sham":0,"Color":"blue","trial_type":"pit-trial","trial_index":153,"time_elapsed":788739,"internal_node_id":"0.0-142.0","task_version":"test-retest-t2"},{"Rune":"rune_03_othalan","Hex":"#ffcc3399","Correct":-1,"Choice":-1,"RT":-1,"Accuracy":1,"Outcome":"-1","Keys":[],"TotalKeys":0,"Block":2,"Trial":136,"Robot":4,"Valence":"Lose","Action":"No-Go","Sham":0,"Color":"yellow","trial_type":"pit-trial","trial_index":154,"time_elapsed":792746,"internal_node_id":"0.0-143.0","task_version":"test-retest-t2"},{"Rune":"rune_03_naudiz","Hex":"#3366ff99","Correct":32,"Choice":32,"RT":450.9299999999348,"Accuracy":1,"Outcome":"+10","Keys":[1951.5149999997811],"TotalKeys":1,"Block":2,"Trial":137,"Robot":1,"Valence":"Win","Action":"Go","Sham":0,"Color":"blue","trial_type":"pit-trial","trial_index":155,"time_elapsed":795705,"internal_node_id":"0.0-144.0","task_version":"test-retest-t2"},{"Rune":"rune_03_othalan","Hex":"#ffcc3399","Correct":-1,"Choice":-1,"RT":-1,"Accuracy":1,"Outcome":"-1","Keys":[],"TotalKeys":0,"Block":2,"Trial":138,"Robot":4,"Valence":"Lose","Action":"No-Go","Sham":0,"Color":"yellow","trial_type":"pit-trial","trial_index":156,"time_elapsed":799712,"internal_node_id":"0.0-145.0","task_version":"test-retest-t2"},{"Rune":"rune_03_uruz","Hex":"#ffcc3399","Correct":32,"Choice":-1,"RT":-1,"Accuracy":0,"Outcome":"-10","Keys":[],"TotalKeys":0,"Block":2,"Trial":139,"Robot":3,"Valence":"Lose","Action":"Go","Sham":0,"Color":"yellow","trial_type":"pit-trial","trial_index":157,"time_elapsed":803718,"internal_node_id":"0.0-146.0","task_version":"test-retest-t2"},{"Rune":"rune_03_algiz","Hex":"#3366ff99","Correct":-1,"Choice":32,"RT":459.0150000003632,"Accuracy":0,"Outcome":"+10","Keys":[1960.1249999996508],"TotalKeys":1,"Block":2,"Trial":140,"Robot":2,"Valence":"Win","Action":"No-Go","Sham":1,"Color":"blue","trial_type":"pit-trial","trial_index":158,"time_elapsed":806682,"internal_node_id":"0.0-147.0","task_version":"test-retest-t2"},{"Rune":"rune_03_algiz","Hex":"#3366ff99","Correct":-1,"Choice":32,"RT":598.6700000002747,"Accuracy":0,"Outcome":"+10","Keys":[2099.385000000475],"TotalKeys":1,"Block":2,"Trial":141,"Robot":2,"Valence":"Win","Action":"No-Go","Sham":1,"Color":"blue","trial_type":"pit-trial","trial_index":159,"time_elapsed":809785,"internal_node_id":"0.0-148.0","task_version":"test-retest-t2"},{"Rune":"rune_03_othalan","Hex":"#ffcc3399","Correct":-1,"Choice":-1,"RT":-1,"Accuracy":1,"Outcome":"-1","Keys":[],"TotalKeys":0,"Block":2,"Trial":142,"Robot":4,"Valence":"Lose","Action":"No-Go","Sham":0,"Color":"yellow","trial_type":"pit-trial","trial_index":160,"time_elapsed":813789,"internal_node_id":"0.0-149.0","task_version":"test-retest-t2"},{"Rune":"rune_03_uruz","Hex":"#ffcc3399","Correct":32,"Choice":-1,"RT":-1,"Accuracy":0,"Outcome":"-1","Keys":[],"TotalKeys":0,"Block":2,"Trial":143,"Robot":3,"Valence":"Lose","Action":"Go","Sham":1,"Color":"yellow","trial_type":"pit-trial","trial_index":161,"time_elapsed":817794,"internal_node_id":"0.0-150.0","task_version":"test-retest-t2"},{"Rune":"rune_03_naudiz","Hex":"#3366ff99","Correct":32,"Choice":32,"RT":495.99000000033993,"Accuracy":1,"Outcome":"+10","Keys":[1996.1800000000512],"TotalKeys":1,"Block":2,"Trial":144,"Robot":1,"Valence":"Win","Action":"Go","Sham":0,"Color":"blue","trial_type":"pit-trial","trial_index":162,"time_elapsed":820793,"internal_node_id":"0.0-151.0","task_version":"test-retest-t2"},{"Rune":"rune_03_uruz","Hex":"#ffcc3399","Correct":32,"Choice":-1,"RT":-1,"Accuracy":0,"Outcome":"-10","Keys":[],"TotalKeys":0,"Block":2,"Trial":145,"Robot":3,"Valence":"Lose","Action":"Go","Sham":0,"Color":"yellow","trial_type":"pit-trial","trial_index":163,"time_elapsed":824797,"internal_node_id":"0.0-152.0","task_version":"test-retest-t2"},{"Rune":"rune_03_algiz","Hex":"#3366ff99","Correct":-1,"Choice":32,"RT":468.22499999951106,"Accuracy":0,"Outcome":"+1","Keys":[1968.8650000006892],"TotalKeys":1,"Block":2,"Trial":146,"Robot":2,"Valence":"Win","Action":"No-Go","Sham":0,"Color":"blue","trial_type":"pit-trial","trial_index":164,"time_elapsed":827769,"internal_node_id":"0.0-153.0","task_version":"test-retest-t2"},{"Rune":"rune_03_othalan","Hex":"#ffcc3399","Correct":-1,"Choice":-1,"RT":-1,"Accuracy":1,"Outcome":"-1","Keys":[],"TotalKeys":0,"Block":2,"Trial":147,"Robot":4,"Valence":"Lose","Action":"No-Go","Sham":0,"Color":"yellow","trial_type":"pit-trial","trial_index":165,"time_elapsed":831773,"internal_node_id":"0.0-154.0","task_version":"test-retest-t2"},{"Rune":"rune_03_naudiz","Hex":"#3366ff99","Correct":32,"Choice":32,"RT":796.0299999995623,"Accuracy":1,"Outcome":"+10","Keys":[2296.9700000003213],"TotalKeys":1,"Block":2,"Trial":148,"Robot":1,"Valence":"Win","Action":"Go","Sham":0,"Color":"blue","trial_type":"pit-trial","trial_index":166,"time_elapsed":835074,"internal_node_id":"0.0-155.0","task_version":"test-retest-t2"},{"Rune":"rune_03_naudiz","Hex":"#3366ff99","Correct":32,"Choice":32,"RT":551.1850000001723,"Accuracy":1,"Outcome":"+10","Keys":[2051.819999999716],"TotalKeys":1,"Block":2,"Trial":149,"Robot":1,"Valence":"Win","Action":"Go","Sham":0,"Color":"blue","trial_type":"pit-trial","trial_index":167,"time_elapsed":838128,"internal_node_id":"0.0-156.0","task_version":"test-retest-t2"},{"Rune":"rune_03_algiz","Hex":"#3366ff99","Correct":-1,"Choice":32,"RT":520.8300000004238,"Accuracy":0,"Outcome":"+1","Keys":[2022],"TotalKeys":1,"Block":2,"Trial":150,"Robot":2,"Valence":"Win","Action":"No-Go","Sham":0,"Color":"blue","trial_type":"pit-trial","trial_index":168,"time_elapsed":841152,"internal_node_id":"0.0-157.0","task_version":"test-retest-t2"},{"Rune":"rune_03_othalan","Hex":"#ffcc3399","Correct":-1,"Choice":-1,"RT":-1,"Accuracy":1,"Outcome":"-1","Keys":[],"TotalKeys":0,"Block":2,"Trial":151,"Robot":4,"Valence":"Lose","Action":"No-Go","Sham":0,"Color":"yellow","trial_type":"pit-trial","trial_index":169,"time_elapsed":845156,"internal_node_id":"0.0-158.0","task_version":"test-retest-t2"},{"Rune":"rune_03_uruz","Hex":"#ffcc3399","Correct":32,"Choice":-1,"RT":-1,"Accuracy":0,"Outcome":"-10","Keys":[],"TotalKeys":0,"Block":2,"Trial":152,"Robot":3,"Valence":"Lose","Action":"Go","Sham":0,"Color":"yellow","trial_type":"pit-trial","trial_index":170,"time_elapsed":849160,"internal_node_id":"0.0-159.0","task_version":"test-retest-t2"},{"Rune":"rune_03_uruz","Hex":"#ffcc3399","Correct":32,"Choice":-1,"RT":-1,"Accuracy":0,"Outcome":"-10","Keys":[],"TotalKeys":0,"Block":2,"Trial":153,"Robot":3,"Valence":"Lose","Action":"Go","Sham":0,"Color":"yellow","trial_type":"pit-trial","trial_index":171,"time_elapsed":853164,"internal_node_id":"0.0-160.0","task_version":"test-retest-t2"},{"Rune":"rune_03_algiz","Hex":"#3366ff99","Correct":-1,"Choice":32,"RT":365.5399999998044,"Accuracy":0,"Outcome":"+1","Keys":[1865.7000000001863],"TotalKeys":1,"Block":2,"Trial":154,"Robot":2,"Valence":"Win","Action":"No-Go","Sham":0,"Color":"blue","trial_type":"pit-trial","trial_index":172,"time_elapsed":856032,"internal_node_id":"0.0-161.0","task_version":"test-retest-t2"},{"Rune":"rune_03_othalan","Hex":"#ffcc3399","Correct":-1,"Choice":-1,"RT":-1,"Accuracy":1,"Outcome":"-1","Keys":[],"TotalKeys":0,"Block":2,"Trial":155,"Robot":4,"Valence":"Lose","Action":"No-Go","Sham":0,"Color":"yellow","trial_type":"pit-trial","trial_index":173,"time_elapsed":860037,"internal_node_id":"0.0-162.0","task_version":"test-retest-t2"},{"Rune":"rune_03_naudiz","Hex":"#3366ff99","Correct":32,"Choice":32,"RT":377.33000000030734,"Accuracy":1,"Outcome":"+1","Keys":[1877.3699999992969],"TotalKeys":1,"Block":2,"Trial":156,"Robot":1,"Valence":"Win","Action":"Go","Sham":1,"Color":"blue","trial_type":"pit-trial","trial_index":174,"time_elapsed":862920,"internal_node_id":"0.0-163.0","task_version":"test-retest-t2"},{"Rune":"rune_03_uruz","Hex":"#ffcc3399","Correct":32,"Choice":-1,"RT":-1,"Accuracy":0,"Outcome":"-10","Keys":[],"TotalKeys":0,"Block":2,"Trial":157,"Robot":3,"Valence":"Lose","Action":"Go","Sham":0,"Color":"yellow","trial_type":"pit-trial","trial_index":175,"time_elapsed":866924,"internal_node_id":"0.0-164.0","task_version":"test-retest-t2"},{"Rune":"rune_03_othalan","Hex":"#ffcc3399","Correct":-1,"Choice":-1,"RT":-1,"Accuracy":1,"Outcome":"-10","Keys":[],"TotalKeys":0,"Block":2,"Trial":158,"Robot":4,"Valence":"Lose","Action":"No-Go","Sham":1,"Color":"yellow","trial_type":"pit-trial","trial_index":176,"time_elapsed":870927,"internal_node_id":"0.0-165.0","task_version":"test-retest-t2"},{"Rune":"rune_03_naudiz","Hex":"#3366ff99","Correct":32,"Choice":32,"RT":425.6500000001397,"Accuracy":1,"Outcome":"+10","Keys":[1926.5449999993434],"TotalKeys":1,"Block":2,"Trial":159,"Robot":1,"Valence":"Win","Action":"Go","Sham":0,"Color":"blue","trial_type":"pit-trial","trial_index":177,"time_elapsed":873857,"internal_node_id":"0.0-166.0","task_version":"test-retest-t2"},{"Rune":"rune_03_algiz","Hex":"#3366ff99","Correct":-1,"Choice":32,"RT":391.98500000021886,"Accuracy":0,"Outcome":"+1","Keys":[1892.6900000006426],"TotalKeys":1,"Block":2,"Trial":160,"Robot":2,"Valence":"Win","Action":"No-Go","Sham":0,"Color":"blue","trial_type":"pit-trial","trial_index":178,"time_elapsed":876753,"internal_node_id":"0.0-167.0","task_version":"test-retest-t2"},{"Rune":"rune_03_othalan","Hex":"#ffcc3399","Correct":-1,"Choice":-1,"RT":-1,"Accuracy":1,"Outcome":"-1","Keys":[],"TotalKeys":0,"Block":2,"Trial":161,"Robot":4,"Valence":"Lose","Action":"No-Go","Sham":0,"Color":"yellow","trial_type":"pit-trial","trial_index":179,"time_elapsed":880757,"internal_node_id":"0.0-168.0","task_version":"test-retest-t2"},{"Rune":"rune_03_uruz","Hex":"#ffcc3399","Correct":32,"Choice":-1,"RT":-1,"Accuracy":0,"Outcome":"-10","Keys":[],"TotalKeys":0,"Block":2,"Trial":162,"Robot":3,"Valence":"Lose","Action":"Go","Sham":0,"Color":"yellow","trial_type":"pit-trial","trial_index":180,"time_elapsed":884763,"internal_node_id":"0.0-169.0","task_version":"test-retest-t2"},{"Rune":"rune_03_algiz","Hex":"#3366ff99","Correct":-1,"Choice":32,"RT":374.06500000087544,"Accuracy":0,"Outcome":"+1","Keys":[1875.0699999999488],"TotalKeys":1,"Block":2,"Trial":163,"Robot":2,"Valence":"Win","Action":"No-Go","Sham":0,"Color":"blue","trial_type":"pit-trial","trial_index":181,"time_elapsed":887641,"internal_node_id":"0.0-170.0","task_version":"test-retest-t2"},{"Rune":"rune_03_naudiz","Hex":"#3366ff99","Correct":32,"Choice":32,"RT":391.5950000000885,"Accuracy":1,"Outcome":"+1","Keys":[1893.5700000001816],"TotalKeys":1,"Block":2,"Trial":164,"Robot":1,"Valence":"Win","Action":"Go","Sham":1,"Color":"blue","trial_type":"pit-trial","trial_index":182,"time_elapsed":890537,"internal_node_id":"0.0-171.0","task_version":"test-retest-t2"},{"Rune":"rune_03_naudiz","Hex":"#3366ff99","Correct":32,"Choice":32,"RT":424.3499999992782,"Accuracy":1,"Outcome":"+10","Keys":[1925.2450000003446],"TotalKeys":1,"Block":2,"Trial":165,"Robot":1,"Valence":"Win","Action":"Go","Sham":0,"Color":"blue","trial_type":"pit-trial","trial_index":183,"time_elapsed":893465,"internal_node_id":"0.0-172.0","task_version":"test-retest-t2"},{"Rune":"rune_03_algiz","Hex":"#3366ff99","Correct":-1,"Choice":32,"RT":313.02999999932945,"Accuracy":0,"Outcome":"+1","Keys":[1813.080000000773],"TotalKeys":1,"Block":2,"Trial":166,"Robot":2,"Valence":"Win","Action":"No-Go","Sham":0,"Color":"blue","trial_type":"pit-trial","trial_index":184,"time_elapsed":896282,"internal_node_id":"0.0-173.0","task_version":"test-retest-t2"},{"Rune":"rune_03_othalan","Hex":"#ffcc3399","Correct":-1,"Choice":-1,"RT":-1,"Accuracy":1,"Outcome":"-10","Keys":[],"TotalKeys":0,"Block":2,"Trial":167,"Robot":4,"Valence":"Lose","Action":"No-Go","Sham":1,"Color":"yellow","trial_type":"pit-trial","trial_index":185,"time_elapsed":900288,"internal_node_id":"0.0-174.0","task_version":"test-retest-t2"},{"Rune":"rune_03_uruz","Hex":"#ffcc3399","Correct":32,"Choice":-1,"RT":-1,"Accuracy":0,"Outcome":"-10","Keys":[],"TotalKeys":0,"Block":2,"Trial":168,"Robot":3,"Valence":"Lose","Action":"Go","Sham":0,"Color":"yellow","trial_type":"pit-trial","trial_index":186,"time_elapsed":904294,"internal_node_id":"0.0-175.0","task_version":"test-retest-t2"},{"Rune":"rune_03_othalan","Hex":"#ffcc3399","Correct":-1,"Choice":-1,"RT":-1,"Accuracy":1,"Outcome":"-1","Keys":[],"TotalKeys":0,"Block":2,"Trial":169,"Robot":4,"Valence":"Lose","Action":"No-Go","Sham":0,"Color":"yellow","trial_type":"pit-trial","trial_index":187,"time_elapsed":908299,"internal_node_id":"0.0-176.0","task_version":"test-retest-t2"},{"Rune":"rune_03_naudiz","Hex":"#3366ff99","Correct":32,"Choice":32,"RT":413.6900000004098,"Accuracy":1,"Outcome":"+10","Keys":[1914.75999999966],"TotalKeys":1,"Block":2,"Trial":170,"Robot":1,"Valence":"Win","Action":"Go","Sham":0,"Color":"blue","trial_type":"pit-trial","trial_index":188,"time_elapsed":911216,"internal_node_id":"0.0-177.0","task_version":"test-retest-t2"},{"Rune":"rune_03_uruz","Hex":"#ffcc3399","Correct":32,"Choice":-1,"RT":-1,"Accuracy":0,"Outcome":"-10","Keys":[],"TotalKeys":0,"Block":2,"Trial":171,"Robot":3,"Valence":"Lose","Action":"Go","Sham":0,"Color":"yellow","trial_type":"pit-trial","trial_index":189,"time_elapsed":915221,"internal_node_id":"0.0-178.0","task_version":"test-retest-t2"},{"Rune":"rune_03_algiz","Hex":"#3366ff99","Correct":-1,"Choice":32,"RT":459.91000000049826,"Accuracy":0,"Outcome":"+1","Keys":[1960.7049999994924],"TotalKeys":1,"Block":2,"Trial":172,"Robot":2,"Valence":"Win","Action":"No-Go","Sham":0,"Color":"blue","trial_type":"pit-trial","trial_index":190,"time_elapsed":918184,"internal_node_id":"0.0-179.0","task_version":"test-retest-t2"},{"Rune":"rune_03_naudiz","Hex":"#3366ff99","Correct":32,"Choice":32,"RT":401.574999999837,"Accuracy":1,"Outcome":"+10","Keys":[1901.6750000000466],"TotalKeys":1,"Block":2,"Trial":173,"Robot":1,"Valence":"Win","Action":"Go","Sham":0,"Color":"blue","trial_type":"pit-trial","trial_index":191,"time_elapsed":921088,"internal_node_id":"0.0-180.0","task_version":"test-retest-t2"},{"Rune":"rune_03_uruz","Hex":"#ffcc3399","Correct":32,"Choice":-1,"RT":-1,"Accuracy":0,"Outcome":"-10","Keys":[],"TotalKeys":0,"Block":2,"Trial":174,"Robot":3,"Valence":"Lose","Action":"Go","Sham":0,"Color":"yellow","trial_type":"pit-trial","trial_index":192,"time_elapsed":925094,"internal_node_id":"0.0-181.0","task_version":"test-retest-t2"},{"Rune":"rune_03_othalan","Hex":"#ffcc3399","Correct":-1,"Choice":-1,"RT":-1,"Accuracy":1,"Outcome":"-1","Keys":[],"TotalKeys":0,"Block":2,"Trial":175,"Robot":4,"Valence":"Lose","Action":"No-Go","Sham":0,"Color":"yellow","trial_type":"pit-trial","trial_index":193,"time_elapsed":929100,"internal_node_id":"0.0-182.0","task_version":"test-retest-t2"},{"Rune":"rune_03_algiz","Hex":"#3366ff99","Correct":-1,"Choice":32,"RT":469.8699999998789,"Accuracy":0,"Outcome":"+10","Keys":[1969.9300000001676],"TotalKeys":1,"Block":2,"Trial":176,"Robot":2,"Valence":"Win","Action":"No-Go","Sham":1,"Color":"blue","trial_type":"pit-trial","trial_index":194,"time_elapsed":932073,"internal_node_id":"0.0-183.0","task_version":"test-retest-t2"},{"Rune":"rune_03_uruz","Hex":"#ffcc3399","Correct":32,"Choice":-1,"RT":-1,"Accuracy":0,"Outcome":"-1","Keys":[],"TotalKeys":0,"Block":2,"Trial":177,"Robot":3,"Valence":"Lose","Action":"Go","Sham":1,"Color":"yellow","trial_type":"pit-trial","trial_index":195,"time_elapsed":936077,"internal_node_id":"0.0-184.0","task_version":"test-retest-t2"},{"Rune":"rune_03_othalan","Hex":"#ffcc3399","Correct":-1,"Choice":-1,"RT":-1,"Accuracy":1,"Outcome":"-1","Keys":[],"TotalKeys":0,"Block":2,"Trial":178,"Robot":4,"Valence":"Lose","Action":"No-Go","Sham":0,"Color":"yellow","trial_type":"pit-trial","trial_index":196,"time_elapsed":940082,"internal_node_id":"0.0-185.0","task_version":"test-retest-t2"},{"Rune":"rune_03_algiz","Hex":"#3366ff99","Correct":-1,"Choice":32,"RT":390.84499999985565,"Accuracy":0,"Outcome":"+1","Keys":[1892.0349999997998],"TotalKeys":1,"Block":2,"Trial":179,"Robot":2,"Valence":"Win","Action":"No-Go","Sham":0,"Color":"blue","trial_type":"pit-trial","trial_index":197,"time_elapsed":942977,"internal_node_id":"0.0-186.0","task_version":"test-retest-t2"},{"Rune":"rune_03_naudiz","Hex":"#3366ff99","Correct":32,"Choice":32,"RT":456.4250000002794,"Accuracy":1,"Outcome":"+10","Keys":[1957.534999999567],"TotalKeys":1,"Block":2,"Trial":180,"Robot":1,"Valence":"Win","Action":"Go","Sham":0,"Color":"blue","trial_type":"pit-trial","trial_index":198,"time_elapsed":945938,"internal_node_id":"0.0-187.0","task_version":"test-retest-t2"},{"view_history":"[{\"page_index\":0,\"viewing_time\":62152.00000000012},{\"page_index\":1,\"viewing_time\":1656.25}]","rt":63808.73500000057,"trial_type":"pit-instructions","trial_index":199,"time_elapsed":1009748,"internal_node_id":"0.0-188.0","task_version":"test-retest-t2"},{"Rune":"rune_03_algiz","Hex":"#3366ff99","Correct":-1,"Choice":32,"RT":586.0649999994785,"Accuracy":0,"Outcome":"+1","Keys":[2087.79499999946],"TotalKeys":1,"Block":2,"Trial":181,"Robot":2,"Valence":"Win","Action":"No-Go","Sham":0,"Color":"blue","trial_type":"pit-trial","trial_index":200,"time_elapsed":1012841,"internal_node_id":"0.0-189.0","task_version":"test-retest-t2"},{"Rune":"rune_03_uruz","Hex":"#ffcc3399","Correct":32,"Choice":-1,"RT":-1,"Accuracy":0,"Outcome":"-10","Keys":[],"TotalKeys":0,"Block":2,"Trial":182,"Robot":3,"Valence":"Lose","Action":"Go","Sham":0,"Color":"yellow","trial_type":"pit-trial","trial_index":201,"time_elapsed":1016845,"internal_node_id":"0.0-190.0","task_version":"test-retest-t2"},{"Rune":"rune_03_naudiz","Hex":"#3366ff99","Correct":32,"Choice":32,"RT":500.18499999993946,"Accuracy":1,"Outcome":"+10","Keys":[2000.9099999997998],"TotalKeys":1,"Block":2,"Trial":183,"Robot":1,"Valence":"Win","Action":"Go","Sham":0,"Color":"blue","trial_type":"pit-trial","trial_index":202,"time_elapsed":1019849,"internal_node_id":"0.0-191.0","task_version":"test-retest-t2"},{"Rune":"rune_03_othalan","Hex":"#ffcc3399","Correct":-1,"Choice":-1,"RT":-1,"Accuracy":1,"Outcome":"-10","Keys":[],"TotalKeys":0,"Block":2,"Trial":184,"Robot":4,"Valence":"Lose","Action":"No-Go","Sham":1,"Color":"yellow","trial_type":"pit-trial","trial_index":203,"time_elapsed":1023854,"internal_node_id":"0.0-192.0","task_version":"test-retest-t2"},{"Rune":"rune_03_algiz","Hex":"#3366ff99","Correct":-1,"Choice":32,"RT":362.94000000006054,"Accuracy":0,"Outcome":"+10","Keys":[1863.924999999581],"TotalKeys":1,"Block":2,"Trial":185,"Robot":2,"Valence":"Win","Action":"No-Go","Sham":1,"Color":"blue","trial_type":"pit-trial","trial_index":204,"time_elapsed":1026722,"internal_node_id":"0.0-193.0","task_version":"test-retest-t2"},{"Rune":"rune_03_naudiz","Hex":"#3366ff99","Correct":32,"Choice":32,"RT":414.9900000002235,"Accuracy":1,"Outcome":"+10","Keys":[1916.0899999997346],"TotalKeys":1,"Block":2,"Trial":186,"Robot":1,"Valence":"Win","Action":"Go","Sham":0,"Color":"blue","trial_type":"pit-trial","trial_index":205,"time_elapsed":1029642,"internal_node_id":"0.0-194.0","task_version":"test-retest-t2"},{"Rune":"rune_03_uruz","Hex":"#ffcc3399","Correct":32,"Choice":-1,"RT":-1,"Accuracy":0,"Outcome":"-1","Keys":[],"TotalKeys":0,"Block":2,"Trial":187,"Robot":3,"Valence":"Lose","Action":"Go","Sham":1,"Color":"yellow","trial_type":"pit-trial","trial_index":206,"time_elapsed":1033646,"internal_node_id":"0.0-195.0","task_version":"test-retest-t2"},{"Rune":"rune_03_othalan","Hex":"#ffcc3399","Correct":-1,"Choice":-1,"RT":-1,"Accuracy":1,"Outcome":"-1","Keys":[],"TotalKeys":0,"Block":2,"Trial":188,"Robot":4,"Valence":"Lose","Action":"No-Go","Sham":0,"Color":"yellow","trial_type":"pit-trial","trial_index":207,"time_elapsed":1037651,"internal_node_id":"0.0-196.0","task_version":"test-retest-t2"},{"Rune":"rune_03_othalan","Hex":"#ffcc3399","Correct":-1,"Choice":-1,"RT":-1,"Accuracy":1,"Outcome":"-1","Keys":[],"TotalKeys":0,"Block":2,"Trial":189,"Robot":4,"Valence":"Lose","Action":"No-Go","Sham":0,"Color":"yellow","trial_type":"pit-trial","trial_index":208,"time_elapsed":1041656,"internal_node_id":"0.0-197.0","task_version":"test-retest-t2"},{"Rune":"rune_03_naudiz","Hex":"#3366ff99","Correct":32,"Choice":32,"RT":400.98500000010245,"Accuracy":1,"Outcome":"+10","Keys":[1901.9299999999348],"TotalKeys":1,"Block":2,"Trial":190,"Robot":1,"Valence":"Win","Action":"Go","Sham":0,"Color":"blue","trial_type":"pit-trial","trial_index":209,"time_elapsed":1044561,"internal_node_id":"0.0-198.0","task_version":"test-retest-t2"},{"Rune":"rune_03_uruz","Hex":"#ffcc3399","Correct":32,"Choice":-1,"RT":-1,"Accuracy":0,"Outcome":"-10","Keys":[],"TotalKeys":0,"Block":2,"Trial":191,"Robot":3,"Valence":"Lose","Action":"Go","Sham":0,"Color":"yellow","trial_type":"pit-trial","trial_index":210,"time_elapsed":1048565,"internal_node_id":"0.0-199.0","task_version":"test-retest-t2"},{"Rune":"rune_03_algiz","Hex":"#3366ff99","Correct":-1,"Choice":32,"RT":339.95499999960884,"Accuracy":0,"Outcome":"+1","Keys":[1840.9149999998044],"TotalKeys":1,"Block":2,"Trial":192,"Robot":2,"Valence":"Win","Action":"No-Go","Sham":0,"Color":"blue","trial_type":"pit-trial","trial_index":211,"time_elapsed":1051410,"internal_node_id":"0.0-200.0","task_version":"test-retest-t2"},{"Rune":"rune_03_algiz","Hex":"#3366ff99","Correct":-1,"Choice":32,"RT":415.0600000002887,"Accuracy":0,"Outcome":"+1","Keys":[1916.0849999999627],"TotalKeys":1,"Block":2,"Trial":193,"Robot":2,"Valence":"Win","Action":"No-Go","Sham":0,"Color":"blue","trial_type":"pit-trial","trial_index":212,"time_elapsed":1054329,"internal_node_id":"0.0-201.0","task_version":"test-retest-t2"},{"Rune":"rune_03_naudiz","Hex":"#3366ff99","Correct":32,"Choice":32,"RT":471.1699999999255,"Accuracy":1,"Outcome":"+10","Keys":[1973.1099999998696],"TotalKeys":1,"Block":2,"Trial":194,"Robot":1,"Valence":"Win","Action":"Go","Sham":0,"Color":"blue","trial_type":"pit-trial","trial_index":213,"time_elapsed":1057305,"internal_node_id":"0.0-202.0","task_version":"test-retest-t2"},{"Rune":"rune_03_othalan","Hex":"#ffcc3399","Correct":-1,"Choice":-1,"RT":-1,"Accuracy":1,"Outcome":"-1","Keys":[],"TotalKeys":0,"Block":2,"Trial":195,"Robot":4,"Valence":"Lose","Action":"No-Go","Sham":0,"Color":"yellow","trial_type":"pit-trial","trial_index":214,"time_elapsed":1061310,"internal_node_id":"0.0-203.0","task_version":"test-retest-t2"},{"Rune":"rune_03_uruz","Hex":"#ffcc3399","Correct":32,"Choice":-1,"RT":-1,"Accuracy":0,"Outcome":"-10","Keys":[],"TotalKeys":0,"Block":2,"Trial":196,"Robot":3,"Valence":"Lose","Action":"Go","Sham":0,"Color":"yellow","trial_type":"pit-trial","trial_index":215,"time_elapsed":1065315,"internal_node_id":"0.0-204.0","task_version":"test-retest-t2"},{"Rune":"rune_03_uruz","Hex":"#ffcc3399","Correct":32,"Choice":-1,"RT":-1,"Accuracy":0,"Outcome":"-10","Keys":[],"TotalKeys":0,"Block":2,"Trial":197,"Robot":3,"Valence":"Lose","Action":"Go","Sham":0,"Color":"yellow","trial_type":"pit-trial","trial_index":216,"time_elapsed":1069320,"internal_node_id":"0.0-205.0","task_version":"test-retest-t2"},{"Rune":"rune_03_naudiz","Hex":"#3366ff99","Correct":32,"Choice":32,"RT":401.27000000025146,"Accuracy":1,"Outcome":"+1","Keys":[1902.3000000005122],"TotalKeys":1,"Block":2,"Trial":198,"Robot":1,"Valence":"Win","Action":"Go","Sham":1,"Color":"blue","trial_type":"pit-trial","trial_index":217,"time_elapsed":1072226,"internal_node_id":"0.0-206.0","task_version":"test-retest-t2"},{"Rune":"rune_03_algiz","Hex":"#3366ff99","Correct":-1,"Choice":32,"RT":463.8950000000186,"Accuracy":0,"Outcome":"+1","Keys":[1964.9599999992643],"TotalKeys":1,"Block":2,"Trial":199,"Robot":2,"Valence":"Win","Action":"No-Go","Sham":0,"Color":"blue","trial_type":"pit-trial","trial_index":218,"time_elapsed":1075195,"internal_node_id":"0.0-207.0","task_version":"test-retest-t2"},{"Rune":"rune_03_othalan","Hex":"#ffcc3399","Correct":-1,"Choice":-1,"RT":-1,"Accuracy":1,"Outcome":"-1","Keys":[],"TotalKeys":0,"Block":2,"Trial":200,"Robot":4,"Valence":"Lose","Action":"No-Go","Sham":0,"Color":"yellow","trial_type":"pit-trial","trial_index":219,"time_elapsed":1079199,"internal_node_id":"0.0-208.0","task_version":"test-retest-t2"},{"Rune":"rune_03_othalan","Hex":"#ffcc3399","Correct":-1,"Choice":-1,"RT":-1,"Accuracy":1,"Outcome":"-1","Keys":[],"TotalKeys":0,"Block":2,"Trial":201,"Robot":4,"Valence":"Lose","Action":"No-Go","Sham":0,"Color":"yellow","trial_type":"pit-trial","trial_index":220,"time_elapsed":1083202,"internal_node_id":"0.0-209.0","task_version":"test-retest-t2"},{"Rune":"rune_03_naudiz","Hex":"#3366ff99","Correct":32,"Choice":32,"RT":456.04000000003725,"Accuracy":1,"Outcome":"+10","Keys":[1957.094999999972],"TotalKeys":1,"Block":2,"Trial":202,"Robot":1,"Valence":"Win","Action":"Go","Sham":0,"Color":"blue","trial_type":"pit-trial","trial_index":221,"time_elapsed":1086162,"internal_node_id":"0.0-210.0","task_version":"test-retest-t2"},{"Rune":"rune_03_algiz","Hex":"#3366ff99","Correct":-1,"Choice":32,"RT":511.5900000000838,"Accuracy":0,"Outcome":"+1","Keys":[2012.2299999992829],"TotalKeys":1,"Block":2,"Trial":203,"Robot":2,"Valence":"Win","Action":"No-Go","Sham":0,"Color":"blue","trial_type":"pit-trial","trial_index":222,"time_elapsed":1089178,"internal_node_id":"0.0-211.0","task_version":"test-retest-t2"},{"Rune":"rune_03_uruz","Hex":"#ffcc3399","Correct":32,"Choice":-1,"RT":-1,"Accuracy":0,"Outcome":"-10","Keys":[],"TotalKeys":0,"Block":2,"Trial":204,"Robot":3,"Valence":"Lose","Action":"Go","Sham":0,"Color":"yellow","trial_type":"pit-trial","trial_index":223,"time_elapsed":1093182,"internal_node_id":"0.0-212.0","task_version":"test-retest-t2"},{"Rune":"rune_03_othalan","Hex":"#ffcc3399","Correct":-1,"Choice":-1,"RT":-1,"Accuracy":1,"Outcome":"-1","Keys":[],"TotalKeys":0,"Block":2,"Trial":205,"Robot":4,"Valence":"Lose","Action":"No-Go","Sham":0,"Color":"yellow","trial_type":"pit-trial","trial_index":224,"time_elapsed":1097186,"internal_node_id":"0.0-213.0","task_version":"test-retest-t2"},{"Rune":"rune_03_naudiz","Hex":"#3366ff99","Correct":32,"Choice":32,"RT":408.8849999997765,"Accuracy":1,"Outcome":"+10","Keys":[1908.9950000008103],"TotalKeys":1,"Block":2,"Trial":206,"Robot":1,"Valence":"Win","Action":"Go","Sham":0,"Color":"blue","trial_type":"pit-trial","trial_index":225,"time_elapsed":1100099,"internal_node_id":"0.0-214.0","task_version":"test-retest-t2"},{"Rune":"rune_03_algiz","Hex":"#3366ff99","Correct":-1,"Choice":32,"RT":454.6849999995902,"Accuracy":0,"Outcome":"+1","Keys":[1955.619999999646],"TotalKeys":1,"Block":2,"Trial":207,"Robot":2,"Valence":"Win","Action":"No-Go","Sham":0,"Color":"blue","trial_type":"pit-trial","trial_index":226,"time_elapsed":1103057,"internal_node_id":"0.0-215.0","task_version":"test-retest-t2"},{"Rune":"rune_03_uruz","Hex":"#ffcc3399","Correct":32,"Choice":-1,"RT":-1,"Accuracy":0,"Outcome":"-1","Keys":[],"TotalKeys":0,"Block":2,"Trial":208,"Robot":3,"Valence":"Lose","Action":"Go","Sham":1,"Color":"yellow","trial_type":"pit-trial","trial_index":227,"time_elapsed":1107061,"internal_node_id":"0.0-216.0","task_version":"test-retest-t2"},{"Rune":"rune_03_othalan","Hex":"#ffcc3399","Correct":-1,"Choice":-1,"RT":-1,"Accuracy":1,"Outcome":"-1","Keys":[],"TotalKeys":0,"Block":2,"Trial":209,"Robot":4,"Valence":"Lose","Action":"No-Go","Sham":0,"Color":"yellow","trial_type":"pit-trial","trial_index":228,"time_elapsed":1111065,"internal_node_id":"0.0-217.0","task_version":"test-retest-t2"},{"Rune":"rune_03_naudiz","Hex":"#3366ff99","Correct":32,"Choice":32,"RT":337.0749999994878,"Accuracy":1,"Outcome":"+10","Keys":[1838.0999999998603],"TotalKeys":1,"Block":2,"Trial":210,"Robot":1,"Valence":"Win","Action":"Go","Sham":0,"Color":"blue","trial_type":"pit-trial","trial_index":229,"time_elapsed":1113906,"internal_node_id":"0.0-218.0","task_version":"test-retest-t2"},{"Rune":"rune_03_algiz","Hex":"#3366ff99","Correct":-1,"Choice":32,"RT":416.4250000002794,"Accuracy":0,"Outcome":"+1","Keys":[1916.7799999995623],"TotalKeys":1,"Block":2,"Trial":211,"Robot":2,"Valence":"Win","Action":"No-Go","Sham":0,"Color":"blue","trial_type":"pit-trial","trial_index":230,"time_elapsed":1116826,"internal_node_id":"0.0-219.0","task_version":"test-retest-t2"},{"Rune":"rune_03_uruz","Hex":"#ffcc3399","Correct":32,"Choice":-1,"RT":-1,"Accuracy":0,"Outcome":"-10","Keys":[],"TotalKeys":0,"Block":2,"Trial":212,"Robot":3,"Valence":"Lose","Action":"Go","Sham":0,"Color":"yellow","trial_type":"pit-trial","trial_index":231,"time_elapsed":1120830,"internal_node_id":"0.0-220.0","task_version":"test-retest-t2"},{"Rune":"rune_03_othalan","Hex":"#ffcc3399","Correct":-1,"Choice":-1,"RT":-1,"Accuracy":1,"Outcome":"-1","Keys":[],"TotalKeys":0,"Block":2,"Trial":213,"Robot":4,"Valence":"Lose","Action":"No-Go","Sham":0,"Color":"yellow","trial_type":"pit-trial","trial_index":232,"time_elapsed":1124834,"internal_node_id":"0.0-221.0","task_version":"test-retest-t2"},{"Rune":"rune_03_naudiz","Hex":"#3366ff99","Correct":32,"Choice":32,"RT":343.22499999962747,"Accuracy":1,"Outcome":"+10","Keys":[1845.1899999999441],"TotalKeys":1,"Block":2,"Trial":214,"Robot":1,"Valence":"Win","Action":"Go","Sham":0,"Color":"blue","trial_type":"pit-trial","trial_index":233,"time_elapsed":1127683,"internal_node_id":"0.0-222.0","task_version":"test-retest-t2"},{"Rune":"rune_03_uruz","Hex":"#ffcc3399","Correct":32,"Choice":-1,"RT":-1,"Accuracy":0,"Outcome":"-10","Keys":[],"TotalKeys":0,"Block":2,"Trial":215,"Robot":3,"Valence":"Lose","Action":"Go","Sham":0,"Color":"yellow","trial_type":"pit-trial","trial_index":234,"time_elapsed":1131686,"internal_node_id":"0.0-223.0","task_version":"test-retest-t2"},{"Rune":"rune_03_algiz","Hex":"#3366ff99","Correct":-1,"Choice":32,"RT":411.9749999998603,"Accuracy":0,"Outcome":"+1","Keys":[1912.1599999996834],"TotalKeys":1,"Block":2,"Trial":216,"Robot":2,"Valence":"Win","Action":"No-Go","Sham":0,"Color":"blue","trial_type":"pit-trial","trial_index":235,"time_elapsed":1134602,"internal_node_id":"0.0-224.0","task_version":"test-retest-t2"},{"Rune":"rune_03_uruz","Hex":"#ffcc3399","Correct":32,"Choice":-1,"RT":-1,"Accuracy":0,"Outcome":"-10","Keys":[],"TotalKeys":0,"Block":2,"Trial":217,"Robot":3,"Valence":"Lose","Action":"Go","Sham":0,"Color":"yellow","trial_type":"pit-trial","trial_index":236,"time_elapsed":1138606,"internal_node_id":"0.0-225.0","task_version":"test-retest-t2"},{"Rune":"rune_03_naudiz","Hex":"#3366ff99","Correct":32,"Choice":32,"RT":380.2749999994412,"Accuracy":1,"Outcome":"+1","Keys":[1880.4250000002794],"TotalKeys":1,"Block":2,"Trial":218,"Robot":1,"Valence":"Win","Action":"Go","Sham":1,"Color":"blue","trial_type":"pit-trial","trial_index":237,"time_elapsed":1141489,"internal_node_id":"0.0-226.0","task_version":"test-retest-t2"},{"Rune":"rune_03_othalan","Hex":"#ffcc3399","Correct":-1,"Choice":-1,"RT":-1,"Accuracy":1,"Outcome":"-10","Keys":[],"TotalKeys":0,"Block":2,"Trial":219,"Robot":4,"Valence":"Lose","Action":"No-Go","Sham":1,"Color":"yellow","trial_type":"pit-trial","trial_index":238,"time_elapsed":1145494,"internal_node_id":"0.0-227.0","task_version":"test-retest-t2"},{"Rune":"rune_03_algiz","Hex":"#3366ff99","Correct":-1,"Choice":32,"RT":443.910000000149,"Accuracy":0,"Outcome":"+10","Keys":[1944.1150000002235],"TotalKeys":1,"Block":2,"Trial":220,"Robot":2,"Valence":"Win","Action":"No-Go","Sham":1,"Color":"blue","trial_type":"pit-trial","trial_index":239,"time_elapsed":1148441,"internal_node_id":"0.0-228.0","task_version":"test-retest-t2"},{"Rune":"rune_03_naudiz","Hex":"#3366ff99","Correct":32,"Choice":32,"RT":536.234999999404,"Accuracy":1,"Outcome":"+10","Keys":[2037.3150000006426],"TotalKeys":1,"Block":2,"Trial":221,"Robot":1,"Valence":"Win","Action":"Go","Sham":0,"Color":"blue","trial_type":"pit-trial","trial_index":240,"time_elapsed":1151482,"internal_node_id":"0.0-229.0","task_version":"test-retest-t2"},{"Rune":"rune_03_algiz","Hex":"#3366ff99","Correct":-1,"Choice":32,"RT":415.25499999988824,"Accuracy":0,"Outcome":"+1","Keys":[1916.3300000000745],"TotalKeys":1,"Block":2,"Trial":222,"Robot":2,"Valence":"Win","Action":"No-Go","Sham":0,"Color":"blue","trial_type":"pit-trial","trial_index":241,"time_elapsed":1154402,"internal_node_id":"0.0-230.0","task_version":"test-retest-t2"},{"Rune":"rune_03_uruz","Hex":"#ffcc3399","Correct":32,"Choice":-1,"RT":-1,"Accuracy":0,"Outcome":"-10","Keys":[],"TotalKeys":0,"Block":2,"Trial":223,"Robot":3,"Valence":"Lose","Action":"Go","Sham":0,"Color":"yellow","trial_type":"pit-trial","trial_index":242,"time_elapsed":1158406,"internal_node_id":"0.0-231.0","task_version":"test-retest-t2"},{"Rune":"rune_03_othalan","Hex":"#ffcc3399","Correct":-1,"Choice":-1,"RT":-1,"Accuracy":1,"Outcome":"-1","Keys":[],"TotalKeys":0,"Block":2,"Trial":224,"Robot":4,"Valence":"Lose","Action":"No-Go","Sham":0,"Color":"yellow","trial_type":"pit-trial","trial_index":243,"time_elapsed":1162411,"internal_node_id":"0.0-232.0","task_version":"test-retest-t2"},{"Rune":"rune_03_uruz","Hex":"#ffcc3399","Correct":32,"Choice":-1,"RT":-1,"Accuracy":0,"Outcome":"-1","Keys":[],"TotalKeys":0,"Block":2,"Trial":225,"Robot":3,"Valence":"Lose","Action":"Go","Sham":1,"Color":"yellow","trial_type":"pit-trial","trial_index":244,"time_elapsed":1166413,"internal_node_id":"0.0-233.0","task_version":"test-retest-t2"},{"Rune":"rune_03_naudiz","Hex":"#3366ff99","Correct":32,"Choice":32,"RT":443.3549999992829,"Accuracy":1,"Outcome":"+10","Keys":[1943.7400000004563],"TotalKeys":1,"Block":2,"Trial":226,"Robot":1,"Valence":"Win","Action":"Go","Sham":0,"Color":"blue","trial_type":"pit-trial","trial_index":245,"time_elapsed":1169361,"internal_node_id":"0.0-234.0","task_version":"test-retest-t2"},{"Rune":"rune_03_algiz","Hex":"#3366ff99","Correct":-1,"Choice":32,"RT":480.4200000008568,"Accuracy":0,"Outcome":"+1","Keys":[1981.5099999995437],"TotalKeys":1,"Block":2,"Trial":227,"Robot":2,"Valence":"Win","Action":"No-Go","Sham":0,"Color":"blue","trial_type":"pit-trial","trial_index":246,"time_elapsed":1172345,"internal_node_id":"0.0-235.0","task_version":"test-retest-t2"},{"Rune":"rune_03_othalan","Hex":"#ffcc3399","Correct":-1,"Choice":-1,"RT":-1,"Accuracy":1,"Outcome":"-1","Keys":[],"TotalKeys":0,"Block":2,"Trial":228,"Robot":4,"Valence":"Lose","Action":"No-Go","Sham":0,"Color":"yellow","trial_type":"pit-trial","trial_index":247,"time_elapsed":1176350,"internal_node_id":"0.0-236.0","task_version":"test-retest-t2"},{"Rune":"rune_03_uruz","Hex":"#ffcc3399","Correct":32,"Choice":-1,"RT":-1,"Accuracy":0,"Outcome":"-10","Keys":[],"TotalKeys":0,"Block":2,"Trial":229,"Robot":3,"Valence":"Lose","Action":"Go","Sham":0,"Color":"yellow","trial_type":"pit-trial","trial_index":248,"time_elapsed":1180356,"internal_node_id":"0.0-237.0","task_version":"test-retest-t2"},{"Rune":"rune_03_algiz","Hex":"#3366ff99","Correct":-1,"Choice":32,"RT":406.51999999955297,"Accuracy":0,"Outcome":"+1","Keys":[1906.5799999998417],"TotalKeys":1,"Block":2,"Trial":230,"Robot":2,"Valence":"Win","Action":"No-Go","Sham":0,"Color":"blue","trial_type":"pit-trial","trial_index":249,"time_elapsed":1183266,"internal_node_id":"0.0-238.0","task_version":"test-retest-t2"},{"Rune":"rune_03_othalan","Hex":"#ffcc3399","Correct":-1,"Choice":-1,"RT":-1,"Accuracy":1,"Outcome":"-1","Keys":[],"TotalKeys":0,"Block":2,"Trial":231,"Robot":4,"Valence":"Lose","Action":"No-Go","Sham":0,"Color":"yellow","trial_type":"pit-trial","trial_index":250,"time_elapsed":1187270,"internal_node_id":"0.0-239.0","task_version":"test-retest-t2"},{"Rune":"rune_03_naudiz","Hex":"#3366ff99","Correct":32,"Choice":32,"RT":434.80999999982305,"Accuracy":1,"Outcome":"+10","Keys":[1936.3699999994133],"TotalKeys":1,"Block":2,"Trial":232,"Robot":1,"Valence":"Win","Action":"Go","Sham":0,"Color":"blue","trial_type":"pit-trial","trial_index":251,"time_elapsed":1190210,"internal_node_id":"0.0-240.0","task_version":"test-retest-t2"},{"Rune":"rune_03_othalan","Hex":"#ffcc3399","Correct":-1,"Choice":-1,"RT":-1,"Accuracy":1,"Outcome":"-1","Keys":[],"TotalKeys":0,"Block":2,"Trial":233,"Robot":4,"Valence":"Lose","Action":"No-Go","Sham":0,"Color":"yellow","trial_type":"pit-trial","trial_index":252,"time_elapsed":1194214,"internal_node_id":"0.0-241.0","task_version":"test-retest-t2"},{"Rune":"rune_03_naudiz","Hex":"#3366ff99","Correct":32,"Choice":32,"RT":420.454999999376,"Accuracy":1,"Outcome":"+10","Keys":[1921.4750000000931],"TotalKeys":1,"Block":2,"Trial":234,"Robot":1,"Valence":"Win","Action":"Go","Sham":0,"Color":"blue","trial_type":"pit-trial","trial_index":253,"time_elapsed":1197139,"internal_node_id":"0.0-242.0","task_version":"test-retest-t2"},{"Rune":"rune_03_uruz","Hex":"#ffcc3399","Correct":32,"Choice":-1,"RT":-1,"Accuracy":0,"Outcome":"-10","Keys":[],"TotalKeys":0,"Block":2,"Trial":235,"Robot":3,"Valence":"Lose","Action":"Go","Sham":0,"Color":"yellow","trial_type":"pit-trial","trial_index":254,"time_elapsed":1201142,"internal_node_id":"0.0-243.0","task_version":"test-retest-t2"},{"Rune":"rune_03_algiz","Hex":"#3366ff99","Correct":-1,"Choice":32,"RT":323.7700000000186,"Accuracy":0,"Outcome":"+1","Keys":[1824.8400000000838],"TotalKeys":1,"Block":2,"Trial":236,"Robot":2,"Valence":"Win","Action":"No-Go","Sham":0,"Color":"blue","trial_type":"pit-trial","trial_index":255,"time_elapsed":1203969,"internal_node_id":"0.0-244.0","task_version":"test-retest-t2"},{"Rune":"rune_03_naudiz","Hex":"#3366ff99","Correct":32,"Choice":32,"RT":375.6250000006985,"Accuracy":1,"Outcome":"+1","Keys":[1877.5399999993388],"TotalKeys":1,"Block":2,"Trial":237,"Robot":1,"Valence":"Win","Action":"Go","Sham":1,"Color":"blue","trial_type":"pit-trial","trial_index":256,"time_elapsed":1206850,"internal_node_id":"0.0-245.0","task_version":"test-retest-t2"},{"Rune":"rune_03_uruz","Hex":"#ffcc3399","Correct":32,"Choice":-1,"RT":-1,"Accuracy":0,"Outcome":"-10","Keys":[],"TotalKeys":0,"Block":2,"Trial":238,"Robot":3,"Valence":"Lose","Action":"Go","Sham":0,"Color":"yellow","trial_type":"pit-trial","trial_index":257,"time_elapsed":1210855,"internal_node_id":"0.0-246.0","task_version":"test-retest-t2"},{"Rune":"rune_03_algiz","Hex":"#3366ff99","Correct":-1,"Choice":32,"RT":323.2599999993108,"Accuracy":0,"Outcome":"+10","Keys":[1823.405000000028],"TotalKeys":1,"Block":2,"Trial":239,"Robot":2,"Valence":"Win","Action":"No-Go","Sham":1,"Color":"blue","trial_type":"pit-trial","trial_index":258,"time_elapsed":1213682,"internal_node_id":"0.0-247.0","task_version":"test-retest-t2"},{"Rune":"rune_03_othalan","Hex":"#ffcc3399","Correct":-1,"Choice":-1,"RT":-1,"Accuracy":1,"Outcome":"-10","Keys":[],"TotalKeys":0,"Block":2,"Trial":240,"Robot":4,"Valence":"Lose","Action":"No-Go","Sham":1,"Color":"yellow","trial_type":"pit-trial","trial_index":259,"time_elapsed":1217687,"internal_node_id":"0.0-248.0","task_version":"test-retest-t2"},{"view_history":"[{\"page_index\":0,\"viewing_time\":4452.310000000754}]","rt":4452.800000000047,"trial_type":"pit-instructions","trial_index":260,"time_elapsed":1222141,"internal_node_id":"0.0-249.0","task_version":"test-retest-t2"},{"rt":30062.050000000512,"responses":{"difficulty":"4","fun":"4","clarity":"4","strategy":"No","feedback":"NA"},"survey":"debrief","trial_type":"survey-debrief","trial_index":261,"time_elapsed":1252206,"internal_node_id":"0.0-250.0","task_version":"test-retest-t2"},{"rt":15087.88500000094,"stimulus":"You earned a bonus of $0.74 out of $1.5.<br><br>Press any key to complete the experiment.","key_press":75,"trial_type":"html-keyboard-response","trial_index":262,"time_elapsed":1267297,"internal_node_id":"0.0-251.0","task_version":"test-retest-t2","accuracy":0.49166666666666664,"bonus":0.74,"interactions":"[{\"event\":\"blur\",\"trial\":138,\"time\":687044},{\"event\":\"focus\",\"trial\":138,\"time\":728456},{\"event\":\"blur\",\"trial\":199,\"time\":963676},{\"event\":\"focus\",\"trial\":199,\"time\":1007967}]"}]