[{"slider_type":"valence","raw_loc":621,"loc":0.742,"trial_type":"affective-slider","trial_index":0,"time_elapsed":6775,"internal_node_id":"0.0-0.0","task_version":"test-retest-t2"},{"responses":{"Q02":"0","Q07":"0","Q04":"0","Q03":"0","Q08":"0","Q01":"0","Q06":"0","Q05":"0"},"rt":28926,"survey":"gad7","trial_type":"survey-template","trial_index":1,"time_elapsed":35706,"internal_node_id":"0.0-1.0","task_version":"test-retest-t2"},{"view_history":"[{\"page_index\":0,\"viewing_time\":3106},{\"page_index\":1,\"viewing_time\":1280},{\"page_index\":2,\"viewing_time\":2511},{\"page_index\":3,\"viewing_time\":4219},{\"page_index\":4,\"viewing_time\":3043},{\"page_index\":5,\"viewing_time\":1836}]","rt":15996,"trial_type":"pit-instructions","trial_index":2,"time_elapsed":51709,"internal_node_id":"0.0-2.0-0.0","task_version":"test-retest-t2"},{"Rune":"rune_00_ingz","Hex":"#FFFFF080","Correct":32,"Choice":32,"RT":303,"Accuracy":1,"Outcome":"+10","Keys":[1804],"TotalKeys":1,"Block":0,"Action":"Go","trial_type":"pit-trial","trial_index":3,"time_elapsed":54518,"internal_node_id":"0.0-2.0-1.0-0.0","task_version":"test-retest-t2"},{"Rune":"rune_00_ingz","Hex":"#FFFFF080","Correct":32,"Choice":32,"RT":216,"Accuracy":1,"Outcome":"+10","Keys":[1717],"TotalKeys":1,"Block":0,"Action":"Go","trial_type":"pit-trial","trial_index":4,"time_elapsed":57238,"internal_node_id":"0.0-2.0-1.0-0.1","task_version":"test-retest-t2"},{"Rune":"rune_00_ingz","Hex":"#FFFFF080","Correct":32,"Choice":32,"RT":144,"Accuracy":1,"Outcome":"+10","Keys":[1644],"TotalKeys":1,"Block":0,"Action":"Go","trial_type":"pit-trial","trial_index":5,"time_elapsed":59885,"internal_node_id":"0.0-2.0-1.0-0.2","task_version":"test-retest-t2"},{"Rune":"rune_00_ingz","Hex":"#FFFFF080","Correct":32,"Choice":32,"RT":161,"Accuracy":1,"Outcome":"+10","Keys":[1662],"TotalKeys":1,"Block":0,"Action":"Go","trial_type":"pit-trial","trial_index":6,"time_elapsed":62549,"internal_node_id":"0.0-2.0-1.0-0.3","task_version":"test-retest-t2"},{"view_history":"[{\"page_index\":0,\"viewing_time\":2136}]","rt":2136,"trial_type":"pit-instructions","trial_index":7,"time_elapsed":64687,"internal_node_id":"0.0-2.0-2.0","task_version":"test-retest-t2"},{"Rune":"rune_00_isaz","Hex":"#FFFFF080","Correct":-1,"Choice":-1,"RT":-1,"Accuracy":1,"Outcome":"+10","Keys":[],"TotalKeys":0,"Block":0,"Action":"No-Go","trial_type":"pit-trial","trial_index":8,"time_elapsed":68692,"internal_node_id":"0.0-2.0-3.0-0.0","task_version":"test-retest-t2"},{"Rune":"rune_00_isaz","Hex":"#FFFFF080","Correct":-1,"Choice":-1,"RT":-1,"Accuracy":1,"Outcome":"+10","Keys":[],"TotalKeys":0,"Block":0,"Action":"No-Go","trial_type":"pit-trial","trial_index":9,"time_elapsed":72696,"internal_node_id":"0.0-2.0-3.0-0.1","task_version":"test-retest-t2"},{"Rune":"rune_00_isaz","Hex":"#FFFFF080","Correct":-1,"Choice":-1,"RT":-1,"Accuracy":1,"Outcome":"+10","Keys":[],"TotalKeys":0,"Block":0,"Action":"No-Go","trial_type":"pit-trial","trial_index":10,"time_elapsed":76699,"internal_node_id":"0.0-2.0-3.0-0.2","task_version":"test-retest-t2"},{"Rune":"rune_00_isaz","Hex":"#FFFFF080","Correct":-1,"Choice":-1,"RT":-1,"Accuracy":1,"Outcome":"+10","Keys":[],"TotalKeys":0,"Block":0,"Action":"No-Go","trial_type":"pit-trial","trial_index":11,"time_elapsed":80702,"internal_node_id":"0.0-2.0-3.0-0.3","task_version":"test-retest-t2"},{"view_history":"[{\"page_index\":0,\"viewing_time\":2115},{\"page_index\":1,\"viewing_time\":4975},{\"page_index\":2,\"viewing_time\":8471},{\"page_index\":3,\"viewing_time\":2923},{\"page_index\":4,\"viewing_time\":2589},{\"page_index\":5,\"viewing_time\":3620},{\"page_index\":6,\"viewing_time\":8495},{\"page_index\":7,\"viewing_time\":1746}]","rt":34934,"trial_type":"pit-instructions","trial_index":12,"time_elapsed":115637,"internal_node_id":"0.0-2.0-4.0","task_version":"test-retest-t2"},{"responses":["Do nothing","+10","-1","True","Yes"],"num_errors":0,"rt":11688,"trial_type":"pit-comprehension","trial_index":13,"time_elapsed":127331,"internal_node_id":"0.0-2.0-5.0","task_version":"test-retest-t2"},{"trial_type":"call-function","trial_index":14,"time_elapsed":127335,"internal_node_id":"0.0-3.0","task_version":"test-retest-t2"},{"view_history":"[{\"page_index\":0,\"viewing_time\":1426},{\"page_index\":1,\"viewing_time\":1471},{\"page_index\":2,\"viewing_time\":2870}]","rt":5767,"trial_type":"pit-instructions","trial_index":15,"time_elapsed":133102,"internal_node_id":"0.0-4.0","task_version":"test-retest-t2"},{"Rune":"rune_03_naudiz","Hex":"#ffcc3399","Correct":32,"Choice":32,"RT":378,"Accuracy":1,"Outcome":"+1","Keys":[1877],"TotalKeys":1,"Block":1,"Trial":1,"Robot":1,"Valence":"Win","Action":"Go","Sham":1,"Color":"yellow","trial_type":"pit-trial","trial_index":16,"time_elapsed":135986,"internal_node_id":"0.0-5.0","task_version":"test-retest-t2"},{"Rune":"rune_03_algiz","Hex":"#3366ff99","Correct":-1,"Choice":-1,"RT":-1,"Accuracy":1,"Outcome":"-10","Keys":[],"TotalKeys":0,"Block":1,"Trial":2,"Robot":4,"Valence":"Lose","Action":"No-Go","Sham":1,"Color":"blue","trial_type":"pit-trial","trial_index":17,"time_elapsed":139989,"internal_node_id":"0.0-6.0","task_version":"test-retest-t2"},{"Rune":"rune_03_othalan","Hex":"#ffcc3399","Correct":-1,"Choice":32,"RT":430,"Accuracy":0,"Outcome":"+1","Keys":[1931],"TotalKeys":1,"Block":1,"Trial":3,"Robot":2,"Valence":"Win","Action":"No-Go","Sham":0,"Color":"yellow","trial_type":"pit-trial","trial_index":18,"time_elapsed":142921,"internal_node_id":"0.0-7.0","task_version":"test-retest-t2"},{"Rune":"rune_03_uruz","Hex":"#3366ff99","Correct":32,"Choice":32,"RT":370,"Accuracy":1,"Outcome":"-1","Keys":[1870],"TotalKeys":1,"Block":1,"Trial":4,"Robot":3,"Valence":"Lose","Action":"Go","Sham":0,"Color":"blue","trial_type":"pit-trial","trial_index":19,"time_elapsed":145793,"internal_node_id":"0.0-8.0","task_version":"test-retest-t2"},{"Rune":"rune_03_othalan","Hex":"#ffcc3399","Correct":-1,"Choice":32,"RT":377,"Accuracy":0,"Outcome":"+10","Keys":[1877],"TotalKeys":1,"Block":1,"Trial":5,"Robot":2,"Valence":"Win","Action":"No-Go","Sham":1,"Color":"yellow","trial_type":"pit-trial","trial_index":20,"time_elapsed":148672,"internal_node_id":"0.0-9.0","task_version":"test-retest-t2"},{"Rune":"rune_03_algiz","Hex":"#3366ff99","Correct":-1,"Choice":32,"RT":1073,"Accuracy":0,"Outcome":"-10","Keys":[2574],"TotalKeys":1,"Block":1,"Trial":6,"Robot":4,"Valence":"Lose","Action":"No-Go","Sham":0,"Color":"blue","trial_type":"pit-trial","trial_index":21,"time_elapsed":152250,"internal_node_id":"0.0-10.0","task_version":"test-retest-t2"},{"Rune":"rune_03_uruz","Hex":"#3366ff99","Correct":32,"Choice":32,"RT":432,"Accuracy":1,"Outcome":"-1","Keys":[1932],"TotalKeys":1,"Block":1,"Trial":7,"Robot":3,"Valence":"Lose","Action":"Go","Sham":0,"Color":"blue","trial_type":"pit-trial","trial_index":22,"time_elapsed":155186,"internal_node_id":"0.0-11.0","task_version":"test-retest-t2"},{"Rune":"rune_03_naudiz","Hex":"#ffcc3399","Correct":32,"Choice":32,"RT":544,"Accuracy":1,"Outcome":"+10","Keys":[2045],"TotalKeys":1,"Block":1,"Trial":8,"Robot":1,"Valence":"Win","Action":"Go","Sham":0,"Color":"yellow","trial_type":"pit-trial","trial_index":23,"time_elapsed":158234,"internal_node_id":"0.0-12.0","task_version":"test-retest-t2"},{"Rune":"rune_03_algiz","Hex":"#3366ff99","Correct":-1,"Choice":-1,"RT":-1,"Accuracy":1,"Outcome":"-1","Keys":[],"TotalKeys":0,"Block":1,"Trial":9,"Robot":4,"Valence":"Lose","Action":"No-Go","Sham":0,"Color":"blue","trial_type":"pit-trial","trial_index":24,"time_elapsed":162238,"internal_node_id":"0.0-13.0","task_version":"test-retest-t2"},{"Rune":"rune_03_uruz","Hex":"#3366ff99","Correct":32,"Choice":32,"RT":357,"Accuracy":1,"Outcome":"-1","Keys":[1857],"TotalKeys":1,"Block":1,"Trial":10,"Robot":3,"Valence":"Lose","Action":"Go","Sham":0,"Color":"blue","trial_type":"pit-trial","trial_index":25,"time_elapsed":165096,"internal_node_id":"0.0-14.0","task_version":"test-retest-t2"},{"Rune":"rune_03_othalan","Hex":"#ffcc3399","Correct":-1,"Choice":32,"RT":441,"Accuracy":0,"Outcome":"+1","Keys":[1941],"TotalKeys":1,"Block":1,"Trial":11,"Robot":2,"Valence":"Win","Action":"No-Go","Sham":0,"Color":"yellow","trial_type":"pit-trial","trial_index":26,"time_elapsed":168039,"internal_node_id":"0.0-15.0","task_version":"test-retest-t2"},{"Rune":"rune_03_naudiz","Hex":"#ffcc3399","Correct":32,"Choice":32,"RT":634,"Accuracy":1,"Outcome":"+10","Keys":[2133],"TotalKeys":1,"Block":1,"Trial":12,"Robot":1,"Valence":"Win","Action":"Go","Sham":0,"Color":"yellow","trial_type":"pit-trial","trial_index":27,"time_elapsed":171177,"internal_node_id":"0.0-16.0","task_version":"test-retest-t2"},{"Rune":"rune_03_algiz","Hex":"#3366ff99","Correct":-1,"Choice":-1,"RT":-1,"Accuracy":1,"Outcome":"-1","Keys":[],"TotalKeys":0,"Block":1,"Trial":13,"Robot":4,"Valence":"Lose","Action":"No-Go","Sham":0,"Color":"blue","trial_type":"pit-trial","trial_index":28,"time_elapsed":175179,"internal_node_id":"0.0-17.0","task_version":"test-retest-t2"},{"Rune":"rune_03_naudiz","Hex":"#ffcc3399","Correct":32,"Choice":32,"RT":567,"Accuracy":1,"Outcome":"+10","Keys":[2067],"TotalKeys":1,"Block":1,"Trial":14,"Robot":1,"Valence":"Win","Action":"Go","Sham":0,"Color":"yellow","trial_type":"pit-trial","trial_index":29,"time_elapsed":178248,"internal_node_id":"0.0-18.0","task_version":"test-retest-t2"},{"Rune":"rune_03_uruz","Hex":"#3366ff99","Correct":32,"Choice":32,"RT":784,"Accuracy":1,"Outcome":"-1","Keys":[2285],"TotalKeys":1,"Block":1,"Trial":15,"Robot":3,"Valence":"Lose","Action":"Go","Sham":0,"Color":"blue","trial_type":"pit-trial","trial_index":30,"time_elapsed":181537,"internal_node_id":"0.0-19.0","task_version":"test-retest-t2"},{"Rune":"rune_03_othalan","Hex":"#ffcc3399","Correct":-1,"Choice":-1,"RT":-1,"Accuracy":1,"Outcome":"+10","Keys":[],"TotalKeys":0,"Block":1,"Trial":16,"Robot":2,"Valence":"Win","Action":"No-Go","Sham":0,"Color":"yellow","trial_type":"pit-trial","trial_index":31,"time_elapsed":185541,"internal_node_id":"0.0-20.0","task_version":"test-retest-t2"},{"Rune":"rune_03_naudiz","Hex":"#ffcc3399","Correct":32,"Choice":32,"RT":308,"Accuracy":1,"Outcome":"+10","Keys":[1808],"TotalKeys":1,"Block":1,"Trial":17,"Robot":1,"Valence":"Win","Action":"Go","Sham":0,"Color":"yellow","trial_type":"pit-trial","trial_index":32,"time_elapsed":188351,"internal_node_id":"0.0-21.0","task_version":"test-retest-t2"},{"Rune":"rune_03_algiz","Hex":"#3366ff99","Correct":-1,"Choice":-1,"RT":-1,"Accuracy":1,"Outcome":"-1","Keys":[],"TotalKeys":0,"Block":1,"Trial":18,"Robot":4,"Valence":"Lose","Action":"No-Go","Sham":0,"Color":"blue","trial_type":"pit-trial","trial_index":33,"time_elapsed":192355,"internal_node_id":"0.0-22.0","task_version":"test-retest-t2"},{"Rune":"rune_03_uruz","Hex":"#3366ff99","Correct":32,"Choice":32,"RT":244,"Accuracy":1,"Outcome":"-10","Keys":[1745],"TotalKeys":1,"Block":1,"Trial":19,"Robot":3,"Valence":"Lose","Action":"Go","Sham":1,"Color":"blue","trial_type":"pit-trial","trial_index":34,"time_elapsed":195104,"internal_node_id":"0.0-23.0","task_version":"test-retest-t2"},{"Rune":"rune_03_othalan","Hex":"#ffcc3399","Correct":-1,"Choice":-1,"RT":-1,"Accuracy":1,"Outcome":"+10","Keys":[],"TotalKeys":0,"Block":1,"Trial":20,"Robot":2,"Valence":"Win","Action":"No-Go","Sham":0,"Color":"yellow","trial_type":"pit-trial","trial_index":35,"time_elapsed":199108,"internal_node_id":"0.0-24.0","task_version":"test-retest-t2"},{"Rune":"rune_03_algiz","Hex":"#3366ff99","Correct":-1,"Choice":-1,"RT":-1,"Accuracy":1,"Outcome":"-10","Keys":[],"TotalKeys":0,"Block":1,"Trial":21,"Robot":4,"Valence":"Lose","Action":"No-Go","Sham":1,"Color":"blue","trial_type":"pit-trial","trial_index":36,"time_elapsed":203111,"internal_node_id":"0.0-25.0","task_version":"test-retest-t2"},{"Rune":"rune_03_uruz","Hex":"#3366ff99","Correct":32,"Choice":32,"RT":352,"Accuracy":1,"Outcome":"-10","Keys":[1854],"TotalKeys":1,"Block":1,"Trial":22,"Robot":3,"Valence":"Lose","Action":"Go","Sham":1,"Color":"blue","trial_type":"pit-trial","trial_index":37,"time_elapsed":205966,"internal_node_id":"0.0-26.0","task_version":"test-retest-t2"},{"Rune":"rune_03_othalan","Hex":"#ffcc3399","Correct":-1,"Choice":-1,"RT":-1,"Accuracy":1,"Outcome":"+1","Keys":[],"TotalKeys":0,"Block":1,"Trial":23,"Robot":2,"Valence":"Win","Action":"No-Go","Sham":1,"Color":"yellow","trial_type":"pit-trial","trial_index":38,"time_elapsed":209969,"internal_node_id":"0.0-27.0","task_version":"test-retest-t2"},{"Rune":"rune_03_naudiz","Hex":"#ffcc3399","Correct":32,"Choice":32,"RT":325,"Accuracy":1,"Outcome":"+10","Keys":[1826],"TotalKeys":1,"Block":1,"Trial":24,"Robot":1,"Valence":"Win","Action":"Go","Sham":0,"Color":"yellow","trial_type":"pit-trial","trial_index":39,"time_elapsed":212798,"internal_node_id":"0.0-28.0","task_version":"test-retest-t2"},{"Rune":"rune_03_uruz","Hex":"#3366ff99","Correct":32,"Choice":32,"RT":362,"Accuracy":1,"Outcome":"-1","Keys":[1862],"TotalKeys":1,"Block":1,"Trial":25,"Robot":3,"Valence":"Lose","Action":"Go","Sham":0,"Color":"blue","trial_type":"pit-trial","trial_index":40,"time_elapsed":215662,"internal_node_id":"0.0-29.0","task_version":"test-retest-t2"},{"Rune":"rune_03_algiz","Hex":"#3366ff99","Correct":-1,"Choice":-1,"RT":-1,"Accuracy":1,"Outcome":"-1","Keys":[],"TotalKeys":0,"Block":1,"Trial":26,"Robot":4,"Valence":"Lose","Action":"No-Go","Sham":0,"Color":"blue","trial_type":"pit-trial","trial_index":41,"time_elapsed":219663,"internal_node_id":"0.0-30.0","task_version":"test-retest-t2"},{"Rune":"rune_03_naudiz","Hex":"#ffcc3399","Correct":32,"Choice":32,"RT":614,"Accuracy":1,"Outcome":"+10","Keys":[2116],"TotalKeys":1,"Block":1,"Trial":27,"Robot":1,"Valence":"Win","Action":"Go","Sham":0,"Color":"yellow","trial_type":"pit-trial","trial_index":42,"time_elapsed":222782,"internal_node_id":"0.0-31.0","task_version":"test-retest-t2"},{"Rune":"rune_03_othalan","Hex":"#ffcc3399","Correct":-1,"Choice":-1,"RT":-1,"Accuracy":1,"Outcome":"+10","Keys":[],"TotalKeys":0,"Block":1,"Trial":28,"Robot":2,"Valence":"Win","Action":"No-Go","Sham":0,"Color":"yellow","trial_type":"pit-trial","trial_index":43,"time_elapsed":226785,"internal_node_id":"0.0-32.0","task_version":"test-retest-t2"},{"Rune":"rune_03_naudiz","Hex":"#ffcc3399","Correct":32,"Choice":32,"RT":421,"Accuracy":1,"Outcome":"+10","Keys":[1921],"TotalKeys":1,"Block":1,"Trial":29,"Robot":1,"Valence":"Win","Action":"Go","Sham":0,"Color":"yellow","trial_type":"pit-trial","trial_index":44,"time_elapsed":229710,"internal_node_id":"0.0-33.0","task_version":"test-retest-t2"},{"Rune":"rune_03_othalan","Hex":"#ffcc3399","Correct":-1,"Choice":-1,"RT":-1,"Accuracy":1,"Outcome":"+10","Keys":[],"TotalKeys":0,"Block":1,"Trial":30,"Robot":2,"Valence":"Win","Action":"No-Go","Sham":0,"Color":"yellow","trial_type":"pit-trial","trial_index":45,"time_elapsed":233713,"internal_node_id":"0.0-34.0","task_version":"test-retest-t2"},{"Rune":"rune_03_algiz","Hex":"#3366ff99","Correct":-1,"Choice":-1,"RT":-1,"Accuracy":1,"Outcome":"-1","Keys":[],"TotalKeys":0,"Block":1,"Trial":31,"Robot":4,"Valence":"Lose","Action":"No-Go","Sham":0,"Color":"blue","trial_type":"pit-trial","trial_index":46,"time_elapsed":237716,"internal_node_id":"0.0-35.0","task_version":"test-retest-t2"},{"Rune":"rune_03_uruz","Hex":"#3366ff99","Correct":32,"Choice":32,"RT":401,"Accuracy":1,"Outcome":"-1","Keys":[1903],"TotalKeys":1,"Block":1,"Trial":32,"Robot":3,"Valence":"Lose","Action":"Go","Sham":0,"Color":"blue","trial_type":"pit-trial","trial_index":47,"time_elapsed":240621,"internal_node_id":"0.0-36.0","task_version":"test-retest-t2"},{"Rune":"rune_03_othalan","Hex":"#ffcc3399","Correct":-1,"Choice":-1,"RT":-1,"Accuracy":1,"Outcome":"+10","Keys":[],"TotalKeys":0,"Block":1,"Trial":33,"Robot":2,"Valence":"Win","Action":"No-Go","Sham":0,"Color":"yellow","trial_type":"pit-trial","trial_index":48,"time_elapsed":244624,"internal_node_id":"0.0-37.0","task_version":"test-retest-t2"},{"Rune":"rune_03_algiz","Hex":"#3366ff99","Correct":-1,"Choice":-1,"RT":-1,"Accuracy":1,"Outcome":"-1","Keys":[],"TotalKeys":0,"Block":1,"Trial":34,"Robot":4,"Valence":"Lose","Action":"No-Go","Sham":0,"Color":"blue","trial_type":"pit-trial","trial_index":49,"time_elapsed":248627,"internal_node_id":"0.0-38.0","task_version":"test-retest-t2"},{"Rune":"rune_03_naudiz","Hex":"#ffcc3399","Correct":32,"Choice":32,"RT":307,"Accuracy":1,"Outcome":"+10","Keys":[1807],"TotalKeys":1,"Block":1,"Trial":35,"Robot":1,"Valence":"Win","Action":"Go","Sham":0,"Color":"yellow","trial_type":"pit-trial","trial_index":50,"time_elapsed":251436,"internal_node_id":"0.0-39.0","task_version":"test-retest-t2"},{"Rune":"rune_03_uruz","Hex":"#3366ff99","Correct":32,"Choice":32,"RT":425,"Accuracy":1,"Outcome":"-1","Keys":[1925],"TotalKeys":1,"Block":1,"Trial":36,"Robot":3,"Valence":"Lose","Action":"Go","Sham":0,"Color":"blue","trial_type":"pit-trial","trial_index":51,"time_elapsed":254365,"internal_node_id":"0.0-40.0","task_version":"test-retest-t2"},{"Rune":"rune_03_algiz","Hex":"#3366ff99","Correct":-1,"Choice":-1,"RT":-1,"Accuracy":1,"Outcome":"-1","Keys":[],"TotalKeys":0,"Block":1,"Trial":37,"Robot":4,"Valence":"Lose","Action":"No-Go","Sham":0,"Color":"blue","trial_type":"pit-trial","trial_index":52,"time_elapsed":258367,"internal_node_id":"0.0-41.0","task_version":"test-retest-t2"},{"Rune":"rune_03_othalan","Hex":"#ffcc3399","Correct":-1,"Choice":-1,"RT":-1,"Accuracy":1,"Outcome":"+10","Keys":[],"TotalKeys":0,"Block":1,"Trial":38,"Robot":2,"Valence":"Win","Action":"No-Go","Sham":0,"Color":"yellow","trial_type":"pit-trial","trial_index":53,"time_elapsed":262370,"internal_node_id":"0.0-42.0","task_version":"test-retest-t2"},{"Rune":"rune_03_uruz","Hex":"#3366ff99","Correct":32,"Choice":32,"RT":282,"Accuracy":1,"Outcome":"-1","Keys":[1783],"TotalKeys":1,"Block":1,"Trial":39,"Robot":3,"Valence":"Lose","Action":"Go","Sham":0,"Color":"blue","trial_type":"pit-trial","trial_index":54,"time_elapsed":265157,"internal_node_id":"0.0-43.0","task_version":"test-retest-t2"},{"Rune":"rune_03_naudiz","Hex":"#ffcc3399","Correct":32,"Choice":32,"RT":432,"Accuracy":1,"Outcome":"+1","Keys":[1933],"TotalKeys":1,"Block":1,"Trial":40,"Robot":1,"Valence":"Win","Action":"Go","Sham":1,"Color":"yellow","trial_type":"pit-trial","trial_index":55,"time_elapsed":268092,"internal_node_id":"0.0-44.0","task_version":"test-retest-t2"},{"Rune":"rune_03_othalan","Hex":"#ffcc3399","Correct":-1,"Choice":-1,"RT":-1,"Accuracy":1,"Outcome":"+10","Keys":[],"TotalKeys":0,"Block":1,"Trial":41,"Robot":2,"Valence":"Win","Action":"No-Go","Sham":0,"Color":"yellow","trial_type":"pit-trial","trial_index":56,"time_elapsed":272096,"internal_node_id":"0.0-45.0","task_version":"test-retest-t2"},{"Rune":"rune_03_uruz","Hex":"#3366ff99","Correct":32,"Choice":32,"RT":421,"Accuracy":1,"Outcome":"-1","Keys":[1921],"TotalKeys":1,"Block":1,"Trial":42,"Robot":3,"Valence":"Lose","Action":"Go","Sham":0,"Color":"blue","trial_type":"pit-trial","trial_index":57,"time_elapsed":275019,"internal_node_id":"0.0-46.0","task_version":"test-retest-t2"},{"Rune":"rune_03_algiz","Hex":"#3366ff99","Correct":-1,"Choice":-1,"RT":-1,"Accuracy":1,"Outcome":"-1","Keys":[],"TotalKeys":0,"Block":1,"Trial":43,"Robot":4,"Valence":"Lose","Action":"No-Go","Sham":0,"Color":"blue","trial_type":"pit-trial","trial_index":58,"time_elapsed":279022,"internal_node_id":"0.0-47.0","task_version":"test-retest-t2"},{"Rune":"rune_03_naudiz","Hex":"#ffcc3399","Correct":32,"Choice":32,"RT":263,"Accuracy":1,"Outcome":"+10","Keys":[1763],"TotalKeys":1,"Block":1,"Trial":44,"Robot":1,"Valence":"Win","Action":"Go","Sham":0,"Color":"yellow","trial_type":"pit-trial","trial_index":59,"time_elapsed":281787,"internal_node_id":"0.0-48.0","task_version":"test-retest-t2"},{"Rune":"rune_03_naudiz","Hex":"#ffcc3399","Correct":32,"Choice":32,"RT":483,"Accuracy":1,"Outcome":"+10","Keys":[1983],"TotalKeys":1,"Block":1,"Trial":45,"Robot":1,"Valence":"Win","Action":"Go","Sham":0,"Color":"yellow","trial_type":"pit-trial","trial_index":60,"time_elapsed":284773,"internal_node_id":"0.0-49.0","task_version":"test-retest-t2"},{"Rune":"rune_03_algiz","Hex":"#3366ff99","Correct":-1,"Choice":-1,"RT":-1,"Accuracy":1,"Outcome":"-10","Keys":[],"TotalKeys":0,"Block":1,"Trial":46,"Robot":4,"Valence":"Lose","Action":"No-Go","Sham":1,"Color":"blue","trial_type":"pit-trial","trial_index":61,"time_elapsed":288774,"internal_node_id":"0.0-50.0","task_version":"test-retest-t2"},{"Rune":"rune_03_othalan","Hex":"#ffcc3399","Correct":-1,"Choice":-1,"RT":-1,"Accuracy":1,"Outcome":"+10","Keys":[],"TotalKeys":0,"Block":1,"Trial":47,"Robot":2,"Valence":"Win","Action":"No-Go","Sham":0,"Color":"yellow","trial_type":"pit-trial","trial_index":62,"time_elapsed":292778,"internal_node_id":"0.0-51.0","task_version":"test-retest-t2"},{"Rune":"rune_03_uruz","Hex":"#3366ff99","Correct":32,"Choice":32,"RT":401,"Accuracy":1,"Outcome":"-1","Keys":[1902],"TotalKeys":1,"Block":1,"Trial":48,"Robot":3,"Valence":"Lose","Action":"Go","Sham":0,"Color":"blue","trial_type":"pit-trial","trial_index":63,"time_elapsed":295684,"internal_node_id":"0.0-52.0","task_version":"test-retest-t2"},{"Rune":"rune_03_algiz","Hex":"#3366ff99","Correct":-1,"Choice":-1,"RT":-1,"Accuracy":1,"Outcome":"-1","Keys":[],"TotalKeys":0,"Block":1,"Trial":49,"Robot":4,"Valence":"Lose","Action":"No-Go","Sham":0,"Color":"blue","trial_type":"pit-trial","trial_index":64,"time_elapsed":299687,"internal_node_id":"0.0-53.0","task_version":"test-retest-t2"},{"Rune":"rune_03_naudiz","Hex":"#ffcc3399","Correct":32,"Choice":32,"RT":389,"Accuracy":1,"Outcome":"+10","Keys":[1890],"TotalKeys":1,"Block":1,"Trial":50,"Robot":1,"Valence":"Win","Action":"Go","Sham":0,"Color":"yellow","trial_type":"pit-trial","trial_index":65,"time_elapsed":302578,"internal_node_id":"0.0-54.0","task_version":"test-retest-t2"},{"Rune":"rune_03_uruz","Hex":"#3366ff99","Correct":32,"Choice":32,"RT":393,"Accuracy":1,"Outcome":"-10","Keys":[1893],"TotalKeys":1,"Block":1,"Trial":51,"Robot":3,"Valence":"Lose","Action":"Go","Sham":1,"Color":"blue","trial_type":"pit-trial","trial_index":66,"time_elapsed":305473,"internal_node_id":"0.0-55.0","task_version":"test-retest-t2"},{"Rune":"rune_03_othalan","Hex":"#ffcc3399","Correct":-1,"Choice":-1,"RT":-1,"Accuracy":1,"Outcome":"+10","Keys":[],"TotalKeys":0,"Block":1,"Trial":52,"Robot":2,"Valence":"Win","Action":"No-Go","Sham":0,"Color":"yellow","trial_type":"pit-trial","trial_index":67,"time_elapsed":309478,"internal_node_id":"0.0-56.0","task_version":"test-retest-t2"},{"Rune":"rune_03_uruz","Hex":"#3366ff99","Correct":32,"Choice":32,"RT":356,"Accuracy":1,"Outcome":"-1","Keys":[1858],"TotalKeys":1,"Block":1,"Trial":53,"Robot":3,"Valence":"Lose","Action":"Go","Sham":0,"Color":"blue","trial_type":"pit-trial","trial_index":68,"time_elapsed":312338,"internal_node_id":"0.0-57.0","task_version":"test-retest-t2"},{"Rune":"rune_03_othalan","Hex":"#ffcc3399","Correct":-1,"Choice":-1,"RT":-1,"Accuracy":1,"Outcome":"+10","Keys":[],"TotalKeys":0,"Block":1,"Trial":54,"Robot":2,"Valence":"Win","Action":"No-Go","Sham":0,"Color":"yellow","trial_type":"pit-trial","trial_index":69,"time_elapsed":316343,"internal_node_id":"0.0-58.0","task_version":"test-retest-t2"},{"Rune":"rune_03_naudiz","Hex":"#ffcc3399","Correct":32,"Choice":32,"RT":246,"Accuracy":1,"Outcome":"+1","Keys":[1745],"TotalKeys":1,"Block":1,"Trial":55,"Robot":1,"Valence":"Win","Action":"Go","Sham":1,"Color":"yellow","trial_type":"pit-trial","trial_index":70,"time_elapsed":319089,"internal_node_id":"0.0-59.0","task_version":"test-retest-t2"},{"Rune":"rune_03_algiz","Hex":"#3366ff99","Correct":-1,"Choice":-1,"RT":-1,"Accuracy":1,"Outcome":"-1","Keys":[],"TotalKeys":0,"Block":1,"Trial":56,"Robot":4,"Valence":"Lose","Action":"No-Go","Sham":0,"Color":"blue","trial_type":"pit-trial","trial_index":71,"time_elapsed":323092,"internal_node_id":"0.0-60.0","task_version":"test-retest-t2"},{"Rune":"rune_03_uruz","Hex":"#3366ff99","Correct":32,"Choice":32,"RT":342,"Accuracy":1,"Outcome":"-1","Keys":[1843],"TotalKeys":1,"Block":1,"Trial":57,"Robot":3,"Valence":"Lose","Action":"Go","Sham":0,"Color":"blue","trial_type":"pit-trial","trial_index":72,"time_elapsed":325937,"internal_node_id":"0.0-61.0","task_version":"test-retest-t2"},{"Rune":"rune_03_algiz","Hex":"#3366ff99","Correct":-1,"Choice":-1,"RT":-1,"Accuracy":1,"Outcome":"-1","Keys":[],"TotalKeys":0,"Block":1,"Trial":58,"Robot":4,"Valence":"Lose","Action":"No-Go","Sham":0,"Color":"blue","trial_type":"pit-trial","trial_index":73,"time_elapsed":329939,"internal_node_id":"0.0-62.0","task_version":"test-retest-t2"},{"Rune":"rune_03_naudiz","Hex":"#ffcc3399","Correct":32,"Choice":32,"RT":280,"Accuracy":1,"Outcome":"+10","Keys":[1781],"TotalKeys":1,"Block":1,"Trial":59,"Robot":1,"Valence":"Win","Action":"Go","Sham":0,"Color":"yellow","trial_type":"pit-trial","trial_index":74,"time_elapsed":332720,"internal_node_id":"0.0-63.0","task_version":"test-retest-t2"},{"Rune":"rune_03_othalan","Hex":"#ffcc3399","Correct":-1,"Choice":-1,"RT":-1,"Accuracy":1,"Outcome":"+1","Keys":[],"TotalKeys":0,"Block":1,"Trial":60,"Robot":2,"Valence":"Win","Action":"No-Go","Sham":1,"Color":"yellow","trial_type":"pit-trial","trial_index":75,"time_elapsed":336723,"internal_node_id":"0.0-64.0","task_version":"test-retest-t2"},{"value":false,"trial_type":"call-function","trial_index":76,"time_elapsed":336725,"internal_node_id":"0.0-65.0","task_version":"test-retest-t2"},{"view_history":"[{\"page_index\":0,\"viewing_time\":2206},{\"page_index\":1,\"viewing_time\":1678}]","rt":3884,"trial_type":"pit-instructions","trial_index":77,"time_elapsed":340610,"internal_node_id":"0.0-66.0","task_version":"test-retest-t2"},{"Rune":"rune_03_algiz","Hex":"#3366ff99","Correct":-1,"Choice":-1,"RT":-1,"Accuracy":1,"Outcome":"-1","Keys":[],"TotalKeys":0,"Block":1,"Trial":61,"Robot":4,"Valence":"Lose","Action":"No-Go","Sham":0,"Color":"blue","trial_type":"pit-trial","trial_index":78,"time_elapsed":344617,"internal_node_id":"0.0-67.0","task_version":"test-retest-t2"},{"Rune":"rune_03_uruz","Hex":"#3366ff99","Correct":32,"Choice":32,"RT":353,"Accuracy":1,"Outcome":"-1","Keys":[1854],"TotalKeys":1,"Block":1,"Trial":62,"Robot":3,"Valence":"Lose","Action":"Go","Sham":0,"Color":"blue","trial_type":"pit-trial","trial_index":79,"time_elapsed":347474,"internal_node_id":"0.0-68.0","task_version":"test-retest-t2"},{"Rune":"rune_03_othalan","Hex":"#ffcc3399","Correct":-1,"Choice":-1,"RT":-1,"Accuracy":1,"Outcome":"+1","Keys":[],"TotalKeys":0,"Block":1,"Trial":63,"Robot":2,"Valence":"Win","Action":"No-Go","Sham":1,"Color":"yellow","trial_type":"pit-trial","trial_index":80,"time_elapsed":351476,"internal_node_id":"0.0-69.0","task_version":"test-retest-t2"},{"Rune":"rune_03_naudiz","Hex":"#ffcc3399","Correct":32,"Choice":32,"RT":380,"Accuracy":1,"Outcome":"+10","Keys":[1882],"TotalKeys":1,"Block":1,"Trial":64,"Robot":1,"Valence":"Win","Action":"Go","Sham":0,"Color":"yellow","trial_type":"pit-trial","trial_index":81,"time_elapsed":354360,"internal_node_id":"0.0-70.0","task_version":"test-retest-t2"},{"Rune":"rune_03_othalan","Hex":"#ffcc3399","Correct":-1,"Choice":-1,"RT":-1,"Accuracy":1,"Outcome":"+10","Keys":[],"TotalKeys":0,"Block":1,"Trial":65,"Robot":2,"Valence":"Win","Action":"No-Go","Sham":0,"Color":"yellow","trial_type":"pit-trial","trial_index":82,"time_elapsed":358363,"internal_node_id":"0.0-71.0","task_version":"test-retest-t2"},{"Rune":"rune_03_uruz","Hex":"#3366ff99","Correct":32,"Choice":32,"RT":366,"Accuracy":1,"Outcome":"-1","Keys":[1867],"TotalKeys":1,"Block":1,"Trial":66,"Robot":3,"Valence":"Lose","Action":"Go","Sham":0,"Color":"blue","trial_type":"pit-trial","trial_index":83,"time_elapsed":361231,"internal_node_id":"0.0-72.0","task_version":"test-retest-t2"},{"Rune":"rune_03_algiz","Hex":"#3366ff99","Correct":-1,"Choice":-1,"RT":-1,"Accuracy":1,"Outcome":"-1","Keys":[],"TotalKeys":0,"Block":1,"Trial":67,"Robot":4,"Valence":"Lose","Action":"No-Go","Sham":0,"Color":"blue","trial_type":"pit-trial","trial_index":84,"time_elapsed":365233,"internal_node_id":"0.0-73.0","task_version":"test-retest-t2"},{"Rune":"rune_03_naudiz","Hex":"#ffcc3399","Correct":32,"Choice":32,"RT":375,"Accuracy":1,"Outcome":"+1","Keys":[1876],"TotalKeys":1,"Block":1,"Trial":68,"Robot":1,"Valence":"Win","Action":"Go","Sham":1,"Color":"yellow","trial_type":"pit-trial","trial_index":85,"time_elapsed":368111,"internal_node_id":"0.0-74.0","task_version":"test-retest-t2"},{"Rune":"rune_03_uruz","Hex":"#3366ff99","Correct":32,"Choice":32,"RT":371,"Accuracy":1,"Outcome":"-10","Keys":[1871],"TotalKeys":1,"Block":1,"Trial":69,"Robot":3,"Valence":"Lose","Action":"Go","Sham":1,"Color":"blue","trial_type":"pit-trial","trial_index":86,"time_elapsed":370984,"internal_node_id":"0.0-75.0","task_version":"test-retest-t2"},{"Rune":"rune_03_othalan","Hex":"#ffcc3399","Correct":-1,"Choice":-1,"RT":-1,"Accuracy":1,"Outcome":"+10","Keys":[],"TotalKeys":0,"Block":1,"Trial":70,"Robot":2,"Valence":"Win","Action":"No-Go","Sham":0,"Color":"yellow","trial_type":"pit-trial","trial_index":87,"time_elapsed":374986,"internal_node_id":"0.0-76.0","task_version":"test-retest-t2"},{"Rune":"rune_03_naudiz","Hex":"#ffcc3399","Correct":32,"Choice":32,"RT":294,"Accuracy":1,"Outcome":"+10","Keys":[1794],"TotalKeys":1,"Block":1,"Trial":71,"Robot":1,"Valence":"Win","Action":"Go","Sham":0,"Color":"yellow","trial_type":"pit-trial","trial_index":88,"time_elapsed":377782,"internal_node_id":"0.0-77.0","task_version":"test-retest-t2"},{"Rune":"rune_03_algiz","Hex":"#3366ff99","Correct":-1,"Choice":-1,"RT":-1,"Accuracy":1,"Outcome":"-10","Keys":[],"TotalKeys":0,"Block":1,"Trial":72,"Robot":4,"Valence":"Lose","Action":"No-Go","Sham":1,"Color":"blue","trial_type":"pit-trial","trial_index":89,"time_elapsed":381787,"internal_node_id":"0.0-78.0","task_version":"test-retest-t2"},{"Rune":"rune_03_uruz","Hex":"#3366ff99","Correct":32,"Choice":32,"RT":357,"Accuracy":1,"Outcome":"-1","Keys":[1858],"TotalKeys":1,"Block":1,"Trial":73,"Robot":3,"Valence":"Lose","Action":"Go","Sham":0,"Color":"blue","trial_type":"pit-trial","trial_index":90,"time_elapsed":384647,"internal_node_id":"0.0-79.0","task_version":"test-retest-t2"},{"Rune":"rune_03_algiz","Hex":"#3366ff99","Correct":-1,"Choice":-1,"RT":-1,"Accuracy":1,"Outcome":"-1","Keys":[],"TotalKeys":0,"Block":1,"Trial":74,"Robot":4,"Valence":"Lose","Action":"No-Go","Sham":0,"Color":"blue","trial_type":"pit-trial","trial_index":91,"time_elapsed":388650,"internal_node_id":"0.0-80.0","task_version":"test-retest-t2"},{"Rune":"rune_03_othalan","Hex":"#ffcc3399","Correct":-1,"Choice":-1,"RT":-1,"Accuracy":1,"Outcome":"+10","Keys":[],"TotalKeys":0,"Block":1,"Trial":75,"Robot":2,"Valence":"Win","Action":"No-Go","Sham":0,"Color":"yellow","trial_type":"pit-trial","trial_index":92,"time_elapsed":392653,"internal_node_id":"0.0-81.0","task_version":"test-retest-t2"},{"Rune":"rune_03_naudiz","Hex":"#ffcc3399","Correct":32,"Choice":32,"RT":337,"Accuracy":1,"Outcome":"+10","Keys":[1838],"TotalKeys":1,"Block":1,"Trial":76,"Robot":1,"Valence":"Win","Action":"Go","Sham":0,"Color":"yellow","trial_type":"pit-trial","trial_index":93,"time_elapsed":395494,"internal_node_id":"0.0-82.0","task_version":"test-retest-t2"},{"Rune":"rune_03_algiz","Hex":"#3366ff99","Correct":-1,"Choice":-1,"RT":-1,"Accuracy":1,"Outcome":"-1","Keys":[],"TotalKeys":0,"Block":1,"Trial":77,"Robot":4,"Valence":"Lose","Action":"No-Go","Sham":0,"Color":"blue","trial_type":"pit-trial","trial_index":94,"time_elapsed":399497,"internal_node_id":"0.0-83.0","task_version":"test-retest-t2"},{"Rune":"rune_03_naudiz","Hex":"#ffcc3399","Correct":32,"Choice":32,"RT":375,"Accuracy":1,"Outcome":"+10","Keys":[1874],"TotalKeys":1,"Block":1,"Trial":78,"Robot":1,"Valence":"Win","Action":"Go","Sham":0,"Color":"yellow","trial_type":"pit-trial","trial_index":95,"time_elapsed":402373,"internal_node_id":"0.0-84.0","task_version":"test-retest-t2"},{"Rune":"rune_03_othalan","Hex":"#ffcc3399","Correct":-1,"Choice":-1,"RT":-1,"Accuracy":1,"Outcome":"+10","Keys":[],"TotalKeys":0,"Block":1,"Trial":79,"Robot":2,"Valence":"Win","Action":"No-Go","Sham":0,"Color":"yellow","trial_type":"pit-trial","trial_index":96,"time_elapsed":406378,"internal_node_id":"0.0-85.0","task_version":"test-retest-t2"},{"Rune":"rune_03_uruz","Hex":"#3366ff99","Correct":32,"Choice":32,"RT":420,"Accuracy":1,"Outcome":"-1","Keys":[1921],"TotalKeys":1,"Block":1,"Trial":80,"Robot":3,"Valence":"Lose","Action":"Go","Sham":0,"Color":"blue","trial_type":"pit-trial","trial_index":97,"time_elapsed":409300,"internal_node_id":"0.0-86.0","task_version":"test-retest-t2"},{"Rune":"rune_03_othalan","Hex":"#ffcc3399","Correct":-1,"Choice":-1,"RT":-1,"Accuracy":1,"Outcome":"+10","Keys":[],"TotalKeys":0,"Block":1,"Trial":81,"Robot":2,"Valence":"Win","Action":"No-Go","Sham":0,"Color":"yellow","trial_type":"pit-trial","trial_index":98,"time_elapsed":413304,"internal_node_id":"0.0-87.0","task_version":"test-retest-t2"},{"Rune":"rune_03_algiz","Hex":"#3366ff99","Correct":-1,"Choice":-1,"RT":-1,"Accuracy":1,"Outcome":"-10","Keys":[],"TotalKeys":0,"Block":1,"Trial":82,"Robot":4,"Valence":"Lose","Action":"No-Go","Sham":1,"Color":"blue","trial_type":"pit-trial","trial_index":99,"time_elapsed":417308,"internal_node_id":"0.0-88.0","task_version":"test-retest-t2"},{"Rune":"rune_03_uruz","Hex":"#3366ff99","Correct":32,"Choice":32,"RT":363,"Accuracy":1,"Outcome":"-1","Keys":[1864],"TotalKeys":1,"Block":1,"Trial":83,"Robot":3,"Valence":"Lose","Action":"Go","Sham":0,"Color":"blue","trial_type":"pit-trial","trial_index":100,"time_elapsed":420174,"internal_node_id":"0.0-89.0","task_version":"test-retest-t2"},{"Rune":"rune_03_naudiz","Hex":"#ffcc3399","Correct":32,"Choice":32,"RT":368,"Accuracy":1,"Outcome":"+1","Keys":[1869],"TotalKeys":1,"Block":1,"Trial":84,"Robot":1,"Valence":"Win","Action":"Go","Sham":1,"Color":"yellow","trial_type":"pit-trial","trial_index":101,"time_elapsed":423045,"internal_node_id":"0.0-90.0","task_version":"test-retest-t2"},{"Rune":"rune_03_uruz","Hex":"#3366ff99","Correct":32,"Choice":32,"RT":384,"Accuracy":1,"Outcome":"-1","Keys":[1885],"TotalKeys":1,"Block":1,"Trial":85,"Robot":3,"Valence":"Lose","Action":"Go","Sham":0,"Color":"blue","trial_type":"pit-trial","trial_index":102,"time_elapsed":425932,"internal_node_id":"0.0-91.0","task_version":"test-retest-t2"},{"Rune":"rune_03_othalan","Hex":"#ffcc3399","Correct":-1,"Choice":-1,"RT":-1,"Accuracy":1,"Outcome":"+10","Keys":[],"TotalKeys":0,"Block":1,"Trial":86,"Robot":2,"Valence":"Win","Action":"No-Go","Sham":0,"Color":"yellow","trial_type":"pit-trial","trial_index":103,"time_elapsed":429934,"internal_node_id":"0.0-92.0","task_version":"test-retest-t2"},{"Rune":"rune_03_naudiz","Hex":"#ffcc3399","Correct":32,"Choice":32,"RT":343,"Accuracy":1,"Outcome":"+10","Keys":[1844],"TotalKeys":1,"Block":1,"Trial":87,"Robot":1,"Valence":"Win","Action":"Go","Sham":0,"Color":"yellow","trial_type":"pit-trial","trial_index":104,"time_elapsed":432782,"internal_node_id":"0.0-93.0","task_version":"test-retest-t2"},{"Rune":"rune_03_algiz","Hex":"#3366ff99","Correct":-1,"Choice":-1,"RT":-1,"Accuracy":1,"Outcome":"-1","Keys":[],"TotalKeys":0,"Block":1,"Trial":88,"Robot":4,"Valence":"Lose","Action":"No-Go","Sham":0,"Color":"blue","trial_type":"pit-trial","trial_index":105,"time_elapsed":436785,"internal_node_id":"0.0-94.0","task_version":"test-retest-t2"},{"Rune":"rune_03_algiz","Hex":"#3366ff99","Correct":-1,"Choice":-1,"RT":-1,"Accuracy":1,"Outcome":"-1","Keys":[],"TotalKeys":0,"Block":1,"Trial":89,"Robot":4,"Valence":"Lose","Action":"No-Go","Sham":0,"Color":"blue","trial_type":"pit-trial","trial_index":106,"time_elapsed":440787,"internal_node_id":"0.0-95.0","task_version":"test-retest-t2"},{"Rune":"rune_03_othalan","Hex":"#ffcc3399","Correct":-1,"Choice":-1,"RT":-1,"Accuracy":1,"Outcome":"+1","Keys":[],"TotalKeys":0,"Block":1,"Trial":90,"Robot":2,"Valence":"Win","Action":"No-Go","Sham":1,"Color":"yellow","trial_type":"pit-trial","trial_index":107,"time_elapsed":444789,"internal_node_id":"0.0-96.0","task_version":"test-retest-t2"},{"Rune":"rune_03_naudiz","Hex":"#ffcc3399","Correct":32,"Choice":32,"RT":391,"Accuracy":1,"Outcome":"+10","Keys":[1892],"TotalKeys":1,"Block":1,"Trial":91,"Robot":1,"Valence":"Win","Action":"Go","Sham":0,"Color":"yellow","trial_type":"pit-trial","trial_index":108,"time_elapsed":447683,"internal_node_id":"0.0-97.0","task_version":"test-retest-t2"},{"Rune":"rune_03_uruz","Hex":"#3366ff99","Correct":32,"Choice":32,"RT":401,"Accuracy":1,"Outcome":"-10","Keys":[1902],"TotalKeys":1,"Block":1,"Trial":92,"Robot":3,"Valence":"Lose","Action":"Go","Sham":1,"Color":"blue","trial_type":"pit-trial","trial_index":109,"time_elapsed":450588,"internal_node_id":"0.0-98.0","task_version":"test-retest-t2"},{"Rune":"rune_03_algiz","Hex":"#3366ff99","Correct":-1,"Choice":-1,"RT":-1,"Accuracy":1,"Outcome":"-1","Keys":[],"TotalKeys":0,"Block":1,"Trial":93,"Robot":4,"Valence":"Lose","Action":"No-Go","Sham":0,"Color":"blue","trial_type":"pit-trial","trial_index":110,"time_elapsed":454593,"internal_node_id":"0.0-99.0","task_version":"test-retest-t2"},{"Rune":"rune_03_uruz","Hex":"#3366ff99","Correct":32,"Choice":32,"RT":308,"Accuracy":1,"Outcome":"-1","Keys":[1808],"TotalKeys":1,"Block":1,"Trial":94,"Robot":3,"Valence":"Lose","Action":"Go","Sham":0,"Color":"blue","trial_type":"pit-trial","trial_index":111,"time_elapsed":457403,"internal_node_id":"0.0-100.0","task_version":"test-retest-t2"},{"Rune":"rune_03_naudiz","Hex":"#ffcc3399","Correct":32,"Choice":32,"RT":448,"Accuracy":1,"Outcome":"+10","Keys":[1949],"TotalKeys":1,"Block":1,"Trial":95,"Robot":1,"Valence":"Win","Action":"Go","Sham":0,"Color":"yellow","trial_type":"pit-trial","trial_index":112,"time_elapsed":460356,"internal_node_id":"0.0-101.0","task_version":"test-retest-t2"},{"Rune":"rune_03_othalan","Hex":"#ffcc3399","Correct":-1,"Choice":-1,"RT":-1,"Accuracy":1,"Outcome":"+10","Keys":[],"TotalKeys":0,"Block":1,"Trial":96,"Robot":2,"Valence":"Win","Action":"No-Go","Sham":0,"Color":"yellow","trial_type":"pit-trial","trial_index":113,"time_elapsed":464359,"internal_node_id":"0.0-102.0","task_version":"test-retest-t2"},{"Rune":"rune_03_othalan","Hex":"#ffcc3399","Correct":-1,"Choice":-1,"RT":-1,"Accuracy":1,"Outcome":"+10","Keys":[],"TotalKeys":0,"Block":1,"Trial":97,"Robot":2,"Valence":"Win","Action":"No-Go","Sham":0,"Color":"yellow","trial_type":"pit-trial","trial_index":114,"time_elapsed":468364,"internal_node_id":"0.0-103.0","task_version":"test-retest-t2"},{"Rune":"rune_03_uruz","Hex":"#3366ff99","Correct":32,"Choice":32,"RT":392,"Accuracy":1,"Outcome":"-1","Keys":[1893],"TotalKeys":1,"Block":1,"Trial":98,"Robot":3,"Valence":"Lose","Action":"Go","Sham":0,"Color":"blue","trial_type":"pit-trial","trial_index":115,"time_elapsed":471260,"internal_node_id":"0.0-104.0","task_version":"test-retest-t2"},{"Rune":"rune_03_naudiz","Hex":"#ffcc3399","Correct":32,"Choice":32,"RT":447,"Accuracy":1,"Outcome":"+10","Keys":[1948],"TotalKeys":1,"Block":1,"Trial":99,"Robot":1,"Valence":"Win","Action":"Go","Sham":0,"Color":"yellow","trial_type":"pit-trial","trial_index":116,"time_elapsed":474211,"internal_node_id":"0.0-105.0","task_version":"test-retest-t2"},{"Rune":"rune_03_algiz","Hex":"#3366ff99","Correct":-1,"Choice":-1,"RT":-1,"Accuracy":1,"Outcome":"-1","Keys":[],"TotalKeys":0,"Block":1,"Trial":100,"Robot":4,"Valence":"Lose","Action":"No-Go","Sham":0,"Color":"blue","trial_type":"pit-trial","trial_index":117,"time_elapsed":478214,"internal_node_id":"0.0-106.0","task_version":"test-retest-t2"},{"Rune":"rune_03_algiz","Hex":"#3366ff99","Correct":-1,"Choice":-1,"RT":-1,"Accuracy":1,"Outcome":"-1","Keys":[],"TotalKeys":0,"Block":1,"Trial":101,"Robot":4,"Valence":"Lose","Action":"No-Go","Sham":0,"Color":"blue","trial_type":"pit-trial","trial_index":118,"time_elapsed":482218,"internal_node_id":"0.0-107.0","task_version":"test-retest-t2"},{"Rune":"rune_03_naudiz","Hex":"#ffcc3399","Correct":32,"Choice":32,"RT":354,"Accuracy":1,"Outcome":"+1","Keys":[1854],"TotalKeys":1,"Block":1,"Trial":102,"Robot":1,"Valence":"Win","Action":"Go","Sham":1,"Color":"yellow","trial_type":"pit-trial","trial_index":119,"time_elapsed":485074,"internal_node_id":"0.0-108.0","task_version":"test-retest-t2"},{"Rune":"rune_03_othalan","Hex":"#ffcc3399","Correct":-1,"Choice":-1,"RT":-1,"Accuracy":1,"Outcome":"+10","Keys":[],"TotalKeys":0,"Block":1,"Trial":103,"Robot":2,"Valence":"Win","Action":"No-Go","Sham":0,"Color":"yellow","trial_type":"pit-trial","trial_index":120,"time_elapsed":489077,"internal_node_id":"0.0-109.0","task_version":"test-retest-t2"},{"Rune":"rune_03_uruz","Hex":"#3366ff99","Correct":32,"Choice":32,"RT":350,"Accuracy":1,"Outcome":"-1","Keys":[1851],"TotalKeys":1,"Block":1,"Trial":104,"Robot":3,"Valence":"Lose","Action":"Go","Sham":0,"Color":"blue","trial_type":"pit-trial","trial_index":121,"time_elapsed":491931,"internal_node_id":"0.0-110.0","task_version":"test-retest-t2"},{"Rune":"rune_03_naudiz","Hex":"#ffcc3399","Correct":32,"Choice":32,"RT":415,"Accuracy":1,"Outcome":"+10","Keys":[1915],"TotalKeys":1,"Block":1,"Trial":105,"Robot":1,"Valence":"Win","Action":"Go","Sham":0,"Color":"yellow","trial_type":"pit-trial","trial_index":122,"time_elapsed":494851,"internal_node_id":"0.0-111.0","task_version":"test-retest-t2"},{"Rune":"rune_03_algiz","Hex":"#3366ff99","Correct":-1,"Choice":-1,"RT":-1,"Accuracy":1,"Outcome":"-1","Keys":[],"TotalKeys":0,"Block":1,"Trial":106,"Robot":4,"Valence":"Lose","Action":"No-Go","Sham":0,"Color":"blue","trial_type":"pit-trial","trial_index":123,"time_elapsed":498855,"internal_node_id":"0.0-112.0","task_version":"test-retest-t2"},{"Rune":"rune_03_othalan","Hex":"#ffcc3399","Correct":-1,"Choice":-1,"RT":-1,"Accuracy":1,"Outcome":"+10","Keys":[],"TotalKeys":0,"Block":1,"Trial":107,"Robot":2,"Valence":"Win","Action":"No-Go","Sham":0,"Color":"yellow","trial_type":"pit-trial","trial_index":124,"time_elapsed":502858,"internal_node_id":"0.0-113.0","task_version":"test-retest-t2"},{"Rune":"rune_03_uruz","Hex":"#3366ff99","Correct":32,"Choice":32,"RT":399,"Accuracy":1,"Outcome":"-1","Keys":[1900],"TotalKeys":1,"Block":1,"Trial":108,"Robot":3,"Valence":"Lose","Action":"Go","Sham":0,"Color":"blue","trial_type":"pit-trial","trial_index":125,"time_elapsed":505762,"internal_node_id":"0.0-114.0","task_version":"test-retest-t2"},{"Rune":"rune_03_othalan","Hex":"#ffcc3399","Correct":-1,"Choice":-1,"RT":-1,"Accuracy":1,"Outcome":"+1","Keys":[],"TotalKeys":0,"Block":1,"Trial":109,"Robot":2,"Valence":"Win","Action":"No-Go","Sham":1,"Color":"yellow","trial_type":"pit-trial","trial_index":126,"time_elapsed":509765,"internal_node_id":"0.0-115.0","task_version":"test-retest-t2"},{"Rune":"rune_03_naudiz","Hex":"#ffcc3399","Correct":32,"Choice":32,"RT":340,"Accuracy":1,"Outcome":"+10","Keys":[1841],"TotalKeys":1,"Block":1,"Trial":110,"Robot":1,"Valence":"Win","Action":"Go","Sham":0,"Color":"yellow","trial_type":"pit-trial","trial_index":127,"time_elapsed":512609,"internal_node_id":"0.0-116.0","task_version":"test-retest-t2"},{"Rune":"rune_03_algiz","Hex":"#3366ff99","Correct":-1,"Choice":-1,"RT":-1,"Accuracy":1,"Outcome":"-1","Keys":[],"TotalKeys":0,"Block":1,"Trial":111,"Robot":4,"Valence":"Lose","Action":"No-Go","Sham":0,"Color":"blue","trial_type":"pit-trial","trial_index":128,"time_elapsed":516613,"internal_node_id":"0.0-117.0","task_version":"test-retest-t2"},{"Rune":"rune_03_uruz","Hex":"#3366ff99","Correct":32,"Choice":32,"RT":388,"Accuracy":1,"Outcome":"-10","Keys":[1890],"TotalKeys":1,"Block":1,"Trial":112,"Robot":3,"Valence":"Lose","Action":"Go","Sham":1,"Color":"blue","trial_type":"pit-trial","trial_index":129,"time_elapsed":519504,"internal_node_id":"0.0-118.0","task_version":"test-retest-t2"},{"Rune":"rune_03_algiz","Hex":"#3366ff99","Correct":-1,"Choice":-1,"RT":-1,"Accuracy":1,"Outcome":"-1","Keys":[],"TotalKeys":0,"Block":1,"Trial":113,"Robot":4,"Valence":"Lose","Action":"No-Go","Sham":0,"Color":"blue","trial_type":"pit-trial","trial_index":130,"time_elapsed":523507,"internal_node_id":"0.0-119.0","task_version":"test-retest-t2"},{"Rune":"rune_03_othalan","Hex":"#ffcc3399","Correct":-1,"Choice":-1,"RT":-1,"Accuracy":1,"Outcome":"+10","Keys":[],"TotalKeys":0,"Block":1,"Trial":114,"Robot":2,"Valence":"Win","Action":"No-Go","Sham":0,"Color":"yellow","trial_type":"pit-trial","trial_index":131,"time_elapsed":527510,"internal_node_id":"0.0-120.0","task_version":"test-retest-t2"},{"Rune":"rune_03_naudiz","Hex":"#ffcc3399","Correct":32,"Choice":32,"RT":388,"Accuracy":1,"Outcome":"+10","Keys":[1888],"TotalKeys":1,"Block":1,"Trial":115,"Robot":1,"Valence":"Win","Action":"Go","Sham":0,"Color":"yellow","trial_type":"pit-trial","trial_index":132,"time_elapsed":530401,"internal_node_id":"0.0-121.0","task_version":"test-retest-t2"},{"Rune":"rune_03_uruz","Hex":"#3366ff99","Correct":32,"Choice":32,"RT":400,"Accuracy":1,"Outcome":"-1","Keys":[1901],"TotalKeys":1,"Block":1,"Trial":116,"Robot":3,"Valence":"Lose","Action":"Go","Sham":0,"Color":"blue","trial_type":"pit-trial","trial_index":133,"time_elapsed":533304,"internal_node_id":"0.0-122.0","task_version":"test-retest-t2"},{"Rune":"rune_03_othalan","Hex":"#ffcc3399","Correct":-1,"Choice":-1,"RT":-1,"Accuracy":1,"Outcome":"+10","Keys":[],"TotalKeys":0,"Block":1,"Trial":117,"Robot":2,"Valence":"Win","Action":"No-Go","Sham":0,"Color":"yellow","trial_type":"pit-trial","trial_index":134,"time_elapsed":537305,"internal_node_id":"0.0-123.0","task_version":"test-retest-t2"},{"Rune":"rune_03_algiz","Hex":"#3366ff99","Correct":-1,"Choice":-1,"RT":-1,"Accuracy":1,"Outcome":"-10","Keys":[],"TotalKeys":0,"Block":1,"Trial":118,"Robot":4,"Valence":"Lose","Action":"No-Go","Sham":1,"Color":"blue","trial_type":"pit-trial","trial_index":135,"time_elapsed":541308,"internal_node_id":"0.0-124.0","task_version":"test-retest-t2"},{"Rune":"rune_03_uruz","Hex":"#3366ff99","Correct":32,"Choice":32,"RT":236,"Accuracy":1,"Outcome":"-1","Keys":[1736],"TotalKeys":1,"Block":1,"Trial":119,"Robot":3,"Valence":"Lose","Action":"Go","Sham":0,"Color":"blue","trial_type":"pit-trial","trial_index":136,"time_elapsed":544049,"internal_node_id":"0.0-125.0","task_version":"test-retest-t2"},{"Rune":"rune_03_naudiz","Hex":"#ffcc3399","Correct":32,"Choice":32,"RT":417,"Accuracy":1,"Outcome":"+10","Keys":[1917],"TotalKeys":1,"Block":1,"Trial":120,"Robot":1,"Valence":"Win","Action":"Go","Sham":0,"Color":"yellow","trial_type":"pit-trial","trial_index":137,"time_elapsed":546967,"internal_node_id":"0.0-126.0","task_version":"test-retest-t2"},{"view_history":"[{\"page_index\":0,\"viewing_time\":2867},{\"page_index\":1,\"viewing_time\":1227},{\"page_index\":2,\"viewing_time\":1324}]","rt":5418,"trial_type":"pit-instructions","trial_index":138,"time_elapsed":552387,"internal_node_id":"0.0-127.0","task_version":"test-retest-t2"},{"Rune":"rune_04_ac","Hex":"#3366ff99","Correct":-1,"Choice":32,"RT":353,"Accuracy":0,"Outcome":"-1","Keys":[1854],"TotalKeys":1,"Block":2,"Trial":121,"Robot":4,"Valence":"Lose","Action":"No-Go","Sham":1,"Color":"blue","trial_type":"pit-trial","trial_index":139,"time_elapsed":555247,"internal_node_id":"0.0-128.0","task_version":"test-retest-t2"},{"Rune":"rune_04_dagaz","Hex":"#3366ff99","Correct":32,"Choice":-1,"RT":-1,"Accuracy":0,"Outcome":"-10","Keys":[],"TotalKeys":0,"Block":2,"Trial":122,"Robot":3,"Valence":"Lose","Action":"Go","Sham":0,"Color":"blue","trial_type":"pit-trial","trial_index":140,"time_elapsed":559250,"internal_node_id":"0.0-129.0","task_version":"test-retest-t2"},{"Rune":"rune_04_iwaz","Hex":"#ffcc3399","Correct":32,"Choice":32,"RT":390,"Accuracy":1,"Outcome":"+1","Keys":[1891],"TotalKeys":1,"Block":2,"Trial":123,"Robot":1,"Valence":"Win","Action":"Go","Sham":1,"Color":"yellow","trial_type":"pit-trial","trial_index":141,"time_elapsed":562143,"internal_node_id":"0.0-130.0","task_version":"test-retest-t2"},{"Rune":"rune_04_wunjo","Hex":"#ffcc3399","Correct":-1,"Choice":32,"RT":273,"Accuracy":0,"Outcome":"+1","Keys":[1773],"TotalKeys":1,"Block":2,"Trial":124,"Robot":2,"Valence":"Win","Action":"No-Go","Sham":0,"Color":"yellow","trial_type":"pit-trial","trial_index":142,"time_elapsed":564918,"internal_node_id":"0.0-131.0","task_version":"test-retest-t2"},{"Rune":"rune_04_wunjo","Hex":"#ffcc3399","Correct":-1,"Choice":32,"RT":418,"Accuracy":0,"Outcome":"+10","Keys":[1919],"TotalKeys":1,"Block":2,"Trial":125,"Robot":2,"Valence":"Win","Action":"No-Go","Sham":1,"Color":"yellow","trial_type":"pit-trial","trial_index":143,"time_elapsed":567838,"internal_node_id":"0.0-132.0","task_version":"test-retest-t2"},{"Rune":"rune_04_iwaz","Hex":"#ffcc3399","Correct":32,"Choice":32,"RT":634,"Accuracy":1,"Outcome":"+10","Keys":[2135],"TotalKeys":1,"Block":2,"Trial":126,"Robot":1,"Valence":"Win","Action":"Go","Sham":0,"Color":"yellow","trial_type":"pit-trial","trial_index":144,"time_elapsed":570975,"internal_node_id":"0.0-133.0","task_version":"test-retest-t2"},{"Rune":"rune_04_ac","Hex":"#3366ff99","Correct":-1,"Choice":-1,"RT":-1,"Accuracy":1,"Outcome":"-1","Keys":[],"TotalKeys":0,"Block":2,"Trial":127,"Robot":4,"Valence":"Lose","Action":"No-Go","Sham":0,"Color":"blue","trial_type":"pit-trial","trial_index":145,"time_elapsed":574977,"internal_node_id":"0.0-134.0","task_version":"test-retest-t2"},{"Rune":"rune_04_dagaz","Hex":"#3366ff99","Correct":32,"Choice":32,"RT":229,"Accuracy":1,"Outcome":"-1","Keys":[1730],"TotalKeys":1,"Block":2,"Trial":128,"Robot":3,"Valence":"Lose","Action":"Go","Sham":0,"Color":"blue","trial_type":"pit-trial","trial_index":146,"time_elapsed":577709,"internal_node_id":"0.0-135.0","task_version":"test-retest-t2"},{"Rune":"rune_04_wunjo","Hex":"#ffcc3399","Correct":-1,"Choice":32,"RT":338,"Accuracy":0,"Outcome":"+1","Keys":[1838],"TotalKeys":1,"Block":2,"Trial":129,"Robot":2,"Valence":"Win","Action":"No-Go","Sham":0,"Color":"yellow","trial_type":"pit-trial","trial_index":147,"time_elapsed":580550,"internal_node_id":"0.0-136.0","task_version":"test-retest-t2"},{"Rune":"rune_04_ac","Hex":"#3366ff99","Correct":-1,"Choice":-1,"RT":-1,"Accuracy":1,"Outcome":"-1","Keys":[],"TotalKeys":0,"Block":2,"Trial":130,"Robot":4,"Valence":"Lose","Action":"No-Go","Sham":0,"Color":"blue","trial_type":"pit-trial","trial_index":148,"time_elapsed":584551,"internal_node_id":"0.0-137.0","task_version":"test-retest-t2"},{"Rune":"rune_04_dagaz","Hex":"#3366ff99","Correct":32,"Choice":32,"RT":502,"Accuracy":1,"Outcome":"-1","Keys":[2003],"TotalKeys":1,"Block":2,"Trial":131,"Robot":3,"Valence":"Lose","Action":"Go","Sham":0,"Color":"blue","trial_type":"pit-trial","trial_index":149,"time_elapsed":587557,"internal_node_id":"0.0-138.0","task_version":"test-retest-t2"},{"Rune":"rune_04_iwaz","Hex":"#ffcc3399","Correct":32,"Choice":32,"RT":385,"Accuracy":1,"Outcome":"+10","Keys":[1885],"TotalKeys":1,"Block":2,"Trial":132,"Robot":1,"Valence":"Win","Action":"Go","Sham":0,"Color":"yellow","trial_type":"pit-trial","trial_index":150,"time_elapsed":590446,"internal_node_id":"0.0-139.0","task_version":"test-retest-t2"},{"Rune":"rune_04_wunjo","Hex":"#ffcc3399","Correct":-1,"Choice":-1,"RT":-1,"Accuracy":1,"Outcome":"+10","Keys":[],"TotalKeys":0,"Block":2,"Trial":133,"Robot":2,"Valence":"Win","Action":"No-Go","Sham":0,"Color":"yellow","trial_type":"pit-trial","trial_index":151,"time_elapsed":594451,"internal_node_id":"0.0-140.0","task_version":"test-retest-t2"},{"Rune":"rune_04_ac","Hex":"#3366ff99","Correct":-1,"Choice":-1,"RT":-1,"Accuracy":1,"Outcome":"-1","Keys":[],"TotalKeys":0,"Block":2,"Trial":134,"Robot":4,"Valence":"Lose","Action":"No-Go","Sham":0,"Color":"blue","trial_type":"pit-trial","trial_index":152,"time_elapsed":598455,"internal_node_id":"0.0-141.0","task_version":"test-retest-t2"},{"Rune":"rune_04_dagaz","Hex":"#3366ff99","Correct":32,"Choice":32,"RT":237,"Accuracy":1,"Outcome":"-1","Keys":[1739],"TotalKeys":1,"Block":2,"Trial":135,"Robot":3,"Valence":"Lose","Action":"Go","Sham":0,"Color":"blue","trial_type":"pit-trial","trial_index":153,"time_elapsed":601197,"internal_node_id":"0.0-142.0","task_version":"test-retest-t2"},{"Rune":"rune_04_iwaz","Hex":"#ffcc3399","Correct":32,"Choice":32,"RT":392,"Accuracy":1,"Outcome":"+10","Keys":[1893],"TotalKeys":1,"Block":2,"Trial":136,"Robot":1,"Valence":"Win","Action":"Go","Sham":0,"Color":"yellow","trial_type":"pit-trial","trial_index":154,"time_elapsed":604093,"internal_node_id":"0.0-143.0","task_version":"test-retest-t2"},{"Rune":"rune_04_wunjo","Hex":"#ffcc3399","Correct":-1,"Choice":-1,"RT":-1,"Accuracy":1,"Outcome":"+10","Keys":[],"TotalKeys":0,"Block":2,"Trial":137,"Robot":2,"Valence":"Win","Action":"No-Go","Sham":0,"Color":"yellow","trial_type":"pit-trial","trial_index":155,"time_elapsed":608097,"internal_node_id":"0.0-144.0","task_version":"test-retest-t2"},{"Rune":"rune_04_iwaz","Hex":"#ffcc3399","Correct":32,"Choice":32,"RT":348,"Accuracy":1,"Outcome":"+10","Keys":[1849],"TotalKeys":1,"Block":2,"Trial":138,"Robot":1,"Valence":"Win","Action":"Go","Sham":0,"Color":"yellow","trial_type":"pit-trial","trial_index":156,"time_elapsed":610947,"internal_node_id":"0.0-145.0","task_version":"test-retest-t2"},{"Rune":"rune_04_dagaz","Hex":"#3366ff99","Correct":32,"Choice":32,"RT":417,"Accuracy":1,"Outcome":"-10","Keys":[1918],"TotalKeys":1,"Block":2,"Trial":139,"Robot":3,"Valence":"Lose","Action":"Go","Sham":1,"Color":"blue","trial_type":"pit-trial","trial_index":157,"time_elapsed":613868,"internal_node_id":"0.0-146.0","task_version":"test-retest-t2"},{"Rune":"rune_04_ac","Hex":"#3366ff99","Correct":-1,"Choice":-1,"RT":-1,"Accuracy":1,"Outcome":"-1","Keys":[],"TotalKeys":0,"Block":2,"Trial":140,"Robot":4,"Valence":"Lose","Action":"No-Go","Sham":0,"Color":"blue","trial_type":"pit-trial","trial_index":158,"time_elapsed":617872,"internal_node_id":"0.0-147.0","task_version":"test-retest-t2"},{"Rune":"rune_04_dagaz","Hex":"#3366ff99","Correct":32,"Choice":32,"RT":357,"Accuracy":1,"Outcome":"-10","Keys":[1858],"TotalKeys":1,"Block":2,"Trial":141,"Robot":3,"Valence":"Lose","Action":"Go","Sham":1,"Color":"blue","trial_type":"pit-trial","trial_index":159,"time_elapsed":620731,"internal_node_id":"0.0-148.0","task_version":"test-retest-t2"},{"Rune":"rune_04_wunjo","Hex":"#ffcc3399","Correct":-1,"Choice":-1,"RT":-1,"Accuracy":1,"Outcome":"+1","Keys":[],"TotalKeys":0,"Block":2,"Trial":142,"Robot":2,"Valence":"Win","Action":"No-Go","Sham":1,"Color":"yellow","trial_type":"pit-trial","trial_index":160,"time_elapsed":624735,"internal_node_id":"0.0-149.0","task_version":"test-retest-t2"},{"Rune":"rune_04_ac","Hex":"#3366ff99","Correct":-1,"Choice":-1,"RT":-1,"Accuracy":1,"Outcome":"-10","Keys":[],"TotalKeys":0,"Block":2,"Trial":143,"Robot":4,"Valence":"Lose","Action":"No-Go","Sham":1,"Color":"blue","trial_type":"pit-trial","trial_index":161,"time_elapsed":628739,"internal_node_id":"0.0-150.0","task_version":"test-retest-t2"},{"Rune":"rune_04_iwaz","Hex":"#ffcc3399","Correct":32,"Choice":32,"RT":361,"Accuracy":1,"Outcome":"+10","Keys":[1862],"TotalKeys":1,"Block":2,"Trial":144,"Robot":1,"Valence":"Win","Action":"Go","Sham":0,"Color":"yellow","trial_type":"pit-trial","trial_index":162,"time_elapsed":631603,"internal_node_id":"0.0-151.0","task_version":"test-retest-t2"},{"Rune":"rune_04_dagaz","Hex":"#3366ff99","Correct":32,"Choice":32,"RT":272,"Accuracy":1,"Outcome":"-1","Keys":[1773],"TotalKeys":1,"Block":2,"Trial":145,"Robot":3,"Valence":"Lose","Action":"Go","Sham":0,"Color":"blue","trial_type":"pit-trial","trial_index":163,"time_elapsed":634380,"internal_node_id":"0.0-152.0","task_version":"test-retest-t2"},{"Rune":"rune_04_iwaz","Hex":"#ffcc3399","Correct":32,"Choice":32,"RT":343,"Accuracy":1,"Outcome":"+10","Keys":[1844],"TotalKeys":1,"Block":2,"Trial":146,"Robot":1,"Valence":"Win","Action":"Go","Sham":0,"Color":"yellow","trial_type":"pit-trial","trial_index":164,"time_elapsed":637227,"internal_node_id":"0.0-153.0","task_version":"test-retest-t2"},{"Rune":"rune_04_ac","Hex":"#3366ff99","Correct":-1,"Choice":-1,"RT":-1,"Accuracy":1,"Outcome":"-1","Keys":[],"TotalKeys":0,"Block":2,"Trial":147,"Robot":4,"Valence":"Lose","Action":"No-Go","Sham":0,"Color":"blue","trial_type":"pit-trial","trial_index":165,"time_elapsed":641230,"internal_node_id":"0.0-154.0","task_version":"test-retest-t2"},{"Rune":"rune_04_wunjo","Hex":"#ffcc3399","Correct":-1,"Choice":32,"RT":350,"Accuracy":0,"Outcome":"+1","Keys":[1850],"TotalKeys":1,"Block":2,"Trial":148,"Robot":2,"Valence":"Win","Action":"No-Go","Sham":0,"Color":"yellow","trial_type":"pit-trial","trial_index":166,"time_elapsed":644083,"internal_node_id":"0.0-155.0","task_version":"test-retest-t2"},{"Rune":"rune_04_wunjo","Hex":"#ffcc3399","Correct":-1,"Choice":-1,"RT":-1,"Accuracy":1,"Outcome":"+10","Keys":[],"TotalKeys":0,"Block":2,"Trial":149,"Robot":2,"Valence":"Win","Action":"No-Go","Sham":0,"Color":"yellow","trial_type":"pit-trial","trial_index":167,"time_elapsed":648087,"internal_node_id":"0.0-156.0","task_version":"test-retest-t2"},{"Rune":"rune_04_ac","Hex":"#3366ff99","Correct":-1,"Choice":-1,"RT":-1,"Accuracy":1,"Outcome":"-1","Keys":[],"TotalKeys":0,"Block":2,"Trial":150,"Robot":4,"Valence":"Lose","Action":"No-Go","Sham":0,"Color":"blue","trial_type":"pit-trial","trial_index":168,"time_elapsed":652088,"internal_node_id":"0.0-157.0","task_version":"test-retest-t2"},{"Rune":"rune_04_iwaz","Hex":"#ffcc3399","Correct":32,"Choice":32,"RT":339,"Accuracy":1,"Outcome":"+10","Keys":[1840],"TotalKeys":1,"Block":2,"Trial":151,"Robot":1,"Valence":"Win","Action":"Go","Sham":0,"Color":"yellow","trial_type":"pit-trial","trial_index":169,"time_elapsed":654930,"internal_node_id":"0.0-158.0","task_version":"test-retest-t2"},{"Rune":"rune_04_dagaz","Hex":"#3366ff99","Correct":32,"Choice":32,"RT":361,"Accuracy":1,"Outcome":"-1","Keys":[1862],"TotalKeys":1,"Block":2,"Trial":152,"Robot":3,"Valence":"Lose","Action":"Go","Sham":0,"Color":"blue","trial_type":"pit-trial","trial_index":170,"time_elapsed":657794,"internal_node_id":"0.0-159.0","task_version":"test-retest-t2"},{"Rune":"rune_04_ac","Hex":"#3366ff99","Correct":-1,"Choice":-1,"RT":-1,"Accuracy":1,"Outcome":"-1","Keys":[],"TotalKeys":0,"Block":2,"Trial":153,"Robot":4,"Valence":"Lose","Action":"No-Go","Sham":0,"Color":"blue","trial_type":"pit-trial","trial_index":171,"time_elapsed":661798,"internal_node_id":"0.0-160.0","task_version":"test-retest-t2"},{"Rune":"rune_04_wunjo","Hex":"#ffcc3399","Correct":-1,"Choice":-1,"RT":-1,"Accuracy":1,"Outcome":"+10","Keys":[],"TotalKeys":0,"Block":2,"Trial":154,"Robot":2,"Valence":"Win","Action":"No-Go","Sham":0,"Color":"yellow","trial_type":"pit-trial","trial_index":172,"time_elapsed":665801,"internal_node_id":"0.0-161.0","task_version":"test-retest-t2"},{"Rune":"rune_04_iwaz","Hex":"#ffcc3399","Correct":32,"Choice":32,"RT":281,"Accuracy":1,"Outcome":"+10","Keys":[1782],"TotalKeys":1,"Block":2,"Trial":155,"Robot":1,"Valence":"Win","Action":"Go","Sham":0,"Color":"yellow","trial_type":"pit-trial","trial_index":173,"time_elapsed":668587,"internal_node_id":"0.0-162.0","task_version":"test-retest-t2"},{"Rune":"rune_04_dagaz","Hex":"#3366ff99","Correct":32,"Choice":32,"RT":416,"Accuracy":1,"Outcome":"-1","Keys":[1917],"TotalKeys":1,"Block":2,"Trial":156,"Robot":3,"Valence":"Lose","Action":"Go","Sham":0,"Color":"blue","trial_type":"pit-trial","trial_index":174,"time_elapsed":671507,"internal_node_id":"0.0-163.0","task_version":"test-retest-t2"},{"Rune":"rune_04_wunjo","Hex":"#ffcc3399","Correct":-1,"Choice":-1,"RT":-1,"Accuracy":1,"Outcome":"+10","Keys":[],"TotalKeys":0,"Block":2,"Trial":157,"Robot":2,"Valence":"Win","Action":"No-Go","Sham":0,"Color":"yellow","trial_type":"pit-trial","trial_index":175,"time_elapsed":675509,"internal_node_id":"0.0-164.0","task_version":"test-retest-t2"},{"Rune":"rune_04_dagaz","Hex":"#3366ff99","Correct":32,"Choice":32,"RT":430,"Accuracy":1,"Outcome":"-1","Keys":[1929],"TotalKeys":1,"Block":2,"Trial":158,"Robot":3,"Valence":"Lose","Action":"Go","Sham":0,"Color":"blue","trial_type":"pit-trial","trial_index":176,"time_elapsed":678441,"internal_node_id":"0.0-165.0","task_version":"test-retest-t2"},{"Rune":"rune_04_iwaz","Hex":"#ffcc3399","Correct":32,"Choice":32,"RT":369,"Accuracy":1,"Outcome":"+1","Keys":[1870],"TotalKeys":1,"Block":2,"Trial":159,"Robot":1,"Valence":"Win","Action":"Go","Sham":1,"Color":"yellow","trial_type":"pit-trial","trial_index":177,"time_elapsed":681312,"internal_node_id":"0.0-166.0","task_version":"test-retest-t2"},{"Rune":"rune_04_ac","Hex":"#3366ff99","Correct":-1,"Choice":-1,"RT":-1,"Accuracy":1,"Outcome":"-1","Keys":[],"TotalKeys":0,"Block":2,"Trial":160,"Robot":4,"Valence":"Lose","Action":"No-Go","Sham":0,"Color":"blue","trial_type":"pit-trial","trial_index":178,"time_elapsed":685317,"internal_node_id":"0.0-167.0","task_version":"test-retest-t2"},{"Rune":"rune_04_dagaz","Hex":"#3366ff99","Correct":32,"Choice":32,"RT":355,"Accuracy":1,"Outcome":"-1","Keys":[1857],"TotalKeys":1,"Block":2,"Trial":161,"Robot":3,"Valence":"Lose","Action":"Go","Sham":0,"Color":"blue","trial_type":"pit-trial","trial_index":179,"time_elapsed":688177,"internal_node_id":"0.0-168.0","task_version":"test-retest-t2"},{"Rune":"rune_04_ac","Hex":"#3366ff99","Correct":-1,"Choice":-1,"RT":-1,"Accuracy":1,"Outcome":"-1","Keys":[],"TotalKeys":0,"Block":2,"Trial":162,"Robot":4,"Valence":"Lose","Action":"No-Go","Sham":0,"Color":"blue","trial_type":"pit-trial","trial_index":180,"time_elapsed":692180,"internal_node_id":"0.0-169.0","task_version":"test-retest-t2"},{"Rune":"rune_04_iwaz","Hex":"#ffcc3399","Correct":32,"Choice":32,"RT":318,"Accuracy":1,"Outcome":"+10","Keys":[1817],"TotalKeys":1,"Block":2,"Trial":163,"Robot":1,"Valence":"Win","Action":"Go","Sham":0,"Color":"yellow","trial_type":"pit-trial","trial_index":181,"time_elapsed":694999,"internal_node_id":"0.0-170.0","task_version":"test-retest-t2"},{"Rune":"rune_04_wunjo","Hex":"#ffcc3399","Correct":-1,"Choice":-1,"RT":-1,"Accuracy":1,"Outcome":"+10","Keys":[],"TotalKeys":0,"Block":2,"Trial":164,"Robot":2,"Valence":"Win","Action":"No-Go","Sham":0,"Color":"yellow","trial_type":"pit-trial","trial_index":182,"time_elapsed":699003,"internal_node_id":"0.0-171.0","task_version":"test-retest-t2"},{"Rune":"rune_04_ac","Hex":"#3366ff99","Correct":-1,"Choice":-1,"RT":-1,"Accuracy":1,"Outcome":"-10","Keys":[],"TotalKeys":0,"Block":2,"Trial":165,"Robot":4,"Valence":"Lose","Action":"No-Go","Sham":1,"Color":"blue","trial_type":"pit-trial","trial_index":183,"time_elapsed":703006,"internal_node_id":"0.0-172.0","task_version":"test-retest-t2"},{"Rune":"rune_04_wunjo","Hex":"#ffcc3399","Correct":-1,"Choice":-1,"RT":-1,"Accuracy":1,"Outcome":"+10","Keys":[],"TotalKeys":0,"Block":2,"Trial":166,"Robot":2,"Valence":"Win","Action":"No-Go","Sham":0,"Color":"yellow","trial_type":"pit-trial","trial_index":184,"time_elapsed":707010,"internal_node_id":"0.0-173.0","task_version":"test-retest-t2"},{"Rune":"rune_04_iwaz","Hex":"#ffcc3399","Correct":32,"Choice":32,"RT":368,"Accuracy":1,"Outcome":"+10","Keys":[1868],"TotalKeys":1,"Block":2,"Trial":167,"Robot":1,"Valence":"Win","Action":"Go","Sham":0,"Color":"yellow","trial_type":"pit-trial","trial_index":185,"time_elapsed":709880,"internal_node_id":"0.0-174.0","task_version":"test-retest-t2"},{"Rune":"rune_04_dagaz","Hex":"#3366ff99","Correct":32,"Choice":32,"RT":408,"Accuracy":1,"Outcome":"-1","Keys":[1909],"TotalKeys":1,"Block":2,"Trial":168,"Robot":3,"Valence":"Lose","Action":"Go","Sham":0,"Color":"blue","trial_type":"pit-trial","trial_index":186,"time_elapsed":712793,"internal_node_id":"0.0-175.0","task_version":"test-retest-t2"},{"Rune":"rune_04_iwaz","Hex":"#ffcc3399","Correct":32,"Choice":32,"RT":409,"Accuracy":1,"Outcome":"+10","Keys":[1909],"TotalKeys":1,"Block":2,"Trial":169,"Robot":1,"Valence":"Win","Action":"Go","Sham":0,"Color":"yellow","trial_type":"pit-trial","trial_index":187,"time_elapsed":715702,"internal_node_id":"0.0-176.0","task_version":"test-retest-t2"},{"Rune":"rune_04_ac","Hex":"#3366ff99","Correct":-1,"Choice":-1,"RT":-1,"Accuracy":1,"Outcome":"-1","Keys":[],"TotalKeys":0,"Block":2,"Trial":170,"Robot":4,"Valence":"Lose","Action":"No-Go","Sham":0,"Color":"blue","trial_type":"pit-trial","trial_index":188,"time_elapsed":719707,"internal_node_id":"0.0-177.0","task_version":"test-retest-t2"},{"Rune":"rune_04_wunjo","Hex":"#ffcc3399","Correct":-1,"Choice":-1,"RT":-1,"Accuracy":1,"Outcome":"+10","Keys":[],"TotalKeys":0,"Block":2,"Trial":171,"Robot":2,"Valence":"Win","Action":"No-Go","Sham":0,"Color":"yellow","trial_type":"pit-trial","trial_index":189,"time_elapsed":723711,"internal_node_id":"0.0-178.0","task_version":"test-retest-t2"},{"Rune":"rune_04_dagaz","Hex":"#3366ff99","Correct":32,"Choice":32,"RT":339,"Accuracy":1,"Outcome":"-10","Keys":[1838],"TotalKeys":1,"Block":2,"Trial":172,"Robot":3,"Valence":"Lose","Action":"Go","Sham":1,"Color":"blue","trial_type":"pit-trial","trial_index":190,"time_elapsed":726551,"internal_node_id":"0.0-179.0","task_version":"test-retest-t2"},{"Rune":"rune_04_iwaz","Hex":"#ffcc3399","Correct":32,"Choice":32,"RT":448,"Accuracy":1,"Outcome":"+1","Keys":[1949],"TotalKeys":1,"Block":2,"Trial":173,"Robot":1,"Valence":"Win","Action":"Go","Sham":1,"Color":"yellow","trial_type":"pit-trial","trial_index":191,"time_elapsed":729503,"internal_node_id":"0.0-180.0","task_version":"test-retest-t2"},{"Rune":"rune_04_ac","Hex":"#3366ff99","Correct":-1,"Choice":-1,"RT":-1,"Accuracy":1,"Outcome":"-1","Keys":[],"TotalKeys":0,"Block":2,"Trial":174,"Robot":4,"Valence":"Lose","Action":"No-Go","Sham":0,"Color":"blue","trial_type":"pit-trial","trial_index":192,"time_elapsed":733506,"internal_node_id":"0.0-181.0","task_version":"test-retest-t2"},{"Rune":"rune_04_wunjo","Hex":"#ffcc3399","Correct":-1,"Choice":-1,"RT":-1,"Accuracy":1,"Outcome":"+10","Keys":[],"TotalKeys":0,"Block":2,"Trial":175,"Robot":2,"Valence":"Win","Action":"No-Go","Sham":0,"Color":"yellow","trial_type":"pit-trial","trial_index":193,"time_elapsed":737510,"internal_node_id":"0.0-182.0","task_version":"test-retest-t2"},{"Rune":"rune_04_dagaz","Hex":"#3366ff99","Correct":32,"Choice":32,"RT":410,"Accuracy":1,"Outcome":"-1","Keys":[1911],"TotalKeys":1,"Block":2,"Trial":176,"Robot":3,"Valence":"Lose","Action":"Go","Sham":0,"Color":"blue","trial_type":"pit-trial","trial_index":194,"time_elapsed":740423,"internal_node_id":"0.0-183.0","task_version":"test-retest-t2"},{"Rune":"rune_04_wunjo","Hex":"#ffcc3399","Correct":-1,"Choice":-1,"RT":-1,"Accuracy":1,"Outcome":"+1","Keys":[],"TotalKeys":0,"Block":2,"Trial":177,"Robot":2,"Valence":"Win","Action":"No-Go","Sham":1,"Color":"yellow","trial_type":"pit-trial","trial_index":195,"time_elapsed":744426,"internal_node_id":"0.0-184.0","task_version":"test-retest-t2"},{"Rune":"rune_04_dagaz","Hex":"#3366ff99","Correct":32,"Choice":32,"RT":342,"Accuracy":1,"Outcome":"-1","Keys":[1842],"TotalKeys":1,"Block":2,"Trial":178,"Robot":3,"Valence":"Lose","Action":"Go","Sham":0,"Color":"blue","trial_type":"pit-trial","trial_index":196,"time_elapsed":747270,"internal_node_id":"0.0-185.0","task_version":"test-retest-t2"},{"Rune":"rune_04_ac","Hex":"#3366ff99","Correct":-1,"Choice":-1,"RT":-1,"Accuracy":1,"Outcome":"-1","Keys":[],"TotalKeys":0,"Block":2,"Trial":179,"Robot":4,"Valence":"Lose","Action":"No-Go","Sham":0,"Color":"blue","trial_type":"pit-trial","trial_index":197,"time_elapsed":751272,"internal_node_id":"0.0-186.0","task_version":"test-retest-t2"},{"Rune":"rune_04_iwaz","Hex":"#ffcc3399","Correct":32,"Choice":32,"RT":366,"Accuracy":1,"Outcome":"+10","Keys":[1867],"TotalKeys":1,"Block":2,"Trial":180,"Robot":1,"Valence":"Win","Action":"Go","Sham":0,"Color":"yellow","trial_type":"pit-trial","trial_index":198,"time_elapsed":754141,"internal_node_id":"0.0-187.0","task_version":"test-retest-t2"},{"view_history":"[{\"page_index\":0,\"viewing_time\":2037},{\"page_index\":1,\"viewing_time\":1308}]","rt":3345,"trial_type":"pit-instructions","trial_index":199,"time_elapsed":757488,"internal_node_id":"0.0-188.0","task_version":"test-retest-t2"},{"Rune":"rune_04_iwaz","Hex":"#ffcc3399","Correct":32,"Choice":32,"RT":300,"Accuracy":1,"Outcome":"+10","Keys":[1801],"TotalKeys":1,"Block":2,"Trial":181,"Robot":1,"Valence":"Win","Action":"Go","Sham":0,"Color":"yellow","trial_type":"pit-trial","trial_index":200,"time_elapsed":760293,"internal_node_id":"0.0-189.0","task_version":"test-retest-t2"},{"Rune":"rune_04_ac","Hex":"#3366ff99","Correct":-1,"Choice":-1,"RT":-1,"Accuracy":1,"Outcome":"-1","Keys":[],"TotalKeys":0,"Block":2,"Trial":182,"Robot":4,"Valence":"Lose","Action":"No-Go","Sham":0,"Color":"blue","trial_type":"pit-trial","trial_index":201,"time_elapsed":764295,"internal_node_id":"0.0-190.0","task_version":"test-retest-t2"},{"Rune":"rune_04_wunjo","Hex":"#ffcc3399","Correct":-1,"Choice":-1,"RT":-1,"Accuracy":1,"Outcome":"+1","Keys":[],"TotalKeys":0,"Block":2,"Trial":183,"Robot":2,"Valence":"Win","Action":"No-Go","Sham":1,"Color":"yellow","trial_type":"pit-trial","trial_index":202,"time_elapsed":768299,"internal_node_id":"0.0-191.0","task_version":"test-retest-t2"},{"Rune":"rune_04_dagaz","Hex":"#3366ff99","Correct":32,"Choice":32,"RT":266,"Accuracy":1,"Outcome":"-1","Keys":[1767],"TotalKeys":1,"Block":2,"Trial":184,"Robot":3,"Valence":"Lose","Action":"Go","Sham":0,"Color":"blue","trial_type":"pit-trial","trial_index":203,"time_elapsed":771069,"internal_node_id":"0.0-192.0","task_version":"test-retest-t2"},{"Rune":"rune_04_iwaz","Hex":"#ffcc3399","Correct":32,"Choice":32,"RT":352,"Accuracy":1,"Outcome":"+1","Keys":[1854],"TotalKeys":1,"Block":2,"Trial":185,"Robot":1,"Valence":"Win","Action":"Go","Sham":1,"Color":"yellow","trial_type":"pit-trial","trial_index":204,"time_elapsed":773924,"internal_node_id":"0.0-193.0","task_version":"test-retest-t2"},{"Rune":"rune_04_wunjo","Hex":"#ffcc3399","Correct":-1,"Choice":-1,"RT":-1,"Accuracy":1,"Outcome":"+10","Keys":[],"TotalKeys":0,"Block":2,"Trial":186,"Robot":2,"Valence":"Win","Action":"No-Go","Sham":0,"Color":"yellow","trial_type":"pit-trial","trial_index":205,"time_elapsed":777928,"internal_node_id":"0.0-194.0","task_version":"test-retest-t2"},{"Rune":"rune_04_ac","Hex":"#3366ff99","Correct":-1,"Choice":-1,"RT":-1,"Accuracy":1,"Outcome":"-1","Keys":[],"TotalKeys":0,"Block":2,"Trial":187,"Robot":4,"Valence":"Lose","Action":"No-Go","Sham":0,"Color":"blue","trial_type":"pit-trial","trial_index":206,"time_elapsed":781932,"internal_node_id":"0.0-195.0","task_version":"test-retest-t2"},{"Rune":"rune_04_dagaz","Hex":"#3366ff99","Correct":32,"Choice":32,"RT":337,"Accuracy":1,"Outcome":"-1","Keys":[1838],"TotalKeys":1,"Block":2,"Trial":188,"Robot":3,"Valence":"Lose","Action":"Go","Sham":0,"Color":"blue","trial_type":"pit-trial","trial_index":207,"time_elapsed":784772,"internal_node_id":"0.0-196.0","task_version":"test-retest-t2"},{"Rune":"rune_04_iwaz","Hex":"#ffcc3399","Correct":32,"Choice":32,"RT":313,"Accuracy":1,"Outcome":"+10","Keys":[1813],"TotalKeys":1,"Block":2,"Trial":189,"Robot":1,"Valence":"Win","Action":"Go","Sham":0,"Color":"yellow","trial_type":"pit-trial","trial_index":208,"time_elapsed":787588,"internal_node_id":"0.0-197.0","task_version":"test-retest-t2"},{"Rune":"rune_04_dagaz","Hex":"#3366ff99","Correct":32,"Choice":32,"RT":403,"Accuracy":1,"Outcome":"-10","Keys":[1903],"TotalKeys":1,"Block":2,"Trial":190,"Robot":3,"Valence":"Lose","Action":"Go","Sham":1,"Color":"blue","trial_type":"pit-trial","trial_index":209,"time_elapsed":790494,"internal_node_id":"0.0-198.0","task_version":"test-retest-t2"},{"Rune":"rune_04_ac","Hex":"#3366ff99","Correct":-1,"Choice":-1,"RT":-1,"Accuracy":1,"Outcome":"-10","Keys":[],"TotalKeys":0,"Block":2,"Trial":191,"Robot":4,"Valence":"Lose","Action":"No-Go","Sham":1,"Color":"blue","trial_type":"pit-trial","trial_index":210,"time_elapsed":794497,"internal_node_id":"0.0-199.0","task_version":"test-retest-t2"},{"Rune":"rune_04_wunjo","Hex":"#ffcc3399","Correct":-1,"Choice":32,"RT":307,"Accuracy":0,"Outcome":"+1","Keys":[1809],"TotalKeys":1,"Block":2,"Trial":192,"Robot":2,"Valence":"Win","Action":"No-Go","Sham":0,"Color":"yellow","trial_type":"pit-trial","trial_index":211,"time_elapsed":797308,"internal_node_id":"0.0-200.0","task_version":"test-retest-t2"},{"Rune":"rune_04_dagaz","Hex":"#3366ff99","Correct":32,"Choice":32,"RT":417,"Accuracy":1,"Outcome":"-1","Keys":[1918],"TotalKeys":1,"Block":2,"Trial":193,"Robot":3,"Valence":"Lose","Action":"Go","Sham":0,"Color":"blue","trial_type":"pit-trial","trial_index":212,"time_elapsed":800227,"internal_node_id":"0.0-201.0","task_version":"test-retest-t2"},{"Rune":"rune_04_wunjo","Hex":"#ffcc3399","Correct":-1,"Choice":-1,"RT":-1,"Accuracy":1,"Outcome":"+10","Keys":[],"TotalKeys":0,"Block":2,"Trial":194,"Robot":2,"Valence":"Win","Action":"No-Go","Sham":0,"Color":"yellow","trial_type":"pit-trial","trial_index":213,"time_elapsed":804230,"internal_node_id":"0.0-202.0","task_version":"test-retest-t2"},{"Rune":"rune_04_iwaz","Hex":"#ffcc3399","Correct":32,"Choice":32,"RT":335,"Accuracy":1,"Outcome":"+10","Keys":[1835],"TotalKeys":1,"Block":2,"Trial":195,"Robot":1,"Valence":"Win","Action":"Go","Sham":0,"Color":"yellow","trial_type":"pit-trial","trial_index":214,"time_elapsed":807067,"internal_node_id":"0.0-203.0","task_version":"test-retest-t2"},{"Rune":"rune_04_ac","Hex":"#3366ff99","Correct":-1,"Choice":-1,"RT":-1,"Accuracy":1,"Outcome":"-1","Keys":[],"TotalKeys":0,"Block":2,"Trial":196,"Robot":4,"Valence":"Lose","Action":"No-Go","Sham":0,"Color":"blue","trial_type":"pit-trial","trial_index":215,"time_elapsed":811072,"internal_node_id":"0.0-204.0","task_version":"test-retest-t2"},{"Rune":"rune_04_wunjo","Hex":"#ffcc3399","Correct":-1,"Choice":-1,"RT":-1,"Accuracy":1,"Outcome":"+10","Keys":[],"TotalKeys":0,"Block":2,"Trial":197,"Robot":2,"Valence":"Win","Action":"No-Go","Sham":0,"Color":"yellow","trial_type":"pit-trial","trial_index":216,"time_elapsed":815076,"internal_node_id":"0.0-205.0","task_version":"test-retest-t2"},{"Rune":"rune_04_ac","Hex":"#3366ff99","Correct":-1,"Choice":-1,"RT":-1,"Accuracy":1,"Outcome":"-1","Keys":[],"TotalKeys":0,"Block":2,"Trial":198,"Robot":4,"Valence":"Lose","Action":"No-Go","Sham":0,"Color":"blue","trial_type":"pit-trial","trial_index":217,"time_elapsed":819079,"internal_node_id":"0.0-206.0","task_version":"test-retest-t2"},{"Rune":"rune_04_dagaz","Hex":"#3366ff99","Correct":32,"Choice":32,"RT":412,"Accuracy":1,"Outcome":"-1","Keys":[1913],"TotalKeys":1,"Block":2,"Trial":199,"Robot":3,"Valence":"Lose","Action":"Go","Sham":0,"Color":"blue","trial_type":"pit-trial","trial_index":218,"time_elapsed":821994,"internal_node_id":"0.0-207.0","task_version":"test-retest-t2"},{"Rune":"rune_04_iwaz","Hex":"#ffcc3399","Correct":32,"Choice":32,"RT":369,"Accuracy":1,"Outcome":"+10","Keys":[1869],"TotalKeys":1,"Block":2,"Trial":200,"Robot":1,"Valence":"Win","Action":"Go","Sham":0,"Color":"yellow","trial_type":"pit-trial","trial_index":219,"time_elapsed":824866,"internal_node_id":"0.0-208.0","task_version":"test-retest-t2"},{"Rune":"rune_04_wunjo","Hex":"#ffcc3399","Correct":-1,"Choice":-1,"RT":-1,"Accuracy":1,"Outcome":"+10","Keys":[],"TotalKeys":0,"Block":2,"Trial":201,"Robot":2,"Valence":"Win","Action":"No-Go","Sham":0,"Color":"yellow","trial_type":"pit-trial","trial_index":220,"time_elapsed":828869,"internal_node_id":"0.0-209.0","task_version":"test-retest-t2"},{"Rune":"rune_04_dagaz","Hex":"#3366ff99","Correct":32,"Choice":32,"RT":270,"Accuracy":1,"Outcome":"-1","Keys":[1771],"TotalKeys":1,"Block":2,"Trial":202,"Robot":3,"Valence":"Lose","Action":"Go","Sham":0,"Color":"blue","trial_type":"pit-trial","trial_index":221,"time_elapsed":831642,"internal_node_id":"0.0-210.0","task_version":"test-retest-t2"},{"Rune":"rune_04_ac","Hex":"#3366ff99","Correct":-1,"Choice":-1,"RT":-1,"Accuracy":1,"Outcome":"-10","Keys":[],"TotalKeys":0,"Block":2,"Trial":203,"Robot":4,"Valence":"Lose","Action":"No-Go","Sham":1,"Color":"blue","trial_type":"pit-trial","trial_index":222,"time_elapsed":835647,"internal_node_id":"0.0-211.0","task_version":"test-retest-t2"},{"Rune":"rune_04_iwaz","Hex":"#ffcc3399","Correct":32,"Choice":32,"RT":356,"Accuracy":1,"Outcome":"+1","Keys":[1857],"TotalKeys":1,"Block":2,"Trial":204,"Robot":1,"Valence":"Win","Action":"Go","Sham":1,"Color":"yellow","trial_type":"pit-trial","trial_index":223,"time_elapsed":838507,"internal_node_id":"0.0-212.0","task_version":"test-retest-t2"},{"Rune":"rune_04_iwaz","Hex":"#ffcc3399","Correct":32,"Choice":32,"RT":353,"Accuracy":1,"Outcome":"+10","Keys":[1853],"TotalKeys":1,"Block":2,"Trial":205,"Robot":1,"Valence":"Win","Action":"Go","Sham":0,"Color":"yellow","trial_type":"pit-trial","trial_index":224,"time_elapsed":841361,"internal_node_id":"0.0-213.0","task_version":"test-retest-t2"},{"Rune":"rune_04_wunjo","Hex":"#ffcc3399","Correct":-1,"Choice":-1,"RT":-1,"Accuracy":1,"Outcome":"+10","Keys":[],"TotalKeys":0,"Block":2,"Trial":206,"Robot":2,"Valence":"Win","Action":"No-Go","Sham":0,"Color":"yellow","trial_type":"pit-trial","trial_index":225,"time_elapsed":845366,"internal_node_id":"0.0-214.0","task_version":"test-retest-t2"},{"Rune":"rune_04_dagaz","Hex":"#3366ff99","Correct":32,"Choice":32,"RT":412,"Accuracy":1,"Outcome":"-1","Keys":[1913],"TotalKeys":1,"Block":2,"Trial":207,"Robot":3,"Valence":"Lose","Action":"Go","Sham":0,"Color":"blue","trial_type":"pit-trial","trial_index":226,"time_elapsed":848283,"internal_node_id":"0.0-215.0","task_version":"test-retest-t2"},{"Rune":"rune_04_ac","Hex":"#3366ff99","Correct":-1,"Choice":-1,"RT":-1,"Accuracy":1,"Outcome":"-1","Keys":[],"TotalKeys":0,"Block":2,"Trial":208,"Robot":4,"Valence":"Lose","Action":"No-Go","Sham":0,"Color":"blue","trial_type":"pit-trial","trial_index":227,"time_elapsed":852286,"internal_node_id":"0.0-216.0","task_version":"test-retest-t2"},{"Rune":"rune_04_iwaz","Hex":"#ffcc3399","Correct":32,"Choice":32,"RT":356,"Accuracy":1,"Outcome":"+10","Keys":[1856],"TotalKeys":1,"Block":2,"Trial":209,"Robot":1,"Valence":"Win","Action":"Go","Sham":0,"Color":"yellow","trial_type":"pit-trial","trial_index":228,"time_elapsed":855145,"internal_node_id":"0.0-217.0","task_version":"test-retest-t2"},{"Rune":"rune_04_ac","Hex":"#3366ff99","Correct":-1,"Choice":-1,"RT":-1,"Accuracy":1,"Outcome":"-1","Keys":[],"TotalKeys":0,"Block":2,"Trial":210,"Robot":4,"Valence":"Lose","Action":"No-Go","Sham":0,"Color":"blue","trial_type":"pit-trial","trial_index":229,"time_elapsed":859148,"internal_node_id":"0.0-218.0","task_version":"test-retest-t2"},{"Rune":"rune_04_dagaz","Hex":"#3366ff99","Correct":32,"Choice":32,"RT":406,"Accuracy":1,"Outcome":"-10","Keys":[1906],"TotalKeys":1,"Block":2,"Trial":211,"Robot":3,"Valence":"Lose","Action":"Go","Sham":1,"Color":"blue","trial_type":"pit-trial","trial_index":230,"time_elapsed":862056,"internal_node_id":"0.0-219.0","task_version":"test-retest-t2"},{"Rune":"rune_04_wunjo","Hex":"#ffcc3399","Correct":-1,"Choice":-1,"RT":-1,"Accuracy":1,"Outcome":"+1","Keys":[],"TotalKeys":0,"Block":2,"Trial":212,"Robot":2,"Valence":"Win","Action":"No-Go","Sham":1,"Color":"yellow","trial_type":"pit-trial","trial_index":231,"time_elapsed":866059,"internal_node_id":"0.0-220.0","task_version":"test-retest-t2"},{"Rune":"rune_04_dagaz","Hex":"#3366ff99","Correct":32,"Choice":32,"RT":375,"Accuracy":1,"Outcome":"-1","Keys":[1876],"TotalKeys":1,"Block":2,"Trial":213,"Robot":3,"Valence":"Lose","Action":"Go","Sham":0,"Color":"blue","trial_type":"pit-trial","trial_index":232,"time_elapsed":868936,"internal_node_id":"0.0-221.0","task_version":"test-retest-t2"},{"Rune":"rune_04_iwaz","Hex":"#ffcc3399","Correct":32,"Choice":32,"RT":330,"Accuracy":1,"Outcome":"+10","Keys":[1831],"TotalKeys":1,"Block":2,"Trial":214,"Robot":1,"Valence":"Win","Action":"Go","Sham":0,"Color":"yellow","trial_type":"pit-trial","trial_index":233,"time_elapsed":871768,"internal_node_id":"0.0-222.0","task_version":"test-retest-t2"},{"Rune":"rune_04_ac","Hex":"#3366ff99","Correct":-1,"Choice":-1,"RT":-1,"Accuracy":1,"Outcome":"-1","Keys":[],"TotalKeys":0,"Block":2,"Trial":215,"Robot":4,"Valence":"Lose","Action":"No-Go","Sham":0,"Color":"blue","trial_type":"pit-trial","trial_index":234,"time_elapsed":875770,"internal_node_id":"0.0-223.0","task_version":"test-retest-t2"},{"Rune":"rune_04_wunjo","Hex":"#ffcc3399","Correct":-1,"Choice":-1,"RT":-1,"Accuracy":1,"Outcome":"+10","Keys":[],"TotalKeys":0,"Block":2,"Trial":216,"Robot":2,"Valence":"Win","Action":"No-Go","Sham":0,"Color":"yellow","trial_type":"pit-trial","trial_index":235,"time_elapsed":879774,"internal_node_id":"0.0-224.0","task_version":"test-retest-t2"},{"Rune":"rune_04_wunjo","Hex":"#ffcc3399","Correct":-1,"Choice":-1,"RT":-1,"Accuracy":1,"Outcome":"+10","Keys":[],"TotalKeys":0,"Block":2,"Trial":217,"Robot":2,"Valence":"Win","Action":"No-Go","Sham":0,"Color":"yellow","trial_type":"pit-trial","trial_index":236,"time_elapsed":883777,"internal_node_id":"0.0-225.0","task_version":"test-retest-t2"},{"Rune":"rune_04_dagaz","Hex":"#3366ff99","Correct":32,"Choice":32,"RT":442,"Accuracy":1,"Outcome":"-1","Keys":[1942],"TotalKeys":1,"Block":2,"Trial":218,"Robot":3,"Valence":"Lose","Action":"Go","Sham":0,"Color":"blue","trial_type":"pit-trial","trial_index":237,"time_elapsed":886719,"internal_node_id":"0.0-226.0","task_version":"test-retest-t2"},{"Rune":"rune_04_ac","Hex":"#3366ff99","Correct":-1,"Choice":-1,"RT":-1,"Accuracy":1,"Outcome":"-1","Keys":[],"TotalKeys":0,"Block":2,"Trial":219,"Robot":4,"Valence":"Lose","Action":"No-Go","Sham":0,"Color":"blue","trial_type":"pit-trial","trial_index":238,"time_elapsed":890722,"internal_node_id":"0.0-227.0","task_version":"test-retest-t2"},{"Rune":"rune_04_iwaz","Hex":"#ffcc3399","Correct":32,"Choice":32,"RT":423,"Accuracy":1,"Outcome":"+10","Keys":[1923],"TotalKeys":1,"Block":2,"Trial":220,"Robot":1,"Valence":"Win","Action":"Go","Sham":0,"Color":"yellow","trial_type":"pit-trial","trial_index":239,"time_elapsed":893648,"internal_node_id":"0.0-228.0","task_version":"test-retest-t2"},{"Rune":"rune_04_dagaz","Hex":"#3366ff99","Correct":32,"Choice":32,"RT":425,"Accuracy":1,"Outcome":"-1","Keys":[1925],"TotalKeys":1,"Block":2,"Trial":221,"Robot":3,"Valence":"Lose","Action":"Go","Sham":0,"Color":"blue","trial_type":"pit-trial","trial_index":240,"time_elapsed":896576,"internal_node_id":"0.0-229.0","task_version":"test-retest-t2"},{"Rune":"rune_04_ac","Hex":"#3366ff99","Correct":-1,"Choice":-1,"RT":-1,"Accuracy":1,"Outcome":"-1","Keys":[],"TotalKeys":0,"Block":2,"Trial":222,"Robot":4,"Valence":"Lose","Action":"No-Go","Sham":0,"Color":"blue","trial_type":"pit-trial","trial_index":241,"time_elapsed":900580,"internal_node_id":"0.0-230.0","task_version":"test-retest-t2"},{"Rune":"rune_04_wunjo","Hex":"#ffcc3399","Correct":-1,"Choice":-1,"RT":-1,"Accuracy":1,"Outcome":"+10","Keys":[],"TotalKeys":0,"Block":2,"Trial":223,"Robot":2,"Valence":"Win","Action":"No-Go","Sham":0,"Color":"yellow","trial_type":"pit-trial","trial_index":242,"time_elapsed":904581,"internal_node_id":"0.0-231.0","task_version":"test-retest-t2"},{"Rune":"rune_04_iwaz","Hex":"#ffcc3399","Correct":32,"Choice":32,"RT":282,"Accuracy":1,"Outcome":"+1","Keys":[1783],"TotalKeys":1,"Block":2,"Trial":224,"Robot":1,"Valence":"Win","Action":"Go","Sham":1,"Color":"yellow","trial_type":"pit-trial","trial_index":243,"time_elapsed":907368,"internal_node_id":"0.0-232.0","task_version":"test-retest-t2"},{"Rune":"rune_04_dagaz","Hex":"#3366ff99","Correct":32,"Choice":32,"RT":417,"Accuracy":1,"Outcome":"-1","Keys":[1918],"TotalKeys":1,"Block":2,"Trial":225,"Robot":3,"Valence":"Lose","Action":"Go","Sham":0,"Color":"blue","trial_type":"pit-trial","trial_index":244,"time_elapsed":910286,"internal_node_id":"0.0-233.0","task_version":"test-retest-t2"},{"Rune":"rune_04_wunjo","Hex":"#ffcc3399","Correct":-1,"Choice":-1,"RT":-1,"Accuracy":1,"Outcome":"+10","Keys":[],"TotalKeys":0,"Block":2,"Trial":226,"Robot":2,"Valence":"Win","Action":"No-Go","Sham":0,"Color":"yellow","trial_type":"pit-trial","trial_index":245,"time_elapsed":914288,"internal_node_id":"0.0-234.0","task_version":"test-retest-t2"},{"Rune":"rune_04_iwaz","Hex":"#ffcc3399","Correct":32,"Choice":32,"RT":406,"Accuracy":1,"Outcome":"+10","Keys":[1907],"TotalKeys":1,"Block":2,"Trial":227,"Robot":1,"Valence":"Win","Action":"Go","Sham":0,"Color":"yellow","trial_type":"pit-trial","trial_index":246,"time_elapsed":917198,"internal_node_id":"0.0-235.0","task_version":"test-retest-t2"},{"Rune":"rune_04_ac","Hex":"#3366ff99","Correct":-1,"Choice":-1,"RT":-1,"Accuracy":1,"Outcome":"-1","Keys":[],"TotalKeys":0,"Block":2,"Trial":228,"Robot":4,"Valence":"Lose","Action":"No-Go","Sham":0,"Color":"blue","trial_type":"pit-trial","trial_index":247,"time_elapsed":921200,"internal_node_id":"0.0-236.0","task_version":"test-retest-t2"},{"Rune":"rune_04_dagaz","Hex":"#3366ff99","Correct":32,"Choice":32,"RT":448,"Accuracy":1,"Outcome":"-10","Keys":[1947],"TotalKeys":1,"Block":2,"Trial":229,"Robot":3,"Valence":"Lose","Action":"Go","Sham":1,"Color":"blue","trial_type":"pit-trial","trial_index":248,"time_elapsed":924150,"internal_node_id":"0.0-237.0","task_version":"test-retest-t2"},{"Rune":"rune_04_iwaz","Hex":"#ffcc3399","Correct":32,"Choice":32,"RT":362,"Accuracy":1,"Outcome":"+10","Keys":[1862],"TotalKeys":1,"Block":2,"Trial":230,"Robot":1,"Valence":"Win","Action":"Go","Sham":0,"Color":"yellow","trial_type":"pit-trial","trial_index":249,"time_elapsed":927013,"internal_node_id":"0.0-238.0","task_version":"test-retest-t2"},{"Rune":"rune_04_ac","Hex":"#3366ff99","Correct":-1,"Choice":-1,"RT":-1,"Accuracy":1,"Outcome":"-1","Keys":[],"TotalKeys":0,"Block":2,"Trial":231,"Robot":4,"Valence":"Lose","Action":"No-Go","Sham":0,"Color":"blue","trial_type":"pit-trial","trial_index":250,"time_elapsed":931015,"internal_node_id":"0.0-239.0","task_version":"test-retest-t2"},{"Rune":"rune_04_wunjo","Hex":"#ffcc3399","Correct":-1,"Choice":-1,"RT":-1,"Accuracy":1,"Outcome":"+1","Keys":[],"TotalKeys":0,"Block":2,"Trial":232,"Robot":2,"Valence":"Win","Action":"No-Go","Sham":1,"Color":"yellow","trial_type":"pit-trial","trial_index":251,"time_elapsed":935017,"internal_node_id":"0.0-240.0","task_version":"test-retest-t2"},{"Rune":"rune_04_wunjo","Hex":"#ffcc3399","Correct":-1,"Choice":-1,"RT":-1,"Accuracy":1,"Outcome":"+10","Keys":[],"TotalKeys":0,"Block":2,"Trial":233,"Robot":2,"Valence":"Win","Action":"No-Go","Sham":0,"Color":"yellow","trial_type":"pit-trial","trial_index":252,"time_elapsed":939020,"internal_node_id":"0.0-241.0","task_version":"test-retest-t2"},{"Rune":"rune_04_ac","Hex":"#3366ff99","Correct":-1,"Choice":-1,"RT":-1,"Accuracy":1,"Outcome":"-1","Keys":[],"TotalKeys":0,"Block":2,"Trial":234,"Robot":4,"Valence":"Lose","Action":"No-Go","Sham":0,"Color":"blue","trial_type":"pit-trial","trial_index":253,"time_elapsed":943025,"internal_node_id":"0.0-242.0","task_version":"test-retest-t2"},{"Rune":"rune_04_dagaz","Hex":"#3366ff99","Correct":32,"Choice":32,"RT":414,"Accuracy":1,"Outcome":"-1","Keys":[1914],"TotalKeys":1,"Block":2,"Trial":235,"Robot":3,"Valence":"Lose","Action":"Go","Sham":0,"Color":"blue","trial_type":"pit-trial","trial_index":254,"time_elapsed":945941,"internal_node_id":"0.0-243.0","task_version":"test-retest-t2"},{"Rune":"rune_04_iwaz","Hex":"#ffcc3399","Correct":32,"Choice":32,"RT":361,"Accuracy":1,"Outcome":"+10","Keys":[1862],"TotalKeys":1,"Block":2,"Trial":236,"Robot":1,"Valence":"Win","Action":"Go","Sham":0,"Color":"yellow","trial_type":"pit-trial","trial_index":255,"time_elapsed":948804,"internal_node_id":"0.0-244.0","task_version":"test-retest-t2"},{"Rune":"rune_04_wunjo","Hex":"#ffcc3399","Correct":-1,"Choice":-1,"RT":-1,"Accuracy":1,"Outcome":"+10","Keys":[],"TotalKeys":0,"Block":2,"Trial":237,"Robot":2,"Valence":"Win","Action":"No-Go","Sham":0,"Color":"yellow","trial_type":"pit-trial","trial_index":256,"time_elapsed":952808,"internal_node_id":"0.0-245.0","task_version":"test-retest-t2"},{"Rune":"rune_04_dagaz","Hex":"#3366ff99","Correct":32,"Choice":32,"RT":406,"Accuracy":1,"Outcome":"-1","Keys":[1906],"TotalKeys":1,"Block":2,"Trial":238,"Robot":3,"Valence":"Lose","Action":"Go","Sham":0,"Color":"blue","trial_type":"pit-trial","trial_index":257,"time_elapsed":955716,"internal_node_id":"0.0-246.0","task_version":"test-retest-t2"},{"Rune":"rune_04_ac","Hex":"#3366ff99","Correct":-1,"Choice":-1,"RT":-1,"Accuracy":1,"Outcome":"-10","Keys":[],"TotalKeys":0,"Block":2,"Trial":239,"Robot":4,"Valence":"Lose","Action":"No-Go","Sham":1,"Color":"blue","trial_type":"pit-trial","trial_index":258,"time_elapsed":959720,"internal_node_id":"0.0-247.0","task_version":"test-retest-t2"},{"Rune":"rune_04_iwaz","Hex":"#ffcc3399","Correct":32,"Choice":32,"RT":357,"Accuracy":1,"Outcome":"+10","Keys":[1858],"TotalKeys":1,"Block":2,"Trial":240,"Robot":1,"Valence":"Win","Action":"Go","Sham":0,"Color":"yellow","trial_type":"pit-trial","trial_index":259,"time_elapsed":962581,"internal_node_id":"0.0-248.0","task_version":"test-retest-t2"},{"view_history":"[{\"page_index\":0,\"viewing_time\":2012}]","rt":2013,"trial_type":"pit-instructions","trial_index":260,"time_elapsed":964596,"internal_node_id":"0.0-249.0","task_version":"test-retest-t2"},{"rt":16683,"responses":{"difficulty":"4","fun":"3","clarity":"5","strategy":"No just focused.","feedback":"No"},"survey":"debrief","trial_type":"survey-debrief","trial_index":261,"time_elapsed":981282,"internal_node_id":"0.0-250.0","task_version":"test-retest-t2"},{"rt":2926,"stimulus":"You earned a bonus of $1.44 out of $1.5.<br><br>Press any key to complete the experiment.","key_press":70,"trial_type":"html-keyboard-response","trial_index":262,"time_elapsed":984211,"internal_node_id":"0.0-251.0","task_version":"test-retest-t2","accuracy":0.9541666666666667,"bonus":1.44,"interactions":"[{\"event\":\"focus\",\"trial\":0,\"time\":0}]"}]