[{"slider_type":"valence","raw_loc":454,"loc":0.408,"trial_type":"affective-slider","trial_index":0,"time_elapsed":5452,"internal_node_id":"0.0-0.0","task_version":"test-retest-t2"},{"responses":{"Q01":"3","Q07":"2","Q02":"3","Q06":"1","Q03":"3","Q04":"3","Q08":"0","Q05":"2"},"rt":16289.784999999938,"survey":"gad7","trial_type":"survey-template","trial_index":1,"time_elapsed":21745,"internal_node_id":"0.0-1.0","task_version":"test-retest-t2"},{"view_history":"[{\"page_index\":0,\"viewing_time\":1922.2150000005058},{\"page_index\":1,\"viewing_time\":2366.519999999582},{\"page_index\":2,\"viewing_time\":5651.209999999992},{\"page_index\":3,\"viewing_time\":3272.9150000004665},{\"page_index\":4,\"viewing_time\":1172.8299999995215}]","rt":14386.320000000524,"trial_type":"pit-instructions","trial_index":2,"time_elapsed":36134,"internal_node_id":"0.0-2.0-0.0","task_version":"test-retest-t2"},{"Rune":"rune_00_ingz","Hex":"#FFFFF080","Correct":32,"Choice":32,"RT":877.0600000007107,"Accuracy":1,"Outcome":"+10","Keys":[1366.7450000002646,2377.7399999999034],"TotalKeys":2,"Block":0,"Action":"Go","trial_type":"pit-trial","trial_index":3,"time_elapsed":39514,"internal_node_id":"0.0-2.0-1.0-0.0","task_version":"test-retest-t2"},{"Rune":"rune_00_ingz","Hex":"#FFFFF080","Correct":32,"Choice":32,"RT":325.77000000037515,"Accuracy":1,"Outcome":"+10","Keys":[1825.9150000003501],"TotalKeys":1,"Block":0,"Action":"Go","trial_type":"pit-trial","trial_index":4,"time_elapsed":42342,"internal_node_id":"0.0-2.0-1.0-0.1","task_version":"test-retest-t2"},{"Rune":"rune_00_ingz","Hex":"#FFFFF080","Correct":32,"Choice":32,"RT":193.04000000011,"Accuracy":1,"Outcome":"+10","Keys":[1693.739999999707],"TotalKeys":1,"Block":0,"Action":"Go","trial_type":"pit-trial","trial_index":5,"time_elapsed":45037,"internal_node_id":"0.0-2.0-1.0-0.2","task_version":"test-retest-t2"},{"Rune":"rune_00_ingz","Hex":"#FFFFF080","Correct":32,"Choice":32,"RT":175.3900000003341,"Accuracy":1,"Outcome":"+10","Keys":[1676.169999999729],"TotalKeys":1,"Block":0,"Action":"Go","trial_type":"pit-trial","trial_index":6,"time_elapsed":47716,"internal_node_id":"0.0-2.0-1.0-0.3","task_version":"test-retest-t2"},{"view_history":"[{\"page_index\":0,\"viewing_time\":1734.1349999996964}]","rt":1734.42999999952,"trial_type":"pit-instructions","trial_index":7,"time_elapsed":49451,"internal_node_id":"0.0-2.0-2.0","task_version":"test-retest-t2"},{"Rune":"rune_00_isaz","Hex":"#FFFFF080","Correct":-1,"Choice":-1,"RT":-1,"Accuracy":1,"Outcome":"+10","Keys":[],"TotalKeys":0,"Block":0,"Action":"No-Go","trial_type":"pit-trial","trial_index":8,"time_elapsed":53454,"internal_node_id":"0.0-2.0-3.0-0.0","task_version":"test-retest-t2"},{"Rune":"rune_00_isaz","Hex":"#FFFFF080","Correct":-1,"Choice":-1,"RT":-1,"Accuracy":1,"Outcome":"+10","Keys":[],"TotalKeys":0,"Block":0,"Action":"No-Go","trial_type":"pit-trial","trial_index":9,"time_elapsed":57456,"internal_node_id":"0.0-2.0-3.0-0.1","task_version":"test-retest-t2"},{"Rune":"rune_00_isaz","Hex":"#FFFFF080","Correct":-1,"Choice":-1,"RT":-1,"Accuracy":1,"Outcome":"+10","Keys":[],"TotalKeys":0,"Block":0,"Action":"No-Go","trial_type":"pit-trial","trial_index":10,"time_elapsed":61459,"internal_node_id":"0.0-2.0-3.0-0.2","task_version":"test-retest-t2"},{"Rune":"rune_00_isaz","Hex":"#FFFFF080","Correct":-1,"Choice":-1,"RT":-1,"Accuracy":1,"Outcome":"+10","Keys":[],"TotalKeys":0,"Block":0,"Action":"No-Go","trial_type":"pit-trial","trial_index":11,"time_elapsed":65461,"internal_node_id":"0.0-2.0-3.0-0.3","task_version":"test-retest-t2"},{"view_history":"[{\"page_index\":0,\"viewing_time\":3161.6549999998824},{\"page_index\":1,\"viewing_time\":10480.6749999998},{\"page_index\":2,\"viewing_time\":7883.85500000004},{\"page_index\":3,\"viewing_time\":3803.544999999751},{\"page_index\":4,\"viewing_time\":3148.7300000007963},{\"page_index\":5,\"viewing_time\":3058.159999999596},{\"page_index\":6,\"viewing_time\":2353.0549999995856},{\"page_index\":7,\"viewing_time\":4737.045000000755}]","rt":38627.024999999776,"trial_type":"pit-instructions","trial_index":12,"time_elapsed":104090,"internal_node_id":"0.0-2.0-4.0","task_version":"test-retest-t2"},{"responses":["Do nothing","+10","-1","True","Yes"],"num_errors":0,"rt":14135.700000000725,"trial_type":"pit-comprehension","trial_index":13,"time_elapsed":118228,"internal_node_id":"0.0-2.0-5.0","task_version":"test-retest-t2"},{"trial_type":"call-function","trial_index":14,"time_elapsed":118230,"internal_node_id":"0.0-3.0","task_version":"test-retest-t2"},{"view_history":"[{\"page_index\":0,\"viewing_time\":2662.0599999996484},{\"page_index\":1,\"viewing_time\":976.9599999999627},{\"page_index\":2,\"viewing_time\":2875.7050000003946}]","rt":6515.024999999703,"trial_type":"pit-instructions","trial_index":15,"time_elapsed":124746,"internal_node_id":"0.0-4.0","task_version":"test-retest-t2"},{"Rune":"rune_03_uruz","Hex":"#3366ff99","Correct":32,"Choice":32,"RT":389.1600000006147,"Accuracy":1,"Outcome":"+10","Keys":[1889.9299999993673],"TotalKeys":1,"Block":1,"Trial":1,"Robot":1,"Valence":"Win","Action":"Go","Sham":0,"Color":"blue","trial_type":"pit-trial","trial_index":16,"time_elapsed":127640,"internal_node_id":"0.0-5.0","task_version":"test-retest-t2"},{"Rune":"rune_03_naudiz","Hex":"#ffcc3399","Correct":32,"Choice":32,"RT":608.0699999993085,"Accuracy":1,"Outcome":"-1","Keys":[2108.4499999997206],"TotalKeys":1,"Block":1,"Trial":2,"Robot":3,"Valence":"Lose","Action":"Go","Sham":0,"Color":"yellow","trial_type":"pit-trial","trial_index":17,"time_elapsed":130752,"internal_node_id":"0.0-6.0","task_version":"test-retest-t2"},{"Rune":"rune_03_algiz","Hex":"#3366ff99","Correct":-1,"Choice":-1,"RT":-1,"Accuracy":1,"Outcome":"+10","Keys":[],"TotalKeys":0,"Block":1,"Trial":3,"Robot":2,"Valence":"Win","Action":"No-Go","Sham":0,"Color":"blue","trial_type":"pit-trial","trial_index":18,"time_elapsed":134756,"internal_node_id":"0.0-7.0","task_version":"test-retest-t2"},{"Rune":"rune_03_othalan","Hex":"#ffcc3399","Correct":-1,"Choice":-1,"RT":-1,"Accuracy":1,"Outcome":"-1","Keys":[],"TotalKeys":0,"Block":1,"Trial":4,"Robot":4,"Valence":"Lose","Action":"No-Go","Sham":0,"Color":"yellow","trial_type":"pit-trial","trial_index":19,"time_elapsed":138758,"internal_node_id":"0.0-8.0","task_version":"test-retest-t2"},{"Rune":"rune_03_uruz","Hex":"#3366ff99","Correct":32,"Choice":32,"RT":391.1749999997264,"Accuracy":1,"Outcome":"+10","Keys":[1891.2399999999325],"TotalKeys":1,"Block":1,"Trial":5,"Robot":1,"Valence":"Win","Action":"Go","Sham":0,"Color":"blue","trial_type":"pit-trial","trial_index":20,"time_elapsed":141652,"internal_node_id":"0.0-9.0","task_version":"test-retest-t2"},{"Rune":"rune_03_naudiz","Hex":"#ffcc3399","Correct":32,"Choice":32,"RT":332.4800000000396,"Accuracy":1,"Outcome":"-1","Keys":[1832.6350000006787],"TotalKeys":1,"Block":1,"Trial":6,"Robot":3,"Valence":"Lose","Action":"Go","Sham":0,"Color":"yellow","trial_type":"pit-trial","trial_index":21,"time_elapsed":144486,"internal_node_id":"0.0-10.0","task_version":"test-retest-t2"},{"Rune":"rune_03_othalan","Hex":"#ffcc3399","Correct":-1,"Choice":-1,"RT":-1,"Accuracy":1,"Outcome":"-1","Keys":[],"TotalKeys":0,"Block":1,"Trial":7,"Robot":4,"Valence":"Lose","Action":"No-Go","Sham":0,"Color":"yellow","trial_type":"pit-trial","trial_index":22,"time_elapsed":148488,"internal_node_id":"0.0-11.0","task_version":"test-retest-t2"},{"Rune":"rune_03_algiz","Hex":"#3366ff99","Correct":-1,"Choice":-1,"RT":-1,"Accuracy":1,"Outcome":"+10","Keys":[],"TotalKeys":0,"Block":1,"Trial":8,"Robot":2,"Valence":"Win","Action":"No-Go","Sham":0,"Color":"blue","trial_type":"pit-trial","trial_index":23,"time_elapsed":152491,"internal_node_id":"0.0-12.0","task_version":"test-retest-t2"},{"Rune":"rune_03_naudiz","Hex":"#ffcc3399","Correct":32,"Choice":32,"RT":578.4199999998382,"Accuracy":1,"Outcome":"-10","Keys":[2078.6950000001525],"TotalKeys":1,"Block":1,"Trial":9,"Robot":3,"Valence":"Lose","Action":"Go","Sham":1,"Color":"yellow","trial_type":"pit-trial","trial_index":24,"time_elapsed":155572,"internal_node_id":"0.0-13.0","task_version":"test-retest-t2"},{"Rune":"rune_03_uruz","Hex":"#3366ff99","Correct":32,"Choice":32,"RT":332.0899999998801,"Accuracy":1,"Outcome":"+1","Keys":[1832.2950000001583],"TotalKeys":1,"Block":1,"Trial":10,"Robot":1,"Valence":"Win","Action":"Go","Sham":1,"Color":"blue","trial_type":"pit-trial","trial_index":25,"time_elapsed":158407,"internal_node_id":"0.0-14.0","task_version":"test-retest-t2"},{"Rune":"rune_03_othalan","Hex":"#ffcc3399","Correct":-1,"Choice":-1,"RT":-1,"Accuracy":1,"Outcome":"-1","Keys":[],"TotalKeys":0,"Block":1,"Trial":11,"Robot":4,"Valence":"Lose","Action":"No-Go","Sham":0,"Color":"yellow","trial_type":"pit-trial","trial_index":26,"time_elapsed":162409,"internal_node_id":"0.0-15.0","task_version":"test-retest-t2"},{"Rune":"rune_03_algiz","Hex":"#3366ff99","Correct":-1,"Choice":-1,"RT":-1,"Accuracy":1,"Outcome":"+1","Keys":[],"TotalKeys":0,"Block":1,"Trial":12,"Robot":2,"Valence":"Win","Action":"No-Go","Sham":1,"Color":"blue","trial_type":"pit-trial","trial_index":27,"time_elapsed":166412,"internal_node_id":"0.0-16.0","task_version":"test-retest-t2"},{"Rune":"rune_03_othalan","Hex":"#ffcc3399","Correct":-1,"Choice":-1,"RT":-1,"Accuracy":1,"Outcome":"-10","Keys":[],"TotalKeys":0,"Block":1,"Trial":13,"Robot":4,"Valence":"Lose","Action":"No-Go","Sham":1,"Color":"yellow","trial_type":"pit-trial","trial_index":28,"time_elapsed":170414,"internal_node_id":"0.0-17.0","task_version":"test-retest-t2"},{"Rune":"rune_03_naudiz","Hex":"#ffcc3399","Correct":32,"Choice":32,"RT":411.12500000052387,"Accuracy":1,"Outcome":"-1","Keys":[1911.2049999994342],"TotalKeys":1,"Block":1,"Trial":14,"Robot":3,"Valence":"Lose","Action":"Go","Sham":0,"Color":"yellow","trial_type":"pit-trial","trial_index":29,"time_elapsed":173327,"internal_node_id":"0.0-18.0","task_version":"test-retest-t2"},{"Rune":"rune_03_uruz","Hex":"#3366ff99","Correct":32,"Choice":32,"RT":352.034999999858,"Accuracy":1,"Outcome":"+10","Keys":[1853.2849999992468],"TotalKeys":1,"Block":1,"Trial":15,"Robot":1,"Valence":"Win","Action":"Go","Sham":0,"Color":"blue","trial_type":"pit-trial","trial_index":30,"time_elapsed":176183,"internal_node_id":"0.0-19.0","task_version":"test-retest-t2"},{"Rune":"rune_03_algiz","Hex":"#3366ff99","Correct":-1,"Choice":-1,"RT":-1,"Accuracy":1,"Outcome":"+10","Keys":[],"TotalKeys":0,"Block":1,"Trial":16,"Robot":2,"Valence":"Win","Action":"No-Go","Sham":0,"Color":"blue","trial_type":"pit-trial","trial_index":31,"time_elapsed":180185,"internal_node_id":"0.0-20.0","task_version":"test-retest-t2"},{"Rune":"rune_03_othalan","Hex":"#ffcc3399","Correct":-1,"Choice":-1,"RT":-1,"Accuracy":1,"Outcome":"-1","Keys":[],"TotalKeys":0,"Block":1,"Trial":17,"Robot":4,"Valence":"Lose","Action":"No-Go","Sham":0,"Color":"yellow","trial_type":"pit-trial","trial_index":32,"time_elapsed":184188,"internal_node_id":"0.0-21.0","task_version":"test-retest-t2"},{"Rune":"rune_03_uruz","Hex":"#3366ff99","Correct":32,"Choice":32,"RT":397.71999999994296,"Accuracy":1,"Outcome":"+10","Keys":[1898.5350000002654],"TotalKeys":1,"Block":1,"Trial":18,"Robot":1,"Valence":"Win","Action":"Go","Sham":0,"Color":"blue","trial_type":"pit-trial","trial_index":33,"time_elapsed":187089,"internal_node_id":"0.0-22.0","task_version":"test-retest-t2"},{"Rune":"rune_03_algiz","Hex":"#3366ff99","Correct":-1,"Choice":-1,"RT":-1,"Accuracy":1,"Outcome":"+10","Keys":[],"TotalKeys":0,"Block":1,"Trial":19,"Robot":2,"Valence":"Win","Action":"No-Go","Sham":0,"Color":"blue","trial_type":"pit-trial","trial_index":34,"time_elapsed":191091,"internal_node_id":"0.0-23.0","task_version":"test-retest-t2"},{"Rune":"rune_03_naudiz","Hex":"#ffcc3399","Correct":32,"Choice":32,"RT":576.6599999997416,"Accuracy":1,"Outcome":"-1","Keys":[2077.4900000005728],"TotalKeys":1,"Block":1,"Trial":20,"Robot":3,"Valence":"Lose","Action":"Go","Sham":0,"Color":"yellow","trial_type":"pit-trial","trial_index":35,"time_elapsed":194172,"internal_node_id":"0.0-24.0","task_version":"test-retest-t2"},{"Rune":"rune_03_uruz","Hex":"#3366ff99","Correct":32,"Choice":32,"RT":270.4700000003795,"Accuracy":1,"Outcome":"+10","Keys":[1771.2550000005867],"TotalKeys":1,"Block":1,"Trial":21,"Robot":1,"Valence":"Win","Action":"Go","Sham":0,"Color":"blue","trial_type":"pit-trial","trial_index":36,"time_elapsed":196946,"internal_node_id":"0.0-25.0","task_version":"test-retest-t2"},{"Rune":"rune_03_algiz","Hex":"#3366ff99","Correct":-1,"Choice":-1,"RT":-1,"Accuracy":1,"Outcome":"+10","Keys":[],"TotalKeys":0,"Block":1,"Trial":22,"Robot":2,"Valence":"Win","Action":"No-Go","Sham":0,"Color":"blue","trial_type":"pit-trial","trial_index":37,"time_elapsed":200948,"internal_node_id":"0.0-26.0","task_version":"test-retest-t2"},{"Rune":"rune_03_naudiz","Hex":"#ffcc3399","Correct":32,"Choice":32,"RT":414.5600000001723,"Accuracy":1,"Outcome":"-1","Keys":[1915.0600000002596],"TotalKeys":1,"Block":1,"Trial":23,"Robot":3,"Valence":"Lose","Action":"Go","Sham":0,"Color":"yellow","trial_type":"pit-trial","trial_index":38,"time_elapsed":203865,"internal_node_id":"0.0-27.0","task_version":"test-retest-t2"},{"Rune":"rune_03_othalan","Hex":"#ffcc3399","Correct":-1,"Choice":-1,"RT":-1,"Accuracy":1,"Outcome":"-1","Keys":[],"TotalKeys":0,"Block":1,"Trial":24,"Robot":4,"Valence":"Lose","Action":"No-Go","Sham":0,"Color":"yellow","trial_type":"pit-trial","trial_index":39,"time_elapsed":207869,"internal_node_id":"0.0-28.0","task_version":"test-retest-t2"},{"Rune":"rune_03_naudiz","Hex":"#ffcc3399","Correct":32,"Choice":32,"RT":386.8700000002573,"Accuracy":1,"Outcome":"-1","Keys":[1887.560000000114],"TotalKeys":1,"Block":1,"Trial":25,"Robot":3,"Valence":"Lose","Action":"Go","Sham":0,"Color":"yellow","trial_type":"pit-trial","trial_index":40,"time_elapsed":210758,"internal_node_id":"0.0-29.0","task_version":"test-retest-t2"},{"Rune":"rune_03_uruz","Hex":"#3366ff99","Correct":32,"Choice":32,"RT":345.0450000000419,"Accuracy":1,"Outcome":"+1","Keys":[1845.2050000005402],"TotalKeys":1,"Block":1,"Trial":26,"Robot":1,"Valence":"Win","Action":"Go","Sham":1,"Color":"blue","trial_type":"pit-trial","trial_index":41,"time_elapsed":213607,"internal_node_id":"0.0-30.0","task_version":"test-retest-t2"},{"Rune":"rune_03_othalan","Hex":"#ffcc3399","Correct":-1,"Choice":-1,"RT":-1,"Accuracy":1,"Outcome":"-1","Keys":[],"TotalKeys":0,"Block":1,"Trial":27,"Robot":4,"Valence":"Lose","Action":"No-Go","Sham":0,"Color":"yellow","trial_type":"pit-trial","trial_index":42,"time_elapsed":217609,"internal_node_id":"0.0-31.0","task_version":"test-retest-t2"},{"Rune":"rune_03_algiz","Hex":"#3366ff99","Correct":-1,"Choice":32,"RT":261.1349999997474,"Accuracy":0,"Outcome":"+1","Keys":[1761.2850000004983],"TotalKeys":1,"Block":1,"Trial":28,"Robot":2,"Valence":"Win","Action":"No-Go","Sham":0,"Color":"blue","trial_type":"pit-trial","trial_index":43,"time_elapsed":220372,"internal_node_id":"0.0-32.0","task_version":"test-retest-t2"},{"Rune":"rune_03_algiz","Hex":"#3366ff99","Correct":-1,"Choice":-1,"RT":-1,"Accuracy":1,"Outcome":"+10","Keys":[],"TotalKeys":0,"Block":1,"Trial":29,"Robot":2,"Valence":"Win","Action":"No-Go","Sham":0,"Color":"blue","trial_type":"pit-trial","trial_index":44,"time_elapsed":224374,"internal_node_id":"0.0-33.0","task_version":"test-retest-t2"},{"Rune":"rune_03_uruz","Hex":"#3366ff99","Correct":32,"Choice":32,"RT":346.26000000024214,"Accuracy":1,"Outcome":"+10","Keys":[1846.3350000001956],"TotalKeys":1,"Block":1,"Trial":30,"Robot":1,"Valence":"Win","Action":"Go","Sham":0,"Color":"blue","trial_type":"pit-trial","trial_index":45,"time_elapsed":227223,"internal_node_id":"0.0-34.0","task_version":"test-retest-t2"},{"Rune":"rune_03_othalan","Hex":"#ffcc3399","Correct":-1,"Choice":-1,"RT":-1,"Accuracy":1,"Outcome":"-10","Keys":[],"TotalKeys":0,"Block":1,"Trial":31,"Robot":4,"Valence":"Lose","Action":"No-Go","Sham":1,"Color":"yellow","trial_type":"pit-trial","trial_index":46,"time_elapsed":231226,"internal_node_id":"0.0-35.0","task_version":"test-retest-t2"},{"Rune":"rune_03_naudiz","Hex":"#ffcc3399","Correct":32,"Choice":32,"RT":404.3149999997695,"Accuracy":1,"Outcome":"-10","Keys":[1904.3750000000582],"TotalKeys":1,"Block":1,"Trial":32,"Robot":3,"Valence":"Lose","Action":"Go","Sham":1,"Color":"yellow","trial_type":"pit-trial","trial_index":47,"time_elapsed":234132,"internal_node_id":"0.0-36.0","task_version":"test-retest-t2"},{"Rune":"rune_03_uruz","Hex":"#3366ff99","Correct":32,"Choice":32,"RT":181.23999999990338,"Accuracy":1,"Outcome":"+10","Keys":[1681.7950000004203],"TotalKeys":1,"Block":1,"Trial":33,"Robot":1,"Valence":"Win","Action":"Go","Sham":0,"Color":"blue","trial_type":"pit-trial","trial_index":48,"time_elapsed":236817,"internal_node_id":"0.0-37.0","task_version":"test-retest-t2"},{"Rune":"rune_03_naudiz","Hex":"#ffcc3399","Correct":32,"Choice":32,"RT":223.25999999974738,"Accuracy":1,"Outcome":"-1","Keys":[1724.4900000005146],"TotalKeys":1,"Block":1,"Trial":34,"Robot":3,"Valence":"Lose","Action":"Go","Sham":0,"Color":"yellow","trial_type":"pit-trial","trial_index":49,"time_elapsed":239543,"internal_node_id":"0.0-38.0","task_version":"test-retest-t2"},{"Rune":"rune_03_algiz","Hex":"#3366ff99","Correct":-1,"Choice":-1,"RT":-1,"Accuracy":1,"Outcome":"+1","Keys":[],"TotalKeys":0,"Block":1,"Trial":35,"Robot":2,"Valence":"Win","Action":"No-Go","Sham":1,"Color":"blue","trial_type":"pit-trial","trial_index":50,"time_elapsed":243547,"internal_node_id":"0.0-39.0","task_version":"test-retest-t2"},{"Rune":"rune_03_othalan","Hex":"#ffcc3399","Correct":-1,"Choice":-1,"RT":-1,"Accuracy":1,"Outcome":"-1","Keys":[],"TotalKeys":0,"Block":1,"Trial":36,"Robot":4,"Valence":"Lose","Action":"No-Go","Sham":0,"Color":"yellow","trial_type":"pit-trial","trial_index":51,"time_elapsed":247550,"internal_node_id":"0.0-40.0","task_version":"test-retest-t2"},{"Rune":"rune_03_naudiz","Hex":"#ffcc3399","Correct":32,"Choice":32,"RT":397.4350000007835,"Accuracy":1,"Outcome":"-1","Keys":[1897.8100000004051],"TotalKeys":1,"Block":1,"Trial":37,"Robot":3,"Valence":"Lose","Action":"Go","Sham":0,"Color":"yellow","trial_type":"pit-trial","trial_index":52,"time_elapsed":250449,"internal_node_id":"0.0-41.0","task_version":"test-retest-t2"},{"Rune":"rune_03_uruz","Hex":"#3366ff99","Correct":32,"Choice":32,"RT":180.13000000064494,"Accuracy":1,"Outcome":"+10","Keys":[1680.8149999997113],"TotalKeys":1,"Block":1,"Trial":38,"Robot":1,"Valence":"Win","Action":"Go","Sham":0,"Color":"blue","trial_type":"pit-trial","trial_index":53,"time_elapsed":253133,"internal_node_id":"0.0-42.0","task_version":"test-retest-t2"},{"Rune":"rune_03_algiz","Hex":"#3366ff99","Correct":-1,"Choice":-1,"RT":-1,"Accuracy":1,"Outcome":"+10","Keys":[],"TotalKeys":0,"Block":1,"Trial":39,"Robot":2,"Valence":"Win","Action":"No-Go","Sham":0,"Color":"blue","trial_type":"pit-trial","trial_index":54,"time_elapsed":257135,"internal_node_id":"0.0-43.0","task_version":"test-retest-t2"},{"Rune":"rune_03_othalan","Hex":"#ffcc3399","Correct":-1,"Choice":-1,"RT":-1,"Accuracy":1,"Outcome":"-1","Keys":[],"TotalKeys":0,"Block":1,"Trial":40,"Robot":4,"Valence":"Lose","Action":"No-Go","Sham":0,"Color":"yellow","trial_type":"pit-trial","trial_index":55,"time_elapsed":261137,"internal_node_id":"0.0-44.0","task_version":"test-retest-t2"},{"Rune":"rune_03_naudiz","Hex":"#ffcc3399","Correct":32,"Choice":32,"RT":321.45500000024913,"Accuracy":1,"Outcome":"-1","Keys":[1822.4000000000233],"TotalKeys":1,"Block":1,"Trial":41,"Robot":3,"Valence":"Lose","Action":"Go","Sham":0,"Color":"yellow","trial_type":"pit-trial","trial_index":56,"time_elapsed":263962,"internal_node_id":"0.0-45.0","task_version":"test-retest-t2"},{"Rune":"rune_03_algiz","Hex":"#3366ff99","Correct":-1,"Choice":-1,"RT":-1,"Accuracy":1,"Outcome":"+10","Keys":[],"TotalKeys":0,"Block":1,"Trial":42,"Robot":2,"Valence":"Win","Action":"No-Go","Sham":0,"Color":"blue","trial_type":"pit-trial","trial_index":57,"time_elapsed":267965,"internal_node_id":"0.0-46.0","task_version":"test-retest-t2"},{"Rune":"rune_03_uruz","Hex":"#3366ff99","Correct":32,"Choice":32,"RT":284.9050000003772,"Accuracy":1,"Outcome":"+10","Keys":[1785.635000000184],"TotalKeys":1,"Block":1,"Trial":43,"Robot":1,"Valence":"Win","Action":"Go","Sham":0,"Color":"blue","trial_type":"pit-trial","trial_index":58,"time_elapsed":270752,"internal_node_id":"0.0-47.0","task_version":"test-retest-t2"},{"Rune":"rune_03_othalan","Hex":"#ffcc3399","Correct":-1,"Choice":-1,"RT":-1,"Accuracy":1,"Outcome":"-1","Keys":[],"TotalKeys":0,"Block":1,"Trial":44,"Robot":4,"Valence":"Lose","Action":"No-Go","Sham":0,"Color":"yellow","trial_type":"pit-trial","trial_index":59,"time_elapsed":274757,"internal_node_id":"0.0-48.0","task_version":"test-retest-t2"},{"Rune":"rune_03_naudiz","Hex":"#ffcc3399","Correct":32,"Choice":32,"RT":435.0450000001583,"Accuracy":1,"Outcome":"-1","Keys":[1935.0899999999674],"TotalKeys":1,"Block":1,"Trial":45,"Robot":3,"Valence":"Lose","Action":"Go","Sham":0,"Color":"yellow","trial_type":"pit-trial","trial_index":60,"time_elapsed":277694,"internal_node_id":"0.0-49.0","task_version":"test-retest-t2"},{"Rune":"rune_03_algiz","Hex":"#3366ff99","Correct":-1,"Choice":-1,"RT":-1,"Accuracy":1,"Outcome":"+1","Keys":[],"TotalKeys":0,"Block":1,"Trial":46,"Robot":2,"Valence":"Win","Action":"No-Go","Sham":1,"Color":"blue","trial_type":"pit-trial","trial_index":61,"time_elapsed":281698,"internal_node_id":"0.0-50.0","task_version":"test-retest-t2"},{"Rune":"rune_03_othalan","Hex":"#ffcc3399","Correct":-1,"Choice":-1,"RT":-1,"Accuracy":1,"Outcome":"-1","Keys":[],"TotalKeys":0,"Block":1,"Trial":47,"Robot":4,"Valence":"Lose","Action":"No-Go","Sham":0,"Color":"yellow","trial_type":"pit-trial","trial_index":62,"time_elapsed":285702,"internal_node_id":"0.0-51.0","task_version":"test-retest-t2"},{"Rune":"rune_03_uruz","Hex":"#3366ff99","Correct":32,"Choice":32,"RT":291.87000000005355,"Accuracy":1,"Outcome":"+10","Keys":[1792.5699999996577],"TotalKeys":1,"Block":1,"Trial":48,"Robot":1,"Valence":"Win","Action":"Go","Sham":0,"Color":"blue","trial_type":"pit-trial","trial_index":63,"time_elapsed":288496,"internal_node_id":"0.0-52.0","task_version":"test-retest-t2"},{"Rune":"rune_03_othalan","Hex":"#ffcc3399","Correct":-1,"Choice":-1,"RT":-1,"Accuracy":1,"Outcome":"-1","Keys":[],"TotalKeys":0,"Block":1,"Trial":49,"Robot":4,"Valence":"Lose","Action":"No-Go","Sham":0,"Color":"yellow","trial_type":"pit-trial","trial_index":64,"time_elapsed":292499,"internal_node_id":"0.0-53.0","task_version":"test-retest-t2"},{"Rune":"rune_03_naudiz","Hex":"#ffcc3399","Correct":32,"Choice":32,"RT":289.0950000000885,"Accuracy":1,"Outcome":"-1","Keys":[1789.5250000001397],"TotalKeys":1,"Block":1,"Trial":50,"Robot":3,"Valence":"Lose","Action":"Go","Sham":0,"Color":"yellow","trial_type":"pit-trial","trial_index":65,"time_elapsed":295290,"internal_node_id":"0.0-54.0","task_version":"test-retest-t2"},{"Rune":"rune_03_algiz","Hex":"#3366ff99","Correct":-1,"Choice":-1,"RT":-1,"Accuracy":1,"Outcome":"+10","Keys":[],"TotalKeys":0,"Block":1,"Trial":51,"Robot":2,"Valence":"Win","Action":"No-Go","Sham":0,"Color":"blue","trial_type":"pit-trial","trial_index":66,"time_elapsed":299293,"internal_node_id":"0.0-55.0","task_version":"test-retest-t2"},{"Rune":"rune_03_uruz","Hex":"#3366ff99","Correct":32,"Choice":32,"RT":361.74500000011176,"Accuracy":1,"Outcome":"+1","Keys":[1862.0099999998347],"TotalKeys":1,"Block":1,"Trial":52,"Robot":1,"Valence":"Win","Action":"Go","Sham":1,"Color":"blue","trial_type":"pit-trial","trial_index":67,"time_elapsed":302156,"internal_node_id":"0.0-56.0","task_version":"test-retest-t2"},{"Rune":"rune_03_naudiz","Hex":"#ffcc3399","Correct":32,"Choice":32,"RT":513.7500000000582,"Accuracy":1,"Outcome":"-10","Keys":[2014.5300000003772],"TotalKeys":1,"Block":1,"Trial":53,"Robot":3,"Valence":"Lose","Action":"Go","Sham":1,"Color":"yellow","trial_type":"pit-trial","trial_index":68,"time_elapsed":305172,"internal_node_id":"0.0-57.0","task_version":"test-retest-t2"},{"Rune":"rune_03_uruz","Hex":"#3366ff99","Correct":32,"Choice":32,"RT":371.24000000039814,"Accuracy":1,"Outcome":"+10","Keys":[1872.0849999999627],"TotalKeys":1,"Block":1,"Trial":54,"Robot":1,"Valence":"Win","Action":"Go","Sham":0,"Color":"blue","trial_type":"pit-trial","trial_index":69,"time_elapsed":308048,"internal_node_id":"0.0-58.0","task_version":"test-retest-t2"},{"Rune":"rune_03_algiz","Hex":"#3366ff99","Correct":-1,"Choice":-1,"RT":-1,"Accuracy":1,"Outcome":"+10","Keys":[],"TotalKeys":0,"Block":1,"Trial":55,"Robot":2,"Valence":"Win","Action":"No-Go","Sham":0,"Color":"blue","trial_type":"pit-trial","trial_index":70,"time_elapsed":312051,"internal_node_id":"0.0-59.0","task_version":"test-retest-t2"},{"Rune":"rune_03_othalan","Hex":"#ffcc3399","Correct":-1,"Choice":-1,"RT":-1,"Accuracy":1,"Outcome":"-10","Keys":[],"TotalKeys":0,"Block":1,"Trial":56,"Robot":4,"Valence":"Lose","Action":"No-Go","Sham":1,"Color":"yellow","trial_type":"pit-trial","trial_index":71,"time_elapsed":316055,"internal_node_id":"0.0-60.0","task_version":"test-retest-t2"},{"Rune":"rune_03_othalan","Hex":"#ffcc3399","Correct":-1,"Choice":-1,"RT":-1,"Accuracy":1,"Outcome":"-1","Keys":[],"TotalKeys":0,"Block":1,"Trial":57,"Robot":4,"Valence":"Lose","Action":"No-Go","Sham":0,"Color":"yellow","trial_type":"pit-trial","trial_index":72,"time_elapsed":320058,"internal_node_id":"0.0-61.0","task_version":"test-retest-t2"},{"Rune":"rune_03_naudiz","Hex":"#ffcc3399","Correct":32,"Choice":32,"RT":373.0850000001956,"Accuracy":1,"Outcome":"-1","Keys":[1873.409999999276],"TotalKeys":1,"Block":1,"Trial":58,"Robot":3,"Valence":"Lose","Action":"Go","Sham":0,"Color":"yellow","trial_type":"pit-trial","trial_index":73,"time_elapsed":322933,"internal_node_id":"0.0-62.0","task_version":"test-retest-t2"},{"Rune":"rune_03_uruz","Hex":"#3366ff99","Correct":32,"Choice":32,"RT":303.3849999992526,"Accuracy":1,"Outcome":"+10","Keys":[1804.2450000002864],"TotalKeys":1,"Block":1,"Trial":59,"Robot":1,"Valence":"Win","Action":"Go","Sham":0,"Color":"blue","trial_type":"pit-trial","trial_index":74,"time_elapsed":325740,"internal_node_id":"0.0-63.0","task_version":"test-retest-t2"},{"Rune":"rune_03_algiz","Hex":"#3366ff99","Correct":-1,"Choice":-1,"RT":-1,"Accuracy":1,"Outcome":"+10","Keys":[],"TotalKeys":0,"Block":1,"Trial":60,"Robot":2,"Valence":"Win","Action":"No-Go","Sham":0,"Color":"blue","trial_type":"pit-trial","trial_index":75,"time_elapsed":329743,"internal_node_id":"0.0-64.0","task_version":"test-retest-t2"},{"value":false,"trial_type":"call-function","trial_index":76,"time_elapsed":329745,"internal_node_id":"0.0-65.0","task_version":"test-retest-t2"},{"view_history":"[{\"page_index\":0,\"viewing_time\":1503611.9500000014},{\"page_index\":1,\"viewing_time\":1449.284999998752}]","rt":1505061.5399999998,"trial_type":"pit-instructions","trial_index":77,"time_elapsed":1834806,"internal_node_id":"0.0-66.0","task_version":"test-retest-t2"},{"Rune":"rune_03_uruz","Hex":"#3366ff99","Correct":32,"Choice":32,"RT":450.10000000009313,"Accuracy":1,"Outcome":"+10","Keys":[1950.134999999078],"TotalKeys":1,"Block":1,"Trial":61,"Robot":1,"Valence":"Win","Action":"Go","Sham":0,"Color":"blue","trial_type":"pit-trial","trial_index":78,"time_elapsed":1837759,"internal_node_id":"0.0-67.0","task_version":"test-retest-t2"},{"Rune":"rune_03_naudiz","Hex":"#ffcc3399","Correct":32,"Choice":32,"RT":656.4699999999721,"Accuracy":1,"Outcome":"-1","Keys":[2156.8950000000186],"TotalKeys":1,"Block":1,"Trial":62,"Robot":3,"Valence":"Lose","Action":"Go","Sham":0,"Color":"yellow","trial_type":"pit-trial","trial_index":79,"time_elapsed":1840919,"internal_node_id":"0.0-68.0","task_version":"test-retest-t2"},{"Rune":"rune_03_othalan","Hex":"#ffcc3399","Correct":-1,"Choice":-1,"RT":-1,"Accuracy":1,"Outcome":"-1","Keys":[],"TotalKeys":0,"Block":1,"Trial":63,"Robot":4,"Valence":"Lose","Action":"No-Go","Sham":0,"Color":"yellow","trial_type":"pit-trial","trial_index":80,"time_elapsed":1844921,"internal_node_id":"0.0-69.0","task_version":"test-retest-t2"},{"Rune":"rune_03_algiz","Hex":"#3366ff99","Correct":-1,"Choice":-1,"RT":-1,"Accuracy":1,"Outcome":"+10","Keys":[],"TotalKeys":0,"Block":1,"Trial":64,"Robot":2,"Valence":"Win","Action":"No-Go","Sham":0,"Color":"blue","trial_type":"pit-trial","trial_index":81,"time_elapsed":1848925,"internal_node_id":"0.0-70.0","task_version":"test-retest-t2"},{"Rune":"rune_03_uruz","Hex":"#3366ff99","Correct":32,"Choice":32,"RT":283.78499999968335,"Accuracy":1,"Outcome":"+10","Keys":[1784.0749999994878],"TotalKeys":1,"Block":1,"Trial":65,"Robot":1,"Valence":"Win","Action":"Go","Sham":0,"Color":"blue","trial_type":"pit-trial","trial_index":82,"time_elapsed":1851712,"internal_node_id":"0.0-71.0","task_version":"test-retest-t2"},{"Rune":"rune_03_othalan","Hex":"#ffcc3399","Correct":-1,"Choice":-1,"RT":-1,"Accuracy":1,"Outcome":"-1","Keys":[],"TotalKeys":0,"Block":1,"Trial":66,"Robot":4,"Valence":"Lose","Action":"No-Go","Sham":0,"Color":"yellow","trial_type":"pit-trial","trial_index":83,"time_elapsed":1855714,"internal_node_id":"0.0-72.0","task_version":"test-retest-t2"},{"Rune":"rune_03_naudiz","Hex":"#ffcc3399","Correct":32,"Choice":32,"RT":446.0600000002887,"Accuracy":1,"Outcome":"-1","Keys":[1946.58499999973],"TotalKeys":1,"Block":1,"Trial":67,"Robot":3,"Valence":"Lose","Action":"Go","Sham":0,"Color":"yellow","trial_type":"pit-trial","trial_index":84,"time_elapsed":1858663,"internal_node_id":"0.0-73.0","task_version":"test-retest-t2"},{"Rune":"rune_03_algiz","Hex":"#3366ff99","Correct":-1,"Choice":-1,"RT":-1,"Accuracy":1,"Outcome":"+10","Keys":[],"TotalKeys":0,"Block":1,"Trial":68,"Robot":2,"Valence":"Win","Action":"No-Go","Sham":0,"Color":"blue","trial_type":"pit-trial","trial_index":85,"time_elapsed":1862666,"internal_node_id":"0.0-74.0","task_version":"test-retest-t2"},{"Rune":"rune_03_algiz","Hex":"#3366ff99","Correct":-1,"Choice":-1,"RT":-1,"Accuracy":1,"Outcome":"+1","Keys":[],"TotalKeys":0,"Block":1,"Trial":69,"Robot":2,"Valence":"Win","Action":"No-Go","Sham":1,"Color":"blue","trial_type":"pit-trial","trial_index":86,"time_elapsed":1866669,"internal_node_id":"0.0-75.0","task_version":"test-retest-t2"},{"Rune":"rune_03_othalan","Hex":"#ffcc3399","Correct":-1,"Choice":-1,"RT":-1,"Accuracy":1,"Outcome":"-1","Keys":[],"TotalKeys":0,"Block":1,"Trial":70,"Robot":4,"Valence":"Lose","Action":"No-Go","Sham":0,"Color":"yellow","trial_type":"pit-trial","trial_index":87,"time_elapsed":1870671,"internal_node_id":"0.0-76.0","task_version":"test-retest-t2"},{"Rune":"rune_03_naudiz","Hex":"#ffcc3399","Correct":32,"Choice":32,"RT":481.2049999998417,"Accuracy":1,"Outcome":"-10","Keys":[1981.345000000205],"TotalKeys":1,"Block":1,"Trial":71,"Robot":3,"Valence":"Lose","Action":"Go","Sham":1,"Color":"yellow","trial_type":"pit-trial","trial_index":88,"time_elapsed":1873655,"internal_node_id":"0.0-77.0","task_version":"test-retest-t2"},{"Rune":"rune_03_uruz","Hex":"#3366ff99","Correct":32,"Choice":32,"RT":206.9150000005029,"Accuracy":1,"Outcome":"+10","Keys":[1707.8399999991525],"TotalKeys":1,"Block":1,"Trial":72,"Robot":1,"Valence":"Win","Action":"Go","Sham":0,"Color":"blue","trial_type":"pit-trial","trial_index":89,"time_elapsed":1876365,"internal_node_id":"0.0-78.0","task_version":"test-retest-t2"},{"Rune":"rune_03_othalan","Hex":"#ffcc3399","Correct":-1,"Choice":-1,"RT":-1,"Accuracy":1,"Outcome":"-10","Keys":[],"TotalKeys":0,"Block":1,"Trial":73,"Robot":4,"Valence":"Lose","Action":"No-Go","Sham":1,"Color":"yellow","trial_type":"pit-trial","trial_index":90,"time_elapsed":1880367,"internal_node_id":"0.0-79.0","task_version":"test-retest-t2"},{"Rune":"rune_03_algiz","Hex":"#3366ff99","Correct":-1,"Choice":-1,"RT":-1,"Accuracy":1,"Outcome":"+10","Keys":[],"TotalKeys":0,"Block":1,"Trial":74,"Robot":2,"Valence":"Win","Action":"No-Go","Sham":0,"Color":"blue","trial_type":"pit-trial","trial_index":91,"time_elapsed":1884370,"internal_node_id":"0.0-80.0","task_version":"test-retest-t2"},{"Rune":"rune_03_naudiz","Hex":"#ffcc3399","Correct":32,"Choice":32,"RT":507.34499999997206,"Accuracy":1,"Outcome":"-1","Keys":[2007.8249999987893],"TotalKeys":1,"Block":1,"Trial":75,"Robot":3,"Valence":"Lose","Action":"Go","Sham":0,"Color":"yellow","trial_type":"pit-trial","trial_index":92,"time_elapsed":1887381,"internal_node_id":"0.0-81.0","task_version":"test-retest-t2"},{"Rune":"rune_03_uruz","Hex":"#3366ff99","Correct":32,"Choice":32,"RT":266.5500000002794,"Accuracy":1,"Outcome":"+1","Keys":[1767.5350000008475],"TotalKeys":1,"Block":1,"Trial":76,"Robot":1,"Valence":"Win","Action":"Go","Sham":1,"Color":"blue","trial_type":"pit-trial","trial_index":93,"time_elapsed":1890151,"internal_node_id":"0.0-82.0","task_version":"test-retest-t2"},{"Rune":"rune_03_algiz","Hex":"#3366ff99","Correct":-1,"Choice":-1,"RT":-1,"Accuracy":1,"Outcome":"+10","Keys":[],"TotalKeys":0,"Block":1,"Trial":77,"Robot":2,"Valence":"Win","Action":"No-Go","Sham":0,"Color":"blue","trial_type":"pit-trial","trial_index":94,"time_elapsed":1894154,"internal_node_id":"0.0-83.0","task_version":"test-retest-t2"},{"Rune":"rune_03_othalan","Hex":"#ffcc3399","Correct":-1,"Choice":-1,"RT":-1,"Accuracy":1,"Outcome":"-1","Keys":[],"TotalKeys":0,"Block":1,"Trial":78,"Robot":4,"Valence":"Lose","Action":"No-Go","Sham":0,"Color":"yellow","trial_type":"pit-trial","trial_index":95,"time_elapsed":1898156,"internal_node_id":"0.0-84.0","task_version":"test-retest-t2"},{"Rune":"rune_03_naudiz","Hex":"#ffcc3399","Correct":32,"Choice":32,"RT":354.3750000006985,"Accuracy":1,"Outcome":"-1","Keys":[1854.4799999999814],"TotalKeys":1,"Block":1,"Trial":79,"Robot":3,"Valence":"Lose","Action":"Go","Sham":0,"Color":"yellow","trial_type":"pit-trial","trial_index":96,"time_elapsed":1901013,"internal_node_id":"0.0-85.0","task_version":"test-retest-t2"},{"Rune":"rune_03_uruz","Hex":"#3366ff99","Correct":32,"Choice":32,"RT":236.33000000170432,"Accuracy":1,"Outcome":"+10","Keys":[1736.8249999999534],"TotalKeys":1,"Block":1,"Trial":80,"Robot":1,"Valence":"Win","Action":"Go","Sham":0,"Color":"blue","trial_type":"pit-trial","trial_index":97,"time_elapsed":1903753,"internal_node_id":"0.0-86.0","task_version":"test-retest-t2"},{"Rune":"rune_03_algiz","Hex":"#3366ff99","Correct":-1,"Choice":-1,"RT":-1,"Accuracy":1,"Outcome":"+10","Keys":[],"TotalKeys":0,"Block":1,"Trial":81,"Robot":2,"Valence":"Win","Action":"No-Go","Sham":0,"Color":"blue","trial_type":"pit-trial","trial_index":98,"time_elapsed":1907757,"internal_node_id":"0.0-87.0","task_version":"test-retest-t2"},{"Rune":"rune_03_othalan","Hex":"#ffcc3399","Correct":-1,"Choice":-1,"RT":-1,"Accuracy":1,"Outcome":"-1","Keys":[],"TotalKeys":0,"Block":1,"Trial":82,"Robot":4,"Valence":"Lose","Action":"No-Go","Sham":0,"Color":"yellow","trial_type":"pit-trial","trial_index":99,"time_elapsed":1911761,"internal_node_id":"0.0-88.0","task_version":"test-retest-t2"},{"Rune":"rune_03_uruz","Hex":"#3366ff99","Correct":32,"Choice":32,"RT":305.26499999896623,"Accuracy":1,"Outcome":"+10","Keys":[1805.914999999106],"TotalKeys":1,"Block":1,"Trial":83,"Robot":1,"Valence":"Win","Action":"Go","Sham":0,"Color":"blue","trial_type":"pit-trial","trial_index":100,"time_elapsed":1914570,"internal_node_id":"0.0-89.0","task_version":"test-retest-t2"},{"Rune":"rune_03_naudiz","Hex":"#ffcc3399","Correct":32,"Choice":32,"RT":294.90000000060536,"Accuracy":1,"Outcome":"-1","Keys":[1795.739999999525],"TotalKeys":1,"Block":1,"Trial":84,"Robot":3,"Valence":"Lose","Action":"Go","Sham":0,"Color":"yellow","trial_type":"pit-trial","trial_index":101,"time_elapsed":1917368,"internal_node_id":"0.0-90.0","task_version":"test-retest-t2"},{"Rune":"rune_03_naudiz","Hex":"#ffcc3399","Correct":32,"Choice":32,"RT":536.3600000001024,"Accuracy":1,"Outcome":"-1","Keys":[2037.3950000011828],"TotalKeys":1,"Block":1,"Trial":85,"Robot":3,"Valence":"Lose","Action":"Go","Sham":0,"Color":"yellow","trial_type":"pit-trial","trial_index":102,"time_elapsed":1920408,"internal_node_id":"0.0-91.0","task_version":"test-retest-t2"},{"Rune":"rune_03_othalan","Hex":"#ffcc3399","Correct":-1,"Choice":-1,"RT":-1,"Accuracy":1,"Outcome":"-1","Keys":[],"TotalKeys":0,"Block":1,"Trial":86,"Robot":4,"Valence":"Lose","Action":"No-Go","Sham":0,"Color":"yellow","trial_type":"pit-trial","trial_index":103,"time_elapsed":1924410,"internal_node_id":"0.0-92.0","task_version":"test-retest-t2"},{"Rune":"rune_03_uruz","Hex":"#3366ff99","Correct":32,"Choice":32,"RT":248.73499999917112,"Accuracy":1,"Outcome":"+10","Keys":[1750.095000001369],"TotalKeys":1,"Block":1,"Trial":87,"Robot":1,"Valence":"Win","Action":"Go","Sham":0,"Color":"blue","trial_type":"pit-trial","trial_index":104,"time_elapsed":1927162,"internal_node_id":"0.0-93.0","task_version":"test-retest-t2"},{"Rune":"rune_03_algiz","Hex":"#3366ff99","Correct":-1,"Choice":-1,"RT":-1,"Accuracy":1,"Outcome":"+10","Keys":[],"TotalKeys":0,"Block":1,"Trial":88,"Robot":2,"Valence":"Win","Action":"No-Go","Sham":0,"Color":"blue","trial_type":"pit-trial","trial_index":105,"time_elapsed":1931166,"internal_node_id":"0.0-94.0","task_version":"test-retest-t2"},{"Rune":"rune_03_uruz","Hex":"#3366ff99","Correct":32,"Choice":32,"RT":313.33999999891967,"Accuracy":1,"Outcome":"+10","Keys":[1813.700000000652],"TotalKeys":1,"Block":1,"Trial":89,"Robot":1,"Valence":"Win","Action":"Go","Sham":0,"Color":"blue","trial_type":"pit-trial","trial_index":106,"time_elapsed":1933983,"internal_node_id":"0.0-95.0","task_version":"test-retest-t2"},{"Rune":"rune_03_naudiz","Hex":"#ffcc3399","Correct":32,"Choice":32,"RT":334.54499999969266,"Accuracy":1,"Outcome":"-10","Keys":[1835.5199999988545],"TotalKeys":1,"Block":1,"Trial":90,"Robot":3,"Valence":"Lose","Action":"Go","Sham":1,"Color":"yellow","trial_type":"pit-trial","trial_index":107,"time_elapsed":1936821,"internal_node_id":"0.0-96.0","task_version":"test-retest-t2"},{"Rune":"rune_03_othalan","Hex":"#ffcc3399","Correct":-1,"Choice":-1,"RT":-1,"Accuracy":1,"Outcome":"-1","Keys":[],"TotalKeys":0,"Block":1,"Trial":91,"Robot":4,"Valence":"Lose","Action":"No-Go","Sham":0,"Color":"yellow","trial_type":"pit-trial","trial_index":108,"time_elapsed":1940824,"internal_node_id":"0.0-97.0","task_version":"test-retest-t2"},{"Rune":"rune_03_algiz","Hex":"#3366ff99","Correct":-1,"Choice":-1,"RT":-1,"Accuracy":1,"Outcome":"+1","Keys":[],"TotalKeys":0,"Block":1,"Trial":92,"Robot":2,"Valence":"Win","Action":"No-Go","Sham":1,"Color":"blue","trial_type":"pit-trial","trial_index":109,"time_elapsed":1944827,"internal_node_id":"0.0-98.0","task_version":"test-retest-t2"},{"Rune":"rune_03_othalan","Hex":"#ffcc3399","Correct":-1,"Choice":-1,"RT":-1,"Accuracy":1,"Outcome":"-1","Keys":[],"TotalKeys":0,"Block":1,"Trial":93,"Robot":4,"Valence":"Lose","Action":"No-Go","Sham":0,"Color":"yellow","trial_type":"pit-trial","trial_index":110,"time_elapsed":1948829,"internal_node_id":"0.0-99.0","task_version":"test-retest-t2"},{"Rune":"rune_03_uruz","Hex":"#3366ff99","Correct":32,"Choice":32,"RT":281.25499999988824,"Accuracy":1,"Outcome":"+10","Keys":[1781.8900000001304],"TotalKeys":1,"Block":1,"Trial":94,"Robot":1,"Valence":"Win","Action":"Go","Sham":0,"Color":"blue","trial_type":"pit-trial","trial_index":111,"time_elapsed":1951613,"internal_node_id":"0.0-100.0","task_version":"test-retest-t2"},{"Rune":"rune_03_algiz","Hex":"#3366ff99","Correct":-1,"Choice":-1,"RT":-1,"Accuracy":1,"Outcome":"+10","Keys":[],"TotalKeys":0,"Block":1,"Trial":95,"Robot":2,"Valence":"Win","Action":"No-Go","Sham":0,"Color":"blue","trial_type":"pit-trial","trial_index":112,"time_elapsed":1955616,"internal_node_id":"0.0-101.0","task_version":"test-retest-t2"},{"Rune":"rune_03_naudiz","Hex":"#ffcc3399","Correct":32,"Choice":32,"RT":292.43999999924563,"Accuracy":1,"Outcome":"-1","Keys":[1792.9600000006612],"TotalKeys":1,"Block":1,"Trial":96,"Robot":3,"Valence":"Lose","Action":"Go","Sham":0,"Color":"yellow","trial_type":"pit-trial","trial_index":113,"time_elapsed":1958411,"internal_node_id":"0.0-102.0","task_version":"test-retest-t2"},{"Rune":"rune_03_othalan","Hex":"#ffcc3399","Correct":-1,"Choice":-1,"RT":-1,"Accuracy":1,"Outcome":"-10","Keys":[],"TotalKeys":0,"Block":1,"Trial":97,"Robot":4,"Valence":"Lose","Action":"No-Go","Sham":1,"Color":"yellow","trial_type":"pit-trial","trial_index":114,"time_elapsed":1962414,"internal_node_id":"0.0-103.0","task_version":"test-retest-t2"},{"Rune":"rune_03_uruz","Hex":"#3366ff99","Correct":32,"Choice":32,"RT":304.32499999925494,"Accuracy":1,"Outcome":"+1","Keys":[1804.720000000205],"TotalKeys":1,"Block":1,"Trial":98,"Robot":1,"Valence":"Win","Action":"Go","Sham":1,"Color":"blue","trial_type":"pit-trial","trial_index":115,"time_elapsed":1965221,"internal_node_id":"0.0-104.0","task_version":"test-retest-t2"},{"Rune":"rune_03_naudiz","Hex":"#ffcc3399","Correct":32,"Choice":32,"RT":505.64499999932013,"Accuracy":1,"Outcome":"-1","Keys":[2005.8749999988358],"TotalKeys":1,"Block":1,"Trial":99,"Robot":3,"Valence":"Lose","Action":"Go","Sham":0,"Color":"yellow","trial_type":"pit-trial","trial_index":116,"time_elapsed":1968229,"internal_node_id":"0.0-105.0","task_version":"test-retest-t2"},{"Rune":"rune_03_algiz","Hex":"#3366ff99","Correct":-1,"Choice":-1,"RT":-1,"Accuracy":1,"Outcome":"+10","Keys":[],"TotalKeys":0,"Block":1,"Trial":100,"Robot":2,"Valence":"Win","Action":"No-Go","Sham":0,"Color":"blue","trial_type":"pit-trial","trial_index":117,"time_elapsed":1972230,"internal_node_id":"0.0-106.0","task_version":"test-retest-t2"},{"Rune":"rune_03_naudiz","Hex":"#ffcc3399","Correct":32,"Choice":32,"RT":434.07000000122935,"Accuracy":1,"Outcome":"-1","Keys":[1934.33499999973],"TotalKeys":1,"Block":1,"Trial":101,"Robot":3,"Valence":"Lose","Action":"Go","Sham":0,"Color":"yellow","trial_type":"pit-trial","trial_index":118,"time_elapsed":1975167,"internal_node_id":"0.0-107.0","task_version":"test-retest-t2"},{"Rune":"rune_03_othalan","Hex":"#ffcc3399","Correct":-1,"Choice":-1,"RT":-1,"Accuracy":1,"Outcome":"-1","Keys":[],"TotalKeys":0,"Block":1,"Trial":102,"Robot":4,"Valence":"Lose","Action":"No-Go","Sham":0,"Color":"yellow","trial_type":"pit-trial","trial_index":119,"time_elapsed":1979170,"internal_node_id":"0.0-108.0","task_version":"test-retest-t2"},{"Rune":"rune_03_uruz","Hex":"#3366ff99","Correct":32,"Choice":32,"RT":297.0799999984447,"Accuracy":1,"Outcome":"+10","Keys":[1797.4749999993946],"TotalKeys":1,"Block":1,"Trial":103,"Robot":1,"Valence":"Win","Action":"Go","Sham":0,"Color":"blue","trial_type":"pit-trial","trial_index":120,"time_elapsed":1981970,"internal_node_id":"0.0-109.0","task_version":"test-retest-t2"},{"Rune":"rune_03_algiz","Hex":"#3366ff99","Correct":-1,"Choice":-1,"RT":-1,"Accuracy":1,"Outcome":"+1","Keys":[],"TotalKeys":0,"Block":1,"Trial":104,"Robot":2,"Valence":"Win","Action":"No-Go","Sham":1,"Color":"blue","trial_type":"pit-trial","trial_index":121,"time_elapsed":1985974,"internal_node_id":"0.0-110.0","task_version":"test-retest-t2"},{"Rune":"rune_03_algiz","Hex":"#3366ff99","Correct":-1,"Choice":-1,"RT":-1,"Accuracy":1,"Outcome":"+10","Keys":[],"TotalKeys":0,"Block":1,"Trial":105,"Robot":2,"Valence":"Win","Action":"No-Go","Sham":0,"Color":"blue","trial_type":"pit-trial","trial_index":122,"time_elapsed":1989976,"internal_node_id":"0.0-111.0","task_version":"test-retest-t2"},{"Rune":"rune_03_uruz","Hex":"#3366ff99","Correct":32,"Choice":32,"RT":336.4099999999162,"Accuracy":1,"Outcome":"+10","Keys":[1836.8449999997392],"TotalKeys":1,"Block":1,"Trial":106,"Robot":1,"Valence":"Win","Action":"Go","Sham":0,"Color":"blue","trial_type":"pit-trial","trial_index":123,"time_elapsed":1992816,"internal_node_id":"0.0-112.0","task_version":"test-retest-t2"},{"Rune":"rune_03_naudiz","Hex":"#ffcc3399","Correct":32,"Choice":32,"RT":396.34499999927357,"Accuracy":1,"Outcome":"-1","Keys":[1896.8550000009127],"TotalKeys":1,"Block":1,"Trial":107,"Robot":3,"Valence":"Lose","Action":"Go","Sham":0,"Color":"yellow","trial_type":"pit-trial","trial_index":124,"time_elapsed":1995715,"internal_node_id":"0.0-113.0","task_version":"test-retest-t2"},{"Rune":"rune_03_othalan","Hex":"#ffcc3399","Correct":-1,"Choice":-1,"RT":-1,"Accuracy":1,"Outcome":"-1","Keys":[],"TotalKeys":0,"Block":1,"Trial":108,"Robot":4,"Valence":"Lose","Action":"No-Go","Sham":0,"Color":"yellow","trial_type":"pit-trial","trial_index":125,"time_elapsed":1999718,"internal_node_id":"0.0-114.0","task_version":"test-retest-t2"},{"Rune":"rune_03_uruz","Hex":"#3366ff99","Correct":32,"Choice":32,"RT":347.92500000004657,"Accuracy":1,"Outcome":"+1","Keys":[1848.5099999997765],"TotalKeys":1,"Block":1,"Trial":109,"Robot":1,"Valence":"Win","Action":"Go","Sham":1,"Color":"blue","trial_type":"pit-trial","trial_index":126,"time_elapsed":2002568,"internal_node_id":"0.0-115.0","task_version":"test-retest-t2"},{"Rune":"rune_03_othalan","Hex":"#ffcc3399","Correct":-1,"Choice":-1,"RT":-1,"Accuracy":1,"Outcome":"-1","Keys":[],"TotalKeys":0,"Block":1,"Trial":110,"Robot":4,"Valence":"Lose","Action":"No-Go","Sham":0,"Color":"yellow","trial_type":"pit-trial","trial_index":127,"time_elapsed":2006571,"internal_node_id":"0.0-116.0","task_version":"test-retest-t2"},{"Rune":"rune_03_naudiz","Hex":"#ffcc3399","Correct":32,"Choice":32,"RT":321.830000000773,"Accuracy":1,"Outcome":"-10","Keys":[1822.1199999989476],"TotalKeys":1,"Block":1,"Trial":111,"Robot":3,"Valence":"Lose","Action":"Go","Sham":1,"Color":"yellow","trial_type":"pit-trial","trial_index":128,"time_elapsed":2009395,"internal_node_id":"0.0-117.0","task_version":"test-retest-t2"},{"Rune":"rune_03_algiz","Hex":"#3366ff99","Correct":-1,"Choice":-1,"RT":-1,"Accuracy":1,"Outcome":"+10","Keys":[],"TotalKeys":0,"Block":1,"Trial":112,"Robot":2,"Valence":"Win","Action":"No-Go","Sham":0,"Color":"blue","trial_type":"pit-trial","trial_index":129,"time_elapsed":2013397,"internal_node_id":"0.0-118.0","task_version":"test-retest-t2"},{"Rune":"rune_03_naudiz","Hex":"#ffcc3399","Correct":32,"Choice":32,"RT":329.6949999984354,"Accuracy":1,"Outcome":"-1","Keys":[1829.819999998901],"TotalKeys":1,"Block":1,"Trial":113,"Robot":3,"Valence":"Lose","Action":"Go","Sham":0,"Color":"yellow","trial_type":"pit-trial","trial_index":130,"time_elapsed":2016229,"internal_node_id":"0.0-119.0","task_version":"test-retest-t2"},{"Rune":"rune_03_algiz","Hex":"#3366ff99","Correct":-1,"Choice":-1,"RT":-1,"Accuracy":1,"Outcome":"+10","Keys":[],"TotalKeys":0,"Block":1,"Trial":114,"Robot":2,"Valence":"Win","Action":"No-Go","Sham":0,"Color":"blue","trial_type":"pit-trial","trial_index":131,"time_elapsed":2020232,"internal_node_id":"0.0-120.0","task_version":"test-retest-t2"},{"Rune":"rune_03_uruz","Hex":"#3366ff99","Correct":32,"Choice":32,"RT":317.4849999996368,"Accuracy":1,"Outcome":"+10","Keys":[1818.4999999993015],"TotalKeys":1,"Block":1,"Trial":115,"Robot":1,"Valence":"Win","Action":"Go","Sham":0,"Color":"blue","trial_type":"pit-trial","trial_index":132,"time_elapsed":2023052,"internal_node_id":"0.0-121.0","task_version":"test-retest-t2"},{"Rune":"rune_03_othalan","Hex":"#ffcc3399","Correct":-1,"Choice":-1,"RT":-1,"Accuracy":1,"Outcome":"-1","Keys":[],"TotalKeys":0,"Block":1,"Trial":116,"Robot":4,"Valence":"Lose","Action":"No-Go","Sham":0,"Color":"yellow","trial_type":"pit-trial","trial_index":133,"time_elapsed":2027055,"internal_node_id":"0.0-122.0","task_version":"test-retest-t2"},{"Rune":"rune_03_algiz","Hex":"#3366ff99","Correct":-1,"Choice":-1,"RT":-1,"Accuracy":1,"Outcome":"+10","Keys":[],"TotalKeys":0,"Block":1,"Trial":117,"Robot":2,"Valence":"Win","Action":"No-Go","Sham":0,"Color":"blue","trial_type":"pit-trial","trial_index":134,"time_elapsed":2031057,"internal_node_id":"0.0-123.0","task_version":"test-retest-t2"},{"Rune":"rune_03_othalan","Hex":"#ffcc3399","Correct":-1,"Choice":-1,"RT":-1,"Accuracy":1,"Outcome":"-10","Keys":[],"TotalKeys":0,"Block":1,"Trial":118,"Robot":4,"Valence":"Lose","Action":"No-Go","Sham":1,"Color":"yellow","trial_type":"pit-trial","trial_index":135,"time_elapsed":2035061,"internal_node_id":"0.0-124.0","task_version":"test-retest-t2"},{"Rune":"rune_03_naudiz","Hex":"#ffcc3399","Correct":32,"Choice":32,"RT":332.24000000138767,"Accuracy":1,"Outcome":"-1","Keys":[1832.6500000003725],"TotalKeys":1,"Block":1,"Trial":119,"Robot":3,"Valence":"Lose","Action":"Go","Sham":0,"Color":"yellow","trial_type":"pit-trial","trial_index":136,"time_elapsed":2037896,"internal_node_id":"0.0-125.0","task_version":"test-retest-t2"},{"Rune":"rune_03_uruz","Hex":"#3366ff99","Correct":32,"Choice":32,"RT":209.2549999996554,"Accuracy":1,"Outcome":"+10","Keys":[1709.7549999998882],"TotalKeys":1,"Block":1,"Trial":120,"Robot":1,"Valence":"Win","Action":"Go","Sham":0,"Color":"blue","trial_type":"pit-trial","trial_index":137,"time_elapsed":2040608,"internal_node_id":"0.0-126.0","task_version":"test-retest-t2"},{"view_history":"[{\"page_index\":0,\"viewing_time\":3164.8199999998324},{\"page_index\":1,\"viewing_time\":2593.6150000016205},{\"page_index\":2,\"viewing_time\":1586.8999999985099}]","rt":7345.645000001183,"trial_type":"pit-instructions","trial_index":138,"time_elapsed":2047954,"internal_node_id":"0.0-127.0","task_version":"test-retest-t2"},{"Rune":"rune_04_dagaz","Hex":"#ffcc3399","Correct":32,"Choice":32,"RT":434.95999999856576,"Accuracy":1,"Outcome":"-1","Keys":[1935.5350000006147],"TotalKeys":1,"Block":2,"Trial":121,"Robot":3,"Valence":"Lose","Action":"Go","Sham":0,"Color":"yellow","trial_type":"pit-trial","trial_index":139,"time_elapsed":2050893,"internal_node_id":"0.0-128.0","task_version":"test-retest-t2"},{"Rune":"rune_04_iwaz","Hex":"#3366ff99","Correct":32,"Choice":32,"RT":573.2050000005402,"Accuracy":1,"Outcome":"+10","Keys":[2073.609999999637],"TotalKeys":1,"Block":2,"Trial":122,"Robot":1,"Valence":"Win","Action":"Go","Sham":0,"Color":"blue","trial_type":"pit-trial","trial_index":140,"time_elapsed":2053970,"internal_node_id":"0.0-129.0","task_version":"test-retest-t2"},{"Rune":"rune_04_wunjo","Hex":"#3366ff99","Correct":-1,"Choice":32,"RT":471.1100000003353,"Accuracy":0,"Outcome":"+1","Keys":[1971.9449999991339],"TotalKeys":1,"Block":2,"Trial":123,"Robot":2,"Valence":"Win","Action":"No-Go","Sham":0,"Color":"blue","trial_type":"pit-trial","trial_index":141,"time_elapsed":2056945,"internal_node_id":"0.0-130.0","task_version":"test-retest-t2"},{"Rune":"rune_04_ac","Hex":"#ffcc3399","Correct":-1,"Choice":32,"RT":456.11499999905936,"Accuracy":0,"Outcome":"-10","Keys":[1956.1900000006426],"TotalKeys":1,"Block":2,"Trial":124,"Robot":4,"Valence":"Lose","Action":"No-Go","Sham":0,"Color":"yellow","trial_type":"pit-trial","trial_index":142,"time_elapsed":2059903,"internal_node_id":"0.0-131.0","task_version":"test-retest-t2"},{"Rune":"rune_04_dagaz","Hex":"#ffcc3399","Correct":32,"Choice":32,"RT":304.29999999981374,"Accuracy":1,"Outcome":"-1","Keys":[1805.0600000005215],"TotalKeys":1,"Block":2,"Trial":125,"Robot":3,"Valence":"Lose","Action":"Go","Sham":0,"Color":"yellow","trial_type":"pit-trial","trial_index":143,"time_elapsed":2062710,"internal_node_id":"0.0-132.0","task_version":"test-retest-t2"},{"Rune":"rune_04_wunjo","Hex":"#3366ff99","Correct":-1,"Choice":32,"RT":649.5400000005029,"Accuracy":0,"Outcome":"+1","Keys":[2149.7800000016578],"TotalKeys":1,"Block":2,"Trial":126,"Robot":2,"Valence":"Win","Action":"No-Go","Sham":0,"Color":"blue","trial_type":"pit-trial","trial_index":144,"time_elapsed":2065862,"internal_node_id":"0.0-133.0","task_version":"test-retest-t2"},{"Rune":"rune_04_ac","Hex":"#ffcc3399","Correct":-1,"Choice":-1,"RT":-1,"Accuracy":1,"Outcome":"-1","Keys":[],"TotalKeys":0,"Block":2,"Trial":127,"Robot":4,"Valence":"Lose","Action":"No-Go","Sham":0,"Color":"yellow","trial_type":"pit-trial","trial_index":145,"time_elapsed":2069864,"internal_node_id":"0.0-134.0","task_version":"test-retest-t2"},{"Rune":"rune_04_iwaz","Hex":"#3366ff99","Correct":32,"Choice":32,"RT":592.4349999986589,"Accuracy":1,"Outcome":"+10","Keys":[2093.4099999994505],"TotalKeys":1,"Block":2,"Trial":128,"Robot":1,"Valence":"Win","Action":"Go","Sham":0,"Color":"blue","trial_type":"pit-trial","trial_index":146,"time_elapsed":2072960,"internal_node_id":"0.0-135.0","task_version":"test-retest-t2"},{"Rune":"rune_04_iwaz","Hex":"#3366ff99","Correct":32,"Choice":32,"RT":432.60000000009313,"Accuracy":1,"Outcome":"+1","Keys":[1933.2599999997765],"TotalKeys":1,"Block":2,"Trial":129,"Robot":1,"Valence":"Win","Action":"Go","Sham":1,"Color":"blue","trial_type":"pit-trial","trial_index":147,"time_elapsed":2075895,"internal_node_id":"0.0-136.0","task_version":"test-retest-t2"},{"Rune":"rune_04_dagaz","Hex":"#ffcc3399","Correct":32,"Choice":32,"RT":277.8550000002142,"Accuracy":1,"Outcome":"-10","Keys":[1777.959999999497],"TotalKeys":1,"Block":2,"Trial":130,"Robot":3,"Valence":"Lose","Action":"Go","Sham":1,"Color":"yellow","trial_type":"pit-trial","trial_index":148,"time_elapsed":2078675,"internal_node_id":"0.0-137.0","task_version":"test-retest-t2"},{"Rune":"rune_04_ac","Hex":"#ffcc3399","Correct":-1,"Choice":-1,"RT":-1,"Accuracy":1,"Outcome":"-1","Keys":[],"TotalKeys":0,"Block":2,"Trial":131,"Robot":4,"Valence":"Lose","Action":"No-Go","Sham":0,"Color":"yellow","trial_type":"pit-trial","trial_index":149,"time_elapsed":2082678,"internal_node_id":"0.0-138.0","task_version":"test-retest-t2"},{"Rune":"rune_04_wunjo","Hex":"#3366ff99","Correct":-1,"Choice":-1,"RT":-1,"Accuracy":1,"Outcome":"+1","Keys":[],"TotalKeys":0,"Block":2,"Trial":132,"Robot":2,"Valence":"Win","Action":"No-Go","Sham":1,"Color":"blue","trial_type":"pit-trial","trial_index":150,"time_elapsed":2086681,"internal_node_id":"0.0-139.0","task_version":"test-retest-t2"},{"Rune":"rune_04_ac","Hex":"#ffcc3399","Correct":-1,"Choice":-1,"RT":-1,"Accuracy":1,"Outcome":"-10","Keys":[],"TotalKeys":0,"Block":2,"Trial":133,"Robot":4,"Valence":"Lose","Action":"No-Go","Sham":1,"Color":"yellow","trial_type":"pit-trial","trial_index":151,"time_elapsed":2090684,"internal_node_id":"0.0-140.0","task_version":"test-retest-t2"},{"Rune":"rune_04_iwaz","Hex":"#3366ff99","Correct":32,"Choice":32,"RT":435.75999999861233,"Accuracy":1,"Outcome":"+10","Keys":[1936.4599999990314],"TotalKeys":1,"Block":2,"Trial":134,"Robot":1,"Valence":"Win","Action":"Go","Sham":0,"Color":"blue","trial_type":"pit-trial","trial_index":152,"time_elapsed":2093623,"internal_node_id":"0.0-141.0","task_version":"test-retest-t2"},{"Rune":"rune_04_dagaz","Hex":"#ffcc3399","Correct":32,"Choice":32,"RT":280.6049999999814,"Accuracy":1,"Outcome":"-1","Keys":[1781.639999999199],"TotalKeys":1,"Block":2,"Trial":135,"Robot":3,"Valence":"Lose","Action":"Go","Sham":0,"Color":"yellow","trial_type":"pit-trial","trial_index":153,"time_elapsed":2096407,"internal_node_id":"0.0-142.0","task_version":"test-retest-t2"},{"Rune":"rune_04_wunjo","Hex":"#3366ff99","Correct":-1,"Choice":-1,"RT":-1,"Accuracy":1,"Outcome":"+10","Keys":[],"TotalKeys":0,"Block":2,"Trial":136,"Robot":2,"Valence":"Win","Action":"No-Go","Sham":0,"Color":"blue","trial_type":"pit-trial","trial_index":154,"time_elapsed":2100409,"internal_node_id":"0.0-143.0","task_version":"test-retest-t2"},{"Rune":"rune_04_iwaz","Hex":"#3366ff99","Correct":32,"Choice":32,"RT":344.75499999988824,"Accuracy":1,"Outcome":"+10","Keys":[1846.0199999990873],"TotalKeys":1,"Block":2,"Trial":137,"Robot":1,"Valence":"Win","Action":"Go","Sham":0,"Color":"blue","trial_type":"pit-trial","trial_index":155,"time_elapsed":2103257,"internal_node_id":"0.0-144.0","task_version":"test-retest-t2"},{"Rune":"rune_04_wunjo","Hex":"#3366ff99","Correct":-1,"Choice":-1,"RT":-1,"Accuracy":1,"Outcome":"+10","Keys":[],"TotalKeys":0,"Block":2,"Trial":138,"Robot":2,"Valence":"Win","Action":"No-Go","Sham":0,"Color":"blue","trial_type":"pit-trial","trial_index":156,"time_elapsed":2107261,"internal_node_id":"0.0-145.0","task_version":"test-retest-t2"},{"Rune":"rune_04_ac","Hex":"#ffcc3399","Correct":-1,"Choice":-1,"RT":-1,"Accuracy":1,"Outcome":"-1","Keys":[],"TotalKeys":0,"Block":2,"Trial":139,"Robot":4,"Valence":"Lose","Action":"No-Go","Sham":0,"Color":"yellow","trial_type":"pit-trial","trial_index":157,"time_elapsed":2111265,"internal_node_id":"0.0-146.0","task_version":"test-retest-t2"},{"Rune":"rune_04_dagaz","Hex":"#ffcc3399","Correct":32,"Choice":32,"RT":342.52499999990687,"Accuracy":1,"Outcome":"-1","Keys":[1843.3050000001676],"TotalKeys":1,"Block":2,"Trial":140,"Robot":3,"Valence":"Lose","Action":"Go","Sham":0,"Color":"yellow","trial_type":"pit-trial","trial_index":158,"time_elapsed":2114110,"internal_node_id":"0.0-147.0","task_version":"test-retest-t2"},{"Rune":"rune_04_iwaz","Hex":"#3366ff99","Correct":32,"Choice":32,"RT":409.6100000003353,"Accuracy":1,"Outcome":"+10","Keys":[1909.9649999989197],"TotalKeys":1,"Block":2,"Trial":141,"Robot":1,"Valence":"Win","Action":"Go","Sham":0,"Color":"blue","trial_type":"pit-trial","trial_index":159,"time_elapsed":2117023,"internal_node_id":"0.0-148.0","task_version":"test-retest-t2"},{"Rune":"rune_04_wunjo","Hex":"#3366ff99","Correct":-1,"Choice":-1,"RT":-1,"Accuracy":1,"Outcome":"+10","Keys":[],"TotalKeys":0,"Block":2,"Trial":142,"Robot":2,"Valence":"Win","Action":"No-Go","Sham":0,"Color":"blue","trial_type":"pit-trial","trial_index":160,"time_elapsed":2121026,"internal_node_id":"0.0-149.0","task_version":"test-retest-t2"},{"Rune":"rune_04_ac","Hex":"#ffcc3399","Correct":-1,"Choice":-1,"RT":-1,"Accuracy":1,"Outcome":"-1","Keys":[],"TotalKeys":0,"Block":2,"Trial":143,"Robot":4,"Valence":"Lose","Action":"No-Go","Sham":0,"Color":"yellow","trial_type":"pit-trial","trial_index":161,"time_elapsed":2125029,"internal_node_id":"0.0-150.0","task_version":"test-retest-t2"},{"Rune":"rune_04_dagaz","Hex":"#ffcc3399","Correct":32,"Choice":32,"RT":398.820000000298,"Accuracy":1,"Outcome":"-1","Keys":[1899.3250000001863],"TotalKeys":1,"Block":2,"Trial":144,"Robot":3,"Valence":"Lose","Action":"Go","Sham":0,"Color":"yellow","trial_type":"pit-trial","trial_index":162,"time_elapsed":2127931,"internal_node_id":"0.0-151.0","task_version":"test-retest-t2"},{"Rune":"rune_04_ac","Hex":"#ffcc3399","Correct":-1,"Choice":-1,"RT":-1,"Accuracy":1,"Outcome":"-1","Keys":[],"TotalKeys":0,"Block":2,"Trial":145,"Robot":4,"Valence":"Lose","Action":"No-Go","Sham":0,"Color":"yellow","trial_type":"pit-trial","trial_index":163,"time_elapsed":2131934,"internal_node_id":"0.0-152.0","task_version":"test-retest-t2"},{"Rune":"rune_04_wunjo","Hex":"#3366ff99","Correct":-1,"Choice":32,"RT":264.5599999995902,"Accuracy":0,"Outcome":"+1","Keys":[1765.3000000012107],"TotalKeys":1,"Block":2,"Trial":146,"Robot":2,"Valence":"Win","Action":"No-Go","Sham":0,"Color":"blue","trial_type":"pit-trial","trial_index":164,"time_elapsed":2134701,"internal_node_id":"0.0-153.0","task_version":"test-retest-t2"},{"Rune":"rune_04_dagaz","Hex":"#ffcc3399","Correct":32,"Choice":32,"RT":388.5799999986775,"Accuracy":1,"Outcome":"-1","Keys":[1889.3149999999441],"TotalKeys":1,"Block":2,"Trial":147,"Robot":3,"Valence":"Lose","Action":"Go","Sham":0,"Color":"yellow","trial_type":"pit-trial","trial_index":165,"time_elapsed":2137592,"internal_node_id":"0.0-154.0","task_version":"test-retest-t2"},{"Rune":"rune_04_iwaz","Hex":"#3366ff99","Correct":32,"Choice":32,"RT":217.36500000068918,"Accuracy":1,"Outcome":"+1","Keys":[1717.4150000009686],"TotalKeys":1,"Block":2,"Trial":148,"Robot":1,"Valence":"Win","Action":"Go","Sham":1,"Color":"blue","trial_type":"pit-trial","trial_index":166,"time_elapsed":2140312,"internal_node_id":"0.0-155.0","task_version":"test-retest-t2"},{"Rune":"rune_04_iwaz","Hex":"#3366ff99","Correct":32,"Choice":32,"RT":393.570000000298,"Accuracy":1,"Outcome":"+10","Keys":[1894.140000000596],"TotalKeys":1,"Block":2,"Trial":149,"Robot":1,"Valence":"Win","Action":"Go","Sham":0,"Color":"blue","trial_type":"pit-trial","trial_index":167,"time_elapsed":2143208,"internal_node_id":"0.0-156.0","task_version":"test-retest-t2"},{"Rune":"rune_04_dagaz","Hex":"#ffcc3399","Correct":32,"Choice":32,"RT":444.3100000009872,"Accuracy":1,"Outcome":"-10","Keys":[1944.5550000001676],"TotalKeys":1,"Block":2,"Trial":150,"Robot":3,"Valence":"Lose","Action":"Go","Sham":1,"Color":"yellow","trial_type":"pit-trial","trial_index":168,"time_elapsed":2146155,"internal_node_id":"0.0-157.0","task_version":"test-retest-t2"},{"Rune":"rune_04_ac","Hex":"#ffcc3399","Correct":-1,"Choice":-1,"RT":-1,"Accuracy":1,"Outcome":"-10","Keys":[],"TotalKeys":0,"Block":2,"Trial":151,"Robot":4,"Valence":"Lose","Action":"No-Go","Sham":1,"Color":"yellow","trial_type":"pit-trial","trial_index":169,"time_elapsed":2150159,"internal_node_id":"0.0-158.0","task_version":"test-retest-t2"},{"Rune":"rune_04_wunjo","Hex":"#3366ff99","Correct":-1,"Choice":-1,"RT":-1,"Accuracy":1,"Outcome":"+10","Keys":[],"TotalKeys":0,"Block":2,"Trial":152,"Robot":2,"Valence":"Win","Action":"No-Go","Sham":0,"Color":"blue","trial_type":"pit-trial","trial_index":170,"time_elapsed":2154163,"internal_node_id":"0.0-159.0","task_version":"test-retest-t2"},{"Rune":"rune_04_wunjo","Hex":"#3366ff99","Correct":-1,"Choice":-1,"RT":-1,"Accuracy":1,"Outcome":"+1","Keys":[],"TotalKeys":0,"Block":2,"Trial":153,"Robot":2,"Valence":"Win","Action":"No-Go","Sham":1,"Color":"blue","trial_type":"pit-trial","trial_index":171,"time_elapsed":2158166,"internal_node_id":"0.0-160.0","task_version":"test-retest-t2"},{"Rune":"rune_04_ac","Hex":"#ffcc3399","Correct":-1,"Choice":-1,"RT":-1,"Accuracy":1,"Outcome":"-1","Keys":[],"TotalKeys":0,"Block":2,"Trial":154,"Robot":4,"Valence":"Lose","Action":"No-Go","Sham":0,"Color":"yellow","trial_type":"pit-trial","trial_index":172,"time_elapsed":2162171,"internal_node_id":"0.0-161.0","task_version":"test-retest-t2"},{"Rune":"rune_04_dagaz","Hex":"#ffcc3399","Correct":32,"Choice":32,"RT":407.0050000012852,"Accuracy":1,"Outcome":"-1","Keys":[1908.655000001192],"TotalKeys":1,"Block":2,"Trial":155,"Robot":3,"Valence":"Lose","Action":"Go","Sham":0,"Color":"yellow","trial_type":"pit-trial","trial_index":173,"time_elapsed":2165082,"internal_node_id":"0.0-162.0","task_version":"test-retest-t2"},{"Rune":"rune_04_iwaz","Hex":"#3366ff99","Correct":32,"Choice":32,"RT":361.3650000006892,"Accuracy":1,"Outcome":"+10","Keys":[1861.6099999998696],"TotalKeys":1,"Block":2,"Trial":156,"Robot":1,"Valence":"Win","Action":"Go","Sham":0,"Color":"blue","trial_type":"pit-trial","trial_index":174,"time_elapsed":2167946,"internal_node_id":"0.0-163.0","task_version":"test-retest-t2"},{"Rune":"rune_04_ac","Hex":"#ffcc3399","Correct":-1,"Choice":-1,"RT":-1,"Accuracy":1,"Outcome":"-1","Keys":[],"TotalKeys":0,"Block":2,"Trial":157,"Robot":4,"Valence":"Lose","Action":"No-Go","Sham":0,"Color":"yellow","trial_type":"pit-trial","trial_index":175,"time_elapsed":2171948,"internal_node_id":"0.0-164.0","task_version":"test-retest-t2"},{"Rune":"rune_04_iwaz","Hex":"#3366ff99","Correct":32,"Choice":32,"RT":377.45999999996275,"Accuracy":1,"Outcome":"+10","Keys":[1877.5150000001304],"TotalKeys":1,"Block":2,"Trial":158,"Robot":1,"Valence":"Win","Action":"Go","Sham":0,"Color":"blue","trial_type":"pit-trial","trial_index":176,"time_elapsed":2174828,"internal_node_id":"0.0-165.0","task_version":"test-retest-t2"},{"Rune":"rune_04_wunjo","Hex":"#3366ff99","Correct":-1,"Choice":-1,"RT":-1,"Accuracy":1,"Outcome":"+10","Keys":[],"TotalKeys":0,"Block":2,"Trial":159,"Robot":2,"Valence":"Win","Action":"No-Go","Sham":0,"Color":"blue","trial_type":"pit-trial","trial_index":177,"time_elapsed":2178832,"internal_node_id":"0.0-166.0","task_version":"test-retest-t2"},{"Rune":"rune_04_dagaz","Hex":"#ffcc3399","Correct":32,"Choice":32,"RT":350.6699999999255,"Accuracy":1,"Outcome":"-1","Keys":[1851.995000001043],"TotalKeys":1,"Block":2,"Trial":160,"Robot":3,"Valence":"Lose","Action":"Go","Sham":0,"Color":"yellow","trial_type":"pit-trial","trial_index":178,"time_elapsed":2181686,"internal_node_id":"0.0-167.0","task_version":"test-retest-t2"},{"Rune":"rune_04_wunjo","Hex":"#3366ff99","Correct":-1,"Choice":-1,"RT":-1,"Accuracy":1,"Outcome":"+10","Keys":[],"TotalKeys":0,"Block":2,"Trial":161,"Robot":2,"Valence":"Win","Action":"No-Go","Sham":0,"Color":"blue","trial_type":"pit-trial","trial_index":179,"time_elapsed":2185689,"internal_node_id":"0.0-168.0","task_version":"test-retest-t2"},{"Rune":"rune_04_ac","Hex":"#ffcc3399","Correct":-1,"Choice":-1,"RT":-1,"Accuracy":1,"Outcome":"-1","Keys":[],"TotalKeys":0,"Block":2,"Trial":162,"Robot":4,"Valence":"Lose","Action":"No-Go","Sham":0,"Color":"yellow","trial_type":"pit-trial","trial_index":180,"time_elapsed":2189691,"internal_node_id":"0.0-169.0","task_version":"test-retest-t2"},{"Rune":"rune_04_dagaz","Hex":"#ffcc3399","Correct":32,"Choice":32,"RT":301.6650000005029,"Accuracy":1,"Outcome":"-1","Keys":[1802.375000001397],"TotalKeys":1,"Block":2,"Trial":163,"Robot":3,"Valence":"Lose","Action":"Go","Sham":0,"Color":"yellow","trial_type":"pit-trial","trial_index":181,"time_elapsed":2192496,"internal_node_id":"0.0-170.0","task_version":"test-retest-t2"},{"Rune":"rune_04_iwaz","Hex":"#3366ff99","Correct":32,"Choice":32,"RT":292.55500000016764,"Accuracy":1,"Outcome":"+10","Keys":[1792.8549999995157],"TotalKeys":1,"Block":2,"Trial":164,"Robot":1,"Valence":"Win","Action":"Go","Sham":0,"Color":"blue","trial_type":"pit-trial","trial_index":182,"time_elapsed":2195291,"internal_node_id":"0.0-171.0","task_version":"test-retest-t2"},{"Rune":"rune_04_dagaz","Hex":"#ffcc3399","Correct":32,"Choice":32,"RT":421.875,"Accuracy":1,"Outcome":"-1","Keys":[1921.9200000003912],"TotalKeys":1,"Block":2,"Trial":165,"Robot":3,"Valence":"Lose","Action":"Go","Sham":0,"Color":"yellow","trial_type":"pit-trial","trial_index":183,"time_elapsed":2198215,"internal_node_id":"0.0-172.0","task_version":"test-retest-t2"},{"Rune":"rune_04_iwaz","Hex":"#3366ff99","Correct":32,"Choice":32,"RT":272.5000000009313,"Accuracy":1,"Outcome":"+10","Keys":[1772.8500000010245],"TotalKeys":1,"Block":2,"Trial":166,"Robot":1,"Valence":"Win","Action":"Go","Sham":0,"Color":"blue","trial_type":"pit-trial","trial_index":184,"time_elapsed":2200990,"internal_node_id":"0.0-173.0","task_version":"test-retest-t2"},{"Rune":"rune_04_wunjo","Hex":"#3366ff99","Correct":-1,"Choice":-1,"RT":-1,"Accuracy":1,"Outcome":"+1","Keys":[],"TotalKeys":0,"Block":2,"Trial":167,"Robot":2,"Valence":"Win","Action":"No-Go","Sham":1,"Color":"blue","trial_type":"pit-trial","trial_index":185,"time_elapsed":2204993,"internal_node_id":"0.0-174.0","task_version":"test-retest-t2"},{"Rune":"rune_04_ac","Hex":"#ffcc3399","Correct":-1,"Choice":-1,"RT":-1,"Accuracy":1,"Outcome":"-1","Keys":[],"TotalKeys":0,"Block":2,"Trial":168,"Robot":4,"Valence":"Lose","Action":"No-Go","Sham":0,"Color":"yellow","trial_type":"pit-trial","trial_index":186,"time_elapsed":2208997,"internal_node_id":"0.0-175.0","task_version":"test-retest-t2"},{"Rune":"rune_04_ac","Hex":"#ffcc3399","Correct":-1,"Choice":-1,"RT":-1,"Accuracy":1,"Outcome":"-1","Keys":[],"TotalKeys":0,"Block":2,"Trial":169,"Robot":4,"Valence":"Lose","Action":"No-Go","Sham":0,"Color":"yellow","trial_type":"pit-trial","trial_index":187,"time_elapsed":2213000,"internal_node_id":"0.0-176.0","task_version":"test-retest-t2"},{"Rune":"rune_04_iwaz","Hex":"#3366ff99","Correct":32,"Choice":32,"RT":366.909999998752,"Accuracy":1,"Outcome":"+1","Keys":[1867.6350000002421],"TotalKeys":1,"Block":2,"Trial":170,"Robot":1,"Valence":"Win","Action":"Go","Sham":1,"Color":"blue","trial_type":"pit-trial","trial_index":188,"time_elapsed":2215869,"internal_node_id":"0.0-177.0","task_version":"test-retest-t2"},{"Rune":"rune_04_dagaz","Hex":"#ffcc3399","Correct":32,"Choice":32,"RT":361.5000000009313,"Accuracy":1,"Outcome":"-1","Keys":[1862.0649999994785],"TotalKeys":1,"Block":2,"Trial":171,"Robot":3,"Valence":"Lose","Action":"Go","Sham":0,"Color":"yellow","trial_type":"pit-trial","trial_index":189,"time_elapsed":2218734,"internal_node_id":"0.0-178.0","task_version":"test-retest-t2"},{"Rune":"rune_04_wunjo","Hex":"#3366ff99","Correct":-1,"Choice":-1,"RT":-1,"Accuracy":1,"Outcome":"+10","Keys":[],"TotalKeys":0,"Block":2,"Trial":172,"Robot":2,"Valence":"Win","Action":"No-Go","Sham":0,"Color":"blue","trial_type":"pit-trial","trial_index":190,"time_elapsed":2222737,"internal_node_id":"0.0-179.0","task_version":"test-retest-t2"},{"Rune":"rune_04_ac","Hex":"#ffcc3399","Correct":-1,"Choice":-1,"RT":-1,"Accuracy":1,"Outcome":"-10","Keys":[],"TotalKeys":0,"Block":2,"Trial":173,"Robot":4,"Valence":"Lose","Action":"No-Go","Sham":1,"Color":"yellow","trial_type":"pit-trial","trial_index":191,"time_elapsed":2226741,"internal_node_id":"0.0-180.0","task_version":"test-retest-t2"},{"Rune":"rune_04_dagaz","Hex":"#ffcc3399","Correct":32,"Choice":32,"RT":343.5799999986775,"Accuracy":1,"Outcome":"-10","Keys":[1843.9599999999627],"TotalKeys":1,"Block":2,"Trial":174,"Robot":3,"Valence":"Lose","Action":"Go","Sham":1,"Color":"yellow","trial_type":"pit-trial","trial_index":192,"time_elapsed":2229586,"internal_node_id":"0.0-181.0","task_version":"test-retest-t2"},{"Rune":"rune_04_wunjo","Hex":"#3366ff99","Correct":-1,"Choice":-1,"RT":-1,"Accuracy":1,"Outcome":"+10","Keys":[],"TotalKeys":0,"Block":2,"Trial":175,"Robot":2,"Valence":"Win","Action":"No-Go","Sham":0,"Color":"blue","trial_type":"pit-trial","trial_index":193,"time_elapsed":2233589,"internal_node_id":"0.0-182.0","task_version":"test-retest-t2"},{"Rune":"rune_04_iwaz","Hex":"#3366ff99","Correct":32,"Choice":32,"RT":294.4000000008382,"Accuracy":1,"Outcome":"+10","Keys":[1795.0149999996647],"TotalKeys":1,"Block":2,"Trial":176,"Robot":1,"Valence":"Win","Action":"Go","Sham":0,"Color":"blue","trial_type":"pit-trial","trial_index":194,"time_elapsed":2236387,"internal_node_id":"0.0-183.0","task_version":"test-retest-t2"},{"Rune":"rune_04_dagaz","Hex":"#ffcc3399","Correct":32,"Choice":32,"RT":467.4400000004098,"Accuracy":1,"Outcome":"-1","Keys":[1968.2299999985844],"TotalKeys":1,"Block":2,"Trial":177,"Robot":3,"Valence":"Lose","Action":"Go","Sham":0,"Color":"yellow","trial_type":"pit-trial","trial_index":195,"time_elapsed":2239357,"internal_node_id":"0.0-184.0","task_version":"test-retest-t2"},{"Rune":"rune_04_ac","Hex":"#ffcc3399","Correct":-1,"Choice":-1,"RT":-1,"Accuracy":1,"Outcome":"-1","Keys":[],"TotalKeys":0,"Block":2,"Trial":178,"Robot":4,"Valence":"Lose","Action":"No-Go","Sham":0,"Color":"yellow","trial_type":"pit-trial","trial_index":196,"time_elapsed":2243359,"internal_node_id":"0.0-185.0","task_version":"test-retest-t2"},{"Rune":"rune_04_wunjo","Hex":"#3366ff99","Correct":-1,"Choice":-1,"RT":-1,"Accuracy":1,"Outcome":"+10","Keys":[],"TotalKeys":0,"Block":2,"Trial":179,"Robot":2,"Valence":"Win","Action":"No-Go","Sham":0,"Color":"blue","trial_type":"pit-trial","trial_index":197,"time_elapsed":2247362,"internal_node_id":"0.0-186.0","task_version":"test-retest-t2"},{"Rune":"rune_04_iwaz","Hex":"#3366ff99","Correct":32,"Choice":32,"RT":252.4800000009127,"Accuracy":1,"Outcome":"+10","Keys":[1753.9550000000745],"TotalKeys":1,"Block":2,"Trial":180,"Robot":1,"Valence":"Win","Action":"Go","Sham":0,"Color":"blue","trial_type":"pit-trial","trial_index":198,"time_elapsed":2250118,"internal_node_id":"0.0-187.0","task_version":"test-retest-t2"},{"view_history":"[{\"page_index\":0,\"viewing_time\":2609.739999999758},{\"page_index\":1,\"viewing_time\":1701.944999998901}]","rt":4311.93499999959,"trial_type":"pit-instructions","trial_index":199,"time_elapsed":2254431,"internal_node_id":"0.0-188.0","task_version":"test-retest-t2"},{"Rune":"rune_04_dagaz","Hex":"#ffcc3399","Correct":32,"Choice":32,"RT":238.7200000011362,"Accuracy":1,"Outcome":"-1","Keys":[1739.325000000652],"TotalKeys":1,"Block":2,"Trial":181,"Robot":3,"Valence":"Lose","Action":"Go","Sham":0,"Color":"yellow","trial_type":"pit-trial","trial_index":200,"time_elapsed":2257173,"internal_node_id":"0.0-189.0","task_version":"test-retest-t2"},{"Rune":"rune_04_ac","Hex":"#ffcc3399","Correct":-1,"Choice":-1,"RT":-1,"Accuracy":1,"Outcome":"-1","Keys":[],"TotalKeys":0,"Block":2,"Trial":182,"Robot":4,"Valence":"Lose","Action":"No-Go","Sham":0,"Color":"yellow","trial_type":"pit-trial","trial_index":201,"time_elapsed":2261176,"internal_node_id":"0.0-190.0","task_version":"test-retest-t2"},{"Rune":"rune_04_wunjo","Hex":"#3366ff99","Correct":-1,"Choice":-1,"RT":-1,"Accuracy":1,"Outcome":"+10","Keys":[],"TotalKeys":0,"Block":2,"Trial":183,"Robot":2,"Valence":"Win","Action":"No-Go","Sham":0,"Color":"blue","trial_type":"pit-trial","trial_index":202,"time_elapsed":2265179,"internal_node_id":"0.0-191.0","task_version":"test-retest-t2"},{"Rune":"rune_04_iwaz","Hex":"#3366ff99","Correct":32,"Choice":32,"RT":294.9250000002794,"Accuracy":1,"Outcome":"+10","Keys":[1796.4749999991618],"TotalKeys":1,"Block":2,"Trial":184,"Robot":1,"Valence":"Win","Action":"Go","Sham":0,"Color":"blue","trial_type":"pit-trial","trial_index":203,"time_elapsed":2267979,"internal_node_id":"0.0-192.0","task_version":"test-retest-t2"},{"Rune":"rune_04_wunjo","Hex":"#3366ff99","Correct":-1,"Choice":-1,"RT":-1,"Accuracy":1,"Outcome":"+10","Keys":[],"TotalKeys":0,"Block":2,"Trial":185,"Robot":2,"Valence":"Win","Action":"No-Go","Sham":0,"Color":"blue","trial_type":"pit-trial","trial_index":204,"time_elapsed":2271982,"internal_node_id":"0.0-193.0","task_version":"test-retest-t2"},{"Rune":"rune_04_ac","Hex":"#ffcc3399","Correct":-1,"Choice":-1,"RT":-1,"Accuracy":1,"Outcome":"-1","Keys":[],"TotalKeys":0,"Block":2,"Trial":186,"Robot":4,"Valence":"Lose","Action":"No-Go","Sham":0,"Color":"yellow","trial_type":"pit-trial","trial_index":205,"time_elapsed":2275986,"internal_node_id":"0.0-194.0","task_version":"test-retest-t2"},{"Rune":"rune_04_dagaz","Hex":"#ffcc3399","Correct":32,"Choice":32,"RT":407.12000000011176,"Accuracy":1,"Outcome":"-1","Keys":[1907.5200000004843],"TotalKeys":1,"Block":2,"Trial":187,"Robot":3,"Valence":"Lose","Action":"Go","Sham":0,"Color":"yellow","trial_type":"pit-trial","trial_index":206,"time_elapsed":2278896,"internal_node_id":"0.0-195.0","task_version":"test-retest-t2"},{"Rune":"rune_04_iwaz","Hex":"#3366ff99","Correct":32,"Choice":32,"RT":308.089999998454,"Accuracy":1,"Outcome":"+10","Keys":[1808.769999999553],"TotalKeys":1,"Block":2,"Trial":188,"Robot":1,"Valence":"Win","Action":"Go","Sham":0,"Color":"blue","trial_type":"pit-trial","trial_index":207,"time_elapsed":2281707,"internal_node_id":"0.0-196.0","task_version":"test-retest-t2"},{"Rune":"rune_04_iwaz","Hex":"#3366ff99","Correct":32,"Choice":32,"RT":312.4150000005029,"Accuracy":1,"Outcome":"+10","Keys":[1813.0600000005215],"TotalKeys":1,"Block":2,"Trial":189,"Robot":1,"Valence":"Win","Action":"Go","Sham":0,"Color":"blue","trial_type":"pit-trial","trial_index":208,"time_elapsed":2284522,"internal_node_id":"0.0-197.0","task_version":"test-retest-t2"},{"Rune":"rune_04_ac","Hex":"#ffcc3399","Correct":-1,"Choice":-1,"RT":-1,"Accuracy":1,"Outcome":"-1","Keys":[],"TotalKeys":0,"Block":2,"Trial":190,"Robot":4,"Valence":"Lose","Action":"No-Go","Sham":0,"Color":"yellow","trial_type":"pit-trial","trial_index":209,"time_elapsed":2288524,"internal_node_id":"0.0-198.0","task_version":"test-retest-t2"},{"Rune":"rune_04_wunjo","Hex":"#3366ff99","Correct":-1,"Choice":-1,"RT":-1,"Accuracy":1,"Outcome":"+1","Keys":[],"TotalKeys":0,"Block":2,"Trial":191,"Robot":2,"Valence":"Win","Action":"No-Go","Sham":1,"Color":"blue","trial_type":"pit-trial","trial_index":210,"time_elapsed":2292527,"internal_node_id":"0.0-199.0","task_version":"test-retest-t2"},{"Rune":"rune_04_dagaz","Hex":"#ffcc3399","Correct":32,"Choice":32,"RT":273.28999999910593,"Accuracy":1,"Outcome":"-10","Keys":[1774.2200000011362],"TotalKeys":1,"Block":2,"Trial":192,"Robot":3,"Valence":"Lose","Action":"Go","Sham":1,"Color":"yellow","trial_type":"pit-trial","trial_index":211,"time_elapsed":2295304,"internal_node_id":"0.0-200.0","task_version":"test-retest-t2"},{"Rune":"rune_04_ac","Hex":"#ffcc3399","Correct":-1,"Choice":-1,"RT":-1,"Accuracy":1,"Outcome":"-10","Keys":[],"TotalKeys":0,"Block":2,"Trial":193,"Robot":4,"Valence":"Lose","Action":"No-Go","Sham":1,"Color":"yellow","trial_type":"pit-trial","trial_index":212,"time_elapsed":2299307,"internal_node_id":"0.0-201.0","task_version":"test-retest-t2"},{"Rune":"rune_04_iwaz","Hex":"#3366ff99","Correct":32,"Choice":32,"RT":344.43500000052154,"Accuracy":1,"Outcome":"+1","Keys":[1845.410000000149],"TotalKeys":1,"Block":2,"Trial":194,"Robot":1,"Valence":"Win","Action":"Go","Sham":1,"Color":"blue","trial_type":"pit-trial","trial_index":213,"time_elapsed":2302155,"internal_node_id":"0.0-202.0","task_version":"test-retest-t2"},{"Rune":"rune_04_dagaz","Hex":"#ffcc3399","Correct":32,"Choice":32,"RT":631.2100000013597,"Accuracy":1,"Outcome":"-1","Keys":[2131.560000000056],"TotalKeys":1,"Block":2,"Trial":195,"Robot":3,"Valence":"Lose","Action":"Go","Sham":0,"Color":"yellow","trial_type":"pit-trial","trial_index":214,"time_elapsed":2305289,"internal_node_id":"0.0-203.0","task_version":"test-retest-t2"},{"Rune":"rune_04_wunjo","Hex":"#3366ff99","Correct":-1,"Choice":-1,"RT":-1,"Accuracy":1,"Outcome":"+10","Keys":[],"TotalKeys":0,"Block":2,"Trial":196,"Robot":2,"Valence":"Win","Action":"No-Go","Sham":0,"Color":"blue","trial_type":"pit-trial","trial_index":215,"time_elapsed":2309292,"internal_node_id":"0.0-204.0","task_version":"test-retest-t2"},{"Rune":"rune_04_ac","Hex":"#ffcc3399","Correct":-1,"Choice":-1,"RT":-1,"Accuracy":1,"Outcome":"-1","Keys":[],"TotalKeys":0,"Block":2,"Trial":197,"Robot":4,"Valence":"Lose","Action":"No-Go","Sham":0,"Color":"yellow","trial_type":"pit-trial","trial_index":216,"time_elapsed":2313296,"internal_node_id":"0.0-205.0","task_version":"test-retest-t2"},{"Rune":"rune_04_dagaz","Hex":"#ffcc3399","Correct":32,"Choice":32,"RT":391.98000000044703,"Accuracy":1,"Outcome":"-1","Keys":[1892.7750000003725],"TotalKeys":1,"Block":2,"Trial":198,"Robot":3,"Valence":"Lose","Action":"Go","Sham":0,"Color":"yellow","trial_type":"pit-trial","trial_index":217,"time_elapsed":2316191,"internal_node_id":"0.0-206.0","task_version":"test-retest-t2"},{"Rune":"rune_04_iwaz","Hex":"#3366ff99","Correct":32,"Choice":32,"RT":212.20000000018626,"Accuracy":1,"Outcome":"+10","Keys":[1712.4150000000373],"TotalKeys":1,"Block":2,"Trial":199,"Robot":1,"Valence":"Win","Action":"Go","Sham":0,"Color":"blue","trial_type":"pit-trial","trial_index":218,"time_elapsed":2318907,"internal_node_id":"0.0-207.0","task_version":"test-retest-t2"},{"Rune":"rune_04_wunjo","Hex":"#3366ff99","Correct":-1,"Choice":-1,"RT":-1,"Accuracy":1,"Outcome":"+10","Keys":[],"TotalKeys":0,"Block":2,"Trial":200,"Robot":2,"Valence":"Win","Action":"No-Go","Sham":0,"Color":"blue","trial_type":"pit-trial","trial_index":219,"time_elapsed":2322910,"internal_node_id":"0.0-208.0","task_version":"test-retest-t2"},{"Rune":"rune_04_iwaz","Hex":"#3366ff99","Correct":32,"Choice":32,"RT":295.8600000003353,"Accuracy":1,"Outcome":"+10","Keys":[1796.4550000014715],"TotalKeys":1,"Block":2,"Trial":201,"Robot":1,"Valence":"Win","Action":"Go","Sham":0,"Color":"blue","trial_type":"pit-trial","trial_index":220,"time_elapsed":2325709,"internal_node_id":"0.0-209.0","task_version":"test-retest-t2"},{"Rune":"rune_04_ac","Hex":"#ffcc3399","Correct":-1,"Choice":-1,"RT":-1,"Accuracy":1,"Outcome":"-1","Keys":[],"TotalKeys":0,"Block":2,"Trial":202,"Robot":4,"Valence":"Lose","Action":"No-Go","Sham":0,"Color":"yellow","trial_type":"pit-trial","trial_index":221,"time_elapsed":2329711,"internal_node_id":"0.0-210.0","task_version":"test-retest-t2"},{"Rune":"rune_04_dagaz","Hex":"#ffcc3399","Correct":32,"Choice":32,"RT":372.06500000180677,"Accuracy":1,"Outcome":"-1","Keys":[1873.0049999994226],"TotalKeys":1,"Block":2,"Trial":203,"Robot":3,"Valence":"Lose","Action":"Go","Sham":0,"Color":"yellow","trial_type":"pit-trial","trial_index":222,"time_elapsed":2332587,"internal_node_id":"0.0-211.0","task_version":"test-retest-t2"},{"Rune":"rune_04_wunjo","Hex":"#3366ff99","Correct":-1,"Choice":-1,"RT":-1,"Accuracy":1,"Outcome":"+10","Keys":[],"TotalKeys":0,"Block":2,"Trial":204,"Robot":2,"Valence":"Win","Action":"No-Go","Sham":0,"Color":"blue","trial_type":"pit-trial","trial_index":223,"time_elapsed":2336589,"internal_node_id":"0.0-212.0","task_version":"test-retest-t2"},{"Rune":"rune_04_wunjo","Hex":"#3366ff99","Correct":-1,"Choice":-1,"RT":-1,"Accuracy":1,"Outcome":"+10","Keys":[],"TotalKeys":0,"Block":2,"Trial":205,"Robot":2,"Valence":"Win","Action":"No-Go","Sham":0,"Color":"blue","trial_type":"pit-trial","trial_index":224,"time_elapsed":2340592,"internal_node_id":"0.0-213.0","task_version":"test-retest-t2"},{"Rune":"rune_04_ac","Hex":"#ffcc3399","Correct":-1,"Choice":-1,"RT":-1,"Accuracy":1,"Outcome":"-1","Keys":[],"TotalKeys":0,"Block":2,"Trial":206,"Robot":4,"Valence":"Lose","Action":"No-Go","Sham":0,"Color":"yellow","trial_type":"pit-trial","trial_index":225,"time_elapsed":2344595,"internal_node_id":"0.0-214.0","task_version":"test-retest-t2"},{"Rune":"rune_04_dagaz","Hex":"#ffcc3399","Correct":32,"Choice":32,"RT":328.84999999962747,"Accuracy":1,"Outcome":"-1","Keys":[1829.624999998603],"TotalKeys":1,"Block":2,"Trial":207,"Robot":3,"Valence":"Lose","Action":"Go","Sham":0,"Color":"yellow","trial_type":"pit-trial","trial_index":226,"time_elapsed":2347427,"internal_node_id":"0.0-215.0","task_version":"test-retest-t2"},{"Rune":"rune_04_iwaz","Hex":"#3366ff99","Correct":32,"Choice":32,"RT":297.64499999862164,"Accuracy":1,"Outcome":"+10","Keys":[1797.8700000001118],"TotalKeys":1,"Block":2,"Trial":208,"Robot":1,"Valence":"Win","Action":"Go","Sham":0,"Color":"blue","trial_type":"pit-trial","trial_index":227,"time_elapsed":2350227,"internal_node_id":"0.0-216.0","task_version":"test-retest-t2"},{"Rune":"rune_04_ac","Hex":"#ffcc3399","Correct":-1,"Choice":-1,"RT":-1,"Accuracy":1,"Outcome":"-1","Keys":[],"TotalKeys":0,"Block":2,"Trial":209,"Robot":4,"Valence":"Lose","Action":"No-Go","Sham":0,"Color":"yellow","trial_type":"pit-trial","trial_index":228,"time_elapsed":2354230,"internal_node_id":"0.0-217.0","task_version":"test-retest-t2"},{"Rune":"rune_04_iwaz","Hex":"#3366ff99","Correct":32,"Choice":32,"RT":300.1850000000559,"Accuracy":1,"Outcome":"+10","Keys":[1801.1949999998324],"TotalKeys":1,"Block":2,"Trial":210,"Robot":1,"Valence":"Win","Action":"Go","Sham":0,"Color":"blue","trial_type":"pit-trial","trial_index":229,"time_elapsed":2357034,"internal_node_id":"0.0-218.0","task_version":"test-retest-t2"},{"Rune":"rune_04_wunjo","Hex":"#3366ff99","Correct":-1,"Choice":-1,"RT":-1,"Accuracy":1,"Outcome":"+1","Keys":[],"TotalKeys":0,"Block":2,"Trial":211,"Robot":2,"Valence":"Win","Action":"No-Go","Sham":1,"Color":"blue","trial_type":"pit-trial","trial_index":230,"time_elapsed":2361036,"internal_node_id":"0.0-219.0","task_version":"test-retest-t2"},{"Rune":"rune_04_dagaz","Hex":"#ffcc3399","Correct":32,"Choice":32,"RT":468.95500000054017,"Accuracy":1,"Outcome":"-10","Keys":[1969.5300000002608],"TotalKeys":1,"Block":2,"Trial":212,"Robot":3,"Valence":"Lose","Action":"Go","Sham":1,"Color":"yellow","trial_type":"pit-trial","trial_index":231,"time_elapsed":2364008,"internal_node_id":"0.0-220.0","task_version":"test-retest-t2"},{"Rune":"rune_04_wunjo","Hex":"#3366ff99","Correct":-1,"Choice":-1,"RT":-1,"Accuracy":1,"Outcome":"+10","Keys":[],"TotalKeys":0,"Block":2,"Trial":213,"Robot":2,"Valence":"Win","Action":"No-Go","Sham":0,"Color":"blue","trial_type":"pit-trial","trial_index":232,"time_elapsed":2368011,"internal_node_id":"0.0-221.0","task_version":"test-retest-t2"},{"Rune":"rune_04_dagaz","Hex":"#ffcc3399","Correct":32,"Choice":32,"RT":428.3599999998696,"Accuracy":1,"Outcome":"-1","Keys":[1929.0250000013039],"TotalKeys":1,"Block":2,"Trial":214,"Robot":3,"Valence":"Lose","Action":"Go","Sham":0,"Color":"yellow","trial_type":"pit-trial","trial_index":233,"time_elapsed":2370941,"internal_node_id":"0.0-222.0","task_version":"test-retest-t2"},{"Rune":"rune_04_iwaz","Hex":"#3366ff99","Correct":32,"Choice":32,"RT":289.1650000005029,"Accuracy":1,"Outcome":"+10","Keys":[1789.5250000003725],"TotalKeys":1,"Block":2,"Trial":215,"Robot":1,"Valence":"Win","Action":"Go","Sham":0,"Color":"blue","trial_type":"pit-trial","trial_index":234,"time_elapsed":2373733,"internal_node_id":"0.0-223.0","task_version":"test-retest-t2"},{"Rune":"rune_04_ac","Hex":"#ffcc3399","Correct":-1,"Choice":-1,"RT":-1,"Accuracy":1,"Outcome":"-1","Keys":[],"TotalKeys":0,"Block":2,"Trial":216,"Robot":4,"Valence":"Lose","Action":"No-Go","Sham":0,"Color":"yellow","trial_type":"pit-trial","trial_index":235,"time_elapsed":2377736,"internal_node_id":"0.0-224.0","task_version":"test-retest-t2"},{"Rune":"rune_04_wunjo","Hex":"#3366ff99","Correct":-1,"Choice":-1,"RT":-1,"Accuracy":1,"Outcome":"+10","Keys":[],"TotalKeys":0,"Block":2,"Trial":217,"Robot":2,"Valence":"Win","Action":"No-Go","Sham":0,"Color":"blue","trial_type":"pit-trial","trial_index":236,"time_elapsed":2381740,"internal_node_id":"0.0-225.0","task_version":"test-retest-t2"},{"Rune":"rune_04_ac","Hex":"#ffcc3399","Correct":-1,"Choice":-1,"RT":-1,"Accuracy":1,"Outcome":"-10","Keys":[],"TotalKeys":0,"Block":2,"Trial":218,"Robot":4,"Valence":"Lose","Action":"No-Go","Sham":1,"Color":"yellow","trial_type":"pit-trial","trial_index":237,"time_elapsed":2385742,"internal_node_id":"0.0-226.0","task_version":"test-retest-t2"},{"Rune":"rune_04_dagaz","Hex":"#ffcc3399","Correct":32,"Choice":32,"RT":336.4199999999255,"Accuracy":1,"Outcome":"-1","Keys":[1837.7099999999627],"TotalKeys":1,"Block":2,"Trial":219,"Robot":3,"Valence":"Lose","Action":"Go","Sham":0,"Color":"yellow","trial_type":"pit-trial","trial_index":238,"time_elapsed":2388582,"internal_node_id":"0.0-227.0","task_version":"test-retest-t2"},{"Rune":"rune_04_iwaz","Hex":"#3366ff99","Correct":32,"Choice":32,"RT":311.94999999925494,"Accuracy":1,"Outcome":"+1","Keys":[1812.3600000003353],"TotalKeys":1,"Block":2,"Trial":220,"Robot":1,"Valence":"Win","Action":"Go","Sham":1,"Color":"blue","trial_type":"pit-trial","trial_index":239,"time_elapsed":2391397,"internal_node_id":"0.0-228.0","task_version":"test-retest-t2"},{"Rune":"rune_04_iwaz","Hex":"#3366ff99","Correct":32,"Choice":32,"RT":284.125,"Accuracy":1,"Outcome":"+10","Keys":[1785.3649999997579],"TotalKeys":1,"Block":2,"Trial":221,"Robot":1,"Valence":"Win","Action":"Go","Sham":0,"Color":"blue","trial_type":"pit-trial","trial_index":240,"time_elapsed":2394185,"internal_node_id":"0.0-229.0","task_version":"test-retest-t2"},{"Rune":"rune_04_dagaz","Hex":"#ffcc3399","Correct":32,"Choice":32,"RT":371.69499999983236,"Accuracy":1,"Outcome":"-1","Keys":[1872.6650000009686],"TotalKeys":1,"Block":2,"Trial":222,"Robot":3,"Valence":"Lose","Action":"Go","Sham":0,"Color":"yellow","trial_type":"pit-trial","trial_index":241,"time_elapsed":2397060,"internal_node_id":"0.0-230.0","task_version":"test-retest-t2"},{"Rune":"rune_04_ac","Hex":"#ffcc3399","Correct":-1,"Choice":-1,"RT":-1,"Accuracy":1,"Outcome":"-1","Keys":[],"TotalKeys":0,"Block":2,"Trial":223,"Robot":4,"Valence":"Lose","Action":"No-Go","Sham":0,"Color":"yellow","trial_type":"pit-trial","trial_index":242,"time_elapsed":2401061,"internal_node_id":"0.0-231.0","task_version":"test-retest-t2"},{"Rune":"rune_04_wunjo","Hex":"#3366ff99","Correct":-1,"Choice":-1,"RT":-1,"Accuracy":1,"Outcome":"+1","Keys":[],"TotalKeys":0,"Block":2,"Trial":224,"Robot":2,"Valence":"Win","Action":"No-Go","Sham":1,"Color":"blue","trial_type":"pit-trial","trial_index":243,"time_elapsed":2405063,"internal_node_id":"0.0-232.0","task_version":"test-retest-t2"},{"Rune":"rune_04_dagaz","Hex":"#ffcc3399","Correct":32,"Choice":32,"RT":311.42499999981374,"Accuracy":1,"Outcome":"-1","Keys":[1811.664999999106],"TotalKeys":1,"Block":2,"Trial":225,"Robot":3,"Valence":"Lose","Action":"Go","Sham":0,"Color":"yellow","trial_type":"pit-trial","trial_index":244,"time_elapsed":2407877,"internal_node_id":"0.0-233.0","task_version":"test-retest-t2"},{"Rune":"rune_04_wunjo","Hex":"#3366ff99","Correct":-1,"Choice":-1,"RT":-1,"Accuracy":1,"Outcome":"+10","Keys":[],"TotalKeys":0,"Block":2,"Trial":226,"Robot":2,"Valence":"Win","Action":"No-Go","Sham":0,"Color":"blue","trial_type":"pit-trial","trial_index":245,"time_elapsed":2411881,"internal_node_id":"0.0-234.0","task_version":"test-retest-t2"},{"Rune":"rune_04_ac","Hex":"#ffcc3399","Correct":-1,"Choice":-1,"RT":-1,"Accuracy":1,"Outcome":"-1","Keys":[],"TotalKeys":0,"Block":2,"Trial":227,"Robot":4,"Valence":"Lose","Action":"No-Go","Sham":0,"Color":"yellow","trial_type":"pit-trial","trial_index":246,"time_elapsed":2415884,"internal_node_id":"0.0-235.0","task_version":"test-retest-t2"},{"Rune":"rune_04_iwaz","Hex":"#3366ff99","Correct":32,"Choice":32,"RT":296.09499999973923,"Accuracy":1,"Outcome":"+10","Keys":[1796.959999999497],"TotalKeys":1,"Block":2,"Trial":228,"Robot":1,"Valence":"Win","Action":"Go","Sham":0,"Color":"blue","trial_type":"pit-trial","trial_index":247,"time_elapsed":2418683,"internal_node_id":"0.0-236.0","task_version":"test-retest-t2"},{"Rune":"rune_04_iwaz","Hex":"#3366ff99","Correct":32,"Choice":32,"RT":256.12000000011176,"Accuracy":1,"Outcome":"+1","Keys":[1756.9349999991246],"TotalKeys":1,"Block":2,"Trial":229,"Robot":1,"Valence":"Win","Action":"Go","Sham":1,"Color":"blue","trial_type":"pit-trial","trial_index":248,"time_elapsed":2421441,"internal_node_id":"0.0-237.0","task_version":"test-retest-t2"},{"Rune":"rune_04_wunjo","Hex":"#3366ff99","Correct":-1,"Choice":-1,"RT":-1,"Accuracy":1,"Outcome":"+10","Keys":[],"TotalKeys":0,"Block":2,"Trial":230,"Robot":2,"Valence":"Win","Action":"No-Go","Sham":0,"Color":"blue","trial_type":"pit-trial","trial_index":249,"time_elapsed":2425445,"internal_node_id":"0.0-238.0","task_version":"test-retest-t2"},{"Rune":"rune_04_ac","Hex":"#ffcc3399","Correct":-1,"Choice":-1,"RT":-1,"Accuracy":1,"Outcome":"-1","Keys":[],"TotalKeys":0,"Block":2,"Trial":231,"Robot":4,"Valence":"Lose","Action":"No-Go","Sham":0,"Color":"yellow","trial_type":"pit-trial","trial_index":250,"time_elapsed":2429448,"internal_node_id":"0.0-239.0","task_version":"test-retest-t2"},{"Rune":"rune_04_dagaz","Hex":"#ffcc3399","Correct":32,"Choice":32,"RT":305.5600000009872,"Accuracy":1,"Outcome":"-10","Keys":[1805.7349999998696],"TotalKeys":1,"Block":2,"Trial":232,"Robot":3,"Valence":"Lose","Action":"Go","Sham":1,"Color":"yellow","trial_type":"pit-trial","trial_index":251,"time_elapsed":2432257,"internal_node_id":"0.0-240.0","task_version":"test-retest-t2"},{"Rune":"rune_04_dagaz","Hex":"#ffcc3399","Correct":32,"Choice":32,"RT":466.89499999955297,"Accuracy":1,"Outcome":"-1","Keys":[1968.0599999991246],"TotalKeys":1,"Block":2,"Trial":233,"Robot":3,"Valence":"Lose","Action":"Go","Sham":0,"Color":"yellow","trial_type":"pit-trial","trial_index":252,"time_elapsed":2435226,"internal_node_id":"0.0-241.0","task_version":"test-retest-t2"},{"Rune":"rune_04_iwaz","Hex":"#3366ff99","Correct":32,"Choice":32,"RT":273.1699999985285,"Accuracy":1,"Outcome":"+10","Keys":[1773.2249999991618],"TotalKeys":1,"Block":2,"Trial":234,"Robot":1,"Valence":"Win","Action":"Go","Sham":0,"Color":"blue","trial_type":"pit-trial","trial_index":253,"time_elapsed":2438003,"internal_node_id":"0.0-242.0","task_version":"test-retest-t2"},{"Rune":"rune_04_ac","Hex":"#ffcc3399","Correct":-1,"Choice":-1,"RT":-1,"Accuracy":1,"Outcome":"-1","Keys":[],"TotalKeys":0,"Block":2,"Trial":235,"Robot":4,"Valence":"Lose","Action":"No-Go","Sham":0,"Color":"yellow","trial_type":"pit-trial","trial_index":254,"time_elapsed":2442006,"internal_node_id":"0.0-243.0","task_version":"test-retest-t2"},{"Rune":"rune_04_wunjo","Hex":"#3366ff99","Correct":-1,"Choice":-1,"RT":-1,"Accuracy":1,"Outcome":"+10","Keys":[],"TotalKeys":0,"Block":2,"Trial":236,"Robot":2,"Valence":"Win","Action":"No-Go","Sham":0,"Color":"blue","trial_type":"pit-trial","trial_index":255,"time_elapsed":2446009,"internal_node_id":"0.0-244.0","task_version":"test-retest-t2"},{"Rune":"rune_04_iwaz","Hex":"#3366ff99","Correct":32,"Choice":32,"RT":280.0399999995716,"Accuracy":1,"Outcome":"+10","Keys":[1780.5450000013225],"TotalKeys":1,"Block":2,"Trial":237,"Robot":1,"Valence":"Win","Action":"Go","Sham":0,"Color":"blue","trial_type":"pit-trial","trial_index":256,"time_elapsed":2448791,"internal_node_id":"0.0-245.0","task_version":"test-retest-t2"},{"Rune":"rune_04_dagaz","Hex":"#ffcc3399","Correct":32,"Choice":32,"RT":368.61499999975786,"Accuracy":1,"Outcome":"-1","Keys":[1869.3149999999441],"TotalKeys":1,"Block":2,"Trial":238,"Robot":3,"Valence":"Lose","Action":"Go","Sham":0,"Color":"yellow","trial_type":"pit-trial","trial_index":257,"time_elapsed":2451663,"internal_node_id":"0.0-246.0","task_version":"test-retest-t2"},{"Rune":"rune_04_ac","Hex":"#ffcc3399","Correct":-1,"Choice":-1,"RT":-1,"Accuracy":1,"Outcome":"-10","Keys":[],"TotalKeys":0,"Block":2,"Trial":239,"Robot":4,"Valence":"Lose","Action":"No-Go","Sham":1,"Color":"yellow","trial_type":"pit-trial","trial_index":258,"time_elapsed":2455665,"internal_node_id":"0.0-247.0","task_version":"test-retest-t2"},{"Rune":"rune_04_wunjo","Hex":"#3366ff99","Correct":-1,"Choice":-1,"RT":-1,"Accuracy":1,"Outcome":"+10","Keys":[],"TotalKeys":0,"Block":2,"Trial":240,"Robot":2,"Valence":"Win","Action":"No-Go","Sham":0,"Color":"blue","trial_type":"pit-trial","trial_index":259,"time_elapsed":2459667,"internal_node_id":"0.0-248.0","task_version":"test-retest-t2"},{"view_history":"[{\"page_index\":0,\"viewing_time\":1459.230000000447}]","rt":1459.529999999795,"trial_type":"pit-instructions","trial_index":260,"time_elapsed":2461128,"internal_node_id":"0.0-249.0","task_version":"test-retest-t2"},{"rt":21026.845000000205,"responses":{"difficulty":"4","fun":"3","clarity":"5","strategy":"No strategies. Just paying attention.","feedback":"no comments"},"survey":"debrief","trial_type":"survey-debrief","trial_index":261,"time_elapsed":2482156,"internal_node_id":"0.0-250.0","task_version":"test-retest-t2"},{"rt":4627.495000001043,"stimulus":"You earned a bonus of $1.47 out of $1.5.<br><br>Press any key to complete the experiment.","key_press":32,"trial_type":"html-keyboard-response","trial_index":262,"time_elapsed":2486786,"internal_node_id":"0.0-251.0","task_version":"test-retest-t2","accuracy":0.9791666666666666,"bonus":1.47,"interactions":"[{\"event\":\"blur\",\"trial\":77,\"time\":1828708},{\"event\":\"focus\",\"trial\":77,\"time\":1830700},{\"event\":\"blur\",\"trial\":261,\"time\":2461892},{\"event\":\"focus\",\"trial\":261,\"time\":2463024}]"}]