[{"slider_type":"valence","raw_loc":649,"loc":0.798,"trial_type":"affective-slider","trial_index":0,"time_elapsed":3756,"internal_node_id":"0.0-0.0","task_version":"test-retest-t2"},{"responses":{"Q08":"0","Q06":"0","Q07":"0","Q03":"0","Q05":"0","Q04":"0","Q01":"0","Q02":"0"},"rt":14435.579999990296,"survey":"gad7","trial_type":"survey-template","trial_index":1,"time_elapsed":18195,"internal_node_id":"0.0-1.0","task_version":"test-retest-t2"},{"view_history":"[{\"page_index\":0,\"viewing_time\":3769.0549999824725},{\"page_index\":1,\"viewing_time\":1718.7149999663234},{\"page_index\":2,\"viewing_time\":2522.940000053495},{\"page_index\":3,\"viewing_time\":3455.459999968298},{\"page_index\":4,\"viewing_time\":8371.640000026673},{\"page_index\":5,\"viewing_time\":3388.2949999533594}]","rt":23226.87999997288,"trial_type":"pit-instructions","trial_index":2,"time_elapsed":41425,"internal_node_id":"0.0-2.0-0.0","task_version":"test-retest-t2"},{"Rune":"rune_00_ingz","Hex":"#FFFFF080","Correct":32,"Choice":32,"RT":235.58999999659136,"Accuracy":1,"Outcome":"+10","Keys":[1735.6700000236742],"TotalKeys":1,"Block":0,"Action":"Go","trial_type":"pit-trial","trial_index":3,"time_elapsed":44164,"internal_node_id":"0.0-2.0-1.0-0.0","task_version":"test-retest-t2"},{"Rune":"rune_00_ingz","Hex":"#FFFFF080","Correct":32,"Choice":32,"RT":353.5299999639392,"Accuracy":1,"Outcome":"+10","Keys":[1853.6450000246987],"TotalKeys":1,"Block":0,"Action":"Go","trial_type":"pit-trial","trial_index":4,"time_elapsed":47020,"internal_node_id":"0.0-2.0-1.0-0.1","task_version":"test-retest-t2"},{"Rune":"rune_00_ingz","Hex":"#FFFFF080","Correct":32,"Choice":32,"RT":393.1899999734014,"Accuracy":1,"Outcome":"+10","Keys":[1893.5199999832548],"TotalKeys":1,"Block":0,"Action":"Go","trial_type":"pit-trial","trial_index":5,"time_elapsed":49916,"internal_node_id":"0.0-2.0-1.0-0.2","task_version":"test-retest-t2"},{"Rune":"rune_00_ingz","Hex":"#FFFFF080","Correct":32,"Choice":32,"RT":520.795000018552,"Accuracy":1,"Outcome":"+10","Keys":[2020.9150000009686],"TotalKeys":1,"Block":0,"Action":"Go","trial_type":"pit-trial","trial_index":6,"time_elapsed":52939,"internal_node_id":"0.0-2.0-1.0-0.3","task_version":"test-retest-t2"},{"view_history":"[{\"page_index\":0,\"viewing_time\":2392.459999944549}]","rt":2392.7699999767356,"trial_type":"pit-instructions","trial_index":7,"time_elapsed":55333,"internal_node_id":"0.0-2.0-2.0","task_version":"test-retest-t2"},{"Rune":"rune_00_isaz","Hex":"#FFFFF080","Correct":-1,"Choice":-1,"RT":-1,"Accuracy":1,"Outcome":"+10","Keys":[],"TotalKeys":0,"Block":0,"Action":"No-Go","trial_type":"pit-trial","trial_index":8,"time_elapsed":59335,"internal_node_id":"0.0-2.0-3.0-0.0","task_version":"test-retest-t2"},{"Rune":"rune_00_isaz","Hex":"#FFFFF080","Correct":-1,"Choice":-1,"RT":-1,"Accuracy":1,"Outcome":"+10","Keys":[],"TotalKeys":0,"Block":0,"Action":"No-Go","trial_type":"pit-trial","trial_index":9,"time_elapsed":63339,"internal_node_id":"0.0-2.0-3.0-0.1","task_version":"test-retest-t2"},{"Rune":"rune_00_isaz","Hex":"#FFFFF080","Correct":-1,"Choice":-1,"RT":-1,"Accuracy":1,"Outcome":"+10","Keys":[],"TotalKeys":0,"Block":0,"Action":"No-Go","trial_type":"pit-trial","trial_index":10,"time_elapsed":67342,"internal_node_id":"0.0-2.0-3.0-0.2","task_version":"test-retest-t2"},{"Rune":"rune_00_isaz","Hex":"#FFFFF080","Correct":-1,"Choice":-1,"RT":-1,"Accuracy":1,"Outcome":"+10","Keys":[],"TotalKeys":0,"Block":0,"Action":"No-Go","trial_type":"pit-trial","trial_index":11,"time_elapsed":71345,"internal_node_id":"0.0-2.0-3.0-0.3","task_version":"test-retest-t2"},{"view_history":"[{\"page_index\":0,\"viewing_time\":2053.7250000052154},{\"page_index\":1,\"viewing_time\":7803.65499999607},{\"page_index\":2,\"viewing_time\":2687.964999990072},{\"page_index\":3,\"viewing_time\":4376.939999987371},{\"page_index\":4,\"viewing_time\":2492.115000030026},{\"page_index\":5,\"viewing_time\":5010.820000024978},{\"page_index\":6,\"viewing_time\":3077.1049999748357},{\"page_index\":7,\"viewing_time\":2301.050000009127}]","rt":29803.740000003017,"trial_type":"pit-instructions","trial_index":12,"time_elapsed":101150,"internal_node_id":"0.0-2.0-4.0","task_version":"test-retest-t2"},{"responses":["Do nothing","+10","-1","True","Yes"],"num_errors":0,"rt":14209.56499996828,"trial_type":"pit-comprehension","trial_index":13,"time_elapsed":115362,"internal_node_id":"0.0-2.0-5.0","task_version":"test-retest-t2"},{"trial_type":"call-function","trial_index":14,"time_elapsed":115364,"internal_node_id":"0.0-3.0","task_version":"test-retest-t2"},{"view_history":"[{\"page_index\":0,\"viewing_time\":1545.2650000224821},{\"page_index\":1,\"viewing_time\":2361.380000016652},{\"page_index\":2,\"viewing_time\":3254.804999975022}]","rt":7161.760000046343,"trial_type":"pit-instructions","trial_index":15,"time_elapsed":122527,"internal_node_id":"0.0-4.0","task_version":"test-retest-t2"},{"Rune":"rune_04_dagaz","Hex":"#ffcc3399","Correct":32,"Choice":32,"RT":437.4100000131875,"Accuracy":1,"Outcome":"+10","Keys":[1937.4699999461882],"TotalKeys":1,"Block":1,"Trial":1,"Robot":1,"Valence":"Win","Action":"Go","Sham":0,"Color":"yellow","trial_type":"pit-trial","trial_index":16,"time_elapsed":125468,"internal_node_id":"0.0-5.0","task_version":"test-retest-t2"},{"Rune":"rune_04_ac","Hex":"#3366ff99","Correct":-1,"Choice":32,"RT":705.1100000389852,"Accuracy":0,"Outcome":"-10","Keys":[2205.2099999855272],"TotalKeys":1,"Block":1,"Trial":2,"Robot":4,"Valence":"Lose","Action":"No-Go","Sham":0,"Color":"blue","trial_type":"pit-trial","trial_index":17,"time_elapsed":128676,"internal_node_id":"0.0-6.0","task_version":"test-retest-t2"},{"Rune":"rune_04_iwaz","Hex":"#ffcc3399","Correct":-1,"Choice":32,"RT":616.6150000062771,"Accuracy":0,"Outcome":"+1","Keys":[2117.209999996703],"TotalKeys":1,"Block":1,"Trial":3,"Robot":2,"Valence":"Win","Action":"No-Go","Sham":0,"Color":"yellow","trial_type":"pit-trial","trial_index":18,"time_elapsed":131797,"internal_node_id":"0.0-7.0","task_version":"test-retest-t2"},{"Rune":"rune_04_wunjo","Hex":"#3366ff99","Correct":32,"Choice":-1,"RT":-1,"Accuracy":0,"Outcome":"-1","Keys":[],"TotalKeys":0,"Block":1,"Trial":4,"Robot":3,"Valence":"Lose","Action":"Go","Sham":1,"Color":"blue","trial_type":"pit-trial","trial_index":19,"time_elapsed":135800,"internal_node_id":"0.0-8.0","task_version":"test-retest-t2"},{"Rune":"rune_04_wunjo","Hex":"#3366ff99","Correct":32,"Choice":-1,"RT":-1,"Accuracy":0,"Outcome":"-10","Keys":[],"TotalKeys":0,"Block":1,"Trial":5,"Robot":3,"Valence":"Lose","Action":"Go","Sham":0,"Color":"blue","trial_type":"pit-trial","trial_index":20,"time_elapsed":139804,"internal_node_id":"0.0-9.0","task_version":"test-retest-t2"},{"Rune":"rune_04_ac","Hex":"#3366ff99","Correct":-1,"Choice":32,"RT":792.9599999915808,"Accuracy":0,"Outcome":"-10","Keys":[2293.0599999963306],"TotalKeys":1,"Block":1,"Trial":6,"Robot":4,"Valence":"Lose","Action":"No-Go","Sham":0,"Color":"blue","trial_type":"pit-trial","trial_index":21,"time_elapsed":143100,"internal_node_id":"0.0-10.0","task_version":"test-retest-t2"},{"Rune":"rune_04_dagaz","Hex":"#ffcc3399","Correct":32,"Choice":32,"RT":480.7250000303611,"Accuracy":1,"Outcome":"+10","Keys":[1981.1449999688193],"TotalKeys":1,"Block":1,"Trial":7,"Robot":1,"Valence":"Win","Action":"Go","Sham":0,"Color":"yellow","trial_type":"pit-trial","trial_index":22,"time_elapsed":146084,"internal_node_id":"0.0-11.0","task_version":"test-retest-t2"},{"Rune":"rune_04_iwaz","Hex":"#ffcc3399","Correct":-1,"Choice":-1,"RT":-1,"Accuracy":1,"Outcome":"+10","Keys":[],"TotalKeys":0,"Block":1,"Trial":8,"Robot":2,"Valence":"Win","Action":"No-Go","Sham":0,"Color":"yellow","trial_type":"pit-trial","trial_index":23,"time_elapsed":150088,"internal_node_id":"0.0-12.0","task_version":"test-retest-t2"},{"Rune":"rune_04_wunjo","Hex":"#3366ff99","Correct":32,"Choice":32,"RT":756.7200000048615,"Accuracy":1,"Outcome":"-1","Keys":[2256.9700000458397],"TotalKeys":1,"Block":1,"Trial":9,"Robot":3,"Valence":"Lose","Action":"Go","Sham":0,"Color":"blue","trial_type":"pit-trial","trial_index":24,"time_elapsed":153348,"internal_node_id":"0.0-13.0","task_version":"test-retest-t2"},{"Rune":"rune_04_ac","Hex":"#3366ff99","Correct":-1,"Choice":-1,"RT":-1,"Accuracy":1,"Outcome":"-1","Keys":[],"TotalKeys":0,"Block":1,"Trial":10,"Robot":4,"Valence":"Lose","Action":"No-Go","Sham":0,"Color":"blue","trial_type":"pit-trial","trial_index":25,"time_elapsed":157350,"internal_node_id":"0.0-14.0","task_version":"test-retest-t2"},{"Rune":"rune_04_iwaz","Hex":"#ffcc3399","Correct":-1,"Choice":-1,"RT":-1,"Accuracy":1,"Outcome":"+1","Keys":[],"TotalKeys":0,"Block":1,"Trial":11,"Robot":2,"Valence":"Win","Action":"No-Go","Sham":1,"Color":"yellow","trial_type":"pit-trial","trial_index":26,"time_elapsed":161353,"internal_node_id":"0.0-15.0","task_version":"test-retest-t2"},{"Rune":"rune_04_dagaz","Hex":"#ffcc3399","Correct":32,"Choice":32,"RT":412.9299999913201,"Accuracy":1,"Outcome":"+10","Keys":[1913.1300000008196],"TotalKeys":1,"Block":1,"Trial":12,"Robot":1,"Valence":"Win","Action":"Go","Sham":0,"Color":"yellow","trial_type":"pit-trial","trial_index":27,"time_elapsed":164269,"internal_node_id":"0.0-16.0","task_version":"test-retest-t2"},{"Rune":"rune_04_ac","Hex":"#3366ff99","Correct":-1,"Choice":-1,"RT":-1,"Accuracy":1,"Outcome":"-1","Keys":[],"TotalKeys":0,"Block":1,"Trial":13,"Robot":4,"Valence":"Lose","Action":"No-Go","Sham":0,"Color":"blue","trial_type":"pit-trial","trial_index":28,"time_elapsed":168274,"internal_node_id":"0.0-17.0","task_version":"test-retest-t2"},{"Rune":"rune_04_iwaz","Hex":"#ffcc3399","Correct":-1,"Choice":32,"RT":714.2599999788217,"Accuracy":0,"Outcome":"+1","Keys":[2215.089999954216],"TotalKeys":1,"Block":1,"Trial":14,"Robot":2,"Valence":"Win","Action":"No-Go","Sham":0,"Color":"yellow","trial_type":"pit-trial","trial_index":29,"time_elapsed":171492,"internal_node_id":"0.0-18.0","task_version":"test-retest-t2"},{"Rune":"rune_04_dagaz","Hex":"#ffcc3399","Correct":32,"Choice":32,"RT":408.7650000001304,"Accuracy":1,"Outcome":"+10","Keys":[1908.9699999894947],"TotalKeys":1,"Block":1,"Trial":15,"Robot":1,"Valence":"Win","Action":"Go","Sham":0,"Color":"yellow","trial_type":"pit-trial","trial_index":30,"time_elapsed":174404,"internal_node_id":"0.0-19.0","task_version":"test-retest-t2"},{"Rune":"rune_04_wunjo","Hex":"#3366ff99","Correct":32,"Choice":32,"RT":671.4849999989383,"Accuracy":1,"Outcome":"-1","Keys":[2173.22499997681],"TotalKeys":1,"Block":1,"Trial":16,"Robot":3,"Valence":"Lose","Action":"Go","Sham":0,"Color":"blue","trial_type":"pit-trial","trial_index":31,"time_elapsed":177579,"internal_node_id":"0.0-20.0","task_version":"test-retest-t2"},{"Rune":"rune_04_iwaz","Hex":"#ffcc3399","Correct":-1,"Choice":32,"RT":690.2049999916926,"Accuracy":0,"Outcome":"+1","Keys":[2190.520000003744],"TotalKeys":1,"Block":1,"Trial":17,"Robot":2,"Valence":"Win","Action":"No-Go","Sham":0,"Color":"yellow","trial_type":"pit-trial","trial_index":32,"time_elapsed":180772,"internal_node_id":"0.0-21.0","task_version":"test-retest-t2"},{"Rune":"rune_04_dagaz","Hex":"#ffcc3399","Correct":32,"Choice":32,"RT":271.7500000144355,"Accuracy":1,"Outcome":"+1","Keys":[1773.2949999626726],"TotalKeys":1,"Block":1,"Trial":18,"Robot":1,"Valence":"Win","Action":"Go","Sham":1,"Color":"yellow","trial_type":"pit-trial","trial_index":33,"time_elapsed":183548,"internal_node_id":"0.0-22.0","task_version":"test-retest-t2"},{"Rune":"rune_04_ac","Hex":"#3366ff99","Correct":-1,"Choice":-1,"RT":-1,"Accuracy":1,"Outcome":"-10","Keys":[],"TotalKeys":0,"Block":1,"Trial":19,"Robot":4,"Valence":"Lose","Action":"No-Go","Sham":1,"Color":"blue","trial_type":"pit-trial","trial_index":34,"time_elapsed":187551,"internal_node_id":"0.0-23.0","task_version":"test-retest-t2"},{"Rune":"rune_04_wunjo","Hex":"#3366ff99","Correct":32,"Choice":32,"RT":477.03999996883795,"Accuracy":1,"Outcome":"-1","Keys":[1977.9200000339188],"TotalKeys":1,"Block":1,"Trial":20,"Robot":3,"Valence":"Lose","Action":"Go","Sham":0,"Color":"blue","trial_type":"pit-trial","trial_index":35,"time_elapsed":190531,"internal_node_id":"0.0-24.0","task_version":"test-retest-t2"},{"Rune":"rune_04_iwaz","Hex":"#ffcc3399","Correct":-1,"Choice":32,"RT":610.0999999907799,"Accuracy":0,"Outcome":"+10","Keys":[2110.660000005737],"TotalKeys":1,"Block":1,"Trial":21,"Robot":2,"Valence":"Win","Action":"No-Go","Sham":1,"Color":"yellow","trial_type":"pit-trial","trial_index":36,"time_elapsed":193645,"internal_node_id":"0.0-25.0","task_version":"test-retest-t2"},{"Rune":"rune_04_dagaz","Hex":"#ffcc3399","Correct":32,"Choice":32,"RT":343.3400000212714,"Accuracy":1,"Outcome":"+10","Keys":[1843.9050000160933],"TotalKeys":1,"Block":1,"Trial":22,"Robot":1,"Valence":"Win","Action":"Go","Sham":0,"Color":"yellow","trial_type":"pit-trial","trial_index":37,"time_elapsed":196491,"internal_node_id":"0.0-26.0","task_version":"test-retest-t2"},{"Rune":"rune_04_wunjo","Hex":"#3366ff99","Correct":32,"Choice":32,"RT":737.4500000150874,"Accuracy":1,"Outcome":"-1","Keys":[2237.6400000066496],"TotalKeys":1,"Block":1,"Trial":23,"Robot":3,"Valence":"Lose","Action":"Go","Sham":0,"Color":"blue","trial_type":"pit-trial","trial_index":38,"time_elapsed":199731,"internal_node_id":"0.0-27.0","task_version":"test-retest-t2"},{"Rune":"rune_04_ac","Hex":"#3366ff99","Correct":-1,"Choice":-1,"RT":-1,"Accuracy":1,"Outcome":"-1","Keys":[],"TotalKeys":0,"Block":1,"Trial":24,"Robot":4,"Valence":"Lose","Action":"No-Go","Sham":0,"Color":"blue","trial_type":"pit-trial","trial_index":39,"time_elapsed":203734,"internal_node_id":"0.0-28.0","task_version":"test-retest-t2"},{"Rune":"rune_04_iwaz","Hex":"#ffcc3399","Correct":-1,"Choice":32,"RT":782.8800000133924,"Accuracy":0,"Outcome":"+1","Keys":[2282.970000000205],"TotalKeys":1,"Block":1,"Trial":25,"Robot":2,"Valence":"Win","Action":"No-Go","Sham":0,"Color":"yellow","trial_type":"pit-trial","trial_index":40,"time_elapsed":207020,"internal_node_id":"0.0-29.0","task_version":"test-retest-t2"},{"Rune":"rune_04_ac","Hex":"#3366ff99","Correct":-1,"Choice":-1,"RT":-1,"Accuracy":1,"Outcome":"-10","Keys":[],"TotalKeys":0,"Block":1,"Trial":26,"Robot":4,"Valence":"Lose","Action":"No-Go","Sham":1,"Color":"blue","trial_type":"pit-trial","trial_index":41,"time_elapsed":211024,"internal_node_id":"0.0-30.0","task_version":"test-retest-t2"},{"Rune":"rune_04_wunjo","Hex":"#3366ff99","Correct":32,"Choice":32,"RT":636.9549999944866,"Accuracy":1,"Outcome":"-10","Keys":[2137.0350000215694],"TotalKeys":1,"Block":1,"Trial":27,"Robot":3,"Valence":"Lose","Action":"Go","Sham":1,"Color":"blue","trial_type":"pit-trial","trial_index":42,"time_elapsed":214164,"internal_node_id":"0.0-31.0","task_version":"test-retest-t2"},{"Rune":"rune_04_dagaz","Hex":"#ffcc3399","Correct":32,"Choice":32,"RT":320.43000002158806,"Accuracy":1,"Outcome":"+10","Keys":[1820.754999993369],"TotalKeys":1,"Block":1,"Trial":28,"Robot":1,"Valence":"Win","Action":"Go","Sham":0,"Color":"yellow","trial_type":"pit-trial","trial_index":43,"time_elapsed":216988,"internal_node_id":"0.0-32.0","task_version":"test-retest-t2"},{"Rune":"rune_04_dagaz","Hex":"#ffcc3399","Correct":32,"Choice":32,"RT":360.93499994603917,"Accuracy":1,"Outcome":"+10","Keys":[1861.635000037495],"TotalKeys":1,"Block":1,"Trial":29,"Robot":1,"Valence":"Win","Action":"Go","Sham":0,"Color":"yellow","trial_type":"pit-trial","trial_index":44,"time_elapsed":219852,"internal_node_id":"0.0-33.0","task_version":"test-retest-t2"},{"Rune":"rune_04_ac","Hex":"#3366ff99","Correct":-1,"Choice":-1,"RT":-1,"Accuracy":1,"Outcome":"-1","Keys":[],"TotalKeys":0,"Block":1,"Trial":30,"Robot":4,"Valence":"Lose","Action":"No-Go","Sham":0,"Color":"blue","trial_type":"pit-trial","trial_index":45,"time_elapsed":223855,"internal_node_id":"0.0-34.0","task_version":"test-retest-t2"},{"Rune":"rune_04_iwaz","Hex":"#ffcc3399","Correct":-1,"Choice":-1,"RT":-1,"Accuracy":1,"Outcome":"+10","Keys":[],"TotalKeys":0,"Block":1,"Trial":31,"Robot":2,"Valence":"Win","Action":"No-Go","Sham":0,"Color":"yellow","trial_type":"pit-trial","trial_index":46,"time_elapsed":227857,"internal_node_id":"0.0-35.0","task_version":"test-retest-t2"},{"Rune":"rune_04_wunjo","Hex":"#3366ff99","Correct":32,"Choice":-1,"RT":-1,"Accuracy":0,"Outcome":"-10","Keys":[],"TotalKeys":0,"Block":1,"Trial":32,"Robot":3,"Valence":"Lose","Action":"Go","Sham":0,"Color":"blue","trial_type":"pit-trial","trial_index":47,"time_elapsed":231861,"internal_node_id":"0.0-36.0","task_version":"test-retest-t2"},{"Rune":"rune_04_dagaz","Hex":"#ffcc3399","Correct":32,"Choice":32,"RT":368.6149999848567,"Accuracy":1,"Outcome":"+10","Keys":[1868.8350000302307],"TotalKeys":1,"Block":1,"Trial":33,"Robot":1,"Valence":"Win","Action":"Go","Sham":0,"Color":"yellow","trial_type":"pit-trial","trial_index":48,"time_elapsed":234733,"internal_node_id":"0.0-37.0","task_version":"test-retest-t2"},{"Rune":"rune_04_iwaz","Hex":"#ffcc3399","Correct":-1,"Choice":-1,"RT":-1,"Accuracy":1,"Outcome":"+10","Keys":[3084.1549999895506],"TotalKeys":1,"Block":1,"Trial":34,"Robot":2,"Valence":"Win","Action":"No-Go","Sham":0,"Color":"yellow","trial_type":"pit-trial","trial_index":49,"time_elapsed":238737,"internal_node_id":"0.0-38.0","task_version":"test-retest-t2"},{"Rune":"rune_04_ac","Hex":"#3366ff99","Correct":-1,"Choice":-1,"RT":-1,"Accuracy":1,"Outcome":"-1","Keys":[],"TotalKeys":0,"Block":1,"Trial":35,"Robot":4,"Valence":"Lose","Action":"No-Go","Sham":0,"Color":"blue","trial_type":"pit-trial","trial_index":50,"time_elapsed":242742,"internal_node_id":"0.0-39.0","task_version":"test-retest-t2"},{"Rune":"rune_04_wunjo","Hex":"#3366ff99","Correct":32,"Choice":32,"RT":702.5550000253133,"Accuracy":1,"Outcome":"-1","Keys":[2203.4049999783747],"TotalKeys":1,"Block":1,"Trial":36,"Robot":3,"Valence":"Lose","Action":"Go","Sham":0,"Color":"blue","trial_type":"pit-trial","trial_index":51,"time_elapsed":245949,"internal_node_id":"0.0-40.0","task_version":"test-retest-t2"},{"Rune":"rune_04_wunjo","Hex":"#3366ff99","Correct":32,"Choice":32,"RT":712.7800000016578,"Accuracy":1,"Outcome":"-1","Keys":[2212.889999966137],"TotalKeys":1,"Block":1,"Trial":37,"Robot":3,"Valence":"Lose","Action":"Go","Sham":0,"Color":"blue","trial_type":"pit-trial","trial_index":52,"time_elapsed":249165,"internal_node_id":"0.0-41.0","task_version":"test-retest-t2"},{"Rune":"rune_04_dagaz","Hex":"#ffcc3399","Correct":32,"Choice":32,"RT":408.6750000133179,"Accuracy":1,"Outcome":"+1","Keys":[1908.8300000294112],"TotalKeys":1,"Block":1,"Trial":38,"Robot":1,"Valence":"Win","Action":"Go","Sham":1,"Color":"yellow","trial_type":"pit-trial","trial_index":53,"time_elapsed":252076,"internal_node_id":"0.0-42.0","task_version":"test-retest-t2"},{"Rune":"rune_04_ac","Hex":"#3366ff99","Correct":-1,"Choice":-1,"RT":-1,"Accuracy":1,"Outcome":"-1","Keys":[],"TotalKeys":0,"Block":1,"Trial":39,"Robot":4,"Valence":"Lose","Action":"No-Go","Sham":0,"Color":"blue","trial_type":"pit-trial","trial_index":54,"time_elapsed":256079,"internal_node_id":"0.0-43.0","task_version":"test-retest-t2"},{"Rune":"rune_04_iwaz","Hex":"#ffcc3399","Correct":-1,"Choice":32,"RT":644.4899999769405,"Accuracy":0,"Outcome":"+1","Keys":[2145.6550000002608],"TotalKeys":1,"Block":1,"Trial":40,"Robot":2,"Valence":"Win","Action":"No-Go","Sham":0,"Color":"yellow","trial_type":"pit-trial","trial_index":55,"time_elapsed":259228,"internal_node_id":"0.0-44.0","task_version":"test-retest-t2"},{"Rune":"rune_04_ac","Hex":"#3366ff99","Correct":-1,"Choice":-1,"RT":-1,"Accuracy":1,"Outcome":"-1","Keys":[],"TotalKeys":0,"Block":1,"Trial":41,"Robot":4,"Valence":"Lose","Action":"No-Go","Sham":0,"Color":"blue","trial_type":"pit-trial","trial_index":56,"time_elapsed":263231,"internal_node_id":"0.0-45.0","task_version":"test-retest-t2"},{"Rune":"rune_04_wunjo","Hex":"#3366ff99","Correct":32,"Choice":32,"RT":1318.0550000397488,"Accuracy":1,"Outcome":"-1","Keys":[2818.174999963958],"TotalKeys":1,"Block":1,"Trial":42,"Robot":3,"Valence":"Lose","Action":"Go","Sham":0,"Color":"blue","trial_type":"pit-trial","trial_index":57,"time_elapsed":267052,"internal_node_id":"0.0-46.0","task_version":"test-retest-t2"},{"Rune":"rune_04_iwaz","Hex":"#ffcc3399","Correct":-1,"Choice":-1,"RT":-1,"Accuracy":1,"Outcome":"+10","Keys":[],"TotalKeys":0,"Block":1,"Trial":43,"Robot":2,"Valence":"Win","Action":"No-Go","Sham":0,"Color":"yellow","trial_type":"pit-trial","trial_index":58,"time_elapsed":271054,"internal_node_id":"0.0-47.0","task_version":"test-retest-t2"},{"Rune":"rune_04_dagaz","Hex":"#ffcc3399","Correct":32,"Choice":32,"RT":460.7799999648705,"Accuracy":1,"Outcome":"+10","Keys":[1962.375000002794],"TotalKeys":1,"Block":1,"Trial":44,"Robot":1,"Valence":"Win","Action":"Go","Sham":0,"Color":"yellow","trial_type":"pit-trial","trial_index":59,"time_elapsed":274020,"internal_node_id":"0.0-48.0","task_version":"test-retest-t2"},{"Rune":"rune_04_dagaz","Hex":"#ffcc3399","Correct":32,"Choice":32,"RT":480.6799999787472,"Accuracy":1,"Outcome":"+10","Keys":[1980.840000032913],"TotalKeys":1,"Block":1,"Trial":45,"Robot":1,"Valence":"Win","Action":"Go","Sham":0,"Color":"yellow","trial_type":"pit-trial","trial_index":60,"time_elapsed":277004,"internal_node_id":"0.0-49.0","task_version":"test-retest-t2"},{"Rune":"rune_04_ac","Hex":"#3366ff99","Correct":-1,"Choice":-1,"RT":-1,"Accuracy":1,"Outcome":"-1","Keys":[],"TotalKeys":0,"Block":1,"Trial":46,"Robot":4,"Valence":"Lose","Action":"No-Go","Sham":0,"Color":"blue","trial_type":"pit-trial","trial_index":61,"time_elapsed":281008,"internal_node_id":"0.0-50.0","task_version":"test-retest-t2"},{"Rune":"rune_04_iwaz","Hex":"#ffcc3399","Correct":-1,"Choice":-1,"RT":-1,"Accuracy":1,"Outcome":"+10","Keys":[],"TotalKeys":0,"Block":1,"Trial":47,"Robot":2,"Valence":"Win","Action":"No-Go","Sham":0,"Color":"yellow","trial_type":"pit-trial","trial_index":62,"time_elapsed":285012,"internal_node_id":"0.0-51.0","task_version":"test-retest-t2"},{"Rune":"rune_04_wunjo","Hex":"#3366ff99","Correct":32,"Choice":32,"RT":752.3950000177138,"Accuracy":1,"Outcome":"-10","Keys":[2253.320000017993],"TotalKeys":1,"Block":1,"Trial":48,"Robot":3,"Valence":"Lose","Action":"Go","Sham":1,"Color":"blue","trial_type":"pit-trial","trial_index":63,"time_elapsed":288267,"internal_node_id":"0.0-52.0","task_version":"test-retest-t2"},{"Rune":"rune_04_iwaz","Hex":"#ffcc3399","Correct":-1,"Choice":-1,"RT":-1,"Accuracy":1,"Outcome":"+10","Keys":[],"TotalKeys":0,"Block":1,"Trial":49,"Robot":2,"Valence":"Win","Action":"No-Go","Sham":0,"Color":"yellow","trial_type":"pit-trial","trial_index":64,"time_elapsed":292271,"internal_node_id":"0.0-53.0","task_version":"test-retest-t2"},{"Rune":"rune_04_wunjo","Hex":"#3366ff99","Correct":32,"Choice":-1,"RT":-1,"Accuracy":0,"Outcome":"-10","Keys":[],"TotalKeys":0,"Block":1,"Trial":50,"Robot":3,"Valence":"Lose","Action":"Go","Sham":0,"Color":"blue","trial_type":"pit-trial","trial_index":65,"time_elapsed":296274,"internal_node_id":"0.0-54.0","task_version":"test-retest-t2"},{"Rune":"rune_04_ac","Hex":"#3366ff99","Correct":-1,"Choice":-1,"RT":-1,"Accuracy":1,"Outcome":"-1","Keys":[],"TotalKeys":0,"Block":1,"Trial":51,"Robot":4,"Valence":"Lose","Action":"No-Go","Sham":0,"Color":"blue","trial_type":"pit-trial","trial_index":66,"time_elapsed":300278,"internal_node_id":"0.0-55.0","task_version":"test-retest-t2"},{"Rune":"rune_04_dagaz","Hex":"#ffcc3399","Correct":32,"Choice":32,"RT":446.30499999038875,"Accuracy":1,"Outcome":"+10","Keys":[1947.2599999862723],"TotalKeys":1,"Block":1,"Trial":52,"Robot":1,"Valence":"Win","Action":"Go","Sham":0,"Color":"yellow","trial_type":"pit-trial","trial_index":67,"time_elapsed":303227,"internal_node_id":"0.0-56.0","task_version":"test-retest-t2"},{"Rune":"rune_04_ac","Hex":"#3366ff99","Correct":-1,"Choice":-1,"RT":-1,"Accuracy":1,"Outcome":"-1","Keys":[],"TotalKeys":0,"Block":1,"Trial":53,"Robot":4,"Valence":"Lose","Action":"No-Go","Sham":0,"Color":"blue","trial_type":"pit-trial","trial_index":68,"time_elapsed":307232,"internal_node_id":"0.0-57.0","task_version":"test-retest-t2"},{"Rune":"rune_04_wunjo","Hex":"#3366ff99","Correct":32,"Choice":32,"RT":899.7749999980442,"Accuracy":1,"Outcome":"-1","Keys":[2400.0099999830127],"TotalKeys":1,"Block":1,"Trial":54,"Robot":3,"Valence":"Lose","Action":"Go","Sham":0,"Color":"blue","trial_type":"pit-trial","trial_index":69,"time_elapsed":310635,"internal_node_id":"0.0-58.0","task_version":"test-retest-t2"},{"Rune":"rune_04_iwaz","Hex":"#ffcc3399","Correct":-1,"Choice":-1,"RT":-1,"Accuracy":1,"Outcome":"+1","Keys":[],"TotalKeys":0,"Block":1,"Trial":55,"Robot":2,"Valence":"Win","Action":"No-Go","Sham":1,"Color":"yellow","trial_type":"pit-trial","trial_index":70,"time_elapsed":314638,"internal_node_id":"0.0-59.0","task_version":"test-retest-t2"},{"Rune":"rune_04_dagaz","Hex":"#ffcc3399","Correct":32,"Choice":32,"RT":375.37999998312443,"Accuracy":1,"Outcome":"+1","Keys":[1876.1650000233203],"TotalKeys":1,"Block":1,"Trial":56,"Robot":1,"Valence":"Win","Action":"Go","Sham":1,"Color":"yellow","trial_type":"pit-trial","trial_index":71,"time_elapsed":317516,"internal_node_id":"0.0-60.0","task_version":"test-retest-t2"},{"Rune":"rune_04_wunjo","Hex":"#3366ff99","Correct":32,"Choice":32,"RT":1073.1850000447594,"Accuracy":1,"Outcome":"-1","Keys":[2573.7450000015087],"TotalKeys":1,"Block":1,"Trial":57,"Robot":3,"Valence":"Lose","Action":"Go","Sham":0,"Color":"blue","trial_type":"pit-trial","trial_index":72,"time_elapsed":321092,"internal_node_id":"0.0-61.0","task_version":"test-retest-t2"},{"Rune":"rune_04_iwaz","Hex":"#ffcc3399","Correct":-1,"Choice":32,"RT":664.4599999999627,"Accuracy":0,"Outcome":"+1","Keys":[2165.114999981597],"TotalKeys":1,"Block":1,"Trial":58,"Robot":2,"Valence":"Win","Action":"No-Go","Sham":0,"Color":"yellow","trial_type":"pit-trial","trial_index":73,"time_elapsed":324259,"internal_node_id":"0.0-62.0","task_version":"test-retest-t2"},{"Rune":"rune_04_ac","Hex":"#3366ff99","Correct":-1,"Choice":-1,"RT":-1,"Accuracy":1,"Outcome":"-10","Keys":[],"TotalKeys":0,"Block":1,"Trial":59,"Robot":4,"Valence":"Lose","Action":"No-Go","Sham":1,"Color":"blue","trial_type":"pit-trial","trial_index":74,"time_elapsed":328263,"internal_node_id":"0.0-63.0","task_version":"test-retest-t2"},{"Rune":"rune_04_dagaz","Hex":"#ffcc3399","Correct":32,"Choice":32,"RT":317.87000002805144,"Accuracy":1,"Outcome":"+10","Keys":[1818.0500000016764],"TotalKeys":1,"Block":1,"Trial":60,"Robot":1,"Valence":"Win","Action":"Go","Sham":0,"Color":"yellow","trial_type":"pit-trial","trial_index":75,"time_elapsed":331084,"internal_node_id":"0.0-64.0","task_version":"test-retest-t2"},{"value":false,"trial_type":"call-function","trial_index":76,"time_elapsed":331086,"internal_node_id":"0.0-65.0","task_version":"test-retest-t2"},{"view_history":"[{\"page_index\":0,\"viewing_time\":10524.749999982305},{\"page_index\":1,\"viewing_time\":2825.4450000240467}]","rt":13350.540000014007,"trial_type":"pit-instructions","trial_index":77,"time_elapsed":344437,"internal_node_id":"0.0-66.0","task_version":"test-retest-t2"},{"Rune":"rune_04_dagaz","Hex":"#ffcc3399","Correct":32,"Choice":32,"RT":367.6100000157021,"Accuracy":1,"Outcome":"+10","Keys":[1868.04500001017],"TotalKeys":1,"Block":1,"Trial":61,"Robot":1,"Valence":"Win","Action":"Go","Sham":0,"Color":"yellow","trial_type":"pit-trial","trial_index":78,"time_elapsed":347308,"internal_node_id":"0.0-67.0","task_version":"test-retest-t2"},{"Rune":"rune_04_wunjo","Hex":"#3366ff99","Correct":32,"Choice":32,"RT":1193.230000033509,"Accuracy":1,"Outcome":"-1","Keys":[2693.5149999917485],"TotalKeys":1,"Block":1,"Trial":62,"Robot":3,"Valence":"Lose","Action":"Go","Sham":0,"Color":"blue","trial_type":"pit-trial","trial_index":79,"time_elapsed":351005,"internal_node_id":"0.0-68.0","task_version":"test-retest-t2"},{"Rune":"rune_04_ac","Hex":"#3366ff99","Correct":-1,"Choice":-1,"RT":-1,"Accuracy":1,"Outcome":"-1","Keys":[],"TotalKeys":0,"Block":1,"Trial":63,"Robot":4,"Valence":"Lose","Action":"No-Go","Sham":0,"Color":"blue","trial_type":"pit-trial","trial_index":80,"time_elapsed":355008,"internal_node_id":"0.0-69.0","task_version":"test-retest-t2"},{"Rune":"rune_04_iwaz","Hex":"#ffcc3399","Correct":-1,"Choice":-1,"RT":-1,"Accuracy":1,"Outcome":"+10","Keys":[],"TotalKeys":0,"Block":1,"Trial":64,"Robot":2,"Valence":"Win","Action":"No-Go","Sham":0,"Color":"yellow","trial_type":"pit-trial","trial_index":81,"time_elapsed":359012,"internal_node_id":"0.0-70.0","task_version":"test-retest-t2"},{"Rune":"rune_04_dagaz","Hex":"#ffcc3399","Correct":32,"Choice":32,"RT":521.3349999976344,"Accuracy":1,"Outcome":"+10","Keys":[2021.8299999833107],"TotalKeys":1,"Block":1,"Trial":65,"Robot":1,"Valence":"Win","Action":"Go","Sham":0,"Color":"yellow","trial_type":"pit-trial","trial_index":82,"time_elapsed":362037,"internal_node_id":"0.0-71.0","task_version":"test-retest-t2"},{"Rune":"rune_04_ac","Hex":"#3366ff99","Correct":-1,"Choice":-1,"RT":-1,"Accuracy":1,"Outcome":"-1","Keys":[],"TotalKeys":0,"Block":1,"Trial":66,"Robot":4,"Valence":"Lose","Action":"No-Go","Sham":0,"Color":"blue","trial_type":"pit-trial","trial_index":83,"time_elapsed":366040,"internal_node_id":"0.0-72.0","task_version":"test-retest-t2"},{"Rune":"rune_04_iwaz","Hex":"#ffcc3399","Correct":-1,"Choice":-1,"RT":-1,"Accuracy":1,"Outcome":"+1","Keys":[],"TotalKeys":0,"Block":1,"Trial":67,"Robot":2,"Valence":"Win","Action":"No-Go","Sham":1,"Color":"yellow","trial_type":"pit-trial","trial_index":84,"time_elapsed":370043,"internal_node_id":"0.0-73.0","task_version":"test-retest-t2"},{"Rune":"rune_04_wunjo","Hex":"#3366ff99","Correct":32,"Choice":32,"RT":657.6650000060908,"Accuracy":1,"Outcome":"-1","Keys":[2158.125000016298],"TotalKeys":1,"Block":1,"Trial":68,"Robot":3,"Valence":"Lose","Action":"Go","Sham":0,"Color":"blue","trial_type":"pit-trial","trial_index":85,"time_elapsed":373204,"internal_node_id":"0.0-74.0","task_version":"test-retest-t2"},{"Rune":"rune_04_wunjo","Hex":"#3366ff99","Correct":32,"Choice":32,"RT":464.3299999879673,"Accuracy":1,"Outcome":"-10","Keys":[1964.899999962654],"TotalKeys":1,"Block":1,"Trial":69,"Robot":3,"Valence":"Lose","Action":"Go","Sham":1,"Color":"blue","trial_type":"pit-trial","trial_index":86,"time_elapsed":376172,"internal_node_id":"0.0-75.0","task_version":"test-retest-t2"},{"Rune":"rune_04_iwaz","Hex":"#ffcc3399","Correct":-1,"Choice":32,"RT":593.3650000370108,"Accuracy":0,"Outcome":"+1","Keys":[2093.6600000131875],"TotalKeys":1,"Block":1,"Trial":70,"Robot":2,"Valence":"Win","Action":"No-Go","Sham":0,"Color":"yellow","trial_type":"pit-trial","trial_index":87,"time_elapsed":379268,"internal_node_id":"0.0-76.0","task_version":"test-retest-t2"},{"Rune":"rune_04_ac","Hex":"#3366ff99","Correct":-1,"Choice":-1,"RT":-1,"Accuracy":1,"Outcome":"-1","Keys":[],"TotalKeys":0,"Block":1,"Trial":71,"Robot":4,"Valence":"Lose","Action":"No-Go","Sham":0,"Color":"blue","trial_type":"pit-trial","trial_index":88,"time_elapsed":383271,"internal_node_id":"0.0-77.0","task_version":"test-retest-t2"},{"Rune":"rune_04_dagaz","Hex":"#ffcc3399","Correct":32,"Choice":32,"RT":285.05499998573214,"Accuracy":1,"Outcome":"+10","Keys":[1785.9299999545328],"TotalKeys":1,"Block":1,"Trial":72,"Robot":1,"Valence":"Win","Action":"Go","Sham":0,"Color":"yellow","trial_type":"pit-trial","trial_index":89,"time_elapsed":386060,"internal_node_id":"0.0-78.0","task_version":"test-retest-t2"},{"Rune":"rune_04_ac","Hex":"#3366ff99","Correct":-1,"Choice":-1,"RT":-1,"Accuracy":1,"Outcome":"-10","Keys":[],"TotalKeys":0,"Block":1,"Trial":73,"Robot":4,"Valence":"Lose","Action":"No-Go","Sham":1,"Color":"blue","trial_type":"pit-trial","trial_index":90,"time_elapsed":390064,"internal_node_id":"0.0-79.0","task_version":"test-retest-t2"},{"Rune":"rune_04_iwaz","Hex":"#ffcc3399","Correct":-1,"Choice":32,"RT":788.7950000003912,"Accuracy":0,"Outcome":"+1","Keys":[2289.4599999999627],"TotalKeys":1,"Block":1,"Trial":74,"Robot":2,"Valence":"Win","Action":"No-Go","Sham":0,"Color":"yellow","trial_type":"pit-trial","trial_index":91,"time_elapsed":393355,"internal_node_id":"0.0-80.0","task_version":"test-retest-t2"},{"Rune":"rune_04_dagaz","Hex":"#ffcc3399","Correct":32,"Choice":32,"RT":265.31000004615635,"Accuracy":1,"Outcome":"+10","Keys":[1765.9449999919161],"TotalKeys":1,"Block":1,"Trial":75,"Robot":1,"Valence":"Win","Action":"Go","Sham":0,"Color":"yellow","trial_type":"pit-trial","trial_index":92,"time_elapsed":396124,"internal_node_id":"0.0-81.0","task_version":"test-retest-t2"},{"Rune":"rune_04_wunjo","Hex":"#3366ff99","Correct":32,"Choice":-1,"RT":-1,"Accuracy":0,"Outcome":"-10","Keys":[],"TotalKeys":0,"Block":1,"Trial":76,"Robot":3,"Valence":"Lose","Action":"Go","Sham":0,"Color":"blue","trial_type":"pit-trial","trial_index":93,"time_elapsed":400128,"internal_node_id":"0.0-82.0","task_version":"test-retest-t2"},{"Rune":"rune_04_dagaz","Hex":"#ffcc3399","Correct":32,"Choice":32,"RT":405.36500001326203,"Accuracy":1,"Outcome":"+1","Keys":[1905.3950000088662],"TotalKeys":1,"Block":1,"Trial":77,"Robot":1,"Valence":"Win","Action":"Go","Sham":1,"Color":"yellow","trial_type":"pit-trial","trial_index":94,"time_elapsed":403035,"internal_node_id":"0.0-83.0","task_version":"test-retest-t2"},{"Rune":"rune_04_iwaz","Hex":"#ffcc3399","Correct":-1,"Choice":-1,"RT":-1,"Accuracy":1,"Outcome":"+10","Keys":[],"TotalKeys":0,"Block":1,"Trial":78,"Robot":2,"Valence":"Win","Action":"No-Go","Sham":0,"Color":"yellow","trial_type":"pit-trial","trial_index":95,"time_elapsed":407039,"internal_node_id":"0.0-84.0","task_version":"test-retest-t2"},{"Rune":"rune_04_wunjo","Hex":"#3366ff99","Correct":32,"Choice":32,"RT":613.660000031814,"Accuracy":1,"Outcome":"-1","Keys":[2114.1550000174902],"TotalKeys":1,"Block":1,"Trial":79,"Robot":3,"Valence":"Lose","Action":"Go","Sham":0,"Color":"blue","trial_type":"pit-trial","trial_index":96,"time_elapsed":410156,"internal_node_id":"0.0-85.0","task_version":"test-retest-t2"},{"Rune":"rune_04_ac","Hex":"#3366ff99","Correct":-1,"Choice":-1,"RT":-1,"Accuracy":1,"Outcome":"-1","Keys":[],"TotalKeys":0,"Block":1,"Trial":80,"Robot":4,"Valence":"Lose","Action":"No-Go","Sham":0,"Color":"blue","trial_type":"pit-trial","trial_index":97,"time_elapsed":414159,"internal_node_id":"0.0-86.0","task_version":"test-retest-t2"},{"Rune":"rune_04_dagaz","Hex":"#ffcc3399","Correct":32,"Choice":32,"RT":517.6050000009127,"Accuracy":1,"Outcome":"+10","Keys":[2017.7649999968708],"TotalKeys":1,"Block":1,"Trial":81,"Robot":1,"Valence":"Win","Action":"Go","Sham":0,"Color":"yellow","trial_type":"pit-trial","trial_index":98,"time_elapsed":417181,"internal_node_id":"0.0-87.0","task_version":"test-retest-t2"},{"Rune":"rune_04_wunjo","Hex":"#3366ff99","Correct":32,"Choice":32,"RT":1127.669999958016,"Accuracy":1,"Outcome":"-1","Keys":[2628.3150000381283],"TotalKeys":1,"Block":1,"Trial":82,"Robot":3,"Valence":"Lose","Action":"Go","Sham":0,"Color":"blue","trial_type":"pit-trial","trial_index":99,"time_elapsed":420812,"internal_node_id":"0.0-88.0","task_version":"test-retest-t2"},{"Rune":"rune_04_iwaz","Hex":"#ffcc3399","Correct":-1,"Choice":-1,"RT":-1,"Accuracy":1,"Outcome":"+10","Keys":[],"TotalKeys":0,"Block":1,"Trial":83,"Robot":2,"Valence":"Win","Action":"No-Go","Sham":0,"Color":"yellow","trial_type":"pit-trial","trial_index":100,"time_elapsed":424815,"internal_node_id":"0.0-89.0","task_version":"test-retest-t2"},{"Rune":"rune_04_ac","Hex":"#3366ff99","Correct":-1,"Choice":-1,"RT":-1,"Accuracy":1,"Outcome":"-1","Keys":[],"TotalKeys":0,"Block":1,"Trial":84,"Robot":4,"Valence":"Lose","Action":"No-Go","Sham":0,"Color":"blue","trial_type":"pit-trial","trial_index":101,"time_elapsed":428820,"internal_node_id":"0.0-90.0","task_version":"test-retest-t2"},{"Rune":"rune_04_wunjo","Hex":"#3366ff99","Correct":32,"Choice":32,"RT":577.3499999777414,"Accuracy":1,"Outcome":"-1","Keys":[2077.530000009574],"TotalKeys":1,"Block":1,"Trial":85,"Robot":3,"Valence":"Lose","Action":"Go","Sham":0,"Color":"blue","trial_type":"pit-trial","trial_index":102,"time_elapsed":431899,"internal_node_id":"0.0-91.0","task_version":"test-retest-t2"},{"Rune":"rune_04_iwaz","Hex":"#ffcc3399","Correct":-1,"Choice":-1,"RT":-1,"Accuracy":1,"Outcome":"+10","Keys":[],"TotalKeys":0,"Block":1,"Trial":86,"Robot":2,"Valence":"Win","Action":"No-Go","Sham":0,"Color":"yellow","trial_type":"pit-trial","trial_index":103,"time_elapsed":435901,"internal_node_id":"0.0-92.0","task_version":"test-retest-t2"},{"Rune":"rune_04_ac","Hex":"#3366ff99","Correct":-1,"Choice":-1,"RT":-1,"Accuracy":1,"Outcome":"-1","Keys":[],"TotalKeys":0,"Block":1,"Trial":87,"Robot":4,"Valence":"Lose","Action":"No-Go","Sham":0,"Color":"blue","trial_type":"pit-trial","trial_index":104,"time_elapsed":439906,"internal_node_id":"0.0-93.0","task_version":"test-retest-t2"},{"Rune":"rune_04_dagaz","Hex":"#ffcc3399","Correct":32,"Choice":32,"RT":307.45999998180196,"Accuracy":1,"Outcome":"+1","Keys":[1807.5949999620207],"TotalKeys":1,"Block":1,"Trial":88,"Robot":1,"Valence":"Win","Action":"Go","Sham":1,"Color":"yellow","trial_type":"pit-trial","trial_index":105,"time_elapsed":442715,"internal_node_id":"0.0-94.0","task_version":"test-retest-t2"},{"Rune":"rune_04_dagaz","Hex":"#ffcc3399","Correct":32,"Choice":32,"RT":482.42999997455627,"Accuracy":1,"Outcome":"+10","Keys":[1982.5999999884516],"TotalKeys":1,"Block":1,"Trial":89,"Robot":1,"Valence":"Win","Action":"Go","Sham":0,"Color":"yellow","trial_type":"pit-trial","trial_index":106,"time_elapsed":445700,"internal_node_id":"0.0-95.0","task_version":"test-retest-t2"},{"Rune":"rune_04_iwaz","Hex":"#ffcc3399","Correct":-1,"Choice":-1,"RT":-1,"Accuracy":1,"Outcome":"+10","Keys":[],"TotalKeys":0,"Block":1,"Trial":90,"Robot":2,"Valence":"Win","Action":"No-Go","Sham":0,"Color":"yellow","trial_type":"pit-trial","trial_index":107,"time_elapsed":449703,"internal_node_id":"0.0-96.0","task_version":"test-retest-t2"},{"Rune":"rune_04_ac","Hex":"#3366ff99","Correct":-1,"Choice":-1,"RT":-1,"Accuracy":1,"Outcome":"-1","Keys":[],"TotalKeys":0,"Block":1,"Trial":91,"Robot":4,"Valence":"Lose","Action":"No-Go","Sham":0,"Color":"blue","trial_type":"pit-trial","trial_index":108,"time_elapsed":453705,"internal_node_id":"0.0-97.0","task_version":"test-retest-t2"},{"Rune":"rune_04_wunjo","Hex":"#3366ff99","Correct":32,"Choice":32,"RT":570.865000016056,"Accuracy":1,"Outcome":"-10","Keys":[2071.7399999848567],"TotalKeys":1,"Block":1,"Trial":92,"Robot":3,"Valence":"Lose","Action":"Go","Sham":1,"Color":"blue","trial_type":"pit-trial","trial_index":109,"time_elapsed":456779,"internal_node_id":"0.0-98.0","task_version":"test-retest-t2"},{"Rune":"rune_04_dagaz","Hex":"#ffcc3399","Correct":32,"Choice":32,"RT":385.7099999440834,"Accuracy":1,"Outcome":"+10","Keys":[1885.8199999667704],"TotalKeys":1,"Block":1,"Trial":93,"Robot":1,"Valence":"Win","Action":"Go","Sham":0,"Color":"yellow","trial_type":"pit-trial","trial_index":110,"time_elapsed":459667,"internal_node_id":"0.0-99.0","task_version":"test-retest-t2"},{"Rune":"rune_04_iwaz","Hex":"#ffcc3399","Correct":-1,"Choice":-1,"RT":-1,"Accuracy":1,"Outcome":"+10","Keys":[],"TotalKeys":0,"Block":1,"Trial":94,"Robot":2,"Valence":"Win","Action":"No-Go","Sham":0,"Color":"yellow","trial_type":"pit-trial","trial_index":111,"time_elapsed":463671,"internal_node_id":"0.0-100.0","task_version":"test-retest-t2"},{"Rune":"rune_04_wunjo","Hex":"#3366ff99","Correct":32,"Choice":32,"RT":492.8399999625981,"Accuracy":1,"Outcome":"-1","Keys":[1994.315000018105],"TotalKeys":1,"Block":1,"Trial":95,"Robot":3,"Valence":"Lose","Action":"Go","Sham":0,"Color":"blue","trial_type":"pit-trial","trial_index":112,"time_elapsed":466668,"internal_node_id":"0.0-101.0","task_version":"test-retest-t2"},{"Rune":"rune_04_ac","Hex":"#3366ff99","Correct":-1,"Choice":-1,"RT":-1,"Accuracy":1,"Outcome":"-1","Keys":[],"TotalKeys":0,"Block":1,"Trial":96,"Robot":4,"Valence":"Lose","Action":"No-Go","Sham":0,"Color":"blue","trial_type":"pit-trial","trial_index":113,"time_elapsed":470672,"internal_node_id":"0.0-102.0","task_version":"test-retest-t2"},{"Rune":"rune_04_ac","Hex":"#3366ff99","Correct":-1,"Choice":-1,"RT":-1,"Accuracy":1,"Outcome":"-10","Keys":[],"TotalKeys":0,"Block":1,"Trial":97,"Robot":4,"Valence":"Lose","Action":"No-Go","Sham":1,"Color":"blue","trial_type":"pit-trial","trial_index":114,"time_elapsed":474677,"internal_node_id":"0.0-103.0","task_version":"test-retest-t2"},{"Rune":"rune_04_wunjo","Hex":"#3366ff99","Correct":32,"Choice":32,"RT":376.66500004706904,"Accuracy":1,"Outcome":"-1","Keys":[1876.7600000137463],"TotalKeys":1,"Block":1,"Trial":98,"Robot":3,"Valence":"Lose","Action":"Go","Sham":0,"Color":"blue","trial_type":"pit-trial","trial_index":115,"time_elapsed":477556,"internal_node_id":"0.0-104.0","task_version":"test-retest-t2"},{"Rune":"rune_04_iwaz","Hex":"#ffcc3399","Correct":-1,"Choice":-1,"RT":-1,"Accuracy":1,"Outcome":"+1","Keys":[],"TotalKeys":0,"Block":1,"Trial":99,"Robot":2,"Valence":"Win","Action":"No-Go","Sham":1,"Color":"yellow","trial_type":"pit-trial","trial_index":116,"time_elapsed":481559,"internal_node_id":"0.0-105.0","task_version":"test-retest-t2"},{"Rune":"rune_04_dagaz","Hex":"#ffcc3399","Correct":32,"Choice":32,"RT":277.00499998172745,"Accuracy":1,"Outcome":"+10","Keys":[1778.4049999900162],"TotalKeys":1,"Block":1,"Trial":100,"Robot":1,"Valence":"Win","Action":"Go","Sham":0,"Color":"yellow","trial_type":"pit-trial","trial_index":117,"time_elapsed":484341,"internal_node_id":"0.0-106.0","task_version":"test-retest-t2"},{"Rune":"rune_04_ac","Hex":"#3366ff99","Correct":-1,"Choice":32,"RT":526.9650000263937,"Accuracy":0,"Outcome":"-10","Keys":[2028.2850000075996],"TotalKeys":1,"Block":1,"Trial":101,"Robot":4,"Valence":"Lose","Action":"No-Go","Sham":0,"Color":"blue","trial_type":"pit-trial","trial_index":118,"time_elapsed":487372,"internal_node_id":"0.0-107.0","task_version":"test-retest-t2"},{"Rune":"rune_04_iwaz","Hex":"#ffcc3399","Correct":-1,"Choice":32,"RT":831.5500000026077,"Accuracy":0,"Outcome":"+1","Keys":[2333.219999971334],"TotalKeys":1,"Block":1,"Trial":102,"Robot":2,"Valence":"Win","Action":"No-Go","Sham":0,"Color":"yellow","trial_type":"pit-trial","trial_index":119,"time_elapsed":490708,"internal_node_id":"0.0-108.0","task_version":"test-retest-t2"},{"Rune":"rune_04_dagaz","Hex":"#ffcc3399","Correct":32,"Choice":32,"RT":385.04999998258427,"Accuracy":1,"Outcome":"+10","Keys":[1886.034999974072],"TotalKeys":1,"Block":1,"Trial":103,"Robot":1,"Valence":"Win","Action":"Go","Sham":0,"Color":"yellow","trial_type":"pit-trial","trial_index":120,"time_elapsed":493596,"internal_node_id":"0.0-109.0","task_version":"test-retest-t2"},{"Rune":"rune_04_wunjo","Hex":"#3366ff99","Correct":32,"Choice":32,"RT":840.9850000170991,"Accuracy":1,"Outcome":"-10","Keys":[2341.5749999694526],"TotalKeys":1,"Block":1,"Trial":104,"Robot":3,"Valence":"Lose","Action":"Go","Sham":1,"Color":"blue","trial_type":"pit-trial","trial_index":121,"time_elapsed":496940,"internal_node_id":"0.0-110.0","task_version":"test-retest-t2"},{"Rune":"rune_04_wunjo","Hex":"#3366ff99","Correct":32,"Choice":-1,"RT":-1,"Accuracy":0,"Outcome":"-10","Keys":[],"TotalKeys":0,"Block":1,"Trial":105,"Robot":3,"Valence":"Lose","Action":"Go","Sham":0,"Color":"blue","trial_type":"pit-trial","trial_index":122,"time_elapsed":500943,"internal_node_id":"0.0-111.0","task_version":"test-retest-t2"},{"Rune":"rune_04_ac","Hex":"#3366ff99","Correct":-1,"Choice":-1,"RT":-1,"Accuracy":1,"Outcome":"-1","Keys":[],"TotalKeys":0,"Block":1,"Trial":106,"Robot":4,"Valence":"Lose","Action":"No-Go","Sham":0,"Color":"blue","trial_type":"pit-trial","trial_index":123,"time_elapsed":504946,"internal_node_id":"0.0-112.0","task_version":"test-retest-t2"},{"Rune":"rune_04_dagaz","Hex":"#ffcc3399","Correct":32,"Choice":32,"RT":323.0100000509992,"Accuracy":1,"Outcome":"+10","Keys":[1822.9999999748543],"TotalKeys":1,"Block":1,"Trial":107,"Robot":1,"Valence":"Win","Action":"Go","Sham":0,"Color":"yellow","trial_type":"pit-trial","trial_index":124,"time_elapsed":507773,"internal_node_id":"0.0-113.0","task_version":"test-retest-t2"},{"Rune":"rune_04_iwaz","Hex":"#ffcc3399","Correct":-1,"Choice":-1,"RT":-1,"Accuracy":1,"Outcome":"+10","Keys":[],"TotalKeys":0,"Block":1,"Trial":108,"Robot":2,"Valence":"Win","Action":"No-Go","Sham":0,"Color":"yellow","trial_type":"pit-trial","trial_index":125,"time_elapsed":511776,"internal_node_id":"0.0-114.0","task_version":"test-retest-t2"},{"Rune":"rune_04_wunjo","Hex":"#3366ff99","Correct":32,"Choice":32,"RT":541.510000010021,"Accuracy":1,"Outcome":"-1","Keys":[2041.5700000012293],"TotalKeys":1,"Block":1,"Trial":109,"Robot":3,"Valence":"Lose","Action":"Go","Sham":0,"Color":"blue","trial_type":"pit-trial","trial_index":126,"time_elapsed":514820,"internal_node_id":"0.0-115.0","task_version":"test-retest-t2"},{"Rune":"rune_04_iwaz","Hex":"#ffcc3399","Correct":-1,"Choice":-1,"RT":-1,"Accuracy":1,"Outcome":"+1","Keys":[],"TotalKeys":0,"Block":1,"Trial":110,"Robot":2,"Valence":"Win","Action":"No-Go","Sham":1,"Color":"yellow","trial_type":"pit-trial","trial_index":127,"time_elapsed":518824,"internal_node_id":"0.0-116.0","task_version":"test-retest-t2"},{"Rune":"rune_04_dagaz","Hex":"#ffcc3399","Correct":32,"Choice":32,"RT":292.5950000062585,"Accuracy":1,"Outcome":"+10","Keys":[1793.1600000010803],"TotalKeys":1,"Block":1,"Trial":111,"Robot":1,"Valence":"Win","Action":"Go","Sham":0,"Color":"yellow","trial_type":"pit-trial","trial_index":128,"time_elapsed":521620,"internal_node_id":"0.0-117.0","task_version":"test-retest-t2"},{"Rune":"rune_04_ac","Hex":"#3366ff99","Correct":-1,"Choice":32,"RT":1017.290000047069,"Accuracy":0,"Outcome":"-10","Keys":[2517.2899999888614],"TotalKeys":1,"Block":1,"Trial":112,"Robot":4,"Valence":"Lose","Action":"No-Go","Sham":0,"Color":"blue","trial_type":"pit-trial","trial_index":129,"time_elapsed":525140,"internal_node_id":"0.0-118.0","task_version":"test-retest-t2"},{"Rune":"rune_04_iwaz","Hex":"#ffcc3399","Correct":-1,"Choice":32,"RT":953.3649999648333,"Accuracy":0,"Outcome":"+1","Keys":[2453.589999990072],"TotalKeys":1,"Block":1,"Trial":113,"Robot":2,"Valence":"Win","Action":"No-Go","Sham":0,"Color":"yellow","trial_type":"pit-trial","trial_index":130,"time_elapsed":528597,"internal_node_id":"0.0-119.0","task_version":"test-retest-t2"},{"Rune":"rune_04_wunjo","Hex":"#3366ff99","Correct":32,"Choice":-1,"RT":-1,"Accuracy":0,"Outcome":"-10","Keys":[],"TotalKeys":0,"Block":1,"Trial":114,"Robot":3,"Valence":"Lose","Action":"Go","Sham":0,"Color":"blue","trial_type":"pit-trial","trial_index":131,"time_elapsed":532600,"internal_node_id":"0.0-120.0","task_version":"test-retest-t2"},{"Rune":"rune_04_ac","Hex":"#3366ff99","Correct":-1,"Choice":-1,"RT":-1,"Accuracy":1,"Outcome":"-10","Keys":[],"TotalKeys":0,"Block":1,"Trial":115,"Robot":4,"Valence":"Lose","Action":"No-Go","Sham":1,"Color":"blue","trial_type":"pit-trial","trial_index":132,"time_elapsed":536602,"internal_node_id":"0.0-121.0","task_version":"test-retest-t2"},{"Rune":"rune_04_dagaz","Hex":"#ffcc3399","Correct":32,"Choice":32,"RT":323.08000000193715,"Accuracy":1,"Outcome":"+10","Keys":[1823.110000055749],"TotalKeys":1,"Block":1,"Trial":116,"Robot":1,"Valence":"Win","Action":"Go","Sham":0,"Color":"yellow","trial_type":"pit-trial","trial_index":133,"time_elapsed":539428,"internal_node_id":"0.0-122.0","task_version":"test-retest-t2"},{"Rune":"rune_04_ac","Hex":"#3366ff99","Correct":-1,"Choice":-1,"RT":-1,"Accuracy":1,"Outcome":"-1","Keys":[],"TotalKeys":0,"Block":1,"Trial":117,"Robot":4,"Valence":"Lose","Action":"No-Go","Sham":0,"Color":"blue","trial_type":"pit-trial","trial_index":134,"time_elapsed":543431,"internal_node_id":"0.0-123.0","task_version":"test-retest-t2"},{"Rune":"rune_04_dagaz","Hex":"#ffcc3399","Correct":32,"Choice":32,"RT":366.1199999623932,"Accuracy":1,"Outcome":"+1","Keys":[1866.3750000414439],"TotalKeys":1,"Block":1,"Trial":118,"Robot":1,"Valence":"Win","Action":"Go","Sham":1,"Color":"yellow","trial_type":"pit-trial","trial_index":135,"time_elapsed":546299,"internal_node_id":"0.0-124.0","task_version":"test-retest-t2"},{"Rune":"rune_04_wunjo","Hex":"#3366ff99","Correct":32,"Choice":32,"RT":745.1349999755621,"Accuracy":1,"Outcome":"-1","Keys":[2245.8800000022165],"TotalKeys":1,"Block":1,"Trial":119,"Robot":3,"Valence":"Lose","Action":"Go","Sham":0,"Color":"blue","trial_type":"pit-trial","trial_index":136,"time_elapsed":549549,"internal_node_id":"0.0-125.0","task_version":"test-retest-t2"},{"Rune":"rune_04_iwaz","Hex":"#ffcc3399","Correct":-1,"Choice":-1,"RT":-1,"Accuracy":1,"Outcome":"+10","Keys":[],"TotalKeys":0,"Block":1,"Trial":120,"Robot":2,"Valence":"Win","Action":"No-Go","Sham":0,"Color":"yellow","trial_type":"pit-trial","trial_index":137,"time_elapsed":553552,"internal_node_id":"0.0-126.0","task_version":"test-retest-t2"},{"view_history":"[{\"page_index\":0,\"viewing_time\":2813.109999988228},{\"page_index\":1,\"viewing_time\":1674.8699999880046},{\"page_index\":2,\"viewing_time\":1002.3849999997765}]","rt":5490.720000001602,"trial_type":"pit-instructions","trial_index":138,"time_elapsed":559044,"internal_node_id":"0.0-127.0","task_version":"test-retest-t2"},{"Rune":"rune_03_algiz","Hex":"#3366ff99","Correct":32,"Choice":32,"RT":1094.8199999984354,"Accuracy":1,"Outcome":"-10","Keys":[2596.4699999894947],"TotalKeys":1,"Block":2,"Trial":121,"Robot":3,"Valence":"Lose","Action":"Go","Sham":1,"Color":"blue","trial_type":"pit-trial","trial_index":139,"time_elapsed":562644,"internal_node_id":"0.0-128.0","task_version":"test-retest-t2"},{"Rune":"rune_03_naudiz","Hex":"#ffcc3399","Correct":32,"Choice":-1,"RT":-1,"Accuracy":0,"Outcome":"+1","Keys":[],"TotalKeys":0,"Block":2,"Trial":122,"Robot":1,"Valence":"Win","Action":"Go","Sham":0,"Color":"yellow","trial_type":"pit-trial","trial_index":140,"time_elapsed":566648,"internal_node_id":"0.0-129.0","task_version":"test-retest-t2"},{"Rune":"rune_03_othalan","Hex":"#ffcc3399","Correct":-1,"Choice":32,"RT":516.9650000170805,"Accuracy":0,"Outcome":"+1","Keys":[2017.3899999936111],"TotalKeys":1,"Block":2,"Trial":123,"Robot":2,"Valence":"Win","Action":"No-Go","Sham":0,"Color":"yellow","trial_type":"pit-trial","trial_index":141,"time_elapsed":569668,"internal_node_id":"0.0-130.0","task_version":"test-retest-t2"},{"Rune":"rune_03_uruz","Hex":"#3366ff99","Correct":-1,"Choice":32,"RT":801.8649999867193,"Accuracy":0,"Outcome":"-10","Keys":[2302.0200000028126],"TotalKeys":1,"Block":2,"Trial":124,"Robot":4,"Valence":"Lose","Action":"No-Go","Sham":0,"Color":"blue","trial_type":"pit-trial","trial_index":142,"time_elapsed":572972,"internal_node_id":"0.0-131.0","task_version":"test-retest-t2"},{"Rune":"rune_03_uruz","Hex":"#3366ff99","Correct":-1,"Choice":-1,"RT":-1,"Accuracy":1,"Outcome":"-1","Keys":[],"TotalKeys":0,"Block":2,"Trial":125,"Robot":4,"Valence":"Lose","Action":"No-Go","Sham":0,"Color":"blue","trial_type":"pit-trial","trial_index":143,"time_elapsed":576976,"internal_node_id":"0.0-132.0","task_version":"test-retest-t2"},{"Rune":"rune_03_algiz","Hex":"#3366ff99","Correct":32,"Choice":-1,"RT":-1,"Accuracy":0,"Outcome":"-10","Keys":[],"TotalKeys":0,"Block":2,"Trial":126,"Robot":3,"Valence":"Lose","Action":"Go","Sham":0,"Color":"blue","trial_type":"pit-trial","trial_index":144,"time_elapsed":580979,"internal_node_id":"0.0-133.0","task_version":"test-retest-t2"},{"Rune":"rune_03_othalan","Hex":"#ffcc3399","Correct":-1,"Choice":-1,"RT":-1,"Accuracy":1,"Outcome":"+10","Keys":[],"TotalKeys":0,"Block":2,"Trial":127,"Robot":2,"Valence":"Win","Action":"No-Go","Sham":0,"Color":"yellow","trial_type":"pit-trial","trial_index":145,"time_elapsed":584981,"internal_node_id":"0.0-134.0","task_version":"test-retest-t2"},{"Rune":"rune_03_naudiz","Hex":"#ffcc3399","Correct":32,"Choice":-1,"RT":-1,"Accuracy":0,"Outcome":"+1","Keys":[],"TotalKeys":0,"Block":2,"Trial":128,"Robot":1,"Valence":"Win","Action":"Go","Sham":0,"Color":"yellow","trial_type":"pit-trial","trial_index":146,"time_elapsed":588986,"internal_node_id":"0.0-135.0","task_version":"test-retest-t2"},{"Rune":"rune_03_othalan","Hex":"#ffcc3399","Correct":-1,"Choice":32,"RT":523.0950000113808,"Accuracy":0,"Outcome":"+10","Keys":[2023.879999993369],"TotalKeys":1,"Block":2,"Trial":129,"Robot":2,"Valence":"Win","Action":"No-Go","Sham":1,"Color":"yellow","trial_type":"pit-trial","trial_index":147,"time_elapsed":592013,"internal_node_id":"0.0-136.0","task_version":"test-retest-t2"},{"Rune":"rune_03_uruz","Hex":"#3366ff99","Correct":-1,"Choice":-1,"RT":-1,"Accuracy":1,"Outcome":"-1","Keys":[],"TotalKeys":0,"Block":2,"Trial":130,"Robot":4,"Valence":"Lose","Action":"No-Go","Sham":0,"Color":"blue","trial_type":"pit-trial","trial_index":148,"time_elapsed":596015,"internal_node_id":"0.0-137.0","task_version":"test-retest-t2"},{"Rune":"rune_03_algiz","Hex":"#3366ff99","Correct":32,"Choice":-1,"RT":-1,"Accuracy":0,"Outcome":"-10","Keys":[],"TotalKeys":0,"Block":2,"Trial":131,"Robot":3,"Valence":"Lose","Action":"Go","Sham":0,"Color":"blue","trial_type":"pit-trial","trial_index":149,"time_elapsed":600019,"internal_node_id":"0.0-138.0","task_version":"test-retest-t2"},{"Rune":"rune_03_naudiz","Hex":"#ffcc3399","Correct":32,"Choice":-1,"RT":-1,"Accuracy":0,"Outcome":"+1","Keys":[],"TotalKeys":0,"Block":2,"Trial":132,"Robot":1,"Valence":"Win","Action":"Go","Sham":0,"Color":"yellow","trial_type":"pit-trial","trial_index":150,"time_elapsed":604023,"internal_node_id":"0.0-139.0","task_version":"test-retest-t2"},{"Rune":"rune_03_algiz","Hex":"#3366ff99","Correct":32,"Choice":-1,"RT":-1,"Accuracy":0,"Outcome":"-10","Keys":[],"TotalKeys":0,"Block":2,"Trial":133,"Robot":3,"Valence":"Lose","Action":"Go","Sham":0,"Color":"blue","trial_type":"pit-trial","trial_index":151,"time_elapsed":608028,"internal_node_id":"0.0-140.0","task_version":"test-retest-t2"},{"Rune":"rune_03_naudiz","Hex":"#ffcc3399","Correct":32,"Choice":32,"RT":721.8800000264309,"Accuracy":1,"Outcome":"+10","Keys":[2222.074999997858],"TotalKeys":1,"Block":2,"Trial":134,"Robot":1,"Valence":"Win","Action":"Go","Sham":0,"Color":"yellow","trial_type":"pit-trial","trial_index":152,"time_elapsed":611253,"internal_node_id":"0.0-141.0","task_version":"test-retest-t2"},{"Rune":"rune_03_othalan","Hex":"#ffcc3399","Correct":-1,"Choice":32,"RT":528.9399999892339,"Accuracy":0,"Outcome":"+1","Keys":[2029.355000006035],"TotalKeys":1,"Block":2,"Trial":135,"Robot":2,"Valence":"Win","Action":"No-Go","Sham":0,"Color":"yellow","trial_type":"pit-trial","trial_index":153,"time_elapsed":614285,"internal_node_id":"0.0-142.0","task_version":"test-retest-t2"},{"Rune":"rune_03_uruz","Hex":"#3366ff99","Correct":-1,"Choice":-1,"RT":-1,"Accuracy":1,"Outcome":"-1","Keys":[],"TotalKeys":0,"Block":2,"Trial":136,"Robot":4,"Valence":"Lose","Action":"No-Go","Sham":0,"Color":"blue","trial_type":"pit-trial","trial_index":154,"time_elapsed":618288,"internal_node_id":"0.0-143.0","task_version":"test-retest-t2"},{"Rune":"rune_03_uruz","Hex":"#3366ff99","Correct":-1,"Choice":-1,"RT":-1,"Accuracy":1,"Outcome":"-10","Keys":[],"TotalKeys":0,"Block":2,"Trial":137,"Robot":4,"Valence":"Lose","Action":"No-Go","Sham":1,"Color":"blue","trial_type":"pit-trial","trial_index":155,"time_elapsed":622291,"internal_node_id":"0.0-144.0","task_version":"test-retest-t2"},{"Rune":"rune_03_naudiz","Hex":"#ffcc3399","Correct":32,"Choice":32,"RT":1138.1099999998696,"Accuracy":1,"Outcome":"+1","Keys":[2639.179999998305],"TotalKeys":1,"Block":2,"Trial":138,"Robot":1,"Valence":"Win","Action":"Go","Sham":1,"Color":"yellow","trial_type":"pit-trial","trial_index":156,"time_elapsed":625932,"internal_node_id":"0.0-145.0","task_version":"test-retest-t2"},{"Rune":"rune_03_algiz","Hex":"#3366ff99","Correct":32,"Choice":32,"RT":1424.9600000330247,"Accuracy":1,"Outcome":"-1","Keys":[2925.1499999663793],"TotalKeys":1,"Block":2,"Trial":139,"Robot":3,"Valence":"Lose","Action":"Go","Sham":0,"Color":"blue","trial_type":"pit-trial","trial_index":157,"time_elapsed":629860,"internal_node_id":"0.0-146.0","task_version":"test-retest-t2"},{"Rune":"rune_03_othalan","Hex":"#ffcc3399","Correct":-1,"Choice":-1,"RT":-1,"Accuracy":1,"Outcome":"+10","Keys":[],"TotalKeys":0,"Block":2,"Trial":140,"Robot":2,"Valence":"Win","Action":"No-Go","Sham":0,"Color":"yellow","trial_type":"pit-trial","trial_index":158,"time_elapsed":633863,"internal_node_id":"0.0-147.0","task_version":"test-retest-t2"},{"Rune":"rune_03_uruz","Hex":"#3366ff99","Correct":-1,"Choice":32,"RT":1006.3499999814667,"Accuracy":0,"Outcome":"-10","Keys":[2506.549999990966],"TotalKeys":1,"Block":2,"Trial":141,"Robot":4,"Valence":"Lose","Action":"No-Go","Sham":0,"Color":"blue","trial_type":"pit-trial","trial_index":159,"time_elapsed":637372,"internal_node_id":"0.0-148.0","task_version":"test-retest-t2"},{"Rune":"rune_03_othalan","Hex":"#ffcc3399","Correct":-1,"Choice":-1,"RT":-1,"Accuracy":1,"Outcome":"+1","Keys":[],"TotalKeys":0,"Block":2,"Trial":142,"Robot":2,"Valence":"Win","Action":"No-Go","Sham":1,"Color":"yellow","trial_type":"pit-trial","trial_index":160,"time_elapsed":641375,"internal_node_id":"0.0-149.0","task_version":"test-retest-t2"},{"Rune":"rune_03_algiz","Hex":"#3366ff99","Correct":32,"Choice":32,"RT":718.445000005886,"Accuracy":1,"Outcome":"-1","Keys":[2218.65999995498],"TotalKeys":1,"Block":2,"Trial":143,"Robot":3,"Valence":"Lose","Action":"Go","Sham":0,"Color":"blue","trial_type":"pit-trial","trial_index":161,"time_elapsed":644597,"internal_node_id":"0.0-150.0","task_version":"test-retest-t2"},{"Rune":"rune_03_naudiz","Hex":"#ffcc3399","Correct":32,"Choice":32,"RT":552.6850000023842,"Accuracy":1,"Outcome":"+10","Keys":[2052.735000033863],"TotalKeys":1,"Block":2,"Trial":144,"Robot":1,"Valence":"Win","Action":"Go","Sham":0,"Color":"yellow","trial_type":"pit-trial","trial_index":162,"time_elapsed":647652,"internal_node_id":"0.0-151.0","task_version":"test-retest-t2"},{"Rune":"rune_03_uruz","Hex":"#3366ff99","Correct":-1,"Choice":-1,"RT":-1,"Accuracy":1,"Outcome":"-10","Keys":[],"TotalKeys":0,"Block":2,"Trial":145,"Robot":4,"Valence":"Lose","Action":"No-Go","Sham":1,"Color":"blue","trial_type":"pit-trial","trial_index":163,"time_elapsed":651654,"internal_node_id":"0.0-152.0","task_version":"test-retest-t2"},{"Rune":"rune_03_othalan","Hex":"#ffcc3399","Correct":-1,"Choice":-1,"RT":-1,"Accuracy":1,"Outcome":"+10","Keys":[],"TotalKeys":0,"Block":2,"Trial":146,"Robot":2,"Valence":"Win","Action":"No-Go","Sham":0,"Color":"yellow","trial_type":"pit-trial","trial_index":164,"time_elapsed":655658,"internal_node_id":"0.0-153.0","task_version":"test-retest-t2"},{"Rune":"rune_03_naudiz","Hex":"#ffcc3399","Correct":32,"Choice":32,"RT":371.78500002482906,"Accuracy":1,"Outcome":"+10","Keys":[1871.9400000409223],"TotalKeys":1,"Block":2,"Trial":147,"Robot":1,"Valence":"Win","Action":"Go","Sham":0,"Color":"yellow","trial_type":"pit-trial","trial_index":165,"time_elapsed":658532,"internal_node_id":"0.0-154.0","task_version":"test-retest-t2"},{"Rune":"rune_03_algiz","Hex":"#3366ff99","Correct":32,"Choice":32,"RT":353.25500002363697,"Accuracy":1,"Outcome":"-10","Keys":[1853.7950000027195],"TotalKeys":1,"Block":2,"Trial":148,"Robot":3,"Valence":"Lose","Action":"Go","Sham":1,"Color":"blue","trial_type":"pit-trial","trial_index":166,"time_elapsed":661388,"internal_node_id":"0.0-155.0","task_version":"test-retest-t2"},{"Rune":"rune_03_uruz","Hex":"#3366ff99","Correct":-1,"Choice":32,"RT":952.1550000063144,"Accuracy":0,"Outcome":"-10","Keys":[2453.235000022687],"TotalKeys":1,"Block":2,"Trial":149,"Robot":4,"Valence":"Lose","Action":"No-Go","Sham":0,"Color":"blue","trial_type":"pit-trial","trial_index":167,"time_elapsed":664844,"internal_node_id":"0.0-156.0","task_version":"test-retest-t2"},{"Rune":"rune_03_naudiz","Hex":"#ffcc3399","Correct":32,"Choice":32,"RT":489.1200000420213,"Accuracy":1,"Outcome":"+10","Keys":[1989.449999993667],"TotalKeys":1,"Block":2,"Trial":150,"Robot":1,"Valence":"Win","Action":"Go","Sham":0,"Color":"yellow","trial_type":"pit-trial","trial_index":168,"time_elapsed":667836,"internal_node_id":"0.0-157.0","task_version":"test-retest-t2"},{"Rune":"rune_03_othalan","Hex":"#ffcc3399","Correct":-1,"Choice":-1,"RT":-1,"Accuracy":1,"Outcome":"+10","Keys":[],"TotalKeys":0,"Block":2,"Trial":151,"Robot":2,"Valence":"Win","Action":"No-Go","Sham":0,"Color":"yellow","trial_type":"pit-trial","trial_index":169,"time_elapsed":671840,"internal_node_id":"0.0-158.0","task_version":"test-retest-t2"},{"Rune":"rune_03_algiz","Hex":"#3366ff99","Correct":32,"Choice":32,"RT":476.2800000025891,"Accuracy":1,"Outcome":"-1","Keys":[1977.8950000181794],"TotalKeys":1,"Block":2,"Trial":152,"Robot":3,"Valence":"Lose","Action":"Go","Sham":0,"Color":"blue","trial_type":"pit-trial","trial_index":170,"time_elapsed":674820,"internal_node_id":"0.0-159.0","task_version":"test-retest-t2"},{"Rune":"rune_03_naudiz","Hex":"#ffcc3399","Correct":32,"Choice":32,"RT":440.535000001546,"Accuracy":1,"Outcome":"+10","Keys":[1941.419999988284],"TotalKeys":1,"Block":2,"Trial":153,"Robot":1,"Valence":"Win","Action":"Go","Sham":0,"Color":"yellow","trial_type":"pit-trial","trial_index":171,"time_elapsed":677763,"internal_node_id":"0.0-160.0","task_version":"test-retest-t2"},{"Rune":"rune_03_uruz","Hex":"#3366ff99","Correct":-1,"Choice":32,"RT":561.8100000428967,"Accuracy":0,"Outcome":"-10","Keys":[2061.969999980647],"TotalKeys":1,"Block":2,"Trial":154,"Robot":4,"Valence":"Lose","Action":"No-Go","Sham":0,"Color":"blue","trial_type":"pit-trial","trial_index":172,"time_elapsed":680829,"internal_node_id":"0.0-161.0","task_version":"test-retest-t2"},{"Rune":"rune_03_othalan","Hex":"#ffcc3399","Correct":-1,"Choice":-1,"RT":-1,"Accuracy":1,"Outcome":"+10","Keys":[],"TotalKeys":0,"Block":2,"Trial":155,"Robot":2,"Valence":"Win","Action":"No-Go","Sham":0,"Color":"yellow","trial_type":"pit-trial","trial_index":173,"time_elapsed":684831,"internal_node_id":"0.0-162.0","task_version":"test-retest-t2"},{"Rune":"rune_03_algiz","Hex":"#3366ff99","Correct":32,"Choice":32,"RT":990.2950000250712,"Accuracy":1,"Outcome":"-1","Keys":[2490.3400000184774],"TotalKeys":1,"Block":2,"Trial":156,"Robot":3,"Valence":"Lose","Action":"Go","Sham":0,"Color":"blue","trial_type":"pit-trial","trial_index":174,"time_elapsed":688323,"internal_node_id":"0.0-163.0","task_version":"test-retest-t2"},{"Rune":"rune_03_uruz","Hex":"#3366ff99","Correct":-1,"Choice":32,"RT":952.9650000040419,"Accuracy":0,"Outcome":"-10","Keys":[2453.6450000014156],"TotalKeys":1,"Block":2,"Trial":157,"Robot":4,"Valence":"Lose","Action":"No-Go","Sham":0,"Color":"blue","trial_type":"pit-trial","trial_index":175,"time_elapsed":691779,"internal_node_id":"0.0-164.0","task_version":"test-retest-t2"},{"Rune":"rune_03_algiz","Hex":"#3366ff99","Correct":32,"Choice":32,"RT":1225.624999962747,"Accuracy":1,"Outcome":"-1","Keys":[2726.0649999952875],"TotalKeys":1,"Block":2,"Trial":158,"Robot":3,"Valence":"Lose","Action":"Go","Sham":0,"Color":"blue","trial_type":"pit-trial","trial_index":176,"time_elapsed":695508,"internal_node_id":"0.0-165.0","task_version":"test-retest-t2"},{"Rune":"rune_03_othalan","Hex":"#ffcc3399","Correct":-1,"Choice":-1,"RT":-1,"Accuracy":1,"Outcome":"+10","Keys":[],"TotalKeys":0,"Block":2,"Trial":159,"Robot":2,"Valence":"Win","Action":"No-Go","Sham":0,"Color":"yellow","trial_type":"pit-trial","trial_index":177,"time_elapsed":699511,"internal_node_id":"0.0-166.0","task_version":"test-retest-t2"},{"Rune":"rune_03_naudiz","Hex":"#ffcc3399","Correct":32,"Choice":32,"RT":598.7500000046566,"Accuracy":1,"Outcome":"+1","Keys":[2098.999999987427],"TotalKeys":1,"Block":2,"Trial":160,"Robot":1,"Valence":"Win","Action":"Go","Sham":1,"Color":"yellow","trial_type":"pit-trial","trial_index":178,"time_elapsed":702612,"internal_node_id":"0.0-167.0","task_version":"test-retest-t2"},{"Rune":"rune_03_naudiz","Hex":"#ffcc3399","Correct":32,"Choice":-1,"RT":-1,"Accuracy":0,"Outcome":"+1","Keys":[3013.4149999939837],"TotalKeys":1,"Block":2,"Trial":161,"Robot":1,"Valence":"Win","Action":"Go","Sham":0,"Color":"yellow","trial_type":"pit-trial","trial_index":179,"time_elapsed":706615,"internal_node_id":"0.0-168.0","task_version":"test-retest-t2"},{"Rune":"rune_03_uruz","Hex":"#3366ff99","Correct":-1,"Choice":-1,"RT":-1,"Accuracy":1,"Outcome":"-1","Keys":[],"TotalKeys":0,"Block":2,"Trial":162,"Robot":4,"Valence":"Lose","Action":"No-Go","Sham":0,"Color":"blue","trial_type":"pit-trial","trial_index":180,"time_elapsed":710618,"internal_node_id":"0.0-169.0","task_version":"test-retest-t2"},{"Rune":"rune_03_othalan","Hex":"#ffcc3399","Correct":-1,"Choice":-1,"RT":-1,"Accuracy":1,"Outcome":"+10","Keys":[],"TotalKeys":0,"Block":2,"Trial":163,"Robot":2,"Valence":"Win","Action":"No-Go","Sham":0,"Color":"yellow","trial_type":"pit-trial","trial_index":181,"time_elapsed":714620,"internal_node_id":"0.0-170.0","task_version":"test-retest-t2"},{"Rune":"rune_03_algiz","Hex":"#3366ff99","Correct":32,"Choice":-1,"RT":-1,"Accuracy":0,"Outcome":"-10","Keys":[],"TotalKeys":0,"Block":2,"Trial":164,"Robot":3,"Valence":"Lose","Action":"Go","Sham":0,"Color":"blue","trial_type":"pit-trial","trial_index":182,"time_elapsed":718623,"internal_node_id":"0.0-171.0","task_version":"test-retest-t2"},{"Rune":"rune_03_naudiz","Hex":"#ffcc3399","Correct":32,"Choice":-1,"RT":-1,"Accuracy":0,"Outcome":"+1","Keys":[],"TotalKeys":0,"Block":2,"Trial":165,"Robot":1,"Valence":"Win","Action":"Go","Sham":0,"Color":"yellow","trial_type":"pit-trial","trial_index":183,"time_elapsed":722627,"internal_node_id":"0.0-172.0","task_version":"test-retest-t2"},{"Rune":"rune_03_othalan","Hex":"#ffcc3399","Correct":-1,"Choice":-1,"RT":-1,"Accuracy":1,"Outcome":"+10","Keys":[],"TotalKeys":0,"Block":2,"Trial":166,"Robot":2,"Valence":"Win","Action":"No-Go","Sham":0,"Color":"yellow","trial_type":"pit-trial","trial_index":184,"time_elapsed":726630,"internal_node_id":"0.0-173.0","task_version":"test-retest-t2"},{"Rune":"rune_03_algiz","Hex":"#3366ff99","Correct":32,"Choice":32,"RT":774.8300000093877,"Accuracy":1,"Outcome":"-10","Keys":[2275.2999999793246],"TotalKeys":1,"Block":2,"Trial":167,"Robot":3,"Valence":"Lose","Action":"Go","Sham":1,"Color":"blue","trial_type":"pit-trial","trial_index":185,"time_elapsed":729908,"internal_node_id":"0.0-174.0","task_version":"test-retest-t2"},{"Rune":"rune_03_uruz","Hex":"#3366ff99","Correct":-1,"Choice":-1,"RT":-1,"Accuracy":1,"Outcome":"-1","Keys":[],"TotalKeys":0,"Block":2,"Trial":168,"Robot":4,"Valence":"Lose","Action":"No-Go","Sham":0,"Color":"blue","trial_type":"pit-trial","trial_index":186,"time_elapsed":733911,"internal_node_id":"0.0-175.0","task_version":"test-retest-t2"},{"Rune":"rune_03_naudiz","Hex":"#ffcc3399","Correct":32,"Choice":32,"RT":789.7900000098161,"Accuracy":1,"Outcome":"+10","Keys":[2290.8100000349805],"TotalKeys":1,"Block":2,"Trial":169,"Robot":1,"Valence":"Win","Action":"Go","Sham":0,"Color":"yellow","trial_type":"pit-trial","trial_index":187,"time_elapsed":737205,"internal_node_id":"0.0-176.0","task_version":"test-retest-t2"},{"Rune":"rune_03_algiz","Hex":"#3366ff99","Correct":32,"Choice":-1,"RT":-1,"Accuracy":0,"Outcome":"-10","Keys":[],"TotalKeys":0,"Block":2,"Trial":170,"Robot":3,"Valence":"Lose","Action":"Go","Sham":0,"Color":"blue","trial_type":"pit-trial","trial_index":188,"time_elapsed":741209,"internal_node_id":"0.0-177.0","task_version":"test-retest-t2"},{"Rune":"rune_03_othalan","Hex":"#ffcc3399","Correct":-1,"Choice":-1,"RT":-1,"Accuracy":1,"Outcome":"+10","Keys":[],"TotalKeys":0,"Block":2,"Trial":171,"Robot":2,"Valence":"Win","Action":"No-Go","Sham":0,"Color":"yellow","trial_type":"pit-trial","trial_index":189,"time_elapsed":745213,"internal_node_id":"0.0-178.0","task_version":"test-retest-t2"},{"Rune":"rune_03_uruz","Hex":"#3366ff99","Correct":-1,"Choice":-1,"RT":-1,"Accuracy":1,"Outcome":"-1","Keys":[3028.195000020787],"TotalKeys":1,"Block":2,"Trial":172,"Robot":4,"Valence":"Lose","Action":"No-Go","Sham":0,"Color":"blue","trial_type":"pit-trial","trial_index":190,"time_elapsed":749216,"internal_node_id":"0.0-179.0","task_version":"test-retest-t2"},{"Rune":"rune_03_othalan","Hex":"#ffcc3399","Correct":-1,"Choice":-1,"RT":-1,"Accuracy":1,"Outcome":"+1","Keys":[],"TotalKeys":0,"Block":2,"Trial":173,"Robot":2,"Valence":"Win","Action":"No-Go","Sham":1,"Color":"yellow","trial_type":"pit-trial","trial_index":191,"time_elapsed":753219,"internal_node_id":"0.0-180.0","task_version":"test-retest-t2"},{"Rune":"rune_03_naudiz","Hex":"#ffcc3399","Correct":32,"Choice":-1,"RT":-1,"Accuracy":0,"Outcome":"+10","Keys":[],"TotalKeys":0,"Block":2,"Trial":174,"Robot":1,"Valence":"Win","Action":"Go","Sham":1,"Color":"yellow","trial_type":"pit-trial","trial_index":192,"time_elapsed":757224,"internal_node_id":"0.0-181.0","task_version":"test-retest-t2"},{"Rune":"rune_03_algiz","Hex":"#3366ff99","Correct":32,"Choice":-1,"RT":-1,"Accuracy":0,"Outcome":"-10","Keys":[],"TotalKeys":0,"Block":2,"Trial":175,"Robot":3,"Valence":"Lose","Action":"Go","Sham":0,"Color":"blue","trial_type":"pit-trial","trial_index":193,"time_elapsed":761227,"internal_node_id":"0.0-182.0","task_version":"test-retest-t2"},{"Rune":"rune_03_uruz","Hex":"#3366ff99","Correct":-1,"Choice":-1,"RT":-1,"Accuracy":1,"Outcome":"-1","Keys":[],"TotalKeys":0,"Block":2,"Trial":176,"Robot":4,"Valence":"Lose","Action":"No-Go","Sham":0,"Color":"blue","trial_type":"pit-trial","trial_index":194,"time_elapsed":765232,"internal_node_id":"0.0-183.0","task_version":"test-retest-t2"},{"Rune":"rune_03_uruz","Hex":"#3366ff99","Correct":-1,"Choice":-1,"RT":-1,"Accuracy":1,"Outcome":"-10","Keys":[],"TotalKeys":0,"Block":2,"Trial":177,"Robot":4,"Valence":"Lose","Action":"No-Go","Sham":1,"Color":"blue","trial_type":"pit-trial","trial_index":195,"time_elapsed":769235,"internal_node_id":"0.0-184.0","task_version":"test-retest-t2"},{"Rune":"rune_03_othalan","Hex":"#ffcc3399","Correct":-1,"Choice":32,"RT":825.3849999746308,"Accuracy":0,"Outcome":"+1","Keys":[2326.2850000173785],"TotalKeys":1,"Block":2,"Trial":178,"Robot":2,"Valence":"Win","Action":"No-Go","Sham":0,"Color":"yellow","trial_type":"pit-trial","trial_index":196,"time_elapsed":772564,"internal_node_id":"0.0-185.0","task_version":"test-retest-t2"},{"Rune":"rune_03_algiz","Hex":"#3366ff99","Correct":32,"Choice":-1,"RT":-1,"Accuracy":0,"Outcome":"-10","Keys":[],"TotalKeys":0,"Block":2,"Trial":179,"Robot":3,"Valence":"Lose","Action":"Go","Sham":0,"Color":"blue","trial_type":"pit-trial","trial_index":197,"time_elapsed":776567,"internal_node_id":"0.0-186.0","task_version":"test-retest-t2"},{"Rune":"rune_03_naudiz","Hex":"#ffcc3399","Correct":32,"Choice":-1,"RT":-1,"Accuracy":0,"Outcome":"+1","Keys":[],"TotalKeys":0,"Block":2,"Trial":180,"Robot":1,"Valence":"Win","Action":"Go","Sham":0,"Color":"yellow","trial_type":"pit-trial","trial_index":198,"time_elapsed":780571,"internal_node_id":"0.0-187.0","task_version":"test-retest-t2"},{"view_history":"[{\"page_index\":0,\"viewing_time\":25398.25500000734},{\"page_index\":1,\"viewing_time\":1395.1799999922514}]","rt":26793.795000005048,"trial_type":"pit-instructions","trial_index":199,"time_elapsed":807365,"internal_node_id":"0.0-188.0","task_version":"test-retest-t2"},{"Rune":"rune_03_naudiz","Hex":"#ffcc3399","Correct":32,"Choice":32,"RT":1238.3799999952316,"Accuracy":1,"Outcome":"+10","Keys":[2739.0599999926053],"TotalKeys":1,"Block":2,"Trial":181,"Robot":1,"Valence":"Win","Action":"Go","Sham":0,"Color":"yellow","trial_type":"pit-trial","trial_index":200,"time_elapsed":811107,"internal_node_id":"0.0-189.0","task_version":"test-retest-t2"},{"Rune":"rune_03_algiz","Hex":"#3366ff99","Correct":32,"Choice":32,"RT":809.4600000185892,"Accuracy":1,"Outcome":"-1","Keys":[2309.4749999581836],"TotalKeys":1,"Block":2,"Trial":182,"Robot":3,"Valence":"Lose","Action":"Go","Sham":0,"Color":"blue","trial_type":"pit-trial","trial_index":201,"time_elapsed":814419,"internal_node_id":"0.0-190.0","task_version":"test-retest-t2"},{"Rune":"rune_03_othalan","Hex":"#ffcc3399","Correct":-1,"Choice":-1,"RT":-1,"Accuracy":1,"Outcome":"+10","Keys":[],"TotalKeys":0,"Block":2,"Trial":183,"Robot":2,"Valence":"Win","Action":"No-Go","Sham":0,"Color":"yellow","trial_type":"pit-trial","trial_index":202,"time_elapsed":818422,"internal_node_id":"0.0-191.0","task_version":"test-retest-t2"},{"Rune":"rune_03_uruz","Hex":"#3366ff99","Correct":-1,"Choice":32,"RT":751.4150000060908,"Accuracy":0,"Outcome":"-10","Keys":[2251.879999996163],"TotalKeys":1,"Block":2,"Trial":184,"Robot":4,"Valence":"Lose","Action":"No-Go","Sham":0,"Color":"blue","trial_type":"pit-trial","trial_index":203,"time_elapsed":821676,"internal_node_id":"0.0-192.0","task_version":"test-retest-t2"},{"Rune":"rune_03_algiz","Hex":"#3366ff99","Correct":32,"Choice":32,"RT":648.430000001099,"Accuracy":1,"Outcome":"-1","Keys":[2149.245000036899],"TotalKeys":1,"Block":2,"Trial":185,"Robot":3,"Valence":"Lose","Action":"Go","Sham":0,"Color":"blue","trial_type":"pit-trial","trial_index":204,"time_elapsed":824828,"internal_node_id":"0.0-193.0","task_version":"test-retest-t2"},{"Rune":"rune_03_naudiz","Hex":"#ffcc3399","Correct":32,"Choice":32,"RT":864.3350000493228,"Accuracy":1,"Outcome":"+10","Keys":[2364.7950000013225],"TotalKeys":1,"Block":2,"Trial":186,"Robot":1,"Valence":"Win","Action":"Go","Sham":0,"Color":"yellow","trial_type":"pit-trial","trial_index":205,"time_elapsed":828195,"internal_node_id":"0.0-194.0","task_version":"test-retest-t2"},{"Rune":"rune_03_uruz","Hex":"#3366ff99","Correct":-1,"Choice":-1,"RT":-1,"Accuracy":1,"Outcome":"-1","Keys":[],"TotalKeys":0,"Block":2,"Trial":187,"Robot":4,"Valence":"Lose","Action":"No-Go","Sham":0,"Color":"blue","trial_type":"pit-trial","trial_index":206,"time_elapsed":832199,"internal_node_id":"0.0-195.0","task_version":"test-retest-t2"},{"Rune":"rune_03_othalan","Hex":"#ffcc3399","Correct":-1,"Choice":-1,"RT":-1,"Accuracy":1,"Outcome":"+1","Keys":[],"TotalKeys":0,"Block":2,"Trial":188,"Robot":2,"Valence":"Win","Action":"No-Go","Sham":1,"Color":"yellow","trial_type":"pit-trial","trial_index":207,"time_elapsed":836203,"internal_node_id":"0.0-196.0","task_version":"test-retest-t2"},{"Rune":"rune_03_algiz","Hex":"#3366ff99","Correct":32,"Choice":32,"RT":792.3399999854155,"Accuracy":1,"Outcome":"-10","Keys":[2293.744999973569],"TotalKeys":1,"Block":2,"Trial":189,"Robot":3,"Valence":"Lose","Action":"Go","Sham":1,"Color":"blue","trial_type":"pit-trial","trial_index":208,"time_elapsed":839500,"internal_node_id":"0.0-197.0","task_version":"test-retest-t2"},{"Rune":"rune_03_othalan","Hex":"#ffcc3399","Correct":-1,"Choice":32,"RT":848.6399999819696,"Accuracy":0,"Outcome":"+1","Keys":[2348.844999971334],"TotalKeys":1,"Block":2,"Trial":190,"Robot":2,"Valence":"Win","Action":"No-Go","Sham":0,"Color":"yellow","trial_type":"pit-trial","trial_index":209,"time_elapsed":842852,"internal_node_id":"0.0-198.0","task_version":"test-retest-t2"},{"Rune":"rune_03_naudiz","Hex":"#ffcc3399","Correct":32,"Choice":-1,"RT":-1,"Accuracy":0,"Outcome":"+1","Keys":[],"TotalKeys":0,"Block":2,"Trial":191,"Robot":1,"Valence":"Win","Action":"Go","Sham":0,"Color":"yellow","trial_type":"pit-trial","trial_index":210,"time_elapsed":846855,"internal_node_id":"0.0-199.0","task_version":"test-retest-t2"},{"Rune":"rune_03_uruz","Hex":"#3366ff99","Correct":-1,"Choice":32,"RT":877.1100000012666,"Accuracy":0,"Outcome":"-10","Keys":[2377.6500000385568],"TotalKeys":1,"Block":2,"Trial":192,"Robot":4,"Valence":"Lose","Action":"No-Go","Sham":0,"Color":"blue","trial_type":"pit-trial","trial_index":211,"time_elapsed":850236,"internal_node_id":"0.0-200.0","task_version":"test-retest-t2"},{"Rune":"rune_03_naudiz","Hex":"#ffcc3399","Correct":32,"Choice":-1,"RT":-1,"Accuracy":0,"Outcome":"+1","Keys":[],"TotalKeys":0,"Block":2,"Trial":193,"Robot":1,"Valence":"Win","Action":"Go","Sham":0,"Color":"yellow","trial_type":"pit-trial","trial_index":212,"time_elapsed":854239,"internal_node_id":"0.0-201.0","task_version":"test-retest-t2"},{"Rune":"rune_03_othalan","Hex":"#ffcc3399","Correct":-1,"Choice":32,"RT":885.4149999679066,"Accuracy":0,"Outcome":"+1","Keys":[2386.2349999835715],"TotalKeys":1,"Block":2,"Trial":194,"Robot":2,"Valence":"Win","Action":"No-Go","Sham":0,"Color":"yellow","trial_type":"pit-trial","trial_index":213,"time_elapsed":857628,"internal_node_id":"0.0-202.0","task_version":"test-retest-t2"},{"Rune":"rune_03_algiz","Hex":"#3366ff99","Correct":32,"Choice":32,"RT":672.6550000021234,"Accuracy":1,"Outcome":"-1","Keys":[2172.870000009425],"TotalKeys":1,"Block":2,"Trial":195,"Robot":3,"Valence":"Lose","Action":"Go","Sham":0,"Color":"blue","trial_type":"pit-trial","trial_index":214,"time_elapsed":860803,"internal_node_id":"0.0-203.0","task_version":"test-retest-t2"},{"Rune":"rune_03_uruz","Hex":"#3366ff99","Correct":-1,"Choice":-1,"RT":-1,"Accuracy":1,"Outcome":"-10","Keys":[],"TotalKeys":0,"Block":2,"Trial":196,"Robot":4,"Valence":"Lose","Action":"No-Go","Sham":1,"Color":"blue","trial_type":"pit-trial","trial_index":215,"time_elapsed":864808,"internal_node_id":"0.0-204.0","task_version":"test-retest-t2"},{"Rune":"rune_03_uruz","Hex":"#3366ff99","Correct":-1,"Choice":32,"RT":572.3299999954179,"Accuracy":0,"Outcome":"-10","Keys":[2072.909999988042],"TotalKeys":1,"Block":2,"Trial":197,"Robot":4,"Valence":"Lose","Action":"No-Go","Sham":0,"Color":"blue","trial_type":"pit-trial","trial_index":216,"time_elapsed":867884,"internal_node_id":"0.0-205.0","task_version":"test-retest-t2"},{"Rune":"rune_03_othalan","Hex":"#ffcc3399","Correct":-1,"Choice":-1,"RT":-1,"Accuracy":1,"Outcome":"+10","Keys":[],"TotalKeys":0,"Block":2,"Trial":198,"Robot":2,"Valence":"Win","Action":"No-Go","Sham":0,"Color":"yellow","trial_type":"pit-trial","trial_index":217,"time_elapsed":871887,"internal_node_id":"0.0-206.0","task_version":"test-retest-t2"},{"Rune":"rune_03_algiz","Hex":"#3366ff99","Correct":32,"Choice":32,"RT":646.0199999855831,"Accuracy":1,"Outcome":"-1","Keys":[2146.2899999460205],"TotalKeys":1,"Block":2,"Trial":199,"Robot":3,"Valence":"Lose","Action":"Go","Sham":0,"Color":"blue","trial_type":"pit-trial","trial_index":218,"time_elapsed":875037,"internal_node_id":"0.0-207.0","task_version":"test-retest-t2"},{"Rune":"rune_03_naudiz","Hex":"#ffcc3399","Correct":32,"Choice":32,"RT":671.5500000282191,"Accuracy":1,"Outcome":"+1","Keys":[2172.290000016801],"TotalKeys":1,"Block":2,"Trial":200,"Robot":1,"Valence":"Win","Action":"Go","Sham":1,"Color":"yellow","trial_type":"pit-trial","trial_index":219,"time_elapsed":878213,"internal_node_id":"0.0-208.0","task_version":"test-retest-t2"},{"Rune":"rune_03_uruz","Hex":"#3366ff99","Correct":-1,"Choice":32,"RT":696.4150000130758,"Accuracy":0,"Outcome":"-10","Keys":[2196.570000029169],"TotalKeys":1,"Block":2,"Trial":201,"Robot":4,"Valence":"Lose","Action":"No-Go","Sham":0,"Color":"blue","trial_type":"pit-trial","trial_index":220,"time_elapsed":881411,"internal_node_id":"0.0-209.0","task_version":"test-retest-t2"},{"Rune":"rune_03_naudiz","Hex":"#ffcc3399","Correct":32,"Choice":-1,"RT":-1,"Accuracy":0,"Outcome":"+1","Keys":[],"TotalKeys":0,"Block":2,"Trial":202,"Robot":1,"Valence":"Win","Action":"Go","Sham":0,"Color":"yellow","trial_type":"pit-trial","trial_index":221,"time_elapsed":885415,"internal_node_id":"0.0-210.0","task_version":"test-retest-t2"},{"Rune":"rune_03_othalan","Hex":"#ffcc3399","Correct":-1,"Choice":-1,"RT":-1,"Accuracy":1,"Outcome":"+10","Keys":[],"TotalKeys":0,"Block":2,"Trial":203,"Robot":2,"Valence":"Win","Action":"No-Go","Sham":0,"Color":"yellow","trial_type":"pit-trial","trial_index":222,"time_elapsed":889418,"internal_node_id":"0.0-211.0","task_version":"test-retest-t2"},{"Rune":"rune_03_algiz","Hex":"#3366ff99","Correct":32,"Choice":32,"RT":738.0100000300445,"Accuracy":1,"Outcome":"-1","Keys":[2239.4949999870732],"TotalKeys":1,"Block":2,"Trial":204,"Robot":3,"Valence":"Lose","Action":"Go","Sham":0,"Color":"blue","trial_type":"pit-trial","trial_index":223,"time_elapsed":892660,"internal_node_id":"0.0-212.0","task_version":"test-retest-t2"},{"Rune":"rune_03_uruz","Hex":"#3366ff99","Correct":-1,"Choice":-1,"RT":-1,"Accuracy":1,"Outcome":"-1","Keys":[],"TotalKeys":0,"Block":2,"Trial":205,"Robot":4,"Valence":"Lose","Action":"No-Go","Sham":0,"Color":"blue","trial_type":"pit-trial","trial_index":224,"time_elapsed":896663,"internal_node_id":"0.0-213.0","task_version":"test-retest-t2"},{"Rune":"rune_03_naudiz","Hex":"#ffcc3399","Correct":32,"Choice":32,"RT":710.4249999974854,"Accuracy":1,"Outcome":"+1","Keys":[2210.8949999674223],"TotalKeys":1,"Block":2,"Trial":206,"Robot":1,"Valence":"Win","Action":"Go","Sham":1,"Color":"yellow","trial_type":"pit-trial","trial_index":225,"time_elapsed":899876,"internal_node_id":"0.0-214.0","task_version":"test-retest-t2"},{"Rune":"rune_03_othalan","Hex":"#ffcc3399","Correct":-1,"Choice":-1,"RT":-1,"Accuracy":1,"Outcome":"+10","Keys":[],"TotalKeys":0,"Block":2,"Trial":207,"Robot":2,"Valence":"Win","Action":"No-Go","Sham":0,"Color":"yellow","trial_type":"pit-trial","trial_index":226,"time_elapsed":903880,"internal_node_id":"0.0-215.0","task_version":"test-retest-t2"},{"Rune":"rune_03_algiz","Hex":"#3366ff99","Correct":32,"Choice":32,"RT":605.5400000186637,"Accuracy":1,"Outcome":"-1","Keys":[2106.1200000112876],"TotalKeys":1,"Block":2,"Trial":208,"Robot":3,"Valence":"Lose","Action":"Go","Sham":0,"Color":"blue","trial_type":"pit-trial","trial_index":227,"time_elapsed":906988,"internal_node_id":"0.0-216.0","task_version":"test-retest-t2"},{"Rune":"rune_03_othalan","Hex":"#ffcc3399","Correct":-1,"Choice":-1,"RT":-1,"Accuracy":1,"Outcome":"+10","Keys":[],"TotalKeys":0,"Block":2,"Trial":209,"Robot":2,"Valence":"Win","Action":"No-Go","Sham":0,"Color":"yellow","trial_type":"pit-trial","trial_index":228,"time_elapsed":910992,"internal_node_id":"0.0-217.0","task_version":"test-retest-t2"},{"Rune":"rune_03_naudiz","Hex":"#ffcc3399","Correct":32,"Choice":32,"RT":989.415000018198,"Accuracy":1,"Outcome":"+10","Keys":[2489.6799999987707],"TotalKeys":1,"Block":2,"Trial":210,"Robot":1,"Valence":"Win","Action":"Go","Sham":0,"Color":"yellow","trial_type":"pit-trial","trial_index":229,"time_elapsed":914483,"internal_node_id":"0.0-218.0","task_version":"test-retest-t2"},{"Rune":"rune_03_algiz","Hex":"#3366ff99","Correct":32,"Choice":32,"RT":944.9000000022352,"Accuracy":1,"Outcome":"-10","Keys":[2446.1599999922328],"TotalKeys":1,"Block":2,"Trial":211,"Robot":3,"Valence":"Lose","Action":"Go","Sham":1,"Color":"blue","trial_type":"pit-trial","trial_index":230,"time_elapsed":917932,"internal_node_id":"0.0-219.0","task_version":"test-retest-t2"},{"Rune":"rune_03_uruz","Hex":"#3366ff99","Correct":-1,"Choice":-1,"RT":-1,"Accuracy":1,"Outcome":"-1","Keys":[],"TotalKeys":0,"Block":2,"Trial":212,"Robot":4,"Valence":"Lose","Action":"No-Go","Sham":0,"Color":"blue","trial_type":"pit-trial","trial_index":231,"time_elapsed":921935,"internal_node_id":"0.0-220.0","task_version":"test-retest-t2"},{"Rune":"rune_03_algiz","Hex":"#3366ff99","Correct":32,"Choice":32,"RT":1134.6400000038557,"Accuracy":1,"Outcome":"-1","Keys":[2634.714999992866],"TotalKeys":1,"Block":2,"Trial":213,"Robot":3,"Valence":"Lose","Action":"Go","Sham":0,"Color":"blue","trial_type":"pit-trial","trial_index":232,"time_elapsed":925572,"internal_node_id":"0.0-221.0","task_version":"test-retest-t2"},{"Rune":"rune_03_othalan","Hex":"#ffcc3399","Correct":-1,"Choice":-1,"RT":-1,"Accuracy":1,"Outcome":"+10","Keys":[],"TotalKeys":0,"Block":2,"Trial":214,"Robot":2,"Valence":"Win","Action":"No-Go","Sham":0,"Color":"yellow","trial_type":"pit-trial","trial_index":233,"time_elapsed":929575,"internal_node_id":"0.0-222.0","task_version":"test-retest-t2"},{"Rune":"rune_03_naudiz","Hex":"#ffcc3399","Correct":32,"Choice":32,"RT":1101.2149999733083,"Accuracy":1,"Outcome":"+10","Keys":[2602.009999973234],"TotalKeys":1,"Block":2,"Trial":215,"Robot":1,"Valence":"Win","Action":"Go","Sham":0,"Color":"yellow","trial_type":"pit-trial","trial_index":234,"time_elapsed":933180,"internal_node_id":"0.0-223.0","task_version":"test-retest-t2"},{"Rune":"rune_03_uruz","Hex":"#3366ff99","Correct":-1,"Choice":-1,"RT":-1,"Accuracy":1,"Outcome":"-1","Keys":[],"TotalKeys":0,"Block":2,"Trial":216,"Robot":4,"Valence":"Lose","Action":"No-Go","Sham":0,"Color":"blue","trial_type":"pit-trial","trial_index":235,"time_elapsed":937182,"internal_node_id":"0.0-224.0","task_version":"test-retest-t2"},{"Rune":"rune_03_uruz","Hex":"#3366ff99","Correct":-1,"Choice":32,"RT":853.7449999712408,"Accuracy":0,"Outcome":"-1","Keys":[2354.9950000015087],"TotalKeys":1,"Block":2,"Trial":217,"Robot":4,"Valence":"Lose","Action":"No-Go","Sham":1,"Color":"blue","trial_type":"pit-trial","trial_index":236,"time_elapsed":940540,"internal_node_id":"0.0-225.0","task_version":"test-retest-t2"},{"Rune":"rune_03_naudiz","Hex":"#ffcc3399","Correct":32,"Choice":-1,"RT":-1,"Accuracy":0,"Outcome":"+1","Keys":[],"TotalKeys":0,"Block":2,"Trial":218,"Robot":1,"Valence":"Win","Action":"Go","Sham":0,"Color":"yellow","trial_type":"pit-trial","trial_index":237,"time_elapsed":944544,"internal_node_id":"0.0-226.0","task_version":"test-retest-t2"},{"Rune":"rune_03_algiz","Hex":"#3366ff99","Correct":32,"Choice":32,"RT":789.8950000526384,"Accuracy":1,"Outcome":"-1","Keys":[2290.290000033565],"TotalKeys":1,"Block":2,"Trial":219,"Robot":3,"Valence":"Lose","Action":"Go","Sham":0,"Color":"blue","trial_type":"pit-trial","trial_index":238,"time_elapsed":947837,"internal_node_id":"0.0-227.0","task_version":"test-retest-t2"},{"Rune":"rune_03_othalan","Hex":"#ffcc3399","Correct":-1,"Choice":-1,"RT":-1,"Accuracy":1,"Outcome":"+1","Keys":[],"TotalKeys":0,"Block":2,"Trial":220,"Robot":2,"Valence":"Win","Action":"No-Go","Sham":1,"Color":"yellow","trial_type":"pit-trial","trial_index":239,"time_elapsed":951841,"internal_node_id":"0.0-228.0","task_version":"test-retest-t2"},{"Rune":"rune_03_algiz","Hex":"#3366ff99","Correct":32,"Choice":32,"RT":1011.7750000208616,"Accuracy":1,"Outcome":"-10","Keys":[2512.5450000050478],"TotalKeys":1,"Block":2,"Trial":221,"Robot":3,"Valence":"Lose","Action":"Go","Sham":1,"Color":"blue","trial_type":"pit-trial","trial_index":240,"time_elapsed":955356,"internal_node_id":"0.0-229.0","task_version":"test-retest-t2"},{"Rune":"rune_03_othalan","Hex":"#ffcc3399","Correct":-1,"Choice":32,"RT":1065.1400000206195,"Accuracy":0,"Outcome":"+1","Keys":[2566.4099999703467],"TotalKeys":1,"Block":2,"Trial":222,"Robot":2,"Valence":"Win","Action":"No-Go","Sham":0,"Color":"yellow","trial_type":"pit-trial","trial_index":241,"time_elapsed":958924,"internal_node_id":"0.0-230.0","task_version":"test-retest-t2"},{"Rune":"rune_03_naudiz","Hex":"#ffcc3399","Correct":32,"Choice":-1,"RT":-1,"Accuracy":0,"Outcome":"+1","Keys":[],"TotalKeys":0,"Block":2,"Trial":223,"Robot":1,"Valence":"Win","Action":"Go","Sham":0,"Color":"yellow","trial_type":"pit-trial","trial_index":242,"time_elapsed":962928,"internal_node_id":"0.0-231.0","task_version":"test-retest-t2"},{"Rune":"rune_03_uruz","Hex":"#3366ff99","Correct":-1,"Choice":-1,"RT":-1,"Accuracy":1,"Outcome":"-1","Keys":[],"TotalKeys":0,"Block":2,"Trial":224,"Robot":4,"Valence":"Lose","Action":"No-Go","Sham":0,"Color":"blue","trial_type":"pit-trial","trial_index":243,"time_elapsed":966931,"internal_node_id":"0.0-232.0","task_version":"test-retest-t2"},{"Rune":"rune_03_othalan","Hex":"#ffcc3399","Correct":-1,"Choice":32,"RT":665.7650000415742,"Accuracy":0,"Outcome":"+1","Keys":[2166.5300000458956],"TotalKeys":1,"Block":2,"Trial":225,"Robot":2,"Valence":"Win","Action":"No-Go","Sham":0,"Color":"yellow","trial_type":"pit-trial","trial_index":244,"time_elapsed":970101,"internal_node_id":"0.0-233.0","task_version":"test-retest-t2"},{"Rune":"rune_03_naudiz","Hex":"#ffcc3399","Correct":32,"Choice":-1,"RT":-1,"Accuracy":0,"Outcome":"+1","Keys":[],"TotalKeys":0,"Block":2,"Trial":226,"Robot":1,"Valence":"Win","Action":"Go","Sham":0,"Color":"yellow","trial_type":"pit-trial","trial_index":245,"time_elapsed":974105,"internal_node_id":"0.0-234.0","task_version":"test-retest-t2"},{"Rune":"rune_03_algiz","Hex":"#3366ff99","Correct":32,"Choice":32,"RT":828.5049999831244,"Accuracy":1,"Outcome":"-1","Keys":[2328.5950000281446],"TotalKeys":1,"Block":2,"Trial":227,"Robot":3,"Valence":"Lose","Action":"Go","Sham":0,"Color":"blue","trial_type":"pit-trial","trial_index":246,"time_elapsed":977435,"internal_node_id":"0.0-235.0","task_version":"test-retest-t2"},{"Rune":"rune_03_uruz","Hex":"#3366ff99","Correct":-1,"Choice":32,"RT":874.1099999751896,"Accuracy":0,"Outcome":"-10","Keys":[2374.154999968596],"TotalKeys":1,"Block":2,"Trial":228,"Robot":4,"Valence":"Lose","Action":"No-Go","Sham":0,"Color":"blue","trial_type":"pit-trial","trial_index":247,"time_elapsed":980812,"internal_node_id":"0.0-236.0","task_version":"test-retest-t2"},{"Rune":"rune_03_algiz","Hex":"#3366ff99","Correct":32,"Choice":-1,"RT":-1,"Accuracy":0,"Outcome":"-10","Keys":[],"TotalKeys":0,"Block":2,"Trial":229,"Robot":3,"Valence":"Lose","Action":"Go","Sham":0,"Color":"blue","trial_type":"pit-trial","trial_index":248,"time_elapsed":984815,"internal_node_id":"0.0-237.0","task_version":"test-retest-t2"},{"Rune":"rune_03_naudiz","Hex":"#ffcc3399","Correct":32,"Choice":-1,"RT":-1,"Accuracy":0,"Outcome":"+1","Keys":[],"TotalKeys":0,"Block":2,"Trial":230,"Robot":1,"Valence":"Win","Action":"Go","Sham":0,"Color":"yellow","trial_type":"pit-trial","trial_index":249,"time_elapsed":988818,"internal_node_id":"0.0-238.0","task_version":"test-retest-t2"},{"Rune":"rune_03_othalan","Hex":"#ffcc3399","Correct":-1,"Choice":-1,"RT":-1,"Accuracy":1,"Outcome":"+1","Keys":[],"TotalKeys":0,"Block":2,"Trial":231,"Robot":2,"Valence":"Win","Action":"No-Go","Sham":1,"Color":"yellow","trial_type":"pit-trial","trial_index":250,"time_elapsed":992821,"internal_node_id":"0.0-239.0","task_version":"test-retest-t2"},{"Rune":"rune_03_uruz","Hex":"#3366ff99","Correct":-1,"Choice":32,"RT":1214.2250000033528,"Accuracy":0,"Outcome":"-10","Keys":[2716.210000042338],"TotalKeys":1,"Block":2,"Trial":232,"Robot":4,"Valence":"Lose","Action":"No-Go","Sham":0,"Color":"blue","trial_type":"pit-trial","trial_index":251,"time_elapsed":996540,"internal_node_id":"0.0-240.0","task_version":"test-retest-t2"},{"Rune":"rune_03_othalan","Hex":"#ffcc3399","Correct":-1,"Choice":32,"RT":321.1850000079721,"Accuracy":0,"Outcome":"+1","Keys":[1821.8249999918044],"TotalKeys":1,"Block":2,"Trial":233,"Robot":2,"Valence":"Win","Action":"No-Go","Sham":0,"Color":"yellow","trial_type":"pit-trial","trial_index":252,"time_elapsed":999364,"internal_node_id":"0.0-241.0","task_version":"test-retest-t2"},{"Rune":"rune_03_algiz","Hex":"#3366ff99","Correct":32,"Choice":-1,"RT":-1,"Accuracy":0,"Outcome":"-10","Keys":[],"TotalKeys":0,"Block":2,"Trial":234,"Robot":3,"Valence":"Lose","Action":"Go","Sham":0,"Color":"blue","trial_type":"pit-trial","trial_index":253,"time_elapsed":1003368,"internal_node_id":"0.0-242.0","task_version":"test-retest-t2"},{"Rune":"rune_03_uruz","Hex":"#3366ff99","Correct":-1,"Choice":32,"RT":556.8949999869801,"Accuracy":0,"Outcome":"-1","Keys":[2057.904999994207],"TotalKeys":1,"Block":2,"Trial":235,"Robot":4,"Valence":"Lose","Action":"No-Go","Sham":1,"Color":"blue","trial_type":"pit-trial","trial_index":254,"time_elapsed":1006427,"internal_node_id":"0.0-243.0","task_version":"test-retest-t2"},{"Rune":"rune_03_naudiz","Hex":"#ffcc3399","Correct":32,"Choice":32,"RT":377.2250000038184,"Accuracy":1,"Outcome":"+10","Keys":[1878.0900000128895],"TotalKeys":1,"Block":2,"Trial":236,"Robot":1,"Valence":"Win","Action":"Go","Sham":0,"Color":"yellow","trial_type":"pit-trial","trial_index":255,"time_elapsed":1009308,"internal_node_id":"0.0-244.0","task_version":"test-retest-t2"},{"Rune":"rune_03_othalan","Hex":"#ffcc3399","Correct":-1,"Choice":32,"RT":320.9550000028685,"Accuracy":0,"Outcome":"+1","Keys":[1821.5349999954924],"TotalKeys":1,"Block":2,"Trial":237,"Robot":2,"Valence":"Win","Action":"No-Go","Sham":0,"Color":"yellow","trial_type":"pit-trial","trial_index":256,"time_elapsed":1012132,"internal_node_id":"0.0-245.0","task_version":"test-retest-t2"},{"Rune":"rune_03_algiz","Hex":"#3366ff99","Correct":32,"Choice":32,"RT":585.7599999872036,"Accuracy":1,"Outcome":"-1","Keys":[2086.2599999527447],"TotalKeys":1,"Block":2,"Trial":238,"Robot":3,"Valence":"Lose","Action":"Go","Sham":0,"Color":"blue","trial_type":"pit-trial","trial_index":257,"time_elapsed":1015221,"internal_node_id":"0.0-246.0","task_version":"test-retest-t2"},{"Rune":"rune_03_uruz","Hex":"#3366ff99","Correct":-1,"Choice":32,"RT":775.6449999869801,"Accuracy":0,"Outcome":"-10","Keys":[2276.4900000183843],"TotalKeys":1,"Block":2,"Trial":239,"Robot":4,"Valence":"Lose","Action":"No-Go","Sham":0,"Color":"blue","trial_type":"pit-trial","trial_index":258,"time_elapsed":1018500,"internal_node_id":"0.0-247.0","task_version":"test-retest-t2"},{"Rune":"rune_03_naudiz","Hex":"#ffcc3399","Correct":32,"Choice":32,"RT":849.3599999928847,"Accuracy":1,"Outcome":"+1","Keys":[2349.6649999869987],"TotalKeys":1,"Block":2,"Trial":240,"Robot":1,"Valence":"Win","Action":"Go","Sham":1,"Color":"yellow","trial_type":"pit-trial","trial_index":259,"time_elapsed":1021852,"internal_node_id":"0.0-248.0","task_version":"test-retest-t2"},{"view_history":"[{\"page_index\":0,\"viewing_time\":2834.1350000118837}]","rt":2834.4299999880604,"trial_type":"pit-instructions","trial_index":260,"time_elapsed":1024688,"internal_node_id":"0.0-249.0","task_version":"test-retest-t2"},{"rt":24207.31500000693,"responses":{"difficulty":"3","fun":"4","clarity":"5","strategy":"I just tried to remember the robots","feedback":""},"survey":"debrief","trial_type":"survey-debrief","trial_index":261,"time_elapsed":1048897,"internal_node_id":"0.0-250.0","task_version":"test-retest-t2"},{"rt":8288.215000007767,"stimulus":"You earned a bonus of $1.07 out of $1.5.<br><br>Press any key to complete the experiment.","key_press":13,"trial_type":"html-keyboard-response","trial_index":262,"time_elapsed":1057187,"internal_node_id":"0.0-251.0","task_version":"test-retest-t2","accuracy":0.7125,"bonus":1.07,"interactions":"[]"}]