[{"view_history":"[{\"page_index\":0,\"viewing_time\":1297.1350000007078}]","rt":1297.3350000102073,"trial_type":"instructions","trial_index":0,"time_elapsed":1307,"internal_node_id":"0.0-0.0","task_version":"battery-v0.2-trt","session":2},{"slider_type":"valence","raw_loc":546,"loc":0.592,"trial_type":"affective-slider","trial_index":1,"time_elapsed":5655,"internal_node_id":"0.0-1.0","task_version":"battery-v0.2-trt","session":2},{"responses":{"Q04":"0","Q01":"0","Q06":"0","Q08":"0","Q07":"0","Q02":"0","Q05":"0","Q03":"0"},"rt":23336.22500000638,"item_order":[3,0,5,7,6,1,4,2],"radio_events":[6560.605000006035,6907.535000005737,8190.380000014557,8978.105000016512,9262.275000015507,9688.19500002428,10441.170000005513,11787.245000014082],"key_events":[6254.235000000335,6560.605000006035,6907.535000005737,7334.35499999905,7862.565000017639,8190.380000014557,8978.105000016512,9262.275000015507,9688.19500002428,10148.780000017723,10441.170000005513,11787.245000014082,23335.32500002184],"mouse_events":[],"straightlining":1,"zigzagging":0,"survey":"dass_d","trial_type":"survey-template","trial_index":2,"time_elapsed":28993,"internal_node_id":"0.0-2.0","task_version":"battery-v0.2-trt","session":2,"infrequency":1},{"responses":{"Q03":"0","Q05":"0","Q02":"0","Q01":"0","Q04":"0","Q08":"0","Q06":"0","Q07":"0"},"rt":13995.374999998603,"item_order":[2,4,1,0,3,7,5,6],"radio_events":[1622.4900000088383,2509.380000003148,2946.1799999990035,4675.795000017388,4966.615000012098,5580.570000020089,6030.354999995325,6459.360000008019],"key_events":[1622.4900000088383,2013.3900000073481,2509.380000003148,2946.1799999990035,3354.525000002468,3911.485000018729,4236.275000002934,4675.795000017388,4966.615000012098,5580.570000020089,6030.354999995325,6459.360000008019,13994.659999996657],"mouse_events":[],"straightlining":1,"zigzagging":0,"survey":"gad7","trial_type":"survey-template","trial_index":3,"time_elapsed":42992,"internal_node_id":"0.0-3.0","task_version":"battery-v0.2-trt","session":2,"infrequency":0},{"view_history":"[{\"page_index\":0,\"viewing_time\":2945.979999989504},{\"page_index\":1,\"viewing_time\":1147.0400000107475},{\"page_index\":2,\"viewing_time\":2942.1049999946263},{\"page_index\":3,\"viewing_time\":1679.8150000104215},{\"page_index\":4,\"viewing_time\":3433.0299999855924},{\"page_index\":5,\"viewing_time\":2095.000000001164},{\"page_index\":6,\"viewing_time\":897.0600000175182},{\"page_index\":7,\"viewing_time\":4533.0099999846425},{\"page_index\":8,\"viewing_time\":1119.925000006333},{\"page_index\":9,\"viewing_time\":1062.05000000773}]","rt":21855.31000001356,"trial_type":"pit-instructions","trial_index":4,"time_elapsed":64852,"internal_node_id":"0.0-4.0-0.0","task_version":"battery-v0.2-trt","session":2},{"rune":"1","rune_set":"elianto","hex":"#3366ff99","correct":32,"choice":32,"rt":780.7000000029802,"accuracy":1,"outcome":"+10","keys":[1498.8650000013877,2281.990000017686],"total_keys":2,"block":0,"practice":1,"trial_type":"pit-trial","trial_index":5,"time_elapsed":68338,"internal_node_id":"0.0-4.0-1.0-0.0","task_version":"battery-v0.2-trt","session":2},{"rune":"1","rune_set":"elianto","hex":"#3366ff99","correct":32,"choice":32,"rt":233.37499998160638,"accuracy":1,"outcome":"+10","keys":[1734.839999990072],"total_keys":1,"block":0,"practice":1,"trial_type":"pit-trial","trial_index":6,"time_elapsed":71277,"internal_node_id":"0.0-4.0-1.1-0.1","task_version":"battery-v0.2-trt","session":2},{"rune":"1","rune_set":"elianto","hex":"#3366ff99","correct":32,"choice":32,"rt":209.62999999755993,"accuracy":1,"outcome":"+10","keys":[1710.495000006631],"total_keys":1,"block":0,"practice":1,"trial_type":"pit-trial","trial_index":7,"time_elapsed":74193,"internal_node_id":"0.0-4.0-1.2-0.2","task_version":"battery-v0.2-trt","session":2},{"rune":"1","rune_set":"elianto","hex":"#3366ff99","correct":32,"choice":32,"rt":168.60000000451691,"accuracy":1,"outcome":"+10","keys":[1668.6749999935273],"total_keys":1,"block":0,"practice":1,"trial_type":"pit-trial","trial_index":8,"time_elapsed":77065,"internal_node_id":"0.0-4.0-1.3-0.3","task_version":"battery-v0.2-trt","session":2},{"trial_type":"call-function","trial_index":9,"time_elapsed":77068,"internal_node_id":"0.0-4.0-2.0","task_version":"battery-v0.2-trt","session":2},{"view_history":"[{\"page_index\":0,\"viewing_time\":1691.1049999762326},{\"page_index\":1,\"viewing_time\":548.385000001872}]","rt":2239.709999994375,"trial_type":"pit-instructions","trial_index":10,"time_elapsed":79308,"internal_node_id":"0.0-4.0-3.0","task_version":"battery-v0.2-trt","session":2},{"rune":"2","rune_set":"elianto","hex":"#3366ff99","correct":-1,"choice":32,"rt":433.0750000081025,"accuracy":0,"outcome":"+1","keys":[1934.4899999850895],"total_keys":1,"block":0,"practice":2,"trial_type":"pit-trial","trial_index":11,"time_elapsed":82446,"internal_node_id":"0.0-4.0-4.0-0.0","task_version":"battery-v0.2-trt","session":2},{"rune":"2","rune_set":"elianto","hex":"#3366ff99","correct":-1,"choice":-1,"rt":-1,"accuracy":1,"outcome":"+10","keys":[],"total_keys":0,"block":0,"practice":2,"trial_type":"pit-trial","trial_index":12,"time_elapsed":86452,"internal_node_id":"0.0-4.0-4.1-0.1","task_version":"battery-v0.2-trt","session":2},{"rune":"2","rune_set":"elianto","hex":"#3366ff99","correct":-1,"choice":-1,"rt":-1,"accuracy":1,"outcome":"+10","keys":[],"total_keys":0,"block":0,"practice":2,"trial_type":"pit-trial","trial_index":13,"time_elapsed":90457,"internal_node_id":"0.0-4.0-4.2-0.2","task_version":"battery-v0.2-trt","session":2},{"rune":"2","rune_set":"elianto","hex":"#3366ff99","correct":-1,"choice":-1,"rt":-1,"accuracy":1,"outcome":"+10","keys":[],"total_keys":0,"block":0,"practice":2,"trial_type":"pit-trial","trial_index":14,"time_elapsed":94462,"internal_node_id":"0.0-4.0-4.3-0.3","task_version":"battery-v0.2-trt","session":2},{"trial_type":"call-function","trial_index":15,"time_elapsed":94465,"internal_node_id":"0.0-4.0-5.0","task_version":"battery-v0.2-trt","session":2},{"view_history":"[{\"page_index\":0,\"viewing_time\":1578.7149999814574},{\"page_index\":1,\"viewing_time\":419.80500001227483}]","rt":1998.7299999920651,"trial_type":"pit-instructions","trial_index":16,"time_elapsed":96464,"internal_node_id":"0.0-4.0-6.0","task_version":"battery-v0.2-trt","session":2},{"rune":"3","rune_set":"elianto","hex":"#f73b6a7A","correct":-1,"choice":32,"rt":140.63000000896864,"accuracy":0,"outcome":"-10","keys":[1642.4100000003818],"total_keys":1,"block":0,"practice":3,"trial_type":"pit-trial","trial_index":17,"time_elapsed":99310,"internal_node_id":"0.0-4.0-7.0-0.0","task_version":"battery-v0.2-trt","session":2},{"rune":"3","rune_set":"elianto","hex":"#f73b6a7A","correct":-1,"choice":-1,"rt":-1,"accuracy":1,"outcome":"-1","keys":[],"total_keys":0,"block":0,"practice":3,"trial_type":"pit-trial","trial_index":18,"time_elapsed":103319,"internal_node_id":"0.0-4.0-7.1-0.1","task_version":"battery-v0.2-trt","session":2},{"rune":"3","rune_set":"elianto","hex":"#f73b6a7A","correct":-1,"choice":-1,"rt":-1,"accuracy":1,"outcome":"-1","keys":[],"total_keys":0,"block":0,"practice":3,"trial_type":"pit-trial","trial_index":19,"time_elapsed":107324,"internal_node_id":"0.0-4.0-7.2-0.2","task_version":"battery-v0.2-trt","session":2},{"rune":"3","rune_set":"elianto","hex":"#f73b6a7A","correct":-1,"choice":-1,"rt":-1,"accuracy":1,"outcome":"-1","keys":[],"total_keys":0,"block":0,"practice":3,"trial_type":"pit-trial","trial_index":20,"time_elapsed":111329,"internal_node_id":"0.0-4.0-7.3-0.3","task_version":"battery-v0.2-trt","session":2},{"trial_type":"call-function","trial_index":21,"time_elapsed":111331,"internal_node_id":"0.0-4.0-8.0","task_version":"battery-v0.2-trt","session":2},{"view_history":"[{\"page_index\":0,\"viewing_time\":2541.224999993574},{\"page_index\":1,\"viewing_time\":2616.0150000068825}]","rt":5157.6399999903515,"trial_type":"pit-instructions","trial_index":22,"time_elapsed":116489,"internal_node_id":"0.0-4.0-9.0","task_version":"battery-v0.2-trt","session":2},{"rune":"4","rune_set":"elianto","hex":"#f73b6a7A","correct":32,"choice":32,"rt":229.31500000413507,"accuracy":1,"outcome":"-1","keys":[1730.8799999882467],"total_keys":1,"block":0,"practice":4,"trial_type":"pit-trial","trial_index":23,"time_elapsed":119424,"internal_node_id":"0.0-4.0-10.0-0.0","task_version":"battery-v0.2-trt","session":2},{"rune":"4","rune_set":"elianto","hex":"#f73b6a7A","correct":32,"choice":32,"rt":88.22500001406297,"accuracy":1,"outcome":"-1","keys":[1589.4200000038836],"total_keys":1,"block":0,"practice":4,"trial_type":"pit-trial","trial_index":24,"time_elapsed":122217,"internal_node_id":"0.0-4.0-10.1-0.1","task_version":"battery-v0.2-trt","session":2},{"rune":"4","rune_set":"elianto","hex":"#f73b6a7A","correct":32,"choice":32,"rt":319.72500000847504,"accuracy":1,"outcome":"-1","keys":[1820.22500000312],"total_keys":1,"block":0,"practice":4,"trial_type":"pit-trial","trial_index":25,"time_elapsed":125241,"internal_node_id":"0.0-4.0-10.2-0.2","task_version":"battery-v0.2-trt","session":2},{"rune":"4","rune_set":"elianto","hex":"#f73b6a7A","correct":32,"choice":32,"rt":56.02499999804422,"accuracy":1,"outcome":"-1","keys":[1136.8150000052992,1556.0950000071898],"total_keys":2,"block":0,"practice":4,"trial_type":"pit-trial","trial_index":26,"time_elapsed":128001,"internal_node_id":"0.0-4.0-10.3-0.3","task_version":"battery-v0.2-trt","session":2},{"trial_type":"call-function","trial_index":27,"time_elapsed":128003,"internal_node_id":"0.0-4.0-11.0","task_version":"battery-v0.2-trt","session":2},{"view_history":"[{\"page_index\":0,\"viewing_time\":1944.8200000042561},{\"page_index\":1,\"viewing_time\":2817.975000012666},{\"page_index\":2,\"viewing_time\":12837.384999991627},{\"page_index\":3,\"viewing_time\":1003.6099999852013},{\"page_index\":4,\"viewing_time\":723.8050000160001},{\"page_index\":5,\"viewing_time\":674.250000010943}]","rt":20002.05000001006,"trial_type":"pit-instructions","trial_index":28,"time_elapsed":148005,"internal_node_id":"0.0-4.0-12.0","task_version":"battery-v0.2-trt","session":2},{"responses":["Press SPACE","+10","-1","True","True"],"num_errors":0,"rt":12340.669999975944,"trial_type":"pit-comprehension","trial_index":29,"time_elapsed":160349,"internal_node_id":"0.0-4.0-13.0","task_version":"battery-v0.2-trt","session":2},{"view_history":"[{\"page_index\":0,\"viewing_time\":1591.2649999954738},{\"page_index\":1,\"viewing_time\":1145.989999989979}]","rt":2737.4699999927543,"trial_type":"pit-instructions","trial_index":30,"time_elapsed":163091,"internal_node_id":"0.0-5.0","task_version":"battery-v0.2-trt","session":2},{"rune":"A","rune_set":"elianto","hex":"#f73b6a7A","correct":-1,"choice":32,"rt":264.8899999912828,"accuracy":0,"outcome":"-10","keys":[1765.3749999881256],"total_keys":1,"block":1,"trial":1,"stimulus":2,"robot":4,"valence":"lose","action":"no-go","sham":0,"trial_type":"pit-trial","trial_index":31,"time_elapsed":166061,"internal_node_id":"0.0-6.0","task_version":"battery-v0.2-trt","session":2},{"rune":"U","rune_set":"elianto","hex":"#3366ff99","correct":32,"choice":-1,"rt":-1,"accuracy":0,"outcome":"+1","keys":[],"total_keys":0,"block":1,"trial":2,"stimulus":0,"robot":1,"valence":"win","action":"go","sham":0,"trial_type":"pit-trial","trial_index":32,"time_elapsed":170065,"internal_node_id":"0.0-7.0","task_version":"battery-v0.2-trt","session":2},{"rune":"G","rune_set":"elianto","hex":"#3366ff99","correct":-1,"choice":-1,"rt":-1,"accuracy":1,"outcome":"+10","keys":[],"total_keys":0,"block":1,"trial":3,"stimulus":3,"robot":2,"valence":"win","action":"no-go","sham":0,"trial_type":"pit-trial","trial_index":33,"time_elapsed":174071,"internal_node_id":"0.0-8.0","task_version":"battery-v0.2-trt","session":2},{"rune":"L","rune_set":"elianto","hex":"#f73b6a7A","correct":32,"choice":32,"rt":543.1249999965075,"accuracy":1,"outcome":"-1","keys":[2043.4250000107568],"total_keys":1,"block":1,"trial":4,"stimulus":1,"robot":3,"valence":"lose","action":"go","sham":0,"trial_type":"pit-trial","trial_index":34,"time_elapsed":177318,"internal_node_id":"0.0-9.0","task_version":"battery-v0.2-trt","session":2},{"rune":"G","rune_set":"elianto","hex":"#3366ff99","correct":-1,"choice":-1,"rt":-1,"accuracy":1,"outcome":"+10","keys":[],"total_keys":0,"block":1,"trial":5,"stimulus":3,"robot":2,"valence":"win","action":"no-go","sham":0,"trial_type":"pit-trial","trial_index":35,"time_elapsed":181322,"internal_node_id":"0.0-10.0","task_version":"battery-v0.2-trt","session":2},{"rune":"L","rune_set":"elianto","hex":"#f73b6a7A","correct":32,"choice":32,"rt":818.0749999883119,"accuracy":1,"outcome":"-10","keys":[2318.1599999952596],"total_keys":1,"block":1,"trial":6,"stimulus":1,"robot":3,"valence":"lose","action":"go","sham":1,"trial_type":"pit-trial","trial_index":36,"time_elapsed":184845,"internal_node_id":"0.0-11.0","task_version":"battery-v0.2-trt","session":2},{"rune":"U","rune_set":"elianto","hex":"#3366ff99","correct":32,"choice":-1,"rt":-1,"accuracy":0,"outcome":"+1","keys":[2852.7649999887217],"total_keys":1,"block":1,"trial":7,"stimulus":0,"robot":1,"valence":"win","action":"go","sham":0,"trial_type":"pit-trial","trial_index":37,"time_elapsed":188848,"internal_node_id":"0.0-12.0","task_version":"battery-v0.2-trt","session":2},{"rune":"A","rune_set":"elianto","hex":"#f73b6a7A","correct":-1,"choice":-1,"rt":-1,"accuracy":1,"outcome":"-1","keys":[],"total_keys":0,"block":1,"trial":8,"stimulus":2,"robot":4,"valence":"lose","action":"no-go","sham":0,"trial_type":"pit-trial","trial_index":38,"time_elapsed":192852,"internal_node_id":"0.0-13.0","task_version":"battery-v0.2-trt","session":2},{"rune":"G","rune_set":"elianto","hex":"#3366ff99","correct":-1,"choice":-1,"rt":-1,"accuracy":1,"outcome":"+10","keys":[],"total_keys":0,"block":1,"trial":9,"stimulus":3,"robot":2,"valence":"win","action":"no-go","sham":0,"trial_type":"pit-trial","trial_index":39,"time_elapsed":196856,"internal_node_id":"0.0-14.0","task_version":"battery-v0.2-trt","session":2},{"rune":"A","rune_set":"elianto","hex":"#f73b6a7A","correct":-1,"choice":-1,"rt":-1,"accuracy":1,"outcome":"-1","keys":[3028.3849999832455],"total_keys":1,"block":1,"trial":10,"stimulus":2,"robot":4,"valence":"lose","action":"no-go","sham":0,"trial_type":"pit-trial","trial_index":40,"time_elapsed":200860,"internal_node_id":"0.0-15.0","task_version":"battery-v0.2-trt","session":2},{"rune":"L","rune_set":"elianto","hex":"#f73b6a7A","correct":32,"choice":-1,"rt":-1,"accuracy":0,"outcome":"-10","keys":[],"total_keys":0,"block":1,"trial":11,"stimulus":1,"robot":3,"valence":"lose","action":"go","sham":0,"trial_type":"pit-trial","trial_index":41,"time_elapsed":204876,"internal_node_id":"0.0-16.0","task_version":"battery-v0.2-trt","session":2},{"rune":"U","rune_set":"elianto","hex":"#3366ff99","correct":32,"choice":-1,"rt":-1,"accuracy":0,"outcome":"+1","keys":[],"total_keys":0,"block":1,"trial":12,"stimulus":0,"robot":1,"valence":"win","action":"go","sham":0,"trial_type":"pit-trial","trial_index":42,"time_elapsed":208881,"internal_node_id":"0.0-17.0","task_version":"battery-v0.2-trt","session":2},{"rune":"U","rune_set":"elianto","hex":"#3366ff99","correct":32,"choice":32,"rt":772.4400000006426,"accuracy":1,"outcome":"+10","keys":[2273.8050000043586],"total_keys":1,"block":1,"trial":13,"stimulus":0,"robot":1,"valence":"win","action":"go","sham":0,"trial_type":"pit-trial","trial_index":43,"time_elapsed":212359,"internal_node_id":"0.0-18.0","task_version":"battery-v0.2-trt","session":2},{"rune":"G","rune_set":"elianto","hex":"#3366ff99","correct":-1,"choice":-1,"rt":-1,"accuracy":1,"outcome":"+10","keys":[],"total_keys":0,"block":1,"trial":14,"stimulus":3,"robot":2,"valence":"win","action":"no-go","sham":0,"trial_type":"pit-trial","trial_index":44,"time_elapsed":216363,"internal_node_id":"0.0-19.0","task_version":"battery-v0.2-trt","session":2},{"rune":"L","rune_set":"elianto","hex":"#f73b6a7A","correct":32,"choice":32,"rt":569.4950000033714,"accuracy":1,"outcome":"-10","keys":[2071.140000014566],"total_keys":1,"block":1,"trial":15,"stimulus":1,"robot":3,"valence":"lose","action":"go","sham":1,"trial_type":"pit-trial","trial_index":45,"time_elapsed":219638,"internal_node_id":"0.0-20.0","task_version":"battery-v0.2-trt","session":2},{"rune":"A","rune_set":"elianto","hex":"#f73b6a7A","correct":-1,"choice":-1,"rt":-1,"accuracy":1,"outcome":"-1","keys":[],"total_keys":0,"block":1,"trial":16,"stimulus":2,"robot":4,"valence":"lose","action":"no-go","sham":0,"trial_type":"pit-trial","trial_index":46,"time_elapsed":223651,"internal_node_id":"0.0-21.0","task_version":"battery-v0.2-trt","session":2},{"rune":"U","rune_set":"elianto","hex":"#3366ff99","correct":32,"choice":-1,"rt":-1,"accuracy":0,"outcome":"+1","keys":[],"total_keys":0,"block":1,"trial":17,"stimulus":0,"robot":1,"valence":"win","action":"go","sham":0,"trial_type":"pit-trial","trial_index":47,"time_elapsed":227656,"internal_node_id":"0.0-22.0","task_version":"battery-v0.2-trt","session":2},{"rune":"L","rune_set":"elianto","hex":"#f73b6a7A","correct":32,"choice":32,"rt":515.1400000031572,"accuracy":1,"outcome":"-10","keys":[2015.6049999932293],"total_keys":1,"block":1,"trial":18,"stimulus":1,"robot":3,"valence":"lose","action":"go","sham":1,"trial_type":"pit-trial","trial_index":48,"time_elapsed":230883,"internal_node_id":"0.0-23.0","task_version":"battery-v0.2-trt","session":2},{"rune":"A","rune_set":"elianto","hex":"#f73b6a7A","correct":-1,"choice":32,"rt":1131.05500000529,"accuracy":0,"outcome":"-10","keys":[2631.6850000002887,3408.724999986589,3692.079999978887],"total_keys":3,"block":1,"trial":19,"stimulus":2,"robot":4,"valence":"lose","action":"no-go","sham":0,"trial_type":"pit-trial","trial_index":49,"time_elapsed":234717,"internal_node_id":"0.0-24.0","task_version":"battery-v0.2-trt","session":2},{"rune":"G","rune_set":"elianto","hex":"#3366ff99","correct":-1,"choice":-1,"rt":-1,"accuracy":1,"outcome":"+10","keys":[],"total_keys":0,"block":1,"trial":20,"stimulus":3,"robot":2,"valence":"win","action":"no-go","sham":0,"trial_type":"pit-trial","trial_index":50,"time_elapsed":238722,"internal_node_id":"0.0-25.0","task_version":"battery-v0.2-trt","session":2},{"rune":"A","rune_set":"elianto","hex":"#f73b6a7A","correct":-1,"choice":32,"rt":604.6950000163633,"accuracy":0,"outcome":"-10","keys":[2105.5099999939557],"total_keys":1,"block":1,"trial":21,"stimulus":2,"robot":4,"valence":"lose","action":"no-go","sham":0,"trial_type":"pit-trial","trial_index":51,"time_elapsed":242032,"internal_node_id":"0.0-26.0","task_version":"battery-v0.2-trt","session":2},{"rune":"U","rune_set":"elianto","hex":"#3366ff99","correct":32,"choice":-1,"rt":-1,"accuracy":0,"outcome":"+1","keys":[],"total_keys":0,"block":1,"trial":22,"stimulus":0,"robot":1,"valence":"win","action":"go","sham":0,"trial_type":"pit-trial","trial_index":52,"time_elapsed":246036,"internal_node_id":"0.0-27.0","task_version":"battery-v0.2-trt","session":2},{"rune":"G","rune_set":"elianto","hex":"#3366ff99","correct":-1,"choice":-1,"rt":-1,"accuracy":1,"outcome":"+1","keys":[],"total_keys":0,"block":1,"trial":23,"stimulus":3,"robot":2,"valence":"win","action":"no-go","sham":1,"trial_type":"pit-trial","trial_index":53,"time_elapsed":250041,"internal_node_id":"0.0-28.0","task_version":"battery-v0.2-trt","session":2},{"rune":"L","rune_set":"elianto","hex":"#f73b6a7A","correct":32,"choice":-1,"rt":-1,"accuracy":0,"outcome":"-10","keys":[],"total_keys":0,"block":1,"trial":24,"stimulus":1,"robot":3,"valence":"lose","action":"go","sham":0,"trial_type":"pit-trial","trial_index":54,"time_elapsed":254046,"internal_node_id":"0.0-29.0","task_version":"battery-v0.2-trt","session":2},{"rune":"U","rune_set":"elianto","hex":"#3366ff99","correct":32,"choice":32,"rt":729.0600000123959,"accuracy":1,"outcome":"+10","keys":[2230.775000003632],"total_keys":1,"block":1,"trial":25,"stimulus":0,"robot":1,"valence":"win","action":"go","sham":0,"trial_type":"pit-trial","trial_index":55,"time_elapsed":257480,"internal_node_id":"0.0-30.0","task_version":"battery-v0.2-trt","session":2},{"rune":"A","rune_set":"elianto","hex":"#f73b6a7A","correct":-1,"choice":-1,"rt":-1,"accuracy":1,"outcome":"-10","keys":[],"total_keys":0,"block":1,"trial":26,"stimulus":2,"robot":4,"valence":"lose","action":"no-go","sham":1,"trial_type":"pit-trial","trial_index":56,"time_elapsed":261498,"internal_node_id":"0.0-31.0","task_version":"battery-v0.2-trt","session":2},{"rune":"L","rune_set":"elianto","hex":"#f73b6a7A","correct":32,"choice":-1,"rt":-1,"accuracy":0,"outcome":"-10","keys":[896.7549999943003,3969.280000019353],"total_keys":2,"block":1,"trial":27,"stimulus":1,"robot":3,"valence":"lose","action":"go","sham":0,"trial_type":"pit-trial","trial_index":57,"time_elapsed":265503,"internal_node_id":"0.0-32.0","task_version":"battery-v0.2-trt","session":2},{"rune":"G","rune_set":"elianto","hex":"#3366ff99","correct":-1,"choice":32,"rt":645.9150000009686,"accuracy":0,"outcome":"+1","keys":[382.76500001666136,2146.3950000179466],"total_keys":2,"block":1,"trial":28,"stimulus":3,"robot":2,"valence":"win","action":"no-go","sham":0,"trial_type":"pit-trial","trial_index":58,"time_elapsed":268852,"internal_node_id":"0.0-33.0","task_version":"battery-v0.2-trt","session":2},{"rune":"L","rune_set":"elianto","hex":"#f73b6a7A","correct":32,"choice":-1,"rt":-1,"accuracy":0,"outcome":"-10","keys":[],"total_keys":0,"block":1,"trial":29,"stimulus":1,"robot":3,"valence":"lose","action":"go","sham":0,"trial_type":"pit-trial","trial_index":59,"time_elapsed":272856,"internal_node_id":"0.0-34.0","task_version":"battery-v0.2-trt","session":2},{"rune":"A","rune_set":"elianto","hex":"#f73b6a7A","correct":-1,"choice":32,"rt":437.04499999876134,"accuracy":0,"outcome":"-10","keys":[1937.369999999646],"total_keys":1,"block":1,"trial":30,"stimulus":2,"robot":4,"valence":"lose","action":"no-go","sham":0,"trial_type":"pit-trial","trial_index":60,"time_elapsed":275998,"internal_node_id":"0.0-35.0","task_version":"battery-v0.2-trt","session":2},{"rune":"U","rune_set":"elianto","hex":"#3366ff99","correct":32,"choice":-1,"rt":-1,"accuracy":0,"outcome":"+1","keys":[],"total_keys":0,"block":1,"trial":31,"stimulus":0,"robot":1,"valence":"win","action":"go","sham":0,"trial_type":"pit-trial","trial_index":61,"time_elapsed":280002,"internal_node_id":"0.0-36.0","task_version":"battery-v0.2-trt","session":2},{"rune":"G","rune_set":"elianto","hex":"#3366ff99","correct":-1,"choice":-1,"rt":-1,"accuracy":1,"outcome":"+1","keys":[],"total_keys":0,"block":1,"trial":32,"stimulus":3,"robot":2,"valence":"win","action":"no-go","sham":1,"trial_type":"pit-trial","trial_index":62,"time_elapsed":284007,"internal_node_id":"0.0-37.0","task_version":"battery-v0.2-trt","session":2},{"rune":"U","rune_set":"elianto","hex":"#3366ff99","correct":32,"choice":-1,"rt":-1,"accuracy":0,"outcome":"+1","keys":[],"total_keys":0,"block":1,"trial":33,"stimulus":0,"robot":1,"valence":"win","action":"go","sham":0,"trial_type":"pit-trial","trial_index":63,"time_elapsed":288011,"internal_node_id":"0.0-38.0","task_version":"battery-v0.2-trt","session":2},{"rune":"G","rune_set":"elianto","hex":"#3366ff99","correct":-1,"choice":-1,"rt":-1,"accuracy":1,"outcome":"+10","keys":[],"total_keys":0,"block":1,"trial":34,"stimulus":3,"robot":2,"valence":"win","action":"no-go","sham":0,"trial_type":"pit-trial","trial_index":64,"time_elapsed":292016,"internal_node_id":"0.0-39.0","task_version":"battery-v0.2-trt","session":2},{"rune":"P","rune_set":"elianto","hex":"#f73b6a7A","correct":-1,"choice":-1,"rt":-1,"accuracy":1,"outcome":"-10","keys":[],"total_keys":0,"block":1,"trial":35,"stimulus":4,"robot":4,"valence":"lose","action":"no-go","sham":1,"trial_type":"pit-trial","trial_index":65,"time_elapsed":296021,"internal_node_id":"0.0-40.0","task_version":"battery-v0.2-trt","session":2},{"rune":"L","rune_set":"elianto","hex":"#f73b6a7A","correct":32,"choice":-1,"rt":-1,"accuracy":0,"outcome":"-10","keys":[],"total_keys":0,"block":1,"trial":36,"stimulus":1,"robot":3,"valence":"lose","action":"go","sham":0,"trial_type":"pit-trial","trial_index":66,"time_elapsed":300025,"internal_node_id":"0.0-41.0","task_version":"battery-v0.2-trt","session":2},{"rune":"L","rune_set":"elianto","hex":"#f73b6a7A","correct":32,"choice":32,"rt":410.98000001511537,"accuracy":1,"outcome":"-1","keys":[1911.839999986114],"total_keys":1,"block":1,"trial":37,"stimulus":1,"robot":3,"valence":"lose","action":"go","sham":0,"trial_type":"pit-trial","trial_index":67,"time_elapsed":303140,"internal_node_id":"0.0-42.0","task_version":"battery-v0.2-trt","session":2},{"rune":"G","rune_set":"elianto","hex":"#3366ff99","correct":-1,"choice":32,"rt":561.6300000110641,"accuracy":0,"outcome":"+1","keys":[2062.2199999925215],"total_keys":1,"block":1,"trial":38,"stimulus":3,"robot":2,"valence":"win","action":"no-go","sham":0,"trial_type":"pit-trial","trial_index":68,"time_elapsed":306406,"internal_node_id":"0.0-43.0","task_version":"battery-v0.2-trt","session":2},{"rune":"U","rune_set":"elianto","hex":"#3366ff99","correct":32,"choice":-1,"rt":-1,"accuracy":0,"outcome":"+10","keys":[],"total_keys":0,"block":1,"trial":39,"stimulus":0,"robot":1,"valence":"win","action":"go","sham":1,"trial_type":"pit-trial","trial_index":69,"time_elapsed":310411,"internal_node_id":"0.0-44.0","task_version":"battery-v0.2-trt","session":2},{"rune":"P","rune_set":"elianto","hex":"#f73b6a7A","correct":-1,"choice":32,"rt":625.915000011446,"accuracy":0,"outcome":"-10","keys":[2126.6449999820907],"total_keys":1,"block":1,"trial":40,"stimulus":4,"robot":4,"valence":"lose","action":"no-go","sham":0,"trial_type":"pit-trial","trial_index":70,"time_elapsed":313741,"internal_node_id":"0.0-45.0","task_version":"battery-v0.2-trt","session":2},{"rune":"P","rune_set":"elianto","hex":"#f73b6a7A","correct":-1,"choice":-1,"rt":-1,"accuracy":1,"outcome":"-10","keys":[],"total_keys":0,"block":1,"trial":41,"stimulus":4,"robot":4,"valence":"lose","action":"no-go","sham":1,"trial_type":"pit-trial","trial_index":71,"time_elapsed":317752,"internal_node_id":"0.0-46.0","task_version":"battery-v0.2-trt","session":2},{"rune":"G","rune_set":"elianto","hex":"#3366ff99","correct":-1,"choice":32,"rt":528.1750000140164,"accuracy":0,"outcome":"+10","keys":[2028.2750000187661],"total_keys":1,"block":1,"trial":42,"stimulus":3,"robot":2,"valence":"win","action":"no-go","sham":1,"trial_type":"pit-trial","trial_index":72,"time_elapsed":320996,"internal_node_id":"0.0-47.0","task_version":"battery-v0.2-trt","session":2},{"rune":"U","rune_set":"elianto","hex":"#3366ff99","correct":32,"choice":32,"rt":213.38999998988584,"accuracy":1,"outcome":"+10","keys":[1713.8749999867287],"total_keys":1,"block":1,"trial":43,"stimulus":0,"robot":1,"valence":"win","action":"go","sham":0,"trial_type":"pit-trial","trial_index":73,"time_elapsed":323914,"internal_node_id":"0.0-48.0","task_version":"battery-v0.2-trt","session":2},{"rune":"S","rune_set":"elianto","hex":"#f73b6a7A","correct":32,"choice":32,"rt":705.8949999918696,"accuracy":1,"outcome":"-10","keys":[2206.529999995837],"total_keys":1,"block":1,"trial":44,"stimulus":5,"robot":3,"valence":"lose","action":"go","sham":1,"trial_type":"pit-trial","trial_index":74,"time_elapsed":327335,"internal_node_id":"0.0-49.0","task_version":"battery-v0.2-trt","session":2},{"rune":"U","rune_set":"elianto","hex":"#3366ff99","correct":32,"choice":-1,"rt":-1,"accuracy":0,"outcome":"+1","keys":[],"total_keys":0,"block":1,"trial":45,"stimulus":0,"robot":1,"valence":"win","action":"go","sham":0,"trial_type":"pit-trial","trial_index":75,"time_elapsed":331339,"internal_node_id":"0.0-50.0","task_version":"battery-v0.2-trt","session":2},{"rune":"G","rune_set":"elianto","hex":"#3366ff99","correct":-1,"choice":-1,"rt":-1,"accuracy":1,"outcome":"+10","keys":[],"total_keys":0,"block":1,"trial":46,"stimulus":3,"robot":2,"valence":"win","action":"no-go","sham":0,"trial_type":"pit-trial","trial_index":76,"time_elapsed":335344,"internal_node_id":"0.0-51.0","task_version":"battery-v0.2-trt","session":2},{"rune":"S","rune_set":"elianto","hex":"#f73b6a7A","correct":32,"choice":-1,"rt":-1,"accuracy":0,"outcome":"-1","keys":[],"total_keys":0,"block":1,"trial":47,"stimulus":5,"robot":3,"valence":"lose","action":"go","sham":1,"trial_type":"pit-trial","trial_index":77,"time_elapsed":339349,"internal_node_id":"0.0-52.0","task_version":"battery-v0.2-trt","session":2},{"rune":"P","rune_set":"elianto","hex":"#f73b6a7A","correct":-1,"choice":-1,"rt":-1,"accuracy":1,"outcome":"-10","keys":[],"total_keys":0,"block":1,"trial":48,"stimulus":4,"robot":4,"valence":"lose","action":"no-go","sham":1,"trial_type":"pit-trial","trial_index":78,"time_elapsed":343354,"internal_node_id":"0.0-53.0","task_version":"battery-v0.2-trt","session":2},{"rune":"S","rune_set":"elianto","hex":"#f73b6a7A","correct":32,"choice":32,"rt":417.06999999587424,"accuracy":1,"outcome":"-1","keys":[1917.2100000141654],"total_keys":1,"block":1,"trial":49,"stimulus":5,"robot":3,"valence":"lose","action":"go","sham":0,"trial_type":"pit-trial","trial_index":79,"time_elapsed":346475,"internal_node_id":"0.0-54.0","task_version":"battery-v0.2-trt","session":2},{"rune":"E","rune_set":"elianto","hex":"#3366ff99","correct":-1,"choice":32,"rt":617.3050000215881,"accuracy":0,"outcome":"+1","keys":[2118.524999998044],"total_keys":1,"block":1,"trial":50,"stimulus":7,"robot":2,"valence":"win","action":"no-go","sham":0,"trial_type":"pit-trial","trial_index":80,"time_elapsed":349797,"internal_node_id":"0.0-55.0","task_version":"battery-v0.2-trt","session":2},{"rune":"W","rune_set":"elianto","hex":"#3366ff99","correct":-1,"choice":-1,"rt":-1,"accuracy":1,"outcome":"+10","keys":[],"total_keys":0,"block":1,"trial":51,"stimulus":6,"robot":2,"valence":"win","action":"no-go","sham":0,"trial_type":"pit-trial","trial_index":81,"time_elapsed":353803,"internal_node_id":"0.0-56.0","task_version":"battery-v0.2-trt","session":2},{"rune":"P","rune_set":"elianto","hex":"#f73b6a7A","correct":-1,"choice":-1,"rt":-1,"accuracy":1,"outcome":"-1","keys":[],"total_keys":0,"block":1,"trial":52,"stimulus":4,"robot":4,"valence":"lose","action":"no-go","sham":0,"trial_type":"pit-trial","trial_index":82,"time_elapsed":357807,"internal_node_id":"0.0-57.0","task_version":"battery-v0.2-trt","session":2},{"rune":"P","rune_set":"elianto","hex":"#f73b6a7A","correct":-1,"choice":-1,"rt":-1,"accuracy":1,"outcome":"-1","keys":[],"total_keys":0,"block":1,"trial":53,"stimulus":4,"robot":4,"valence":"lose","action":"no-go","sham":0,"trial_type":"pit-trial","trial_index":83,"time_elapsed":361816,"internal_node_id":"0.0-58.0","task_version":"battery-v0.2-trt","session":2},{"rune":"W","rune_set":"elianto","hex":"#3366ff99","correct":-1,"choice":32,"rt":759.3099999940023,"accuracy":0,"outcome":"+1","keys":[2260.130000009667],"total_keys":1,"block":1,"trial":54,"stimulus":6,"robot":2,"valence":"win","action":"no-go","sham":0,"trial_type":"pit-trial","trial_index":84,"time_elapsed":365279,"internal_node_id":"0.0-59.0","task_version":"battery-v0.2-trt","session":2},{"rune":"E","rune_set":"elianto","hex":"#3366ff99","correct":-1,"choice":-1,"rt":-1,"accuracy":1,"outcome":"+1","keys":[],"total_keys":0,"block":1,"trial":55,"stimulus":7,"robot":2,"valence":"win","action":"no-go","sham":1,"trial_type":"pit-trial","trial_index":85,"time_elapsed":369284,"internal_node_id":"0.0-60.0","task_version":"battery-v0.2-trt","session":2},{"rune":"S","rune_set":"elianto","hex":"#f73b6a7A","correct":32,"choice":32,"rt":362.7599999890663,"accuracy":1,"outcome":"-1","keys":[1862.9850000143051],"total_keys":1,"block":1,"trial":56,"stimulus":5,"robot":3,"valence":"lose","action":"go","sham":0,"trial_type":"pit-trial","trial_index":86,"time_elapsed":372350,"internal_node_id":"0.0-61.0","task_version":"battery-v0.2-trt","session":2},{"rune":"S","rune_set":"elianto","hex":"#f73b6a7A","correct":32,"choice":-1,"rt":-1,"accuracy":0,"outcome":"-10","keys":[],"total_keys":0,"block":1,"trial":57,"stimulus":5,"robot":3,"valence":"lose","action":"go","sham":0,"trial_type":"pit-trial","trial_index":87,"time_elapsed":376355,"internal_node_id":"0.0-62.0","task_version":"battery-v0.2-trt","session":2},{"rune":"E","rune_set":"elianto","hex":"#3366ff99","correct":-1,"choice":32,"rt":324.57999998587184,"accuracy":0,"outcome":"+1","keys":[1825.6399999954738],"total_keys":1,"block":1,"trial":58,"stimulus":7,"robot":2,"valence":"win","action":"no-go","sham":0,"trial_type":"pit-trial","trial_index":88,"time_elapsed":379384,"internal_node_id":"0.0-63.0","task_version":"battery-v0.2-trt","session":2},{"rune":"W","rune_set":"elianto","hex":"#3366ff99","correct":-1,"choice":32,"rt":786.4100000006147,"accuracy":0,"outcome":"+1","keys":[2287.080000009155],"total_keys":1,"block":1,"trial":59,"stimulus":6,"robot":2,"valence":"win","action":"no-go","sham":0,"trial_type":"pit-trial","trial_index":89,"time_elapsed":382880,"internal_node_id":"0.0-64.0","task_version":"battery-v0.2-trt","session":2},{"rune":"P","rune_set":"elianto","hex":"#f73b6a7A","correct":-1,"choice":-1,"rt":-1,"accuracy":1,"outcome":"-1","keys":[],"total_keys":0,"block":1,"trial":60,"stimulus":4,"robot":4,"valence":"lose","action":"no-go","sham":0,"trial_type":"pit-trial","trial_index":90,"time_elapsed":386885,"internal_node_id":"0.0-65.0","task_version":"battery-v0.2-trt","session":2},{"rune":"W","rune_set":"elianto","hex":"#3366ff99","correct":-1,"choice":32,"rt":259.8149999976158,"accuracy":0,"outcome":"+1","keys":[1760.9449999872595],"total_keys":1,"block":1,"trial":61,"stimulus":6,"robot":2,"valence":"win","action":"no-go","sham":0,"trial_type":"pit-trial","trial_index":91,"time_elapsed":389851,"internal_node_id":"0.0-66.0","task_version":"battery-v0.2-trt","session":2},{"rune":"S","rune_set":"elianto","hex":"#f73b6a7A","correct":32,"choice":-1,"rt":-1,"accuracy":0,"outcome":"-10","keys":[],"total_keys":0,"block":1,"trial":62,"stimulus":5,"robot":3,"valence":"lose","action":"go","sham":0,"trial_type":"pit-trial","trial_index":92,"time_elapsed":393865,"internal_node_id":"0.0-67.0","task_version":"battery-v0.2-trt","session":2},{"rune":"E","rune_set":"elianto","hex":"#3366ff99","correct":-1,"choice":32,"rt":334.8450000048615,"accuracy":0,"outcome":"+1","keys":[1836.2450000131503],"total_keys":1,"block":1,"trial":63,"stimulus":7,"robot":2,"valence":"win","action":"no-go","sham":0,"trial_type":"pit-trial","trial_index":93,"time_elapsed":396905,"internal_node_id":"0.0-68.0","task_version":"battery-v0.2-trt","session":2},{"rune":"P","rune_set":"elianto","hex":"#f73b6a7A","correct":-1,"choice":-1,"rt":-1,"accuracy":1,"outcome":"-1","keys":[],"total_keys":0,"block":1,"trial":64,"stimulus":4,"robot":4,"valence":"lose","action":"no-go","sham":0,"trial_type":"pit-trial","trial_index":94,"time_elapsed":400909,"internal_node_id":"0.0-69.0","task_version":"battery-v0.2-trt","session":2},{"rune":"S","rune_set":"elianto","hex":"#f73b6a7A","correct":32,"choice":32,"rt":440.30000001657754,"accuracy":1,"outcome":"-10","keys":[1940.7199999841396],"total_keys":1,"block":1,"trial":65,"stimulus":5,"robot":3,"valence":"lose","action":"go","sham":1,"trial_type":"pit-trial","trial_index":95,"time_elapsed":404054,"internal_node_id":"0.0-70.0","task_version":"battery-v0.2-trt","session":2},{"rune":"E","rune_set":"elianto","hex":"#3366ff99","correct":-1,"choice":32,"rt":976.2599999958184,"accuracy":0,"outcome":"+10","keys":[2476.9649999798276],"total_keys":1,"block":1,"trial":66,"stimulus":7,"robot":2,"valence":"win","action":"no-go","sham":1,"trial_type":"pit-trial","trial_index":96,"time_elapsed":407734,"internal_node_id":"0.0-71.0","task_version":"battery-v0.2-trt","session":2},{"rune":"P","rune_set":"elianto","hex":"#f73b6a7A","correct":-1,"choice":-1,"rt":-1,"accuracy":1,"outcome":"-1","keys":[],"total_keys":0,"block":1,"trial":67,"stimulus":4,"robot":4,"valence":"lose","action":"no-go","sham":0,"trial_type":"pit-trial","trial_index":97,"time_elapsed":411739,"internal_node_id":"0.0-72.0","task_version":"battery-v0.2-trt","session":2},{"rune":"W","rune_set":"elianto","hex":"#3366ff99","correct":-1,"choice":32,"rt":458.7100000062492,"accuracy":0,"outcome":"+1","keys":[1960.6800000183284],"total_keys":1,"block":1,"trial":68,"stimulus":6,"robot":2,"valence":"win","action":"no-go","sham":0,"trial_type":"pit-trial","trial_index":98,"time_elapsed":414904,"internal_node_id":"0.0-73.0","task_version":"battery-v0.2-trt","session":2},{"rune":"E","rune_set":"elianto","hex":"#3366ff99","correct":-1,"choice":-1,"rt":-1,"accuracy":1,"outcome":"+10","keys":[],"total_keys":0,"block":1,"trial":69,"stimulus":7,"robot":2,"valence":"win","action":"no-go","sham":0,"trial_type":"pit-trial","trial_index":99,"time_elapsed":418908,"internal_node_id":"0.0-74.0","task_version":"battery-v0.2-trt","session":2},{"rune":"S","rune_set":"elianto","hex":"#f73b6a7A","correct":32,"choice":32,"rt":495.1350000046659,"accuracy":1,"outcome":"-1","keys":[1995.5450000124983],"total_keys":1,"block":1,"trial":70,"stimulus":5,"robot":3,"valence":"lose","action":"go","sham":0,"trial_type":"pit-trial","trial_index":100,"time_elapsed":422107,"internal_node_id":"0.0-75.0","task_version":"battery-v0.2-trt","session":2},{"rune":"W","rune_set":"elianto","hex":"#3366ff99","correct":-1,"choice":32,"rt":562.1600000013132,"accuracy":0,"outcome":"+1","keys":[2063.6200000008103],"total_keys":1,"block":1,"trial":71,"stimulus":6,"robot":2,"valence":"win","action":"no-go","sham":0,"trial_type":"pit-trial","trial_index":101,"time_elapsed":425382,"internal_node_id":"0.0-76.0","task_version":"battery-v0.2-trt","session":2},{"rune":"P","rune_set":"elianto","hex":"#f73b6a7A","correct":-1,"choice":32,"rt":551.6350000107195,"accuracy":0,"outcome":"-10","keys":[2052.7749999891967],"total_keys":1,"block":1,"trial":72,"stimulus":4,"robot":4,"valence":"lose","action":"no-go","sham":0,"trial_type":"pit-trial","trial_index":102,"time_elapsed":428641,"internal_node_id":"0.0-77.0","task_version":"battery-v0.2-trt","session":2},{"rune":"W","rune_set":"elianto","hex":"#3366ff99","correct":-1,"choice":-1,"rt":-1,"accuracy":1,"outcome":"+10","keys":[],"total_keys":0,"block":1,"trial":73,"stimulus":6,"robot":2,"valence":"win","action":"no-go","sham":0,"trial_type":"pit-trial","trial_index":103,"time_elapsed":432646,"internal_node_id":"0.0-78.0","task_version":"battery-v0.2-trt","session":2},{"rune":"E","rune_set":"elianto","hex":"#3366ff99","correct":-1,"choice":-1,"rt":-1,"accuracy":1,"outcome":"+10","keys":[2878.790000017034],"total_keys":1,"block":1,"trial":74,"stimulus":7,"robot":2,"valence":"win","action":"no-go","sham":0,"trial_type":"pit-trial","trial_index":104,"time_elapsed":436663,"internal_node_id":"0.0-79.0","task_version":"battery-v0.2-trt","session":2},{"rune":"P","rune_set":"elianto","hex":"#f73b6a7A","correct":-1,"choice":-1,"rt":-1,"accuracy":1,"outcome":"-10","keys":[],"total_keys":0,"block":1,"trial":75,"stimulus":4,"robot":4,"valence":"lose","action":"no-go","sham":1,"trial_type":"pit-trial","trial_index":105,"time_elapsed":440668,"internal_node_id":"0.0-80.0","task_version":"battery-v0.2-trt","session":2},{"rune":"S","rune_set":"elianto","hex":"#f73b6a7A","correct":32,"choice":-1,"rt":-1,"accuracy":0,"outcome":"-1","keys":[],"total_keys":0,"block":1,"trial":76,"stimulus":5,"robot":3,"valence":"lose","action":"go","sham":1,"trial_type":"pit-trial","trial_index":106,"time_elapsed":444672,"internal_node_id":"0.0-81.0","task_version":"battery-v0.2-trt","session":2},{"rune":"E","rune_set":"elianto","hex":"#3366ff99","correct":-1,"choice":32,"rt":250.34999998752028,"accuracy":0,"outcome":"+10","keys":[1750.6249999860302],"total_keys":1,"block":1,"trial":77,"stimulus":7,"robot":2,"valence":"win","action":"no-go","sham":1,"trial_type":"pit-trial","trial_index":107,"time_elapsed":447627,"internal_node_id":"0.0-82.0","task_version":"battery-v0.2-trt","session":2},{"rune":"S","rune_set":"elianto","hex":"#f73b6a7A","correct":32,"choice":-1,"rt":-1,"accuracy":0,"outcome":"-1","keys":[],"total_keys":0,"block":1,"trial":78,"stimulus":5,"robot":3,"valence":"lose","action":"go","sham":1,"trial_type":"pit-trial","trial_index":108,"time_elapsed":451630,"internal_node_id":"0.0-83.0","task_version":"battery-v0.2-trt","session":2},{"rune":"W","rune_set":"elianto","hex":"#3366ff99","correct":-1,"choice":32,"rt":439.74999999045394,"accuracy":0,"outcome":"+10","keys":[1940.9800000139512],"total_keys":1,"block":1,"trial":79,"stimulus":6,"robot":2,"valence":"win","action":"no-go","sham":1,"trial_type":"pit-trial","trial_index":109,"time_elapsed":454775,"internal_node_id":"0.0-84.0","task_version":"battery-v0.2-trt","session":2},{"rune":"P","rune_set":"elianto","hex":"#f73b6a7A","correct":-1,"choice":-1,"rt":-1,"accuracy":1,"outcome":"-1","keys":[],"total_keys":0,"block":1,"trial":80,"stimulus":4,"robot":4,"valence":"lose","action":"no-go","sham":0,"trial_type":"pit-trial","trial_index":110,"time_elapsed":458779,"internal_node_id":"0.0-85.0","task_version":"battery-v0.2-trt","session":2},{"rune":"S","rune_set":"elianto","hex":"#f73b6a7A","correct":32,"choice":-1,"rt":-1,"accuracy":0,"outcome":"-10","keys":[],"total_keys":0,"block":1,"trial":81,"stimulus":5,"robot":3,"valence":"lose","action":"go","sham":0,"trial_type":"pit-trial","trial_index":111,"time_elapsed":462784,"internal_node_id":"0.0-86.0","task_version":"battery-v0.2-trt","session":2},{"rune":"E","rune_set":"elianto","hex":"#3366ff99","correct":-1,"choice":32,"rt":587.7650000038557,"accuracy":0,"outcome":"+1","keys":[2089.1149999806657],"total_keys":1,"block":1,"trial":82,"stimulus":7,"robot":2,"valence":"win","action":"no-go","sham":0,"trial_type":"pit-trial","trial_index":112,"time_elapsed":466077,"internal_node_id":"0.0-87.0","task_version":"battery-v0.2-trt","session":2},{"rune":"D","rune_set":"elianto","hex":"#f73b6a7A","correct":-1,"choice":32,"rt":374.47499998961575,"accuracy":0,"outcome":"-10","keys":[1874.920000002021],"total_keys":1,"block":1,"trial":83,"stimulus":9,"robot":4,"valence":"lose","action":"no-go","sham":0,"trial_type":"pit-trial","trial_index":113,"time_elapsed":469155,"internal_node_id":"0.0-88.0","task_version":"battery-v0.2-trt","session":2},{"rune":"K","rune_set":"elianto","hex":"#3366ff99","correct":32,"choice":32,"rt":490.86999997962266,"accuracy":1,"outcome":"+10","keys":[1991.760000004433],"total_keys":1,"block":1,"trial":84,"stimulus":8,"robot":1,"valence":"win","action":"go","sham":0,"trial_type":"pit-trial","trial_index":114,"time_elapsed":472351,"internal_node_id":"0.0-89.0","task_version":"battery-v0.2-trt","session":2},{"rune":"K","rune_set":"elianto","hex":"#3366ff99","correct":32,"choice":32,"rt":555.6550000037532,"accuracy":1,"outcome":"+10","keys":[2057.6949999958742],"total_keys":1,"block":1,"trial":85,"stimulus":8,"robot":1,"valence":"win","action":"go","sham":0,"trial_type":"pit-trial","trial_index":115,"time_elapsed":475612,"internal_node_id":"0.0-90.0","task_version":"battery-v0.2-trt","session":2},{"rune":"D","rune_set":"elianto","hex":"#f73b6a7A","correct":-1,"choice":-1,"rt":-1,"accuracy":1,"outcome":"-1","keys":[],"total_keys":0,"block":1,"trial":86,"stimulus":9,"robot":4,"valence":"lose","action":"no-go","sham":0,"trial_type":"pit-trial","trial_index":116,"time_elapsed":479617,"internal_node_id":"0.0-91.0","task_version":"battery-v0.2-trt","session":2},{"rune":"S","rune_set":"elianto","hex":"#f73b6a7A","correct":32,"choice":32,"rt":1170.5300000030547,"accuracy":1,"outcome":"-1","keys":[2670.6499999854714],"total_keys":1,"block":1,"trial":87,"stimulus":5,"robot":3,"valence":"lose","action":"go","sham":0,"trial_type":"pit-trial","trial_index":117,"time_elapsed":483491,"internal_node_id":"0.0-92.0","task_version":"battery-v0.2-trt","session":2},{"rune":"E","rune_set":"elianto","hex":"#3366ff99","correct":-1,"choice":32,"rt":702.7900000102818,"accuracy":0,"outcome":"+1","keys":[2204.3500000145286],"total_keys":1,"block":1,"trial":88,"stimulus":7,"robot":2,"valence":"win","action":"no-go","sham":0,"trial_type":"pit-trial","trial_index":118,"time_elapsed":486900,"internal_node_id":"0.0-93.0","task_version":"battery-v0.2-trt","session":2},{"rune":"V","rune_set":"elianto","hex":"#3366ff99","correct":32,"choice":32,"rt":294.82999999891035,"accuracy":1,"outcome":"+10","keys":[1795.1199999952223],"total_keys":1,"block":1,"trial":89,"stimulus":11,"robot":1,"valence":"win","action":"go","sham":0,"trial_type":"pit-trial","trial_index":119,"time_elapsed":489900,"internal_node_id":"0.0-94.0","task_version":"battery-v0.2-trt","session":2},{"rune":"D","rune_set":"elianto","hex":"#f73b6a7A","correct":-1,"choice":-1,"rt":-1,"accuracy":1,"outcome":"-1","keys":[],"total_keys":0,"block":1,"trial":90,"stimulus":9,"robot":4,"valence":"lose","action":"no-go","sham":0,"trial_type":"pit-trial","trial_index":120,"time_elapsed":493904,"internal_node_id":"0.0-95.0","task_version":"battery-v0.2-trt","session":2},{"rune":"K","rune_set":"elianto","hex":"#3366ff99","correct":32,"choice":-1,"rt":-1,"accuracy":0,"outcome":"+10","keys":[],"total_keys":0,"block":1,"trial":91,"stimulus":8,"robot":1,"valence":"win","action":"go","sham":1,"trial_type":"pit-trial","trial_index":121,"time_elapsed":497908,"internal_node_id":"0.0-96.0","task_version":"battery-v0.2-trt","session":2},{"rune":"J","rune_set":"elianto","hex":"#f73b6a7A","correct":32,"choice":-1,"rt":-1,"accuracy":0,"outcome":"-10","keys":[],"total_keys":0,"block":1,"trial":92,"stimulus":10,"robot":3,"valence":"lose","action":"go","sham":0,"trial_type":"pit-trial","trial_index":122,"time_elapsed":501912,"internal_node_id":"0.0-97.0","task_version":"battery-v0.2-trt","session":2},{"rune":"K","rune_set":"elianto","hex":"#3366ff99","correct":32,"choice":32,"rt":448.00999999279156,"accuracy":1,"outcome":"+10","keys":[1948.9549999998417],"total_keys":1,"block":1,"trial":93,"stimulus":8,"robot":1,"valence":"win","action":"go","sham":0,"trial_type":"pit-trial","trial_index":123,"time_elapsed":505064,"internal_node_id":"0.0-98.0","task_version":"battery-v0.2-trt","session":2},{"rune":"D","rune_set":"elianto","hex":"#f73b6a7A","correct":-1,"choice":-1,"rt":-1,"accuracy":1,"outcome":"-1","keys":[],"total_keys":0,"block":1,"trial":94,"stimulus":9,"robot":4,"valence":"lose","action":"no-go","sham":0,"trial_type":"pit-trial","trial_index":124,"time_elapsed":509067,"internal_node_id":"0.0-99.0","task_version":"battery-v0.2-trt","session":2},{"rune":"V","rune_set":"elianto","hex":"#3366ff99","correct":32,"choice":32,"rt":267.5549999985378,"accuracy":1,"outcome":"+10","keys":[1767.5900000031106],"total_keys":1,"block":1,"trial":95,"stimulus":11,"robot":1,"valence":"win","action":"go","sham":0,"trial_type":"pit-trial","trial_index":125,"time_elapsed":512039,"internal_node_id":"0.0-100.0","task_version":"battery-v0.2-trt","session":2},{"rune":"J","rune_set":"elianto","hex":"#f73b6a7A","correct":32,"choice":-1,"rt":-1,"accuracy":0,"outcome":"-10","keys":[],"total_keys":0,"block":1,"trial":96,"stimulus":10,"robot":3,"valence":"lose","action":"go","sham":0,"trial_type":"pit-trial","trial_index":126,"time_elapsed":516043,"internal_node_id":"0.0-101.0","task_version":"battery-v0.2-trt","session":2},{"rune":"V","rune_set":"elianto","hex":"#3366ff99","correct":32,"choice":32,"rt":252.6099999959115,"accuracy":1,"outcome":"+10","keys":[1752.8050000255462],"total_keys":1,"block":1,"trial":97,"stimulus":11,"robot":1,"valence":"win","action":"go","sham":0,"trial_type":"pit-trial","trial_index":127,"time_elapsed":519000,"internal_node_id":"0.0-102.0","task_version":"battery-v0.2-trt","session":2},{"rune":"D","rune_set":"elianto","hex":"#f73b6a7A","correct":-1,"choice":-1,"rt":-1,"accuracy":1,"outcome":"-1","keys":[],"total_keys":0,"block":1,"trial":98,"stimulus":9,"robot":4,"valence":"lose","action":"no-go","sham":0,"trial_type":"pit-trial","trial_index":128,"time_elapsed":523003,"internal_node_id":"0.0-103.0","task_version":"battery-v0.2-trt","session":2},{"rune":"J","rune_set":"elianto","hex":"#f73b6a7A","correct":32,"choice":32,"rt":717.8049999929499,"accuracy":1,"outcome":"-1","keys":[2219.2700000014156],"total_keys":1,"block":1,"trial":99,"stimulus":10,"robot":3,"valence":"lose","action":"go","sham":0,"trial_type":"pit-trial","trial_index":129,"time_elapsed":526427,"internal_node_id":"0.0-104.0","task_version":"battery-v0.2-trt","session":2},{"rune":"K","rune_set":"elianto","hex":"#3366ff99","correct":32,"choice":-1,"rt":-1,"accuracy":0,"outcome":"+1","keys":[3399.795000004815],"total_keys":1,"block":1,"trial":100,"stimulus":8,"robot":1,"valence":"win","action":"go","sham":0,"trial_type":"pit-trial","trial_index":130,"time_elapsed":530430,"internal_node_id":"0.0-105.0","task_version":"battery-v0.2-trt","session":2},{"rune":"J","rune_set":"elianto","hex":"#f73b6a7A","correct":32,"choice":-1,"rt":-1,"accuracy":0,"outcome":"-10","keys":[],"total_keys":0,"block":1,"trial":101,"stimulus":10,"robot":3,"valence":"lose","action":"go","sham":0,"trial_type":"pit-trial","trial_index":131,"time_elapsed":534446,"internal_node_id":"0.0-106.0","task_version":"battery-v0.2-trt","session":2},{"rune":"K","rune_set":"elianto","hex":"#3366ff99","correct":32,"choice":-1,"rt":-1,"accuracy":0,"outcome":"+10","keys":[],"total_keys":0,"block":1,"trial":102,"stimulus":8,"robot":1,"valence":"win","action":"go","sham":1,"trial_type":"pit-trial","trial_index":132,"time_elapsed":538451,"internal_node_id":"0.0-107.0","task_version":"battery-v0.2-trt","session":2},{"rune":"D","rune_set":"elianto","hex":"#f73b6a7A","correct":-1,"choice":-1,"rt":-1,"accuracy":1,"outcome":"-1","keys":[2818.8049999880604],"total_keys":1,"block":1,"trial":103,"stimulus":9,"robot":4,"valence":"lose","action":"no-go","sham":0,"trial_type":"pit-trial","trial_index":133,"time_elapsed":542455,"internal_node_id":"0.0-108.0","task_version":"battery-v0.2-trt","session":2},{"rune":"V","rune_set":"elianto","hex":"#3366ff99","correct":32,"choice":-1,"rt":-1,"accuracy":0,"outcome":"+1","keys":[],"total_keys":0,"block":1,"trial":104,"stimulus":11,"robot":1,"valence":"win","action":"go","sham":0,"trial_type":"pit-trial","trial_index":134,"time_elapsed":546459,"internal_node_id":"0.0-109.0","task_version":"battery-v0.2-trt","session":2},{"rune":"J","rune_set":"elianto","hex":"#f73b6a7A","correct":32,"choice":32,"rt":481.97500000242144,"accuracy":1,"outcome":"-1","keys":[1982.3150000011083],"total_keys":1,"block":1,"trial":105,"stimulus":10,"robot":3,"valence":"lose","action":"go","sham":0,"trial_type":"pit-trial","trial_index":135,"time_elapsed":549645,"internal_node_id":"0.0-110.0","task_version":"battery-v0.2-trt","session":2},{"rune":"D","rune_set":"elianto","hex":"#f73b6a7A","correct":-1,"choice":-1,"rt":-1,"accuracy":1,"outcome":"-1","keys":[],"total_keys":0,"block":1,"trial":106,"stimulus":9,"robot":4,"valence":"lose","action":"no-go","sham":0,"trial_type":"pit-trial","trial_index":136,"time_elapsed":553649,"internal_node_id":"0.0-111.0","task_version":"battery-v0.2-trt","session":2},{"rune":"K","rune_set":"elianto","hex":"#3366ff99","correct":32,"choice":32,"rt":481.08500000671484,"accuracy":1,"outcome":"+10","keys":[1981.325000000652],"total_keys":1,"block":1,"trial":107,"stimulus":8,"robot":1,"valence":"win","action":"go","sham":0,"trial_type":"pit-trial","trial_index":137,"time_elapsed":556834,"internal_node_id":"0.0-112.0","task_version":"battery-v0.2-trt","session":2},{"rune":"V","rune_set":"elianto","hex":"#3366ff99","correct":32,"choice":32,"rt":527.8249999973923,"accuracy":1,"outcome":"+10","keys":[2028.0149999889545],"total_keys":1,"block":1,"trial":108,"stimulus":11,"robot":1,"valence":"win","action":"go","sham":0,"trial_type":"pit-trial","trial_index":138,"time_elapsed":560065,"internal_node_id":"0.0-113.0","task_version":"battery-v0.2-trt","session":2},{"rune":"K","rune_set":"elianto","hex":"#3366ff99","correct":32,"choice":-1,"rt":-1,"accuracy":0,"outcome":"+1","keys":[],"total_keys":0,"block":1,"trial":109,"stimulus":8,"robot":1,"valence":"win","action":"go","sham":0,"trial_type":"pit-trial","trial_index":139,"time_elapsed":564070,"internal_node_id":"0.0-114.0","task_version":"battery-v0.2-trt","session":2},{"rune":"D","rune_set":"elianto","hex":"#f73b6a7A","correct":-1,"choice":-1,"rt":-1,"accuracy":1,"outcome":"-1","keys":[],"total_keys":0,"block":1,"trial":110,"stimulus":9,"robot":4,"valence":"lose","action":"no-go","sham":0,"trial_type":"pit-trial","trial_index":140,"time_elapsed":568076,"internal_node_id":"0.0-115.0","task_version":"battery-v0.2-trt","session":2},{"rune":"V","rune_set":"elianto","hex":"#3366ff99","correct":32,"choice":32,"rt":828.1750000023749,"accuracy":1,"outcome":"+10","keys":[2329.135000007227],"total_keys":1,"block":1,"trial":111,"stimulus":11,"robot":1,"valence":"win","action":"go","sham":0,"trial_type":"pit-trial","trial_index":141,"time_elapsed":571609,"internal_node_id":"0.0-116.0","task_version":"battery-v0.2-trt","session":2},{"rune":"J","rune_set":"elianto","hex":"#f73b6a7A","correct":32,"choice":-1,"rt":-1,"accuracy":0,"outcome":"-10","keys":[],"total_keys":0,"block":1,"trial":112,"stimulus":10,"robot":3,"valence":"lose","action":"go","sham":0,"trial_type":"pit-trial","trial_index":142,"time_elapsed":575613,"internal_node_id":"0.0-117.0","task_version":"battery-v0.2-trt","session":2},{"rune":"D","rune_set":"elianto","hex":"#f73b6a7A","correct":-1,"choice":32,"rt":37.0800000091549,"accuracy":0,"outcome":"-1","keys":[1538.719999982277],"total_keys":1,"block":1,"trial":113,"stimulus":9,"robot":4,"valence":"lose","action":"no-go","sham":1,"trial_type":"pit-trial","trial_index":143,"time_elapsed":578356,"internal_node_id":"0.0-118.0","task_version":"battery-v0.2-trt","session":2},{"rune":"V","rune_set":"elianto","hex":"#3366ff99","correct":32,"choice":-1,"rt":-1,"accuracy":0,"outcome":"+1","keys":[],"total_keys":0,"block":1,"trial":114,"stimulus":11,"robot":1,"valence":"win","action":"go","sham":0,"trial_type":"pit-trial","trial_index":144,"time_elapsed":582360,"internal_node_id":"0.0-119.0","task_version":"battery-v0.2-trt","session":2},{"rune":"J","rune_set":"elianto","hex":"#f73b6a7A","correct":32,"choice":32,"rt":325.74500000919215,"accuracy":1,"outcome":"-10","keys":[1826.9549999968149],"total_keys":1,"block":1,"trial":115,"stimulus":10,"robot":3,"valence":"lose","action":"go","sham":1,"trial_type":"pit-trial","trial_index":145,"time_elapsed":585391,"internal_node_id":"0.0-120.0","task_version":"battery-v0.2-trt","session":2},{"rune":"K","rune_set":"elianto","hex":"#3366ff99","correct":32,"choice":32,"rt":636.6899999848101,"accuracy":1,"outcome":"+10","keys":[2136.7849999805912],"total_keys":1,"block":1,"trial":116,"stimulus":8,"robot":1,"valence":"win","action":"go","sham":0,"trial_type":"pit-trial","trial_index":146,"time_elapsed":588731,"internal_node_id":"0.0-121.0","task_version":"battery-v0.2-trt","session":2},{"rune":"J","rune_set":"elianto","hex":"#f73b6a7A","correct":32,"choice":-1,"rt":-1,"accuracy":0,"outcome":"-10","keys":[],"total_keys":0,"block":1,"trial":117,"stimulus":10,"robot":3,"valence":"lose","action":"go","sham":0,"trial_type":"pit-trial","trial_index":147,"time_elapsed":592736,"internal_node_id":"0.0-122.0","task_version":"battery-v0.2-trt","session":2},{"rune":"V","rune_set":"elianto","hex":"#3366ff99","correct":32,"choice":-1,"rt":-1,"accuracy":0,"outcome":"+1","keys":[],"total_keys":0,"block":1,"trial":118,"stimulus":11,"robot":1,"valence":"win","action":"go","sham":0,"trial_type":"pit-trial","trial_index":148,"time_elapsed":596746,"internal_node_id":"0.0-123.0","task_version":"battery-v0.2-trt","session":2},{"rune":"K","rune_set":"elianto","hex":"#3366ff99","correct":32,"choice":-1,"rt":-1,"accuracy":0,"outcome":"+1","keys":[],"total_keys":0,"block":1,"trial":119,"stimulus":8,"robot":1,"valence":"win","action":"go","sham":0,"trial_type":"pit-trial","trial_index":149,"time_elapsed":600750,"internal_node_id":"0.0-124.0","task_version":"battery-v0.2-trt","session":2},{"rune":"D","rune_set":"elianto","hex":"#f73b6a7A","correct":-1,"choice":32,"rt":382.30500000645407,"accuracy":0,"outcome":"-10","keys":[1882.9350000014529],"total_keys":1,"block":1,"trial":120,"stimulus":9,"robot":4,"valence":"lose","action":"no-go","sham":0,"trial_type":"pit-trial","trial_index":150,"time_elapsed":603837,"internal_node_id":"0.0-125.0","task_version":"battery-v0.2-trt","session":2},{"view_history":"[{\"page_index\":0,\"viewing_time\":9283.454999997048},{\"page_index\":1,\"viewing_time\":2274.940000002971}]","rt":11558.669999998529,"trial_type":"pit-instructions","trial_index":151,"time_elapsed":615399,"internal_node_id":"0.0-126.0","task_version":"battery-v0.2-trt","session":2},{"rune":"R","rune_set":"elianto","hex":"#f73b6a7A","correct":32,"choice":-1,"rt":-1,"accuracy":0,"outcome":"-10","keys":[],"total_keys":0,"block":2,"trial":121,"stimulus":1,"robot":3,"valence":"lose","action":"go","sham":0,"trial_type":"pit-trial","trial_index":152,"time_elapsed":619405,"internal_node_id":"0.0-127.0","task_version":"battery-v0.2-trt","session":2},{"rune":"M","rune_set":"elianto","hex":"#f73b6a7A","correct":-1,"choice":32,"rt":264.4950000103563,"accuracy":0,"outcome":"-10","keys":[1764.820000011241],"total_keys":1,"block":2,"trial":122,"stimulus":0,"robot":4,"valence":"lose","action":"no-go","sham":0,"trial_type":"pit-trial","trial_index":153,"time_elapsed":622375,"internal_node_id":"0.0-128.0","task_version":"battery-v0.2-trt","session":2},{"rune":"H","rune_set":"elianto","hex":"#3366ff99","correct":32,"choice":-1,"rt":-1,"accuracy":0,"outcome":"+1","keys":[],"total_keys":0,"block":2,"trial":123,"stimulus":3,"robot":1,"valence":"win","action":"go","sham":0,"trial_type":"pit-trial","trial_index":154,"time_elapsed":626379,"internal_node_id":"0.0-129.0","task_version":"battery-v0.2-trt","session":2},{"rune":"Y","rune_set":"elianto","hex":"#f73b6a7A","correct":32,"choice":-1,"rt":-1,"accuracy":0,"outcome":"-10","keys":[],"total_keys":0,"block":2,"trial":124,"stimulus":2,"robot":3,"valence":"lose","action":"go","sham":0,"trial_type":"pit-trial","trial_index":155,"time_elapsed":630382,"internal_node_id":"0.0-130.0","task_version":"battery-v0.2-trt","session":2},{"rune":"R","rune_set":"elianto","hex":"#f73b6a7A","correct":32,"choice":32,"rt":979.3200000131037,"accuracy":1,"outcome":"-1","keys":[2480.554999987362],"total_keys":1,"block":2,"trial":125,"stimulus":1,"robot":3,"valence":"lose","action":"go","sham":0,"trial_type":"pit-trial","trial_index":156,"time_elapsed":634066,"internal_node_id":"0.0-131.0","task_version":"battery-v0.2-trt","session":2},{"rune":"M","rune_set":"elianto","hex":"#f73b6a7A","correct":-1,"choice":-1,"rt":-1,"accuracy":1,"outcome":"-1","keys":[3222.6450000016484],"total_keys":1,"block":2,"trial":126,"stimulus":0,"robot":4,"valence":"lose","action":"no-go","sham":0,"trial_type":"pit-trial","trial_index":157,"time_elapsed":638070,"internal_node_id":"0.0-132.0","task_version":"battery-v0.2-trt","session":2},{"rune":"H","rune_set":"elianto","hex":"#3366ff99","correct":32,"choice":-1,"rt":-1,"accuracy":0,"outcome":"+10","keys":[],"total_keys":0,"block":2,"trial":127,"stimulus":3,"robot":1,"valence":"win","action":"go","sham":1,"trial_type":"pit-trial","trial_index":158,"time_elapsed":642075,"internal_node_id":"0.0-133.0","task_version":"battery-v0.2-trt","session":2},{"rune":"Y","rune_set":"elianto","hex":"#f73b6a7A","correct":32,"choice":32,"rt":256.58499999553896,"accuracy":1,"outcome":"-10","keys":[1757.099999987986],"total_keys":1,"block":2,"trial":128,"stimulus":2,"robot":3,"valence":"lose","action":"go","sham":1,"trial_type":"pit-trial","trial_index":159,"time_elapsed":645035,"internal_node_id":"0.0-134.0","task_version":"battery-v0.2-trt","session":2},{"rune":"R","rune_set":"elianto","hex":"#f73b6a7A","correct":32,"choice":32,"rt":380.86000000475906,"accuracy":1,"outcome":"-10","keys":[1880.990000005113],"total_keys":1,"block":2,"trial":129,"stimulus":1,"robot":3,"valence":"lose","action":"go","sham":1,"trial_type":"pit-trial","trial_index":160,"time_elapsed":648120,"internal_node_id":"0.0-135.0","task_version":"battery-v0.2-trt","session":2},{"rune":"Y","rune_set":"elianto","hex":"#f73b6a7A","correct":32,"choice":-1,"rt":-1,"accuracy":0,"outcome":"-1","keys":[3071.0850000032224],"total_keys":1,"block":2,"trial":130,"stimulus":2,"robot":3,"valence":"lose","action":"go","sham":1,"trial_type":"pit-trial","trial_index":161,"time_elapsed":652126,"internal_node_id":"0.0-136.0","task_version":"battery-v0.2-trt","session":2},{"rune":"H","rune_set":"elianto","hex":"#3366ff99","correct":32,"choice":-1,"rt":-1,"accuracy":0,"outcome":"+1","keys":[3554.650000005495],"total_keys":1,"block":2,"trial":131,"stimulus":3,"robot":1,"valence":"win","action":"go","sham":0,"trial_type":"pit-trial","trial_index":162,"time_elapsed":656130,"internal_node_id":"0.0-137.0","task_version":"battery-v0.2-trt","session":2},{"rune":"M","rune_set":"elianto","hex":"#f73b6a7A","correct":-1,"choice":32,"rt":1012.300000002142,"accuracy":0,"outcome":"-1","keys":[2512.540000025183],"total_keys":1,"block":2,"trial":132,"stimulus":0,"robot":4,"valence":"lose","action":"no-go","sham":1,"trial_type":"pit-trial","trial_index":163,"time_elapsed":659847,"internal_node_id":"0.0-138.0","task_version":"battery-v0.2-trt","session":2},{"rune":"Y","rune_set":"elianto","hex":"#f73b6a7A","correct":32,"choice":-1,"rt":-1,"accuracy":0,"outcome":"-10","keys":[3630.334999994375],"total_keys":1,"block":2,"trial":133,"stimulus":2,"robot":3,"valence":"lose","action":"go","sham":0,"trial_type":"pit-trial","trial_index":164,"time_elapsed":663851,"internal_node_id":"0.0-139.0","task_version":"battery-v0.2-trt","session":2},{"rune":"R","rune_set":"elianto","hex":"#f73b6a7A","correct":32,"choice":-1,"rt":-1,"accuracy":0,"outcome":"-1","keys":[],"total_keys":0,"block":2,"trial":134,"stimulus":1,"robot":3,"valence":"lose","action":"go","sham":1,"trial_type":"pit-trial","trial_index":165,"time_elapsed":667854,"internal_node_id":"0.0-140.0","task_version":"battery-v0.2-trt","session":2},{"rune":"H","rune_set":"elianto","hex":"#3366ff99","correct":32,"choice":32,"rt":736.0800000024028,"accuracy":1,"outcome":"+10","keys":[2236.139999993611],"total_keys":1,"block":2,"trial":135,"stimulus":3,"robot":1,"valence":"win","action":"go","sham":0,"trial_type":"pit-trial","trial_index":166,"time_elapsed":671294,"internal_node_id":"0.0-141.0","task_version":"battery-v0.2-trt","session":2},{"rune":"M","rune_set":"elianto","hex":"#f73b6a7A","correct":-1,"choice":-1,"rt":-1,"accuracy":1,"outcome":"-1","keys":[],"total_keys":0,"block":2,"trial":136,"stimulus":0,"robot":4,"valence":"lose","action":"no-go","sham":0,"trial_type":"pit-trial","trial_index":167,"time_elapsed":675299,"internal_node_id":"0.0-142.0","task_version":"battery-v0.2-trt","session":2},{"rune":"Y","rune_set":"elianto","hex":"#f73b6a7A","correct":32,"choice":-1,"rt":-1,"accuracy":0,"outcome":"-10","keys":[],"total_keys":0,"block":2,"trial":137,"stimulus":2,"robot":3,"valence":"lose","action":"go","sham":0,"trial_type":"pit-trial","trial_index":168,"time_elapsed":679318,"internal_node_id":"0.0-143.0","task_version":"battery-v0.2-trt","session":2},{"rune":"H","rune_set":"elianto","hex":"#3366ff99","correct":32,"choice":32,"rt":618.9749999903142,"accuracy":1,"outcome":"+10","keys":[2119.8399999993853],"total_keys":1,"block":2,"trial":138,"stimulus":3,"robot":1,"valence":"win","action":"go","sham":0,"trial_type":"pit-trial","trial_index":169,"time_elapsed":682643,"internal_node_id":"0.0-144.0","task_version":"battery-v0.2-trt","session":2},{"rune":"M","rune_set":"elianto","hex":"#f73b6a7A","correct":-1,"choice":-1,"rt":-1,"accuracy":1,"outcome":"-1","keys":[],"total_keys":0,"block":2,"trial":139,"stimulus":0,"robot":4,"valence":"lose","action":"no-go","sham":0,"trial_type":"pit-trial","trial_index":170,"time_elapsed":686647,"internal_node_id":"0.0-145.0","task_version":"battery-v0.2-trt","session":2},{"rune":"R","rune_set":"elianto","hex":"#f73b6a7A","correct":32,"choice":-1,"rt":-1,"accuracy":0,"outcome":"-10","keys":[],"total_keys":0,"block":2,"trial":140,"stimulus":1,"robot":3,"valence":"lose","action":"go","sham":0,"trial_type":"pit-trial","trial_index":171,"time_elapsed":690652,"internal_node_id":"0.0-146.0","task_version":"battery-v0.2-trt","session":2},{"rune":"Y","rune_set":"elianto","hex":"#f73b6a7A","correct":32,"choice":32,"rt":1265.4850000108127,"accuracy":1,"outcome":"-1","keys":[2766.7749999964144],"total_keys":1,"block":2,"trial":141,"stimulus":2,"robot":3,"valence":"lose","action":"go","sham":0,"trial_type":"pit-trial","trial_index":172,"time_elapsed":694623,"internal_node_id":"0.0-147.0","task_version":"battery-v0.2-trt","session":2},{"rune":"M","rune_set":"elianto","hex":"#f73b6a7A","correct":-1,"choice":32,"rt":654.7199999913573,"accuracy":0,"outcome":"-10","keys":[2155.464999988908],"total_keys":1,"block":2,"trial":142,"stimulus":0,"robot":4,"valence":"lose","action":"no-go","sham":0,"trial_type":"pit-trial","trial_index":173,"time_elapsed":697982,"internal_node_id":"0.0-148.0","task_version":"battery-v0.2-trt","session":2},{"rune":"H","rune_set":"elianto","hex":"#3366ff99","correct":32,"choice":-1,"rt":-1,"accuracy":0,"outcome":"+1","keys":[],"total_keys":0,"block":2,"trial":143,"stimulus":3,"robot":1,"valence":"win","action":"go","sham":0,"trial_type":"pit-trial","trial_index":174,"time_elapsed":701987,"internal_node_id":"0.0-149.0","task_version":"battery-v0.2-trt","session":2},{"rune":"R","rune_set":"elianto","hex":"#f73b6a7A","correct":32,"choice":32,"rt":468.2499999762513,"accuracy":1,"outcome":"-1","keys":[1969.6049999911338],"total_keys":1,"block":2,"trial":144,"stimulus":1,"robot":3,"valence":"lose","action":"go","sham":0,"trial_type":"pit-trial","trial_index":175,"time_elapsed":705161,"internal_node_id":"0.0-150.0","task_version":"battery-v0.2-trt","session":2},{"rune":"H","rune_set":"elianto","hex":"#3366ff99","correct":32,"choice":32,"rt":1028.1799999938812,"accuracy":1,"outcome":"+10","keys":[2529.790000000503],"total_keys":1,"block":2,"trial":145,"stimulus":3,"robot":1,"valence":"win","action":"go","sham":0,"trial_type":"pit-trial","trial_index":176,"time_elapsed":708894,"internal_node_id":"0.0-151.0","task_version":"battery-v0.2-trt","session":2},{"rune":"Y","rune_set":"elianto","hex":"#f73b6a7A","correct":32,"choice":32,"rt":584.4100000103936,"accuracy":1,"outcome":"-1","keys":[2085.2500000037253],"total_keys":1,"block":2,"trial":146,"stimulus":2,"robot":3,"valence":"lose","action":"go","sham":0,"trial_type":"pit-trial","trial_index":177,"time_elapsed":712183,"internal_node_id":"0.0-152.0","task_version":"battery-v0.2-trt","session":2},{"rune":"M","rune_set":"elianto","hex":"#f73b6a7A","correct":-1,"choice":32,"rt":991.1900000006426,"accuracy":0,"outcome":"-10","keys":[2491.3999999989755],"total_keys":1,"block":2,"trial":147,"stimulus":0,"robot":4,"valence":"lose","action":"no-go","sham":0,"trial_type":"pit-trial","trial_index":178,"time_elapsed":715878,"internal_node_id":"0.0-153.0","task_version":"battery-v0.2-trt","session":2},{"rune":"R","rune_set":"elianto","hex":"#f73b6a7A","correct":32,"choice":32,"rt":542.7899999776855,"accuracy":1,"outcome":"-10","keys":[1320.834999991348,2043.4200000017881],"total_keys":2,"block":2,"trial":148,"stimulus":1,"robot":3,"valence":"lose","action":"go","sham":1,"trial_type":"pit-trial","trial_index":179,"time_elapsed":719125,"internal_node_id":"0.0-154.0","task_version":"battery-v0.2-trt","session":2},{"rune":"M","rune_set":"elianto","hex":"#f73b6a7A","correct":-1,"choice":32,"rt":1237.844999996014,"accuracy":0,"outcome":"-10","keys":[2738.0249999987427],"total_keys":1,"block":2,"trial":149,"stimulus":0,"robot":4,"valence":"lose","action":"no-go","sham":0,"trial_type":"pit-trial","trial_index":180,"time_elapsed":723066,"internal_node_id":"0.0-155.0","task_version":"battery-v0.2-trt","session":2},{"rune":"H","rune_set":"elianto","hex":"#3366ff99","correct":32,"choice":32,"rt":357.8599999891594,"accuracy":1,"outcome":"+10","keys":[1859.3800000089686],"total_keys":1,"block":2,"trial":150,"stimulus":3,"robot":1,"valence":"win","action":"go","sham":0,"trial_type":"pit-trial","trial_index":181,"time_elapsed":726130,"internal_node_id":"0.0-156.0","task_version":"battery-v0.2-trt","session":2},{"rune":"Y","rune_set":"elianto","hex":"#f73b6a7A","correct":32,"choice":-1,"rt":-1,"accuracy":0,"outcome":"-1","keys":[],"total_keys":0,"block":2,"trial":151,"stimulus":2,"robot":3,"valence":"lose","action":"go","sham":1,"trial_type":"pit-trial","trial_index":182,"time_elapsed":730139,"internal_node_id":"0.0-157.0","task_version":"battery-v0.2-trt","session":2},{"rune":"R","rune_set":"elianto","hex":"#f73b6a7A","correct":32,"choice":32,"rt":586.1600000062026,"accuracy":1,"outcome":"-10","keys":[1381.615000020247,2086.2250000063796],"total_keys":2,"block":2,"trial":152,"stimulus":1,"robot":3,"valence":"lose","action":"go","sham":1,"trial_type":"pit-trial","trial_index":183,"time_elapsed":733429,"internal_node_id":"0.0-158.0","task_version":"battery-v0.2-trt","session":2},{"rune":"M","rune_set":"elianto","hex":"#f73b6a7A","correct":-1,"choice":-1,"rt":-1,"accuracy":1,"outcome":"-1","keys":[],"total_keys":0,"block":2,"trial":153,"stimulus":0,"robot":4,"valence":"lose","action":"no-go","sham":0,"trial_type":"pit-trial","trial_index":184,"time_elapsed":737433,"internal_node_id":"0.0-159.0","task_version":"battery-v0.2-trt","session":2},{"rune":"Z","rune_set":"elianto","hex":"#f73b6a7A","correct":-1,"choice":32,"rt":270.9150000009686,"accuracy":0,"outcome":"-1","keys":[1771.9949999882374],"total_keys":1,"block":2,"trial":154,"stimulus":4,"robot":4,"valence":"lose","action":"no-go","sham":1,"trial_type":"pit-trial","trial_index":185,"time_elapsed":740409,"internal_node_id":"0.0-160.0","task_version":"battery-v0.2-trt","session":2},{"rune":"H","rune_set":"elianto","hex":"#3366ff99","correct":32,"choice":-1,"rt":-1,"accuracy":0,"outcome":"+1","keys":[2825.2450000145473],"total_keys":1,"block":2,"trial":155,"stimulus":3,"robot":1,"valence":"win","action":"go","sham":0,"trial_type":"pit-trial","trial_index":186,"time_elapsed":744415,"internal_node_id":"0.0-161.0","task_version":"battery-v0.2-trt","session":2},{"rune":"R","rune_set":"elianto","hex":"#f73b6a7A","correct":32,"choice":-1,"rt":-1,"accuracy":0,"outcome":"-10","keys":[],"total_keys":0,"block":2,"trial":156,"stimulus":1,"robot":3,"valence":"lose","action":"go","sham":0,"trial_type":"pit-trial","trial_index":187,"time_elapsed":748421,"internal_node_id":"0.0-162.0","task_version":"battery-v0.2-trt","session":2},{"rune":"R","rune_set":"elianto","hex":"#f73b6a7A","correct":32,"choice":32,"rt":327.6600000099279,"accuracy":1,"outcome":"-1","keys":[1827.9900000197813],"total_keys":1,"block":2,"trial":157,"stimulus":1,"robot":3,"valence":"lose","action":"go","sham":0,"trial_type":"pit-trial","trial_index":188,"time_elapsed":751452,"internal_node_id":"0.0-163.0","task_version":"battery-v0.2-trt","session":2},{"rune":"M","rune_set":"elianto","hex":"#f73b6a7A","correct":-1,"choice":-1,"rt":-1,"accuracy":1,"outcome":"-10","keys":[],"total_keys":0,"block":2,"trial":158,"stimulus":0,"robot":4,"valence":"lose","action":"no-go","sham":1,"trial_type":"pit-trial","trial_index":189,"time_elapsed":755456,"internal_node_id":"0.0-164.0","task_version":"battery-v0.2-trt","session":2},{"rune":"H","rune_set":"elianto","hex":"#3366ff99","correct":32,"choice":32,"rt":682.1300000010524,"accuracy":1,"outcome":"+10","keys":[2183.1599999859463],"total_keys":1,"block":2,"trial":159,"stimulus":3,"robot":1,"valence":"win","action":"go","sham":0,"trial_type":"pit-trial","trial_index":190,"time_elapsed":758843,"internal_node_id":"0.0-165.0","task_version":"battery-v0.2-trt","session":2},{"rune":"Z","rune_set":"elianto","hex":"#f73b6a7A","correct":-1,"choice":32,"rt":476.94000002229586,"accuracy":0,"outcome":"-1","keys":[1977.87000000244],"total_keys":1,"block":2,"trial":160,"stimulus":4,"robot":4,"valence":"lose","action":"no-go","sham":1,"trial_type":"pit-trial","trial_index":191,"time_elapsed":762034,"internal_node_id":"0.0-166.0","task_version":"battery-v0.2-trt","session":2},{"rune":"C","rune_set":"elianto","hex":"#3366ff99","correct":-1,"choice":32,"rt":841.1299999861512,"accuracy":0,"outcome":"+10","keys":[2342.160000000149],"total_keys":1,"block":2,"trial":161,"stimulus":5,"robot":2,"valence":"win","action":"no-go","sham":1,"trial_type":"pit-trial","trial_index":192,"time_elapsed":765580,"internal_node_id":"0.0-167.0","task_version":"battery-v0.2-trt","session":2},{"rune":"Z","rune_set":"elianto","hex":"#f73b6a7A","correct":-1,"choice":32,"rt":1078.7300000083633,"accuracy":0,"outcome":"-10","keys":[2580.019999993965],"total_keys":1,"block":2,"trial":162,"stimulus":4,"robot":4,"valence":"lose","action":"no-go","sham":0,"trial_type":"pit-trial","trial_index":193,"time_elapsed":769364,"internal_node_id":"0.0-168.0","task_version":"battery-v0.2-trt","session":2},{"rune":"M","rune_set":"elianto","hex":"#f73b6a7A","correct":-1,"choice":32,"rt":368.32499998854473,"accuracy":0,"outcome":"-10","keys":[1869.0300000016578],"total_keys":1,"block":2,"trial":163,"stimulus":0,"robot":4,"valence":"lose","action":"no-go","sham":0,"trial_type":"pit-trial","trial_index":194,"time_elapsed":772437,"internal_node_id":"0.0-169.0","task_version":"battery-v0.2-trt","session":2},{"rune":"R","rune_set":"elianto","hex":"#f73b6a7A","correct":32,"choice":32,"rt":475.29999999096617,"accuracy":1,"outcome":"-1","keys":[1976.2550000159536],"total_keys":1,"block":2,"trial":164,"stimulus":1,"robot":3,"valence":"lose","action":"go","sham":0,"trial_type":"pit-trial","trial_index":195,"time_elapsed":775617,"internal_node_id":"0.0-170.0","task_version":"battery-v0.2-trt","session":2},{"rune":"C","rune_set":"elianto","hex":"#3366ff99","correct":-1,"choice":32,"rt":676.4250000123866,"accuracy":0,"outcome":"+1","keys":[2177.705000009155],"total_keys":1,"block":2,"trial":165,"stimulus":5,"robot":2,"valence":"win","action":"no-go","sham":0,"trial_type":"pit-trial","trial_index":196,"time_elapsed":778998,"internal_node_id":"0.0-171.0","task_version":"battery-v0.2-trt","session":2},{"rune":"R","rune_set":"elianto","hex":"#f73b6a7A","correct":32,"choice":32,"rt":521.2649999884889,"accuracy":1,"outcome":"-1","keys":[2021.4649999979883],"total_keys":1,"block":2,"trial":166,"stimulus":1,"robot":3,"valence":"lose","action":"go","sham":0,"trial_type":"pit-trial","trial_index":197,"time_elapsed":782223,"internal_node_id":"0.0-172.0","task_version":"battery-v0.2-trt","session":2},{"rune":"Z","rune_set":"elianto","hex":"#f73b6a7A","correct":-1,"choice":32,"rt":498.9349999814294,"accuracy":0,"outcome":"-10","keys":[1999.004999990575],"total_keys":1,"block":2,"trial":167,"stimulus":4,"robot":4,"valence":"lose","action":"no-go","sham":0,"trial_type":"pit-trial","trial_index":198,"time_elapsed":785425,"internal_node_id":"0.0-173.0","task_version":"battery-v0.2-trt","session":2},{"rune":"M","rune_set":"elianto","hex":"#f73b6a7A","correct":-1,"choice":32,"rt":608.7100000004284,"accuracy":0,"outcome":"-10","keys":[2109.5100000093225],"total_keys":1,"block":2,"trial":168,"stimulus":0,"robot":4,"valence":"lose","action":"no-go","sham":0,"trial_type":"pit-trial","trial_index":199,"time_elapsed":788739,"internal_node_id":"0.0-174.0","task_version":"battery-v0.2-trt","session":2},{"rune":"B","rune_set":"elianto","hex":"#f73b6a7A","correct":-1,"choice":32,"rt":397.289999993518,"accuracy":0,"outcome":"-1","keys":[1898.2600000163075],"total_keys":1,"block":2,"trial":169,"stimulus":6,"robot":4,"valence":"lose","action":"no-go","sham":1,"trial_type":"pit-trial","trial_index":200,"time_elapsed":791841,"internal_node_id":"0.0-175.0","task_version":"battery-v0.2-trt","session":2},{"rune":"Z","rune_set":"elianto","hex":"#f73b6a7A","correct":-1,"choice":-1,"rt":-1,"accuracy":1,"outcome":"-1","keys":[],"total_keys":0,"block":2,"trial":170,"stimulus":4,"robot":4,"valence":"lose","action":"no-go","sham":0,"trial_type":"pit-trial","trial_index":201,"time_elapsed":795846,"internal_node_id":"0.0-176.0","task_version":"battery-v0.2-trt","session":2},{"rune":"C","rune_set":"elianto","hex":"#3366ff99","correct":-1,"choice":-1,"rt":-1,"accuracy":1,"outcome":"+10","keys":[],"total_keys":0,"block":2,"trial":171,"stimulus":5,"robot":2,"valence":"win","action":"no-go","sham":0,"trial_type":"pit-trial","trial_index":202,"time_elapsed":799851,"internal_node_id":"0.0-177.0","task_version":"battery-v0.2-trt","session":2},{"rune":"T","rune_set":"elianto","hex":"#3366ff99","correct":32,"choice":32,"rt":780.5349999980535,"accuracy":1,"outcome":"+10","keys":[2281.109999981709],"total_keys":1,"block":2,"trial":172,"stimulus":7,"robot":1,"valence":"win","action":"go","sham":0,"trial_type":"pit-trial","trial_index":203,"time_elapsed":803349,"internal_node_id":"0.0-178.0","task_version":"battery-v0.2-trt","session":2},{"rune":"C","rune_set":"elianto","hex":"#3366ff99","correct":-1,"choice":32,"rt":554.134999983944,"accuracy":0,"outcome":"+1","keys":[2055.014999990817],"total_keys":1,"block":2,"trial":173,"stimulus":5,"robot":2,"valence":"win","action":"no-go","sham":0,"trial_type":"pit-trial","trial_index":204,"time_elapsed":806607,"internal_node_id":"0.0-179.0","task_version":"battery-v0.2-trt","session":2},{"rune":"T","rune_set":"elianto","hex":"#3366ff99","correct":32,"choice":32,"rt":346.384999982547,"accuracy":1,"outcome":"+10","keys":[1435.1800000004005,1846.9650000042748],"total_keys":2,"block":2,"trial":174,"stimulus":7,"robot":1,"valence":"win","action":"go","sham":0,"trial_type":"pit-trial","trial_index":205,"time_elapsed":809658,"internal_node_id":"0.0-180.0","task_version":"battery-v0.2-trt","session":2},{"rune":"Z","rune_set":"elianto","hex":"#f73b6a7A","correct":-1,"choice":32,"rt":994.5000000006985,"accuracy":0,"outcome":"-10","keys":[2496.065000013914],"total_keys":1,"block":2,"trial":175,"stimulus":4,"robot":4,"valence":"lose","action":"no-go","sham":0,"trial_type":"pit-trial","trial_index":206,"time_elapsed":813358,"internal_node_id":"0.0-181.0","task_version":"battery-v0.2-trt","session":2},{"rune":"B","rune_set":"elianto","hex":"#f73b6a7A","correct":-1,"choice":32,"rt":470.709999994142,"accuracy":0,"outcome":"-10","keys":[1971.1000000243075],"total_keys":1,"block":2,"trial":176,"stimulus":6,"robot":4,"valence":"lose","action":"no-go","sham":0,"trial_type":"pit-trial","trial_index":207,"time_elapsed":816533,"internal_node_id":"0.0-182.0","task_version":"battery-v0.2-trt","session":2},{"rune":"B","rune_set":"elianto","hex":"#f73b6a7A","correct":-1,"choice":32,"rt":620.1149999978952,"accuracy":0,"outcome":"-10","keys":[2120.120000006864],"total_keys":1,"block":2,"trial":177,"stimulus":6,"robot":4,"valence":"lose","action":"no-go","sham":0,"trial_type":"pit-trial","trial_index":208,"time_elapsed":819857,"internal_node_id":"0.0-183.0","task_version":"battery-v0.2-trt","session":2},{"rune":"T","rune_set":"elianto","hex":"#3366ff99","correct":32,"choice":-1,"rt":-1,"accuracy":0,"outcome":"+10","keys":[],"total_keys":0,"block":2,"trial":178,"stimulus":7,"robot":1,"valence":"win","action":"go","sham":1,"trial_type":"pit-trial","trial_index":209,"time_elapsed":823862,"internal_node_id":"0.0-184.0","task_version":"battery-v0.2-trt","session":2},{"rune":"C","rune_set":"elianto","hex":"#3366ff99","correct":-1,"choice":32,"rt":235.47000001417473,"accuracy":0,"outcome":"+1","keys":[1735.7599999813829],"total_keys":1,"block":2,"trial":179,"stimulus":5,"robot":2,"valence":"win","action":"no-go","sham":0,"trial_type":"pit-trial","trial_index":210,"time_elapsed":826800,"internal_node_id":"0.0-185.0","task_version":"battery-v0.2-trt","session":2},{"rune":"Z","rune_set":"elianto","hex":"#f73b6a7A","correct":-1,"choice":-1,"rt":-1,"accuracy":1,"outcome":"-1","keys":[3090.5799999891315],"total_keys":1,"block":2,"trial":180,"stimulus":4,"robot":4,"valence":"lose","action":"no-go","sham":0,"trial_type":"pit-trial","trial_index":211,"time_elapsed":830805,"internal_node_id":"0.0-186.0","task_version":"battery-v0.2-trt","session":2},{"rune":"Z","rune_set":"elianto","hex":"#f73b6a7A","correct":-1,"choice":32,"rt":115.66000001039356,"accuracy":0,"outcome":"-10","keys":[1616.4799999969546],"total_keys":1,"block":2,"trial":181,"stimulus":4,"robot":4,"valence":"lose","action":"no-go","sham":0,"trial_type":"pit-trial","trial_index":212,"time_elapsed":833625,"internal_node_id":"0.0-187.0","task_version":"battery-v0.2-trt","session":2},{"rune":"B","rune_set":"elianto","hex":"#f73b6a7A","correct":-1,"choice":32,"rt":351.88500001095235,"accuracy":0,"outcome":"-10","keys":[1346.6150000167545,1851.985000015702],"total_keys":2,"block":2,"trial":182,"stimulus":6,"robot":4,"valence":"lose","action":"no-go","sham":0,"trial_type":"pit-trial","trial_index":213,"time_elapsed":836681,"internal_node_id":"0.0-188.0","task_version":"battery-v0.2-trt","session":2},{"rune":"C","rune_set":"elianto","hex":"#3366ff99","correct":-1,"choice":-1,"rt":-1,"accuracy":1,"outcome":"+1","keys":[2974.6049999957904],"total_keys":1,"block":2,"trial":183,"stimulus":5,"robot":2,"valence":"win","action":"no-go","sham":1,"trial_type":"pit-trial","trial_index":214,"time_elapsed":840685,"internal_node_id":"0.0-189.0","task_version":"battery-v0.2-trt","session":2},{"rune":"T","rune_set":"elianto","hex":"#3366ff99","correct":32,"choice":32,"rt":746.9899999850895,"accuracy":1,"outcome":"+1","keys":[2248.7900000123773],"total_keys":1,"block":2,"trial":184,"stimulus":7,"robot":1,"valence":"win","action":"go","sham":1,"trial_type":"pit-trial","trial_index":215,"time_elapsed":844138,"internal_node_id":"0.0-190.0","task_version":"battery-v0.2-trt","session":2},{"rune":"T","rune_set":"elianto","hex":"#3366ff99","correct":32,"choice":32,"rt":278.55499999714084,"accuracy":1,"outcome":"+10","keys":[1778.6349999951199],"total_keys":1,"block":2,"trial":185,"stimulus":7,"robot":1,"valence":"win","action":"go","sham":0,"trial_type":"pit-trial","trial_index":216,"time_elapsed":847120,"internal_node_id":"0.0-191.0","task_version":"battery-v0.2-trt","session":2},{"rune":"Z","rune_set":"elianto","hex":"#f73b6a7A","correct":-1,"choice":32,"rt":381.2550000147894,"accuracy":0,"outcome":"-10","keys":[1883.414999989327],"total_keys":1,"block":2,"trial":186,"stimulus":4,"robot":4,"valence":"lose","action":"no-go","sham":0,"trial_type":"pit-trial","trial_index":217,"time_elapsed":850208,"internal_node_id":"0.0-192.0","task_version":"battery-v0.2-trt","session":2},{"rune":"B","rune_set":"elianto","hex":"#f73b6a7A","correct":-1,"choice":32,"rt":302.75499998242594,"accuracy":0,"outcome":"-10","keys":[1804.1050000174437],"total_keys":1,"block":2,"trial":187,"stimulus":6,"robot":4,"valence":"lose","action":"no-go","sham":0,"trial_type":"pit-trial","trial_index":218,"time_elapsed":853216,"internal_node_id":"0.0-193.0","task_version":"battery-v0.2-trt","session":2},{"rune":"C","rune_set":"elianto","hex":"#3366ff99","correct":-1,"choice":32,"rt":242.89500000304542,"accuracy":0,"outcome":"+1","keys":[1743.2599999883678],"total_keys":1,"block":2,"trial":188,"stimulus":5,"robot":2,"valence":"win","action":"no-go","sham":0,"trial_type":"pit-trial","trial_index":219,"time_elapsed":856164,"internal_node_id":"0.0-194.0","task_version":"battery-v0.2-trt","session":2},{"rune":"C","rune_set":"elianto","hex":"#3366ff99","correct":-1,"choice":32,"rt":19.115000002784654,"accuracy":0,"outcome":"+1","keys":[1132.244999986142,1520.3349999792408],"total_keys":2,"block":2,"trial":189,"stimulus":5,"robot":2,"valence":"win","action":"no-go","sham":0,"trial_type":"pit-trial","trial_index":220,"time_elapsed":858890,"internal_node_id":"0.0-195.0","task_version":"battery-v0.2-trt","session":2},{"rune":"B","rune_set":"elianto","hex":"#f73b6a7A","correct":-1,"choice":-1,"rt":-1,"accuracy":1,"outcome":"-1","keys":[],"total_keys":0,"block":2,"trial":190,"stimulus":6,"robot":4,"valence":"lose","action":"no-go","sham":0,"trial_type":"pit-trial","trial_index":221,"time_elapsed":862893,"internal_node_id":"0.0-196.0","task_version":"battery-v0.2-trt","session":2},{"rune":"T","rune_set":"elianto","hex":"#3366ff99","correct":32,"choice":32,"rt":294.56500001833774,"accuracy":1,"outcome":"+1","keys":[1796.024999988731],"total_keys":1,"block":2,"trial":191,"stimulus":7,"robot":1,"valence":"win","action":"go","sham":1,"trial_type":"pit-trial","trial_index":222,"time_elapsed":865892,"internal_node_id":"0.0-197.0","task_version":"battery-v0.2-trt","session":2},{"rune":"Z","rune_set":"elianto","hex":"#f73b6a7A","correct":-1,"choice":32,"rt":640.9799999964889,"accuracy":0,"outcome":"-10","keys":[2141.0200000100303],"total_keys":1,"block":2,"trial":192,"stimulus":4,"robot":4,"valence":"lose","action":"no-go","sham":0,"trial_type":"pit-trial","trial_index":223,"time_elapsed":869237,"internal_node_id":"0.0-198.0","task_version":"battery-v0.2-trt","session":2},{"rune":"C","rune_set":"elianto","hex":"#3366ff99","correct":-1,"choice":-1,"rt":-1,"accuracy":1,"outcome":"+10","keys":[3136.0899999854155],"total_keys":1,"block":2,"trial":193,"stimulus":5,"robot":2,"valence":"win","action":"no-go","sham":0,"trial_type":"pit-trial","trial_index":224,"time_elapsed":873240,"internal_node_id":"0.0-199.0","task_version":"battery-v0.2-trt","session":2},{"rune":"T","rune_set":"elianto","hex":"#3366ff99","correct":32,"choice":32,"rt":368.04999999003485,"accuracy":1,"outcome":"+10","keys":[1869.3199999979697],"total_keys":1,"block":2,"trial":194,"stimulus":7,"robot":1,"valence":"win","action":"go","sham":0,"trial_type":"pit-trial","trial_index":225,"time_elapsed":876314,"internal_node_id":"0.0-200.0","task_version":"battery-v0.2-trt","session":2},{"rune":"B","rune_set":"elianto","hex":"#f73b6a7A","correct":-1,"choice":-1,"rt":-1,"accuracy":1,"outcome":"-1","keys":[3503.1549999839626],"total_keys":1,"block":2,"trial":195,"stimulus":6,"robot":4,"valence":"lose","action":"no-go","sham":0,"trial_type":"pit-trial","trial_index":226,"time_elapsed":880319,"internal_node_id":"0.0-201.0","task_version":"battery-v0.2-trt","session":2},{"rune":"X","rune_set":"elianto","hex":"#3366ff99","correct":32,"choice":32,"rt":658.6000000243075,"accuracy":1,"outcome":"+10","keys":[2159.7900000051595],"total_keys":1,"block":2,"trial":196,"stimulus":8,"robot":1,"valence":"win","action":"go","sham":0,"trial_type":"pit-trial","trial_index":227,"time_elapsed":883682,"internal_node_id":"0.0-202.0","task_version":"battery-v0.2-trt","session":2},{"rune":"T","rune_set":"elianto","hex":"#3366ff99","correct":32,"choice":32,"rt":878.66000001668,"accuracy":1,"outcome":"+1","keys":[2379.820000001928],"total_keys":1,"block":2,"trial":197,"stimulus":7,"robot":1,"valence":"win","action":"go","sham":1,"trial_type":"pit-trial","trial_index":228,"time_elapsed":887265,"internal_node_id":"0.0-203.0","task_version":"battery-v0.2-trt","session":2},{"rune":"X","rune_set":"elianto","hex":"#3366ff99","correct":32,"choice":32,"rt":563.2949999999255,"accuracy":1,"outcome":"+10","keys":[2063.5500000207685],"total_keys":1,"block":2,"trial":198,"stimulus":8,"robot":1,"valence":"win","action":"go","sham":0,"trial_type":"pit-trial","trial_index":229,"time_elapsed":890532,"internal_node_id":"0.0-204.0","task_version":"battery-v0.2-trt","session":2},{"rune":"C","rune_set":"elianto","hex":"#3366ff99","correct":-1,"choice":-1,"rt":-1,"accuracy":1,"outcome":"+1","keys":[3883.509999985108],"total_keys":1,"block":2,"trial":199,"stimulus":5,"robot":2,"valence":"win","action":"no-go","sham":1,"trial_type":"pit-trial","trial_index":230,"time_elapsed":894537,"internal_node_id":"0.0-205.0","task_version":"battery-v0.2-trt","session":2},{"rune":"B","rune_set":"elianto","hex":"#f73b6a7A","correct":-1,"choice":32,"rt":380.50500000827014,"accuracy":0,"outcome":"-10","keys":[1881.9599999987986],"total_keys":1,"block":2,"trial":200,"stimulus":6,"robot":4,"valence":"lose","action":"no-go","sham":0,"trial_type":"pit-trial","trial_index":231,"time_elapsed":897622,"internal_node_id":"0.0-206.0","task_version":"battery-v0.2-trt","session":2},{"rune":"F","rune_set":"elianto","hex":"#3366ff99","correct":-1,"choice":-1,"rt":-1,"accuracy":1,"outcome":"+10","keys":[],"total_keys":0,"block":2,"trial":201,"stimulus":9,"robot":2,"valence":"win","action":"no-go","sham":0,"trial_type":"pit-trial","trial_index":232,"time_elapsed":901626,"internal_node_id":"0.0-207.0","task_version":"battery-v0.2-trt","session":2},{"rune":"C","rune_set":"elianto","hex":"#3366ff99","correct":-1,"choice":32,"rt":973.1350000074599,"accuracy":0,"outcome":"+10","keys":[2474.7199999983422],"total_keys":1,"block":2,"trial":202,"stimulus":5,"robot":2,"valence":"win","action":"no-go","sham":1,"trial_type":"pit-trial","trial_index":233,"time_elapsed":905304,"internal_node_id":"0.0-208.0","task_version":"battery-v0.2-trt","session":2},{"rune":"X","rune_set":"elianto","hex":"#3366ff99","correct":32,"choice":32,"rt":416.9650000112597,"accuracy":1,"outcome":"+10","keys":[1917.0150000136346],"total_keys":1,"block":2,"trial":203,"stimulus":8,"robot":1,"valence":"win","action":"go","sham":0,"trial_type":"pit-trial","trial_index":234,"time_elapsed":908425,"internal_node_id":"0.0-209.0","task_version":"battery-v0.2-trt","session":2},{"rune":"N","rune_set":"elianto","hex":"#f73b6a7A","correct":32,"choice":-1,"rt":-1,"accuracy":0,"outcome":"-10","keys":[],"total_keys":0,"block":2,"trial":204,"stimulus":10,"robot":3,"valence":"lose","action":"go","sham":0,"trial_type":"pit-trial","trial_index":235,"time_elapsed":912431,"internal_node_id":"0.0-210.0","task_version":"battery-v0.2-trt","session":2},{"rune":"F","rune_set":"elianto","hex":"#3366ff99","correct":-1,"choice":32,"rt":231.02999999537133,"accuracy":0,"outcome":"+1","keys":[1732.1550000051502],"total_keys":1,"block":2,"trial":205,"stimulus":9,"robot":2,"valence":"win","action":"no-go","sham":0,"trial_type":"pit-trial","trial_index":236,"time_elapsed":915377,"internal_node_id":"0.0-211.0","task_version":"battery-v0.2-trt","session":2},{"rune":"C","rune_set":"elianto","hex":"#3366ff99","correct":-1,"choice":32,"rt":1019.575000012992,"accuracy":0,"outcome":"+1","keys":[2521.7050000210293],"total_keys":1,"block":2,"trial":206,"stimulus":5,"robot":2,"valence":"win","action":"no-go","sham":0,"trial_type":"pit-trial","trial_index":237,"time_elapsed":919103,"internal_node_id":"0.0-212.0","task_version":"battery-v0.2-trt","session":2},{"rune":"X","rune_set":"elianto","hex":"#3366ff99","correct":32,"choice":32,"rt":375.71500000194646,"accuracy":1,"outcome":"+1","keys":[1876.6449999820907],"total_keys":1,"block":2,"trial":207,"stimulus":8,"robot":1,"valence":"win","action":"go","sham":1,"trial_type":"pit-trial","trial_index":238,"time_elapsed":922183,"internal_node_id":"0.0-213.0","task_version":"battery-v0.2-trt","session":2},{"rune":"N","rune_set":"elianto","hex":"#f73b6a7A","correct":32,"choice":-1,"rt":-1,"accuracy":0,"outcome":"-1","keys":[],"total_keys":0,"block":2,"trial":208,"stimulus":10,"robot":3,"valence":"lose","action":"go","sham":1,"trial_type":"pit-trial","trial_index":239,"time_elapsed":926189,"internal_node_id":"0.0-214.0","task_version":"battery-v0.2-trt","session":2},{"rune":"F","rune_set":"elianto","hex":"#3366ff99","correct":-1,"choice":32,"rt":421.01000002003275,"accuracy":0,"outcome":"+1","keys":[1922.2799999988638],"total_keys":1,"block":2,"trial":209,"stimulus":9,"robot":2,"valence":"win","action":"no-go","sham":0,"trial_type":"pit-trial","trial_index":240,"time_elapsed":929316,"internal_node_id":"0.0-215.0","task_version":"battery-v0.2-trt","session":2},{"rune":"Q","rune_set":"elianto","hex":"#3366ff99","correct":-1,"choice":32,"rt":330.52499999757856,"accuracy":0,"outcome":"+1","keys":[1831.449999997858],"total_keys":1,"block":2,"trial":210,"stimulus":11,"robot":2,"valence":"win","action":"no-go","sham":0,"trial_type":"pit-trial","trial_index":241,"time_elapsed":932352,"internal_node_id":"0.0-216.0","task_version":"battery-v0.2-trt","session":2},{"rune":"N","rune_set":"elianto","hex":"#f73b6a7A","correct":32,"choice":32,"rt":722.7200000197627,"accuracy":1,"outcome":"-1","keys":[2224.034999992],"total_keys":1,"block":2,"trial":211,"stimulus":10,"robot":3,"valence":"lose","action":"go","sham":0,"trial_type":"pit-trial","trial_index":242,"time_elapsed":935780,"internal_node_id":"0.0-217.0","task_version":"battery-v0.2-trt","session":2},{"rune":"X","rune_set":"elianto","hex":"#3366ff99","correct":32,"choice":-1,"rt":-1,"accuracy":0,"outcome":"+1","keys":[],"total_keys":0,"block":2,"trial":212,"stimulus":8,"robot":1,"valence":"win","action":"go","sham":0,"trial_type":"pit-trial","trial_index":243,"time_elapsed":939785,"internal_node_id":"0.0-218.0","task_version":"battery-v0.2-trt","session":2},{"rune":"N","rune_set":"elianto","hex":"#f73b6a7A","correct":32,"choice":-1,"rt":-1,"accuracy":0,"outcome":"-10","keys":[],"total_keys":0,"block":2,"trial":213,"stimulus":10,"robot":3,"valence":"lose","action":"go","sham":0,"trial_type":"pit-trial","trial_index":244,"time_elapsed":943792,"internal_node_id":"0.0-219.0","task_version":"battery-v0.2-trt","session":2},{"rune":"F","rune_set":"elianto","hex":"#3366ff99","correct":-1,"choice":32,"rt":1135.8049999980722,"accuracy":0,"outcome":"+1","keys":[2636.66000001831],"total_keys":1,"block":2,"trial":214,"stimulus":9,"robot":2,"valence":"win","action":"no-go","sham":0,"trial_type":"pit-trial","trial_index":245,"time_elapsed":947632,"internal_node_id":"0.0-220.0","task_version":"battery-v0.2-trt","session":2},{"rune":"X","rune_set":"elianto","hex":"#3366ff99","correct":32,"choice":-1,"rt":-1,"accuracy":0,"outcome":"+10","keys":[2947.4500000069384],"total_keys":1,"block":2,"trial":215,"stimulus":8,"robot":1,"valence":"win","action":"go","sham":1,"trial_type":"pit-trial","trial_index":246,"time_elapsed":951641,"internal_node_id":"0.0-221.0","task_version":"battery-v0.2-trt","session":2},{"rune":"Q","rune_set":"elianto","hex":"#3366ff99","correct":-1,"choice":32,"rt":1178.7350000231527,"accuracy":0,"outcome":"+1","keys":[2679.6049999829847],"total_keys":1,"block":2,"trial":216,"stimulus":11,"robot":2,"valence":"win","action":"no-go","sham":0,"trial_type":"pit-trial","trial_index":247,"time_elapsed":955524,"internal_node_id":"0.0-222.0","task_version":"battery-v0.2-trt","session":2},{"rune":"X","rune_set":"elianto","hex":"#3366ff99","correct":32,"choice":32,"rt":442.3149999929592,"accuracy":1,"outcome":"+10","keys":[1354.4000000110827,1942.2450000129174],"total_keys":2,"block":2,"trial":217,"stimulus":8,"robot":1,"valence":"win","action":"go","sham":0,"trial_type":"pit-trial","trial_index":248,"time_elapsed":958669,"internal_node_id":"0.0-223.0","task_version":"battery-v0.2-trt","session":2},{"rune":"Q","rune_set":"elianto","hex":"#3366ff99","correct":-1,"choice":-1,"rt":-1,"accuracy":1,"outcome":"+10","keys":[],"total_keys":0,"block":2,"trial":218,"stimulus":11,"robot":2,"valence":"win","action":"no-go","sham":0,"trial_type":"pit-trial","trial_index":249,"time_elapsed":962675,"internal_node_id":"0.0-224.0","task_version":"battery-v0.2-trt","session":2},{"rune":"F","rune_set":"elianto","hex":"#3366ff99","correct":-1,"choice":32,"rt":216.26000001560897,"accuracy":0,"outcome":"+1","keys":[1716.7349999945145],"total_keys":1,"block":2,"trial":219,"stimulus":9,"robot":2,"valence":"win","action":"no-go","sham":0,"trial_type":"pit-trial","trial_index":250,"time_elapsed":965596,"internal_node_id":"0.0-225.0","task_version":"battery-v0.2-trt","session":2},{"rune":"N","rune_set":"elianto","hex":"#f73b6a7A","correct":32,"choice":-1,"rt":-1,"accuracy":0,"outcome":"-10","keys":[3453.994999988936],"total_keys":1,"block":2,"trial":220,"stimulus":10,"robot":3,"valence":"lose","action":"go","sham":0,"trial_type":"pit-trial","trial_index":251,"time_elapsed":969600,"internal_node_id":"0.0-226.0","task_version":"battery-v0.2-trt","session":2},{"rune":"N","rune_set":"elianto","hex":"#f73b6a7A","correct":32,"choice":32,"rt":266.91000000573695,"accuracy":1,"outcome":"-1","keys":[1244.3299999868032,1768.7699999951292],"total_keys":2,"block":2,"trial":221,"stimulus":10,"robot":3,"valence":"lose","action":"go","sham":0,"trial_type":"pit-trial","trial_index":252,"time_elapsed":972572,"internal_node_id":"0.0-227.0","task_version":"battery-v0.2-trt","session":2},{"rune":"X","rune_set":"elianto","hex":"#3366ff99","correct":32,"choice":-1,"rt":-1,"accuracy":0,"outcome":"+1","keys":[3516.810000000987],"total_keys":1,"block":2,"trial":222,"stimulus":8,"robot":1,"valence":"win","action":"go","sham":0,"trial_type":"pit-trial","trial_index":253,"time_elapsed":976577,"internal_node_id":"0.0-228.0","task_version":"battery-v0.2-trt","session":2},{"rune":"Q","rune_set":"elianto","hex":"#3366ff99","correct":-1,"choice":32,"rt":1238.4499999752734,"accuracy":0,"outcome":"+1","keys":[2739.319999993313],"total_keys":1,"block":2,"trial":223,"stimulus":11,"robot":2,"valence":"win","action":"no-go","sham":0,"trial_type":"pit-trial","trial_index":254,"time_elapsed":980519,"internal_node_id":"0.0-229.0","task_version":"battery-v0.2-trt","session":2},{"rune":"F","rune_set":"elianto","hex":"#3366ff99","correct":-1,"choice":32,"rt":868.2200000039302,"accuracy":0,"outcome":"+10","keys":[2368.3400000154506],"total_keys":1,"block":2,"trial":224,"stimulus":9,"robot":2,"valence":"win","action":"no-go","sham":1,"trial_type":"pit-trial","trial_index":255,"time_elapsed":984090,"internal_node_id":"0.0-230.0","task_version":"battery-v0.2-trt","session":2},{"rune":"Q","rune_set":"elianto","hex":"#3366ff99","correct":-1,"choice":32,"rt":382.61500000953674,"accuracy":0,"outcome":"+1","keys":[1883.3450000092853],"total_keys":1,"block":2,"trial":225,"stimulus":11,"robot":2,"valence":"win","action":"no-go","sham":0,"trial_type":"pit-trial","trial_index":256,"time_elapsed":987177,"internal_node_id":"0.0-231.0","task_version":"battery-v0.2-trt","session":2},{"rune":"X","rune_set":"elianto","hex":"#3366ff99","correct":32,"choice":32,"rt":422.12500001187436,"accuracy":1,"outcome":"+10","keys":[1922.8799999982584],"total_keys":1,"block":2,"trial":226,"stimulus":8,"robot":1,"valence":"win","action":"go","sham":0,"trial_type":"pit-trial","trial_index":257,"time_elapsed":990304,"internal_node_id":"0.0-232.0","task_version":"battery-v0.2-trt","session":2},{"rune":"N","rune_set":"elianto","hex":"#f73b6a7A","correct":32,"choice":32,"rt":826.2549999926705,"accuracy":1,"outcome":"-1","keys":[2328.0050000175834],"total_keys":1,"block":2,"trial":227,"stimulus":10,"robot":3,"valence":"lose","action":"go","sham":0,"trial_type":"pit-trial","trial_index":258,"time_elapsed":993835,"internal_node_id":"0.0-233.0","task_version":"battery-v0.2-trt","session":2},{"rune":"F","rune_set":"elianto","hex":"#3366ff99","correct":-1,"choice":32,"rt":1153.344999998808,"accuracy":0,"outcome":"+1","keys":[2654.2649999901187],"total_keys":1,"block":2,"trial":228,"stimulus":9,"robot":2,"valence":"win","action":"no-go","sham":0,"trial_type":"pit-trial","trial_index":259,"time_elapsed":997692,"internal_node_id":"0.0-234.0","task_version":"battery-v0.2-trt","session":2},{"rune":"X","rune_set":"elianto","hex":"#3366ff99","correct":32,"choice":32,"rt":418.8750000030268,"accuracy":1,"outcome":"+1","keys":[1919.7550000099],"total_keys":1,"block":2,"trial":229,"stimulus":8,"robot":1,"valence":"win","action":"go","sham":1,"trial_type":"pit-trial","trial_index":260,"time_elapsed":1000816,"internal_node_id":"0.0-235.0","task_version":"battery-v0.2-trt","session":2},{"rune":"F","rune_set":"elianto","hex":"#3366ff99","correct":-1,"choice":32,"rt":285.20000001299195,"accuracy":0,"outcome":"+10","keys":[1785.2899999998044],"total_keys":1,"block":2,"trial":230,"stimulus":9,"robot":2,"valence":"win","action":"no-go","sham":1,"trial_type":"pit-trial","trial_index":261,"time_elapsed":1003804,"internal_node_id":"0.0-236.0","task_version":"battery-v0.2-trt","session":2},{"rune":"Q","rune_set":"elianto","hex":"#3366ff99","correct":-1,"choice":-1,"rt":-1,"accuracy":1,"outcome":"+10","keys":[],"total_keys":0,"block":2,"trial":231,"stimulus":11,"robot":2,"valence":"win","action":"no-go","sham":0,"trial_type":"pit-trial","trial_index":262,"time_elapsed":1007809,"internal_node_id":"0.0-237.0","task_version":"battery-v0.2-trt","session"