[{"view_history":"[{\"page_index\":0,\"viewing_time\":15387.974999990547}]","rt":15389.139999984764,"trial_type":"instructions","trial_index":0,"time_elapsed":15404,"internal_node_id":"0.0-0.0","task_version":"battery-v0.2-trt","session":2},{"slider_type":"valence","raw_loc":535,"loc":0.57,"trial_type":"affective-slider","trial_index":1,"time_elapsed":23930,"internal_node_id":"0.0-1.0","task_version":"battery-v0.2-trt","session":2},{"responses":{"Q04":"0","Q08":"0","Q02":"1","Q06":"1","Q03":"1","Q05":"0","Q07":"1","Q01":"1"},"rt":20731.66499999934,"item_order":[3,7,1,5,2,4,6,0],"radio_events":[7089.29000000353,8836.810000007972,11222.169999993639,13196.334999985993,14176.624999992782,16244.124999997439,17424.280000006547,18450.43500000611,19880.394999985583],"key_events":[],"mouse_events":[7089.29000000353,8836.810000007972,11222.169999993639,13196.334999985993,14176.624999992782,16244.124999997439,17424.280000006547,18450.43500000611,19880.394999985583,20729.254999983823],"straightlining":0.625,"zigzagging":0.42857142857142855,"survey":"gad7","trial_type":"survey-template","trial_index":2,"time_elapsed":44666,"internal_node_id":"0.0-2.0","task_version":"battery-v0.2-trt","session":2,"infrequency":0},{"responses":{"Q03":"0","Q06":"0","Q04":"1","Q01":"0","Q07":"0","Q02":"1","Q05":"1","Q08":"3"},"rt":22673.93499999889,"item_order":[2,5,3,0,6,1,4,7],"radio_events":[2712.6200000056997,4918.814999982715,7164.77499998291,8867.029999993974,10258.289999997942,11922.359999996843,13654.3599999859,15658.289999992121,16406.49999998277,21232.729999988806],"key_events":[],"mouse_events":[2712.6200000056997,4918.814999982715,7164.77499998291,8867.029999993974,10258.289999997942,11922.359999996843,13654.3599999859,15658.289999992121,16406.49999998277,20260.894999984885,21232.729999988806,22670.94999999972],"straightlining":0.5,"zigzagging":0.42857142857142855,"survey":"dass_d","trial_type":"survey-template","trial_index":3,"time_elapsed":67344,"internal_node_id":"0.0-3.0","task_version":"battery-v0.2-trt","session":2,"infrequency":0},{"view_history":"[{\"page_index\":0,\"viewing_time\":4148.985000007087},{\"page_index\":1,\"viewing_time\":3785.875000001397},{\"page_index\":2,\"viewing_time\":11503.64000000991},{\"page_index\":3,\"viewing_time\":6668.449999997392},{\"page_index\":4,\"viewing_time\":7841.569999989588},{\"page_index\":5,\"viewing_time\":4998.135000001639},{\"page_index\":6,\"viewing_time\":38941.735000000335},{\"page_index\":7,\"viewing_time\":23928.424999990966},{\"page_index\":8,\"viewing_time\":8744.52000000747},{\"page_index\":9,\"viewing_time\":2735.3650000004563}]","rt":113297.53000001074,"trial_type":"pit-instructions","trial_index":4,"time_elapsed":180646,"internal_node_id":"0.0-4.0-0.0","task_version":"battery-v0.2-trt","session":2},{"rune":"1","rune_set":"elianto","hex":"#3366ff99","correct":32,"choice":-1,"rt":-1,"accuracy":0,"outcome":"+1","keys":[],"total_keys":0,"block":0,"practice":1,"trial_type":"pit-trial","trial_index":5,"time_elapsed":184652,"internal_node_id":"0.0-4.0-1.0-0.0","task_version":"battery-v0.2-trt","session":2},{"rune":"1","rune_set":"elianto","hex":"#3366ff99","correct":32,"choice":32,"rt":737.7900000137743,"accuracy":1,"outcome":"+10","keys":[2239.1000000061467],"total_keys":1,"block":0,"practice":1,"trial_type":"pit-trial","trial_index":6,"time_elapsed":188096,"internal_node_id":"0.0-4.0-1.1-0.1","task_version":"battery-v0.2-trt","session":2},{"rune":"1","rune_set":"elianto","hex":"#3366ff99","correct":32,"choice":32,"rt":674.1599999950267,"accuracy":1,"outcome":"+10","keys":[2175.7499999948777],"total_keys":1,"block":0,"practice":1,"trial_type":"pit-trial","trial_index":7,"time_elapsed":191474,"internal_node_id":"0.0-4.0-1.2-0.2","task_version":"battery-v0.2-trt","session":2},{"rune":"1","rune_set":"elianto","hex":"#3366ff99","correct":32,"choice":32,"rt":1039.5250000001397,"accuracy":1,"outcome":"+10","keys":[2540.4099999868777],"total_keys":1,"block":0,"practice":1,"trial_type":"pit-trial","trial_index":8,"time_elapsed":195219,"internal_node_id":"0.0-4.0-1.3-0.3","task_version":"battery-v0.2-trt","session":2},{"trial_type":"call-function","trial_index":9,"time_elapsed":195220,"internal_node_id":"0.0-4.0-2.0","task_version":"battery-v0.2-trt","session":2},{"view_history":"[{\"page_index\":0,\"viewing_time\":4656.300000002375},{\"page_index\":1,\"viewing_time\":3699.8599999933504}]","rt":8356.664999999339,"trial_type":"pit-instructions","trial_index":10,"time_elapsed":203577,"internal_node_id":"0.0-4.0-3.0","task_version":"battery-v0.2-trt","session":2},{"rune":"2","rune_set":"elianto","hex":"#3366ff99","correct":-1,"choice":-1,"rt":-1,"accuracy":1,"outcome":"+10","keys":[2964.974999980768],"total_keys":1,"block":0,"practice":2,"trial_type":"pit-trial","trial_index":11,"time_elapsed":207581,"internal_node_id":"0.0-4.0-4.0-0.0","task_version":"battery-v0.2-trt","session":2},{"rune":"2","rune_set":"elianto","hex":"#3366ff99","correct":-1,"choice":-1,"rt":-1,"accuracy":1,"outcome":"+10","keys":[],"total_keys":0,"block":0,"practice":2,"trial_type":"pit-trial","trial_index":12,"time_elapsed":211586,"internal_node_id":"0.0-4.0-4.1-0.1","task_version":"battery-v0.2-trt","session":2},{"rune":"2","rune_set":"elianto","hex":"#3366ff99","correct":-1,"choice":-1,"rt":-1,"accuracy":1,"outcome":"+10","keys":[],"total_keys":0,"block":0,"practice":2,"trial_type":"pit-trial","trial_index":13,"time_elapsed":215591,"internal_node_id":"0.0-4.0-4.2-0.2","task_version":"battery-v0.2-trt","session":2},{"rune":"2","rune_set":"elianto","hex":"#3366ff99","correct":-1,"choice":-1,"rt":-1,"accuracy":1,"outcome":"+10","keys":[],"total_keys":0,"block":0,"practice":2,"trial_type":"pit-trial","trial_index":14,"time_elapsed":219596,"internal_node_id":"0.0-4.0-4.3-0.3","task_version":"battery-v0.2-trt","session":2},{"trial_type":"call-function","trial_index":15,"time_elapsed":219599,"internal_node_id":"0.0-4.0-5.0","task_version":"battery-v0.2-trt","session":2},{"view_history":"[{\"page_index\":0,\"viewing_time\":15410.814999981085},{\"page_index\":1,\"viewing_time\":2418.055000016466}]","rt":17829.444999981206,"trial_type":"pit-instructions","trial_index":16,"time_elapsed":237430,"internal_node_id":"0.0-4.0-6.0","task_version":"battery-v0.2-trt","session":2},{"rune":"3","rune_set":"elianto","hex":"#f73b6a7A","correct":-1,"choice":-1,"rt":-1,"accuracy":1,"outcome":"-1","keys":[],"total_keys":0,"block":0,"practice":3,"trial_type":"pit-trial","trial_index":17,"time_elapsed":241434,"internal_node_id":"0.0-4.0-7.0-0.0","task_version":"battery-v0.2-trt","session":2},{"rune":"3","rune_set":"elianto","hex":"#f73b6a7A","correct":-1,"choice":-1,"rt":-1,"accuracy":1,"outcome":"-1","keys":[],"total_keys":0,"block":0,"practice":3,"trial_type":"pit-trial","trial_index":18,"time_elapsed":245439,"internal_node_id":"0.0-4.0-7.1-0.1","task_version":"battery-v0.2-trt","session":2},{"rune":"3","rune_set":"elianto","hex":"#f73b6a7A","correct":-1,"choice":-1,"rt":-1,"accuracy":1,"outcome":"-1","keys":[],"total_keys":0,"block":0,"practice":3,"trial_type":"pit-trial","trial_index":19,"time_elapsed":249444,"internal_node_id":"0.0-4.0-7.2-0.2","task_version":"battery-v0.2-trt","session":2},{"rune":"3","rune_set":"elianto","hex":"#f73b6a7A","correct":-1,"choice":-1,"rt":-1,"accuracy":1,"outcome":"-1","keys":[],"total_keys":0,"block":0,"practice":3,"trial_type":"pit-trial","trial_index":20,"time_elapsed":253447,"internal_node_id":"0.0-4.0-7.3-0.3","task_version":"battery-v0.2-trt","session":2},{"trial_type":"call-function","trial_index":21,"time_elapsed":253450,"internal_node_id":"0.0-4.0-8.0","task_version":"battery-v0.2-trt","session":2},{"view_history":"[{\"page_index\":0,\"viewing_time\":6284.959999989951},{\"page_index\":1,\"viewing_time\":3498.0299999879207}]","rt":9783.620000001974,"trial_type":"pit-instructions","trial_index":22,"time_elapsed":263235,"internal_node_id":"0.0-4.0-9.0","task_version":"battery-v0.2-trt","session":2},{"rune":"4","rune_set":"elianto","hex":"#f73b6a7A","correct":32,"choice":32,"rt":686.9500000029802,"accuracy":1,"outcome":"-1","keys":[2187.804999994114],"total_keys":1,"block":0,"practice":4,"trial_type":"pit-trial","trial_index":23,"time_elapsed":266625,"internal_node_id":"0.0-4.0-10.0-0.0","task_version":"battery-v0.2-trt","session":2},{"rune":"4","rune_set":"elianto","hex":"#f73b6a7A","correct":32,"choice":32,"rt":855.8199999970384,"accuracy":1,"outcome":"-1","keys":[2356.079999997746],"total_keys":1,"block":0,"practice":4,"trial_type":"pit-trial","trial_index":24,"time_elapsed":270185,"internal_node_id":"0.0-4.0-10.1-0.1","task_version":"battery-v0.2-trt","session":2},{"rune":"4","rune_set":"elianto","hex":"#f73b6a7A","correct":32,"choice":32,"rt":583.6450000060722,"accuracy":1,"outcome":"-1","keys":[2084.609999990789],"total_keys":1,"block":0,"practice":4,"trial_type":"pit-trial","trial_index":25,"time_elapsed":273473,"internal_node_id":"0.0-4.0-10.2-0.2","task_version":"battery-v0.2-trt","session":2},{"rune":"4","rune_set":"elianto","hex":"#f73b6a7A","correct":32,"choice":-1,"rt":-1,"accuracy":0,"outcome":"-10","keys":[1461.234999995213],"total_keys":1,"block":0,"practice":4,"trial_type":"pit-trial","trial_index":26,"time_elapsed":277477,"internal_node_id":"0.0-4.0-10.3-0.3","task_version":"battery-v0.2-trt","session":2},{"rune":"4","rune_set":"elianto","hex":"#f73b6a7A","correct":32,"choice":32,"rt":820.1499999850057,"accuracy":1,"outcome":"-1","keys":[2320.305000001099],"total_keys":1,"block":0,"practice":4,"trial_type":"pit-trial","trial_index":27,"time_elapsed":281001,"internal_node_id":"0.0-4.0-10.4-0.4","task_version":"battery-v0.2-trt","session":2},{"rune":"4","rune_set":"elianto","hex":"#f73b6a7A","correct":32,"choice":32,"rt":735.5199999874458,"accuracy":1,"outcome":"-1","keys":[2237.414999981411],"total_keys":1,"block":0,"practice":4,"trial_type":"pit-trial","trial_index":28,"time_elapsed":284441,"internal_node_id":"0.0-4.0-10.5-0.5","task_version":"battery-v0.2-trt","session":2},{"rune":"4","rune_set":"elianto","hex":"#f73b6a7A","correct":32,"choice":32,"rt":600.3400000045076,"accuracy":1,"outcome":"-1","keys":[2100.509999989299],"total_keys":1,"block":0,"practice":4,"trial_type":"pit-trial","trial_index":29,"time_elapsed":287780,"internal_node_id":"0.0-4.0-10.6-0.6","task_version":"battery-v0.2-trt","session":2},{"trial_type":"call-function","trial_index":30,"time_elapsed":287781,"internal_node_id":"0.0-4.0-11.0","task_version":"battery-v0.2-trt","session":2},{"view_history":"[{\"page_index\":0,\"viewing_time\":2161.2000000022817},{\"page_index\":1,\"viewing_time\":3664.779999991879},{\"page_index\":2,\"viewing_time\":4028.775000013411},{\"page_index\":3,\"viewing_time\":4141.94500001031},{\"page_index\":4,\"viewing_time\":3006.1249999853317},{\"page_index\":5,\"viewing_time\":2007.2600000130478}]","rt":19010.975000011967,"trial_type":"pit-instructions","trial_index":31,"time_elapsed":306793,"internal_node_id":"0.0-4.0-12.0","task_version":"battery-v0.2-trt","session":2},{"responses":["Press SPACE","+10","+10","True","True"],"num_errors":1,"rt":21307.339999999385,"trial_type":"pit-comprehension","trial_index":32,"time_elapsed":328105,"internal_node_id":"0.0-4.0-13.0","task_version":"battery-v0.2-trt","session":2},{"view_history":"[{\"page_index\":0,\"viewing_time\":1857.4699999880977},{\"page_index\":1,\"viewing_time\":4538.185000012163}]","rt":6396.179999981541,"trial_type":"pit-instructions","trial_index":33,"time_elapsed":334506,"internal_node_id":"0.0-5.0","task_version":"battery-v0.2-trt","session":2},{"rune":"Z","rune_set":"bacs2","hex":"#3366ff99","correct":32,"choice":32,"rt":1220.644999993965,"accuracy":1,"outcome":"+10","keys":[2721.060000010766],"total_keys":1,"block":1,"trial":1,"stimulus":3,"robot":1,"valence":"win","action":"go","sham":0,"trial_type":"pit-trial","trial_index":34,"time_elapsed":338433,"internal_node_id":"0.0-6.0","task_version":"battery-v0.2-trt","session":2},{"rune":"J","rune_set":"bacs2","hex":"#f73b6a7A","correct":-1,"choice":-1,"rt":-1,"accuracy":1,"outcome":"-1","keys":[],"total_keys":0,"block":1,"trial":2,"stimulus":0,"robot":4,"valence":"lose","action":"no-go","sham":0,"trial_type":"pit-trial","trial_index":35,"time_elapsed":342439,"internal_node_id":"0.0-7.0","task_version":"battery-v0.2-trt","session":2},{"rune":"W","rune_set":"bacs2","hex":"#f73b6a7A","correct":32,"choice":-1,"rt":-1,"accuracy":0,"outcome":"-10","keys":[],"total_keys":0,"block":1,"trial":3,"stimulus":1,"robot":3,"valence":"lose","action":"go","sham":0,"trial_type":"pit-trial","trial_index":36,"time_elapsed":346444,"internal_node_id":"0.0-8.0","task_version":"battery-v0.2-trt","session":2},{"rune":"X","rune_set":"bacs2","hex":"#f73b6a7A","correct":32,"choice":-1,"rt":-1,"accuracy":0,"outcome":"-10","keys":[],"total_keys":0,"block":1,"trial":4,"stimulus":2,"robot":3,"valence":"lose","action":"go","sham":0,"trial_type":"pit-trial","trial_index":37,"time_elapsed":350456,"internal_node_id":"0.0-9.0","task_version":"battery-v0.2-trt","session":2},{"rune":"X","rune_set":"bacs2","hex":"#f73b6a7A","correct":32,"choice":32,"rt":1153.1050000048708,"accuracy":1,"outcome":"-1","keys":[2654.550000006566],"total_keys":1,"block":1,"trial":5,"stimulus":2,"robot":3,"valence":"lose","action":"go","sham":0,"trial_type":"pit-trial","trial_index":38,"time_elapsed":354314,"internal_node_id":"0.0-10.0","task_version":"battery-v0.2-trt","session":2},{"rune":"W","rune_set":"bacs2","hex":"#f73b6a7A","correct":32,"choice":-1,"rt":-1,"accuracy":0,"outcome":"-10","keys":[],"total_keys":0,"block":1,"trial":6,"stimulus":1,"robot":3,"valence":"lose","action":"go","sham":0,"trial_type":"pit-trial","trial_index":39,"time_elapsed":358320,"internal_node_id":"0.0-11.0","task_version":"battery-v0.2-trt","session":2},{"rune":"Z","rune_set":"bacs2","hex":"#3366ff99","correct":32,"choice":32,"rt":1199.544999981299,"accuracy":1,"outcome":"+10","keys":[2700.1950000121724],"total_keys":1,"block":1,"trial":7,"stimulus":3,"robot":1,"valence":"win","action":"go","sham":0,"trial_type":"pit-trial","trial_index":40,"time_elapsed":362226,"internal_node_id":"0.0-12.0","task_version":"battery-v0.2-trt","session":2},{"rune":"J","rune_set":"bacs2","hex":"#f73b6a7A","correct":-1,"choice":-1,"rt":-1,"accuracy":1,"outcome":"-1","keys":[],"total_keys":0,"block":1,"trial":8,"stimulus":0,"robot":4,"valence":"lose","action":"no-go","sham":0,"trial_type":"pit-trial","trial_index":41,"time_elapsed":366229,"internal_node_id":"0.0-13.0","task_version":"battery-v0.2-trt","session":2},{"rune":"Z","rune_set":"bacs2","hex":"#3366ff99","correct":32,"choice":32,"rt":1268.3800000231713,"accuracy":1,"outcome":"+10","keys":[2768.7150000128895],"total_keys":1,"block":1,"trial":9,"stimulus":3,"robot":1,"valence":"win","action":"go","sham":0,"trial_type":"pit-trial","trial_index":42,"time_elapsed":370201,"internal_node_id":"0.0-14.0","task_version":"battery-v0.2-trt","session":2},{"rune":"J","rune_set":"bacs2","hex":"#f73b6a7A","correct":-1,"choice":-1,"rt":-1,"accuracy":1,"outcome":"-1","keys":[],"total_keys":0,"block":1,"trial":10,"stimulus":0,"robot":4,"valence":"lose","action":"no-go","sham":0,"trial_type":"pit-trial","trial_index":43,"time_elapsed":374206,"internal_node_id":"0.0-15.0","task_version":"battery-v0.2-trt","session":2},{"rune":"W","rune_set":"bacs2","hex":"#f73b6a7A","correct":32,"choice":-1,"rt":-1,"accuracy":0,"outcome":"-10","keys":[],"total_keys":0,"block":1,"trial":11,"stimulus":1,"robot":3,"valence":"lose","action":"go","sham":0,"trial_type":"pit-trial","trial_index":44,"time_elapsed":378213,"internal_node_id":"0.0-16.0","task_version":"battery-v0.2-trt","session":2},{"rune":"X","rune_set":"bacs2","hex":"#f73b6a7A","correct":32,"choice":-1,"rt":-1,"accuracy":0,"outcome":"-10","keys":[],"total_keys":0,"block":1,"trial":12,"stimulus":2,"robot":3,"valence":"lose","action":"go","sham":0,"trial_type":"pit-trial","trial_index":45,"time_elapsed":382219,"internal_node_id":"0.0-17.0","task_version":"battery-v0.2-trt","session":2},{"rune":"J","rune_set":"bacs2","hex":"#f73b6a7A","correct":-1,"choice":32,"rt":967.8100000019185,"accuracy":0,"outcome":"-10","keys":[2467.9250000044703],"total_keys":1,"block":1,"trial":13,"stimulus":0,"robot":4,"valence":"lose","action":"no-go","sham":0,"trial_type":"pit-trial","trial_index":46,"time_elapsed":385890,"internal_node_id":"0.0-18.0","task_version":"battery-v0.2-trt","session":2},{"rune":"X","rune_set":"bacs2","hex":"#f73b6a7A","correct":32,"choice":32,"rt":1072.569999989355,"accuracy":1,"outcome":"-1","keys":[2572.825000010198],"total_keys":1,"block":1,"trial":14,"stimulus":2,"robot":3,"valence":"lose","action":"go","sham":0,"trial_type":"pit-trial","trial_index":47,"time_elapsed":389666,"internal_node_id":"0.0-19.0","task_version":"battery-v0.2-trt","session":2},{"rune":"Z","rune_set":"bacs2","hex":"#3366ff99","correct":32,"choice":32,"rt":904.6000000089407,"accuracy":1,"outcome":"+10","keys":[2404.7049999935552],"total_keys":1,"block":1,"trial":15,"stimulus":3,"robot":1,"valence":"win","action":"go","sham":0,"trial_type":"pit-trial","trial_index":48,"time_elapsed":393274,"internal_node_id":"0.0-20.0","task_version":"battery-v0.2-trt","session":2},{"rune":"W","rune_set":"bacs2","hex":"#f73b6a7A","correct":32,"choice":32,"rt":791.7900000174996,"accuracy":1,"outcome":"-1","keys":[2292.390000016894],"total_keys":1,"block":1,"trial":16,"stimulus":1,"robot":3,"valence":"lose","action":"go","sham":0,"trial_type":"pit-trial","trial_index":49,"time_elapsed":396770,"internal_node_id":"0.0-21.0","task_version":"battery-v0.2-trt","session":2},{"rune":"W","rune_set":"bacs2","hex":"#f73b6a7A","correct":32,"choice":32,"rt":1198.8000000128523,"accuracy":1,"outcome":"-1","keys":[2700.715000013588],"total_keys":1,"block":1,"trial":17,"stimulus":1,"robot":3,"valence":"lose","action":"go","sham":0,"trial_type":"pit-trial","trial_index":50,"time_elapsed":400673,"internal_node_id":"0.0-22.0","task_version":"battery-v0.2-trt","session":2},{"rune":"Z","rune_set":"bacs2","hex":"#3366ff99","correct":32,"choice":32,"rt":896.8450000102166,"accuracy":1,"outcome":"+10","keys":[2404.5599999953993],"total_keys":1,"block":1,"trial":18,"stimulus":3,"robot":1,"valence":"win","action":"go","sham":0,"trial_type":"pit-trial","trial_index":51,"time_elapsed":404282,"internal_node_id":"0.0-23.0","task_version":"battery-v0.2-trt","session":2},{"rune":"J","rune_set":"bacs2","hex":"#f73b6a7A","correct":-1,"choice":32,"rt":1048.1699999945704,"accuracy":0,"outcome":"-1","keys":[2548.8600000098813],"total_keys":1,"block":1,"trial":19,"stimulus":0,"robot":4,"valence":"lose","action":"no-go","sham":1,"trial_type":"pit-trial","trial_index":52,"time_elapsed":408034,"internal_node_id":"0.0-24.0","task_version":"battery-v0.2-trt","session":2},{"rune":"X","rune_set":"bacs2","hex":"#f73b6a7A","correct":32,"choice":32,"rt":775.805000012042,"accuracy":1,"outcome":"-1","keys":[2276.0399999970105],"total_keys":1,"block":1,"trial":20,"stimulus":2,"robot":3,"valence":"lose","action":"go","sham":0,"trial_type":"pit-trial","trial_index":53,"time_elapsed":411514,"internal_node_id":"0.0-25.0","task_version":"battery-v0.2-trt","session":2},{"rune":"W","rune_set":"bacs2","hex":"#f73b6a7A","correct":32,"choice":32,"rt":630.0700000138022,"accuracy":1,"outcome":"-1","keys":[2131.855000014184],"total_keys":1,"block":1,"trial":21,"stimulus":1,"robot":3,"valence":"lose","action":"go","sham":0,"trial_type":"pit-trial","trial_index":54,"time_elapsed":414849,"internal_node_id":"0.0-26.0","task_version":"battery-v0.2-trt","session":2},{"rune":"Z","rune_set":"bacs2","hex":"#3366ff99","correct":32,"choice":32,"rt":536.4600000029895,"accuracy":1,"outcome":"+10","keys":[2037.0349999866448],"total_keys":1,"block":1,"trial":22,"stimulus":3,"robot":1,"valence":"win","action":"go","sham":0,"trial_type":"pit-trial","trial_index":55,"time_elapsed":418115,"internal_node_id":"0.0-27.0","task_version":"battery-v0.2-trt","session":2},{"rune":"J","rune_set":"bacs2","hex":"#f73b6a7A","correct":-1,"choice":32,"rt":666.6850000037812,"accuracy":0,"outcome":"-10","keys":[2168.1200000166427],"total_keys":1,"block":1,"trial":23,"stimulus":0,"robot":4,"valence":"lose","action":"no-go","sham":0,"trial_type":"pit-trial","trial_index":56,"time_elapsed":421491,"internal_node_id":"0.0-28.0","task_version":"battery-v0.2-trt","session":2},{"rune":"X","rune_set":"bacs2","hex":"#f73b6a7A","correct":32,"choice":32,"rt":638.6899999924935,"accuracy":1,"outcome":"-1","keys":[2139.6749999839813],"total_keys":1,"block":1,"trial":24,"stimulus":2,"robot":3,"valence":"lose","action":"go","sham":0,"trial_type":"pit-trial","trial_index":57,"time_elapsed":424833,"internal_node_id":"0.0-29.0","task_version":"battery-v0.2-trt","session":2},{"rune":"W","rune_set":"bacs2","hex":"#f73b6a7A","correct":32,"choice":32,"rt":761.079999996582,"accuracy":1,"outcome":"-1","keys":[2261.3649999839254],"total_keys":1,"block":1,"trial":25,"stimulus":1,"robot":3,"valence":"lose","action":"go","sham":0,"trial_type":"pit-trial","trial_index":58,"time_elapsed":428297,"internal_node_id":"0.0-30.0","task_version":"battery-v0.2-trt","session":2},{"rune":"X","rune_set":"bacs2","hex":"#f73b6a7A","correct":32,"choice":32,"rt":600.1900000264868,"accuracy":1,"outcome":"-1","keys":[2101.3249999959953],"total_keys":1,"block":1,"trial":26,"stimulus":2,"robot":3,"valence":"lose","action":"go","sham":0,"trial_type":"pit-trial","trial_index":59,"time_elapsed":431601,"internal_node_id":"0.0-31.0","task_version":"battery-v0.2-trt","session":2},{"rune":"J","rune_set":"bacs2","hex":"#f73b6a7A","correct":-1,"choice":-1,"rt":-1,"accuracy":1,"outcome":"-1","keys":[],"total_keys":0,"block":1,"trial":27,"stimulus":0,"robot":4,"valence":"lose","action":"no-go","sham":0,"trial_type":"pit-trial","trial_index":60,"time_elapsed":435606,"internal_node_id":"0.0-32.0","task_version":"battery-v0.2-trt","session":2},{"rune":"Z","rune_set":"bacs2","hex":"#3366ff99","correct":32,"choice":32,"rt":563.769999978831,"accuracy":1,"outcome":"+10","keys":[2065.954999998212],"total_keys":1,"block":1,"trial":28,"stimulus":3,"robot":1,"valence":"win","action":"go","sham":0,"trial_type":"pit-trial","trial_index":61,"time_elapsed":438875,"internal_node_id":"0.0-33.0","task_version":"battery-v0.2-trt","session":2},{"rune":"Z","rune_set":"bacs2","hex":"#3366ff99","correct":32,"choice":32,"rt":1085.5300000112038,"accuracy":1,"outcome":"+10","keys":[2586.9349999993574],"total_keys":1,"block":1,"trial":29,"stimulus":3,"robot":1,"valence":"win","action":"go","sham":0,"trial_type":"pit-trial","trial_index":62,"time_elapsed":442665,"internal_node_id":"0.0-34.0","task_version":"battery-v0.2-trt","session":2},{"rune":"X","rune_set":"bacs2","hex":"#f73b6a7A","correct":32,"choice":32,"rt":816.9500000076368,"accuracy":1,"outcome":"-1","keys":[2317.2299999860115],"total_keys":1,"block":1,"trial":30,"stimulus":2,"robot":3,"valence":"lose","action":"go","sham":0,"trial_type":"pit-trial","trial_index":63,"time_elapsed":446185,"internal_node_id":"0.0-35.0","task_version":"battery-v0.2-trt","session":2},{"rune":"J","rune_set":"bacs2","hex":"#f73b6a7A","correct":-1,"choice":-1,"rt":-1,"accuracy":1,"outcome":"-1","keys":[],"total_keys":0,"block":1,"trial":31,"stimulus":0,"robot":4,"valence":"lose","action":"no-go","sham":0,"trial_type":"pit-trial","trial_index":64,"time_elapsed":450193,"internal_node_id":"0.0-36.0","task_version":"battery-v0.2-trt","session":2},{"rune":"W","rune_set":"bacs2","hex":"#f73b6a7A","correct":32,"choice":32,"rt":697.054999996908,"accuracy":1,"outcome":"-1","keys":[2197.2249999816995],"total_keys":1,"block":1,"trial":32,"stimulus":1,"robot":3,"valence":"lose","action":"go","sham":0,"trial_type":"pit-trial","trial_index":65,"time_elapsed":453596,"internal_node_id":"0.0-37.0","task_version":"battery-v0.2-trt","session":2},{"rune":"G","rune_set":"bacs2","hex":"#f73b6a7A","correct":-1,"choice":-1,"rt":-1,"accuracy":1,"outcome":"-10","keys":[],"total_keys":0,"block":1,"trial":33,"stimulus":4,"robot":4,"valence":"lose","action":"no-go","sham":1,"trial_type":"pit-trial","trial_index":66,"time_elapsed":457602,"internal_node_id":"0.0-38.0","task_version":"battery-v0.2-trt","session":2},{"rune":"J","rune_set":"bacs2","hex":"#f73b6a7A","correct":-1,"choice":-1,"rt":-1,"accuracy":1,"outcome":"-1","keys":[],"total_keys":0,"block":1,"trial":34,"stimulus":0,"robot":4,"valence":"lose","action":"no-go","sham":0,"trial_type":"pit-trial","trial_index":67,"time_elapsed":461605,"internal_node_id":"0.0-39.0","task_version":"battery-v0.2-trt","session":2},{"rune":"Z","rune_set":"bacs2","hex":"#3366ff99","correct":32,"choice":32,"rt":604.8899999877904,"accuracy":1,"outcome":"+10","keys":[2105.710000003455],"total_keys":1,"block":1,"trial":35,"stimulus":3,"robot":1,"valence":"win","action":"go","sham":0,"trial_type":"pit-trial","trial_index":68,"time_elapsed":464916,"internal_node_id":"0.0-40.0","task_version":"battery-v0.2-trt","session":2},{"rune":"W","rune_set":"bacs2","hex":"#f73b6a7A","correct":32,"choice":32,"rt":1009.4650000100955,"accuracy":1,"outcome":"-1","keys":[2510.7200000202283],"total_keys":1,"block":1,"trial":36,"stimulus":1,"robot":3,"valence":"lose","action":"go","sham":0,"trial_type":"pit-trial","trial_index":69,"time_elapsed":468631,"internal_node_id":"0.0-41.0","task_version":"battery-v0.2-trt","session":2},{"rune":"J","rune_set":"bacs2","hex":"#f73b6a7A","correct":-1,"choice":-1,"rt":-1,"accuracy":1,"outcome":"-1","keys":[],"total_keys":0,"block":1,"trial":37,"stimulus":0,"robot":4,"valence":"lose","action":"no-go","sham":0,"trial_type":"pit-trial","trial_index":70,"time_elapsed":472635,"internal_node_id":"0.0-42.0","task_version":"battery-v0.2-trt","session":2},{"rune":"W","rune_set":"bacs2","hex":"#f73b6a7A","correct":32,"choice":32,"rt":1294.6050000027753,"accuracy":1,"outcome":"-1","keys":[2795.574999996461],"total_keys":1,"block":1,"trial":38,"stimulus":1,"robot":3,"valence":"lose","action":"go","sham":0,"trial_type":"pit-trial","trial_index":71,"time_elapsed":476634,"internal_node_id":"0.0-43.0","task_version":"battery-v0.2-trt","session":2},{"rune":"Z","rune_set":"bacs2","hex":"#3366ff99","correct":32,"choice":32,"rt":632.1049999969546,"accuracy":1,"outcome":"+10","keys":[2132.22999998834],"total_keys":1,"block":1,"trial":39,"stimulus":3,"robot":1,"valence":"win","action":"go","sham":0,"trial_type":"pit-trial","trial_index":72,"time_elapsed":479971,"internal_node_id":"0.0-44.0","task_version":"battery-v0.2-trt","session":2},{"rune":"G","rune_set":"bacs2","hex":"#f73b6a7A","correct":-1,"choice":32,"rt":974.129999987781,"accuracy":0,"outcome":"-10","keys":[2475.5650000006426],"total_keys":1,"block":1,"trial":40,"stimulus":4,"robot":4,"valence":"lose","action":"no-go","sham":0,"trial_type":"pit-trial","trial_index":73,"time_elapsed":483650,"internal_node_id":"0.0-45.0","task_version":"battery-v0.2-trt","session":2},{"rune":"W","rune_set":"bacs2","hex":"#f73b6a7A","correct":32,"choice":32,"rt":895.3099999926053,"accuracy":1,"outcome":"-1","keys":[2396.1699999927077],"total_keys":1,"block":1,"trial":41,"stimulus":1,"robot":3,"valence":"lose","action":"go","sham":0,"trial_type":"pit-trial","trial_index":74,"time_elapsed":487251,"internal_node_id":"0.0-46.0","task_version":"battery-v0.2-trt","session":2},{"rune":"G","rune_set":"bacs2","hex":"#f73b6a7A","correct":-1,"choice":-1,"rt":-1,"accuracy":1,"outcome":"-1","keys":[],"total_keys":0,"block":1,"trial":42,"stimulus":4,"robot":4,"valence":"lose","action":"no-go","sham":0,"trial_type":"pit-trial","trial_index":75,"time_elapsed":491255,"internal_node_id":"0.0-47.0","task_version":"battery-v0.2-trt","session":2},{"rune":"J","rune_set":"bacs2","hex":"#f73b6a7A","correct":-1,"choice":32,"rt":1203.1949999800418,"accuracy":0,"outcome":"-10","keys":[2703.3899999805726],"total_keys":1,"block":1,"trial":43,"stimulus":0,"robot":4,"valence":"lose","action":"no-go","sham":0,"trial_type":"pit-trial","trial_index":76,"time_elapsed":495162,"internal_node_id":"0.0-48.0","task_version":"battery-v0.2-trt","session":2},{"rune":"O","rune_set":"bacs2","hex":"#3366ff99","correct":-1,"choice":-1,"rt":-1,"accuracy":1,"outcome":"+1","keys":[],"total_keys":0,"block":1,"trial":44,"stimulus":5,"robot":2,"valence":"win","action":"no-go","sham":1,"trial_type":"pit-trial","trial_index":77,"time_elapsed":499167,"internal_node_id":"0.0-49.0","task_version":"battery-v0.2-trt","session":2},{"rune":"G","rune_set":"bacs2","hex":"#f73b6a7A","correct":-1,"choice":-1,"rt":-1,"accuracy":1,"outcome":"-1","keys":[],"total_keys":0,"block":1,"trial":45,"stimulus":4,"robot":4,"valence":"lose","action":"no-go","sham":0,"trial_type":"pit-trial","trial_index":78,"time_elapsed":503174,"internal_node_id":"0.0-50.0","task_version":"battery-v0.2-trt","session":2},{"rune":"J","rune_set":"bacs2","hex":"#f73b6a7A","correct":-1,"choice":32,"rt":953.1349999888334,"accuracy":0,"outcome":"-10","keys":[2454.1599999938626],"total_keys":1,"block":1,"trial":46,"stimulus":0,"robot":4,"valence":"lose","action":"no-go","sham":0,"trial_type":"pit-trial","trial_index":79,"time_elapsed":506834,"internal_node_id":"0.0-51.0","task_version":"battery-v0.2-trt","session":2},{"rune":"W","rune_set":"bacs2","hex":"#f73b6a7A","correct":32,"choice":32,"rt":808.6100000073202,"accuracy":1,"outcome":"-1","keys":[2308.6599999805912],"total_keys":1,"block":1,"trial":47,"stimulus":1,"robot":3,"valence":"lose","action":"go","sham":0,"trial_type":"pit-trial","trial_index":80,"time_elapsed":510346,"internal_node_id":"0.0-52.0","task_version":"battery-v0.2-trt","session":2},{"rune":"O","rune_set":"bacs2","hex":"#3366ff99","correct":-1,"choice":32,"rt":951.7000000050757,"accuracy":0,"outcome":"+1","keys":[2453.6599999992177],"total_keys":1,"block":1,"trial":48,"stimulus":5,"robot":2,"valence":"win","action":"no-go","sham":0,"trial_type":"pit-trial","trial_index":81,"time_elapsed":514003,"internal_node_id":"0.0-53.0","task_version":"battery-v0.2-trt","session":2},{"rune":"C","rune_set":"bacs2","hex":"#f73b6a7A","correct":-1,"choice":-1,"rt":-1,"accuracy":1,"outcome":"-1","keys":[],"total_keys":0,"block":1,"trial":49,"stimulus":6,"robot":4,"valence":"lose","action":"no-go","sham":0,"trial_type":"pit-trial","trial_index":82,"time_elapsed":518007,"internal_node_id":"0.0-54.0","task_version":"battery-v0.2-trt","session":2},{"rune":"E","rune_set":"bacs2","hex":"#3366ff99","correct":32,"choice":32,"rt":975.784999987809,"accuracy":1,"outcome":"+10","keys":[2477.149999991525],"total_keys":1,"block":1,"trial":50,"stimulus":7,"robot":1,"valence":"win","action":"go","sham":0,"trial_type":"pit-trial","trial_index":83,"time_elapsed":521689,"internal_node_id":"0.0-55.0","task_version":"battery-v0.2-trt","session":2},{"rune":"O","rune_set":"bacs2","hex":"#3366ff99","correct":-1,"choice":32,"rt":936.1250000074506,"accuracy":0,"outcome":"+1","keys":[2437.3649999906775],"total_keys":1,"block":1,"trial":51,"stimulus":5,"robot":2,"valence":"win","action":"no-go","sham":0,"trial_type":"pit-trial","trial_index":84,"time_elapsed":525331,"internal_node_id":"0.0-56.0","task_version":"battery-v0.2-trt","session":2},{"rune":"G","rune_set":"bacs2","hex":"#f73b6a7A","correct":-1,"choice":-1,"rt":-1,"accuracy":1,"outcome":"-10","keys":[],"total_keys":0,"block":1,"trial":52,"stimulus":4,"robot":4,"valence":"lose","action":"no-go","sham":1,"trial_type":"pit-trial","trial_index":85,"time_elapsed":529334,"internal_node_id":"0.0-57.0","task_version":"battery-v0.2-trt","session":2},{"rune":"O","rune_set":"bacs2","hex":"#3366ff99","correct":-1,"choice":-1,"rt":-1,"accuracy":1,"outcome":"+10","keys":[],"total_keys":0,"block":1,"trial":53,"stimulus":5,"robot":2,"valence":"win","action":"no-go","sham":0,"trial_type":"pit-trial","trial_index":86,"time_elapsed":533339,"internal_node_id":"0.0-58.0","task_version":"battery-v0.2-trt","session":2},{"rune":"E","rune_set":"bacs2","hex":"#3366ff99","correct":32,"choice":32,"rt":1126.9150000007357,"accuracy":1,"outcome":"+10","keys":[2628.0400000105146],"total_keys":1,"block":1,"trial":54,"stimulus":7,"robot":1,"valence":"win","action":"go","sham":0,"trial_type":"pit-trial","trial_index":87,"time_elapsed":537170,"internal_node_id":"0.0-59.0","task_version":"battery-v0.2-trt","session":2},{"rune":"G","rune_set":"bacs2","hex":"#f73b6a7A","correct":-1,"choice":-1,"rt":-1,"accuracy":1,"outcome":"-1","keys":[],"total_keys":0,"block":1,"trial":55,"stimulus":4,"robot":4,"valence":"lose","action":"no-go","sham":0,"trial_type":"pit-trial","trial_index":88,"time_elapsed":541173,"internal_node_id":"0.0-60.0","task_version":"battery-v0.2-trt","session":2},{"rune":"C","rune_set":"bacs2","hex":"#f73b6a7A","correct":-1,"choice":-1,"rt":-1,"accuracy":1,"outcome":"-10","keys":[],"total_keys":0,"block":1,"trial":56,"stimulus":6,"robot":4,"valence":"lose","action":"no-go","sham":1,"trial_type":"pit-trial","trial_index":89,"time_elapsed":545177,"internal_node_id":"0.0-61.0","task_version":"battery-v0.2-trt","session":2},{"rune":"O","rune_set":"bacs2","hex":"#3366ff99","correct":-1,"choice":-1,"rt":-1,"accuracy":1,"outcome":"+10","keys":[],"total_keys":0,"block":1,"trial":57,"stimulus":5,"robot":2,"valence":"win","action":"no-go","sham":0,"trial_type":"pit-trial","trial_index":90,"time_elapsed":549184,"internal_node_id":"0.0-62.0","task_version":"battery-v0.2-trt","session":2},{"rune":"C","rune_set":"bacs2","hex":"#f73b6a7A","correct":-1,"choice":32,"rt":485.86499999510124,"accuracy":0,"outcome":"-10","keys":[1986.9499999913387],"total_keys":1,"block":1,"trial":58,"stimulus":6,"robot":4,"valence":"lose","action":"no-go","sham":0,"trial_type":"pit-trial","trial_index":91,"time_elapsed":552376,"internal_node_id":"0.0-63.0","task_version":"battery-v0.2-trt","session":2},{"rune":"E","rune_set":"bacs2","hex":"#3366ff99","correct":32,"choice":-1,"rt":-1,"accuracy":0,"outcome":"+1","keys":[],"total_keys":0,"block":1,"trial":59,"stimulus":7,"robot":1,"valence":"win","action":"go","sham":0,"trial_type":"pit-trial","trial_index":92,"time_elapsed":556403,"internal_node_id":"0.0-64.0","task_version":"battery-v0.2-trt","session":2},{"rune":"G","rune_set":"bacs2","hex":"#f73b6a7A","correct":-1,"choice":-1,"rt":-1,"accuracy":1,"outcome":"-1","keys":[2858.6749999958556],"total_keys":1,"block":1,"trial":60,"stimulus":4,"robot":4,"valence":"lose","action":"no-go","sham":0,"trial_type":"pit-trial","trial_index":93,"time_elapsed":560408,"internal_node_id":"0.0-65.0","task_version":"battery-v0.2-trt","session":2},{"rune":"C","rune_set":"bacs2","hex":"#f73b6a7A","correct":-1,"choice":32,"rt":969.4949999975506,"accuracy":0,"outcome":"-10","keys":[2470.5400000093505],"total_keys":1,"block":1,"trial":61,"stimulus":6,"robot":4,"valence":"lose","action":"no-go","sham":0,"trial_type":"pit-trial","trial_index":94,"time_elapsed":564082,"internal_node_id":"0.0-66.0","task_version":"battery-v0.2-trt","session":2},{"rune":"E","rune_set":"bacs2","hex":"#3366ff99","correct":32,"choice":-1,"rt":-1,"accuracy":0,"outcome":"+1","keys":[],"total_keys":0,"block":1,"trial":62,"stimulus":7,"robot":1,"valence":"win","action":"go","sham":0,"trial_type":"pit-trial","trial_index":95,"time_elapsed":568091,"internal_node_id":"0.0-67.0","task_version":"battery-v0.2-trt","session":2},{"rune":"G","rune_set":"bacs2","hex":"#f73b6a7A","correct":-1,"choice":-1,"rt":-1,"accuracy":1,"outcome":"-10","keys":[],"total_keys":0,"block":1,"trial":63,"stimulus":4,"robot":4,"valence":"lose","action":"no-go","sham":1,"trial_type":"pit-trial","trial_index":96,"time_elapsed":572097,"internal_node_id":"0.0-68.0","task_version":"battery-v0.2-trt","session":2},{"rune":"O","rune_set":"bacs2","hex":"#3366ff99","correct":-1,"choice":-1,"rt":-1,"accuracy":1,"outcome":"+1","keys":[],"total_keys":0,"block":1,"trial":64,"stimulus":5,"robot":2,"valence":"win","action":"no-go","sham":1,"trial_type":"pit-trial","trial_index":97,"time_elapsed":576103,"internal_node_id":"0.0-69.0","task_version":"battery-v0.2-trt","session":2},{"rune":"G","rune_set":"bacs2","hex":"#f73b6a7A","correct":-1,"choice":32,"rt":865.9200000111014,"accuracy":0,"outcome":"-10","keys":[2366.0800000070594],"total_keys":1,"block":1,"trial":65,"stimulus":4,"robot":4,"valence":"lose","action":"no-go","sham":0,"trial_type":"pit-trial","trial_index":98,"time_elapsed":579683,"internal_node_id":"0.0-70.0","task_version":"battery-v0.2-trt","session":2},{"rune":"C","rune_set":"bacs2","hex":"#f73b6a7A","correct":-1,"choice":32,"rt":955.9900000167545,"accuracy":0,"outcome":"-10","keys":[2457.2749999933876],"total_keys":1,"block":1,"trial":66,"stimulus":6,"robot":4,"valence":"lose","action":"no-go","sham":0,"trial_type":"pit-trial","trial_index":99,"time_elapsed":583345,"internal_node_id":"0.0-71.0","task_version":"battery-v0.2-trt","session":2},{"rune":"O","rune_set":"bacs2","hex":"#3366ff99","correct":-1,"choice":32,"rt":871.7100000067148,"accuracy":0,"outcome":"+10","keys":[2372.2349999879953],"total_keys":1,"block":1,"trial":67,"stimulus":5,"robot":2,"valence":"win","action":"no-go","sham":1,"trial_type":"pit-trial","trial_index":100,"time_elapsed":586922,"internal_node_id":"0.0-72.0","task_version":"battery-v0.2-trt","session":2},{"rune":"E","rune_set":"bacs2","hex":"#3366ff99","correct":32,"choice":-1,"rt":-1,"accuracy":0,"outcome":"+1","keys":[],"total_keys":0,"block":1,"trial":68,"stimulus":7,"robot":1,"valence":"win","action":"go","sham":0,"trial_type":"pit-trial","trial_index":101,"time_elapsed":590926,"internal_node_id":"0.0-73.0","task_version":"battery-v0.2-trt","session":2},{"rune":"C","rune_set":"bacs2","hex":"#f73b6a7A","correct":-1,"choice":-1,"rt":-1,"accuracy":1,"outcome":"-1","keys":[],"total_keys":0,"block":1,"trial":69,"stimulus":6,"robot":4,"valence":"lose","action":"no-go","sham":0,"trial_type":"pit-trial","trial_index":102,"time_elapsed":594930,"internal_node_id":"0.0-74.0","task_version":"battery-v0.2-trt","session":2},{"rune":"O","rune_set":"bacs2","hex":"#3366ff99","correct":-1,"choice":32,"rt":728.0949999985751,"accuracy":0,"outcome":"+1","keys":[2229.0300000167917],"total_keys":1,"block":1,"trial":70,"stimulus":5,"robot":2,"valence":"win","action":"no-go","sham":0,"trial_type":"pit-trial","trial_index":103,"time_elapsed":598363,"internal_node_id":"0.0-75.0","task_version":"battery-v0.2-trt","session":2},{"rune":"E","rune_set":"bacs2","hex":"#3366ff99","correct":32,"choice":32,"rt":1277.9149999842048,"accuracy":1,"outcome":"+10","keys":[2779.209999978775],"total_keys":1,"block":1,"trial":71,"stimulus":7,"robot":1,"valence":"win","action":"go","sham":0,"trial_type":"pit-trial","trial_index":104,"time_elapsed":602346,"internal_node_id":"0.0-76.0","task_version":"battery-v0.2-trt","session":2},{"rune":"G","rune_set":"bacs2","hex":"#f73b6a7A","correct":-1,"choice":-1,"rt":-1,"accuracy":1,"outcome":"-1","keys":[],"total_keys":0,"block":1,"trial":72,"stimulus":4,"robot":4,"valence":"lose","action":"no-go","sham":0,"trial_type":"pit-trial","trial_index":105,"time_elapsed":606351,"internal_node_id":"0.0-77.0","task_version":"battery-v0.2-trt","session":2},{"rune":"H","rune_set":"bacs2","hex":"#3366ff99","correct":32,"choice":-1,"rt":-1,"accuracy":0,"outcome":"+1","keys":[],"total_keys":0,"block":1,"trial":73,"stimulus":8,"robot":1,"valence":"win","action":"go","sham":0,"trial_type":"pit-trial","trial_index":106,"time_elapsed":610356,"internal_node_id":"0.0-78.0","task_version":"battery-v0.2-trt","session":2},{"rune":"E","rune_set":"bacs2","hex":"#3366ff99","correct":32,"choice":32,"rt":1013.9449999842327,"accuracy":1,"outcome":"+10","keys":[2514.8000000044703],"total_keys":1,"block":1,"trial":74,"stimulus":7,"robot":1,"valence":"win","action":"go","sham":0,"trial_type":"pit-trial","trial_index":107,"time_elapsed":614073,"internal_node_id":"0.0-79.0","task_version":"battery-v0.2-trt","session":2},{"rune":"C","rune_set":"bacs2","hex":"#f73b6a7A","correct":-1,"choice":-1,"rt":-1,"accuracy":1,"outcome":"-10","keys":[],"total_keys":0,"block":1,"trial":75,"stimulus":6,"robot":4,"valence":"lose","action":"no-go","sham":1,"trial_type":"pit-trial","trial_index":108,"time_elapsed":618092,"internal_node_id":"0.0-80.0","task_version":"battery-v0.2-trt","session":2},{"rune":"O","rune_set":"bacs2","hex":"#3366ff99","correct":-1,"choice":32,"rt":897.6399999810383,"accuracy":0,"outcome":"+1","keys":[2399.6750000223983],"total_keys":1,"block":1,"trial":76,"stimulus":5,"robot":2,"valence":"win","action":"no-go","sham":0,"trial_type":"pit-trial","trial_index":109,"time_elapsed":621697,"internal_node_id":"0.0-81.0","task_version":"battery-v0.2-trt","session":2},{"rune":"E","rune_set":"bacs2","hex":"#3366ff99","correct":32,"choice":32,"rt":1170.0300000084098,"accuracy":1,"outcome":"+10","keys":[2670.6600000034086],"total_keys":1,"block":1,"trial":77,"stimulus":7,"robot":1,"valence":"win","action":"go","sham":0,"trial_type":"pit-trial","trial_index":110,"time_elapsed":625573,"internal_node_id":"0.0-82.0","task_version":"battery-v0.2-trt","session":2},{"rune":"H","rune_set":"bacs2","hex":"#3366ff99","correct":32,"choice":32,"rt":797.8149999980815,"accuracy":1,"outcome":"+1","keys":[2299.139999988256],"total_keys":1,"block":1,"trial":78,"stimulus":8,"robot":1,"valence":"win","action":"go","sham":1,"trial_type":"pit-trial","trial_index":111,"time_elapsed":629077,"internal_node_id":"0.0-83.0","task_version":"battery-v0.2-trt","session":2},{"rune":"C","rune_set":"bacs2","hex":"#f73b6a7A","correct":-1,"choice":32,"rt":811.2950000213459,"accuracy":0,"outcome":"-10","keys":[2313.2599999953527],"total_keys":1,"block":1,"trial":79,"stimulus":6,"robot":4,"valence":"lose","action":"no-go","sham":0,"trial_type":"pit-trial","trial_index":112,"time_elapsed":632593,"internal_node_id":"0.0-84.0","task_version":"battery-v0.2-trt","session":2},{"rune":"O","rune_set":"bacs2","hex":"#3366ff99","correct":-1,"choice":-1,"rt":-1,"accuracy":1,"outcome":"+10","keys":[],"total_keys":0,"block":1,"trial":80,"stimulus":5,"robot":2,"valence":"win","action":"no-go","sham":0,"trial_type":"pit-trial","trial_index":113,"time_elapsed":636597,"internal_node_id":"0.0-85.0","task_version":"battery-v0.2-trt","session":2},{"rune":"Q","rune_set":"bacs2","hex":"#3366ff99","correct":-1,"choice":32,"rt":1092.320000025211,"accuracy":0,"outcome":"+1","keys":[2594.325000012759],"total_keys":1,"block":1,"trial":81,"stimulus":9,"robot":2,"valence":"win","action":"no-go","sham":0,"trial_type":"pit-trial","trial_index":114,"time_elapsed":640393,"internal_node_id":"0.0-86.0","task_version":"battery-v0.2-trt","session":2},{"rune":"T","rune_set":"bacs2","hex":"#f73b6a7A","correct":32,"choice":-1,"rt":-1,"accuracy":0,"outcome":"-10","keys":[],"total_keys":0,"block":1,"trial":82,"stimulus":10,"robot":3,"valence":"lose","action":"go","sham":0,"trial_type":"pit-trial","trial_index":115,"time_elapsed":644397,"internal_node_id":"0.0-87.0","task_version":"battery-v0.2-trt","session":2},{"rune":"O","rune_set":"bacs2","hex":"#3366ff99","correct":-1,"choice":-1,"rt":-1,"accuracy":1,"outcome":"+10","keys":[],"total_keys":0,"block":1,"trial":83,"stimulus":5,"robot":2,"valence":"win","action":"no-go","sham":0,"trial_type":"pit-trial","trial_index":116,"time_elapsed":648402,"internal_node_id":"0.0-88.0","task_version":"battery-v0.2-trt","session":2},{"rune":"H","rune_set":"bacs2","hex":"#3366ff99","correct":32,"choice":32,"rt":969.9949999921955,"accuracy":1,"outcome":"+10","keys":[2476.6149999923073],"total_keys":1,"block":1,"trial":84,"stimulus":8,"robot":1,"valence":"win","action":"go","sham":0,"trial_type":"pit-trial","trial_index":117,"time_elapsed":652087,"internal_node_id":"0.0-89.0","task_version":"battery-v0.2-trt","session":2},{"rune":"H","rune_set":"bacs2","hex":"#3366ff99","correct":32,"choice":32,"rt":979.6999999962281,"accuracy":1,"outcome":"+10","keys":[2480.6249999965075],"total_keys":1,"block":1,"trial":85,"stimulus":8,"robot":1,"valence":"win","action":"go","sham":0,"trial_type":"pit-trial","trial_index":118,"time_elapsed":655773,"internal_node_id":"0.0-90.0","task_version":"battery-v0.2-trt","session":2},{"rune":"Q","rune_set":"bacs2","hex":"#3366ff99","correct":-1,"choice":32,"rt":1035.2099999727216,"accuracy":0,"outcome":"+1","keys":[2538.07500001858],"total_keys":1,"block":1,"trial":86,"stimulus":9,"robot":2,"valence":"win","action":"no-go","sham":0,"trial_type":"pit-trial","trial_index":119,"time_elapsed":659538,"internal_node_id":"0.0-91.0","task_version":"battery-v0.2-trt","session":2},{"rune":"T","rune_set":"bacs2","hex":"#f73b6a7A","correct":32,"choice":32,"rt":830.1799999899231,"accuracy":1,"outcome":"-10","keys":[2332.2100000223145],"total_keys":1,"block":1,"trial":87,"stimulus":10,"robot":3,"valence":"lose","action":"go","sham":1,"trial_type":"pit-trial","trial_index":120,"time_elapsed":663074,"internal_node_id":"0.0-92.0","task_version":"battery-v0.2-trt","session":2},{"rune":"O","rune_set":"bacs2","hex":"#3366ff99","correct":-1,"choice":-1,"rt":-1,"accuracy":1,"outcome":"+10","keys":[],"total_keys":0,"block":1,"trial":88,"stimulus":5,"robot":2,"valence":"win","action":"no-go","sham":0,"trial_type":"pit-trial","trial_index":121,"time_elapsed":667078,"internal_node_id":"0.0-93.0","task_version":"battery-v0.2-trt","session":2},{"rune":"Y","rune_set":"bacs2","hex":"#3366ff99","correct":-1,"choice":32,"rt":1219.7800000139978,"accuracy":0,"outcome":"+10","keys":[2720.8650000102352],"total_keys":1,"block":1,"trial":89,"stimulus":11,"robot":2,"valence":"win","action":"no-go","sham":1,"trial_type":"pit-trial","trial_index":122,"time_elapsed":671002,"internal_node_id":"0.0-94.0","task_version":"battery-v0.2-trt","session":2},{"rune":"T","rune_set":"bacs2","hex":"#f73b6a7A","correct":32,"choice":-1,"rt":-1,"accuracy":0,"outcome":"-10","keys":[],"total_keys":0,"block":1,"trial":90,"stimulus":10,"robot":3,"valence":"lose","action":"go","sham":0,"trial_type":"pit-trial","trial_index":123,"time_elapsed":675008,"internal_node_id":"0.0-95.0","task_version":"battery-v0.2-trt","session":2},{"rune":"H","rune_set":"bacs2","hex":"#3366ff99","correct":32,"choice":32,"rt":873.9050000149291,"accuracy":1,"outcome":"+10","keys":[2375.629999994999],"total_keys":1,"block":1,"trial":91,"stimulus":8,"robot":1,"valence":"win","action":"go","sham":0,"trial_type":"pit-trial","trial_index":124,"time_elapsed":678588,"internal_node_id":"0.0-96.0","task_version":"battery-v0.2-trt","session":2},{"rune":"Q","rune_set":"bacs2","hex":"#3366ff99","correct":-1,"choice":-1,"rt":-1,"accuracy":1,"outcome":"+10","keys":[2995.3650000097696],"total_keys":1,"block":1,"trial":92,"stimulus":9,"robot":2,"valence":"win","action":"no-go","sham":0,"trial_type":"pit-trial","trial_index":125,"time_elapsed":682591,"internal_node_id":"0.0-97.0","task_version":"battery-v0.2-trt","session":2},{"rune":"H","rune_set":"bacs2","hex":"#3366ff99","correct":32,"choice":32,"rt":866.5299999993294,"accuracy":1,"outcome":"+10","keys":[2367.7549999847542],"total_keys":1,"block":1,"trial":93,"stimulus":8,"robot":1,"valence":"win","action":"go","sham":0,"trial_type":"pit-trial","trial_index":126,"time_elapsed":686171,"internal_node_id":"0.0-98.0","task_version":"battery-v0.2-trt","session":2},{"rune":"Q","rune_set":"bacs2","hex":"#3366ff99","correct":-1,"choice":32,"rt":1004.9850000068545,"accuracy":0,"outcome":"+10","keys":[2506.309999997029],"total_keys":1,"block":1,"trial":94,"stimulus":9,"robot":2,"valence":"win","action":"no-go","sham":1,"trial_type":"pit-trial","trial_index":127,"time_elapsed":689883,"internal_node_id":"0.0-99.0","task_version":"battery-v0.2-trt","session":2},{"rune":"T","rune_set":"bacs2","hex":"#f73b6a7A","correct":32,"choice":32,"rt":1134.3350000097416,"accuracy":1,"outcome":"-1","keys":[2636.129999998957],"total_keys":1,"block":1,"trial":95,"stimulus":10,"robot":3,"valence":"lose","action":"go","sham":0,"trial_type":"pit-trial","trial_index":128,"time_elapsed":693726,"internal_node_id":"0.0-100.0","task_version":"battery-v0.2-trt","session":2},{"rune":"Y","rune_set":"bacs2","hex":"#3366ff99","correct":-1,"choice":-1,"rt":-1,"accuracy":1,"outcome":"+1","keys":[],"total_keys":0,"block":1,"trial":96,"stimulus":11,"robot":2,"valence":"win","action":"no-go","sham":1,"trial_type":"pit-trial","trial_index":129,"time_elapsed":697755,"internal_node_id":"0.0-101.0","task_version":"battery-v0.2-trt","session":2},{"rune":"Y","rune_set":"bacs2","hex":"#3366ff99","correct":-1,"choice":32,"rt":743.255000008503,"accuracy":0,"outcome":"+10","keys":[2243.8749999855645],"total_keys":1,"block":1,"trial":97,"stimulus":11,"robot":2,"valence":"win","action":"no-go","sham":1,"trial_type":"pit-trial","trial_index":130,"time_elapsed":701203,"internal_node_id":"0.0-102.0","task_version":"battery-v0.2-trt","session":2},{"rune":"H","rune_set":"bacs2","hex":"#3366ff99","correct":32,"choice":32,"rt":703.349999996135,"accuracy":1,"outcome":"+10","keys":[2203.8900000043213],"total_keys":1,"block":1,"trial":98,"stimulus":8,"robot":1,"valence":"win","action":"go","sham":0,"trial_type":"pit-trial","trial_index":131,"time_elapsed":704611,"internal_node_id":"0.0-103.0","task_version":"battery-v0.2-trt","session":2},{"rune":"Q","rune_set":"bacs2","hex":"#3366ff99","correct":-1,"choice":32,"rt":735.6200000212993,"accuracy":0,"outcome":"+10","keys":[2237.280000001192],"total_keys":1,"block":1,"trial":99,"stimulus":9,"robot":2,"valence":"win","action":"no-go","sham":1,"trial_type":"pit-trial","trial_index":132,"time_elapsed":708052,"internal_node_id":"0.0-104.0","task_version":"battery-v0.2-trt","session":2},{"rune":"T","rune_set":"bacs2","hex":"#f73b6a7A","correct":32,"choice":32,"rt":909.6399999980349,"accuracy":1,"outcome":"-10","keys":[2409.604999993462],"total_keys":1,"block":1,"trial":100,"stimulus":10,"robot":3,"valence":"lose","action":"go","sham":1,"trial_type":"pit-trial","trial_index":133,"time_elapsed":711666,"internal_node_id":"0.0-105.0","task_version":"battery-v0.2-trt","session":2},{"rune":"H","rune_set":"bacs2","hex":"#3366ff99","correct":32,"choice":32,"rt":640.0450000073761,"accuracy":1,"outcome":"+1","keys":[2140.8449999871664],"total_keys":1,"block":1,"trial":101,"stimulus":8,"robot":1,"valence":"win","action":"go","sham":1,"trial_type":"pit-trial","trial_index":134,"time_elapsed":715010,"internal_node_id":"0.0-106.0","task_version":"battery-v0.2-trt","session":2},{"rune":"Q","rune_set":"bacs2","hex":"#3366ff99","correct":-1,"choice":32,"rt":800.4099999961909,"accuracy":0,"outcome":"+10","keys":[2300.650000019232],"total_keys":1,"block":1,"trial":102,"stimulus":9,"robot":2,"valence":"win","action":"no-go","sham":1,"trial_type":"pit-trial","trial_index":135,"time_elapsed":718515,"internal_node_id":"0.0-107.0","task_version":"battery-v0.2-trt","session":2},{"rune":"T","rune_set":"bacs2","hex":"#f73b6a7A","correct":32,"choice":32,"rt":964.3849999993108,"accuracy":1,"outcome":"-1","keys":[2466.199999995297],"total_keys":1,"block":1,"trial":103,"stimulus":10,"robot":3,"valence":"lose","action":"go","sham":0,"trial_type":"pit-trial","trial_index":136,"time_elapsed":722186,"internal_node_id":"0.0-108.0","task_version":"battery-v0.2-trt","session":2},{"rune":"Y","rune_set":"bacs2","hex":"#3366ff99","correct":-1,"choice":32,"rt":1159.4599999953061,"accuracy":0,"outcome":"+1","keys":[2660.504999978002],"total_keys":1,"block":1,"trial":104,"stimulus":11,"robot":2,"valence":"win","action":"no-go","sham":0,"trial_type":"pit-trial","trial_index":137,"time_elapsed":726050,"internal_node_id":"0.0-109.0","task_version":"battery-v0.2-trt","session":2},{"rune":"H","rune_set":"bacs2","hex":"#3366ff99","correct":32,"choice":32,"rt":647.6949999923818,"accuracy":1,"outcome":"+10","keys":[2148.400000005495],"total_keys":1,"block":1,"trial":105,"stimulus":8,"robot":1,"valence":"win","action":"go","sham":0,"trial_type":"pit-trial","trial_index":138,"time_elapsed":729403,"internal_node_id":"0.0-110.0","task_version":"battery-v0.2-trt","session":2},{"rune":"Y","rune_set":"bacs2","hex":"#3366ff99","correct":-1,"choice":32,"rt":814.7999999928288,"accuracy":0,"outcome":"+10","keys":[2315.195000002859],"total_keys":1,"block":1,"trial":106,"stimulus":11,"robot":2,"valence":"win","action":"no-go","sham":1,"trial_type":"pit-trial","trial_index":139,"time_elapsed":732922,"internal_node_id":"0.0-111.0","task_version":"battery-v0.2-trt","session":2},{"rune":"Q","rune_set":"bacs2","hex":"#3366ff99","correct":-1,"choice":32,"rt":471.3099999935366,"accuracy":0,"outcome":"+1","keys":[1972.1600000048056],"total_keys":1,"block":1,"trial":107,"stimulus":9,"robot":2,"valence":"win","action":"no-go","sham":0,"trial_type":"pit-trial","trial_index":140,"time_elapsed":736098,"internal_node_id":"0.0-112.0","task_version":"battery-v0.2-trt","session":2},{"rune":"T","rune_set":"bacs2","hex":"#f73b6a7A","correct":32,"choice":32,"rt":1110.950000002049,"accuracy":1,"outcome":"-1","keys":[2612.859999993816],"total_keys":1,"block":1,"trial":108,"stimulus":10,"robot":3,"valence":"lose","action":"go","sham":0,"trial_type":"pit-trial","trial_index":141,"time_elapsed":739913,"internal_node_id":"0.0-113.0","task_version":"battery-v0.2-trt","session":2},{"rune":"Y","rune_set":"bacs2","hex":"#3366ff99","correct":-1,"choice":32,"rt":1112.1299999940675,"accuracy":0,"outcome":"+1","keys":[2613.370000006398],"total_keys":1,"block":1,"trial":109,"stimulus":11,"robot":2,"valence":"win","action":"no-go","sham":0,"trial_type":"pit-trial","trial_index":142,"time_elapsed":743731,"internal_node_id":"0.0-114.0","task_version":"battery-v0.2-trt","session":2},{"rune":"Q","rune_set":"bacs2","hex":"#3366ff99","correct":-1,"choice":32,"rt":802.4100000038743,"accuracy":0,"outcome":"+10","keys":[2306.929999991553],"total_keys":1,"block":1,"trial":110,"stimulus":9,"robot":2,"valence":"win","action":"no-go","sham":1,"trial_type":"pit-trial","trial_index":143,"time_elapsed":747281,"internal_node_id":"0.0-115.0","task_version":"battery-v0.2-trt","session":2},{"rune":"T","rune_set":"bacs2","hex":"#f73b6a7A","correct":32,"choice":32,"rt":893.4650000010151,"accuracy":1,"outcome":"-1","keys":[2396.199999988312],"total_keys":1,"block":1,"trial":111,"stimulus":10,"robot":3,"valence":"lose","action":"go","sham":0,"trial_type":"pit-trial","trial_index":144,"time_elapsed":750883,"internal_node_id":"0.0-116.0","task_version":"battery-v0.2-trt","session":2},{"rune":"H","rune_set":"bacs2","hex":"#3366ff99","correct":32,"choice":32,"rt":806.014999980107,"accuracy":1,"outcome":"+10","keys":[2307.695000024978],"total_keys":1,"block":1,"trial":112,"stimulus":8,"robot":1,"valence":"win","action":"go","sham":0,"trial_type":"pit-trial","trial_index":145,"time_elapsed":754393,"internal_node_id":"0.0-117.0","task_version":"battery-v0.2-trt","session":2},{"rune":"Q","rune_set":"bacs2","hex":"#3366ff99","correct":-1,"choice":32,"rt":880.7199999864679,"accuracy":0,"outcome":"+1","keys":[2381.3499999814667],"total_keys":1,"block":1,"trial":113,"stimulus":9,"robot":2,"valence":"win","action":"no-go","sham":0,"trial_type":"pit-trial","trial_index":146,"time_elapsed":757977,"internal_node_id":"0.0-118.0","task_version":"battery-v0.2-trt","session":2},{"rune":"T","rune_set":"bacs2","hex":"#f73b6a7A","correct":32,"choice":32,"rt":672.4899999971967,"accuracy":1,"outcome":"-10","keys":[2173.549999977695],"total_keys":1,"block":1,"trial":114,"stimulus":10,"robot":3,"valence":"lose","action":"go","sham":1,"trial_type":"pit-trial","trial_index":147,"time_elapsed":761354,"internal_node_id":"0.0-119.0","task_version":"battery-v0.2-trt","session":2},{"rune":"H","rune_set":"bacs2","hex":"#3366ff99","correct":32,"choice":32,"rt":678.459999995539,"accuracy":1,"outcome":"+10","keys":[2180.4850000189617],"total_keys":1,"block":1,"trial":115,"stimulus":8,"robot":1,"valence":"win","action":"go","sham":0,"trial_type":"pit-trial","trial_index":148,"time_elapsed":764738,"internal_node_id":"0.0-120.0","task_version":"battery-v0.2-trt","session":2},{"rune":"Y","rune_set":"bacs2","hex":"#3366ff99","correct":-1,"choice":-1,"rt":-1,"accuracy":1,"outcome":"+10","keys":[],"total_keys":0,"block":1,"trial":116,"stimulus":11,"robot":2,"valence":"win","action":"no-go","sham":0,"trial_type":"pit-trial","trial_index":149,"time_elapsed":768742,"internal_node_id":"0.0-121.0","task_version":"battery-v0.2-trt","session":2},{"rune":"Y","rune_set":"bacs2","hex":"#3366ff99","correct":-1,"choice":-1,"rt":-1,"accuracy":1,"outcome":"+1","keys":[],"total_keys":0,"block":1,"trial":117,"stimulus":11,"robot":2,"valence":"win","action":"no-go","sham":1,"trial_type":"pit-trial","trial_index":150,"time_elapsed":772767,"internal_node_id":"0.0-122.0","task_version":"battery-v0.2-trt","session":2},{"rune":"T","rune_set":"bacs2","hex":"#f73b6a7A","correct":32,"choice":32,"rt":891.0299999988638,"accuracy":1,"outcome":"-1","keys":[2391.5799999958836],"total_keys":1,"block":1,"trial":118,"stimulus":10,"robot":3,"valence":"lose","action":"go","sham":0,"trial_type":"pit-trial","trial_index":151,"time_elapsed":776362,"internal_node_id":"0.0-123.0","task_version":"battery-v0.2-trt","session":2},{"rune":"Q","rune_set":"bacs2","hex":"#3366ff99","correct":-1,"choice":-1,"rt":-1,"accuracy":1,"outcome":"+10","keys":[],"total_keys":0,"block":1,"trial":119,"stimulus":9,"robot":2,"valence":"win","action":"no-go","sham":0,"trial_type":"pit-trial","trial_index":152,"time_elapsed":780366,"internal_node_id":"0.0-124.0","task_version":"battery-v0.2-trt","session":2},{"rune":"H","rune_set":"bacs2","hex":"#3366ff99","correct":32,"choice":32,"rt":907.5149999989662,"accuracy":1,"outcome":"+10","keys":[2408.449999988079],"total_keys":1,"block":1,"trial":120,"stimulus":8,"robot":1,"valence":"win","action":"go","sham":0,"trial_type":"pit-trial","trial_index":153,"time_elapsed":783977,"internal_node_id":"0.0-125.0","task_version":"battery-v0.2-trt","session":2},{"view_history":"[{\"page_index\":0,\"viewing_time\":55419.09000001033},{\"page_index\":1,\"viewing_time\":5338.359999994282}]","rt":60758.044999995036,"trial_type":"pit-instructions","trial_index":154,"time_elapsed":844737,"internal_node_id":"0.0-126.0","task_version":"battery-v0.2-trt","session":2},{"rune":"M","rune_set":"bacs2","hex":"#3366ff99","correct":32,"choice":32,"rt":1244.7450000036042,"accuracy":1,"outcome":"+10","keys":[2746.1400000029244],"total_keys":1,"block":2,"trial":121,"stimulus":0,"robot":1,"valence":"win","action":"go","sham":0,"trial_type":"pit-trial","trial_index":155,"time_elapsed":848689,"internal_node_id":"0.0-127.0","task_version":"battery-v0.2-trt","session":2},{"rune":"K","rune_set":"bacs2","hex":"#f73b6a7A","correct":-1,"choice":-1,"rt":-1,"accuracy":1,"outcome":"-1","keys":[],"total_keys":0,"block":2,"trial":122,"stimulus":2,"robot":4,"valence":"lose","action":"no-go","sham":0,"trial_type":"pit-trial","trial_index":156,"time_elapsed":852696,"internal_node_id":"0.0-128.0","task_version":"battery-v0.2-trt","session":2},{"rune":"B","rune_set":"bacs2","hex":"#f73b6a7A","correct":32,"choice":32,"rt":869.4949999917299,"accuracy":1,"outcome":"-1","keys":[2371.534999983851],"total_keys":1,"block":2,"trial":123,"stimulus":1,"robot":3,"valence":"lose","action":"go","sham":0,"trial_type":"pit-trial","trial_index":157,"time_elapsed":856274,"internal_node_id":"0.0-129.0","task_version":"battery-v0.2-trt","session":2},{"rune":"V","rune_set":"bacs2","hex":"#3366ff99","correct":-1,"choice":32,"rt":1095.305000024382,"accuracy":0,"outcome":"+1","keys":[2596.3300000003073],"total_keys":1,"block":2,"trial":124,"stimulus":3,"robot":2,"valence":"win","action":"no-go","sham":0,"trial_type":"pit-trial","trial_index":158,"time_elapsed":860074,"internal_node_id":"0.0-130.0","task_version":"battery-v0.2-trt","session":2},{"rune":"M","rune_set":"bacs2","hex":"#3366ff99","correct":32,"choice":32,"rt":998.7949999922421,"accuracy":1,"outcome":"+10","keys":[2499.819999997271],"total_keys":1,"block":2,"trial":125,"stimulus":0,"robot":1,"valence":"win","action":"go","sham":0,"trial_type":"pit-trial","trial_index":159,"time_elapsed":863778,"internal_node_id":"0.0-131.0","task_version":"battery-v0.2-trt","session":2},{"rune":"K","rune_set":"bacs2","hex":"#f73b6a7A","correct":-1,"choice":32,"rt":1135.7499999867287,"accuracy":0,"outcome":"-10","keys":[2636.549999995623],"total_keys":1,"block":2,"trial":126,"stimulus":2,"robot":4,"valence":"lose","action":"no-go","sham":0,"trial_type":"pit-trial","trial_index":160,"time_elapsed":867618,"internal_node_id":"0.0-132.0","task_version":"battery-v0.2-trt","session":2},{"rune":"B","rune_set":"bacs2","hex":"#f73b6a7A","correct":32,"choice":-1,"rt":-1,"accuracy":0,"outcome":"-10","keys":[],"total_keys":0,"block":2,"trial":127,"stimulus":1,"robot":3,"valence":"lose","action":"go","sham":0,"trial_type":"pit-trial","trial_index":161,"time_elapsed":871623,"internal_node_id":"0.0-133.0","task_version":"battery-v0.2-trt","session":2},{"rune":"V","rune_set":"bacs2","hex":"#3366ff99","correct":-1,"choice":32,"rt":856.419999996433,"accuracy":0,"outcome":"+1","keys":[2359.6900000120513],"total_keys":1,"block":2,"trial":128,"stimulus":3,"robot":2,"valence":"win","action":"no-go","sham":0,"trial_type":"pit-trial","trial_index":162,"time_elapsed":875185,"internal_node_id":"0.0-134.0","task_version":"battery-v0.2-trt","session":2},{"rune":"M","rune_set":"bacs2","hex":"#3366ff99","correct":32,"choice":32,"rt":865.6799999880604,"accuracy":1,"outcome":"+10","keys":[2366.524999990361],"total_keys":1,"block":2,"trial":129,"stimulus":0,"robot":1,"valence":"win","action":"go","sham":0,"trial_type":"pit-trial","trial_index":163,"time_elapsed":878756,"internal_node_id":"0.0-135.0","task_version":"battery-v0.2-trt","session":2},{"rune":"V","rune_set":"bacs2","hex":"#3366ff99","correct":-1,"choice":-1,"rt":-1,"accuracy":1,"outcome":"+10","keys":[],"total_keys":0,"block":2,"trial":130,"stimulus":3,"robot":2,"valence":"win","action":"no-go","sham":0,"trial_type":"pit-trial","trial_index":164,"time_elapsed":882760,"internal_node_id":"0.0-136.0","task_version":"battery-v0.2-trt","session":2},{"rune":"K","rune_set":"bacs2","hex":"#f73b6a7A","correct":-1,"choice":-1,"rt":-1,"accuracy":1,"outcome":"-1","keys":[2853.484999999637],"total_keys":1,"block":2,"trial":131,"stimulus":2,"robot":4,"valence":"lose","action":"no-go","sham":0,"trial_type":"pit-trial","trial_index":165,"time_elapsed":886776,"internal_node_id":"0.0-137.0","task_version":"battery-v0.2-trt","session":2},{"rune":"B","rune_set":"bacs2","hex":"#f73b6a7A","correct":32,"choice":32,"rt":749.3599999870639,"accuracy":1,"outcome":"-1","keys":[2254.475000023376],"total_keys":1,"block":2,"trial":132,"stimulus":1,"robot":3,"valence":"lose","action":"go","sham":0,"trial_type":"pit-trial","trial_index":166,"time_elapsed":890234,"internal_node_id":"0.0-138.0","task_version":"battery-v0.2-trt","session":2},{"rune":"V","rune_set":"bacs2","hex":"#3366ff99","correct":-1,"choice":-1,"rt":-1,"accuracy":1,"outcome":"+10","keys":[],"total_keys":0,"block":2,"trial":133,"stimulus":3,"robot":2,"valence":"win","action":"no-go","sham":0,"trial_type":"pit-trial","trial_index":167,"time_elapsed":894238,"internal_node_id":"0.0-139.0","task_version":"battery-v0.2-trt","session":2},{"rune":"B","rune_set":"bacs2","hex":"#f73b6a7A","correct":32,"choice":32,"rt":938.7199999764562,"accuracy":1,"outcome":"-1","keys":[2440.085000009276],"total_keys":1,"block":2,"trial":134,"stimulus":1,"robot":3,"valence":"lose","action":"go","sham":0,"trial_type":"pit-trial","trial_index":168,"time_elapsed":897882,"internal_node_id":"0.0-140.0","task_version":"battery-v0.2-trt","session":2},{"rune":"K","rune_set":"bacs2","hex":"#f73b6a7A","correct":-1,"choice":32,"rt":1219.7200000227895,"accuracy":0,"outcome":"-1","keys":[2724.6499999891967],"total_keys":1,"block":2,"trial":135,"stimulus":2,"robot":4,"valence":"lose","action":"no-go","sham":1,"trial_type":"pit-trial","trial_index":169,"time_elapsed":901810,"internal_node_id":"0.0-141.0","task_version":"battery-v0.2-trt","session":2},{"rune":"M","rune_set":"bacs2","hex":"#3366ff99","correct":32,"choice":32,"rt":1048.000000009779,"accuracy":1,"outcome":"+1","keys":[2548.2349999947473],"total_keys":1,"block":2,"trial":136,"stimulus":0,"robot":1,"valence":"win","action":"go","sham":1,"trial_type":"pit-trial","trial_index":170,"time_elapsed":905561,"internal_node_id":"0.0-142.0","task_version":"battery-v0.2-trt","session":2},{"rune":"M","rune_set":"bacs2","hex":"#3366ff99","correct":32,"choice":-1,"rt":-1,"accuracy":0,"outcome":"+1","keys":[],"total_keys":0,"block":2,"trial":137,"stimulus":0,"robot":1,"valence":"win","action":"go","sham":0,"trial_type":"pit-trial","trial_index":171,"time_elapsed":909565,"internal_node_id":"0.0-143.0","task_version":"battery-v0.2-trt","session":2},{"rune":"K","rune_set":"bacs2","hex":"#f73b6a7A","correct":-1,"choice":32,"rt":788.6900000157766,"accuracy":0,"outcome":"-10","keys":[2289.1749999835156],"total_keys":1,"block":2,"trial":138,"stimulus":2,"robot":4,"valence":"lose","action":"no-go","sham":0,"trial_type":"pit-trial","trial_index":172,"time_elapsed":913058,"internal_node_id":"0.0-144.0","task_version":"battery-v0.2-trt","session":2},{"rune":"B","rune_set":"bacs2","hex":"#f73b6a7A","correct":32,"choice":-1,"rt":-1,"accuracy":0,"outcome":"-10","keys":[],"total_keys":0,"block":2,"trial":139,"stimulus":1,"robot":3,"valence":"lose","action":"go","sham":0,"trial_type":"pit-trial","trial_index":173,"time_elapsed":917063,"internal_node_id":"0.0-145.0","task_version":"battery-v0.2-trt","session":2},{"rune":"V","rune_set":"bacs2","hex":"#3366ff99","correct":-1,"choice":-1,"rt":-1,"accuracy":1,"outcome":"+10","keys":[],"total_keys":0,"block":2,"trial":140,"stimulus":3,"robot":2,"valence":"win","action":"no-go","sham":0,"trial_type":"pit-trial","trial_index":174,"time_elapsed":921066,"internal_node_id":"0.0-146.0","task_version":"battery-v0.2-trt","session":2},{"rune":"K","rune_set":"bacs2","hex":"#f73b6a7A","correct":-1,"choice":32,"rt":694.5950000081211,"accuracy":0,"outcome":"-10","keys":[2196.269999985816],"total_keys":1,"block":2,"trial":141,"stimulus":2,"robot":4,"valence":"lose","action":"no-go","sham":0,"trial_type":"pit-trial","trial_index":175,"time_elapsed":924465,"internal_node_id":"0.0-147.0","task_version":"battery-v0.2-trt","session":2},{"rune":"B","rune_set":"bacs2","hex":"#f73b6a7A","correct":32,"choice":32,"rt":895.6849999958649,"accuracy":1,"outcome":"-10","keys":[2396.869999996852],"total_keys":1,"block":2,"trial":142,"stimulus":1,"robot":3,"valence":"lose","action":"go","sham":1,"trial_type":"pit-trial","trial_index":176,"time_elapsed":928065,"internal_node_id":"0.0-148.0","task_version":"battery-v0.2-trt","session":2},{"rune":"V","rune_set":"bacs2","hex":"#3366ff99","correct":-1,"choice":-1,"rt":-1,"accuracy":1,"outcome":"+1","keys":[],"total_keys":0,"block":2,"trial":143,"stimulus":3,"robot":2,"valence":"win","action":"no-go","sham":1,"trial_type":"pit-trial","trial_index":177,"time_elapsed":932072,"internal_node_id":"0.0-149.0","task_version":"battery-v0.2-trt","session":2},{"rune":"M","rune_set":"bacs2","hex":"#3366ff99","correct":32,"choice":-1,"rt":-1,"accuracy":0,"outcome":"+1","keys":[],"total_keys":0,"block":2,"trial":144,"stimulus":0,"robot":1,"valence":"win","action":"go","sham":0,"trial_type":"pit-trial","trial_index":178,"time_elapsed":936075,"internal_node_id":"0.0-150.0","task_version":"battery-v0.2-trt","session":2},{"rune":"B","rune_set":"bacs2","hex":"#f73b6a7A","correct":32,"choice":32,"rt":1094.1400000010617,"accuracy":1,"outcome":"-1","keys":[2594.6699999913108],"total_keys":1,"block":2,"trial":145,"stimulus":1,"robot":3,"valence":"lose","action":"go","sham":0,"trial_type":"pit-trial","trial_index":179,"time_elapsed":939873,"internal_node_id":"0.0-151.0","task_version":"battery-v0.2-trt","session":2},{"rune":"V","rune_set":"bacs2","hex":"#3366ff99","correct":-1,"choice":-1,"rt":-1,"accuracy":1,"outcome":"+10","keys":[],"total_keys":0,"block":2,"trial":146,"stimulus":3,"robot":2,"valence":"win","action":"no-go","sham":0,"trial_type":"pit-trial","trial_index":180,"time_elapsed":943879,"internal_node_id":"0.0-152.0","task_version":"battery-v0.2-trt","session":2},{"rune":"M","rune_set":"bacs2","hex":"#3366ff99","correct":32,"choice":32,"rt":874.0649999817833,"accuracy":1,"outcome":"+10","keys":[2374.3649999960326],"total_keys":1,"block":2,"trial":147,"stimulus":0,"robot":1,"valence":"win","action":"go","sham":0,"trial_type":"pit-trial","trial_index":181,"time_elapsed":947458,"internal_node_id":"0.0-153.0","task_version":"battery-v0.2-trt","session":2},{"rune":"K","rune_set":"bacs2","hex":"#f73b6a7A","correct":-1,"choice":32,"rt":919.3999999843072,"accuracy":0,"outcome":"-10","keys":[2420.7549999991897],"total_keys":1,"block":2,"trial":148,"stimulus":2,"robot":4,"valence":"lose","action":"no-go","sham":0,"trial_type":"pit-trial","trial_index":182,"time_elapsed":951083,"internal_node_id":"0.0-154.0","task_version":"battery-v0.2-trt","session":2},{"rune":"V","rune_set":"bacs2","hex":"#3366ff99","correct":-1,"choice":-1,"rt":-1,"accuracy":1,"outcome":"+1","keys":[],"total_keys":0,"block":2,"trial":149,"stimulus":3,"robot":2,"valence":"win","action":"no-go","sham":1,"trial_type":"pit-trial","trial_index":183,"time_elapsed":955090,"internal_node_id":"0.0-155.0","task_version":"battery-v0.2-trt","session":2},{"rune":"K","rune_set":"bacs2","hex":"#f73b6a7A","correct":-1,"choice":-1,"rt":-1,"accuracy":1,"outcome":"-10","keys":[],"total_keys":0,"block":2,"trial":150,"stimulus":2,"robot":4,"valence":"lose","action":"no-go","sham":1,"trial_type":"pit-trial","trial_index":184,"time_elapsed":959095,"internal_node_id":"0.0-156.0","task_version":"battery-v0.2-trt","session":2},{"rune":"M","rune_set":"bacs2","hex":"#3366ff99","correct":32,"choice":-1,"rt":-1,"accuracy":0,"outcome":"+10","keys":[],"total_keys":0,"block":2,"trial":151,"stimulus":0,"robot":1,"valence":"win","action":"go","sham":1,"trial_type":"pit-trial","trial_index":185,"time_elapsed":963099,"internal_node_id":"0.0-157.0","task_version":"battery-v0.2-trt","session":2},{"rune":"B","rune_set":"bacs2","hex":"#f73b6a7A","correct":32,"choice":32,"rt":727.7400000020862,"accuracy":1,"outcome":"-1","keys":[2227.954999980284],"total_keys":1,"block":2,"trial":152,"stimulus":1,"robot":3,"valence":"lose","action":"go","sham":0,"trial_type":"pit-trial","trial_index":186,"time_elapsed":966529,"internal_node_id":"0.0-158.0","task_version":"battery-v0.2-trt","session":2},{"rune":"V","rune_set":"bacs2","hex":"#3366ff99","correct":-1,"choice":-1,"rt":-1,"accuracy":1,"outcome":"+10","keys":[],"total_keys":0,"block":2,"trial":153,"stimulus":3,"robot":2,"valence":"win","action":"no-go","sham":0,"trial_type":"pit-trial","trial_index":187,"time_elapsed":970535,"internal_node_id":"0.0-159.0","task_version":"battery-v0.2-trt","session":2},{"rune":"M","rune_set":"bacs2","hex":"#3366ff99","correct":32,"choice":32,"rt":538.7099999934435,"accuracy":1,"outcome":"+10","keys":[2039.7550000052433],"total_keys":1,"block":2,"trial":154,"stimulus":0,"robot":1,"valence":"win","action":"go","sham":0,"trial_type":"pit-trial","trial_index":188,"time_elapsed":973777,"internal_node_id":"0.0-160.0","task_version":"battery-v0.2-trt","session":2},{"rune":"R","rune_set":"bacs2","hex":"#f73b6a7A","correct":-1,"choice":-1,"rt":-1,"accuracy":1,"outcome":"-1","keys":[],"total_keys":0,"block":2,"trial":155,"stimulus":4,"robot":4,"valence":"lose","action":"no-go","sham":0,"trial_type":"pit-trial","trial_index":189,"time_elapsed":977782,"internal_node_id":"0.0-161.0","task_version":"battery-v0.2-trt","session":2},{"rune":"B","rune_set":"bacs2","hex":"#f73b6a7A","correct":32,"choice":-1,"rt":-1,"accuracy":0,"outcome":"-10","keys":[],"total_keys":0,"block":2,"trial":156,"stimulus":1,"robot":3,"valence":"lose","action":"go","sham":0,"trial_type":"pit-trial","trial_index":190,"time_elapsed":981789,"internal_node_id":"0.0-162.0","task_version":"battery-v0.2-trt","session":2},{"rune":"R","rune_set":"bacs2","hex":"#f73b6a7A","correct":-1,"choice":-1,"rt":-1,"accuracy":1,"outcome":"-1","keys":[],"total_keys":0,"block":2,"trial":157,"stimulus":4,"robot":4,"valence":"lose","action":"no-go","sham":0,"trial_type":"pit-trial","trial_index":191,"time_elapsed":985803,"internal_node_id":"0.0-163.0","task_version":"battery-v0.2-trt","session":2},{"rune":"B","rune_set":"bacs2","hex":"#f73b6a7A","correct":32,"choice":32,"rt":509.50499999453314,"accuracy":1,"outcome":"-1","keys":[2011.4750000066124],"total_keys":1,"block":2,"trial":158,"stimulus":1,"robot":3,"valence":"lose","action":"go","sham":0,"trial_type":"pit-trial","trial_index":192,"time_elapsed":989018,"internal_node_id":"0.0-164.0","task_version":"battery-v0.2-trt","session":2},{"rune":"M","rune_set":"bacs2","hex":"#3366ff99","correct":32,"choice":-1,"rt":-1,"accuracy":0,"outcome":"+1","keys":[2843.9800000051036],"total_keys":1,"block":2,"trial":159,"stimulus":0,"robot":1,"valence":"win","action":"go","sham":0,"trial_type":"pit-trial","trial_index":193,"time_elapsed":993027,"internal_node_id":"0.0-165.0","task_version":"battery-v0.2-trt","session":2},{"rune":"V","rune_set":"bacs2","hex":"#3366ff99","correct":-1,"choice":-1,"rt":-1,"accuracy":1,"outcome":"+1","keys":[],"total_keys":0,"block":2,"trial":160,"stimulus":3,"robot":2,"valence":"win","action":"no-go","sham":1,"trial_type":"pit-trial","trial_index":194,"time_elapsed":997032,"internal_node_id":"0.0-166.0","task_version":"battery-v0.2-trt","session":2},{"rune":"V","rune_set":"bacs2","hex":"#3366ff99","correct":-1,"choice":32,"rt":907.1950000070501,"accuracy":0,"outcome":"+10","keys":[2407.404999976279],"total_keys":1,"block":2,"trial":161,"stimulus":3,"robot":2,"valence":"win","action":"no-go","sham":1,"trial_type":"pit-trial","trial_index":195,"time_elapsed":1000642,"internal_node_id":"0.0-167.0","task_version":"battery-v0.2-trt","session":2},{"rune":"R","rune_set":"bacs2","hex":"#f73b6a7A","correct":-1,"choice":32,"rt":910.8699999924283,"accuracy":0,"outcome":"-10","keys":[2411.9449999998324],"total_keys":1,"block":2,"trial":162,"stimulus":4,"robot":4,"valence":"lose","action":"no-go","sham":0,"trial_type":"pit-trial","trial_index":196,"time_elapsed":1004258,"internal_node_id":"0.0-168.0","task_version":"battery-v0.2-trt","session":2},{"rune":"P","rune_set":"bacs2","hex":"#f73b6a7A","correct":32,"choice":-1,"rt":-1,"accuracy":0,"outcome":"-10","keys":[],"total_keys":0,"block":2,"trial":163,"stimulus":5,"robot":3,"valence":"lose","action":"go","sham":0,"trial_type":"pit-trial","trial_index":197,"time_elapsed":1008264,"internal_node_id":"0.0-169.0","task_version":"battery-v0.2-trt","session":2},{"rune":"M","rune_set":"bacs2","hex":"#3366ff99","correct":32,"choice":32,"rt":939.0500000154134,"accuracy":1,"outcome":"+10","keys":[2439.2250000091735],"total_keys":1,"block":2,"trial":164,"stimulus":0,"robot":1,"valence":"win","action":"go","sham":0,"trial_type":"pit-trial","trial_index":198,"time_elapsed":1011906,"internal_node_id":"0.0-170.0","task_version":"battery-v0.2-trt","session":2},{"rune":"R","rune_set":"bacs2","hex":"#f73b6a7A","correct":-1,"choice":-1,"rt":-1,"accuracy":1,"outcome":"-1","keys":[],"total_keys":0,"block":2,"trial":165,"stimulus":4,"robot":4,"valence":"lose","action":"no-go","sham":0,"trial_type":"pit-trial","trial_index":199,"time_elapsed":1015911,"internal_node_id":"0.0-171.0","task_version":"battery-v0.2-trt","session":2},{"rune":"M","rune_set":"bacs2","hex":"#3366ff99","correct":32,"choice":32,"rt":698.7650000082795,"accuracy":1,"outcome":"+1","keys":[2198.9100000064354],"total_keys":1,"block":2,"trial":166,"stimulus":0,"robot":1,"valence":"win","action":"go","sham":1,"trial_type":"pit-trial","trial_index":200,"time_elapsed":1019315,"internal_node_id":"0.0-172.0","task_version":"battery-v0.2-trt","session":2},{"rune":"V","rune_set":"bacs2","hex":"#3366ff99","correct":-1,"choice":32,"rt":478.27500000130385,"accuracy":0,"outcome":"+1","keys":[1978.9849999942817],"total_keys":1,"block":2,"trial":167,"stimulus":3,"robot":2,"valence":"win","action":"no-go","sham":0,"trial_type":"pit-trial","trial_index":201,"time_elapsed":1022498,"internal_node_id":"0.0-173.0","task_version":"battery-v0.2-trt","session":2},{"rune":"P","rune_set":"bacs2","hex":"#f73b6a7A","correct":32,"choice":-1,"rt":-1,"accuracy":0,"outcome":"-10","keys":[],"total_keys":0,"block":2,"trial":168,"stimulus":5,"robot":3,"valence":"lose","action":"go","sham":0,"trial_type":"pit-trial","trial_index":202,"time_elapsed":1026524,"internal_node_id":"0.0-174.0","task_version":"battery-v0.2-trt","session":2},{"rune":"L","rune_set":"bacs2","hex":"#3366ff99","correct":-1,"choice":32,"rt":1089.2900000035297,"accuracy":0,"outcome":"+1","keys":[2590.7049999805167],"total_keys":1,"block":2,"trial":169,"stimulus":6,"robot":2,"valence":"win","action":"no-go","sham":0,"trial_type":"pit-trial","trial_index":203,"time_elapsed":1030318,"internal_node_id":"0.0-175.0","task_version":"battery-v0.2-trt","session":2},{"rune":"S","rune_set":"bacs2","hex":"#3366ff99","correct":-1,"choice":32,"rt":1098.0899999849498,"accuracy":0,"outcome":"+1","keys":[2599.20999998576],"total_keys":1,"block":2,"trial":170,"stimulus":7,"robot":2,"valence":"win","action":"no-go","sham":0,"trial_type":"pit-trial","trial_index":204,"time_elapsed":1034122,"internal_node_id":"0.0-176.0","task_version":"battery-v0.2-trt","session":2},{"rune":"R","rune_set":"bacs2","hex":"#f73b6a7A","correct":-1,"choice":32,"rt":911.614999989979,"accuracy":0,"outcome":"-10","keys":[2412.290000007488],"total_keys":1,"block":2,"trial":171,"stimulus":4,"robot":4,"valence":"lose","action":"no-go","sham":0,"trial_type":"pit-trial","trial_index":205,"time_elapsed":1037737,"internal_node_id":"0.0-177.0","task_version":"battery-v0.2-trt","session":2},{"rune":"P","rune_set":"bacs2","hex":"#f73b6a7A","correct":32,"choice":32,"rt":1010.5250000196975,"accuracy":1,"outcome":"-1","keys":[2511.4749999775086],"total_keys":1,"block":2,"trial":172,"stimulus":5,"robot":3,"valence":"lose","action":"go","sham":0,"trial_type":"pit-trial","trial_index":206,"time_elapsed":1041452,"internal_node_id":"0.0-178.0","task_version":"battery-v0.2-trt","session":2},{"rune":"L","rune_set":"bacs2","hex":"#3366ff99","correct":-1,"choice":32,"rt":1060.7099999906495,"accuracy":0,"outcome":"+1","keys":[2562.5050000089686],"total_keys":1,"block":2,"trial":173,"stimulus":6,"robot":2,"valence":"win","action":"no-go","sham":0,"trial_type":"pit-trial","trial_index":207,"time_elapsed":1045218,"internal_node_id":"0.0-179.0","task_version":"battery-v0.2-trt","session":2},{"rune":"S","rune_set":"bacs2","hex":"#3366ff99","correct":-1,"choice":32,"rt":854.0050000010524,"accuracy":0,"outcome":"+1","keys":[2354.8350000055507],"total_keys":1,"block":2,"trial":174,"stimulus":7,"robot":2,"valence":"win","action":"no-go","sham":0,"trial_type":"pit-trial","trial_index":208,"time_elapsed":1048778,"internal_node_id":"0.0-180.0","task_version":"battery-v0.2-trt","session":2},{"rune":"R","rune_set":"bacs2","hex":"#f73b6a7A","correct":-1,"choice":32,"rt":1151.2999999977183,"accuracy":0,"outcome":"-10","keys":[2652.0199999795295],"total_keys":1,"block":2,"trial":175,"stimulus":4,"robot":4,"valence":"lose","action":"no-go","sham":0,"trial_type":"pit-trial","trial_index":209,"time_elapsed":1052638,"internal_node_id":"0.0-181.0","task_version":"battery-v0.2-trt","session":2},{"rune":"P","rune_set":"bacs2","hex":"#f73b6a7A","correct":32,"choice":32,"rt":711.8599999812432,"accuracy":1,"outcome":"-1","keys":[2215.750000003027],"total_keys":1,"block":2,"trial":176,"stimulus":5,"robot":3,"valence":"lose","action":"go","sham":0,"trial_type":"pit-trial","trial_index":210,"time_elapsed":1056057,"internal_node_id":"0.0-182.0","task_version":"battery-v0.2-trt","session":2},{"rune":"R","rune_set":"bacs2","hex":"#f73b6a7A","correct":-1,"choice":32,"rt":1015.0099999736995,"accuracy":0,"outcome":"-10","keys":[2516.9800000148825],"total_keys":1,"block":2,"trial":177,"stimulus":4,"robot":4,"valence":"lose","action":"no-go","sham":0,"trial_type":"pit-trial","trial_index":211,"time_elapsed":1059778,"internal_node_id":"0.0-183.0","task_version":"battery-v0.2-trt","session":2},{"rune":"L","rune_set":"bacs2","hex":"#3366ff99","correct":-1,"choice":-1,"rt":-1,"accuracy":1,"outcome":"+10","keys":[],"total_keys":0,"block":2,"trial":178,"stimulus":6,"robot":2,"valence":"win","action":"no-go","sham":0,"trial_type":"pit-trial","trial_index":212,"time_elapsed":1063782,"internal_node_id":"0.0-184.0","task_version":"battery-v0.2-trt","session":2},{"rune":"P","rune_set":"bacs2","hex":"#f73b6a7A","correct":32,"choice":32,"rt":707.1900000155438,"accuracy":1,"outcome":"-1","keys":[2208.939999982249],"total_keys":1,"block":2,"trial":179,"stimulus":5,"robot":3,"valence":"lose","action":"go","sham":0,"trial_type":"pit-trial","trial_index":213,"time_elapsed":1067194,"internal_node_id":"0.0-185.0","task_version":"battery-v0.2-trt","session":2},{"rune":"S","rune_set":"bacs2","hex":"#3366ff99","correct":-1,"choice":32,"rt":1014.9599999713246,"accuracy":0,"outcome":"+1","keys":[2516.574999986915],"total_keys":1,"block":2,"trial":180,"stimulus":7,"robot":2,"valence":"win","action":"no-go","sham":0,"trial_type":"pit-trial","trial_index":214,"time_elapsed":1070913,"internal_node_id":"0.0-186.0","task_version":"battery-v0.2-trt","session":2},{"rune":"R","rune_set":"bacs2","hex":"#f73b6a7A","correct":-1,"choice":32,"rt":1112.6649999932852,"accuracy":0,"outcome":"-10","keys":[2613.1600000080653],"total_keys":1,"block":2,"trial":181,"stimulus":4,"robot":4,"valence":"lose","action":"no-go","sham":0,"trial_type":"pit-trial","trial_index":215,"time_elapsed":1074730,"internal_node_id":"0.0-187.0","task_version":"battery-v0.2-trt","session":2},{"rune":"P","rune_set":"bacs2","hex":"#f73b6a7A","correct":32,"choice":-1,"rt":-1,"accuracy":0,"outcome":"-1","keys":[],"total_keys":0,"block":2,"trial":182,"stimulus":5,"robot":3,"valence":"lose","action":"go","sham":1,"trial_type":"pit-trial","trial_index":216,"time_elapsed":1078734,"internal_node_id":"0.0-188.0","task_version":"battery-v0.2-trt","session":2},{"rune":"L","rune_set":"bacs2","hex":"#3366ff99","correct":-1,"choice":-1,"rt":-1,"accuracy":1,"outcome":"+10","keys":[],"total_keys":0,"block":2,"trial":183,"stimulus":6,"robot":2,"valence":"win","action":"no-go","sham":0,"trial_type":"pit-trial","trial_index":217,"time_elapsed":1082739,"internal_node_id":"0.0-189.0","task_version":"battery-v0.2-trt","session":2},{"rune":"S","rune_set":"bacs2","hex":"#3366ff99","correct":-1,"choice":32,"rt":687.7000000094995,"accuracy":0,"outcome":"+1","keys":[2188.159999990603],"total_keys":1,"block":2,"trial":184,"stimulus":7,"robot":2,"valence":"win","action":"no-go","sham":0,"trial_type":"pit-trial","trial_index":218,"time_elapsed":1086130,"internal_node_id":"0.0-190.0","task_version":"battery-v0.2-trt","session":2},{"rune":"L","rune_set":"bacs2","hex":"#3366ff99","correct":-1,"choice":32,"rt":792.6050000241958,"accuracy":0,"outcome":"+10","keys":[2292.860000015935],"total_keys":1,"block":2,"trial":185,"stimulus":6,"robot":2,"valence":"win","action":"no-go","sham":1,"trial_type":"pit-trial","trial_index":219,"time_elapsed":1089626,"internal_node_id":"0.0-191.0","task_version":"battery-v0.2-trt","session":2},{"rune":"R","rune_set":"bacs2","hex":"#f73b6a7A","correct":-1,"choice":-1,"rt":-1,"accuracy":1,"outcome":"-1","keys":[],"total_keys":0,"block":2,"trial":186,"stimulus":4,"robot":4,"valence":"lose","action":"no-go","sham":0,"trial_type":"pit-trial","trial_index":220,"time_elapsed":1093629,"internal_node_id":"0.0-192.0","task_version":"battery-v0.2-trt","session":2},{"rune":"S","rune_set":"bacs2","hex":"#3366ff99","correct":-1,"choice":32,"rt":803.3850000065286,"accuracy":0,"outcome":"+1","keys":[2304.550000000745],"total_keys":1,"block":2,"trial":187,"stimulus":7,"robot":2,"valence":"win","action":"no-go","sham":0,"trial_type":"pit-trial","trial_index":221,"time_elapsed":1097138,"internal_node_id":"0.0-193.0","task_version":"battery-v0.2-trt","session":2},{"rune":"P","rune_set":"bacs2","hex":"#f73b6a7A","correct":32,"choice":32,"rt":888.0950000020675,"accuracy":1,"outcome":"-1","keys":[2388.1899999978486],"total_keys":1,"block":2,"trial":188,"stimulus":5,"robot":3,"valence":"lose","action":"go","sham":0,"trial_type":"pit-trial","trial_index":222,"time_elapsed":1100731,"internal_node_id":"0.0-194.0","task_version":"battery-v0.2-trt","session":2},{"rune":"R","rune_set":"bacs2","hex":"#f73b6a7A","correct":-1,"choice":-1,"rt":-1,"accuracy":1,"outcome":"-1","keys":[],"total_keys":0,"block":2,"trial":189,"stimulus":4,"robot":4,"valence":"lose","action":"no-go","sham":0,"trial_type":"pit-trial","trial_index":223,"time_elapsed":1104737,"internal_node_id":"0.0-195.0","task_version":"battery-v0.2-trt","session":2},{"rune":"P","rune_set":"bacs2","hex":"#f73b6a7A","correct":32,"choice":-1,"rt":-1,"accuracy":0,"outcome":"-10","keys":[],"total_keys":0,"block":2,"trial":190,"stimulus":5,"robot":3,"valence":"lose","action":"go","sham":0,"trial_type":"pit-trial","trial_index":224,"time_elapsed":1108742,"internal_node_id":"0.0-196.0","task_version":"battery-v0.2-trt","session":2},{"rune":"S","rune_set":"bacs2","hex":"#3366ff99","correct":-1,"choice":-1,"rt":-1,"accuracy":1,"outcome":"+10","keys":[],"total_keys":0,"block":2,"trial":191,"stimulus":7,"robot":2,"valence":"win","action":"no-go","sham":0,"trial_type":"pit-trial","trial_index":225,"time_elapsed":1112747,"internal_node_id":"0.0-197.0","task_version":"battery-v0.2-trt","session":2},{"rune":"L","rune_set":"bacs2","hex":"#3366ff99","correct":-1,"choice":-1,"rt":-1,"accuracy":1,"outcome":"+10","keys":[],"total_keys":0,"block":2,"trial":192,"stimulus":6,"robot":2,"valence":"win","action":"no-go","sham":0,"trial_type":"pit-trial","trial_index":226,"time_elapsed":1116751,"internal_node_id":"0.0-198.0","task_version":"battery-v0.2-trt","session":2},{"rune":"P","rune_set":"bacs2","hex":"#f73b6a7A","correct":32,"choice":-1,"rt":-1,"accuracy":0,"outcome":"-10","keys":[],"total_keys":0,"block":2,"trial":193,"stimulus":5,"robot":3,"valence":"lose","action":"go","sham":0,"trial_type":"pit-trial","trial_index":227,"time_elapsed":1120755,"internal_node_id":"0.0-199.0","task_version":"battery-v0.2-trt","session":2},{"rune":"L","rune_set":"bacs2","hex":"#3366ff99","correct":-1,"choice":-1,"rt":-1,"accuracy":1,"outcome":"+10","keys":[],"total_keys":0,"block":2,"trial":194,"stimulus":6,"robot":2,"valence":"win","action":"no-go","sham":0,"trial_type":"pit-trial","trial_index":228,"time_elapsed":1124760,"internal_node_id":"0.0-200.0","task_version":"battery-v0.2-trt","session":2},{"rune":"S","rune_set":"bacs2","hex":"#3366ff99","correct":-1,"choice":-1,"rt":-1,"accuracy":1,"outcome":"+10","keys":[],"total_keys":0,"block":2,"trial":195,"stimulus":7,"robot":2,"valence":"win","action":"no-go","sham":0,"trial_type":"pit-trial","trial_index":229,"time_elapsed":1128791,"internal_node_id":"0.0-201.0","task_version":"battery-v0.2-trt","session":2},{"rune":"R","rune_set":"bacs2","hex":"#f73b6a7A","correct":-1,"choice":-1,"rt":-1,"accuracy":1,"outcome":"-1","keys":[],"total_keys":0,"block":2,"trial":196,"stimulus":4,"robot":4,"valence":"lose","action":"no-go","sham":0,"trial_type":"pit-trial","trial_index":230,"time_elapsed":1132796,"internal_node_id":"0.0-202.0","task_version":"battery-v0.2-trt","session":2},{"rune":"L","rune_set":"bacs2","hex":"#3366ff99","correct":-1,"choice":32,"rt":748.7299999920651,"accuracy":0,"outcome":"+1","keys":[2250.3649999853224],"total_keys":1,"block":2,"trial":197,"stimulus":6,"robot":2,"valence":"win","action":"no-go","sham":0,"trial_type":"pit-trial","trial_index":231,"time_elapsed":1136250,"internal_node_id":"0.0-203.0","task_version":"battery-v0.2-trt","session":2},{"rune":"R","rune_set":"bacs2","hex":"#f73b6a7A","correct":-1,"choice":-1,"rt":-1,"accuracy":1,"outcome":"-1","keys":[],"total_keys":0,"block":2,"trial":198,"stimulus":4,"robot":4,"valence":"lose","action":"no-go","sham":0,"trial_type":"pit-trial","trial_index":232,"time_elapsed":1140255,"internal_node_id":"0.0-204.0","task_version":"battery-v0.2-trt","session":2},{"rune":"S","rune_set":"bacs2","hex":"#3366ff99","correct":-1,"choice":-1,"rt":-1,"accuracy":1,"outcome":"+10","keys":[],"total_keys":0,"block":2,"trial":199,"stimulus":7,"robot":2,"valence":"win","action":"no-go","sham":0,"trial_type":"pit-trial","trial_index":233,"time_elapsed":1144261,"internal_node_id":"0.0-205.0","task_version":"battery-v0.2-trt","session":2},{"rune":"P","rune_set":"bacs2","hex":"#f73b6a7A","correct":32,"choice":32,"rt":844.3950000219047,"accuracy":1,"outcome":"-1","keys":[2345.5400000093505],"total_keys":1,"block":2,"trial":200,"stimulus":5,"robot":3,"valence":"lose","action":"go","sham":0,"trial_type":"pit-trial","trial_index":234,"time_elapsed":1147810,"internal_node_id":"0.0-206.0","task_version":"battery-v0.2-trt","session":2},{"rune":"A","rune_set":"bacs2","hex":"#f73b6a7A","correct":-1,"choice":-1,"rt":-1,"accuracy":1,"outcome":"-1","keys":[2803.7350000231527],"total_keys":1,"block":2,"trial":201,"stimulus":9,"robot":4,"valence":"lose","action":"no-go","sham":0,"trial_type":"pit-trial","trial_index":235,"time_elapsed":1151867,"internal_node_id":"0.0-207.0","task_version":"battery-v0.2-trt","session":2},{"rune":"P","rune_set":"bacs2","hex":"#f73b6a7A","correct":32,"choice":32,"rt":1022.8549999883398,"accuracy":1,"outcome":"-10","keys":[2522.9599999729544],"total_keys":1,"block":2,"trial":202,"stimulus":5,"robot":3,"valence":"lose","action":"go","sham":1,"trial_type":"pit-trial","trial_index":236,"time_elapsed":1155594,"internal_node_id":"0.0-208.0","task_version":"battery-v0.2-trt","session":2},{"rune":"S","rune_set":"bacs2","hex":"#3366ff99","correct":-1,"choice":32,"rt":869.8999999905936,"accuracy":0,"outcome":"+10","keys":[2371.6549999953713],"total_keys":1,"block":2,"trial":203,"stimulus":7,"robot":2,"valence":"win","action":"no-go","sham":1,"trial_type":"pit-trial","trial_index":237,"time_elapsed":1159170,"internal_node_id":"0.0-209.0","task_version":"battery-v0.2-trt","session":2},{"rune":"U","rune_set":"bacs2","hex":"#3366ff99","correct":32,"choice":-1,"rt":-1,"accuracy":0,"outcome":"+1","keys":[],"total_keys":0,"block":2,"trial":204,"stimulus":8,"robot":1,"valence":"win","action":"go","sham":0,"trial_type":"pit-trial","trial_index":238,"time_elapsed":1163175,"internal_node_id":"0.0-210.0","task_version":"battery-v0.2-trt","session":2},{"rune":"P","rune_set":"bacs2","hex":"#f73b6a7A","correct":32,"choice":32,"rt":899.2900000012014,"accuracy":1,"outcome":"-1","keys":[2399.765000009211],"total_keys":1,"block":2,"trial":205,"stimulus":5,"robot":3,"valence":"lose","action":"go","sham":0,"trial_type":"pit-trial","trial_index":239,"time_elapsed":1166784,"internal_node_id":"0.0-211.0","task_version":"battery-v0.2-trt","session":2},{"rune":"A","rune_set":"bacs2","hex":"#f73b6a7A","correct":-1,"choice":32,"rt":760.0400000228547,"accuracy":0,"outcome":"-10","keys":[2261.0700000077486],"total_keys":1,"block":2,"trial":206,"stimulus":9,"robot":4,"valence":"lose","action":"no-go","sham":0,"trial_type":"pit-trial","trial_index":240,"time_elapsed":1170249,"internal_node_id":"0.0-212.0","task_version":"battery-v0.2-trt","session":2},{"rune":"S","rune_set":"bacs2","hex":"#3366ff99","correct":-1,"choice":32,"rt":1001.3549999857787,"accuracy":0,"outcome":"+1","keys":[2501.589999999851],"total_keys":1,"block":2,"trial":207,"stimulus":7,"robot":2,"valence":"win","action":"no-go","sham":0,"trial_type":"pit-trial","trial_index":241,"time_elapsed":1173955,"internal_node_id":"0.0-213.0","task_version":"battery-v0.2-trt","session":2},{"rune":"U","rune_set":"bacs2","hex":"#3366ff99","correct":32,"choice":-1,"rt":-1,"accuracy":0,"outcome":"+1","keys":[],"total_keys":0,"block":2,"trial":208,"stimulus":8,"robot":1,"valence":"win","action":"go","sham":0,"trial_type":"pit-trial","trial_index":242,"time_elapsed":1177959,"internal_node_id":"0.0-214.0","task_version":"battery-v0.2-trt","session":2},{"rune":"N","rune_set":"bacs2","hex":"#3366ff99","correct":32,"choice":32,"rt":802.014999993844,"accuracy":1,"outcome":"+10","keys":[2303.245000017341],"total_keys":1,"block":2,"trial":209,"stimulus":11,"robot":1,"valence":"win","action":"go","sham":0,"trial_type":"pit-trial","trial_index":243,"time_elapsed":1181466,"internal_node_id":"0.0-215.0","task_version":"battery-v0.2-trt","session":2},{"rune":"F","rune_set":"bacs2","hex":"#f73b6a7A","correct":32,"choice":32,"rt":1080.035000020871,"accuracy":1,"outcome":"-1","keys":[2581.8450000078883],"total_keys":1,"block":2,"trial":210,"stimulus":10,"robot":3,"valence":"lose","action":"go","sham":0,"trial_type":"pit-trial","trial_index":244,"time_elapsed":1185250,"internal_node_id":"0.0-216.0","task_version":"battery-v0.2-trt","session":2},{"rune":"U","rune_set":"bacs2","hex":"#3366ff99","correct":32,"choice":32,"rt":1255.4149999923538,"accuracy":1,"outcome":"+10","keys":[2756.3849999860395],"total_keys":1,"block":2,"trial":211,"stimulus":8,"robot":1,"valence":"win","action":"go","sham":0,"trial_type":"pit-trial","trial_index":245,"time_elapsed":1189210,"internal_node_id":"0.0-217.0","task_version":"battery-v0.2-trt","session":2},{"rune":"A","rune_set":"bacs2","hex":"#f73b6a7A","correct":-1,"choice":32,"rt":1119.8199999926146,"accuracy":0,"outcome":"-10","keys":[2620.425000000978],"total_keys":1,"block":2,"trial":212,"stimulus":9,"robot":4,"valence":"lose","action":"no-go","sham":0,"trial_type":"pit-trial","trial_index":246,"time_elapsed":1193034,"internal_node_id":"0.0-218.0","task_version":"battery-v0.2-trt","session":2},{"rune":"A","rune_set":"bacs2","hex":"#f73b6a7A","correct":-1,"choice":-1,"rt":-1,"accuracy":1,"outcome":"-1","keys":[3268.775000004098],"total_keys":1,"block":2,"trial":213,"stimulus":9,"robot":4,"valence":"lose","action":"no-go","sham":0,"trial_type":"pit-trial","trial_index":247,"time_elapsed":1197039,"internal_node_id":"0.0-219.0","task_version":"battery-v0.2-trt","session":2},{"rune":"U","rune_set":"bacs2","hex":"#3366ff99","correct":32,"choice":32,"rt":1066.835000005085,"accuracy":1,"outcome":"+10","keys":[2567.2900000063237],"total_keys":1,"block":2,"trial":214,"stimulus":8,"robot":1,"valence":"win","action":"go","sham":0,"trial_type":"pit-trial","trial_index":248,"time_elapsed":1200809,"internal_node_id":"0.0-220.0","task_version":"battery-v0.2-trt","session":2},{"rune":"N","rune_set":"bacs2","hex":"#3366ff99","correct":32,"choice":32,"rt":881.0999999986961,"accuracy":1,"outcome":"+10","keys":[2381.4300000085495],"total_keys":1,"block":2,"trial":215,"stimulus":11,"robot":1,"valence":"win","action":"go","sham":0,"trial_type":"pit-trial","trial_index":249,"time_elapsed":1204394,"internal_node_id":"0.0-221.0","task_version":"battery-v0.2-trt","session":2},{"rune":"F","rune_set":"bacs2","hex":"#f73b6a7A","correct":32,"choice":32,"rt":759.955000015907,"accuracy":1,"outcome":"-1","keys":[2260.214999987511],"total_keys":1,"block":2,"trial":216,"stimulus":10,"robot":3,"valence":"lose","action":"go","sham":0,"trial_type":"pit-trial","trial_index":250,"time_elapsed":1207857,"internal_node_id":"0.0-222.0","task_version":"battery-v0.2-trt","session":2},{"rune":"U","rune_set":"bacs2","hex":"#3366ff99","correct":32,"choice":-1,"rt":-1,"accuracy":0,"outcome":"+1","keys":[],"total_keys":0,"block":2,"trial":217,"stimulus":8,"robot":1,"valence":"win","action":"go","sham":0,"trial_type":"pit-trial","trial_index":251,"time_elapsed":1211861,"internal_node_id":"0.0-223.0","task_version":"battery-v0.2-trt","session":2},{"rune":"A","rune_set":"bacs2","hex":"#f73b6a7A","correct":-1,"choice":32,"rt":683.5699999937788,"accuracy":0,"outcome":"-10","keys":[2185.3699999919627],"total_keys":1,"block":2,"trial":218,"stimulus":9,"robot":4,"valence":"lose","action":"no-go","sham":0,"trial_type":"pit-trial","trial_index":252,"time_elapsed":1215250,"internal_node_id":"0.0-224.0","task_version":"battery-v0.2-trt","session":2},{"rune":"N","rune_set":"bacs2","hex":"#3366ff99","correct":32,"choice":32,"rt":903.5149999835994,"accuracy":1,"outcome":"+10","keys":[2404.420000006212],"total_keys":1,"block":2,"trial":219,"stimulus":11,"robot":1,"valence":"win","action":"go","sham":0,"trial_type":"pit-trial","trial_index":253,"time_elapsed":1218857,"internal_node_id":"0.0-225.0","task_version":"battery-v0.2-trt","session":2},{"rune":"F","rune_set":"bacs2","hex":"#f73b6a7A","correct":32,"choice":32,"rt":761.2800000060815,"accuracy":1,"outcome":"-1","keys":[2261.499999993248],"total_keys":1,"block":2,"trial":220,"stimulus":10,"robot":3,"valence":"lose","action":"go","sham":0,"trial_type":"pit-trial","trial_index":254,"time_elapsed":1222321,"internal_node_id":"0.0-226.0","task_version":"battery-v0.2-trt","session":2},{"rune":"N","rune_set":"bacs2","hex":"#3366ff99","correct":32,"choice":-1,"rt":-1,"accuracy":0,"outcome":"+1","keys":[],"total_keys":0,"block":2,"trial":221,"stimulus":11,"robot":1,"valence":"win","action":"go","sham":0,"trial_type":"pit-trial","trial_index":255,"time_elapsed":1226326,"internal_node_id":"0.0-227.0","task_version":"battery-v0.2-trt","session":2},{"rune":"F","rune_set":"bacs2","hex":"#f73b6a7A","correct":32,"choice":-1,"rt":-1,"accuracy":0,"outcome":"-10","keys":[],"total_keys":0,"block":2,"trial":222,"stimulus":10,"robot":3,"valence":"lose","action":"go","sham":0,"trial_type":"pit-trial","trial_index":256,"time_elapsed":1230335,"internal_node_id":"0.0-228.0","task_version":"battery-v0.2-trt","session":2},{"rune":"U","rune_set":"bacs2","hex":"#3366ff99","correct":32,"choice":32,"rt":595.7900000212248,"accuracy":1,"outcome":"+10","keys":[2096.669999998994],"total_keys":1,"block":2,"trial":223,"stimulus":8,"robot":1,"valence":"win","action":"go","sham":0,"trial_type":"pit-trial","trial_index":257,"time_elapsed":1233634,"internal_node_id":"0.0-229.0","task_version":"battery-v0.2-trt","session":2},{"rune":"A","rune_set":"bacs2","hex":"#f73b6a7A","correct":-1,"choice":32,"rt":552.350000012666,"accuracy":0,"outcome":"-10","keys":[2052.8700000140816],"total_keys":1,"block":2,"trial":224,"stimulus":9,"robot":4,"valence":"lose","action":"no-go","sham":0,"trial_type":"pit-trial","trial_index":258,"time_elapsed":1236890,"internal_node_id":"0.0-230.0","task_version":"battery-v0.2-trt","session":2},{"rune":"A","rune_set":"bacs2","hex":"#f73b6a7A","correct":-1,"choice":32,"rt":846.8249999859836,"accuracy":0,"outcome":"-10","keys":[2348.389999999199],"total_keys":1,"block":2,"trial":225,"stimulus":9,"robot":4,"valence":"lose","action":"no-go","sham":0,"trial_type":"pit-trial","trial_index":259,"time_elapsed":1240441,"internal_node_id":"0.0-231.0","task_version":"battery-v0.2-trt","session":2},{"rune":"F","rune_set":"bacs2","hex":"#f73b6a7A","correct":32,"choice":32,"rt":673.7950000097044,"accuracy":1,"outcome":"-1","keys":[2173.9250000100583],"total_keys":1,"block":2,"trial":226,"stimulus":10,"robot":3,"valence":"lose","action":"go","sham":0,"trial_type":"pit-trial","trial_index":260,"time_elapsed":1243823,"internal_node_id":"0.0-232.0","task_version":"battery-v0.2-trt","session":2},{"rune":"N","rune_set":"bacs2","hex":"#3366ff99","correct":32,"choice":-1,"rt":-1,"accuracy":0,"outcome":"+1","keys":[],"total_keys":0,"block":2,"trial":227,"stimulus":11,"robot":1,"valence":"win","action":"go","sham":0,"trial_type":"pit-trial","trial_index":261,"time_elapsed":1247827,"internal_node_id":"0.0-233.0","task_version":"battery-v0.2-trt","session":2},{"rune":"U","rune_set":"bacs2","hex":"#3366ff99","correct":32,"choice":32,"rt":623.0899999791291,"accuracy":1,"outcome":"+1","keys":[2123.9049999858253],"total_keys":1,"block":2,"trial":228,"stimulus":8,"robot":1,"valence":"win","action":"go","sham":1,"trial_type":"pit-trial","trial_index":262,"time_elapsed":1251155,"internal_node_id":"0.0-234.0","task_version":"battery-v0.2-trt","session":2},{"rune":"A","rune_set":"bacs2","hex":"#f73b6a7A","correct":-1,"choice":32,"rt":852.294999989681,"accuracy":0,"outcome":"-10","keys":[2354.6799999894574],"total_keys":1,"block":2,"trial":229,"stimulus":9,"robot":4,"valence":"lose","action":"no-go","sham":0,"trial_type":"pit-trial","trial_index":263,"time_elapsed":1254715,"internal_node_id":"0.0-235.0","task_version":"battery-v0.2-trt","session":2},{"rune":"N","rune_set":"bacs2","hex":"#3366ff99","correct":32,"choice":32,"rt":941.