[{"view_history":"[{\"page_index\":0,\"viewing_time\":2482.0100001525134}]","rt":2482.3750001378357,"trial_type":"instructions","trial_index":0,"time_elapsed":2505,"internal_node_id":"0.0-0.0","task_version":"battery-v0.2-trt","session":2},{"slider_type":"valence","raw_loc":513,"loc":0.526,"trial_type":"affective-slider","trial_index":1,"time_elapsed":7965,"internal_node_id":"0.0-1.0","task_version":"battery-v0.2-trt","session":2},{"responses":{"Q07":"1","Q01":"1","Q08":"0","Q05":"0","Q04":"1","Q03":"2","Q02":"1","Q06":"1"},"rt":49813.18000005558,"item_order":[6,0,7,4,3,2,1,5],"radio_events":[3571.62500009872,4599.655000027269,39500.62000006437,41045.09999998845,42124.21000003815,43404.59499997087,43835.230000084266,44855.6099999696,46445.03500009887,48937.60500010103],"key_events":[],"mouse_events":[2593.415000010282,2977.435000007972,3571.62500009872,4165.805000113323,4599.655000027269,38845.094999996945,39500.62000006437,40529.310000129044,41045.09999998845,42124.21000003815,43404.59499997087,43835.230000084266,44855.6099999696,46445.03500009887,47361.735000042245,48937.60500010103,49810.21500006318],"straightlining":0.625,"zigzagging":0.5714285714285714,"survey":"gad7","trial_type":"survey-template","trial_index":2,"time_elapsed":57791,"internal_node_id":"0.0-2.0","task_version":"battery-v0.2-trt","session":2,"infrequency":0},{"responses":{"Q02":"1","Q05":"2","Q04":"1","Q08":"0","Q06":"1","Q07":"0","Q03":"1","Q01":"0"},"rt":55387.81500002369,"item_order":[1,4,3,7,5,6,2,0],"radio_events":[14705.465000122786,16410.894999979064,20126.875000074506,21215.070000151172,24512.09000009112,27173.24999999255,30768.24999996461,36500.475000124425,51821.33499998599,54489.74500014447],"key_events":[],"mouse_events":[14705.465000122786,15900.3200000152,16410.894999979064,19293.08500001207,20126.875000074506,21215.070000151172,23662.83500008285,24512.09000009112,27173.24999999255,30358.90999995172,30768.24999996461,36500.475000124425,51821.33499998599,54073.84500000626,54489.74500014447,55386.3550000824],"straightlining":0.5,"zigzagging":1,"survey":"dass_d","trial_type":"survey-template","trial_index":3,"time_elapsed":113184,"internal_node_id":"0.0-3.0","task_version":"battery-v0.2-trt","session":2,"infrequency":1},{"view_history":"[{\"page_index\":0,\"viewing_time\":93832.88500015624},{\"page_index\":1,\"viewing_time\":1411.6199999116361},{\"page_index\":2,\"viewing_time\":1497.6250000763685},{\"page_index\":3,\"viewing_time\":2674.284999957308},{\"page_index\":4,\"viewing_time\":3127.5750000495464},{\"page_index\":5,\"viewing_time\":1482.9299999400973},{\"page_index\":6,\"viewing_time\":1456.7950000055134},{\"page_index\":7,\"viewing_time\":2528.764999937266},{\"page_index\":8,\"viewing_time\":3333.2700000610203},{\"page_index\":9,\"viewing_time\":1286.189999897033}]","rt":112632.56500009447,"trial_type":"pit-instructions","trial_index":4,"time_elapsed":225820,"internal_node_id":"0.0-4.0-0.0","task_version":"battery-v0.2-trt","session":2},{"rune":"1","rune_set":"elianto","hex":"#3366ff99","correct":32,"choice":-1,"rt":-1,"accuracy":0,"outcome":"+1","keys":[1434.499999973923],"total_keys":1,"block":0,"practice":1,"trial_type":"pit-trial","trial_index":5,"time_elapsed":229825,"internal_node_id":"0.0-4.0-1.0-0.0","task_version":"battery-v0.2-trt","session":2},{"rune":"1","rune_set":"elianto","hex":"#3366ff99","correct":32,"choice":32,"rt":501.6549997963011,"accuracy":1,"outcome":"+10","keys":[2002.4149999953806],"total_keys":1,"block":0,"practice":1,"trial_type":"pit-trial","trial_index":6,"time_elapsed":233033,"internal_node_id":"0.0-4.0-1.1-0.1","task_version":"battery-v0.2-trt","session":2},{"rune":"1","rune_set":"elianto","hex":"#3366ff99","correct":32,"choice":32,"rt":556.1100000049919,"accuracy":1,"outcome":"+10","keys":[2056.0749999713153],"total_keys":1,"block":0,"practice":1,"trial_type":"pit-trial","trial_index":7,"time_elapsed":236297,"internal_node_id":"0.0-4.0-1.2-0.2","task_version":"battery-v0.2-trt","session":2},{"rune":"1","rune_set":"elianto","hex":"#3366ff99","correct":32,"choice":32,"rt":317.235000198707,"accuracy":1,"outcome":"+10","keys":[1818.1150001473725],"total_keys":1,"block":0,"practice":1,"trial_type":"pit-trial","trial_index":8,"time_elapsed":239323,"internal_node_id":"0.0-4.0-1.3-0.3","task_version":"battery-v0.2-trt","session":2},{"trial_type":"call-function","trial_index":9,"time_elapsed":239327,"internal_node_id":"0.0-4.0-2.0","task_version":"battery-v0.2-trt","session":2},{"view_history":"[{\"page_index\":0,\"viewing_time\":1321.6649999376386},{\"page_index\":1,\"viewing_time\":946.629999903962}]","rt":2269.3250000011176,"trial_type":"pit-instructions","trial_index":10,"time_elapsed":241597,"internal_node_id":"0.0-4.0-3.0","task_version":"battery-v0.2-trt","session":2},{"rune":"2","rune_set":"elianto","hex":"#3366ff99","correct":-1,"choice":-1,"rt":-1,"accuracy":1,"outcome":"+10","keys":[],"total_keys":0,"block":0,"practice":2,"trial_type":"pit-trial","trial_index":11,"time_elapsed":245603,"internal_node_id":"0.0-4.0-4.0-0.0","task_version":"battery-v0.2-trt","session":2},{"rune":"2","rune_set":"elianto","hex":"#3366ff99","correct":-1,"choice":-1,"rt":-1,"accuracy":1,"outcome":"+10","keys":[],"total_keys":0,"block":0,"practice":2,"trial_type":"pit-trial","trial_index":12,"time_elapsed":249607,"internal_node_id":"0.0-4.0-4.1-0.1","task_version":"battery-v0.2-trt","session":2},{"rune":"2","rune_set":"elianto","hex":"#3366ff99","correct":-1,"choice":-1,"rt":-1,"accuracy":1,"outcome":"+10","keys":[],"total_keys":0,"block":0,"practice":2,"trial_type":"pit-trial","trial_index":13,"time_elapsed":253613,"internal_node_id":"0.0-4.0-4.2-0.2","task_version":"battery-v0.2-trt","session":2},{"rune":"2","rune_set":"elianto","hex":"#3366ff99","correct":-1,"choice":-1,"rt":-1,"accuracy":1,"outcome":"+10","keys":[],"total_keys":0,"block":0,"practice":2,"trial_type":"pit-trial","trial_index":14,"time_elapsed":257620,"internal_node_id":"0.0-4.0-4.3-0.3","task_version":"battery-v0.2-trt","session":2},{"trial_type":"call-function","trial_index":15,"time_elapsed":257623,"internal_node_id":"0.0-4.0-5.0","task_version":"battery-v0.2-trt","session":2},{"view_history":"[{\"page_index\":0,\"viewing_time\":10177.184999920428},{\"page_index\":1,\"viewing_time\":3803.5899999085814}]","rt":13981.224999995902,"trial_type":"pit-instructions","trial_index":16,"time_elapsed":271605,"internal_node_id":"0.0-4.0-6.0","task_version":"battery-v0.2-trt","session":2},{"rune":"3","rune_set":"elianto","hex":"#f73b6a7A","correct":-1,"choice":32,"rt":444.9599999934435,"accuracy":0,"outcome":"-10","keys":[1945.5550001002848],"total_keys":1,"block":0,"practice":3,"trial_type":"pit-trial","trial_index":17,"time_elapsed":274755,"internal_node_id":"0.0-4.0-7.0-0.0","task_version":"battery-v0.2-trt","session":2},{"rune":"3","rune_set":"elianto","hex":"#f73b6a7A","correct":-1,"choice":-1,"rt":-1,"accuracy":1,"outcome":"-1","keys":[],"total_keys":0,"block":0,"practice":3,"trial_type":"pit-trial","trial_index":18,"time_elapsed":278770,"internal_node_id":"0.0-4.0-7.1-0.1","task_version":"battery-v0.2-trt","session":2},{"rune":"3","rune_set":"elianto","hex":"#f73b6a7A","correct":-1,"choice":-1,"rt":-1,"accuracy":1,"outcome":"-1","keys":[],"total_keys":0,"block":0,"practice":3,"trial_type":"pit-trial","trial_index":19,"time_elapsed":282775,"internal_node_id":"0.0-4.0-7.2-0.2","task_version":"battery-v0.2-trt","session":2},{"rune":"3","rune_set":"elianto","hex":"#f73b6a7A","correct":-1,"choice":-1,"rt":-1,"accuracy":1,"outcome":"-1","keys":[],"total_keys":0,"block":0,"practice":3,"trial_type":"pit-trial","trial_index":20,"time_elapsed":286781,"internal_node_id":"0.0-4.0-7.3-0.3","task_version":"battery-v0.2-trt","session":2},{"trial_type":"call-function","trial_index":21,"time_elapsed":286785,"internal_node_id":"0.0-4.0-8.0","task_version":"battery-v0.2-trt","session":2},{"view_history":"[{\"page_index\":0,\"viewing_time\":4857.91499982588},{\"page_index\":1,\"viewing_time\":1148.920000065118}]","rt":6007.469999836758,"trial_type":"pit-instructions","trial_index":22,"time_elapsed":292794,"internal_node_id":"0.0-4.0-9.0","task_version":"battery-v0.2-trt","session":2},{"rune":"4","rune_set":"elianto","hex":"#f73b6a7A","correct":32,"choice":32,"rt":631.1499997973442,"accuracy":1,"outcome":"-1","keys":[1295.0500000733882,2132.3049999773502],"total_keys":2,"block":0,"practice":4,"trial_type":"pit-trial","trial_index":23,"time_elapsed":296131,"internal_node_id":"0.0-4.0-10.0-0.0","task_version":"battery-v0.2-trt","session":2},{"rune":"4","rune_set":"elianto","hex":"#f73b6a7A","correct":32,"choice":32,"rt":385.07999991998076,"accuracy":1,"outcome":"-1","keys":[1885.3450000751764],"total_keys":1,"block":0,"practice":4,"trial_type":"pit-trial","trial_index":24,"time_elapsed":299224,"internal_node_id":"0.0-4.0-10.1-0.1","task_version":"battery-v0.2-trt","session":2},{"rune":"4","rune_set":"elianto","hex":"#f73b6a7A","correct":32,"choice":32,"rt":502.17499979771674,"accuracy":1,"outcome":"-1","keys":[2003.8550000172108],"total_keys":1,"block":0,"practice":4,"trial_type":"pit-trial","trial_index":25,"time_elapsed":302435,"internal_node_id":"0.0-4.0-10.2-0.2","task_version":"battery-v0.2-trt","session":2},{"rune":"4","rune_set":"elianto","hex":"#f73b6a7A","correct":32,"choice":32,"rt":210.92500002123415,"accuracy":1,"outcome":"-1","keys":[1712.8049999009818],"total_keys":1,"block":0,"practice":4,"trial_type":"pit-trial","trial_index":26,"time_elapsed":305355,"internal_node_id":"0.0-4.0-10.3-0.3","task_version":"battery-v0.2-trt","session":2},{"trial_type":"call-function","trial_index":27,"time_elapsed":305356,"internal_node_id":"0.0-4.0-11.0","task_version":"battery-v0.2-trt","session":2},{"view_history":"[{\"page_index\":0,\"viewing_time\":4471.56500001438},{\"page_index\":1,\"viewing_time\":4296.9300001859665},{\"page_index\":2,\"viewing_time\":64388.93499993719},{\"page_index\":3,\"viewing_time\":2482.9499998595566},{\"page_index\":4,\"viewing_time\":3874.375000130385},{\"page_index\":5,\"viewing_time\":1117.5649999640882}]","rt":80633.03500018083,"trial_type":"pit-instructions","trial_index":28,"time_elapsed":385990,"internal_node_id":"0.0-4.0-12.0","task_version":"battery-v0.2-trt","session":2},{"responses":["Press SPACE","+10","-1","True","True"],"num_errors":0,"rt":26464.079999830574,"trial_type":"pit-comprehension","trial_index":29,"time_elapsed":412457,"internal_node_id":"0.0-4.0-13.0","task_version":"battery-v0.2-trt","session":2},{"view_history":"[{\"page_index\":0,\"viewing_time\":12978.270000079647},{\"page_index\":1,\"viewing_time\":1629.8899999819696}]","rt":14609.764999942854,"trial_type":"pit-instructions","trial_index":30,"time_elapsed":427069,"internal_node_id":"0.0-5.0","task_version":"battery-v0.2-trt","session":2},{"rune":"H","rune_set":"bacs2","hex":"#3366ff99","correct":32,"choice":32,"rt":668.9100000075996,"accuracy":1,"outcome":"+10","keys":[2170.2999998815358],"total_keys":1,"block":1,"trial":1,"stimulus":3,"robot":1,"valence":"win","action":"go","sham":0,"trial_type":"pit-trial","trial_index":31,"time_elapsed":430453,"internal_node_id":"0.0-6.0","task_version":"battery-v0.2-trt","session":2},{"rune":"T","rune_set":"bacs2","hex":"#f73b6a7A","correct":32,"choice":-1,"rt":-1,"accuracy":0,"outcome":"-1","keys":[],"total_keys":0,"block":1,"trial":2,"stimulus":1,"robot":3,"valence":"lose","action":"go","sham":1,"trial_type":"pit-trial","trial_index":32,"time_elapsed":434457,"internal_node_id":"0.0-7.0","task_version":"battery-v0.2-trt","session":2},{"rune":"Q","rune_set":"bacs2","hex":"#f73b6a7A","correct":32,"choice":-1,"rt":-1,"accuracy":0,"outcome":"-10","keys":[],"total_keys":0,"block":1,"trial":3,"stimulus":2,"robot":3,"valence":"lose","action":"go","sham":0,"trial_type":"pit-trial","trial_index":33,"time_elapsed":438460,"internal_node_id":"0.0-8.0","task_version":"battery-v0.2-trt","session":2},{"rune":"Y","rune_set":"bacs2","hex":"#f73b6a7A","correct":-1,"choice":-1,"rt":-1,"accuracy":1,"outcome":"-1","keys":[],"total_keys":0,"block":1,"trial":4,"stimulus":0,"robot":4,"valence":"lose","action":"no-go","sham":0,"trial_type":"pit-trial","trial_index":34,"time_elapsed":442464,"internal_node_id":"0.0-9.0","task_version":"battery-v0.2-trt","session":2},{"rune":"T","rune_set":"bacs2","hex":"#f73b6a7A","correct":32,"choice":32,"rt":664.6050000563264,"accuracy":1,"outcome":"-1","keys":[2166.064999997616],"total_keys":1,"block":1,"trial":5,"stimulus":1,"robot":3,"valence":"lose","action":"go","sham":0,"trial_type":"pit-trial","trial_index":35,"time_elapsed":445833,"internal_node_id":"0.0-10.0","task_version":"battery-v0.2-trt","session":2},{"rune":"Q","rune_set":"bacs2","hex":"#f73b6a7A","correct":32,"choice":-1,"rt":-1,"accuracy":0,"outcome":"-10","keys":[2833.060000091791],"total_keys":1,"block":1,"trial":6,"stimulus":2,"robot":3,"valence":"lose","action":"go","sham":0,"trial_type":"pit-trial","trial_index":36,"time_elapsed":449838,"internal_node_id":"0.0-11.0","task_version":"battery-v0.2-trt","session":2},{"rune":"H","rune_set":"bacs2","hex":"#3366ff99","correct":32,"choice":32,"rt":555.7350001763552,"accuracy":1,"outcome":"+10","keys":[2056.7850000225008],"total_keys":1,"block":1,"trial":7,"stimulus":3,"robot":1,"valence":"win","action":"go","sham":0,"trial_type":"pit-trial","trial_index":37,"time_elapsed":453101,"internal_node_id":"0.0-12.0","task_version":"battery-v0.2-trt","session":2},{"rune":"Y","rune_set":"bacs2","hex":"#f73b6a7A","correct":-1,"choice":-1,"rt":-1,"accuracy":1,"outcome":"-1","keys":[],"total_keys":0,"block":1,"trial":8,"stimulus":0,"robot":4,"valence":"lose","action":"no-go","sham":0,"trial_type":"pit-trial","trial_index":38,"time_elapsed":457107,"internal_node_id":"0.0-13.0","task_version":"battery-v0.2-trt","session":2},{"rune":"T","rune_set":"bacs2","hex":"#f73b6a7A","correct":32,"choice":-1,"rt":-1,"accuracy":0,"outcome":"-10","keys":[],"total_keys":0,"block":1,"trial":9,"stimulus":1,"robot":3,"valence":"lose","action":"go","sham":0,"trial_type":"pit-trial","trial_index":39,"time_elapsed":461115,"internal_node_id":"0.0-14.0","task_version":"battery-v0.2-trt","session":2},{"rune":"H","rune_set":"bacs2","hex":"#3366ff99","correct":32,"choice":32,"rt":603.5700000356883,"accuracy":1,"outcome":"+10","keys":[2104.9699999857694],"total_keys":1,"block":1,"trial":10,"stimulus":3,"robot":1,"valence":"win","action":"go","sham":0,"trial_type":"pit-trial","trial_index":40,"time_elapsed":464427,"internal_node_id":"0.0-15.0","task_version":"battery-v0.2-trt","session":2},{"rune":"Q","rune_set":"bacs2","hex":"#f73b6a7A","correct":32,"choice":32,"rt":651.2249999213964,"accuracy":1,"outcome":"-1","keys":[2152.8849999886006],"total_keys":1,"block":1,"trial":11,"stimulus":2,"robot":3,"valence":"lose","action":"go","sham":0,"trial_type":"pit-trial","trial_index":41,"time_elapsed":467786,"internal_node_id":"0.0-16.0","task_version":"battery-v0.2-trt","session":2},{"rune":"Y","rune_set":"bacs2","hex":"#f73b6a7A","correct":-1,"choice":32,"rt":763.319999910891,"accuracy":0,"outcome":"-10","keys":[2263.9649999327958],"total_keys":1,"block":1,"trial":12,"stimulus":0,"robot":4,"valence":"lose","action":"no-go","sham":0,"trial_type":"pit-trial","trial_index":42,"time_elapsed":471255,"internal_node_id":"0.0-17.0","task_version":"battery-v0.2-trt","session":2},{"rune":"H","rune_set":"bacs2","hex":"#3366ff99","correct":32,"choice":32,"rt":659.5400001388043,"accuracy":1,"outcome":"+1","keys":[2159.6649999264628],"total_keys":1,"block":1,"trial":13,"stimulus":3,"robot":1,"valence":"win","action":"go","sham":1,"trial_type":"pit-trial","trial_index":43,"time_elapsed":474619,"internal_node_id":"0.0-18.0","task_version":"battery-v0.2-trt","session":2},{"rune":"Q","rune_set":"bacs2","hex":"#f73b6a7A","correct":32,"choice":32,"rt":511.2449999433011,"accuracy":1,"outcome":"-1","keys":[2011.8599999696016],"total_keys":1,"block":1,"trial":14,"stimulus":2,"robot":3,"valence":"lose","action":"go","sham":0,"trial_type":"pit-trial","trial_index":44,"time_elapsed":477841,"internal_node_id":"0.0-19.0","task_version":"battery-v0.2-trt","session":2},{"rune":"T","rune_set":"bacs2","hex":"#f73b6a7A","correct":32,"choice":32,"rt":333.60500005073845,"accuracy":1,"outcome":"-1","keys":[1833.9850001502782],"total_keys":1,"block":1,"trial":15,"stimulus":1,"robot":3,"valence":"lose","action":"go","sham":0,"trial_type":"pit-trial","trial_index":45,"time_elapsed":480883,"internal_node_id":"0.0-20.0","task_version":"battery-v0.2-trt","session":2},{"rune":"Y","rune_set":"bacs2","hex":"#f73b6a7A","correct":-1,"choice":32,"rt":320.6050000153482,"accuracy":0,"outcome":"-1","keys":[1291.2350001279265,1820.7300000358373],"total_keys":2,"block":1,"trial":16,"stimulus":0,"robot":4,"valence":"lose","action":"no-go","sham":1,"trial_type":"pit-trial","trial_index":46,"time_elapsed":483912,"internal_node_id":"0.0-21.0","task_version":"battery-v0.2-trt","session":2},{"rune":"H","rune_set":"bacs2","hex":"#3366ff99","correct":32,"choice":32,"rt":116.51000007987022,"accuracy":1,"outcome":"+1","keys":[1616.9500001706183],"total_keys":1,"block":1,"trial":17,"stimulus":3,"robot":1,"valence":"win","action":"go","sham":1,"trial_type":"pit-trial","trial_index":47,"time_elapsed":486736,"internal_node_id":"0.0-22.0","task_version":"battery-v0.2-trt","session":2},{"rune":"Y","rune_set":"bacs2","hex":"#f73b6a7A","correct":-1,"choice":32,"rt":347.0050001051277,"accuracy":0,"outcome":"-10","keys":[1848.289999878034],"total_keys":1,"block":1,"trial":18,"stimulus":0,"robot":4,"valence":"lose","action":"no-go","sham":0,"trial_type":"pit-trial","trial_index":48,"time_elapsed":489793,"internal_node_id":"0.0-23.0","task_version":"battery-v0.2-trt","session":2},{"rune":"T","rune_set":"bacs2","hex":"#f73b6a7A","correct":32,"choice":32,"rt":118.4600000269711,"accuracy":1,"outcome":"-1","keys":[1618.4900000225753],"total_keys":1,"block":1,"trial":19,"stimulus":1,"robot":3,"valence":"lose","action":"go","sham":0,"trial_type":"pit-trial","trial_index":49,"time_elapsed":492619,"internal_node_id":"0.0-24.0","task_version":"battery-v0.2-trt","session":2},{"rune":"Q","rune_set":"bacs2","hex":"#f73b6a7A","correct":32,"choice":32,"rt":233.07000007480383,"accuracy":1,"outcome":"-10","keys":[1734.1450001113117],"total_keys":1,"block":1,"trial":20,"stimulus":2,"robot":3,"valence":"lose","action":"go","sham":1,"trial_type":"pit-trial","trial_index":50,"time_elapsed":495560,"internal_node_id":"0.0-25.0","task_version":"battery-v0.2-trt","session":2},{"rune":"T","rune_set":"bacs2","hex":"#f73b6a7A","correct":32,"choice":32,"rt":463.444999884814,"accuracy":1,"outcome":"-1","keys":[1964.51500011608],"total_keys":1,"block":1,"trial":21,"stimulus":1,"robot":3,"valence":"lose","action":"go","sham":0,"trial_type":"pit-trial","trial_index":51,"time_elapsed":498727,"internal_node_id":"0.0-26.0","task_version":"battery-v0.2-trt","session":2},{"rune":"Y","rune_set":"bacs2","hex":"#f73b6a7A","correct":-1,"choice":32,"rt":216.56000008806586,"accuracy":0,"outcome":"-10","keys":[1717.210000148043],"total_keys":1,"block":1,"trial":22,"stimulus":0,"robot":4,"valence":"lose","action":"no-go","sham":0,"trial_type":"pit-trial","trial_index":52,"time_elapsed":501647,"internal_node_id":"0.0-27.0","task_version":"battery-v0.2-trt","session":2},{"rune":"Q","rune_set":"bacs2","hex":"#f73b6a7A","correct":32,"choice":32,"rt":122.69499991089106,"accuracy":1,"outcome":"-10","keys":[1624.1399999707937],"total_keys":1,"block":1,"trial":23,"stimulus":2,"robot":3,"valence":"lose","action":"go","sham":1,"trial_type":"pit-trial","trial_index":53,"time_elapsed":504474,"internal_node_id":"0.0-28.0","task_version":"battery-v0.2-trt","session":2},{"rune":"H","rune_set":"bacs2","hex":"#3366ff99","correct":32,"choice":32,"rt":169.44499989040196,"accuracy":1,"outcome":"+10","keys":[1671.4599998667836],"total_keys":1,"block":1,"trial":24,"stimulus":3,"robot":1,"valence":"win","action":"go","sham":0,"trial_type":"pit-trial","trial_index":54,"time_elapsed":507349,"internal_node_id":"0.0-29.0","task_version":"battery-v0.2-trt","session":2},{"rune":"H","rune_set":"bacs2","hex":"#3366ff99","correct":32,"choice":32,"rt":133.99500004015863,"accuracy":1,"outcome":"+10","keys":[1634.8099999595433],"total_keys":1,"block":1,"trial":25,"stimulus":3,"robot":1,"valence":"win","action":"go","sham":0,"trial_type":"pit-trial","trial_index":55,"time_elapsed":510197,"internal_node_id":"0.0-30.0","task_version":"battery-v0.2-trt","session":2},{"rune":"Q","rune_set":"bacs2","hex":"#f73b6a7A","correct":32,"choice":32,"rt":421.72499978914857,"accuracy":1,"outcome":"-1","keys":[1923.0799998622388],"total_keys":1,"block":1,"trial":26,"stimulus":2,"robot":3,"valence":"lose","action":"go","sham":0,"trial_type":"pit-trial","trial_index":56,"time_elapsed":513327,"internal_node_id":"0.0-31.0","task_version":"battery-v0.2-trt","session":2},{"rune":"Y","rune_set":"bacs2","hex":"#f73b6a7A","correct":-1,"choice":32,"rt":67.50999996438622,"accuracy":0,"outcome":"-10","keys":[1567.9699999745935],"total_keys":1,"block":1,"trial":27,"stimulus":0,"robot":4,"valence":"lose","action":"no-go","sham":0,"trial_type":"pit-trial","trial_index":57,"time_elapsed":516103,"internal_node_id":"0.0-32.0","task_version":"battery-v0.2-trt","session":2},{"rune":"T","rune_set":"bacs2","hex":"#f73b6a7A","correct":32,"choice":32,"rt":159.8000000230968,"accuracy":1,"outcome":"-1","keys":[1659.8050000611693],"total_keys":1,"block":1,"trial":28,"stimulus":1,"robot":3,"valence":"lose","action":"go","sham":0,"trial_type":"pit-trial","trial_index":58,"time_elapsed":518968,"internal_node_id":"0.0-33.0","task_version":"battery-v0.2-trt","session":2},{"rune":"T","rune_set":"bacs2","hex":"#f73b6a7A","correct":32,"choice":32,"rt":298.76999999396503,"accuracy":1,"outcome":"-1","keys":[1352.04999987036,1799.4049999397248],"total_keys":2,"block":1,"trial":29,"stimulus":1,"robot":3,"valence":"lose","action":"go","sham":0,"trial_type":"pit-trial","trial_index":59,"time_elapsed":521971,"internal_node_id":"0.0-34.0","task_version":"battery-v0.2-trt","session":2},{"rune":"Q","rune_set":"bacs2","hex":"#f73b6a7A","correct":32,"choice":32,"rt":133.82000010460615,"accuracy":1,"outcome":"-10","keys":[1634.7199999727309],"total_keys":1,"block":1,"trial":30,"stimulus":2,"robot":3,"valence":"lose","action":"go","sham":1,"trial_type":"pit-trial","trial_index":60,"time_elapsed":524815,"internal_node_id":"0.0-35.0","task_version":"battery-v0.2-trt","session":2},{"rune":"Y","rune_set":"bacs2","hex":"#f73b6a7A","correct":-1,"choice":32,"rt":221.45499987527728,"accuracy":0,"outcome":"-10","keys":[1722.6200001314282],"total_keys":1,"block":1,"trial":31,"stimulus":0,"robot":4,"valence":"lose","action":"no-go","sham":0,"trial_type":"pit-trial","trial_index":61,"time_elapsed":527745,"internal_node_id":"0.0-36.0","task_version":"battery-v0.2-trt","session":2},{"rune":"H","rune_set":"bacs2","hex":"#3366ff99","correct":32,"choice":32,"rt":664.7099999245256,"accuracy":1,"outcome":"+1","keys":[2165.5449999962],"total_keys":1,"block":1,"trial":32,"stimulus":3,"robot":1,"valence":"win","action":"go","sham":1,"trial_type":"pit-trial","trial_index":62,"time_elapsed":531113,"internal_node_id":"0.0-37.0","task_version":"battery-v0.2-trt","session":2},{"rune":"H","rune_set":"bacs2","hex":"#3366ff99","correct":32,"choice":-1,"rt":-1,"accuracy":0,"outcome":"+1","keys":[],"total_keys":0,"block":1,"trial":33,"stimulus":3,"robot":1,"valence":"win","action":"go","sham":0,"trial_type":"pit-trial","trial_index":63,"time_elapsed":535119,"internal_node_id":"0.0-38.0","task_version":"battery-v0.2-trt","session":2},{"rune":"E","rune_set":"bacs2","hex":"#f73b6a7A","correct":-1,"choice":-1,"rt":-1,"accuracy":1,"outcome":"-1","keys":[],"total_keys":0,"block":1,"trial":34,"stimulus":4,"robot":4,"valence":"lose","action":"no-go","sham":0,"trial_type":"pit-trial","trial_index":64,"time_elapsed":539126,"internal_node_id":"0.0-39.0","task_version":"battery-v0.2-trt","session":2},{"rune":"Y","rune_set":"bacs2","hex":"#f73b6a7A","correct":-1,"choice":-1,"rt":-1,"accuracy":1,"outcome":"-1","keys":[],"total_keys":0,"block":1,"trial":35,"stimulus":0,"robot":4,"valence":"lose","action":"no-go","sham":0,"trial_type":"pit-trial","trial_index":65,"time_elapsed":543134,"internal_node_id":"0.0-40.0","task_version":"battery-v0.2-trt","session":2},{"rune":"T","rune_set":"bacs2","hex":"#f73b6a7A","correct":32,"choice":32,"rt":859.0800000820309,"accuracy":1,"outcome":"-1","keys":[2359.8450000863522],"total_keys":1,"block":1,"trial":36,"stimulus":1,"robot":3,"valence":"lose","action":"go","sham":0,"trial_type":"pit-trial","trial_index":66,"time_elapsed":546699,"internal_node_id":"0.0-41.0","task_version":"battery-v0.2-trt","session":2},{"rune":"E","rune_set":"bacs2","hex":"#f73b6a7A","correct":-1,"choice":-1,"rt":-1,"accuracy":1,"outcome":"-1","keys":[],"total_keys":0,"block":1,"trial":37,"stimulus":4,"robot":4,"valence":"lose","action":"no-go","sham":0,"trial_type":"pit-trial","trial_index":67,"time_elapsed":550704,"internal_node_id":"0.0-42.0","task_version":"battery-v0.2-trt","session":2},{"rune":"Y","rune_set":"bacs2","hex":"#f73b6a7A","correct":-1,"choice":-1,"rt":-1,"accuracy":1,"outcome":"-1","keys":[],"total_keys":0,"block":1,"trial":38,"stimulus":0,"robot":4,"valence":"lose","action":"no-go","sham":0,"trial_type":"pit-trial","trial_index":68,"time_elapsed":554709,"internal_node_id":"0.0-43.0","task_version":"battery-v0.2-trt","session":2},{"rune":"H","rune_set":"bacs2","hex":"#3366ff99","correct":32,"choice":-1,"rt":-1,"accuracy":0,"outcome":"+1","keys":[3414.905000012368],"total_keys":1,"block":1,"trial":39,"stimulus":3,"robot":1,"valence":"win","action":"go","sham":0,"trial_type":"pit-trial","trial_index":69,"time_elapsed":558715,"internal_node_id":"0.0-44.0","task_version":"battery-v0.2-trt","session":2},{"rune":"T","rune_set":"bacs2","hex":"#f73b6a7A","correct":32,"choice":32,"rt":1059.9599999841303,"accuracy":1,"outcome":"-1","keys":[2561.024999944493],"total_keys":1,"block":1,"trial":40,"stimulus":1,"robot":3,"valence":"lose","action":"go","sham":0,"trial_type":"pit-trial","trial_index":70,"time_elapsed":562480,"internal_node_id":"0.0-45.0","task_version":"battery-v0.2-trt","session":2},{"rune":"T","rune_set":"bacs2","hex":"#f73b6a7A","correct":32,"choice":-1,"rt":-1,"accuracy":0,"outcome":"-10","keys":[],"total_keys":0,"block":1,"trial":41,"stimulus":1,"robot":3,"valence":"lose","action":"go","sham":0,"trial_type":"pit-trial","trial_index":71,"time_elapsed":566487,"internal_node_id":"0.0-46.0","task_version":"battery-v0.2-trt","session":2},{"rune":"C","rune_set":"bacs2","hex":"#3366ff99","correct":-1,"choice":32,"rt":523.8250000402331,"accuracy":0,"outcome":"+1","keys":[2024.8099998570979],"total_keys":1,"block":1,"trial":42,"stimulus":5,"robot":2,"valence":"win","action":"no-go","sham":0,"trial_type":"pit-trial","trial_index":72,"time_elapsed":569718,"internal_node_id":"0.0-47.0","task_version":"battery-v0.2-trt","session":2},{"rune":"E","rune_set":"bacs2","hex":"#f73b6a7A","correct":-1,"choice":-1,"rt":-1,"accuracy":1,"outcome":"-1","keys":[],"total_keys":0,"block":1,"trial":43,"stimulus":4,"robot":4,"valence":"lose","action":"no-go","sham":0,"trial_type":"pit-trial","trial_index":73,"time_elapsed":573725,"internal_node_id":"0.0-48.0","task_version":"battery-v0.2-trt","session":2},{"rune":"Y","rune_set":"bacs2","hex":"#f73b6a7A","correct":-1,"choice":32,"rt":854.9500000663102,"accuracy":0,"outcome":"-10","keys":[2356.7150000017136],"total_keys":1,"block":1,"trial":44,"stimulus":0,"robot":4,"valence":"lose","action":"no-go","sham":0,"trial_type":"pit-trial","trial_index":74,"time_elapsed":577288,"internal_node_id":"0.0-49.0","task_version":"battery-v0.2-trt","session":2},{"rune":"Y","rune_set":"bacs2","hex":"#f73b6a7A","correct":-1,"choice":-1,"rt":-1,"accuracy":1,"outcome":"-1","keys":[],"total_keys":0,"block":1,"trial":45,"stimulus":0,"robot":4,"valence":"lose","action":"no-go","sham":0,"trial_type":"pit-trial","trial_index":75,"time_elapsed":581294,"internal_node_id":"0.0-50.0","task_version":"battery-v0.2-trt","session":2},{"rune":"E","rune_set":"bacs2","hex":"#f73b6a7A","correct":-1,"choice":-1,"rt":-1,"accuracy":1,"outcome":"-1","keys":[],"total_keys":0,"block":1,"trial":46,"stimulus":4,"robot":4,"valence":"lose","action":"no-go","sham":0,"trial_type":"pit-trial","trial_index":76,"time_elapsed":585301,"internal_node_id":"0.0-51.0","task_version":"battery-v0.2-trt","session":2},{"rune":"C","rune_set":"bacs2","hex":"#3366ff99","correct":-1,"choice":32,"rt":858.089999994263,"accuracy":0,"outcome":"+1","keys":[2358.4650000557303],"total_keys":1,"block":1,"trial":47,"stimulus":5,"robot":2,"valence":"win","action":"no-go","sham":0,"trial_type":"pit-trial","trial_index":77,"time_elapsed":588865,"internal_node_id":"0.0-52.0","task_version":"battery-v0.2-trt","session":2},{"rune":"T","rune_set":"bacs2","hex":"#f73b6a7A","correct":32,"choice":-1,"rt":-1,"accuracy":0,"outcome":"-1","keys":[],"total_keys":0,"block":1,"trial":48,"stimulus":1,"robot":3,"valence":"lose","action":"go","sham":1,"trial_type":"pit-trial","trial_index":78,"time_elapsed":592869,"internal_node_id":"0.0-53.0","task_version":"battery-v0.2-trt","session":2},{"rune":"O","rune_set":"bacs2","hex":"#f73b6a7A","correct":-1,"choice":-1,"rt":-1,"accuracy":1,"outcome":"-1","keys":[],"total_keys":0,"block":1,"trial":49,"stimulus":6,"robot":4,"valence":"lose","action":"no-go","sham":0,"trial_type":"pit-trial","trial_index":79,"time_elapsed":596878,"internal_node_id":"0.0-54.0","task_version":"battery-v0.2-trt","session":2},{"rune":"E","rune_set":"bacs2","hex":"#f73b6a7A","correct":-1,"choice":32,"rt":701.8549998756498,"accuracy":0,"outcome":"-10","keys":[2202.3599999956787],"total_keys":1,"block":1,"trial":50,"stimulus":4,"robot":4,"valence":"lose","action":"no-go","sham":0,"trial_type":"pit-trial","trial_index":80,"time_elapsed":600288,"internal_node_id":"0.0-55.0","task_version":"battery-v0.2-trt","session":2},{"rune":"G","rune_set":"bacs2","hex":"#3366ff99","correct":32,"choice":32,"rt":1113.6400001123548,"accuracy":1,"outcome":"+10","keys":[2614.2249999102205],"total_keys":1,"block":1,"trial":51,"stimulus":7,"robot":1,"valence":"win","action":"go","sham":0,"trial_type":"pit-trial","trial_index":81,"time_elapsed":604109,"internal_node_id":"0.0-56.0","task_version":"battery-v0.2-trt","session":2},{"rune":"C","rune_set":"bacs2","hex":"#3366ff99","correct":-1,"choice":-1,"rt":-1,"accuracy":1,"outcome":"+1","keys":[3503.4250000026077],"total_keys":1,"block":1,"trial":52,"stimulus":5,"robot":2,"valence":"win","action":"no-go","sham":1,"trial_type":"pit-trial","trial_index":82,"time_elapsed":608116,"internal_node_id":"0.0-57.0","task_version":"battery-v0.2-trt","session":2},{"rune":"C","rune_set":"bacs2","hex":"#3366ff99","correct":-1,"choice":-1,"rt":-1,"accuracy":1,"outcome":"+10","keys":[],"total_keys":0,"block":1,"trial":53,"stimulus":5,"robot":2,"valence":"win","action":"no-go","sham":0,"trial_type":"pit-trial","trial_index":83,"time_elapsed":612135,"internal_node_id":"0.0-58.0","task_version":"battery-v0.2-trt","session":2},{"rune":"E","rune_set":"bacs2","hex":"#f73b6a7A","correct":-1,"choice":-1,"rt":-1,"accuracy":1,"outcome":"-1","keys":[],"total_keys":0,"block":1,"trial":54,"stimulus":4,"robot":4,"valence":"lose","action":"no-go","sham":0,"trial_type":"pit-trial","trial_index":84,"time_elapsed":616151,"internal_node_id":"0.0-59.0","task_version":"battery-v0.2-trt","session":2},{"rune":"G","rune_set":"bacs2","hex":"#3366ff99","correct":32,"choice":32,"rt":840.04499996081,"accuracy":1,"outcome":"+1","keys":[2341.004999820143],"total_keys":1,"block":1,"trial":55,"stimulus":7,"robot":1,"valence":"win","action":"go","sham":1,"trial_type":"pit-trial","trial_index":85,"time_elapsed":619698,"internal_node_id":"0.0-60.0","task_version":"battery-v0.2-trt","session":2},{"rune":"O","rune_set":"bacs2","hex":"#f73b6a7A","correct":-1,"choice":-1,"rt":-1,"accuracy":1,"outcome":"-1","keys":[],"total_keys":0,"block":1,"trial":56,"stimulus":6,"robot":4,"valence":"lose","action":"no-go","sham":0,"trial_type":"pit-trial","trial_index":86,"time_elapsed":623704,"internal_node_id":"0.0-61.0","task_version":"battery-v0.2-trt","session":2},{"rune":"O","rune_set":"bacs2","hex":"#f73b6a7A","correct":-1,"choice":-1,"rt":-1,"accuracy":1,"outcome":"-10","keys":[],"total_keys":0,"block":1,"trial":57,"stimulus":6,"robot":4,"valence":"lose","action":"no-go","sham":1,"trial_type":"pit-trial","trial_index":87,"time_elapsed":627710,"internal_node_id":"0.0-62.0","task_version":"battery-v0.2-trt","session":2},{"rune":"C","rune_set":"bacs2","hex":"#3366ff99","correct":-1,"choice":-1,"rt":-1,"accuracy":1,"outcome":"+1","keys":[],"total_keys":0,"block":1,"trial":58,"stimulus":5,"robot":2,"valence":"win","action":"no-go","sham":1,"trial_type":"pit-trial","trial_index":88,"time_elapsed":631714,"internal_node_id":"0.0-63.0","task_version":"battery-v0.2-trt","session":2},{"rune":"E","rune_set":"bacs2","hex":"#f73b6a7A","correct":-1,"choice":-1,"rt":-1,"accuracy":1,"outcome":"-1","keys":[],"total_keys":0,"block":1,"trial":59,"stimulus":4,"robot":4,"valence":"lose","action":"no-go","sham":0,"trial_type":"pit-trial","trial_index":89,"time_elapsed":635720,"internal_node_id":"0.0-64.0","task_version":"battery-v0.2-trt","session":2},{"rune":"G","rune_set":"bacs2","hex":"#3366ff99","correct":32,"choice":-1,"rt":-1,"accuracy":0,"outcome":"+1","keys":[],"total_keys":0,"block":1,"trial":60,"stimulus":7,"robot":1,"valence":"win","action":"go","sham":0,"trial_type":"pit-trial","trial_index":90,"time_elapsed":639729,"internal_node_id":"0.0-65.0","task_version":"battery-v0.2-trt","session":2},{"rune":"O","rune_set":"bacs2","hex":"#f73b6a7A","correct":-1,"choice":-1,"rt":-1,"accuracy":1,"outcome":"-10","keys":[],"total_keys":0,"block":1,"trial":61,"stimulus":6,"robot":4,"valence":"lose","action":"no-go","sham":1,"trial_type":"pit-trial","trial_index":91,"time_elapsed":643736,"internal_node_id":"0.0-66.0","task_version":"battery-v0.2-trt","session":2},{"rune":"C","rune_set":"bacs2","hex":"#3366ff99","correct":-1,"choice":32,"rt":662.9699999466538,"accuracy":0,"outcome":"+1","keys":[2165.349999908358],"total_keys":1,"block":1,"trial":62,"stimulus":5,"robot":2,"valence":"win","action":"no-go","sham":0,"trial_type":"pit-trial","trial_index":92,"time_elapsed":647108,"internal_node_id":"0.0-67.0","task_version":"battery-v0.2-trt","session":2},{"rune":"E","rune_set":"bacs2","hex":"#f73b6a7A","correct":-1,"choice":-1,"rt":-1,"accuracy":1,"outcome":"-1","keys":[],"total_keys":0,"block":1,"trial":63,"stimulus":4,"robot":4,"valence":"lose","action":"no-go","sham":0,"trial_type":"pit-trial","trial_index":93,"time_elapsed":651111,"internal_node_id":"0.0-68.0","task_version":"battery-v0.2-trt","session":2},{"rune":"G","rune_set":"bacs2","hex":"#3366ff99","correct":32,"choice":-1,"rt":-1,"accuracy":0,"outcome":"+1","keys":[3329.4150000438094],"total_keys":1,"block":1,"trial":64,"stimulus":7,"robot":1,"valence":"win","action":"go","sham":0,"trial_type":"pit-trial","trial_index":94,"time_elapsed":655115,"internal_node_id":"0.0-69.0","task_version":"battery-v0.2-trt","session":2},{"rune":"E","rune_set":"bacs2","hex":"#f73b6a7A","correct":-1,"choice":32,"rt":733.7100000586361,"accuracy":0,"outcome":"-10","keys":[2234.1250001918525],"total_keys":1,"block":1,"trial":65,"stimulus":4,"robot":4,"valence":"lose","action":"no-go","sham":0,"trial_type":"pit-trial","trial_index":95,"time_elapsed":658570,"internal_node_id":"0.0-70.0","task_version":"battery-v0.2-trt","session":2},{"rune":"G","rune_set":"bacs2","hex":"#3366ff99","correct":32,"choice":32,"rt":1088.0850001703948,"accuracy":1,"outcome":"+10","keys":[2588.370000012219],"total_keys":1,"block":1,"trial":66,"stimulus":7,"robot":1,"valence":"win","action":"go","sham":0,"trial_type":"pit-trial","trial_index":96,"time_elapsed":662365,"internal_node_id":"0.0-71.0","task_version":"battery-v0.2-trt","session":2},{"rune":"C","rune_set":"bacs2","hex":"#3366ff99","correct":-1,"choice":32,"rt":899.1399998776615,"accuracy":0,"outcome":"+10","keys":[2399.7900001704693],"total_keys":1,"block":1,"trial":67,"stimulus":5,"robot":2,"valence":"win","action":"no-go","sham":1,"trial_type":"pit-trial","trial_index":97,"time_elapsed":665972,"internal_node_id":"0.0-72.0","task_version":"battery-v0.2-trt","session":2},{"rune":"O","rune_set":"bacs2","hex":"#f73b6a7A","correct":-1,"choice":32,"rt":945.3900000080466,"accuracy":0,"outcome":"-10","keys":[2445.900000166148],"total_keys":1,"block":1,"trial":68,"stimulus":6,"robot":4,"valence":"lose","action":"no-go","sham":0,"trial_type":"pit-trial","trial_index":98,"time_elapsed":669630,"internal_node_id":"0.0-73.0","task_version":"battery-v0.2-trt","session":2},{"rune":"O","rune_set":"bacs2","hex":"#f73b6a7A","correct":-1,"choice":-1,"rt":-1,"accuracy":1,"outcome":"-1","keys":[],"total_keys":0,"block":1,"trial":69,"stimulus":6,"robot":4,"valence":"lose","action":"no-go","sham":0,"trial_type":"pit-trial","trial_index":99,"time_elapsed":673638,"internal_node_id":"0.0-74.0","task_version":"battery-v0.2-trt","session":2},{"rune":"E","rune_set":"bacs2","hex":"#f73b6a7A","correct":-1,"choice":-1,"rt":-1,"accuracy":1,"outcome":"-1","keys":[],"total_keys":0,"block":1,"trial":70,"stimulus":4,"robot":4,"valence":"lose","action":"no-go","sham":0,"trial_type":"pit-trial","trial_index":100,"time_elapsed":677645,"internal_node_id":"0.0-75.0","task_version":"battery-v0.2-trt","session":2},{"rune":"C","rune_set":"bacs2","hex":"#3366ff99","correct":-1,"choice":32,"rt":1058.3999999798834,"accuracy":0,"outcome":"+1","keys":[2559.1450000647455],"total_keys":1,"block":1,"trial":71,"stimulus":5,"robot":2,"valence":"win","action":"no-go","sham":0,"trial_type":"pit-trial","trial_index":101,"time_elapsed":681408,"internal_node_id":"0.0-76.0","task_version":"battery-v0.2-trt","session":2},{"rune":"G","rune_set":"bacs2","hex":"#3366ff99","correct":32,"choice":32,"rt":889.3699999898672,"accuracy":1,"outcome":"+10","keys":[2390.35000000149],"total_keys":1,"block":1,"trial":72,"stimulus":7,"robot":1,"valence":"win","action":"go","sham":0,"trial_type":"pit-trial","trial_index":102,"time_elapsed":685012,"internal_node_id":"0.0-77.0","task_version":"battery-v0.2-trt","session":2},{"rune":"O","rune_set":"bacs2","hex":"#f73b6a7A","correct":-1,"choice":-1,"rt":-1,"accuracy":1,"outcome":"-1","keys":[],"total_keys":0,"block":1,"trial":73,"stimulus":6,"robot":4,"valence":"lose","action":"no-go","sham":0,"trial_type":"pit-trial","trial_index":103,"time_elapsed":689020,"internal_node_id":"0.0-78.0","task_version":"battery-v0.2-trt","session":2},{"rune":"G","rune_set":"bacs2","hex":"#3366ff99","correct":32,"choice":32,"rt":967.7949999459088,"accuracy":1,"outcome":"+10","keys":[2468.440000200644],"total_keys":1,"block":1,"trial":74,"stimulus":7,"robot":1,"valence":"win","action":"go","sham":0,"trial_type":"pit-trial","trial_index":104,"time_elapsed":692699,"internal_node_id":"0.0-79.0","task_version":"battery-v0.2-trt","session":2},{"rune":"C","rune_set":"bacs2","hex":"#3366ff99","correct":-1,"choice":-1,"rt":-1,"accuracy":1,"outcome":"+10","keys":[],"total_keys":0,"block":1,"trial":75,"stimulus":5,"robot":2,"valence":"win","action":"no-go","sham":0,"trial_type":"pit-trial","trial_index":105,"time_elapsed":696705,"internal_node_id":"0.0-80.0","task_version":"battery-v0.2-trt","session":2},{"rune":"Z","rune_set":"bacs2","hex":"#3366ff99","correct":32,"choice":32,"rt":937.6149999443442,"accuracy":1,"outcome":"+10","keys":[2438.0499999970198],"total_keys":1,"block":1,"trial":76,"stimulus":8,"robot":1,"valence":"win","action":"go","sham":0,"trial_type":"pit-trial","trial_index":106,"time_elapsed":700347,"internal_node_id":"0.0-81.0","task_version":"battery-v0.2-trt","session":2},{"rune":"O","rune_set":"bacs2","hex":"#f73b6a7A","correct":-1,"choice":-1,"rt":-1,"accuracy":1,"outcome":"-1","keys":[],"total_keys":0,"block":1,"trial":77,"stimulus":6,"robot":4,"valence":"lose","action":"no-go","sham":0,"trial_type":"pit-trial","trial_index":107,"time_elapsed":704355,"internal_node_id":"0.0-82.0","task_version":"battery-v0.2-trt","session":2},{"rune":"C","rune_set":"bacs2","hex":"#3366ff99","correct":-1,"choice":-1,"rt":-1,"accuracy":1,"outcome":"+10","keys":[],"total_keys":0,"block":1,"trial":78,"stimulus":5,"robot":2,"valence":"win","action":"no-go","sham":0,"trial_type":"pit-trial","trial_index":108,"time_elapsed":708359,"internal_node_id":"0.0-83.0","task_version":"battery-v0.2-trt","session":2},{"rune":"Z","rune_set":"bacs2","hex":"#3366ff99","correct":32,"choice":32,"rt":716.0850001964718,"accuracy":1,"outcome":"+10","keys":[2216.9549998361617],"total_keys":1,"block":1,"trial":79,"stimulus":8,"robot":1,"valence":"win","action":"go","sham":0,"trial_type":"pit-trial","trial_index":109,"time_elapsed":711779,"internal_node_id":"0.0-84.0","task_version":"battery-v0.2-trt","session":2},{"rune":"G","rune_set":"bacs2","hex":"#3366ff99","correct":32,"choice":32,"rt":896.2349998764694,"accuracy":1,"outcome":"+10","keys":[2397.2300000023097],"total_keys":1,"block":1,"trial":80,"stimulus":7,"robot":1,"valence":"win","action":"go","sham":0,"trial_type":"pit-trial","trial_index":110,"time_elapsed":715378,"internal_node_id":"0.0-85.0","task_version":"battery-v0.2-trt","session":2},{"rune":"C","rune_set":"bacs2","hex":"#3366ff99","correct":-1,"choice":-1,"rt":-1,"accuracy":1,"outcome":"+10","keys":[],"total_keys":0,"block":1,"trial":81,"stimulus":5,"robot":2,"valence":"win","action":"no-go","sham":0,"trial_type":"pit-trial","trial_index":111,"time_elapsed":719382,"internal_node_id":"0.0-86.0","task_version":"battery-v0.2-trt","session":2},{"rune":"W","rune_set":"bacs2","hex":"#f73b6a7A","correct":32,"choice":32,"rt":777.9149999842048,"accuracy":1,"outcome":"-10","keys":[2279.5150000602007],"total_keys":1,"block":1,"trial":82,"stimulus":10,"robot":3,"valence":"lose","action":"go","sham":1,"trial_type":"pit-trial","trial_index":112,"time_elapsed":722866,"internal_node_id":"0.0-87.0","task_version":"battery-v0.2-trt","session":2},{"rune":"Z","rune_set":"bacs2","hex":"#3366ff99","correct":32,"choice":-1,"rt":-1,"accuracy":0,"outcome":"+1","keys":[3417.0950001571327],"total_keys":1,"block":1,"trial":83,"stimulus":8,"robot":1,"valence":"win","action":"go","sham":0,"trial_type":"pit-trial","trial_index":113,"time_elapsed":726877,"internal_node_id":"0.0-88.0","task_version":"battery-v0.2-trt","session":2},{"rune":"X","rune_set":"bacs2","hex":"#3366ff99","correct":-1,"choice":-1,"rt":-1,"accuracy":1,"outcome":"+10","keys":[],"total_keys":0,"block":1,"trial":84,"stimulus":9,"robot":2,"valence":"win","action":"no-go","sham":0,"trial_type":"pit-trial","trial_index":114,"time_elapsed":730885,"internal_node_id":"0.0-89.0","task_version":"battery-v0.2-trt","session":2},{"rune":"C","rune_set":"bacs2","hex":"#3366ff99","correct":-1,"choice":32,"rt":671.7650000937283,"accuracy":0,"outcome":"+1","keys":[2172.9100001975894],"total_keys":1,"block":1,"trial":85,"stimulus":5,"robot":2,"valence":"win","action":"no-go","sham":0,"trial_type":"pit-trial","trial_index":115,"time_elapsed":734265,"internal_node_id":"0.0-90.0","task_version":"battery-v0.2-trt","session":2},{"rune":"Z","rune_set":"bacs2","hex":"#3366ff99","correct":32,"choice":32,"rt":811.5599998272955,"accuracy":1,"outcome":"+10","keys":[2311.794999986887],"total_keys":1,"block":1,"trial":86,"stimulus":8,"robot":1,"valence":"win","action":"go","sham":0,"trial_type":"pit-trial","trial_index":116,"time_elapsed":737783,"internal_node_id":"0.0-91.0","task_version":"battery-v0.2-trt","session":2},{"rune":"W","rune_set":"bacs2","hex":"#f73b6a7A","correct":32,"choice":-1,"rt":-1,"accuracy":0,"outcome":"-1","keys":[],"total_keys":0,"block":1,"trial":87,"stimulus":10,"robot":3,"valence":"lose","action":"go","sham":1,"trial_type":"pit-trial","trial_index":117,"time_elapsed":741791,"internal_node_id":"0.0-92.0","task_version":"battery-v0.2-trt","session":2},{"rune":"X","rune_set":"bacs2","hex":"#3366ff99","correct":-1,"choice":32,"rt":855.574999935925,"accuracy":0,"outcome":"+1","keys":[2356.3800000119954],"total_keys":1,"block":1,"trial":88,"stimulus":9,"robot":2,"valence":"win","action":"no-go","sham":0,"trial_type":"pit-trial","trial_index":118,"time_elapsed":745354,"internal_node_id":"0.0-93.0","task_version":"battery-v0.2-trt","session":2},{"rune":"W","rune_set":"bacs2","hex":"#f73b6a7A","correct":32,"choice":32,"rt":992.0000000856817,"accuracy":1,"outcome":"-1","keys":[2492.534999968484],"total_keys":1,"block":1,"trial":89,"stimulus":10,"robot":3,"valence":"lose","action":"go","sham":0,"trial_type":"pit-trial","trial_index":119,"time_elapsed":749054,"internal_node_id":"0.0-94.0","task_version":"battery-v0.2-trt","session":2},{"rune":"J","rune_set":"bacs2","hex":"#3366ff99","correct":-1,"choice":-1,"rt":-1,"accuracy":1,"outcome":"+10","keys":[],"total_keys":0,"block":1,"trial":90,"stimulus":11,"robot":2,"valence":"win","action":"no-go","sham":0,"trial_type":"pit-trial","trial_index":120,"time_elapsed":753060,"internal_node_id":"0.0-95.0","task_version":"battery-v0.2-trt","session":2},{"rune":"Z","rune_set":"bacs2","hex":"#3366ff99","correct":32,"choice":32,"rt":843.8450000248849,"accuracy":1,"outcome":"+10","keys":[2344.245000043884],"total_keys":1,"block":1,"trial":91,"stimulus":8,"robot":1,"valence":"win","action":"go","sham":0,"trial_type":"pit-trial","trial_index":121,"time_elapsed":756609,"internal_node_id":"0.0-96.0","task_version":"battery-v0.2-trt","session":2},{"rune":"X","rune_set":"bacs2","hex":"#3366ff99","correct":-1,"choice":-1,"rt":-1,"accuracy":1,"outcome":"+1","keys":[],"total_keys":0,"block":1,"trial":92,"stimulus":9,"robot":2,"valence":"win","action":"no-go","sham":1,"trial_type":"pit-trial","trial_index":122,"time_elapsed":760616,"internal_node_id":"0.0-97.0","task_version":"battery-v0.2-trt","session":2},{"rune":"Z","rune_set":"bacs2","hex":"#3366ff99","correct":32,"choice":32,"rt":667.6799999549985,"accuracy":1,"outcome":"+10","keys":[2168.244999833405],"total_keys":1,"block":1,"trial":93,"stimulus":8,"robot":1,"valence":"win","action":"go","sham":0,"trial_type":"pit-trial","trial_index":123,"time_elapsed":763993,"internal_node_id":"0.0-98.0","task_version":"battery-v0.2-trt","session":2},{"rune":"J","rune_set":"bacs2","hex":"#3366ff99","correct":-1,"choice":32,"rt":894.4850000552833,"accuracy":0,"outcome":"+1","keys":[2396.174999885261],"total_keys":1,"block":1,"trial":94,"stimulus":11,"robot":2,"valence":"win","action":"no-go","sham":0,"trial_type":"pit-trial","trial_index":124,"time_elapsed":767596,"internal_node_id":"0.0-99.0","task_version":"battery-v0.2-trt","session":2},{"rune":"W","rune_set":"bacs2","hex":"#f73b6a7A","correct":32,"choice":-1,"rt":-1,"accuracy":0,"outcome":"-10","keys":[],"total_keys":0,"block":1,"trial":95,"stimulus":10,"robot":3,"valence":"lose","action":"go","sham":0,"trial_type":"pit-trial","trial_index":125,"time_elapsed":771605,"internal_node_id":"0.0-100.0","task_version":"battery-v0.2-trt","session":2},{"rune":"X","rune_set":"bacs2","hex":"#3366ff99","correct":-1,"choice":32,"rt":790.4450001660734,"accuracy":0,"outcome":"+10","keys":[2291.1800001747906],"total_keys":1,"block":1,"trial":96,"stimulus":9,"robot":2,"valence":"win","action":"no-go","sham":1,"trial_type":"pit-trial","trial_index":126,"time_elapsed":775101,"internal_node_id":"0.0-101.0","task_version":"battery-v0.2-trt","session":2},{"rune":"W","rune_set":"bacs2","hex":"#f73b6a7A","correct":32,"choice":-1,"rt":-1,"accuracy":0,"outcome":"-1","keys":[],"total_keys":0,"block":1,"trial":97,"stimulus":10,"robot":3,"valence":"lose","action":"go","sham":1,"trial_type":"pit-trial","trial_index":127,"time_elapsed":779107,"internal_node_id":"0.0-102.0","task_version":"battery-v0.2-trt","session":2},{"rune":"J","rune_set":"bacs2","hex":"#3366ff99","correct":-1,"choice":32,"rt":843.929999973625,"accuracy":0,"outcome":"+1","keys":[2344.93500017561],"total_keys":1,"block":1,"trial":98,"stimulus":11,"robot":2,"valence":"win","action":"no-go","sham":0,"trial_type":"pit-trial","trial_index":128,"time_elapsed":782660,"internal_node_id":"0.0-103.0","task_version":"battery-v0.2-trt","session":2},{"rune":"Z","rune_set":"bacs2","hex":"#3366ff99","correct":32,"choice":32,"rt":680.6499999947846,"accuracy":1,"outcome":"+10","keys":[2180.7150000240654],"total_keys":1,"block":1,"trial":99,"stimulus":8,"robot":1,"valence":"win","action":"go","sham":0,"trial_type":"pit-trial","trial_index":129,"time_elapsed":786052,"internal_node_id":"0.0-104.0","task_version":"battery-v0.2-trt","session":2},{"rune":"X","rune_set":"bacs2","hex":"#3366ff99","correct":-1,"choice":32,"rt":873.020000057295,"accuracy":0,"outcome":"+10","keys":[2374.2349999956787],"total_keys":1,"block":1,"trial":100,"stimulus":9,"robot":2,"valence":"win","action":"no-go","sham":1,"trial_type":"pit-trial","trial_index":130,"time_elapsed":789631,"internal_node_id":"0.0-105.0","task_version":"battery-v0.2-trt","session":2},{"rune":"X","rune_set":"bacs2","hex":"#3366ff99","correct":-1,"choice":32,"rt":887.4850000720471,"accuracy":0,"outcome":"+10","keys":[2388.844999950379],"total_keys":1,"block":1,"trial":101,"stimulus":9,"robot":2,"valence":"win","action":"no-go","sham":1,"trial_type":"pit-trial","trial_index":131,"time_elapsed":793225,"internal_node_id":"0.0-106.0","task_version":"battery-v0.2-trt","session":2},{"rune":"W","rune_set":"bacs2","hex":"#f73b6a7A","correct":32,"choice":-1,"rt":-1,"accuracy":0,"outcome":"-10","keys":[],"total_keys":0,"block":1,"trial":102,"stimulus":10,"robot":3,"valence":"lose","action":"go","sham":0,"trial_type":"pit-trial","trial_index":132,"time_elapsed":797232,"internal_node_id":"0.0-107.0","task_version":"battery-v0.2-trt","session":2},{"rune":"J","rune_set":"bacs2","hex":"#3366ff99","correct":-1,"choice":-1,"rt":-1,"accuracy":1,"outcome":"+10","keys":[],"total_keys":0,"block":1,"trial":103,"stimulus":11,"robot":2,"valence":"win","action":"no-go","sham":0,"trial_type":"pit-trial","trial_index":133,"time_elapsed":801240,"internal_node_id":"0.0-108.0","task_version":"battery-v0.2-trt","session":2},{"rune":"Z","rune_set":"bacs2","hex":"#3366ff99","correct":32,"choice":32,"rt":745.5400000326335,"accuracy":1,"outcome":"+10","keys":[2246.3299999944866],"total_keys":1,"block":1,"trial":104,"stimulus":8,"robot":1,"valence":"win","action":"go","sham":0,"trial_type":"pit-trial","trial_index":134,"time_elapsed":804691,"internal_node_id":"0.0-109.0","task_version":"battery-v0.2-trt","session":2},{"rune":"J","rune_set":"bacs2","hex":"#3366ff99","correct":-1,"choice":32,"rt":561.7400000337511,"accuracy":0,"outcome":"+1","keys":[2062.299999874085],"total_keys":1,"block":1,"trial":105,"stimulus":11,"robot":2,"valence":"win","action":"no-go","sham":0,"trial_type":"pit-trial","trial_index":135,"time_elapsed":807958,"internal_node_id":"0.0-110.0","task_version":"battery-v0.2-trt","session":2},{"rune":"W","rune_set":"bacs2","hex":"#f73b6a7A","correct":32,"choice":32,"rt":795.905000064522,"accuracy":1,"outcome":"-10","keys":[2295.9650000557303],"total_keys":1,"block":1,"trial":106,"stimulus":10,"robot":3,"valence":"lose","action":"go","sham":1,"trial_type":"pit-trial","trial_index":136,"time_elapsed":811461,"internal_node_id":"0.0-111.0","task_version":"battery-v0.2-trt","session":2},{"rune":"Z","rune_set":"bacs2","hex":"#3366ff99","correct":32,"choice":-1,"rt":-1,"accuracy":0,"outcome":"+1","keys":[],"total_keys":0,"block":1,"trial":107,"stimulus":8,"robot":1,"valence":"win","action":"go","sham":0,"trial_type":"pit-trial","trial_index":137,"time_elapsed":815470,"internal_node_id":"0.0-112.0","task_version":"battery-v0.2-trt","session":2},{"rune":"X","rune_set":"bacs2","hex":"#3366ff99","correct":-1,"choice":32,"rt":803.0799999833107,"accuracy":0,"outcome":"+1","keys":[2303.5750000271946],"total_keys":1,"block":1,"trial":108,"stimulus":9,"robot":2,"valence":"win","action":"no-go","sham":0,"trial_type":"pit-trial","trial_index":138,"time_elapsed":818981,"internal_node_id":"0.0-113.0","task_version":"battery-v0.2-trt","session":2},{"rune":"X","rune_set":"bacs2","hex":"#3366ff99","correct":-1,"choice":-1,"rt":-1,"accuracy":1,"outcome":"+10","keys":[],"total_keys":0,"block":1,"trial":109,"stimulus":9,"robot":2,"valence":"win","action":"no-go","sham":0,"trial_type":"pit-trial","trial_index":139,"time_elapsed":822997,"internal_node_id":"0.0-114.0","task_version":"battery-v0.2-trt","session":2},{"rune":"Z","rune_set":"bacs2","hex":"#3366ff99","correct":32,"choice":32,"rt":964.9050000589341,"accuracy":1,"outcome":"+1","keys":[2466.0300000105053],"total_keys":1,"block":1,"trial":110,"stimulus":8,"robot":1,"valence":"win","action":"go","sham":1,"trial_type":"pit-trial","trial_index":140,"time_elapsed":826667,"internal_node_id":"0.0-115.0","task_version":"battery-v0.2-trt","session":2},{"rune":"W","rune_set":"bacs2","hex":"#f73b6a7A","correct":32,"choice":32,"rt":756.1300001107156,"accuracy":1,"outcome":"-1","keys":[2256.305000046268],"total_keys":1,"block":1,"trial":111,"stimulus":10,"robot":3,"valence":"lose","action":"go","sham":0,"trial_type":"pit-trial","trial_index":141,"time_elapsed":830132,"internal_node_id":"0.0-116.0","task_version":"battery-v0.2-trt","session":2},{"rune":"J","rune_set":"bacs2","hex":"#3366ff99","correct":-1,"choice":-1,"rt":-1,"accuracy":1,"outcome":"+10","keys":[],"total_keys":0,"block":1,"trial":112,"stimulus":11,"robot":2,"valence":"win","action":"no-go","sham":0,"trial_type":"pit-trial","trial_index":142,"time_elapsed":834155,"internal_node_id":"0.0-117.0","task_version":"battery-v0.2-trt","session":2},{"rune":"W","rune_set":"bacs2","hex":"#f73b6a7A","correct":32,"choice":32,"rt":615.4750001151115,"accuracy":1,"outcome":"-1","keys":[2116.114999866113],"total_keys":1,"block":1,"trial":113,"stimulus":10,"robot":3,"valence":"lose","action":"go","sham":0,"trial_type":"pit-trial","trial_index":143,"time_elapsed":837477,"internal_node_id":"0.0-118.0","task_version":"battery-v0.2-trt","session":2},{"rune":"X","rune_set":"bacs2","hex":"#3366ff99","correct":-1,"choice":-1,"rt":-1,"accuracy":1,"outcome":"+10","keys":[],"total_keys":0,"block":1,"trial":114,"stimulus":9,"robot":2,"valence":"win","action":"no-go","sham":0,"trial_type":"pit-trial","trial_index":144,"time_elapsed":841485,"internal_node_id":"0.0-119.0","task_version":"battery-v0.2-trt","session":2},{"rune":"J","rune_set":"bacs2","hex":"#3366ff99","correct":-1,"choice":-1,"rt":-1,"accuracy":1,"outcome":"+10","keys":[],"total_keys":0,"block":1,"trial":115,"stimulus":11,"robot":2,"valence":"win","action":"no-go","sham":0,"trial_type":"pit-trial","trial_index":145,"time_elapsed":845506,"internal_node_id":"0.0-120.0","task_version":"battery-v0.2-trt","session":2},{"rune":"Z","rune_set":"bacs2","hex":"#3366ff99","correct":32,"choice":32,"rt":756.5550000872463,"accuracy":1,"outcome":"+1","keys":[2256.749999942258],"total_keys":1,"block":1,"trial":116,"stimulus":8,"robot":1,"valence":"win","action":"go","sham":1,"trial_type":"pit-trial","trial_index":146,"time_elapsed":848965,"internal_node_id":"0.0-121.0","task_version":"battery-v0.2-trt","session":2},{"rune":"Z","rune_set":"bacs2","hex":"#3366ff99","correct":32,"choice":-1,"rt":-1,"accuracy":0,"outcome":"+1","keys":[],"total_keys":0,"block":1,"trial":117,"stimulus":8,"robot":1,"valence":"win","action":"go","sham":0,"trial_type":"pit-trial","trial_index":147,"time_elapsed":852970,"internal_node_id":"0.0-122.0","task_version":"battery-v0.2-trt","session":2},{"rune":"W","rune_set":"bacs2","hex":"#f73b6a7A","correct":32,"choice":32,"rt":873.3300000894815,"accuracy":1,"outcome":"-1","keys":[2373.959999997169],"total_keys":1,"block":1,"trial":118,"stimulus":10,"robot":3,"valence":"lose","action":"go","sham":0,"trial_type":"pit-trial","trial_index":148,"time_elapsed":856551,"internal_node_id":"0.0-123.0","task_version":"battery-v0.2-trt","session":2},{"rune":"J","rune_set":"bacs2","hex":"#3366ff99","correct":-1,"choice":-1,"rt":-1,"accuracy":1,"outcome":"+10","keys":[],"total_keys":0,"block":1,"trial":119,"stimulus":11,"robot":2,"valence":"win","action":"no-go","sham":0,"trial_type":"pit-trial","trial_index":149,"time_elapsed":860556,"internal_node_id":"0.0-124.0","task_version":"battery-v0.2-trt","session":2},{"rune":"X","rune_set":"bacs2","hex":"#3366ff99","correct":-1,"choice":32,"rt":833.7199999950826,"accuracy":0,"outcome":"+1","keys":[2334.5849998295307],"total_keys":1,"block":1,"trial":120,"stimulus":9,"robot":2,"valence":"win","action":"no-go","sham":0,"trial_type":"pit-trial","trial_index":150,"time_elapsed":864095,"internal_node_id":"0.0-125.0","task_version":"battery-v0.2-trt","session":2},{"view_history":"[{\"page_index\":0,\"viewing_time\":178466.00500005297},{\"page_index\":1,\"viewing_time\":191280.06999986246}]","rt":369746.4700001292,"trial_type":"pit-instructions","trial_index":151,"time_elapsed":1233848,"internal_node_id":"0.0-126.0","task_version":"battery-v0.2-trt","session":2},{"rune":"M","rune_set":"bacs2","hex":"#3366ff99","correct":32,"choice":-1,"rt":-1,"accuracy":0,"outcome":"+1","keys":[3509.804999921471],"total_keys":1,"block":2,"trial":121,"stimulus":0,"robot":1,"valence":"win","action":"go","sham":0,"trial_type":"pit-trial","trial_index":152,"time_elapsed":1237853,"internal_node_id":"0.0-127.0","task_version":"battery-v0.2-trt","session":2},{"rune":"B","rune_set":"bacs2","hex":"#f73b6a7A","correct":32,"choice":32,"rt":927.1099998150021,"accuracy":1,"outcome":"-1","keys":[2428.425000049174],"total_keys":1,"block":2,"trial":122,"stimulus":1,"robot":3,"valence":"lose","action":"go","sham":0,"trial_type":"pit-trial","trial_index":153,"time_elapsed":1241484,"internal_node_id":"0.0-128.0","task_version":"battery-v0.2-trt","session":2},{"rune":"V","rune_set":"bacs2","hex":"#3366ff99","correct":-1,"choice":32,"rt":1003.9850000757724,"accuracy":0,"outcome":"+1","keys":[2504.719999851659],"total_keys":1,"block":2,"trial":123,"stimulus":3,"robot":2,"valence":"win","action":"no-go","sham":0,"trial_type":"pit-trial","trial_index":154,"time_elapsed":1245194,"internal_node_id":"0.0-129.0","task_version":"battery-v0.2-trt","session":2},{"rune":"K","rune_set":"bacs2","hex":"#f73b6a7A","correct":-1,"choice":-1,"rt":-1,"accuracy":1,"outcome":"-1","keys":[],"total_keys":0,"block":2,"trial":124,"stimulus":2,"robot":4,"valence":"lose","action":"no-go","sham":0,"trial_type":"pit-trial","trial_index":155,"time_elapsed":1249202,"internal_node_id":"0.0-130.0","task_version":"battery-v0.2-trt","session":2},{"rune":"M","rune_set":"bacs2","hex":"#3366ff99","correct":32,"choice":-1,"rt":-1,"accuracy":0,"outcome":"+1","keys":[],"total_keys":0,"block":2,"trial":125,"stimulus":0,"robot":1,"valence":"win","action":"go","sham":0,"trial_type":"pit-trial","trial_index":156,"time_elapsed":1253208,"internal_node_id":"0.0-131.0","task_version":"battery-v0.2-trt","session":2},{"rune":"V","rune_set":"bacs2","hex":"#3366ff99","correct":-1,"choice":32,"rt":783.3849999587983,"accuracy":0,"outcome":"+1","keys":[2284.724999917671],"total_keys":1,"block":2,"trial":126,"stimulus":3,"robot":2,"valence":"win","action":"no-go","sham":0,"trial_type":"pit-trial","trial_index":157,"time_elapsed":1256696,"internal_node_id":"0.0-132.0","task_version":"battery-v0.2-trt","session":2},{"rune":"B","rune_set":"bacs2","hex":"#f73b6a7A","correct":32,"choice":32,"rt":1098.6549998633564,"accuracy":1,"outcome":"-1","keys":[2599.4700000155717],"total_keys":1,"block":2,"trial":127,"stimulus":1,"robot":3,"valence":"lose","action":"go","sham":0,"trial_type":"pit-trial","trial_index":158,"time_elapsed":1260501,"internal_node_id":"0.0-133.0","task_version":"battery-v0.2-trt","session":2},{"rune":"K","rune_set":"bacs2","hex":"#f73b6a7A","correct":-1,"choice":-1,"rt":-1,"accuracy":1,"outcome":"-1","keys":[],"total_keys":0,"block":2,"trial":128,"stimulus":2,"robot":4,"valence":"lose","action":"no-go","sham":0,"trial_type":"pit-trial","trial_index":159,"time_elapsed":1264507,"internal_node_id":"0.0-134.0","task_version":"battery-v0.2-trt","session":2},{"rune":"V","rune_set":"bacs2","hex":"#3366ff99","correct":-1,"choice":-1,"rt":-1,"accuracy":1,"outcome":"+10","keys":[],"total_keys":0,"block":2,"trial":129,"stimulus":3,"robot":2,"valence":"win","action":"no-go","sham":0,"trial_type":"pit-trial","trial_index":160,"time_elapsed":1268512,"internal_node_id":"0.0-135.0","task_version":"battery-v0.2-trt","session":2},{"rune":"K","rune_set":"bacs2","hex":"#f73b6a7A","correct":-1,"choice":-1,"rt":-1,"accuracy":1,"outcome":"-1","keys":[],"total_keys":0,"block":2,"trial":130,"stimulus":2,"robot":4,"valence":"lose","action":"no-go","sham":0,"trial_type":"pit-trial","trial_index":161,"time_elapsed":1272519,"internal_node_id":"0.0-136.0","task_version":"battery-v0.2-trt","session":2},{"rune":"M","rune_set":"bacs2","hex":"#3366ff99","correct":32,"choice":32,"rt":1051.570000126958,"accuracy":1,"outcome":"+10","keys":[2553.150000050664],"total_keys":1,"block":2,"trial":131,"stimulus":0,"robot":1,"valence":"win","action":"go","sham":0,"trial_type":"pit-trial","trial_index":162,"time_elapsed":1276278,"internal_node_id":"0.0-137.0","task_version":"battery-v0.2-trt","session":2},{"rune":"B","rune_set":"bacs2","hex":"#f73b6a7A","correct":32,"choice":32,"rt":967.9800001904368,"accuracy":1,"outcome":"-1","keys":[2469.444999936968],"total_keys":1,"block":2,"trial":132,"stimulus":1,"robot":3,"valence":"lose","action":"go","sham":0,"trial_type":"pit-trial","trial_index":163,"time_elapsed":1279950,"internal_node_id":"0.0-138.0","task_version":"battery-v0.2-trt","session":2},{"rune":"M","rune_set":"bacs2","hex":"#3366ff99","correct":32,"choice":32,"rt":1073.1500000692904,"accuracy":1,"outcome":"+10","keys":[2573.839999968186],"total_keys":1,"block":2,"trial":133,"stimulus":0,"robot":1,"valence":"win","action":"go","sham":0,"trial_type":"pit-trial","trial_index":164,"time_elapsed":1283728,"internal_node_id":"0.0-139.0","task_version":"battery-v0.2-trt","session":2},{"rune":"K","rune_set":"bacs2","hex":"#f73b6a7A","correct":-1,"choice":-1,"rt":-1,"accuracy":1,"outcome":"-1","keys":[],"total_keys":0,"block":2,"trial":134,"stimulus":2,"robot":4,"valence":"lose","action":"no-go","sham":0,"trial_type":"pit-trial","trial_index":165,"time_elapsed":1287735,"internal_node_id":"0.0-140.0","task_version":"battery-v0.2-trt","session":2},{"rune":"B","rune_set":"bacs2","hex":"#f73b6a7A","correct":32,"choice":32,"rt":992.6700000651181,"accuracy":1,"outcome":"-1","keys":[2493.6499998439103],"total_keys":1,"block":2,"trial":135,"stimulus":1,"robot":3,"valence":"lose","action":"go","sham":0,"trial_type":"pit-trial","trial_index":166,"time_elapsed":1291435,"internal_node_id":"0.0-141.0","task_version":"battery-v0.2-trt","session":2},{"rune":"V","rune_set":"bacs2","hex":"#3366ff99","correct":-1,"choice":32,"rt":1163.2000000681728,"accuracy":0,"outcome":"+1","keys":[2663.9600000344217],"total_keys":1,"block":2,"trial":136,"stimulus":3,"robot":2,"valence":"win","action":"no-go","sham":0,"trial_type":"pit-trial","trial_index":167,"time_elapsed":1295303,"internal_node_id":"0.0-142.0","task_version":"battery-v0.2-trt","session":2},{"rune":"B","rune_set":"bacs2","hex":"#f73b6a7A","correct":32,"choice":32,"rt":1037.3099998105317,"accuracy":1,"outcome":"-1","keys":[2538.600000087172],"total_keys":1,"block":2,"trial":137,"stimulus":1,"robot":3,"valence":"lose","action":"go","sham":0,"trial_type":"pit-trial","trial_index":168,"time_elapsed":1299047,"internal_node_id":"0.0-143.0","task_version":"battery-v0.2-trt","session":2},{"rune":"V","rune_set":"bacs2","hex":"#3366ff99","correct":-1,"choice":32,"rt":975.6950000301003,"accuracy":0,"outcome":"+1","keys":[2476.0849999729544],"total_keys":1,"block":2,"trial":138,"stimulus":3,"robot":2,"valence":"win","action":"no-go","sham":0,"trial_type":"pit-trial","trial_index":169,"time_elapsed":1302728,"internal_node_id":"0.0-144.0","task_version":"battery-v0.2-trt","session":2},{"rune":"M","rune_set":"bacs2","hex":"#3366ff99","correct":32,"choice":32,"rt":919.5900000631809,"accuracy":1,"outcome":"+10","keys":[2420.5750001128763],"total_keys":1,"block":2,"trial":139,"stimulus":0,"robot":1,"valence":"win","action":"go","sham":0,"trial_type":"pit-trial","trial_index":170,"time_elapsed":1306354,"internal_node_id":"0.0-145.0","task_version":"battery-v0.2-trt","session":2},{"rune":"K","rune_set":"bacs2","hex":"#f73b6a7A","correct":-1,"choice":-1,"rt":-1,"accuracy":1,"outcome":"-1","keys":[],"total_keys":0,"block":2,"trial":140,"stimulus":2,"robot":4,"valence":"lose","action":"no-go","sham":0,"trial_type":"pit-trial","trial_index":171,"time_elapsed":1310362,"internal_node_id":"0.0-146.0","task_version":"battery-v0.2-trt","session":2},{"rune":"B","rune_set":"bacs2","hex":"#f73b6a7A","correct":32,"choice":32,"rt":714.5899999886751,"accuracy":1,"outcome":"-1","keys":[2214.5650000311434],"total_keys":1,"block":2,"trial":141,"stimulus":1,"robot":3,"valence":"lose","action":"go","sham":0,"trial_type":"pit-trial","trial_index":172,"time_elapsed":1313783,"internal_node_id":"0.0-147.0","task_version":"battery-v0.2-trt","session":2},{"rune":"V","rune_set":"bacs2","hex":"#3366ff99","correct":-1,"choice":-1,"rt":-1,"accuracy":1,"outcome":"+1","keys":[],"total_keys":0,"block":2,"trial":142,"stimulus":3,"robot":2,"valence":"win","action":"no-go","sham":1,"trial_type":"pit-trial","trial_index":173,"time_elapsed":1317797,"internal_node_id":"0.0-148.0","task_version":"battery-v0.2-trt","session":2},{"rune":"K","rune_set":"bacs2","hex":"#f73b6a7A","correct":-1,"choice":-1,"rt":-1,"accuracy":1,"outcome":"-1","keys":[],"total_keys":0,"block":2,"trial":143,"stimulus":2,"robot":4,"valence":"lose","action":"no-go","sham":0,"trial_type":"pit-trial","trial_index":174,"time_elapsed":1321801,"internal_node_id":"0.0-149.0","task_version":"battery-v0.2-trt","session":2},{"rune":"M","rune_set":"bacs2","hex":"#3366ff99","correct":32,"choice":32,"rt":786.0050001181662,"accuracy":1,"outcome":"+10","keys":[2286.7300000507385],"total_keys":1,"block":2,"trial":144,"stimulus":0,"robot":1,"valence":"win","action":"go","sham":0,"trial_type":"pit-trial","trial_index":175,"time_elapsed":1325291,"internal_node_id":"0.0-150.0","task_version":"battery-v0.2-trt","session":2},{"rune":"K","rune_set":"bacs2","hex":"#f73b6a7A","correct":-1,"choice":-1,"rt":-1,"accuracy":1,"outcome":"-10","keys":[],"total_keys":0,"block":2,"trial":145,"stimulus":2,"robot":4,"valence":"lose","action":"no-go","sham":1,"trial_type":"pit-trial","trial_index":176,"time_elapsed":1329295,"internal_node_id":"0.0-151.0","task_version":"battery-v0.2-trt","session":2},{"rune":"V","rune_set":"bacs2","hex":"#3366ff99","correct":-1,"choice":-1,"rt":-1,"accuracy":1,"outcome":"+10","keys":[],"total_keys":0,"block":2,"trial":146,"stimulus":3,"robot":2,"valence":"win","action":"no-go","sham":0,"trial_type":"pit-trial","trial_index":177,"time_elapsed":1333301,"internal_node_id":"0.0-152.0","task_version":"battery-v0.2-trt","session":2},{"rune":"B","rune_set":"bacs2","hex":"#f73b6a7A","correct":32,"choice":32,"rt":647.5900001823902,"accuracy":1,"outcome":"-1","keys":[2147.9250001721084],"total_keys":1,"block":2,"trial":147,"stimulus":1,"robot":3,"valence":"lose","action":"go","sham":0,"trial_type":"pit-trial","trial_index":178,"time_elapsed":1336653,"internal_node_id":"0.0-153.0","task_version":"battery-v0.2-trt","session":2},{"rune":"M","rune_set":"bacs2","hex":"#3366ff99","correct":32,"choice":32,"rt":699.8899998143315,"accuracy":1,"outcome":"+1","keys":[2201.094999909401],"total_keys":1,"block":2,"trial":148,"stimulus":0,"robot":1,"valence":"win","action":"go","sham":1,"trial_type":"pit-trial","trial_index":179,"time_elapsed":1340058,"internal_node_id":"0.0-154.0","task_version":"battery-v0.2-trt","session":2},{"rune":"K","rune_set":"bacs2","hex":"#f73b6a7A","correct":-1,"choice":32,"rt":741.9300000183284,"accuracy":0,"outcome":"-10","keys":[2243.449999950826],"total_keys":1,"block":2,"trial":149,"stimulus":2,"robot":4,"valence":"lose","action":"no-go","sham":0,"trial_type":"pit-trial","trial_index":180,"time_elapsed":1343509,"internal_node_id":"0.0-155.0","task_version":"battery-v0.2-trt","session":2},{"rune":"B","rune_set":"bacs2","hex":"#f73b6a7A","correct":32,"choice":32,"rt":643.6400001402944,"accuracy":1,"outcome":"-1","keys":[2145.015000132844],"total_keys":1,"block":2,"trial":150,"stimulus":1,"robot":3,"valence":"lose","action":"go","sham":0,"trial_type":"pit-trial","trial_index":181,"time_elapsed":1346859,"internal_node_id":"0.0-156.0","task_version":"battery-v0.2-trt","session":2},{"rune":"M","rune_set":"bacs2","hex":"#3366ff99","correct":32,"choice":-1,"rt":-1,"accuracy":0,"outcome":"+1","keys":[],"total_keys":0,"block":2,"trial":151,"stimulus":0,"robot":1,"valence":"win","action":"go","sham":0,"trial_type":"pit-trial","trial_index":182,"time_elapsed":1350866,"internal_node_id":"0.0-157.0","task_version":"battery-v0.2-trt","session":2},{"rune":"V","rune_set":"bacs2","hex":"#3366ff99","correct":-1,"choice":-1,"rt":-1,"accuracy":1,"outcome":"+10","keys":[],"total_keys":0,"block":2,"trial":152,"stimulus":3,"robot":2,"valence":"win","action":"no-go","sham":0,"trial_type":"pit-trial","trial_index":183,"time_elapsed":1354871,"internal_node_id":"0.0-158.0","task_version":"battery-v0.2-trt","session":2},{"rune":"B","rune_set":"bacs2","hex":"#f73b6a7A","correct":32,"choice":32,"rt":447.5700000766665,"accuracy":1,"outcome":"-1","keys":[1948.2799998950213],"total_keys":1,"block":2,"trial":153,"stimulus":1,"robot":3,"valence":"lose","action":"go","sham":0,"trial_type":"pit-trial","trial_index":184,"time_elapsed":1358029,"internal_node_id":"0.0-159.0","task_version":"battery-v0.2-trt","session":2},{"rune":"R","rune_set":"bacs2","hex":"#f73b6a7A","correct":-1,"choice":-1,"rt":-1,"accuracy":1,"outcome":"-1","keys":[],"total_keys":0,"block":2,"trial":154,"stimulus":4,"robot":4,"valence":"lose","action":"no-go","sham":0,"trial_type":"pit-trial","trial_index":185,"time_elapsed":1362036,"internal_node_id":"0.0-160.0","task_version":"battery-v0.2-trt","session":2},{"rune":"M","rune_set":"bacs2","hex":"#3366ff99","correct":32,"choice":32,"rt":728.1799998600036,"accuracy":1,"outcome":"+10","keys":[2228.40499994345],"total_keys":1,"block":2,"trial":155,"stimulus":0,"robot":1,"valence":"win","action":"go","sham":0,"trial_type":"pit-trial","trial_index":186,"time_elapsed":1365468,"internal_node_id":"0.0-161.0","task_version":"battery-v0.2-trt","session":2},{"rune":"V","rune_set":"bacs2","hex":"#3366ff99","correct":-1,"choice":-1,"rt":-1,"accuracy":1,"outcome":"+1","keys":[],"total_keys":0,"block":2,"trial":156,"stimulus":3,"robot":2,"valence":"win","action":"no-go","sham":1,"trial_type":"pit-trial","trial_index":187,"time_elapsed":1369474,"internal_node_id":"0.0-162.0","task_version":"battery-v0.2-trt","session":2},{"rune":"B","rune_set":"bacs2","hex":"#f73b6a7A","correct":32,"choice":32,"rt":517.1449999324977,"accuracy":1,"outcome":"-1","keys":[2018.0850001052022],"total_keys":1,"block":2,"trial":157,"stimulus":1,"robot":3,"valence":"lose","action":"go","sham":0,"trial_type":"pit-trial","trial_index":188,"time_elapsed":1372699,"internal_node_id":"0.0-163.0","task_version":"battery-v0.2-trt","session":2},{"rune":"R","rune_set":"bacs2","hex":"#f73b6a7A","correct":-1,"choice":-1,"rt":-1,"accuracy":1,"outcome":"-10","keys":[],"total_keys":0,"block":2,"trial":158,"stimulus":4,"robot":4,"valence":"lose","action":"no-go","sham":1,"trial_type":"pit-trial","trial_index":189,"time_elapsed":1376703,"internal_node_id":"0.0-164.0","task_version":"battery-v0.2-trt","session":2},{"rune":"M","rune_set":"bacs2","hex":"#3366ff99","correct":32,"choice":32,"rt":771.5600000228733,"accuracy":1,"outcome":"+10","keys":[2272.9299999773502],"total_keys":1,"block":2,"trial":159,"stimulus":0,"robot":1,"valence":"win","action":"go","sham":0,"trial_type":"pit-trial","trial_index":190,"time_elapsed":1380183,"internal_node_id":"0.0-165.0","task_version":"battery-v0.2-trt","session":2},{"rune":"V","rune_set":"bacs2","hex":"#3366ff99","correct":-1,"choice":32,"rt":1065.6899998430163,"accuracy":0,"outcome":"+1","keys":[2566.869999980554],"total_keys":1,"block":2,"trial":160,"stimulus":3,"robot":2,"valence":"win","action":"no-go","sham":0,"trial_type":"pit-trial","trial_index":191,"time_elapsed":1383956,"internal_node_id":"0.0-166.0","task_version":"battery-v0.2-trt","session":2},{"rune":"V","rune_set":"bacs2","hex":"#3366ff99","correct":-1,"choice":32,"rt":978.7049998994917,"accuracy":0,"outcome":"+1","keys":[2479.4600000604987],"total_keys":1,"block":2,"trial":161,"stimulus":3,"robot":2,"valence":"win","action":"no-go","sham":0,"trial_type":"pit-trial","trial_index":192,"time_elapsed":1387640,"internal_node_id":"0.0-167.0","task_version":"battery-v0.2-trt","session":2},{"rune":"M","rune_set":"bacs2","hex":"#3366ff99","correct":32,"choice":32,"rt":709.3500001356006,"accuracy":1,"outcome":"+10","keys":[2210.2350001223385],"total_keys":1,"block":2,"trial":162,"stimulus":0,"robot":1,"valence":"win","action":"go","sham":0,"trial_type":"pit-trial","trial_index":193,"time_elapsed":1391056,"internal_node_id":"0.0-168.0","task_version":"battery-v0.2-trt","session":2},{"rune":"P","rune_set":"bacs2","hex":"#f73b6a7A","correct":32,"choice":32,"rt":859.764999942854,"accuracy":1,"outcome":"-1","keys":[2361.100000096485],"total_keys":1,"block":2,"trial":163,"stimulus":5,"robot":3,"valence":"lose","action":"go","sham":0,"trial_type":"pit-trial","trial_index":194,"time_elapsed":1394621,"internal_node_id":"0.0-169.0","task_version":"battery-v0.2-trt","session":2},{"rune":"R","rune_set":"bacs2","hex":"#f73b6a7A","correct":-1,"choice":32,"rt":721.1499998811632,"accuracy":0,"outcome":"-10","keys":[2222.2100000362843],"total_keys":1,"block":2,"trial":164,"stimulus":4,"robot":4,"valence":"lose","action":"no-go","sham":0,"trial_type":"pit-trial","trial_index":195,"time_elapsed":1398049,"internal_node_id":"0.0-170.0","task_version":"battery-v0.2-trt","session":2},{"rune":"V","rune_set":"bacs2","hex":"#3366ff99","correct":-1,"choice":32,"rt":985.734999878332,"accuracy":0,"outcome":"+10","keys":[2486.670000012964],"total_keys":1,"block":2,"trial":165,"stimulus":3,"robot":2,"valence":"win","action":"no-go","sham":1,"trial_type":"pit-trial","trial_index":196,"time_elapsed":1401742,"internal_node_id":"0.0-171.0","task_version":"battery-v0.2-trt","session":2},{"rune":"P","rune_set":"bacs2","hex":"#f73b6a7A","correct":32,"choice":32,"rt":749.7300000395626,"accuracy":1,"outcome":"-1","keys":[2250.6450000219047],"total_keys":1,"block":2,"trial":166,"stimulus":5,"robot":3,"valence":"lose","action":"go","sham":0,"trial_type":"pit-trial","trial_index":197,"time_elapsed":1405200,"internal_node_id":"0.0-172.0","task_version":"battery-v0.2-trt","session":2},{"rune":"R","rune_set":"bacs2","hex":"#f73b6a7A","correct":-1,"choice":32,"rt":862.8500001505017,"accuracy":0,"outcome":"-1","keys":[2363.60999988392],"total_keys":1,"block":2,"trial":167,"stimulus":4,"robot":4,"valence":"lose","action":"no-go","sham":1,"trial_type":"pit-trial","trial_index":198,"time_elapsed":1408771,"internal_node_id":"0.0-173.0","task_version":"battery-v0.2-trt","session":2},{"rune":"M","rune_set":"bacs2","hex":"#3366ff99","correct":32,"choice":32,"rt":894.3000000435859,"accuracy":1,"outcome":"+10","keys":[2394.8099999688566],"total_keys":1,"block":2,"trial":168,"stimulus":0,"robot":1,"valence":"win","action":"go","sham":0,"trial_type":"pit-trial","trial_index":199,"time_elapsed":1412372,"internal_node_id":"0.0-174.0","task_version":"battery-v0.2-trt","session":2},{"rune":"P","rune_set":"bacs2","hex":"#f73b6a7A","correct":32,"choice":32,"rt":668.6299999710172,"accuracy":1,"outcome":"-1","keys":[2172.3650000058115],"total_keys":1,"block":2,"trial":169,"stimulus":5,"robot":3,"valence":"lose","action":"go","sham":0,"trial_type":"pit-trial","trial_index":200,"time_elapsed":1415752,"internal_node_id":"0.0-175.0","task_version":"battery-v0.2-trt","session":2},{"rune":"L","rune_set":"bacs2","hex":"#3366ff99","correct":-1,"choice":-1,"rt":-1,"accuracy":1,"outcome":"+10","keys":[],"total_keys":0,"block":2,"trial":170,"stimulus":6,"robot":2,"valence":"win","action":"no-go","sham":0,"trial_type":"pit-trial","trial_index":201,"time_elapsed":1419758,"internal_node_id":"0.0-176.0","task_version":"battery-v0.2-trt","session":2},{"rune":"S","rune_set":"bacs2","hex":"#3366ff99","correct":-1,"choice":-1,"rt":-1,"accuracy":1,"outcome":"+10","keys":[],"total_keys":0,"block":2,"trial":171,"stimulus":7,"robot":2,"valence":"win","action":"no-go","sham":0,"trial_type":"pit-trial","trial_index":202,"time_elapsed":1423763,"internal_node_id":"0.0-177.0","task_version":"battery-v0.2-trt","session":2},{"rune":"R","rune_set":"bacs2","hex":"#f73b6a7A","correct":-1,"choice":32,"rt":803.3000000286847,"accuracy":0,"outcome":"-1","keys":[2303.8099999539554],"total_keys":1,"block":2,"trial":172,"stimulus":4,"robot":4,"valence":"lose","action":"no-go","sham":1,"trial_type":"pit-trial","trial_index":203,"time_elapsed":1427275,"internal_node_id":"0.0-178.0","task_version":"battery-v0.2-trt","session":2},{"rune":"S","rune_set":"bacs2","hex":"#3366ff99","correct":-1,"choice":-1,"rt":-1,"accuracy":1,"outcome":"+1","keys":[3478.279999922961],"total_keys":1,"block":2,"trial":173,"stimulus":7,"robot":2,"valence":"win","action":"no-go","sham":1,"trial_type":"pit-trial","trial_index":204,"time_elapsed":1431283,"internal_node_id":"0.0-179.0","task_version":"battery-v0.2-trt","session":2},{"rune":"L","rune_set":"bacs2","hex":"#3366ff99","correct":-1,"choice":-1,"rt":-1,"accuracy":1,"outcome":"+10","keys":[],"total_keys":0,"block":2,"trial":174,"stimulus":6,"robot":2,"valence":"win","action":"no-go","sham":0,"trial_type":"pit-trial","trial_index":205,"time_elapsed":1435292,"internal_node_id":"0.0-180.0","task_version":"battery-v0.2-trt","session":2},{"rune":"P","rune_set":"bacs2","hex":"#f73b6a7A","correct":32,"choice":32,"rt":908.3200001623482,"accuracy":1,"outcome":"-10","keys":[2408.9800000656396],"total_keys":1,"block":2,"trial":175,"stimulus":5,"robot":3,"valence":"lose","action":"go","sham":1,"trial_type":"pit-trial","trial_index":206,"time_elapsed":1438908,"internal_node_id":"0.0-181.0","task_version":"battery-v0.2-trt","session":2},{"rune":"R","rune_set":"bacs2","hex":"#f73b6a7A","correct":-1,"choice":32,"rt":843.0350001435727,"accuracy":0,"outcome":"-10","keys":[2343.634999822825],"total_keys":1,"block":2,"trial":176,"stimulus":4,"robot":4,"valence":"lose","action":"no-go","sham":0,"trial_type":"pit-trial","trial_index":207,"time_elapsed":1442458,"internal_node_id":"0.0-182.0","task_version":"battery-v0.2-trt","session":2},{"rune":"L","rune_set":"bacs2","hex":"#3366ff99","correct":-1,"choice":-1,"rt":-1,"accuracy":1,"outcome":"+10","keys":[],"total_keys":0,"block":2,"trial":177,"stimulus":6,"robot":2,"valence":"win","action":"no-go","sham":0,"trial_type":"pit-trial","trial_index":208,"time_elapsed":1446465,"internal_node_id":"0.0-183.0","task_version":"battery-v0.2-trt","session":2},{"rune":"R","rune_set":"bacs2","hex":"#f73b6a7A","correct":-1,"choice":32,"rt":1030.5200000293553,"accuracy":0,"outcome":"-10","keys":[2530.6049999780953],"total_keys":1,"block":2,"trial":178,"stimulus":4,"robot":4,"valence":"lose","action":"no-go","sham":0,"trial_type":"pit-trial","trial_index":209,"time_elapsed":1450203,"internal_node_id":"0.0-184.0","task_version":"battery-v0.2-trt","session":2},{"rune":"S","rune_set":"bacs2","hex":"#3366ff99","correct":-1,"choice":-1,"rt":-1,"accuracy":1,"outcome":"+10","keys":[],"total_keys":0,"block":2,"trial":179,"stimulus":7,"robot":2,"valence":"win","action":"no-go","sham":0,"trial_type":"pit-trial","trial_index":210,"time_elapsed":1454211,"internal_node_id":"0.0-185.0","task_version":"battery-v0.2-trt","session":2},{"rune":"P","rune_set":"bacs2","hex":"#f73b6a7A","correct":32,"choice":32,"rt":936.2899998668581,"accuracy":1,"outcome":"-1","keys":[2436.9500000029802],"total_keys":1,"block":2,"trial":180,"stimulus":5,"robot":3,"valence":"lose","action":"go","sham":0,"trial_type":"pit-trial","trial_index":211,"time_elapsed":1457856,"internal_node_id":"0.0-186.0","task_version":"battery-v0.2-trt","session":2},{"rune":"L","rune_set":"bacs2","hex":"#3366ff99","correct":-1,"choice":-1,"rt":-1,"accuracy":1,"outcome":"+1","keys":[],"total_keys":0,"block":2,"trial":181,"stimulus":6,"robot":2,"valence":"win","action":"no-go","sham":1,"trial_type":"pit-trial","trial_index":212,"time_elapsed":1461864,"internal_node_id":"0.0-187.0","task_version":"battery-v0.2-trt","session":2},{"rune":"P","rune_set":"bacs2","hex":"#f73b6a7A","correct":32,"choice":32,"rt":965.4550000559539,"accuracy":1,"outcome":"-1","keys":[2467.3750000074506],"total_keys":1,"block":2,"trial":182,"stimulus":5,"robot":3,"valence":"lose","action":"go","sham":0,"trial_type":"pit-trial","trial_index":213,"time_elapsed":1465540,"internal_node_id":"0.0-188.0","task_version":"battery-v0.2-trt","session":2},{"rune":"S","rune_set":"bacs2","hex":"#3366ff99","correct":-1,"choice":-1,"rt":-1,"accuracy":1,"outcome":"+10","keys":[],"total_keys":0,"block":2,"trial":183,"stimulus":7,"robot":2,"valence":"win","action":"no-go","sham":0,"trial_type":"pit-trial","trial_index":214,"time_elapsed":1469546,"internal_node_id":"0.0-189.0","task_version":"battery-v0.2-trt","session":2},{"rune":"R","rune_set":"bacs2","hex":"#f73b6a7A","correct":-1,"choice":32,"rt":687.1650000102818,"accuracy":0,"outcome":"-10","keys":[2188.6199999134988],"total_keys":1,"block":2,"trial":184,"stimulus":4,"robot":4,"valence":"lose","action":"no-go","sham":0,"trial_type":"pit-trial","trial_index":215,"time_elapsed":1472940,"internal_node_id":"0.0-190.0","task_version":"battery-v0.2-trt","session":2},{"rune":"L","rune_set":"bacs2","hex":"#3366ff99","correct":-1,"choice":32,"rt":588.285000063479,"accuracy":0,"outcome":"+1","keys":[2089.000000152737],"total_keys":1,"block":2,"trial":185,"stimulus":6,"robot":2,"valence":"win","action":"no-go","sham":0,"trial_type":"pit-trial","trial_index":216,"time_elapsed":1476238,"internal_node_id":"0.0-191.0","task_version":"battery-v0.2-trt","session":2},{"rune":"S","rune_set":"bacs2","hex":"#3366ff99","correct":-1,"choice":-1,"rt":-1,"accuracy":1,"outcome":"+10","keys":[],"total_keys":0,"block":2,"trial":186,"stimulus":7,"robot":2,"valence":"win","action":"no-go","sham":0,"trial_type":"pit-trial","trial_index":217,"time_elapsed":1480246,"internal_node_id":"0.0-192.0","task_version":"battery-v0.2-trt","session":2},{"rune":"R","rune_set":"bacs2","hex":"#f73b6a7A","correct":-1,"choice":-1,"rt":-1,"accuracy":1,"outcome":"-1","keys":[],"total_keys":0,"block":2,"trial":187,"stimulus":4,"robot":4,"valence":"lose","action":"no-go","sham":0,"trial_type":"pit-trial","trial_index":218,"time_elapsed":1484250,"internal_node_id":"0.0-193.0","task_version":"battery-v0.2-trt","session":2},{"rune":"P","rune_set":"bacs2","hex":"#f73b6a7A","correct":32,"choice":32,"rt":1054.0950000286102,"accuracy":1,"outcome":"-10","keys":[2555.360000114888],"total_keys":1,"block":2,"trial":188,"stimulus":5,"robot":3,"valence":"lose","action":"go","sham":1,"trial_type":"pit-trial","trial_index":219,"time_elapsed":1488008,"internal_node_id":"0.0-194.0","task_version":"battery-v0.2-trt","session":2},{"rune":"P","rune_set":"bacs2","hex":"#f73b6a7A","correct":32,"choice":-1,"rt":-1,"accuracy":0,"outcome":"-10","keys":[],"total_keys":0,"block":2,"trial":189,"stimulus":5,"robot":3,"valence":"lose","action":"go","sham":0,"trial_type":"pit-trial","trial_index":220,"time_elapsed":1492014,"internal_node_id":"0.0-195.0","task_version":"battery-v0.2-trt","session":2},{"rune":"L","rune_set":"bacs2","hex":"#3366ff99","correct":-1,"choice":32,"rt":957.4049999937415,"accuracy":0,"outcome":"+1","keys":[2458.749999990687],"total_keys":1,"block":2,"trial":190,"stimulus":6,"robot":2,"valence":"win","action":"no-go","sham":0,"trial_type":"pit-trial","trial_index":221,"time_elapsed":1495678,"internal_node_id":"0.0-196.0","task_version":"battery-v0.2-trt","session":2},{"rune":"R","rune_set":"bacs2","hex":"#f73b6a7A","correct":-1,"choice":32,"rt":880.7200000155717,"accuracy":0,"outcome":"-10","keys":[2382.2399999480695],"total_keys":1,"block":2,"trial":191,"stimulus":4,"robot":4,"valence":"lose","action":"no-go","sham":0,"trial_type":"pit-trial","trial_index":222,"time_elapsed":1499269,"internal_node_id":"0.0-197.0","task_version":"battery-v0.2-trt","session":2},{"rune":"S","rune_set":"bacs2","hex":"#3366ff99","correct":-1,"choice":-1,"rt":-1,"accuracy":1,"outcome":"+10","keys":[],"total_keys":0,"block":2,"trial":192,"stimulus":7,"robot":2,"valence":"win","action":"no-go","sham":0,"trial_type":"pit-trial","trial_index":223,"time_elapsed":1503273,"internal_node_id":"0.0-198.0","task_version":"battery-v0.2-trt","session":2},{"rune":"R","rune_set":"bacs2","hex":"#f73b6a7A","correct":-1,"choice":-1,"rt":-1,"accuracy":1,"outcome":"-1","keys":[],"total_keys":0,"block":2,"trial":193,"stimulus":4,"robot":4,"valence":"lose","action":"no-go","sham":0,"trial_type":"pit-trial","trial_index":224,"time_elapsed":1507282,"internal_node_id":"0.0-199.0","task_version":"battery-v0.2-trt","session":2},{"rune":"P","rune_set":"bacs2","hex":"#f73b6a7A","correct":32,"choice":-1,"rt":-1,"accuracy":0,"outcome":"-10","keys":[],"total_keys":0,"block":2,"trial":194,"stimulus":5,"robot":3,"valence":"lose","action":"go","sham":0,"trial_type":"pit-trial","trial_index":225,"time_elapsed":1511288,"internal_node_id":"0.0-200.0","task_version":"battery-v0.2-trt","session":2},{"rune":"S","rune_set":"bacs2","hex":"#3366ff99","correct":-1,"choice":-1,"rt":-1,"accuracy":1,"outcome":"+10","keys":[],"total_keys":0,"block":2,"trial":195,"stimulus":7,"robot":2,"valence":"win","action":"no-go","sham":0,"trial_type":"pit-trial","trial_index":226,"time_elapsed":1515294,"internal_node_id":"0.0-201.0","task_version":"battery-v0.2-trt","session":2},{"rune":"L","rune_set":"bacs2","hex":"#3366ff99","correct":-1,"choice":32,"rt":795.3650001436472,"accuracy":0,"outcome":"+1","keys":[2295.4749998170882],"total_keys":1,"block":2,"trial":196,"stimulus":6,"robot":2,"valence":"win","action":"no-go","sham":0,"trial_type":"pit-trial","trial_index":227,"time_elapsed":1518797,"internal_node_id":"0.0-202.0","task_version":"battery-v0.2-trt","session":2},{"rune":"R","rune_set":"bacs2","hex":"#f73b6a7A","correct":-1,"choice":32,"rt":1051.4199999161065,"accuracy":0,"outcome":"-10","keys":[2552.600000053644],"total_keys":1,"block":2,"trial":197,"stimulus":4,"robot":4,"valence":"lose","action":"no-go","sham":0,"trial_type":"pit-trial","trial_index":228,"time_elapsed":1522556,"internal_node_id":"0.0-203.0","task_version":"battery-v0.2-trt","session":2},{"rune":"S","rune_set":"bacs2","hex":"#3366ff99","correct":-1,"choice":-1,"rt":-1,"accuracy":1,"outcome":"+10","keys":[],"total_keys":0,"block":2,"trial":198,"stimulus":7,"robot":2,"valence":"win","action":"no-go","sham":0,"trial_type":"pit-trial","trial_index":229,"time_elapsed":1526562,"internal_node_id":"0.0-204.0","task_version":"battery-v0.2-trt","session":2},{"rune":"L","rune_set":"bacs2","hex":"#3366ff99","correct":-1,"choice":-1,"rt":-1,"accuracy":1,"outcome":"+10","keys":[],"total_keys":0,"block":2,"trial":199,"stimulus":6,"robot":2,"valence":"win","action":"no-go","sham":0,"trial_type":"pit-trial","trial_index":230,"time_elapsed":1530569,"internal_node_id":"0.0-205.0","task_version":"battery-v0.2-trt","session":2},{"rune":"P","rune_set":"bacs2","hex":"#f73b6a7A","correct":32,"choice":-1,"rt":-1,"accuracy":0,"outcome":"-1","keys":[],"total_keys":0,"block":2,"trial":200,"stimulus":5,"robot":3,"valence":"lose","action":"go","sham":1,"trial_type":"pit-trial","trial_index":231,"time_elapsed":1534578,"internal_node_id":"0.0-206.0","task_version":"battery-v0.2-trt","session":2},{"rune":"U","rune_set":"bacs2","hex":"#3366ff99","correct":32,"choice":-1,"rt":-1,"accuracy":0,"outcome":"+1","keys":[3593.5100000351667],"total_keys":1,"block":2,"trial":201,"stimulus":8,"robot":1,"valence":"win","action":"go","sham":0,"trial_type":"pit-trial","trial_index":232,"time_elapsed":1538585,"internal_node_id":"0.0-207.0","task_version":"battery-v0.2-trt","session":2},{"rune":"S","rune_set":"bacs2","hex":"#3366ff99","correct":-1,"choice":-1,"rt":-1,"accuracy":1,"outcome":"+10","keys":[],"total_keys":0,"block":2,"trial":202,"stimulus":7,"robot":2,"valence":"win","action":"no-go","sham":0,"trial_type":"pit-trial","trial_index":233,"time_elapsed":1542590,"internal_node_id":"0.0-208.0","task_version":"battery-v0.2-trt","session":2},{"rune":"A","rune_set":"bacs2","hex":"#f73b6a7A","correct":-1,"choice":32,"rt":796.5349999722093,"accuracy":0,"outcome":"-1","keys":[2297.770000062883],"total_keys":1,"block":2,"trial":203,"stimulus":9,"robot":4,"valence":"lose","action":"no-go","sham":1,"trial_type":"pit-trial","trial_index":234,"time_elapsed":1546092,"internal_node_id":"0.0-209.0","task_version":"battery-v0.2-trt","session":2},{"rune":"P","rune_set":"bacs2","hex":"#f73b6a7A","correct":32,"choice":-1,"rt":-1,"accuracy":0,"outcome":"-10","keys":[],"total_keys":0,"block":2,"trial":204,"stimulus":5,"robot":3,"valence":"lose","action":"go","sham":0,"trial_type":"pit-trial","trial_index":235,"time_elapsed":1550097,"internal_node_id":"0.0-210.0","task_version":"battery-v0.2-trt","session":2},{"rune":"S","rune_set":"bacs2","hex":"#3366ff99","correct":-1,"choice":-1,"rt":-1,"accuracy":1,"outcome":"+10","keys":[],"total_keys":0,"block":2,"trial":205,"stimulus":7,"robot":2,"valence":"win","action":"no-go","sham":0,"trial_type":"pit-trial","trial_index":236,"time_elapsed":1554112,"internal_node_id":"0.0-211.0","task_version":"battery-v0.2-trt","session":2},{"rune":"U","rune_set":"bacs2","hex":"#3366ff99","correct":32,"choice":32,"rt":683.5600000340492,"accuracy":1,"outcome":"+10","keys":[2183.6549998261034],"total_keys":1,"block":2,"trial":206,"stimulus":8,"robot":1,"valence":"win","action":"go","sham":0,"trial_type":"pit-trial","trial_index":237,"time_elapsed":1557503,"internal_node_id":"0.0-212.0","task_version":"battery-v0.2-trt","session":2},{"rune":"P","rune_set":"bacs2","hex":"#f73b6a7A","correct":32,"choice":32,"rt":866.2350000813603,"accuracy":1,"outcome":"-1","keys":[2366.3399999495596],"total_keys":1,"block":2,"trial":207,"stimulus":5,"robot":3,"valence":"lose","action":"go","sham":0,"trial_type":"pit-trial","trial_index":238,"time_elapsed":1561075,"internal_node_id":"0.0-213.0","task_version":"battery-v0.2-trt","session":2},{"rune":"A","rune_set":"bacs2","hex":"#f73b6a7A","correct":-1,"choice":32,"rt":844.1749999765307,"accuracy":0,"outcome":"-10","keys":[2345.024999929592],"total_keys":1,"block":2,"trial":208,"stimulus":9,"robot":4,"valence":"lose","action":"no-go","sham":0,"trial_type":"pit-trial","trial_index":239,"time_elapsed":1564624,"internal_node_id":"0.0-214.0","task_version":"battery-v0.2-trt","session":2},{"rune":"N","rune_set":"bacs2","hex":"#3366ff99","correct":32,"choice":-1,"rt":-1,"accuracy":0,"outcome":"+1","keys":[],"total_keys":0,"block":2,"trial":209,"stimulus":11,"robot":1,"valence":"win","action":"go","sham":0,"trial_type":"pit-trial","trial_index":240,"time_elapsed":1568629,"internal_node_id":"0.0-215.0","task_version":"battery-v0.2-trt","session":2},{"rune":"A","rune_set":"bacs2","hex":"#f73b6a7A","correct":-1,"choice":32,"rt":1060.8700001612306,"accuracy":0,"outcome":"-10","keys":[2561.2850000616163],"total_keys":1,"block":2,"trial":210,"stimulus":9,"robot":4,"valence":"lose","action":"no-go","sham":0,"trial_type":"pit-trial","trial_index":241,"time_elapsed":1572395,"internal_node_id":"0.0-216.0","task_version":"battery-v0.2-trt","session":2},{"rune":"F","rune_set":"bacs2","hex":"#f73b6a7A","correct":32,"choice":-1,"rt":-1,"accuracy":0,"outcome":"-10","keys":[],"total_keys":0,"block":2,"trial":211,"stimulus":10,"robot":3,"valence":"lose","action":"go","sham":0,"trial_type":"pit-trial","trial_index":242,"time_elapsed":1576399,"internal_node_id":"0.0-217.0","task_version":"battery-v0.2-trt","session":2},{"rune":"U","rune_set":"bacs2","hex":"#3366ff99","correct":32,"choice":32,"rt":751.0900001507252,"accuracy":1,"outcome":"+1","keys":[2252.1749997977167],"total_keys":1,"block":2,"trial":212,"stimulus":8,"robot":1,"valence":"win","action":"go","sham":1,"trial_type":"pit-trial","trial_index":243,"time_elapsed":1579854,"internal_node_id":"0.0-218.0","task_version":"battery-v0.2-trt","session":2},{"rune":"N","rune_set":"bacs2","hex":"#3366ff99","correct":32,"choice":32,"rt":743.8400001265109,"accuracy":1,"outcome":"+1","keys":[2245.0199997983873],"total_keys":1,"block":2,"trial":213,"stimulus":11,"robot":1,"valence":"win","action":"go","sham":1,"trial_type":"pit-trial","trial_index":244,"time_elapsed":1583303,"internal_node_id":"0.0-219.0","task_version":"battery-v0.2-trt","session":2},{"rune":"F","rune_set":"bacs2","hex":"#f73b6a7A","correct":32,"choice":-1,"rt":-1,"accuracy":0,"outcome":"-10","keys":[],"total_keys":0,"block":2,"trial":214,"stimulus":10,"robot":3,"valence":"lose","action":"go","sham":0,"trial_type":"pit-trial","trial_index":245,"time_elapsed":1587311,"internal_node_id":"0.0-220.0","task_version":"battery-v0.2-trt","session":2},{"rune":"U","rune_set":"bacs2","hex":"#3366ff99","correct":32,"choice":32,"rt":1187.66999989748,"accuracy":1,"outcome":"+1","keys":[2688.8099999632686],"total_keys":1,"block":2,"trial":215,"stimulus":8,"robot":1,"valence":"win","action":"go","sham":1,"trial_type":"pit-trial","trial_index":246,"time_elapsed":1591206,"internal_node_id":"0.0-221.0","task_version":"battery-v0.2-trt","session":2},{"rune":"A","rune_set":"bacs2","hex":"#f73b6a7A","correct":-1,"choice":-1,"rt":-1,"accuracy":1,"outcome":"-1","keys":[],"total_keys":0,"block":2,"trial":216,"stimulus":9,"robot":4,"valence":"lose","action":"no-go","sham":0,"trial_type":"pit-trial","trial_index":247,"time_elapsed":1595211,"internal_node_id":"0.0-222.0","task_version":"battery-v0.2-trt","session":2},{"rune":"U","rune_set":"bacs2","hex":"#3366ff99","correct":32,"choice":-1,"rt":-1,"accuracy":0,"outcome":"+1","keys":[],"total_keys":0,"block":2,"trial":217,"stimulus":8,"robot":1,"valence":"win","action":"go","sham":0,"trial_type":"pit-trial","trial_index":248,"time_elapsed":1599219,"internal_node_id":"0.0-223.0","task_version":"battery-v0.2-trt","session":2},{"rune":"F","rune_set":"bacs2","hex":"#f73b6a7A","correct":32,"choice":-1,"rt":-1,"accuracy":0,"outcome":"-10","keys":[2830.8049999177456],"total_keys":1,"block":2,"trial":218,"stimulus":10,"robot":3,"valence":"lose","action":"go","sham":0,"trial_type":"pit-trial","trial_index":249,"time_elapsed":1603227,"internal_node_id":"0.0-224.0","task_version":"battery-v0.2-trt","session":2},{"rune":"N","rune_set":"bacs2","hex":"#3366ff99","correct":32,"choice":-1,"rt":-1,"accuracy":0,"outcome":"+1","keys":[],"total_keys":0,"block":2,"trial":219,"stimulus":11,"robot":1,"valence":"win","action":"go","sham":0,"trial_type":"pit-trial","trial_index":250,"time_elapsed":1607239,"internal_node_id":"0.0-225.0","task_version":"battery-v0.2-trt","session":2},{"rune":"A","rune_set":"bacs2","hex":"#f73b6a7A","correct":-1,"choice":32,"rt":586.8849998805672,"accuracy":0,"outcome":"-10","keys":[2087.80000009574],"total_keys":1,"block":2,"trial":220,"stimulus":9,"robot":4,"valence":"lose","action":"no-go","sham":0,"trial_type":"pit-trial","trial_index":251,"time_elapsed":1610531,"internal_node_id":"0.0-226.0","task_version":"battery-v0.2-trt","session":2},{"rune":"N","rune_set":"bacs2","hex":"#3366ff99","correct":32,"choice":-1,"rt":-1,"accuracy":0,"outcome":"+1","keys":[],"total_keys":0,"block":2,"trial":221,"stimulus":11,"robot":1,"valence":"win","action":"go","sham":0,"trial_type":"pit-trial","trial_index":252,"time_elapsed":1614536,"internal_node_id":"0.0-227.0","task_version":"battery-v0.2-trt","session":2},{"rune":"A","rune_set":"bacs2","hex":"#f73b6a7A","correct":-1,"choice":32,"rt":1124.115000013262,"accuracy":0,"outcome":"-10","keys":[2625.7949999999255],"total_keys":1,"block":2,"trial":222,"stimulus":9,"robot":4,"valence":"lose","action":"no-go","sham":0,"trial_type":"pit-trial","trial_index":253,"time_elapsed":1618368,"internal_node_id":"0.0-228.0","task_version":"battery-v0.2-trt","session":2},{"rune":"U","rune_set":"bacs2","hex":"#3366ff99","correct":32,"choice":32,"rt":1001.1850001756102,"accuracy":1,"outcome":"+10","keys":[2501.1199999134988],"total_keys":1,"block":2,"trial":223,"stimulus":8,"robot":1,"valence":"win","action":"go","sham":0,"trial_type":"pit-trial","trial_index":254,"time_elapsed":1622076,"internal_node_id":"0.0-229.0","task_version":"battery-v0.2-trt","session":2},{"rune":"F","rune_set":"bacs2","hex":"#f73b6a7A","correct":32,"choice":32,"rt":690.195000031963,"accuracy":1,"outcome":"-1","keys":[2190.4750000685453],"total_keys":1,"block":2,"trial":224,"stimulus":10,"robot":3,"valence":"lose","action":"go","sham":0,"trial_type":"pit-trial","trial_index":255,"time_elapsed":1625471,"internal_node_id":"0.0-230.0","task_version":"battery-v0.2-trt","session":2},{"rune":"F","rune_set":"bacs2","hex":"#f73b6a7A","correct":32,"choice":32,"rt":584.9399999715388,"accuracy":1,"outcome":"-1","keys":[2085.905000101775],"total_keys":1,"block":2,"trial":225,"stimulus":10,"robot":3,"valence":"lose","action":"go","sham":0,"trial_type":"pit-trial","trial_index":256,"time_elapsed":1628764,"internal_node_id":"0.0-231.0","task_version":"battery-v0.2-trt","session":2},{"rune":"U","rune_set":"bacs2","hex":"#3366ff99","correct":32,"choice":32,"rt":716.4900000207126,"accuracy":1,"outcome":"+10","keys":[2217.810000060126],"total_keys":1,"block":2,"trial":226,"stimulus":8,"robot":1,"valence":"win","action":"go","sham":0,"trial_type":"pit-trial","trial_index":257,"time_elapsed":1632187,"internal_node_id":"0.0-232.0","task_version":"battery-v0.2-trt","session":2},{"rune":"N","rune_set":"bacs2","hex":"#3366ff99","correct":32,"choice":32,"rt":832.6799999922514,"accuracy":1,"outcome":"+1","keys":[2332.8050000127405],"total_keys":1,"block":2,"trial":227,"stimulus":11,"robot":1,"valence":"win","action":"go","sham":1,"trial_type":"pit-trial","trial_index":258,"time_elapsed":1635725,"internal_node_id":"0.0-233.0","task_version":"battery-v0.2-trt","session":2},{"rune":"A","rune_set":"bacs2","hex":"#f73b6a7A","correct":-1,"choice":32,"rt":1177.4399999994785,"accuracy":0,"outcome":"-10","keys":[2678.034999873489],"total_keys":1,"block":2,"trial":228,"stimulus":9,"robot":4,"valence":"lose","action":"no-go","sham":0,"trial_type":"pit-trial","trial_index":259,"time_elapsed":1639608,"internal_node_id":"0.0-234.0","task_version":"battery-v0.2-trt","session":2},{"rune":"N","rune_set":"bacs2","hex":"#3366ff99","correct":32,"choice":32,"rt":688.4399999398738,"accuracy":1,"outcome":"+10","keys":[2189.4549999851733],"total_keys":1,"block":2,"trial":229,"stimulus":11,"robot":1,"valence":"win","action":"go","sham":0,"trial_type":"pit-trial","trial_index":260,"time_elapsed":1643005,"internal_node_id":"0.0-235.0","task_version":"battery-v0.2-trt","session":2},{"rune":"U","rune_set":"bacs2","hex":"#3366ff99","correct":32,"choice":32,"rt":678.3500001765788,"accuracy":1,"outcome":"+10","keys":[2178.7550000008196],"total_keys":1,"block":2,"trial":230,"stimulus":8,"robot":1,"valence":"win","action":"go","sham":0,"trial_type":"pit-trial","trial_index":261,"time_elapsed":1646387,"internal_node_id":"0.0-236.0","task_version":"battery-v0.2-trt","session":2},{"rune":"F","rune_set":"bacs2","hex":"#f73b6a7A","correct":32,"choice":32,"rt":597.5999999791384,"accuracy":1,"outcome":"-1","keys":[2098.1699998956174],"total_keys":1,"block":2,"trial":231,"stimulus":10,"robot":3,"valence":"lose","action":"go","sham":0,"trial_type":"pit-trial","trial_index":262,"time_elapsed":1649691,"internal_node_id":"0.0-237.0","task_version":"battery-v0.2-trt","session":2},{"rune":"A","rune_set":"bacs2","hex":"#f73b6a7A","correct":-1,"choice":32,"rt":776.1200000531971,"accuracy":0,"outcome":"-10","keys":[2276.2549999170005],"total_keys":1,"block":2,"trial":232,"stimulus":9,"robot":4,"valence":"lose","action":"no-go","sham":0,"trial_type":"pit-trial","trial_index":263,"time_elapsed":1653173,"internal_node