[{"view_history":"[{\"page_index\":0,\"viewing_time\":3315.134999807924}]","rt":3315.8350000157952,"trial_type":"instructions","trial_index":0,"time_elapsed":3323,"internal_node_id":"0.0-0.0","task_version":"battery-v0.2-trt","session":2},{"slider_type":"valence","raw_loc":610,"loc":0.72,"trial_type":"affective-slider","trial_index":1,"time_elapsed":6588,"internal_node_id":"0.0-1.0","task_version":"battery-v0.2-trt","session":2},{"responses":{"Q06":"0","Q02":"1","Q05":"0","Q07":"0","Q01":"0","Q08":"3","Q03":"1","Q04":"0"},"rt":31079.979999922216,"item_order":[5,1,4,6,0,7,2,3],"radio_events":[5378.634999971837,8463.144999928772,11054.49500028044,15706.615000031888,18159.179999958724,20951.09000010416,22068.944999948144,24513.48500000313,29031.60999994725],"key_events":[],"mouse_events":[5378.634999971837,6808.5000002756715,8463.144999928772,10225.285000167787,11054.49500028044,12261.175000108778,14832.375000230968,15706.615000031888,18159.179999958724,20951.09000010416,22068.944999948144,24513.48500000313,25249.370000325143,28559.415000025183,29031.60999994725,31078.879999928176],"straightlining":0.625,"zigzagging":0.5714285714285714,"survey":"dass_d","trial_type":"survey-template","trial_index":2,"time_elapsed":37672,"internal_node_id":"0.0-2.0","task_version":"battery-v0.2-trt","session":2,"infrequency":0},{"responses":{"Q04":"0","Q08":"0","Q05":"0","Q06":"0","Q01":"0","Q07":"0","Q03":"0","Q02":"0"},"rt":15359.549999702722,"item_order":[3,7,4,5,0,6,2,1],"radio_events":[4047.1049998886883,4480.174999684095,6524.124999996275,8414.244999643415,9324.289999902248,11536.264999769628,12356.204999610782,13561.710000038147],"key_events":[],"mouse_events":[2833.2199999131262,4047.1049998886883,4480.174999684095,6068.405000027269,6524.124999996275,8414.244999643415,8948.31999996677,9324.289999902248,11536.264999769628,12356.204999610782,13561.710000038147,15358.10499964282],"straightlining":1,"zigzagging":0,"survey":"gad7","trial_type":"survey-template","trial_index":3,"time_elapsed":53037,"internal_node_id":"0.0-3.0","task_version":"battery-v0.2-trt","session":2,"infrequency":0},{"view_history":"[{\"page_index\":0,\"viewing_time\":1442.0549999922514},{\"page_index\":1,\"viewing_time\":1652.7350000105798},{\"page_index\":2,\"viewing_time\":1495.0199997983873},{\"page_index\":3,\"viewing_time\":2635.9649999067187},{\"page_index\":4,\"viewing_time\":2893.434999976307},{\"page_index\":5,\"viewing_time\":1742.6550001837313},{\"page_index\":6,\"viewing_time\":1126.0099997743964},{\"page_index\":7,\"viewing_time\":1981.9400003179908},{\"page_index\":8,\"viewing_time\":7904.044999741018},{\"page_index\":9,\"viewing_time\":2711.860000155866}]","rt":25586.37999976054,"trial_type":"pit-instructions","trial_index":4,"time_elapsed":78629,"internal_node_id":"0.0-4.0-0.0","task_version":"battery-v0.2-trt","session":2},{"rune":"1","rune_set":"elianto","hex":"#3366ff99","correct":32,"choice":32,"rt":384.0000000782311,"accuracy":1,"outcome":"+10","keys":[1884.6150003373623],"total_keys":1,"block":0,"practice":1,"trial_type":"pit-trial","trial_index":5,"time_elapsed":81725,"internal_node_id":"0.0-4.0-1.0-0.0","task_version":"battery-v0.2-trt","session":2},{"rune":"1","rune_set":"elianto","hex":"#3366ff99","correct":32,"choice":32,"rt":344.32499995455146,"accuracy":1,"outcome":"+10","keys":[1844.9650001712143],"total_keys":1,"block":0,"practice":1,"trial_type":"pit-trial","trial_index":6,"time_elapsed":84776,"internal_node_id":"0.0-4.0-1.1-0.1","task_version":"battery-v0.2-trt","session":2},{"rune":"1","rune_set":"elianto","hex":"#3366ff99","correct":32,"choice":32,"rt":323.87000042945147,"accuracy":1,"outcome":"+10","keys":[1823.9949997514486],"total_keys":1,"block":0,"practice":1,"trial_type":"pit-trial","trial_index":7,"time_elapsed":87807,"internal_node_id":"0.0-4.0-1.2-0.2","task_version":"battery-v0.2-trt","session":2},{"rune":"1","rune_set":"elianto","hex":"#3366ff99","correct":32,"choice":32,"rt":238.99499978870153,"accuracy":1,"outcome":"+10","keys":[1739.3399998545647],"total_keys":1,"block":0,"practice":1,"trial_type":"pit-trial","trial_index":8,"time_elapsed":90756,"internal_node_id":"0.0-4.0-1.3-0.3","task_version":"battery-v0.2-trt","session":2},{"trial_type":"call-function","trial_index":9,"time_elapsed":90761,"internal_node_id":"0.0-4.0-2.0","task_version":"battery-v0.2-trt","session":2},{"view_history":"[{\"page_index\":0,\"viewing_time\":9237.284999806434},{\"page_index\":1,\"viewing_time\":2087.7149999141693}]","rt":11325.489999726415,"trial_type":"pit-instructions","trial_index":10,"time_elapsed":102087,"internal_node_id":"0.0-4.0-3.0","task_version":"battery-v0.2-trt","session":2},{"rune":"2","rune_set":"elianto","hex":"#3366ff99","correct":-1,"choice":-1,"rt":-1,"accuracy":1,"outcome":"+10","keys":[],"total_keys":0,"block":0,"practice":2,"trial_type":"pit-trial","trial_index":11,"time_elapsed":106099,"internal_node_id":"0.0-4.0-4.0-0.0","task_version":"battery-v0.2-trt","session":2},{"rune":"2","rune_set":"elianto","hex":"#3366ff99","correct":-1,"choice":-1,"rt":-1,"accuracy":1,"outcome":"+10","keys":[],"total_keys":0,"block":0,"practice":2,"trial_type":"pit-trial","trial_index":12,"time_elapsed":110110,"internal_node_id":"0.0-4.0-4.1-0.1","task_version":"battery-v0.2-trt","session":2},{"rune":"2","rune_set":"elianto","hex":"#3366ff99","correct":-1,"choice":-1,"rt":-1,"accuracy":1,"outcome":"+10","keys":[],"total_keys":0,"block":0,"practice":2,"trial_type":"pit-trial","trial_index":13,"time_elapsed":114120,"internal_node_id":"0.0-4.0-4.2-0.2","task_version":"battery-v0.2-trt","session":2},{"rune":"2","rune_set":"elianto","hex":"#3366ff99","correct":-1,"choice":-1,"rt":-1,"accuracy":1,"outcome":"+10","keys":[],"total_keys":0,"block":0,"practice":2,"trial_type":"pit-trial","trial_index":14,"time_elapsed":118135,"internal_node_id":"0.0-4.0-4.3-0.3","task_version":"battery-v0.2-trt","session":2},{"trial_type":"call-function","trial_index":15,"time_elapsed":118140,"internal_node_id":"0.0-4.0-5.0","task_version":"battery-v0.2-trt","session":2},{"view_history":"[{\"page_index\":0,\"viewing_time\":3633.919999934733},{\"page_index\":1,\"viewing_time\":925.9349997155368}]","rt":4560.339999850839,"trial_type":"pit-instructions","trial_index":16,"time_elapsed":122702,"internal_node_id":"0.0-4.0-6.0","task_version":"battery-v0.2-trt","session":2},{"rune":"3","rune_set":"elianto","hex":"#f73b6a7A","correct":-1,"choice":32,"rt":192.74999992921948,"accuracy":0,"outcome":"-10","keys":[1693.0150003172457],"total_keys":1,"block":0,"practice":3,"trial_type":"pit-trial","trial_index":17,"time_elapsed":125602,"internal_node_id":"0.0-4.0-7.0-0.0","task_version":"battery-v0.2-trt","session":2},{"rune":"3","rune_set":"elianto","hex":"#f73b6a7A","correct":-1,"choice":-1,"rt":-1,"accuracy":1,"outcome":"-1","keys":[],"total_keys":0,"block":0,"practice":3,"trial_type":"pit-trial","trial_index":18,"time_elapsed":129614,"internal_node_id":"0.0-4.0-7.1-0.1","task_version":"battery-v0.2-trt","session":2},{"rune":"3","rune_set":"elianto","hex":"#f73b6a7A","correct":-1,"choice":-1,"rt":-1,"accuracy":1,"outcome":"-1","keys":[],"total_keys":0,"block":0,"practice":3,"trial_type":"pit-trial","trial_index":19,"time_elapsed":133630,"internal_node_id":"0.0-4.0-7.2-0.2","task_version":"battery-v0.2-trt","session":2},{"rune":"3","rune_set":"elianto","hex":"#f73b6a7A","correct":-1,"choice":-1,"rt":-1,"accuracy":1,"outcome":"-1","keys":[],"total_keys":0,"block":0,"practice":3,"trial_type":"pit-trial","trial_index":20,"time_elapsed":137643,"internal_node_id":"0.0-4.0-7.3-0.3","task_version":"battery-v0.2-trt","session":2},{"trial_type":"call-function","trial_index":21,"time_elapsed":137648,"internal_node_id":"0.0-4.0-8.0","task_version":"battery-v0.2-trt","session":2},{"view_history":"[{\"page_index\":0,\"viewing_time\":5027.209999971092},{\"page_index\":1,\"viewing_time\":962.0099999010563}]","rt":5989.734999835491,"trial_type":"pit-instructions","trial_index":22,"time_elapsed":143638,"internal_node_id":"0.0-4.0-9.0","task_version":"battery-v0.2-trt","session":2},{"rune":"4","rune_set":"elianto","hex":"#f73b6a7A","correct":32,"choice":32,"rt":128.2949997112155,"accuracy":1,"outcome":"-1","keys":[1629.2749997228384],"total_keys":1,"block":0,"practice":4,"trial_type":"pit-trial","trial_index":23,"time_elapsed":146472,"internal_node_id":"0.0-4.0-10.0-0.0","task_version":"battery-v0.2-trt","session":2},{"rune":"4","rune_set":"elianto","hex":"#f73b6a7A","correct":32,"choice":32,"rt":75.73499996215105,"accuracy":1,"outcome":"-1","keys":[1578.1299998052418],"total_keys":1,"block":0,"practice":4,"trial_type":"pit-trial","trial_index":24,"time_elapsed":149257,"internal_node_id":"0.0-4.0-10.1-0.1","task_version":"battery-v0.2-trt","session":2},{"rune":"4","rune_set":"elianto","hex":"#f73b6a7A","correct":32,"choice":32,"rt":162.07999968901277,"accuracy":1,"outcome":"-1","keys":[1663.9049998484552],"total_keys":1,"block":0,"practice":4,"trial_type":"pit-trial","trial_index":25,"time_elapsed":152129,"internal_node_id":"0.0-4.0-10.2-0.2","task_version":"battery-v0.2-trt","session":2},{"rune":"4","rune_set":"elianto","hex":"#f73b6a7A","correct":32,"choice":32,"rt":252.73000029847026,"accuracy":1,"outcome":"-1","keys":[1753.010000102222],"total_keys":1,"block":0,"practice":4,"trial_type":"pit-trial","trial_index":26,"time_elapsed":155093,"internal_node_id":"0.0-4.0-10.3-0.3","task_version":"battery-v0.2-trt","session":2},{"trial_type":"call-function","trial_index":27,"time_elapsed":155098,"internal_node_id":"0.0-4.0-11.0","task_version":"battery-v0.2-trt","session":2},{"view_history":"[{\"page_index\":0,\"viewing_time\":1701.3249997980893},{\"page_index\":1,\"viewing_time\":2260.010000318289},{\"page_index\":2,\"viewing_time\":1877.1499996073544},{\"page_index\":3,\"viewing_time\":1134.8700001835823},{\"page_index\":4,\"viewing_time\":1693.924999795854},{\"page_index\":5,\"viewing_time\":1956.1300002969801}]","rt":10623.894999735057,"trial_type":"pit-instructions","trial_index":28,"time_elapsed":165722,"internal_node_id":"0.0-4.0-12.0","task_version":"battery-v0.2-trt","session":2},{"responses":["Press SPACE","+10","-1","True","True"],"num_errors":0,"rt":12677.12499992922,"trial_type":"pit-comprehension","trial_index":29,"time_elapsed":178406,"internal_node_id":"0.0-4.0-13.0","task_version":"battery-v0.2-trt","session":2},{"view_history":"[{\"page_index\":0,\"viewing_time\":1341.275000013411},{\"page_index\":1,\"viewing_time\":8344.08999979496}]","rt":9685.854999814183,"trial_type":"pit-instructions","trial_index":30,"time_elapsed":188099,"internal_node_id":"0.0-5.0","task_version":"battery-v0.2-trt","session":2},{"rune":"I","rune_set":"bacs1","hex":"#f73b6a7A","correct":-1,"choice":32,"rt":427.604999858886,"accuracy":0,"outcome":"-10","keys":[1928.2749998383224],"total_keys":1,"block":1,"trial":1,"stimulus":2,"robot":4,"valence":"lose","action":"no-go","sham":0,"trial_type":"pit-trial","trial_index":31,"time_elapsed":191235,"internal_node_id":"0.0-6.0","task_version":"battery-v0.2-trt","session":2},{"rune":"O","rune_set":"bacs1","hex":"#3366ff99","correct":-1,"choice":32,"rt":585.1699998602271,"accuracy":0,"outcome":"+1","keys":[2087.8250002861023],"total_keys":1,"block":1,"trial":2,"stimulus":3,"robot":2,"valence":"win","action":"no-go","sham":0,"trial_type":"pit-trial","trial_index":32,"time_elapsed":194531,"internal_node_id":"0.0-7.0","task_version":"battery-v0.2-trt","session":2},{"rune":"N","rune_set":"bacs1","hex":"#3366ff99","correct":32,"choice":32,"rt":579.8400002531707,"accuracy":1,"outcome":"+10","keys":[2080.0200002267957],"total_keys":1,"block":1,"trial":3,"stimulus":0,"robot":1,"valence":"win","action":"go","sham":0,"trial_type":"pit-trial","trial_index":33,"time_elapsed":197817,"internal_node_id":"0.0-8.0","task_version":"battery-v0.2-trt","session":2},{"rune":"G","rune_set":"bacs1","hex":"#f73b6a7A","correct":32,"choice":32,"rt":1102.479999884963,"accuracy":1,"outcome":"-1","keys":[2603.089999873191],"total_keys":1,"block":1,"trial":4,"stimulus":1,"robot":3,"valence":"lose","action":"go","sham":0,"trial_type":"pit-trial","trial_index":34,"time_elapsed":201627,"internal_node_id":"0.0-9.0","task_version":"battery-v0.2-trt","session":2},{"rune":"I","rune_set":"bacs1","hex":"#f73b6a7A","correct":-1,"choice":-1,"rt":-1,"accuracy":1,"outcome":"-1","keys":[],"total_keys":0,"block":1,"trial":5,"stimulus":2,"robot":4,"valence":"lose","action":"no-go","sham":0,"trial_type":"pit-trial","trial_index":35,"time_elapsed":205636,"internal_node_id":"0.0-10.0","task_version":"battery-v0.2-trt","session":2},{"rune":"G","rune_set":"bacs1","hex":"#f73b6a7A","correct":32,"choice":32,"rt":763.5450004599988,"accuracy":1,"outcome":"-1","keys":[2263.8949998654425],"total_keys":1,"block":1,"trial":6,"stimulus":1,"robot":3,"valence":"lose","action":"go","sham":0,"trial_type":"pit-trial","trial_index":36,"time_elapsed":209107,"internal_node_id":"0.0-11.0","task_version":"battery-v0.2-trt","session":2},{"rune":"O","rune_set":"bacs1","hex":"#3366ff99","correct":-1,"choice":32,"rt":1212.3449998907745,"accuracy":0,"outcome":"+1","keys":[2712.685000151396],"total_keys":1,"block":1,"trial":7,"stimulus":3,"robot":2,"valence":"win","action":"no-go","sham":0,"trial_type":"pit-trial","trial_index":37,"time_elapsed":213027,"internal_node_id":"0.0-12.0","task_version":"battery-v0.2-trt","session":2},{"rune":"N","rune_set":"bacs1","hex":"#3366ff99","correct":32,"choice":32,"rt":618.6699997633696,"accuracy":1,"outcome":"+10","keys":[2120.839999988675],"total_keys":1,"block":1,"trial":8,"stimulus":0,"robot":1,"valence":"win","action":"go","sham":0,"trial_type":"pit-trial","trial_index":38,"time_elapsed":216355,"internal_node_id":"0.0-13.0","task_version":"battery-v0.2-trt","session":2},{"rune":"O","rune_set":"bacs1","hex":"#3366ff99","correct":-1,"choice":-1,"rt":-1,"accuracy":1,"outcome":"+1","keys":[],"total_keys":0,"block":1,"trial":9,"stimulus":3,"robot":2,"valence":"win","action":"no-go","sham":1,"trial_type":"pit-trial","trial_index":39,"time_elapsed":220367,"internal_node_id":"0.0-14.0","task_version":"battery-v0.2-trt","session":2},{"rune":"N","rune_set":"bacs1","hex":"#3366ff99","correct":32,"choice":32,"rt":512.9849999211729,"accuracy":1,"outcome":"+10","keys":[2013.5349999181926],"total_keys":1,"block":1,"trial":10,"stimulus":0,"robot":1,"valence":"win","action":"go","sham":0,"trial_type":"pit-trial","trial_index":40,"time_elapsed":223589,"internal_node_id":"0.0-15.0","task_version":"battery-v0.2-trt","session":2},{"rune":"G","rune_set":"bacs1","hex":"#f73b6a7A","correct":32,"choice":32,"rt":1186.265000142157,"accuracy":1,"outcome":"-1","keys":[2686.8500001728535],"total_keys":1,"block":1,"trial":11,"stimulus":1,"robot":3,"valence":"lose","action":"go","sham":0,"trial_type":"pit-trial","trial_index":41,"time_elapsed":227482,"internal_node_id":"0.0-16.0","task_version":"battery-v0.2-trt","session":2},{"rune":"I","rune_set":"bacs1","hex":"#f73b6a7A","correct":-1,"choice":-1,"rt":-1,"accuracy":1,"outcome":"-1","keys":[],"total_keys":0,"block":1,"trial":12,"stimulus":2,"robot":4,"valence":"lose","action":"no-go","sham":0,"trial_type":"pit-trial","trial_index":42,"time_elapsed":231495,"internal_node_id":"0.0-17.0","task_version":"battery-v0.2-trt","session":2},{"rune":"I","rune_set":"bacs1","hex":"#f73b6a7A","correct":-1,"choice":-1,"rt":-1,"accuracy":1,"outcome":"-1","keys":[3045.315000228584],"total_keys":1,"block":1,"trial":13,"stimulus":2,"robot":4,"valence":"lose","action":"no-go","sham":0,"trial_type":"pit-trial","trial_index":43,"time_elapsed":235509,"internal_node_id":"0.0-18.0","task_version":"battery-v0.2-trt","session":2},{"rune":"G","rune_set":"bacs1","hex":"#f73b6a7A","correct":32,"choice":32,"rt":746.6099997982383,"accuracy":1,"outcome":"-1","keys":[2246.910000219941],"total_keys":1,"block":1,"trial":14,"stimulus":1,"robot":3,"valence":"lose","action":"go","sham":0,"trial_type":"pit-trial","trial_index":44,"time_elapsed":238965,"internal_node_id":"0.0-19.0","task_version":"battery-v0.2-trt","session":2},{"rune":"N","rune_set":"bacs1","hex":"#3366ff99","correct":32,"choice":32,"rt":642.4600002355874,"accuracy":1,"outcome":"+10","keys":[2143.0399999953806],"total_keys":1,"block":1,"trial":15,"stimulus":0,"robot":1,"valence":"win","action":"go","sham":0,"trial_type":"pit-trial","trial_index":45,"time_elapsed":242318,"internal_node_id":"0.0-20.0","task_version":"battery-v0.2-trt","session":2},{"rune":"O","rune_set":"bacs1","hex":"#3366ff99","correct":-1,"choice":-1,"rt":-1,"accuracy":1,"outcome":"+10","keys":[],"total_keys":0,"block":1,"trial":16,"stimulus":3,"robot":2,"valence":"win","action":"no-go","sham":0,"trial_type":"pit-trial","trial_index":46,"time_elapsed":246328,"internal_node_id":"0.0-21.0","task_version":"battery-v0.2-trt","session":2},{"rune":"N","rune_set":"bacs1","hex":"#3366ff99","correct":32,"choice":32,"rt":463.34500005468726,"accuracy":1,"outcome":"+10","keys":[1964.7099999710917],"total_keys":1,"block":1,"trial":17,"stimulus":0,"robot":1,"valence":"win","action":"go","sham":0,"trial_type":"pit-trial","trial_index":47,"time_elapsed":249501,"internal_node_id":"0.0-22.0","task_version":"battery-v0.2-trt","session":2},{"rune":"O","rune_set":"bacs1","hex":"#3366ff99","correct":-1,"choice":-1,"rt":-1,"accuracy":1,"outcome":"+1","keys":[],"total_keys":0,"block":1,"trial":18,"stimulus":3,"robot":2,"valence":"win","action":"no-go","sham":1,"trial_type":"pit-trial","trial_index":48,"time_elapsed":253512,"internal_node_id":"0.0-23.0","task_version":"battery-v0.2-trt","session":2},{"rune":"G","rune_set":"bacs1","hex":"#f73b6a7A","correct":32,"choice":32,"rt":591.1300000734627,"accuracy":1,"outcome":"-1","keys":[2091.630000155419],"total_keys":1,"block":1,"trial":19,"stimulus":1,"robot":3,"valence":"lose","action":"go","sham":0,"trial_type":"pit-trial","trial_index":49,"time_elapsed":256815,"internal_node_id":"0.0-24.0","task_version":"battery-v0.2-trt","session":2},{"rune":"I","rune_set":"bacs1","hex":"#f73b6a7A","correct":-1,"choice":-1,"rt":-1,"accuracy":1,"outcome":"-10","keys":[],"total_keys":0,"block":1,"trial":20,"stimulus":2,"robot":4,"valence":"lose","action":"no-go","sham":1,"trial_type":"pit-trial","trial_index":50,"time_elapsed":260827,"internal_node_id":"0.0-25.0","task_version":"battery-v0.2-trt","session":2},{"rune":"I","rune_set":"bacs1","hex":"#f73b6a7A","correct":-1,"choice":32,"rt":621.7299997806549,"accuracy":0,"outcome":"-10","keys":[2122.0450000837445],"total_keys":1,"block":1,"trial":21,"stimulus":2,"robot":4,"valence":"lose","action":"no-go","sham":0,"trial_type":"pit-trial","trial_index":51,"time_elapsed":264155,"internal_node_id":"0.0-26.0","task_version":"battery-v0.2-trt","session":2},{"rune":"G","rune_set":"bacs1","hex":"#f73b6a7A","correct":32,"choice":32,"rt":581.0699998401105,"accuracy":1,"outcome":"-1","keys":[2081.1600000597537],"total_keys":1,"block":1,"trial":22,"stimulus":1,"robot":3,"valence":"lose","action":"go","sham":0,"trial_type":"pit-trial","trial_index":52,"time_elapsed":267444,"internal_node_id":"0.0-27.0","task_version":"battery-v0.2-trt","session":2},{"rune":"N","rune_set":"bacs1","hex":"#3366ff99","correct":32,"choice":32,"rt":497.54999997094274,"accuracy":1,"outcome":"+10","keys":[1998.3500000089407],"total_keys":1,"block":1,"trial":23,"stimulus":0,"robot":1,"valence":"win","action":"go","sham":0,"trial_type":"pit-trial","trial_index":53,"time_elapsed":270649,"internal_node_id":"0.0-28.0","task_version":"battery-v0.2-trt","session":2},{"rune":"O","rune_set":"bacs1","hex":"#3366ff99","correct":-1,"choice":-1,"rt":-1,"accuracy":1,"outcome":"+1","keys":[3491.7450002394617],"total_keys":1,"block":1,"trial":24,"stimulus":3,"robot":2,"valence":"win","action":"no-go","sham":1,"trial_type":"pit-trial","trial_index":54,"time_elapsed":274654,"internal_node_id":"0.0-29.0","task_version":"battery-v0.2-trt","session":2},{"rune":"O","rune_set":"bacs1","hex":"#3366ff99","correct":-1,"choice":32,"rt":720.7400002516806,"accuracy":0,"outcome":"+10","keys":[2222.019999753684],"total_keys":1,"block":1,"trial":25,"stimulus":3,"robot":2,"valence":"win","action":"no-go","sham":1,"trial_type":"pit-trial","trial_index":55,"time_elapsed":278086,"internal_node_id":"0.0-30.0","task_version":"battery-v0.2-trt","session":2},{"rune":"I","rune_set":"bacs1","hex":"#f73b6a7A","correct":-1,"choice":32,"rt":771.3049999438226,"accuracy":0,"outcome":"-10","keys":[2271.6749999672174],"total_keys":1,"block":1,"trial":26,"stimulus":2,"robot":4,"valence":"lose","action":"no-go","sham":0,"trial_type":"pit-trial","trial_index":56,"time_elapsed":281562,"internal_node_id":"0.0-31.0","task_version":"battery-v0.2-trt","session":2},{"rune":"G","rune_set":"bacs1","hex":"#f73b6a7A","correct":32,"choice":32,"rt":502.5450000539422,"accuracy":1,"outcome":"-1","keys":[2004.5399996452034],"total_keys":1,"block":1,"trial":27,"stimulus":1,"robot":3,"valence":"lose","action":"go","sham":0,"trial_type":"pit-trial","trial_index":57,"time_elapsed":284772,"internal_node_id":"0.0-32.0","task_version":"battery-v0.2-trt","session":2},{"rune":"N","rune_set":"bacs1","hex":"#3366ff99","correct":32,"choice":32,"rt":458.95500015467405,"accuracy":1,"outcome":"+10","keys":[1960.0499998778105],"total_keys":1,"block":1,"trial":28,"stimulus":0,"robot":1,"valence":"win","action":"go","sham":0,"trial_type":"pit-trial","trial_index":58,"time_elapsed":287941,"internal_node_id":"0.0-33.0","task_version":"battery-v0.2-trt","session":2},{"rune":"G","rune_set":"bacs1","hex":"#f73b6a7A","correct":32,"choice":32,"rt":611.3800001330674,"accuracy":1,"outcome":"-1","keys":[2112.0850001461804],"total_keys":1,"block":1,"trial":29,"stimulus":1,"robot":3,"valence":"lose","action":"go","sham":0,"trial_type":"pit-trial","trial_index":59,"time_elapsed":291259,"internal_node_id":"0.0-34.0","task_version":"battery-v0.2-trt","session":2},{"rune":"O","rune_set":"bacs1","hex":"#3366ff99","correct":-1,"choice":32,"rt":628.6650002002716,"accuracy":0,"outcome":"+1","keys":[2128.795000258833],"total_keys":1,"block":1,"trial":30,"stimulus":3,"robot":2,"valence":"win","action":"no-go","sham":0,"trial_type":"pit-trial","trial_index":60,"time_elapsed":294599,"internal_node_id":"0.0-35.0","task_version":"battery-v0.2-trt","session":2},{"rune":"N","rune_set":"bacs1","hex":"#3366ff99","correct":32,"choice":32,"rt":526.1550000868738,"accuracy":1,"outcome":"+10","keys":[2028.8300001993775],"total_keys":1,"block":1,"trial":31,"stimulus":0,"robot":1,"valence":"win","action":"go","sham":0,"trial_type":"pit-trial","trial_index":61,"time_elapsed":297839,"internal_node_id":"0.0-36.0","task_version":"battery-v0.2-trt","session":2},{"rune":"I","rune_set":"bacs1","hex":"#f73b6a7A","correct":-1,"choice":-1,"rt":-1,"accuracy":1,"outcome":"-1","keys":[],"total_keys":0,"block":1,"trial":32,"stimulus":2,"robot":4,"valence":"lose","action":"no-go","sham":0,"trial_type":"pit-trial","trial_index":62,"time_elapsed":301850,"internal_node_id":"0.0-37.0","task_version":"battery-v0.2-trt","session":2},{"rune":"D","rune_set":"bacs1","hex":"#f73b6a7A","correct":-1,"choice":32,"rt":1034.8499999381602,"accuracy":0,"outcome":"-10","keys":[2537.5549998134375],"total_keys":1,"block":1,"trial":33,"stimulus":4,"robot":4,"valence":"lose","action":"no-go","sham":0,"trial_type":"pit-trial","trial_index":63,"time_elapsed":305595,"internal_node_id":"0.0-38.0","task_version":"battery-v0.2-trt","session":2},{"rune":"O","rune_set":"bacs1","hex":"#3366ff99","correct":-1,"choice":-1,"rt":-1,"accuracy":1,"outcome":"+10","keys":[],"total_keys":0,"block":1,"trial":34,"stimulus":3,"robot":2,"valence":"win","action":"no-go","sham":0,"trial_type":"pit-trial","trial_index":64,"time_elapsed":309606,"internal_node_id":"0.0-39.0","task_version":"battery-v0.2-trt","session":2},{"rune":"N","rune_set":"bacs1","hex":"#3366ff99","correct":32,"choice":32,"rt":520.3350000083447,"accuracy":1,"outcome":"+10","keys":[2020.909999962896],"total_keys":1,"block":1,"trial":35,"stimulus":0,"robot":1,"valence":"win","action":"go","sham":0,"trial_type":"pit-trial","trial_index":65,"time_elapsed":312840,"internal_node_id":"0.0-40.0","task_version":"battery-v0.2-trt","session":2},{"rune":"G","rune_set":"bacs1","hex":"#f73b6a7A","correct":32,"choice":32,"rt":647.4500000476837,"accuracy":1,"outcome":"-10","keys":[2149.104999843985],"total_keys":1,"block":1,"trial":36,"stimulus":1,"robot":3,"valence":"lose","action":"go","sham":1,"trial_type":"pit-trial","trial_index":66,"time_elapsed":316195,"internal_node_id":"0.0-41.0","task_version":"battery-v0.2-trt","session":2},{"rune":"D","rune_set":"bacs1","hex":"#f73b6a7A","correct":-1,"choice":-1,"rt":-1,"accuracy":1,"outcome":"-1","keys":[],"total_keys":0,"block":1,"trial":37,"stimulus":4,"robot":4,"valence":"lose","action":"no-go","sham":0,"trial_type":"pit-trial","trial_index":67,"time_elapsed":320202,"internal_node_id":"0.0-42.0","task_version":"battery-v0.2-trt","session":2},{"rune":"N","rune_set":"bacs1","hex":"#3366ff99","correct":32,"choice":32,"rt":478.7650001235306,"accuracy":1,"outcome":"+10","keys":[1978.9550001733005],"total_keys":1,"block":1,"trial":38,"stimulus":0,"robot":1,"valence":"win","action":"go","sham":0,"trial_type":"pit-trial","trial_index":68,"time_elapsed":323387,"internal_node_id":"0.0-43.0","task_version":"battery-v0.2-trt","session":2},{"rune":"O","rune_set":"bacs1","hex":"#3366ff99","correct":-1,"choice":-1,"rt":-1,"accuracy":1,"outcome":"+10","keys":[],"total_keys":0,"block":1,"trial":39,"stimulus":3,"robot":2,"valence":"win","action":"no-go","sham":0,"trial_type":"pit-trial","trial_index":69,"time_elapsed":327401,"internal_node_id":"0.0-44.0","task_version":"battery-v0.2-trt","session":2},{"rune":"G","rune_set":"bacs1","hex":"#f73b6a7A","correct":32,"choice":32,"rt":567.524999845773,"accuracy":1,"outcome":"-1","keys":[2068.2850000448525],"total_keys":1,"block":1,"trial":40,"stimulus":1,"robot":3,"valence":"lose","action":"go","sham":0,"trial_type":"pit-trial","trial_index":70,"time_elapsed":330678,"internal_node_id":"0.0-45.0","task_version":"battery-v0.2-trt","session":2},{"rune":"D","rune_set":"bacs1","hex":"#f73b6a7A","correct":-1,"choice":-1,"rt":-1,"accuracy":1,"outcome":"-1","keys":[],"total_keys":0,"block":1,"trial":41,"stimulus":4,"robot":4,"valence":"lose","action":"no-go","sham":0,"trial_type":"pit-trial","trial_index":71,"time_elapsed":334689,"internal_node_id":"0.0-46.0","task_version":"battery-v0.2-trt","session":2},{"rune":"O","rune_set":"bacs1","hex":"#3366ff99","correct":-1,"choice":-1,"rt":-1,"accuracy":1,"outcome":"+10","keys":[],"total_keys":0,"block":1,"trial":42,"stimulus":3,"robot":2,"valence":"win","action":"no-go","sham":0,"trial_type":"pit-trial","trial_index":72,"time_elapsed":338701,"internal_node_id":"0.0-47.0","task_version":"battery-v0.2-trt","session":2},{"rune":"K","rune_set":"bacs1","hex":"#f73b6a7A","correct":32,"choice":-1,"rt":-1,"accuracy":0,"outcome":"-10","keys":[],"total_keys":0,"block":1,"trial":43,"stimulus":5,"robot":3,"valence":"lose","action":"go","sham":0,"trial_type":"pit-trial","trial_index":73,"time_elapsed":342706,"internal_node_id":"0.0-48.0","task_version":"battery-v0.2-trt","session":2},{"rune":"N","rune_set":"bacs1","hex":"#3366ff99","correct":32,"choice":32,"rt":495.8700002171099,"accuracy":1,"outcome":"+1","keys":[1996.395000256598],"total_keys":1,"block":1,"trial":44,"stimulus":0,"robot":1,"valence":"win","action":"go","sham":1,"trial_type":"pit-trial","trial_index":74,"time_elapsed":345910,"internal_node_id":"0.0-49.0","task_version":"battery-v0.2-trt","session":2},{"rune":"K","rune_set":"bacs1","hex":"#f73b6a7A","correct":32,"choice":32,"rt":451.9199999049306,"accuracy":1,"outcome":"-1","keys":[1952.0950000733137],"total_keys":1,"block":1,"trial":45,"stimulus":5,"robot":3,"valence":"lose","action":"go","sham":0,"trial_type":"pit-trial","trial_index":75,"time_elapsed":349069,"internal_node_id":"0.0-50.0","task_version":"battery-v0.2-trt","session":2},{"rune":"D","rune_set":"bacs1","hex":"#f73b6a7A","correct":-1,"choice":-1,"rt":-1,"accuracy":1,"outcome":"-1","keys":[],"total_keys":0,"block":1,"trial":46,"stimulus":4,"robot":4,"valence":"lose","action":"no-go","sham":0,"trial_type":"pit-trial","trial_index":76,"time_elapsed":353081,"internal_node_id":"0.0-51.0","task_version":"battery-v0.2-trt","session":2},{"rune":"N","rune_set":"bacs1","hex":"#3366ff99","correct":32,"choice":32,"rt":456.9299998693168,"accuracy":1,"outcome":"+10","keys":[1957.0800000801682],"total_keys":1,"block":1,"trial":47,"stimulus":0,"robot":1,"valence":"win","action":"go","sham":0,"trial_type":"pit-trial","trial_index":77,"time_elapsed":356244,"internal_node_id":"0.0-52.0","task_version":"battery-v0.2-trt","session":2},{"rune":"O","rune_set":"bacs1","hex":"#3366ff99","correct":-1,"choice":-1,"rt":-1,"accuracy":1,"outcome":"+10","keys":[],"total_keys":0,"block":1,"trial":48,"stimulus":3,"robot":2,"valence":"win","action":"no-go","sham":0,"trial_type":"pit-trial","trial_index":78,"time_elapsed":360258,"internal_node_id":"0.0-53.0","task_version":"battery-v0.2-trt","session":2},{"rune":"D","rune_set":"bacs1","hex":"#f73b6a7A","correct":-1,"choice":-1,"rt":-1,"accuracy":1,"outcome":"-10","keys":[],"total_keys":0,"block":1,"trial":49,"stimulus":4,"robot":4,"valence":"lose","action":"no-go","sham":1,"trial_type":"pit-trial","trial_index":79,"time_elapsed":364266,"internal_node_id":"0.0-54.0","task_version":"battery-v0.2-trt","session":2},{"rune":"K","rune_set":"bacs1","hex":"#f73b6a7A","correct":32,"choice":32,"rt":1094.9500002898276,"accuracy":1,"outcome":"-10","keys":[2595.1300002634525],"total_keys":1,"block":1,"trial":50,"stimulus":5,"robot":3,"valence":"lose","action":"go","sham":1,"trial_type":"pit-trial","trial_index":80,"time_elapsed":368067,"internal_node_id":"0.0-55.0","task_version":"battery-v0.2-trt","session":2},{"rune":"S","rune_set":"bacs1","hex":"#3366ff99","correct":-1,"choice":32,"rt":963.7199998833239,"accuracy":0,"outcome":"+1","keys":[2466.289999894798],"total_keys":1,"block":1,"trial":51,"stimulus":6,"robot":2,"valence":"win","action":"no-go","sham":0,"trial_type":"pit-trial","trial_index":81,"time_elapsed":371744,"internal_node_id":"0.0-56.0","task_version":"battery-v0.2-trt","session":2},{"rune":"U","rune_set":"bacs1","hex":"#3366ff99","correct":-1,"choice":32,"rt":1087.9850001074374,"accuracy":0,"outcome":"+1","keys":[2588.5950000956655],"total_keys":1,"block":1,"trial":52,"stimulus":7,"robot":2,"valence":"win","action":"no-go","sham":0,"trial_type":"pit-trial","trial_index":82,"time_elapsed":375540,"internal_node_id":"0.0-57.0","task_version":"battery-v0.2-trt","session":2},{"rune":"K","rune_set":"bacs1","hex":"#f73b6a7A","correct":32,"choice":-1,"rt":-1,"accuracy":0,"outcome":"-10","keys":[],"total_keys":0,"block":1,"trial":53,"stimulus":5,"robot":3,"valence":"lose","action":"go","sham":0,"trial_type":"pit-trial","trial_index":83,"time_elapsed":379552,"internal_node_id":"0.0-58.0","task_version":"battery-v0.2-trt","session":2},{"rune":"S","rune_set":"bacs1","hex":"#3366ff99","correct":-1,"choice":-1,"rt":-1,"accuracy":1,"outcome":"+10","keys":[],"total_keys":0,"block":1,"trial":54,"stimulus":6,"robot":2,"valence":"win","action":"no-go","sham":0,"trial_type":"pit-trial","trial_index":84,"time_elapsed":383567,"internal_node_id":"0.0-59.0","task_version":"battery-v0.2-trt","session":2},{"rune":"D","rune_set":"bacs1","hex":"#f73b6a7A","correct":-1,"choice":-1,"rt":-1,"accuracy":1,"outcome":"-1","keys":[],"total_keys":0,"block":1,"trial":55,"stimulus":4,"robot":4,"valence":"lose","action":"no-go","sham":0,"trial_type":"pit-trial","trial_index":85,"time_elapsed":387580,"internal_node_id":"0.0-60.0","task_version":"battery-v0.2-trt","session":2},{"rune":"U","rune_set":"bacs1","hex":"#3366ff99","correct":-1,"choice":-1,"rt":-1,"accuracy":1,"outcome":"+10","keys":[],"total_keys":0,"block":1,"trial":56,"stimulus":7,"robot":2,"valence":"win","action":"no-go","sham":0,"trial_type":"pit-trial","trial_index":86,"time_elapsed":391593,"internal_node_id":"0.0-61.0","task_version":"battery-v0.2-trt","session":2},{"rune":"S","rune_set":"bacs1","hex":"#3366ff99","correct":-1,"choice":-1,"rt":-1,"accuracy":1,"outcome":"+1","keys":[],"total_keys":0,"block":1,"trial":57,"stimulus":6,"robot":2,"valence":"win","action":"no-go","sham":1,"trial_type":"pit-trial","trial_index":87,"time_elapsed":395603,"internal_node_id":"0.0-62.0","task_version":"battery-v0.2-trt","session":2},{"rune":"D","rune_set":"bacs1","hex":"#f73b6a7A","correct":-1,"choice":-1,"rt":-1,"accuracy":1,"outcome":"-1","keys":[],"total_keys":0,"block":1,"trial":58,"stimulus":4,"robot":4,"valence":"lose","action":"no-go","sham":0,"trial_type":"pit-trial","trial_index":88,"time_elapsed":399614,"internal_node_id":"0.0-63.0","task_version":"battery-v0.2-trt","session":2},{"rune":"U","rune_set":"bacs1","hex":"#3366ff99","correct":-1,"choice":-1,"rt":-1,"accuracy":1,"outcome":"+10","keys":[],"total_keys":0,"block":1,"trial":59,"stimulus":7,"robot":2,"valence":"win","action":"no-go","sham":0,"trial_type":"pit-trial","trial_index":89,"time_elapsed":403625,"internal_node_id":"0.0-64.0","task_version":"battery-v0.2-trt","session":2},{"rune":"K","rune_set":"bacs1","hex":"#f73b6a7A","correct":32,"choice":32,"rt":864.474999718368,"accuracy":1,"outcome":"-1","keys":[2364.9699999950826],"total_keys":1,"block":1,"trial":60,"stimulus":5,"robot":3,"valence":"lose","action":"go","sham":0,"trial_type":"pit-trial","trial_index":90,"time_elapsed":407200,"internal_node_id":"0.0-65.0","task_version":"battery-v0.2-trt","session":2},{"rune":"K","rune_set":"bacs1","hex":"#f73b6a7A","correct":32,"choice":32,"rt":441.4399997331202,"accuracy":1,"outcome":"-1","keys":[1942.4900002777576],"total_keys":1,"block":1,"trial":61,"stimulus":5,"robot":3,"valence":"lose","action":"go","sham":0,"trial_type":"pit-trial","trial_index":91,"time_elapsed":410352,"internal_node_id":"0.0-66.0","task_version":"battery-v0.2-trt","session":2},{"rune":"S","rune_set":"bacs1","hex":"#3366ff99","correct":-1,"choice":-1,"rt":-1,"accuracy":1,"outcome":"+10","keys":[],"total_keys":0,"block":1,"trial":62,"stimulus":6,"robot":2,"valence":"win","action":"no-go","sham":0,"trial_type":"pit-trial","trial_index":92,"time_elapsed":414368,"internal_node_id":"0.0-67.0","task_version":"battery-v0.2-trt","session":2},{"rune":"D","rune_set":"bacs1","hex":"#f73b6a7A","correct":-1,"choice":-1,"rt":-1,"accuracy":1,"outcome":"-1","keys":[],"total_keys":0,"block":1,"trial":63,"stimulus":4,"robot":4,"valence":"lose","action":"no-go","sham":0,"trial_type":"pit-trial","trial_index":93,"time_elapsed":418376,"internal_node_id":"0.0-68.0","task_version":"battery-v0.2-trt","session":2},{"rune":"U","rune_set":"bacs1","hex":"#3366ff99","correct":-1,"choice":-1,"rt":-1,"accuracy":1,"outcome":"+10","keys":[],"total_keys":0,"block":1,"trial":64,"stimulus":7,"robot":2,"valence":"win","action":"no-go","sham":0,"trial_type":"pit-trial","trial_index":94,"time_elapsed":422384,"internal_node_id":"0.0-69.0","task_version":"battery-v0.2-trt","session":2},{"rune":"D","rune_set":"bacs1","hex":"#f73b6a7A","correct":-1,"choice":-1,"rt":-1,"accuracy":1,"outcome":"-1","keys":[],"total_keys":0,"block":1,"trial":65,"stimulus":4,"robot":4,"valence":"lose","action":"no-go","sham":0,"trial_type":"pit-trial","trial_index":95,"time_elapsed":426400,"internal_node_id":"0.0-70.0","task_version":"battery-v0.2-trt","session":2},{"rune":"U","rune_set":"bacs1","hex":"#3366ff99","correct":-1,"choice":-1,"rt":-1,"accuracy":1,"outcome":"+10","keys":[],"total_keys":0,"block":1,"trial":66,"stimulus":7,"robot":2,"valence":"win","action":"no-go","sham":0,"trial_type":"pit-trial","trial_index":96,"time_elapsed":430413,"internal_node_id":"0.0-71.0","task_version":"battery-v0.2-trt","session":2},{"rune":"K","rune_set":"bacs1","hex":"#f73b6a7A","correct":32,"choice":32,"rt":660.0799998268485,"accuracy":1,"outcome":"-1","keys":[2160.309999715537],"total_keys":1,"block":1,"trial":67,"stimulus":5,"robot":3,"valence":"lose","action":"go","sham":0,"trial_type":"pit-trial","trial_index":97,"time_elapsed":433782,"internal_node_id":"0.0-72.0","task_version":"battery-v0.2-trt","session":2},{"rune":"S","rune_set":"bacs1","hex":"#3366ff99","correct":-1,"choice":-1,"rt":-1,"accuracy":1,"outcome":"+10","keys":[],"total_keys":0,"block":1,"trial":68,"stimulus":6,"robot":2,"valence":"win","action":"no-go","sham":0,"trial_type":"pit-trial","trial_index":98,"time_elapsed":437794,"internal_node_id":"0.0-73.0","task_version":"battery-v0.2-trt","session":2},{"rune":"K","rune_set":"bacs1","hex":"#f73b6a7A","correct":32,"choice":32,"rt":509.1699999757111,"accuracy":1,"outcome":"-1","keys":[2011.1650000326335],"total_keys":1,"block":1,"trial":69,"stimulus":5,"robot":3,"valence":"lose","action":"go","sham":0,"trial_type":"pit-trial","trial_index":99,"time_elapsed":441016,"internal_node_id":"0.0-74.0","task_version":"battery-v0.2-trt","session":2},{"rune":"U","rune_set":"bacs1","hex":"#3366ff99","correct":-1,"choice":-1,"rt":-1,"accuracy":1,"outcome":"+10","keys":[],"total_keys":0,"block":1,"trial":70,"stimulus":7,"robot":2,"valence":"win","action":"no-go","sham":0,"trial_type":"pit-trial","trial_index":100,"time_elapsed":445024,"internal_node_id":"0.0-75.0","task_version":"battery-v0.2-trt","session":2},{"rune":"S","rune_set":"bacs1","hex":"#3366ff99","correct":-1,"choice":-1,"rt":-1,"accuracy":1,"outcome":"+10","keys":[],"total_keys":0,"block":1,"trial":71,"stimulus":6,"robot":2,"valence":"win","action":"no-go","sham":0,"trial_type":"pit-trial","trial_index":101,"time_elapsed":449038,"internal_node_id":"0.0-76.0","task_version":"battery-v0.2-trt","session":2},{"rune":"D","rune_set":"bacs1","hex":"#f73b6a7A","correct":-1,"choice":-1,"rt":-1,"accuracy":1,"outcome":"-1","keys":[],"total_keys":0,"block":1,"trial":72,"stimulus":4,"robot":4,"valence":"lose","action":"no-go","sham":0,"trial_type":"pit-trial","trial_index":102,"time_elapsed":453049,"internal_node_id":"0.0-77.0","task_version":"battery-v0.2-trt","session":2},{"rune":"D","rune_set":"bacs1","hex":"#f73b6a7A","correct":-1,"choice":-1,"rt":-1,"accuracy":1,"outcome":"-1","keys":[],"total_keys":0,"block":1,"trial":73,"stimulus":4,"robot":4,"valence":"lose","action":"no-go","sham":0,"trial_type":"pit-trial","trial_index":103,"time_elapsed":457061,"internal_node_id":"0.0-78.0","task_version":"battery-v0.2-trt","session":2},{"rune":"S","rune_set":"bacs1","hex":"#3366ff99","correct":-1,"choice":-1,"rt":-1,"accuracy":1,"outcome":"+10","keys":[],"total_keys":0,"block":1,"trial":74,"stimulus":6,"robot":2,"valence":"win","action":"no-go","sham":0,"trial_type":"pit-trial","trial_index":104,"time_elapsed":461072,"internal_node_id":"0.0-79.0","task_version":"battery-v0.2-trt","session":2},{"rune":"K","rune_set":"bacs1","hex":"#f73b6a7A","correct":32,"choice":32,"rt":347.2449998371303,"accuracy":1,"outcome":"-1","keys":[1847.990000154823],"total_keys":1,"block":1,"trial":75,"stimulus":5,"robot":3,"valence":"lose","action":"go","sham":0,"trial_type":"pit-trial","trial_index":105,"time_elapsed":464129,"internal_node_id":"0.0-80.0","task_version":"battery-v0.2-trt","session":2},{"rune":"U","rune_set":"bacs1","hex":"#3366ff99","correct":-1,"choice":-1,"rt":-1,"accuracy":1,"outcome":"+10","keys":[],"total_keys":0,"block":1,"trial":76,"stimulus":7,"robot":2,"valence":"win","action":"no-go","sham":0,"trial_type":"pit-trial","trial_index":106,"time_elapsed":468143,"internal_node_id":"0.0-81.0","task_version":"battery-v0.2-trt","session":2},{"rune":"U","rune_set":"bacs1","hex":"#3366ff99","correct":-1,"choice":-1,"rt":-1,"accuracy":1,"outcome":"+10","keys":[],"total_keys":0,"block":1,"trial":77,"stimulus":7,"robot":2,"valence":"win","action":"no-go","sham":0,"trial_type":"pit-trial","trial_index":107,"time_elapsed":472154,"internal_node_id":"0.0-82.0","task_version":"battery-v0.2-trt","session":2},{"rune":"S","rune_set":"bacs1","hex":"#3366ff99","correct":-1,"choice":-1,"rt":-1,"accuracy":1,"outcome":"+1","keys":[],"total_keys":0,"block":1,"trial":78,"stimulus":6,"robot":2,"valence":"win","action":"no-go","sham":1,"trial_type":"pit-trial","trial_index":108,"time_elapsed":476164,"internal_node_id":"0.0-83.0","task_version":"battery-v0.2-trt","session":2},{"rune":"D","rune_set":"bacs1","hex":"#f73b6a7A","correct":-1,"choice":-1,"rt":-1,"accuracy":1,"outcome":"-1","keys":[],"total_keys":0,"block":1,"trial":79,"stimulus":4,"robot":4,"valence":"lose","action":"no-go","sham":0,"trial_type":"pit-trial","trial_index":109,"time_elapsed":480176,"internal_node_id":"0.0-84.0","task_version":"battery-v0.2-trt","session":2},{"rune":"K","rune_set":"bacs1","hex":"#f73b6a7A","correct":32,"choice":32,"rt":506.800000090152,"accuracy":1,"outcome":"-1","keys":[2006.98500033468],"total_keys":1,"block":1,"trial":80,"stimulus":5,"robot":3,"valence":"lose","action":"go","sham":0,"trial_type":"pit-trial","trial_index":110,"time_elapsed":483392,"internal_node_id":"0.0-85.0","task_version":"battery-v0.2-trt","session":2},{"rune":"M","rune_set":"bacs1","hex":"#3366ff99","correct":32,"choice":32,"rt":1047.6049999706447,"accuracy":1,"outcome":"+1","keys":[2549.5499996468425],"total_keys":1,"block":1,"trial":81,"stimulus":8,"robot":1,"valence":"win","action":"go","sham":1,"trial_type":"pit-trial","trial_index":111,"time_elapsed":487148,"internal_node_id":"0.0-86.0","task_version":"battery-v0.2-trt","session":2},{"rune":"K","rune_set":"bacs1","hex":"#f73b6a7A","correct":32,"choice":32,"rt":631.1400001868606,"accuracy":1,"outcome":"-1","keys":[2131.630000192672],"total_keys":1,"block":1,"trial":82,"stimulus":5,"robot":3,"valence":"lose","action":"go","sham":0,"trial_type":"pit-trial","trial_index":112,"time_elapsed":490400,"internal_node_id":"0.0-87.0","task_version":"battery-v0.2-trt","session":2},{"rune":"P","rune_set":"bacs1","hex":"#f73b6a7A","correct":-1,"choice":-1,"rt":-1,"accuracy":1,"outcome":"-1","keys":[3087.840000167489],"total_keys":1,"block":1,"trial":83,"stimulus":9,"robot":4,"valence":"lose","action":"no-go","sham":0,"trial_type":"pit-trial","trial_index":113,"time_elapsed":494408,"internal_node_id":"0.0-88.0","task_version":"battery-v0.2-trt","session":2},{"rune":"U","rune_set":"bacs1","hex":"#3366ff99","correct":-1,"choice":-1,"rt":-1,"accuracy":1,"outcome":"+1","keys":[],"total_keys":0,"block":1,"trial":84,"stimulus":7,"robot":2,"valence":"win","action":"no-go","sham":1,"trial_type":"pit-trial","trial_index":114,"time_elapsed":498415,"internal_node_id":"0.0-89.0","task_version":"battery-v0.2-trt","session":2},{"rune":"K","rune_set":"bacs1","hex":"#f73b6a7A","correct":32,"choice":32,"rt":561.784999910742,"accuracy":1,"outcome":"-1","keys":[2062.2100001201034],"total_keys":1,"block":1,"trial":85,"stimulus":5,"robot":3,"valence":"lose","action":"go","sham":0,"trial_type":"pit-trial","trial_index":115,"time_elapsed":501686,"internal_node_id":"0.0-90.0","task_version":"battery-v0.2-trt","session":2},{"rune":"U","rune_set":"bacs1","hex":"#3366ff99","correct":-1,"choice":-1,"rt":-1,"accuracy":1,"outcome":"+1","keys":[],"total_keys":0,"block":1,"trial":86,"stimulus":7,"robot":2,"valence":"win","action":"no-go","sham":1,"trial_type":"pit-trial","trial_index":116,"time_elapsed":505698,"internal_node_id":"0.0-91.0","task_version":"battery-v0.2-trt","session":2},{"rune":"M","rune_set":"bacs1","hex":"#3366ff99","correct":32,"choice":-1,"rt":-1,"accuracy":0,"outcome":"+10","keys":[],"total_keys":0,"block":1,"trial":87,"stimulus":8,"robot":1,"valence":"win","action":"go","sham":1,"trial_type":"pit-trial","trial_index":117,"time_elapsed":509711,"internal_node_id":"0.0-92.0","task_version":"battery-v0.2-trt","session":2},{"rune":"P","rune_set":"bacs1","hex":"#f73b6a7A","correct":-1,"choice":-1,"rt":-1,"accuracy":1,"outcome":"-10","keys":[3501.780000049621],"total_keys":1,"block":1,"trial":88,"stimulus":9,"robot":4,"valence":"lose","action":"no-go","sham":1,"trial_type":"pit-trial","trial_index":118,"time_elapsed":513720,"internal_node_id":"0.0-93.0","task_version":"battery-v0.2-trt","session":2},{"rune":"M","rune_set":"bacs1","hex":"#3366ff99","correct":32,"choice":-1,"rt":-1,"accuracy":0,"outcome":"+1","keys":[],"total_keys":0,"block":1,"trial":89,"stimulus":8,"robot":1,"valence":"win","action":"go","sham":0,"trial_type":"pit-trial","trial_index":119,"time_elapsed":517731,"internal_node_id":"0.0-94.0","task_version":"battery-v0.2-trt","session":2},{"rune":"P","rune_set":"bacs1","hex":"#f73b6a7A","correct":-1,"choice":32,"rt":309.16499998420477,"accuracy":0,"outcome":"-10","keys":[1809.7550002858043],"total_keys":1,"block":1,"trial":90,"stimulus":9,"robot":4,"valence":"lose","action":"no-go","sham":0,"trial_type":"pit-trial","trial_index":120,"time_elapsed":520746,"internal_node_id":"0.0-95.0","task_version":"battery-v0.2-trt","session":2},{"rune":"Y","rune_set":"bacs1","hex":"#3366ff99","correct":32,"choice":32,"rt":1044.4299997761846,"accuracy":1,"outcome":"+1","keys":[2546.990000177175],"total_keys":1,"block":1,"trial":91,"stimulus":11,"robot":1,"valence":"win","action":"go","sham":1,"trial_type":"pit-trial","trial_index":121,"time_elapsed":524499,"internal_node_id":"0.0-96.0","task_version":"battery-v0.2-trt","session":2},{"rune":"H","rune_set":"bacs1","hex":"#f73b6a7A","correct":32,"choice":32,"rt":1046.6800001449883,"accuracy":1,"outcome":"-1","keys":[2546.9150003045797],"total_keys":1,"block":1,"trial":92,"stimulus":10,"robot":3,"valence":"lose","action":"go","sham":0,"trial_type":"pit-trial","trial_index":122,"time_elapsed":528255,"internal_node_id":"0.0-97.0","task_version":"battery-v0.2-trt","session":2},{"rune":"H","rune_set":"bacs1","hex":"#f73b6a7A","correct":32,"choice":32,"rt":490.39500020444393,"accuracy":1,"outcome":"-10","keys":[1990.6250000931323],"total_keys":1,"block":1,"trial":93,"stimulus":10,"robot":3,"valence":"lose","action":"go","sham":1,"trial_type":"pit-trial","trial_index":123,"time_elapsed":531454,"internal_node_id":"0.0-98.0","task_version":"battery-v0.2-trt","session":2},{"rune":"Y","rune_set":"bacs1","hex":"#3366ff99","correct":32,"choice":-1,"rt":-1,"accuracy":0,"outcome":"+1","keys":[],"total_keys":0,"block":1,"trial":94,"stimulus":11,"robot":1,"valence":"win","action":"go","sham":0,"trial_type":"pit-trial","trial_index":124,"time_elapsed":535466,"internal_node_id":"0.0-99.0","task_version":"battery-v0.2-trt","session":2},{"rune":"M","rune_set":"bacs1","hex":"#3366ff99","correct":32,"choice":-1,"rt":-1,"accuracy":0,"outcome":"+1","keys":[],"total_keys":0,"block":1,"trial":95,"stimulus":8,"robot":1,"valence":"win","action":"go","sham":0,"trial_type":"pit-trial","trial_index":125,"time_elapsed":539477,"internal_node_id":"0.0-100.0","task_version":"battery-v0.2-trt","session":2},{"rune":"P","rune_set":"bacs1","hex":"#f73b6a7A","correct":-1,"choice":32,"rt":825.9600000455976,"accuracy":0,"outcome":"-10","keys":[2326.0400001890957],"total_keys":1,"block":1,"trial":96,"stimulus":9,"robot":4,"valence":"lose","action":"no-go","sham":0,"trial_type":"pit-trial","trial_index":126,"time_elapsed":543008,"internal_node_id":"0.0-101.0","task_version":"battery-v0.2-trt","session":2},{"rune":"H","rune_set":"bacs1","hex":"#f73b6a7A","correct":32,"choice":32,"rt":655.6049999780953,"accuracy":1,"outcome":"-10","keys":[2155.7499999180436],"total_keys":1,"block":1,"trial":97,"stimulus":10,"robot":3,"valence":"lose","action":"go","sham":1,"trial_type":"pit-trial","trial_index":127,"time_elapsed":546373,"internal_node_id":"0.0-102.0","task_version":"battery-v0.2-trt","session":2},{"rune":"Y","rune_set":"bacs1","hex":"#3366ff99","correct":32,"choice":32,"rt":970.3549998812377,"accuracy":1,"outcome":"+10","keys":[2470.7349999807775],"total_keys":1,"block":1,"trial":98,"stimulus":11,"robot":1,"valence":"win","action":"go","sham":0,"trial_type":"pit-trial","trial_index":128,"time_elapsed":550052,"internal_node_id":"0.0-103.0","task_version":"battery-v0.2-trt","session":2},{"rune":"M","rune_set":"bacs1","hex":"#3366ff99","correct":32,"choice":-1,"rt":-1,"accuracy":0,"outcome":"+1","keys":[3344.2600001581013],"total_keys":1,"block":1,"trial":99,"stimulus":8,"robot":1,"valence":"win","action":"go","sham":0,"trial_type":"pit-trial","trial_index":129,"time_elapsed":554064,"internal_node_id":"0.0-104.0","task_version":"battery-v0.2-trt","session":2},{"rune":"P","rune_set":"bacs1","hex":"#f73b6a7A","correct":-1,"choice":-1,"rt":-1,"accuracy":1,"outcome":"-10","keys":[3291.335000190884],"total_keys":1,"block":1,"trial":100,"stimulus":9,"robot":4,"valence":"lose","action":"no-go","sham":1,"trial_type":"pit-trial","trial_index":130,"time_elapsed":558074,"internal_node_id":"0.0-105.0","task_version":"battery-v0.2-trt","session":2},{"rune":"Y","rune_set":"bacs1","hex":"#3366ff99","correct":32,"choice":-1,"rt":-1,"accuracy":0,"outcome":"+1","keys":[3105.5400003679097],"total_keys":1,"block":1,"trial":101,"stimulus":11,"robot":1,"valence":"win","action":"go","sham":0,"trial_type":"pit-trial","trial_index":131,"time_elapsed":562089,"internal_node_id":"0.0-106.0","task_version":"battery-v0.2-trt","session":2},{"rune":"M","rune_set":"bacs1","hex":"#3366ff99","correct":32,"choice":32,"rt":947.2400001250207,"accuracy":1,"outcome":"+10","keys":[2449.48499975726],"total_keys":1,"block":1,"trial":102,"stimulus":8,"robot":1,"valence":"win","action":"go","sham":0,"trial_type":"pit-trial","trial_index":132,"time_elapsed":565746,"internal_node_id":"0.0-107.0","task_version":"battery-v0.2-trt","session":2},{"rune":"P","rune_set":"bacs1","hex":"#f73b6a7A","correct":-1,"choice":32,"rt":692.6600001752377,"accuracy":0,"outcome":"-10","keys":[2193.1900000199676],"total_keys":1,"block":1,"trial":103,"stimulus":9,"robot":4,"valence":"lose","action":"no-go","sham":0,"trial_type":"pit-trial","trial_index":133,"time_elapsed":569145,"internal_node_id":"0.0-108.0","task_version":"battery-v0.2-trt","session":2},{"rune":"H","rune_set":"bacs1","hex":"#f73b6a7A","correct":32,"choice":-1,"rt":-1,"accuracy":0,"outcome":"-10","keys":[],"total_keys":0,"block":1,"trial":104,"stimulus":10,"robot":3,"valence":"lose","action":"go","sham":0,"trial_type":"pit-trial","trial_index":134,"time_elapsed":573156,"internal_node_id":"0.0-109.0","task_version":"battery-v0.2-trt","session":2},{"rune":"P","rune_set":"bacs1","hex":"#f73b6a7A","correct":-1,"choice":32,"rt":825.379999820143,"accuracy":0,"outcome":"-10","keys":[2326.954999938607],"total_keys":1,"block":1,"trial":105,"stimulus":9,"robot":4,"valence":"lose","action":"no-go","sham":0,"trial_type":"pit-trial","trial_index":135,"time_elapsed":576692,"internal_node_id":"0.0-110.0","task_version":"battery-v0.2-trt","session":2},{"rune":"M","rune_set":"bacs1","hex":"#3366ff99","correct":32,"choice":32,"rt":545.3900001011789,"accuracy":1,"outcome":"+10","keys":[2047.2450000233948],"total_keys":1,"block":1,"trial":106,"stimulus":8,"robot":1,"valence":"win","action":"go","sham":0,"trial_type":"pit-trial","trial_index":136,"time_elapsed":579949,"internal_node_id":"0.0-111.0","task_version":"battery-v0.2-trt","session":2},{"rune":"Y","rune_set":"bacs1","hex":"#3366ff99","correct":32,"choice":32,"rt":776.6900002025068,"accuracy":1,"outcome":"+10","keys":[2277.6449997909367],"total_keys":1,"block":1,"trial":107,"stimulus":11,"robot":1,"valence":"win","action":"go","sham":0,"trial_type":"pit-trial","trial_index":137,"time_elapsed":583435,"internal_node_id":"0.0-112.0","task_version":"battery-v0.2-trt","session":2},{"rune":"H","rune_set":"bacs1","hex":"#f73b6a7A","correct":32,"choice":-1,"rt":-1,"accuracy":0,"outcome":"-10","keys":[],"total_keys":0,"block":1,"trial":108,"stimulus":10,"robot":3,"valence":"lose","action":"go","sham":0,"trial_type":"pit-trial","trial_index":138,"time_elapsed":587445,"internal_node_id":"0.0-113.0","task_version":"battery-v0.2-trt","session":2},{"rune":"P","rune_set":"bacs1","hex":"#f73b6a7A","correct":-1,"choice":32,"rt":767.9349998943508,"accuracy":0,"outcome":"-1","keys":[2271.475000306964],"total_keys":1,"block":1,"trial":109,"stimulus":9,"robot":4,"valence":"lose","action":"no-go","sham":1,"trial_type":"pit-trial","trial_index":139,"time_elapsed":590924,"internal_node_id":"0.0-114.0","task_version":"battery-v0.2-trt","session":2},{"rune":"M","rune_set":"bacs1","hex":"#3366ff99","correct":32,"choice":32,"rt":594.5549998432398,"accuracy":1,"outcome":"+10","keys":[2094.705000054091],"total_keys":1,"block":1,"trial":110,"stimulus":8,"robot":1,"valence":"win","action":"go","sham":0,"trial_type":"pit-trial","trial_index":140,"time_elapsed":594228,"internal_node_id":"0.0-115.0","task_version":"battery-v0.2-trt","session":2},{"rune":"Y","rune_set":"bacs1","hex":"#3366ff99","correct":32,"choice":32,"rt":536.120000295341,"accuracy":1,"outcome":"+10","keys":[2038.569999858737],"total_keys":1,"block":1,"trial":111,"stimulus":11,"robot":1,"valence":"win","action":"go","sham":0,"trial_type":"pit-trial","trial_index":141,"time_elapsed":597474,"internal_node_id":"0.0-116.0","task_version":"battery-v0.2-trt","session":2},{"rune":"H","rune_set":"bacs1","hex":"#f73b6a7A","correct":32,"choice":32,"rt":780.560000333935,"accuracy":1,"outcome":"-1","keys":[2280.7050002738833],"total_keys":1,"block":1,"trial":112,"stimulus":10,"robot":3,"valence":"lose","action":"go","sham":0,"trial_type":"pit-trial","trial_index":142,"time_elapsed":600961,"internal_node_id":"0.0-117.0","task_version":"battery-v0.2-trt","session":2},{"rune":"M","rune_set":"bacs1","hex":"#3366ff99","correct":32,"choice":32,"rt":651.6350000165403,"accuracy":1,"outcome":"+10","keys":[2152.4849999696016],"total_keys":1,"block":1,"trial":113,"stimulus":8,"robot":1,"valence":"win","action":"go","sham":0,"trial_type":"pit-trial","trial_index":143,"time_elapsed":604322,"internal_node_id":"0.0-118.0","task_version":"battery-v0.2-trt","session":2},{"rune":"Y","rune_set":"bacs1","hex":"#3366ff99","correct":32,"choice":32,"rt":675.2949999645352,"accuracy":1,"outcome":"+1","keys":[2175.8550000377],"total_keys":1,"block":1,"trial":114,"stimulus":11,"robot":1,"valence":"win","action":"go","sham":1,"trial_type":"pit-trial","trial_index":144,"time_elapsed":607707,"internal_node_id":"0.0-119.0","task_version":"battery-v0.2-trt","session":2},{"rune":"H","rune_set":"bacs1","hex":"#f73b6a7A","correct":32,"choice":32,"rt":1243.544999975711,"accuracy":1,"outcome":"-1","keys":[2744.3300001323223],"total_keys":1,"block":1,"trial":115,"stimulus":10,"robot":3,"valence":"lose","action":"go","sham":0,"trial_type":"pit-trial","trial_index":145,"time_elapsed":611659,"internal_node_id":"0.0-120.0","task_version":"battery-v0.2-trt","session":2},{"rune":"P","rune_set":"bacs1","hex":"#f73b6a7A","correct":-1,"choice":-1,"rt":-1,"accuracy":1,"outcome":"-1","keys":[],"total_keys":0,"block":1,"trial":116,"stimulus":9,"robot":4,"valence":"lose","action":"no-go","sham":0,"trial_type":"pit-trial","trial_index":146,"time_elapsed":615665,"internal_node_id":"0.0-121.0","task_version":"battery-v0.2-trt","session":2},{"rune":"Y","rune_set":"bacs1","hex":"#3366ff99","correct":32,"choice":32,"rt":588.1550000049174,"accuracy":1,"outcome":"+10","keys":[2088.244999758899],"total_keys":1,"block":1,"trial":117,"stimulus":11,"robot":1,"valence":"win","action":"go","sham":0,"trial_type":"pit-trial","trial_index":147,"time_elapsed":618962,"internal_node_id":"0.0-122.0","task_version":"battery-v0.2-trt","session":2},{"rune":"M","rune_set":"bacs1","hex":"#3366ff99","correct":32,"choice":32,"rt":514.5550002343953,"accuracy":1,"outcome":"+1","keys":[2015.9100000746548],"total_keys":1,"block":1,"trial":118,"stimulus":8,"robot":1,"valence":"win","action":"go","sham":1,"trial_type":"pit-trial","trial_index":148,"time_elapsed":622187,"internal_node_id":"0.0-123.0","task_version":"battery-v0.2-trt","session":2},{"rune":"P","rune_set":"bacs1","hex":"#f73b6a7A","correct":-1,"choice":32,"rt":833.9599999599159,"accuracy":0,"outcome":"-10","keys":[2334.5300001092255],"total_keys":1,"block":1,"trial":119,"stimulus":9,"robot":4,"valence":"lose","action":"no-go","sham":0,"trial_type":"pit-trial","trial_index":149,"time_elapsed":625731,"internal_node_id":"0.0-124.0","task_version":"battery-v0.2-trt","session":2},{"rune":"H","rune_set":"bacs1","hex":"#f73b6a7A","correct":32,"choice":32,"rt":882.5700003653765,"accuracy":1,"outcome":"-10","keys":[2382.85499997437],"total_keys":1,"block":1,"trial":120,"stimulus":10,"robot":3,"valence":"lose","action":"go","sham":1,"trial_type":"pit-trial","trial_index":150,"time_elapsed":629322,"internal_node_id":"0.0-125.0","task_version":"battery-v0.2-trt","session":2},{"view_history":"[{\"page_index\":0,\"viewing_time\":3017.1750001609325},{\"page_index\":1,\"viewing_time\":2615.9449997358024}]","rt":5633.630000054836,"trial_type":"pit-instructions","trial_index":151,"time_elapsed":634961,"internal_node_id":"0.0-126.0","task_version":"battery-v0.2-trt","session":2},{"rune":"J","rune_set":"bacs1","hex":"#f73b6a7A","correct":32,"choice":32,"rt":763.8649996370077,"accuracy":1,"outcome":"-10","keys":[2264.2450002022088],"total_keys":1,"block":2,"trial":121,"stimulus":2,"robot":3,"valence":"lose","action":"go","sham":1,"trial_type":"pit-trial","trial_index":152,"time_elapsed":638433,"internal_node_id":"0.0-127.0","task_version":"battery-v0.2-trt","session":2},{"rune":"R","rune_set":"bacs1","hex":"#3366ff99","correct":32,"choice":32,"rt":697.215000167489,"accuracy":1,"outcome":"+10","keys":[2198.3300000429153],"total_keys":1,"block":2,"trial":122,"stimulus":3,"robot":1,"valence":"win","action":"go","sham":0,"trial_type":"pit-trial","trial_index":153,"time_elapsed":641839,"internal_node_id":"0.0-128.0","task_version":"battery-v0.2-trt","session":2},{"rune":"Z","rune_set":"bacs1","hex":"#f73b6a7A","correct":32,"choice":32,"rt":1212.6450003124774,"accuracy":1,"outcome":"-1","keys":[2714.55500042066],"total_keys":1,"block":2,"trial":123,"stimulus":1,"robot":3,"valence":"lose","action":"go","sham":0,"trial_type":"pit-trial","trial_index":154,"time_elapsed":645764,"internal_node_id":"0.0-129.0","task_version":"battery-v0.2-trt","session":2},{"rune":"B","rune_set":"bacs1","hex":"#f73b6a7A","correct":-1,"choice":-1,"rt":-1,"accuracy":1,"outcome":"-10","keys":[2836.519999895245],"total_keys":1,"block":2,"trial":124,"stimulus":0,"robot":4,"valence":"lose","action":"no-go","sham":1,"trial_type":"pit-trial","trial_index":155,"time_elapsed":649774,"internal_node_id":"0.0-130.0","task_version":"battery-v0.2-trt","session":2},{"rune":"R","rune_set":"bacs1","hex":"#3366ff99","correct":32,"choice":32,"rt":828.3750000409782,"accuracy":1,"outcome":"+10","keys":[2330.494999885559],"total_keys":1,"block":2,"trial":125,"stimulus":3,"robot":1,"valence":"win","action":"go","sham":0,"trial_type":"pit-trial","trial_index":156,"time_elapsed":653315,"internal_node_id":"0.0-131.0","task_version":"battery-v0.2-trt","session":2},{"rune":"B","rune_set":"bacs1","hex":"#f73b6a7A","correct":-1,"choice":-1,"rt":-1,"accuracy":1,"outcome":"-1","keys":[],"total_keys":0,"block":2,"trial":126,"stimulus":0,"robot":4,"valence":"lose","action":"no-go","sham":0,"trial_type":"pit-trial","trial_index":157,"time_elapsed":657329,"internal_node_id":"0.0-132.0","task_version":"battery-v0.2-trt","session":2},{"rune":"Z","rune_set":"bacs1","hex":"#f73b6a7A","correct":32,"choice":32,"rt":907.0099997334182,"accuracy":1,"outcome":"-10","keys":[2407.870000228286],"total_keys":1,"block":2,"trial":127,"stimulus":1,"robot":3,"valence":"lose","action":"go","sham":1,"trial_type":"pit-trial","trial_index":158,"time_elapsed":660946,"internal_node_id":"0.0-133.0","task_version":"battery-v0.2-trt","session":2},{"rune":"J","rune_set":"bacs1","hex":"#f73b6a7A","correct":32,"choice":-1,"rt":-1,"accuracy":0,"outcome":"-10","keys":[],"total_keys":0,"block":2,"trial":128,"stimulus":2,"robot":3,"valence":"lose","action":"go","sham":0,"trial_type":"pit-trial","trial_index":159,"time_elapsed":664954,"internal_node_id":"0.0-134.0","task_version":"battery-v0.2-trt","session":2},{"rune":"B","rune_set":"bacs1","hex":"#f73b6a7A","correct":-1,"choice":-1,"rt":-1,"accuracy":1,"outcome":"-1","keys":[],"total_keys":0,"block":2,"trial":129,"stimulus":0,"robot":4,"valence":"lose","action":"no-go","sham":0,"trial_type":"pit-trial","trial_index":160,"time_elapsed":668965,"internal_node_id":"0.0-135.0","task_version":"battery-v0.2-trt","session":2},{"rune":"Z","rune_set":"bacs1","hex":"#f73b6a7A","correct":32,"choice":-1,"rt":-1,"accuracy":0,"outcome":"-1","keys":[],"total_keys":0,"block":2,"trial":130,"stimulus":1,"robot":3,"valence":"lose","action":"go","sham":1,"trial_type":"pit-trial","trial_index":161,"time_elapsed":672976,"internal_node_id":"0.0-136.0","task_version":"battery-v0.2-trt","session":2},{"rune":"J","rune_set":"bacs1","hex":"#f73b6a7A","correct":32,"choice":-1,"rt":-1,"accuracy":0,"outcome":"-10","keys":[],"total_keys":0,"block":2,"trial":131,"stimulus":2,"robot":3,"valence":"lose","action":"go","sham":0,"trial_type":"pit-trial","trial_index":162,"time_elapsed":676989,"internal_node_id":"0.0-137.0","task_version":"battery-v0.2-trt","session":2},{"rune":"R","rune_set":"bacs1","hex":"#3366ff99","correct":32,"choice":32,"rt":487.41000005975366,"accuracy":1,"outcome":"+10","keys":[1987.7550001256168],"total_keys":1,"block":2,"trial":132,"stimulus":3,"robot":1,"valence":"win","action":"go","sham":0,"trial_type":"pit-trial","trial_index":163,"time_elapsed":680186,"internal_node_id":"0.0-138.0","task_version":"battery-v0.2-trt","session":2},{"rune":"J","rune_set":"bacs1","hex":"#f73b6a7A","correct":32,"choice":-1,"rt":-1,"accuracy":0,"outcome":"-10","keys":[2903.0200000852346],"total_keys":1,"block":2,"trial":133,"stimulus":2,"robot":3,"valence":"lose","action":"go","sham":0,"trial_type":"pit-trial","trial_index":164,"time_elapsed":684196,"internal_node_id":"0.0-139.0","task_version":"battery-v0.2-trt","session":2},{"rune":"B","rune_set":"bacs1","hex":"#f73b6a7A","correct":-1,"choice":-1,"rt":-1,"accuracy":1,"outcome":"-1","keys":[],"total_keys":0,"block":2,"trial":134,"stimulus":0,"robot":4,"valence":"lose","action":"no-go","sham":0,"trial_type":"pit-trial","trial_index":165,"time_elapsed":688212,"internal_node_id":"0.0-140.0","task_version":"battery-v0.2-trt","session":2},{"rune":"Z","rune_set":"bacs1","hex":"#f73b6a7A","correct":32,"choice":-1,"rt":-1,"accuracy":0,"outcome":"-10","keys":[3380.834999959916],"total_keys":1,"block":2,"trial":135,"stimulus":1,"robot":3,"valence":"lose","action":"go","sham":0,"trial_type":"pit-trial","trial_index":166,"time_elapsed":692225,"internal_node_id":"0.0-141.0","task_version":"battery-v0.2-trt","session":2},{"rune":"R","rune_set":"bacs1","hex":"#3366ff99","correct":32,"choice":32,"rt":498.3199997805059,"accuracy":1,"outcome":"+1","keys":[1998.7900000996888],"total_keys":1,"block":2,"trial":136,"stimulus":3,"robot":1,"valence":"win","action":"go","sham":1,"trial_type":"pit-trial","trial_index":167,"time_elapsed":695434,"internal_node_id":"0.0-142.0","task_version":"battery-v0.2-trt","session":2},{"rune":"Z","rune_set":"bacs1","hex":"#f73b6a7A","correct":32,"choice":32,"rt":567.2049997374415,"accuracy":1,"outcome":"-1","keys":[2069.730000104755],"total_keys":1,"block":2,"trial":137,"stimulus":1,"robot":3,"valence":"lose","action":"go","sham":0,"trial_type":"pit-trial","trial_index":168,"time_elapsed":698712,"internal_node_id":"0.0-143.0","task_version":"battery-v0.2-trt","session":2},{"rune":"J","rune_set":"bacs1","hex":"#f73b6a7A","correct":32,"choice":32,"rt":305.2400001324713,"accuracy":1,"outcome":"-10","keys":[1805.8549999259412],"total_keys":1,"block":2,"trial":138,"stimulus":2,"robot":3,"valence":"lose","action":"go","sham":1,"trial_type":"pit-trial","trial_index":169,"time_elapsed":701728,"internal_node_id":"0.0-144.0","task_version":"battery-v0.2-trt","session":2},{"rune":"R","rune_set":"bacs1","hex":"#3366ff99","correct":32,"choice":32,"rt":445.40000008419156,"accuracy":1,"outcome":"+10","keys":[1945.60999982059],"total_keys":1,"block":2,"trial":139,"stimulus":3,"robot":1,"valence":"win","action":"go","sham":0,"trial_type":"pit-trial","trial_index":170,"time_elapsed":704877,"internal_node_id":"0.0-145.0","task_version":"battery-v0.2-trt","session":2},{"rune":"B","rune_set":"bacs1","hex":"#f73b6a7A","correct":-1,"choice":-1,"rt":-1,"accuracy":1,"outcome":"-1","keys":[],"total_keys":0,"block":2,"trial":140,"stimulus":0,"robot":4,"valence":"lose","action":"no-go","sham":0,"trial_type":"pit-trial","trial_index":171,"time_elapsed":708884,"internal_node_id":"0.0-146.0","task_version":"battery-v0.2-trt","session":2},{"rune":"R","rune_set":"bacs1","hex":"#3366ff99","correct":32,"choice":32,"rt":477.62500029057264,"accuracy":1,"outcome":"+10","keys":[1979.3650000356138],"total_keys":1,"block":2,"trial":141,"stimulus":3,"robot":1,"valence":"win","action":"go","sham":0,"trial_type":"pit-trial","trial_index":172,"time_elapsed":712072,"internal_node_id":"0.0-147.0","task_version":"battery-v0.2-trt","session":2},{"rune":"J","rune_set":"bacs1","hex":"#f73b6a7A","correct":32,"choice":32,"rt":755.9750000946224,"accuracy":1,"outcome":"-1","keys":[2256.0800001956522],"total_keys":1,"block":2,"trial":142,"stimulus":2,"robot":3,"valence":"lose","action":"go","sham":0,"trial_type":"pit-trial","trial_index":173,"time_elapsed":715537,"internal_node_id":"0.0-148.0","task_version":"battery-v0.2-trt","session":2},{"rune":"B","rune_set":"bacs1","hex":"#f73b6a7A","correct":-1,"choice":-1,"rt":-1,"accuracy":1,"outcome":"-1","keys":[],"total_keys":0,"block":2,"trial":143,"stimulus":0,"robot":4,"valence":"lose","action":"no-go","sham":0,"trial_type":"pit-trial","trial_index":174,"time_elapsed":719549,"internal_node_id":"0.0-149.0","task_version":"battery-v0.2-trt","session":2},{"rune":"Z","rune_set":"bacs1","hex":"#f73b6a7A","correct":32,"choice":32,"rt":742.3199997283518,"accuracy":1,"outcome":"-1","keys":[2242.8050003945827],"total_keys":1,"block":2,"trial":144,"stimulus":1,"robot":3,"valence":"lose","action":"go","sham":0,"trial_type":"pit-trial","trial_index":175,"time_elapsed":723002,"internal_node_id":"0.0-150.0","task_version":"battery-v0.2-trt","session":2},{"rune":"Z","rune_set":"bacs1","hex":"#f73b6a7A","correct":32,"choice":32,"rt":567.4999998882413,"accuracy":1,"outcome":"-1","keys":[2069.0799998119473],"total_keys":1,"block":2,"trial":145,"stimulus":1,"robot":3,"valence":"lose","action":"go","sham":0,"trial_type":"pit-trial","trial_index":176,"time_elapsed":726282,"internal_node_id":"0.0-151.0","task_version":"battery-v0.2-trt","session":2},{"rune":"R","rune_set":"bacs1","hex":"#3366ff99","correct":32,"choice":32,"rt":472.4050001241267,"accuracy":1,"outcome":"+1","keys":[1972.5700002163649],"total_keys":1,"block":2,"trial":146,"stimulus":3,"robot":1,"valence":"win","action":"go","sham":1,"trial_type":"pit-trial","trial_index":177,"time_elapsed":729465,"internal_node_id":"0.0-152.0","task_version":"battery-v0.2-trt","session":2},{"rune":"B","rune_set":"bacs1","hex":"#f73b6a7A","correct":-1,"choice":-1,"rt":-1,"accuracy":1,"outcome":"-10","keys":[],"total_keys":0,"block":2,"trial":147,"stimulus":0,"robot":4,"valence":"lose","action":"no-go","sham":1,"trial_type":"pit-trial","trial_index":178,"time_elapsed":733474,"internal_node_id":"0.0-153.0","task_version":"battery-v0.2-trt","session":2},{"rune":"J","rune_set":"bacs1","hex":"#f73b6a7A","correct":32,"choice":32,"rt":703.6350001581013,"accuracy":1,"outcome":"-1","keys":[2204.089999664575],"total_keys":1,"block":2,"trial":148,"stimulus":2,"robot":3,"valence":"lose","action":"go","sham":0,"trial_type":"pit-trial","trial_index":179,"time_elapsed":736888,"internal_node_id":"0.0-154.0","task_version":"battery-v0.2-trt","session":2},{"rune":"R","rune_set":"bacs1","hex":"#3366ff99","correct":32,"choice":32,"rt":426.1500001884997,"accuracy":1,"outcome":"+10","keys":[1926.4949997887015],"total_keys":1,"block":2,"trial":149,"stimulus":3,"robot":1,"valence":"win","action":"go","sham":0,"trial_type":"pit-trial","trial_index":180,"time_elapsed":740023,"internal_node_id":"0.0-155.0","task_version":"battery-v0.2-trt","session":2},{"rune":"B","rune_set":"bacs1","hex":"#f73b6a7A","correct":-1,"choice":-1,"rt":-1,"accuracy":1,"outcome":"-1","keys":[],"total_keys":0,"block":2,"trial":150,"stimulus":0,"robot":4,"valence":"lose","action":"no-go","sham":0,"trial_type":"pit-trial","trial_index":181,"time_elapsed":744032,"internal_node_id":"0.0-156.0","task_version":"battery-v0.2-trt","session":2},{"rune":"Z","rune_set":"bacs1","hex":"#f73b6a7A","correct":32,"choice":32,"rt":534.9750001914799,"accuracy":1,"outcome":"-1","keys":[2036.169999744743],"total_keys":1,"block":2,"trial":151,"stimulus":1,"robot":3,"valence":"lose","action":"go","sham":0,"trial_type":"pit-trial","trial_index":182,"time_elapsed":747276,"internal_node_id":"0.0-157.0","task_version":"battery-v0.2-trt","session":2},{"rune":"J","rune_set":"bacs1","hex":"#f73b6a7A","correct":32,"choice":32,"rt":549.8649999499321,"accuracy":1,"outcome":"-1","keys":[2050.0900000333786],"total_keys":1,"block":2,"trial":152,"stimulus":2,"robot":3,"valence":"lose","action":"go","sham":0,"trial_type":"pit-trial","trial_index":183,"time_elapsed":750535,"internal_node_id":"0.0-158.0","task_version":"battery-v0.2-trt","session":2},{"rune":"Z","rune_set":"bacs1","hex":"#f73b6a7A","correct":32,"choice":32,"rt":497.32499988749623,"accuracy":1,"outcome":"-1","keys":[1998.165000230074],"total_keys":1,"block":2,"trial":153,"stimulus":1,"robot":3,"valence":"lose","action":"go","sham":0,"trial_type":"pit-trial","trial_index":184,"time_elapsed":753740,"internal_node_id":"0.0-159.0","task_version":"battery-v0.2-trt","session":2},{"rune":"B","rune_set":"bacs1","hex":"#f73b6a7A","correct":-1,"choice":-1,"rt":-1,"accuracy":1,"outcome":"-1","keys":[],"total_keys":0,"block":2,"trial":154,"stimulus":0,"robot":4,"valence":"lose","action":"no-go","sham":0,"trial_type":"pit-trial","trial_index":185,"time_elapsed":757750,"internal_node_id":"0.0-160.0","task_version":"battery-v0.2-trt","session":2},{"rune":"R","rune_set":"bacs1","hex":"#3366ff99","correct":32,"choice":32,"rt":330.8600001037121,"accuracy":1,"outcome":"+10","keys":[1832.959999796003],"total_keys":1,"block":2,"trial":155,"stimulus":3,"robot":1,"valence":"win","action":"go","sham":0,"trial_type":"pit-trial","trial_index":186,"time_elapsed":760793,"internal_node_id":"0.0-161.0","task_version":"battery-v0.2-trt","session":2},{"rune":"V","rune_set":"bacs1","hex":"#f73b6a7A","correct":-1,"choice":32,"rt":1232.8650001436472,"accuracy":0,"outcome":"-10","keys":[2733.6349999532104],"total_keys":1,"block":2,"trial":156,"stimulus":4,"robot":4,"valence":"lose","action":"no-go","sham":0,"trial_type":"pit-trial","trial_index":187,"time_elapsed":764737,"internal_node_id":"0.0-162.0","task_version":"battery-v0.2-trt","session":2},{"rune":"Z","rune_set":"bacs1","hex":"#f73b6a7A","correct":32,"choice":32,"rt":673.1900000013411,"accuracy":1,"outcome":"-1","keys":[2173.5150003805757],"total_keys":1,"block":2,"trial":157,"stimulus":1,"robot":3,"valence":"lose","action":"go","sham":0,"trial_type":"pit-trial","trial_index":188,"time_elapsed":768117,"internal_node_id":"0.0-163.0","task_version":"battery-v0.2-trt","session":2},{"rune":"B","rune_set":"bacs1","hex":"#f73b6a7A","correct":-1,"choice":-1,"rt":-1,"accuracy":1,"outcome":"-10","keys":[],"total_keys":0,"block":2,"trial":158,"stimulus":0,"robot":4,"valence":"lose","action":"no-go","sham":1,"trial_type":"pit-trial","trial_index":189,"time_elapsed":772129,"internal_node_id":"0.0-164.0","task_version":"battery-v0.2-trt","session":2},{"rune":"R","rune_set":"bacs1","hex":"#3366ff99","correct":32,"choice":32,"rt":313.2299999706447,"accuracy":1,"outcome":"+1","keys":[1813.5749995708466],"total_keys":1,"block":2,"trial":159,"stimulus":3,"robot":1,"valence":"win","action":"go","sham":1,"trial_type":"pit-trial","trial_index":190,"time_elapsed":775148,"internal_node_id":"0.0-165.0","task_version":"battery-v0.2-trt","session":2},{"rune":"V","rune_set":"bacs1","hex":"#f73b6a7A","correct":-1,"choice":-1,"rt":-1,"accuracy":1,"outcome":"-1","keys":[],"total_keys":0,"block":2,"trial":160,"stimulus":4,"robot":4,"valence":"lose","action":"no-go","sham":0,"trial_type":"pit-trial","trial_index":191,"time_elapsed":779160,"internal_node_id":"0.0-166.0","task_version":"battery-v0.2-trt","session":2},{"rune":"B","rune_set":"bacs1","hex":"#f73b6a7A","correct":-1,"choice":-1,"rt":-1,"accuracy":1,"outcome":"-1","keys":[],"total_keys":0,"block":2,"trial":161,"stimulus":0,"robot":4,"valence":"lose","action":"no-go","sham":0,"trial_type":"pit-trial","trial_index":192,"time_elapsed":783169,"internal_node_id":"0.0-167.0","task_version":"battery-v0.2-trt","session":2},{"rune":"V","rune_set":"bacs1","hex":"#f73b6a7A","correct":-1,"choice":-1,"rt":-1,"accuracy":1,"outcome":"-1","keys":[],"total_keys":0,"block":2,"trial":162,"stimulus":4,"robot":4,"valence":"lose","action":"no-go","sham":0,"trial_type":"pit-trial","trial_index":193,"time_elapsed":787184,"internal_node_id":"0.0-168.0","task_version":"battery-v0.2-trt","session":2},{"rune":"E","rune_set":"bacs1","hex":"#3366ff99","correct":-1,"choice":32,"rt":937.5100000761449,"accuracy":0,"outcome":"+1","keys":[2437.919999938458],"total_keys":1,"block":2,"trial":163,"stimulus":5,"robot":2,"valence":"win","action":"no-go","sham":0,"trial_type":"pit-trial","trial_index":194,"time_elapsed":790832,"internal_node_id":"0.0-169.0","task_version":"battery-v0.2-trt","session":2},{"rune":"Z","rune_set":"bacs1","hex":"#f73b6a7A","correct":32,"choice":32,"rt":680.1049998030066,"accuracy":1,"outcome":"-1","keys":[2181.5500003285706],"total_keys":1,"block":2,"trial":164,"stimulus":1,"robot":3,"valence":"lose","action":"go","sham":0,"trial_type":"pit-trial","trial_index":195,"time_elapsed":794220,"internal_node_id":"0.0-170.0","task_version":"battery-v0.2-trt","session":2},{"rune":"V","rune_set":"bacs1","hex":"#f73b6a7A","correct":-1,"choice":-1,"rt":-1,"accuracy":1,"outcome":"-1","keys":[],"total_keys":0,"block":2,"trial":165,"stimulus":4,"robot":4,"valence":"lose","action":"no-go","sham":0,"trial_type":"pit-trial","trial_index":196,"time_elapsed":798231,"internal_node_id":"0.0-171.0","task_version":"battery-v0.2-trt","session":2},{"rune":"B","rune_set":"bacs1","hex":"#f73b6a7A","correct":-1,"choice":-1,"rt":-1,"accuracy":1,"outcome":"-1","keys":[],"total_keys":0,"block":2,"trial":166,"stimulus":0,"robot":4,"valence":"lose","action":"no-go","sham":0,"trial_type":"pit-trial","trial_index":197,"time_elapsed":802244,"internal_node_id":"0.0-172.0","task_version":"battery-v0.2-trt","session":2},{"rune":"E","rune_set":"bacs1","hex":"#3366ff99","correct":-1,"choice":-1,"rt":-1,"accuracy":1,"outcome":"+10","keys":[],"total_keys":0,"block":2,"trial":167,"stimulus":5,"robot":2,"valence":"win","action":"no-go","sham":0,"trial_type":"pit-trial","trial_index":198,"time_elapsed":806255,"internal_node_id":"0.0-173.0","task_version":"battery-v0.2-trt","session":2},{"rune":"Z","rune_set":"bacs1","hex":"#f73b6a7A","correct":32,"choice":32,"rt":674.0349996834993,"accuracy":1,"outcome":"-1","keys":[2174.355000257492],"total_keys":1,"block":2,"trial":168,"stimulus":1,"robot":3,"valence":"lose","action":"go","sham":0,"trial_type":"pit-trial","trial_index":199,"time_elapsed":809640,"internal_node_id":"0.0-174.0","task_version":"battery-v0.2-trt","session":2},{"rune":"T","rune_set":"bacs1","hex":"#f73b6a7A","correct":-1,"choice":32,"rt":1056.2050002627075,"accuracy":0,"outcome":"-10","keys":[2556.8050001747906],"total_keys":1,"block":2,"trial":169,"stimulus":6,"robot":4,"valence":"lose","action":"no-go","sham":0,"trial_type":"pit-trial","trial_index":200,"time_elapsed":813406,"internal_node_id":"0.0-175.0","task_version":"battery-v0.2-trt","session":2},{"rune":"E","rune_set":"bacs1","hex":"#3366ff99","correct":-1,"choice":-1,"rt":-1,"accuracy":1,"outcome":"+10","keys":[],"total_keys":0,"block":2,"trial":170,"stimulus":5,"robot":2,"valence":"win","action":"no-go","sham":0,"trial_type":"pit-trial","trial_index":201,"time_elapsed":817412,"internal_node_id":"0.0-176.0","task_version":"battery-v0.2-trt","session":2},{"rune":"V","rune_set":"bacs1","hex":"#f73b6a7A","correct":-1,"choice":-1,"rt":-1,"accuracy":1,"outcome":"-1","keys":[],"total_keys":0,"block":2,"trial":171,"stimulus":4,"robot":4,"valence":"lose","action":"no-go","sham":0,"trial_type":"pit-trial","trial_index":202,"time_elapsed":821419,"internal_node_id":"0.0-177.0","task_version":"battery-v0.2-trt","session":2},{"rune":"F","rune_set":"bacs1","hex":"#3366ff99","correct":32,"choice":32,"rt":1158.894999884069,"accuracy":1,"outcome":"+10","keys":[2659.0200001373887],"total_keys":1,"block":2,"trial":172,"stimulus":7,"robot":1,"valence":"win","action":"go","sham":0,"trial_type":"pit-trial","trial_index":203,"time_elapsed":825283,"internal_node_id":"0.0-178.0","task_version":"battery-v0.2-trt","session":2},{"rune":"T","rune_set":"bacs1","hex":"#f73b6a7A","correct":-1,"choice":-1,"rt":-1,"accuracy":1,"outcome":"-1","keys":[],"total_keys":0,"block":2,"trial":173,"stimulus":6,"robot":4,"valence":"lose","action":"no-go","sham":0,"trial_type":"pit-trial","trial_index":204,"time_elapsed":829291,"internal_node_id":"0.0-179.0","task_version":"battery-v0.2-trt","session":2},{"rune":"V","rune_set":"bacs1","hex":"#f73b6a7A","correct":-1,"choice":-1,"rt":-1,"accuracy":1,"outcome":"-1","keys":[],"total_keys":0,"block":2,"trial":174,"stimulus":4,"robot":4,"valence":"lose","action":"no-go","sham":0,"trial_type":"pit-trial","trial_index":205,"time_elapsed":833300,"internal_node_id":"0.0-180.0","task_version":"battery-v0.2-trt","session":2},{"rune":"F","rune_set":"bacs1","hex":"#3366ff99","correct":32,"choice":32,"rt":841.7299999855459,"accuracy":1,"outcome":"+10","keys":[2344.455000013113],"total_keys":1,"block":2,"trial":175,"stimulus":7,"robot":1,"valence":"win","action":"go","sham":0,"trial_type":"pit-trial","trial_index":206,"time_elapsed":836853,"internal_node_id":"0.0-181.0","task_version":"battery-v0.2-trt","session":2},{"rune":"E","rune_set":"bacs1","hex":"#3366ff99","correct":-1,"choice":-1,"rt":-1,"accuracy":1,"outcome":"+10","keys":[],"total_keys":0,"block":2,"trial":176,"stimulus":5,"robot":2,"valence":"win","action":"no-go","sham":0,"trial_type":"pit-trial","trial_index":207,"time_elapsed":840863,"internal_node_id":"0.0-182.0","task_version":"battery-v0.2-trt","session":2},{"rune":"E","rune_set":"bacs1","hex":"#3366ff99","correct":-1,"choice":-1,"rt":-1,"accuracy":1,"outcome":"+10","keys":[],"total_keys":0,"block":2,"trial":177,"stimulus":5,"robot":2,"valence":"win","action":"no-go","sham":0,"trial_type":"pit-trial","trial_index":208,"time_elapsed":844875,"internal_node_id":"0.0-183.0","task_version":"battery-v0.2-trt","session":2},{"rune":"T","rune_set":"bacs1","hex":"#f73b6a7A","correct":-1,"choice":-1,"rt":-1,"accuracy":1,"outcome":"-1","keys":[],"total_keys":0,"block":2,"trial":178,"stimulus":6,"robot":4,"valence":"lose","action":"no-go","sham":0,"trial_type":"pit-trial","trial_index":209,"time_elapsed":848889,"internal_node_id":"0.0-184.0","task_version":"battery-v0.2-trt","session":2},{"rune":"V","rune_set":"bacs1","hex":"#f73b6a7A","correct":-1,"choice":-1,"rt":-1,"accuracy":1,"outcome":"-1","keys":[],"total_keys":0,"block":2,"trial":179,"stimulus":4,"robot":4,"valence":"lose","action":"no-go","sham":0,"trial_type":"pit-trial","trial_index":210,"time_elapsed":852897,"internal_node_id":"0.0-185.0","task_version":"battery-v0.2-trt","session":2},{"rune":"F","rune_set":"bacs1","hex":"#3366ff99","correct":32,"choice":32,"rt":590.204999782145,"accuracy":1,"outcome":"+1","keys":[2090.935000218451],"total_keys":1,"block":2,"trial":180,"stimulus":7,"robot":1,"valence":"win","action":"go","sham":1,"trial_type":"pit-trial","trial_index":211,"time_elapsed":856194,"internal_node_id":"0.0-186.0","task_version":"battery-v0.2-trt","session":2},{"rune":"V","rune_set":"bacs1","hex":"#f73b6a7A","correct":-1,"choice":-1,"rt":-1,"accuracy":1,"outcome":"-10","keys":[],"total_keys":0,"block":2,"trial":181,"stimulus":4,"robot":4,"valence":"lose","action":"no-go","sham":1,"trial_type":"pit-trial","trial_index":212,"time_elapsed":860208,"internal_node_id":"0.0-187.0","task_version":"battery-v0.2-trt","session":2},{"rune":"F","rune_set":"bacs1","hex":"#3366ff99","correct":32,"choice":32,"rt":542.0749997720122,"accuracy":1,"outcome":"+10","keys":[2043.6700000427663],"total_keys":1,"block":2,"trial":182,"stimulus":7,"robot":1,"valence":"win","action":"go","sham":0,"trial_type":"pit-trial","trial_index":213,"time_elapsed":863462,"internal_node_id":"0.0-188.0","task_version":"battery-v0.2-trt","session":2},{"rune":"E","rune_set":"bacs1","hex":"#3366ff99","correct":-1,"choice":-1,"rt":-1,"accuracy":1,"outcome":"+1","keys":[],"total_keys":0,"block":2,"trial":183,"stimulus":5,"robot":2,"valence":"win","action":"no-go","sham":1,"trial_type":"pit-trial","trial_index":214,"time_elapsed":867473,"internal_node_id":"0.0-189.0","task_version":"battery-v0.2-trt","session":2},{"rune":"T","rune_set":"bacs1","hex":"#f73b6a7A","correct":-1,"choice":-1,"rt":-1,"accuracy":1,"outcome":"-10","keys":[],"total_keys":0,"block":2,"trial":184,"stimulus":6,"robot":4,"valence":"lose","action":"no-go","sham":1,"trial_type":"pit-trial","trial_index":215,"time_elapsed":871484,"internal_node_id":"0.0-190.0","task_version":"battery-v0.2-trt","session":2},{"rune":"E","rune_set":"bacs1","hex":"#3366ff99","correct":-1,"choice":-1,"rt":-1,"accuracy":1,"outcome":"+1","keys":[],"total_keys":0,"block":2,"trial":185,"stimulus":5,"robot":2,"valence":"win","action":"no-go","sham":1,"trial_type":"pit-trial","trial_index":216,"time_elapsed":875498,"internal_node_id":"0.0-191.0","task_version":"battery-v0.2-trt","session":2},{"rune":"T","rune_set":"bacs1","hex":"#f73b6a7A","correct":-1,"choice":32,"rt":644.2599999718368,"accuracy":0,"outcome":"-10","keys":[2145.550000015646],"total_keys":1,"block":2,"trial":186,"stimulus":6,"robot":4,"valence":"lose","action":"no-go","sham":0,"trial_type":"pit-trial","trial_index":217,"time_elapsed":878850,"internal_node_id":"0.0-192.0","task_version":"battery-v0.2-trt","session":2},{"rune":"F","rune_set":"bacs1","hex":"#3366ff99","correct":32,"choice":32,"rt":531.1549999751151,"accuracy":1,"outcome":"+10","keys":[2031.234999652952],"total_keys":1,"block":2,"trial":187,"stimulus":7,"robot":1,"valence":"win","action":"go","sham":0,"trial_type":"pit-trial","trial_index":218,"time_elapsed":882089,"internal_node_id":"0.0-193.0","task_version":"battery-v0.2-trt","session":2},{"rune":"V","rune_set":"bacs1","hex":"#f73b6a7A","correct":-1,"choice":-1,"rt":-1,"accuracy":1,"outcome":"-1","keys":[],"total_keys":0,"block":2,"trial":188,"stimulus":4,"robot":4,"valence":"lose","action":"no-go","sham":0,"trial_type":"pit-trial","trial_index":219,"time_elapsed":886101,"internal_node_id":"0.0-194.0","task_version":"battery-v0.2-trt","session":2},{"rune":"F","rune_set":"bacs1","hex":"#3366ff99","correct":32,"choice":32,"rt":848.3049999922514,"accuracy":1,"outcome":"+10","keys":[2348.870000336319],"total_keys":1,"block":2,"trial":189,"stimulus":7,"robot":1,"valence":"win","action":"go","sham":0,"trial_type":"pit-trial","trial_index":220,"time_elapsed":889659,"internal_node_id":"0.0-195.0","task_version":"battery-v0.2-trt","session":2},{"rune":"V","rune_set":"bacs1","hex":"#f73b6a7A","correct":-1,"choice":-1,"rt":-1,"accuracy":1,"outcome":"-1","keys":[],"total_keys":0,"block":2,"trial":190,"stimulus":4,"robot":4,"valence":"lose","action":"no-go","sham":0,"trial_type":"pit-trial","trial_index":221,"time_elapsed":893674,"internal_node_id":"0.0-196.0","task_version":"battery-v0.2-trt","session":2},{"rune":"E","rune_set":"bacs1","hex":"#3366ff99","correct":-1,"choice":-1,"rt":-1,"accuracy":1,"outcome":"+10","keys":[],"total_keys":0,"block":2,"trial":191,"stimulus":5,"robot":2,"valence":"win","action":"no-go","sham":0,"trial_type":"pit-trial","trial_index":222,"time_elapsed":897681,"internal_node_id":"0.0-197.0","task_version":"battery-v0.2-trt","session":2},{"rune":"T","rune_set":"bacs1","hex":"#f73b6a7A","correct":-1,"choice":-1,"rt":-1,"accuracy":1,"outcome":"-1","keys":[],"total_keys":0,"block":2,"trial":192,"stimulus":6,"robot":4,"valence":"lose","action":"no-go","sham":0,"trial_type":"pit-trial","trial_index":223,"time_elapsed":901692,"internal_node_id":"0.0-198.0","task_version":"battery-v0.2-trt","session":2},{"rune":"E","rune_set":"bacs1","hex":"#3366ff99","correct":-1,"choice":-1,"rt":-1,"accuracy":1,"outcome":"+10","keys":[],"total_keys":0,"block":2,"trial":193,"stimulus":5,"robot":2,"valence":"win","action":"no-go","sham":0,"trial_type":"pit-trial","trial_index":224,"time_elapsed":905704,"internal_node_id":"0.0-199.0","task_version":"battery-v0.2-trt","session":2},{"rune":"A","rune_set":"bacs1","hex":"#3366ff99","correct":32,"choice":32,"rt":1076.339999679476,"accuracy":1,"outcome":"+10","keys":[2577.4449999444187],"total_keys":1,"block":2,"trial":194,"stimulus":8,"robot":1,"valence":"win","action":"go","sham":0,"trial_type":"pit-trial","trial_index":225,"time_elapsed":909489,"internal_node_id":"0.0-200.0","task_version":"battery-v0.2-trt","session":2},{"rune":"F","rune_set":"bacs1","hex":"#3366ff99","correct":32,"choice":32,"rt":514.9699999019504,"accuracy":1,"outcome":"+10","keys":[2016.7000000365078],"total_keys":1,"block":2,"trial":195,"stimulus":7,"robot":1,"valence":"win","action":"go","sham":0,"trial_type":"pit-trial","trial_index":226,"time_elapsed":912715,"internal_node_id":"0.0-201.0","task_version":"battery-v0.2-trt","session":2},{"rune":"T","rune_set":"bacs1","hex":"#f73b6a7A","correct":-1,"choice":-1,"rt":-1,"accuracy":1,"outcome":"-1","keys":[],"total_keys":0,"block":2,"trial":196,"stimulus":6,"robot":4,"valence":"lose","action":"no-go","sham":0,"trial_type":"pit-trial","trial_index":227,"time_elapsed":916727,"internal_node_id":"0.0-202.0","task_version":"battery-v0.2-trt","session":2},{"rune":"T","rune_set":"bacs1","hex":"#f73b6a7A","correct":-1,"choice":-1,"rt":-1,"accuracy":1,"outcome":"-10","keys":[],"total_keys":0,"block":2,"trial":197,"stimulus":6,"robot":4,"valence":"lose","action":"no-go","sham":1,"trial_type":"pit-trial","trial_index":228,"time_elapsed":920739,"internal_node_id":"0.0-203.0","task_version":"battery-v0.2-trt","session":2},{"rune":"A","rune_set":"bacs1","hex":"#3366ff99","correct":32,"choice":32,"rt":424.4149997830391,"accuracy":1,"outcome":"+10","keys":[1926.6400001943111],"total_keys":1,"block":2,"trial":198,"stimulus":8,"robot":1,"valence":"win","action":"go","sham":0,"trial_type":"pit-trial","trial_index":229,"time_elapsed":923873,"internal_node_id":"0.0-204.0","task_version":"battery-v0.2-trt","session":2},{"rune":"F","rune_set":"bacs1","hex":"#3366ff99","correct":32,"choice":32,"rt":490.36499997600913,"accuracy":1,"outcome":"+1","keys":[1992.850000038743],"total_keys":1,"block":2,"trial":199,"stimulus":7,"robot":1,"valence":"win","action":"go","sham":1,"trial_type":"pit-trial","trial_index":230,"time_elapsed":927071,"internal_node_id":"0.0-205.0","task_version":"battery-v0.2-trt","session":2},{"rune":"E","rune_set":"bacs1","hex":"#3366ff99","correct":-1,"choice":-1,"rt":-1,"accuracy":1,"outcome":"+10","keys":[],"total_keys":0,"block":2,"trial":200,"stimulus":5,"robot":2,"valence":"win","action":"no-go","sham":0,"trial_type":"pit-trial","trial_index":231,"time_elapsed":931082,"internal_node_id":"0.0-206.0","task_version":"battery-v0.2-trt","session":2},{"rune":"C","rune_set":"bacs1","hex":"#3366ff99","correct":-1,"choice":32,"rt":1219.3150003440678,"accuracy":0,"outcome":"+10","keys":[2719.8649998754263],"total_keys":1,"block":2,"trial":201,"stimulus":9,"robot":2,"valence":"win","action":"no-go","sham":1,"trial_type":"pit-trial","trial_index":232,"time_elapsed":935012,"internal_node_id":"0.0-207.0","task_version":"battery-v0.2-trt","session":2},{"rune":"L","rune_set":"bacs1","hex":"#f73b6a7A","correct":32,"choice":32,"rt":1152.8699998743832,"accuracy":1,"outcome":"-1","keys":[2653.100000228733],"total_keys":1,"block":2,"trial":202,"stimulus":10,"robot":3,"valence":"lose","action":"go","sham":0,"trial_type":"pit-trial","trial_index":233,"time_elapsed":938874,"internal_node_id":"0.0-208.0","task_version":"battery-v0.2-trt","session":2},{"rune":"A","rune_set":"bacs1","hex":"#3366ff99","correct":32,"choice":32,"rt":631.4750001765788,"accuracy":1,"outcome":"+10","keys":[2133.4400000050664],"total_keys":1,"block":2,"trial":203,"stimulus":8,"robot":1,"valence":"win","action":"go","sham":0,"trial_type":"pit-trial","trial_index":234,"time_elapsed":942218,"internal_node_id":"0.0-209.0","task_version":"battery-v0.2-trt","session":2},{"rune":"E","rune_set":"bacs1","hex":"#3366ff99","correct":-1,"choice":-1,"rt":-1,"accuracy":1,"outcome":"+10","keys":[],"total_keys":0,"block":2,"trial":204,"stimulus":5,"robot":2,"valence":"win","action":"no-go","sham":0,"trial_type":"pit-trial","trial_index":235,"time_elapsed":946233,"internal_node_id":"0.0-210.0","task_version":"battery-v0.2-trt","session":2},{"rune":"A","rune_set":"bacs1","hex":"#3366ff99","correct":32,"choice":32,"rt":604.7399998642504,"accuracy":1,"outcome":"+10","keys":[2105.0749998539686],"total_keys":1,"block":2,"trial":205,"stimulus":8,"robot":1,"valence":"win","action":"go","sham":0,"trial_type":"pit-trial","trial_index":236,"time_elapsed":949548,"internal_node_id":"0.0-211.0","task_version":"battery-v0.2-trt","session":2},{"rune":"L","rune_set":"bacs1","hex":"#f73b6a7A","correct":32,"choice":32,"rt":695.9999999962747,"accuracy":1,"outcome":"-1","keys":[2197.385000064969],"total_keys":1,"block":2,"trial":206,"stimulus":10,"robot":3,"valence":"lose","action":"go","sham":0,"trial_type":"pit-trial","trial_index":237,"time_elapsed":952955,"internal_node_id":"0.0-212.0","task_version":"battery-v0.2-trt","session":2},{"rune":"E","rune_set":"bacs1","hex":"#3366ff99","correct":-1,"choice":-1,"rt":-1,"accuracy":1,"outcome":"+10","keys":[],"total_keys":0,"block":2,"trial":207,"stimulus":5,"robot":2,"valence":"win","action":"no-go","sham":0,"trial_type":"pit-trial","trial_index":238,"time_elapsed":956966,"internal_node_id":"0.0-213.0","task_version":"battery-v0.2-trt","session":2},{"rune":"C","rune_set":"bacs1","hex":"#3366ff99","correct":-1,"choice":32,"rt":731.8049999885261,"accuracy":0,"outcome":"+1","keys":[2233.664999715984],"total_keys":1,"block":2,"trial":208,"stimulus":9,"robot":2,"valence":"win","action":"no-go","sham":0,"trial_type":"pit-trial","trial_index":239,"time_elapsed":960408,"internal_node_id":"0.0-214.0","task_version":"battery-v0.2-trt","session":2},{"rune":"A","rune_set":"bacs1","hex":"#3366ff99","correct":32,"choice":32,"rt":546.6999998316169,"accuracy":1,"outcome":"+1","keys":[2048.384999856353],"total_keys":1,"block":2,"trial":209,"stimulus":8,"robot":1,"valence":"win","action":"go","sham":1,"trial_type":"pit-trial","trial_index":240,"time_elapsed":963665,"internal_node_id":"0.0-215.0","task_version":"battery-v0.2-trt","session":2},{"rune":"C","rune_set":"bacs1","hex":"#3366ff99","correct":-1,"choice":32,"rt":594.0700001083314,"accuracy":0,"outcome":"+1","keys":[2095.519999973476],"total_keys":1,"block":2,"trial":210,"stimulus":9,"robot":2,"valence":"win","action":"no-go","sham":0,"trial_type":"pit-trial","trial_index":241,"time_elapsed":966968,"internal_node_id":"0.0-216.0","task_version":"battery-v0.2-trt","session":2},{"rune":"Q","rune_set":"bacs1","hex":"#3366ff99","correct":-1,"choice":32,"rt":1003.3599999733269,"accuracy":0,"outcome":"+1","keys":[2504.939999897033],"total_keys":1,"block":2,"trial":211,"stimulus":11,"robot":2,"valence":"win","action":"no-go","sham":0,"trial_type":"pit-trial","trial_index":242,"time_elapsed":970682,"internal_node_id":"0.0-217.0","task_version":"battery-v0.2-trt","session":2},{"rune":"L","rune_set":"bacs1","hex":"#f73b6a7A","correct":32,"choice":32,"rt":584.654999896884,"accuracy":1,"outcome":"-1","keys":[2086.5299999713898],"total_keys":1,"block":2,"trial":212,"stimulus":10,"robot":3,"valence":"lose","action":"go","sham":0,"trial_type":"pit-trial","trial_index":243,"time_elapsed":973974,"internal_node_id":"0.0-218.0","task_version":"battery-v0.2-trt","session":2},{"rune":"L","rune_set":"bacs1","hex":"#f73b6a7A","correct":32,"choice":32,"rt":494.23000030219555,"accuracy":1,"outcome":"-1","keys":[1994.3349999375641],"total_keys":1,"block":2,"trial":213,"stimulus":10,"robot":3,"valence":"lose","action":"go","sham":0,"trial_type":"pit-trial","trial_index":244,"time_elapsed":977178,"internal_node_id":"0.0-219.0","task_version":"battery-v0.2-trt","session":2},{"rune":"C","rune_set":"bacs1","hex":"#3366ff99","correct":-1,"choice":32,"rt":681.7000000737607,"accuracy":0,"outcome":"+10","keys":[2181.839999742806],"total_keys":1,"block":2,"trial":214,"stimulus":9,"robot":2,"valence":"win","action":"no-go","sham":1,"trial_type":"pit-trial","trial_index":245,"time_elapsed":980569,"internal_node_id":"0.0-220.0","task_version":"battery-v0.2-trt","session":2},{"rune":"Q","rune_set":"bacs1","hex":"#3366ff99","correct":-1,"choice":-1,"rt":-1,"accuracy":1,"outcome":"+10","keys":[],"total_keys":0,"block":2,"trial":215,"stimulus":11,"robot":2,"valence":"win","action":"no-go","sham":0,"trial_type":"pit-trial","trial_index":246,"time_elapsed":984581,"internal_node_id":"0.0-221.0","task_version":"battery-v0.2-trt","session":2},{"rune":"A","rune_set":"bacs1","hex":"#3366ff99","correct":32,"choice":32,"rt":541.775000281632,"accuracy":1,"outcome":"+1","keys":[2043.1749997660518],"total_keys":1,"block":2,"trial":216,"stimulus":8,"robot":1,"valence":"win","action":"go","sham":1,"trial_type":"pit-trial","trial_index":247,"time_elapsed":987830,"internal_node_id":"0.0-222.0","task_version":"battery-v0.2-trt","session":2},{"rune":"A","rune_set":"bacs1","hex":"#3366ff99","correct":32,"choice":32,"rt":605.0750003196299,"accuracy":1,"outcome":"+1","keys":[2105.7799998670816],"total_keys":1,"block":2,"trial":217,"stimulus":8,"robot":1,"valence":"win","action":"go","sham":1,"trial_type":"pit-trial","trial_index":248,"time_elapsed":991145,"internal_node_id":"0.0-223.0","task_version":"battery-v0.2-trt","session":2},{"rune":"C","rune_set":"bacs1","hex":"#3366ff99","correct":-1,"choice":32,"rt":580.1599998958409,"accuracy":0,"outcome":"+1","keys":[2080.5399999953806],"total_keys":1,"block":2,"trial":218,"stimulus":9,"robot":2,"valence":"win","action":"no-go","sham":0,"trial_type":"pit-trial","trial_index":249,"time_elapsed":994434,"internal_node_id":"0.0-224.0","task_version":"battery-v0.2-trt","session":2},{"rune":"Q","rune_set":"bacs1","hex":"#3366ff99","correct":-1,"choice":-1,"rt":-1,"accuracy":1,"outcome":"+10","keys":[],"total_keys":0,"block":2,"trial":219,"stimulus":11,"robot":2,"valence":"win","action":"no-go","sham":0,"trial_type":"pit-trial","trial_index":250,"time_elapsed":998440,"internal_node_id":"0.0-225.0","task_version":"battery-v0.2-trt","session":2},{"rune":"L","rune_set":"bacs1","hex":"#f73b6a7A","correct":32,"choice":32,"rt":537.1800004504621,"accuracy":1,"outcome":"-1","keys":[2038.1599999964237],"total_keys":1,"block":2,"trial":220,"stimulus":10,"robot":3,"valence":"lose","action":"go","sham":0,"trial_type":"pit-trial","trial_index":251,"time_elapsed":1001687,"internal_node_id":"0.0-226.0","task_version":"battery-v0.2-trt","session":2},{"rune":"A","rune_set":"bacs1","hex":"#3366ff99","correct":32,"choice":32,"rt":501.5349998138845,"accuracy":1,"outcome":"+10","keys":[2001.769999973476],"total_keys":1,"block":2,"trial":221,"stimulus":8,"robot":1,"valence":"win","action":"go","sham":0,"trial_type":"pit-trial","trial_index":252,"time_elapsed":1004898,"internal_node_id":"0.0-227.0","task_version":"battery-v0.2-trt","session":2},{"rune":"L","rune_set":"bacs1","hex":"#f73b6a7A","correct":32,"choice":32,"rt":560.8650003559887,"accuracy":1,"outcome":"-1","keys":[2061.424999963492],"total_keys":1,"block":2,"trial":222,"stimulus":10,"robot":3,"valence":"lose","action":"go","sham":0,"trial_type":"pit-trial","trial_index":253,"time_elapsed":1008166,"internal_node_id":"0.0-228.0","task_version":"battery-v0.2-trt","session":2},{"rune":"C","rune_set":"bacs1","hex":"#3366ff99","correct":-1,"choice":32,"rt":660.8649999834597,"accuracy":0,"outcome":"+1","keys":[2161.545000039041],"total_keys":1,"block":2,"trial":223,"stimulus":9,"robot":2,"valence":"win","action":"no-go","sham":0,"trial_type":"pit-trial","trial_index":254,"time_elapsed":1011537,"internal_node_id":"0.0-229.0","task_version":"battery-v0.2-trt","session":2},{"rune":"Q","rune_set":"bacs1","hex":"#3366ff99","correct":-1,"choice":-1,"rt":-1,"accuracy":1,"outcome":"+10","keys":[],"total_keys":0,"block":2,"trial":224,"stimulus":11,"robot":2,"valence":"win","action":"no-go","sham":0,"trial_type":"pit-trial","trial_index":255,"time_elapsed":1015548,"internal_node_id":"0.0-230.0","task_version":"battery-v0.2-trt","session":2},{"rune":"C","rune_set":"bacs1","hex":"#3366ff99","correct":-1,"choice":-1,"rt":-1,"accuracy":1,"outcome":"+10","keys":[],"total_keys":0,"block":2,"trial":225,"stimulus":9,"robot":2,"valence":"win","action":"no-go","sham":0,"trial_type":"pit-trial","trial_index":256,"time_elapsed":1019559,"internal_node_id":"0.0-231.0","task_version":"battery-v0.2-trt","session":2},{"rune":"L","rune_set":"bacs1","hex":"#f73b6a7A","correct":32,"choice":32,"rt":477.01500030234456,"accuracy":1,"outcome":"-1","keys":[1977.7199998497963],"total_keys":1,"block":2,"trial":226,"stimulus":10,"robot":3,"valence":"lose","action":"go","sham":0,"trial_type":"pit-trial","trial_index":257,"time_elapsed":1022742,"internal_node_id":"0.0-232.0","task_version":"battery-v0.2-trt","session":2},{"rune":"Q","rune_set":"bacs1","hex":"#3366ff99","correct":-1,"choice":-1,"rt":-1,"accuracy":1,"outcome":"+10","keys":[],"total_keys":0,"block":2,"trial":227,"stimulus":11,"robot":2,"valence":"win","action":"no-go","sham":0,"trial_type":"pit-trial","trial_index":258,"time_elapsed":1026753,"internal_node_id":"0.0-233.0","task_version":"battery-v0.2-trt","session":2},{"rune":"A","rune_set":"bacs1","hex":"#3366ff99","correct":32,"choice":32,"rt":488.69499983265996,"accuracy":1,"outcome":"+10","keys":[1989.7300000302494],"total_keys":1,"block":2,"trial":228,"stimulus":8,"robot":1,"valence":"win","action":"go","sham":0,"trial_type":"pit-trial","trial_index":259,"time_elapsed":1029953,"internal_node_id":"0.0-234.0","task_version":"battery-v0.2-trt","session":2},{"rune":"A","rune_set":"bacs1","hex":"#3366ff99","correct":32,"choice":32,"rt":438.639999832958,"accuracy":1,"outcome":"+1","keys":[1940.6099999323487],"total_keys":1,"block":2,"trial":229,"stimulus":8,"robot":1,"valence":"win","action":"go","sham":1,"trial_type":"pit-trial","trial_index":260,"time_elapsed":1033103,"internal_node_id":"0.0-235.0","task_version":"battery-v0.2-trt","session":2},{"rune":"C","rune_set":"bacs1","hex":"#3366ff99","correct":-1,"choice":-1,"rt":-1,"accuracy":1,"outcome":"+10","keys":[],"total_keys":0,"block":2,"trial":230,"stimulus":9,"robot":2,"valence":"win","action":"no-go","sham":0,"trial_type":"pit-trial","trial_index":261,"time_elapsed":1037112,"internal_node_id":"0.0-236.0","task_version":"battery-v0.2-trt","session":2},{"rune":"Q","rune_set":"bacs1","hex":"#3366ff99","correct":-1,"choice":-1,"rt":-1,"accuracy":1,"outcome":"+10","keys":[],"total_keys":0,"block":2,"trial":231,"stimulus":11,"robot":2,"valence":"win","action":"no-go","sham":0,"trial_type":"pit-trial","trial_index":262,"time_elapsed":1041122,"internal_node_id":"0.0-237.0","task_version":"battery-v0.2-trt","session":2},{"rune":"L","rune_set":"bacs1","hex":"#f73b6a7A","correct":32,"choice":32,"rt":808.6650003679097,"accuracy":1,"outcome":"-1","keys":[2308.9200002141297],"total_keys":1,"block":2,"trial":232,"stimulus":10,"robot":3,"valence":"lose","action":"go","sham":0,"trial_type":"pit-trial","trial_index":263,"time_elapsed":1044639,"internal_node_id":"0.0-238.0","task_version":"battery-v0.2-trt","session":2},{"rune":"A","rune_set":"bacs1","hex":"#3366ff99","correct":32,"choice":32,"rt":433.4950000047684,"accuracy":1,"outcome":"+10","keys":[1933.9550002478063],"total_keys":1,"block":2,"trial":233,"stimulus":8,"robot":1,"valence":"win","action":"go","sham":0,"trial_type":"pit-trial","trial_index":264,"time_elapsed":1047782,"internal_node_id":"0.0-239.0","task_version