[{"view_history":"[{\"page_index\":0,\"viewing_time\":1610.6099999742582}]","rt":1611.2199999624863,"trial_type":"instructions","trial_index":0,"time_elapsed":1616,"internal_node_id":"0.0-0.0","task_version":"battery-v0.2-trt","session":2},{"slider_type":"valence","raw_loc":565,"loc":0.63,"trial_type":"affective-slider","trial_index":1,"time_elapsed":5528,"internal_node_id":"0.0-1.0","task_version":"battery-v0.2-trt","session":2},{"responses":{"Q04":"1","Q03":"2","Q08":"0","Q02":"1","Q01":"2","Q07":"0","Q06":"1","Q05":"1"},"rt":27887.504999991506,"item_order":[3,2,7,1,0,6,5,4],"radio_events":[4618.200000026263,8250.39000005927,9676.659999997355,15199.415000039153,18138.280000071973,19272.08000002429,22135.3250000393,24235.58000009507,26379.950000089593],"key_events":[],"mouse_events":[3696.5100000379607,4618.200000026263,7073.840000084601,8250.39000005927,9676.659999997355,12592.675000079907,15199.415000039153,17351.1100000469,18138.280000071973,19272.08000002429,22135.3250000393,24235.58000009507,26379.950000089593,27885.315000079572],"straightlining":0.5,"zigzagging":0.5714285714285714,"survey":"gad7","trial_type":"survey-template","trial_index":2,"time_elapsed":33419,"internal_node_id":"0.0-2.0","task_version":"battery-v0.2-trt","session":2,"infrequency":0},{"responses":{"Q04":"1","Q02":"2","Q07":"0","Q08":"3","Q06":"0","Q05":"0","Q03":"0","Q01":"0"},"rt":20537.015000008978,"item_order":[3,1,6,7,5,4,2,0],"radio_events":[3471.6349999653175,6863.664999953471,8868.559999973513,10916.989999939688,12736.23999999836,14345.164999947883,17250.329999951646,19233.554999926127],"key_events":[],"mouse_events":[3471.6349999653175,6863.664999953471,8868.559999973513,10916.989999939688,12736.23999999836,14345.164999947883,16125.329999951646,17250.329999951646,19233.554999926127,20534.35999993235],"straightlining":0.625,"zigzagging":0.42857142857142855,"survey":"dass_d","trial_type":"survey-template","trial_index":3,"time_elapsed":53962,"internal_node_id":"0.0-3.0","task_version":"battery-v0.2-trt","session":2,"infrequency":0},{"view_history":"[{\"page_index\":0,\"viewing_time\":2066.1199999740347},{\"page_index\":1,\"viewing_time\":2086.79500001017},{\"page_index\":2,\"viewing_time\":3991.2799999583513},{\"page_index\":3,\"viewing_time\":3044.125000014901},{\"page_index\":4,\"viewing_time\":3638.2699999958277},{\"page_index\":5,\"viewing_time\":2699.499999987893},{\"page_index\":6,\"viewing_time\":2345.7750000525266},{\"page_index\":7,\"viewing_time\":3484.2550000175834},{\"page_index\":8,\"viewing_time\":5472.619999898598},{\"page_index\":9,\"viewing_time\":3751.604999997653}]","rt":32580.88499994483,"trial_type":"pit-instructions","trial_index":4,"time_elapsed":86551,"internal_node_id":"0.0-4.0-0.0","task_version":"battery-v0.2-trt","session":2},{"rune":"1","rune_set":"elianto","hex":"#3366ff99","correct":32,"choice":32,"rt":982.9199999803677,"accuracy":1,"outcome":"+10","keys":[2483.585000038147],"total_keys":1,"block":0,"practice":1,"trial_type":"pit-trial","trial_index":5,"time_elapsed":90250,"internal_node_id":"0.0-4.0-1.0-0.0","task_version":"battery-v0.2-trt","session":2},{"rune":"1","rune_set":"elianto","hex":"#3366ff99","correct":32,"choice":32,"rt":722.1900000004098,"accuracy":1,"outcome":"+10","keys":[2222.689999965951],"total_keys":1,"block":0,"practice":1,"trial_type":"pit-trial","trial_index":6,"time_elapsed":93677,"internal_node_id":"0.0-4.0-1.1-0.1","task_version":"battery-v0.2-trt","session":2},{"rune":"1","rune_set":"elianto","hex":"#3366ff99","correct":32,"choice":32,"rt":536.8950000265613,"accuracy":1,"outcome":"+10","keys":[2037.9899999825284],"total_keys":1,"block":0,"practice":1,"trial_type":"pit-trial","trial_index":7,"time_elapsed":96919,"internal_node_id":"0.0-4.0-1.2-0.2","task_version":"battery-v0.2-trt","session":2},{"rune":"1","rune_set":"elianto","hex":"#3366ff99","correct":32,"choice":32,"rt":577.4500000989065,"accuracy":1,"outcome":"+10","keys":[2077.66999991145],"total_keys":1,"block":0,"practice":1,"trial_type":"pit-trial","trial_index":8,"time_elapsed":100199,"internal_node_id":"0.0-4.0-1.3-0.3","task_version":"battery-v0.2-trt","session":2},{"trial_type":"call-function","trial_index":9,"time_elapsed":100200,"internal_node_id":"0.0-4.0-2.0","task_version":"battery-v0.2-trt","session":2},{"view_history":"[{\"page_index\":0,\"viewing_time\":5543.8950000097975},{\"page_index\":1,\"viewing_time\":2678.9799999678507}]","rt":8223.720000009052,"trial_type":"pit-instructions","trial_index":10,"time_elapsed":108425,"internal_node_id":"0.0-4.0-3.0","task_version":"battery-v0.2-trt","session":2},{"rune":"2","rune_set":"elianto","hex":"#3366ff99","correct":-1,"choice":32,"rt":1225.0050000147894,"accuracy":0,"outcome":"+1","keys":[2725.845000008121],"total_keys":1,"block":0,"practice":2,"trial_type":"pit-trial","trial_index":11,"time_elapsed":112355,"internal_node_id":"0.0-4.0-4.0-0.0","task_version":"battery-v0.2-trt","session":2},{"rune":"2","rune_set":"elianto","hex":"#3366ff99","correct":-1,"choice":-1,"rt":-1,"accuracy":1,"outcome":"+10","keys":[],"total_keys":0,"block":0,"practice":2,"trial_type":"pit-trial","trial_index":12,"time_elapsed":116362,"internal_node_id":"0.0-4.0-4.1-0.1","task_version":"battery-v0.2-trt","session":2},{"rune":"2","rune_set":"elianto","hex":"#3366ff99","correct":-1,"choice":-1,"rt":-1,"accuracy":1,"outcome":"+10","keys":[],"total_keys":0,"block":0,"practice":2,"trial_type":"pit-trial","trial_index":13,"time_elapsed":120379,"internal_node_id":"0.0-4.0-4.2-0.2","task_version":"battery-v0.2-trt","session":2},{"rune":"2","rune_set":"elianto","hex":"#3366ff99","correct":-1,"choice":-1,"rt":-1,"accuracy":1,"outcome":"+10","keys":[],"total_keys":0,"block":0,"practice":2,"trial_type":"pit-trial","trial_index":14,"time_elapsed":124382,"internal_node_id":"0.0-4.0-4.3-0.3","task_version":"battery-v0.2-trt","session":2},{"trial_type":"call-function","trial_index":15,"time_elapsed":124385,"internal_node_id":"0.0-4.0-5.0","task_version":"battery-v0.2-trt","session":2},{"view_history":"[{\"page_index\":0,\"viewing_time\":4575.715000042692},{\"page_index\":1,\"viewing_time\":3569.2399999825284}]","rt":8145.86499996949,"trial_type":"pit-instructions","trial_index":16,"time_elapsed":132533,"internal_node_id":"0.0-4.0-6.0","task_version":"battery-v0.2-trt","session":2},{"rune":"3","rune_set":"elianto","hex":"#f73b6a7A","correct":-1,"choice":-1,"rt":-1,"accuracy":1,"outcome":"-1","keys":[],"total_keys":0,"block":0,"practice":3,"trial_type":"pit-trial","trial_index":17,"time_elapsed":136538,"internal_node_id":"0.0-4.0-7.0-0.0","task_version":"battery-v0.2-trt","session":2},{"rune":"3","rune_set":"elianto","hex":"#f73b6a7A","correct":-1,"choice":-1,"rt":-1,"accuracy":1,"outcome":"-1","keys":[],"total_keys":0,"block":0,"practice":3,"trial_type":"pit-trial","trial_index":18,"time_elapsed":140542,"internal_node_id":"0.0-4.0-7.1-0.1","task_version":"battery-v0.2-trt","session":2},{"rune":"3","rune_set":"elianto","hex":"#f73b6a7A","correct":-1,"choice":-1,"rt":-1,"accuracy":1,"outcome":"-1","keys":[],"total_keys":0,"block":0,"practice":3,"trial_type":"pit-trial","trial_index":19,"time_elapsed":144556,"internal_node_id":"0.0-4.0-7.2-0.2","task_version":"battery-v0.2-trt","session":2},{"rune":"3","rune_set":"elianto","hex":"#f73b6a7A","correct":-1,"choice":-1,"rt":-1,"accuracy":1,"outcome":"-1","keys":[],"total_keys":0,"block":0,"practice":3,"trial_type":"pit-trial","trial_index":20,"time_elapsed":148559,"internal_node_id":"0.0-4.0-7.3-0.3","task_version":"battery-v0.2-trt","session":2},{"trial_type":"call-function","trial_index":21,"time_elapsed":148559,"internal_node_id":"0.0-4.0-8.0","task_version":"battery-v0.2-trt","session":2},{"view_history":"[{\"page_index\":0,\"viewing_time\":2299.9200000194833},{\"page_index\":1,\"viewing_time\":1032.5849999208003}]","rt":3333.394999965094,"trial_type":"pit-instructions","trial_index":22,"time_elapsed":151893,"internal_node_id":"0.0-4.0-9.0","task_version":"battery-v0.2-trt","session":2},{"rune":"4","rune_set":"elianto","hex":"#f73b6a7A","correct":32,"choice":32,"rt":602.0199999911711,"accuracy":1,"outcome":"-1","keys":[2103.895000065677],"total_keys":1,"block":0,"practice":4,"trial_type":"pit-trial","trial_index":23,"time_elapsed":155202,"internal_node_id":"0.0-4.0-10.0-0.0","task_version":"battery-v0.2-trt","session":2},{"rune":"4","rune_set":"elianto","hex":"#f73b6a7A","correct":32,"choice":32,"rt":345.3900000313297,"accuracy":1,"outcome":"-1","keys":[1846.6000000480562],"total_keys":1,"block":0,"practice":4,"trial_type":"pit-trial","trial_index":24,"time_elapsed":158253,"internal_node_id":"0.0-4.0-10.1-0.1","task_version":"battery-v0.2-trt","session":2},{"rune":"4","rune_set":"elianto","hex":"#f73b6a7A","correct":32,"choice":32,"rt":322.7249999763444,"accuracy":1,"outcome":"-1","keys":[1823.8600000040606],"total_keys":1,"block":0,"practice":4,"trial_type":"pit-trial","trial_index":25,"time_elapsed":161279,"internal_node_id":"0.0-4.0-10.2-0.2","task_version":"battery-v0.2-trt","session":2},{"rune":"4","rune_set":"elianto","hex":"#f73b6a7A","correct":32,"choice":32,"rt":581.1400000238791,"accuracy":1,"outcome":"-1","keys":[2083.0299999797717],"total_keys":1,"block":0,"practice":4,"trial_type":"pit-trial","trial_index":26,"time_elapsed":164566,"internal_node_id":"0.0-4.0-10.3-0.3","task_version":"battery-v0.2-trt","session":2},{"trial_type":"call-function","trial_index":27,"time_elapsed":164569,"internal_node_id":"0.0-4.0-11.0","task_version":"battery-v0.2-trt","session":2},{"view_history":"[{\"page_index\":0,\"viewing_time\":1193.3699999935925},{\"page_index\":1,\"viewing_time\":3781.2149999663234},{\"page_index\":2,\"viewing_time\":4361.345000099391},{\"page_index\":3,\"viewing_time\":2715.85999999661},{\"page_index\":4,\"viewing_time\":4239.079999970272},{\"page_index\":5,\"viewing_time\":1189.5299999741837}]","rt":17481.314999982715,"trial_type":"pit-instructions","trial_index":28,"time_elapsed":182052,"internal_node_id":"0.0-4.0-12.0","task_version":"battery-v0.2-trt","session":2},{"responses":["Press SPACE","+10","-1","True","True"],"num_errors":0,"rt":15035.775000113063,"trial_type":"pit-comprehension","trial_index":29,"time_elapsed":197095,"internal_node_id":"0.0-4.0-13.0","task_version":"battery-v0.2-trt","session":2},{"view_history":"[{\"page_index\":0,\"viewing_time\":3174.460000009276},{\"page_index\":1,\"viewing_time\":6735.430000000633}]","rt":9910.724999965169,"trial_type":"pit-instructions","trial_index":30,"time_elapsed":207014,"internal_node_id":"0.0-5.0","task_version":"battery-v0.2-trt","session":2},{"rune":"X","rune_set":"elianto","hex":"#3366ff99","correct":32,"choice":32,"rt":629.8400000669062,"accuracy":1,"outcome":"+10","keys":[2130.3300000727177],"total_keys":1,"block":1,"trial":1,"stimulus":3,"robot":1,"valence":"win","action":"go","sham":0,"trial_type":"pit-trial","trial_index":31,"time_elapsed":210350,"internal_node_id":"0.0-6.0","task_version":"battery-v0.2-trt","session":2},{"rune":"Q","rune_set":"elianto","hex":"#f73b6a7A","correct":-1,"choice":-1,"rt":-1,"accuracy":1,"outcome":"-1","keys":[],"total_keys":0,"block":1,"trial":2,"stimulus":0,"robot":4,"valence":"lose","action":"no-go","sham":0,"trial_type":"pit-trial","trial_index":32,"time_elapsed":214356,"internal_node_id":"0.0-7.0","task_version":"battery-v0.2-trt","session":2},{"rune":"F","rune_set":"elianto","hex":"#f73b6a7A","correct":32,"choice":-1,"rt":-1,"accuracy":0,"outcome":"-10","keys":[2833.585000014864],"total_keys":1,"block":1,"trial":3,"stimulus":2,"robot":3,"valence":"lose","action":"go","sham":0,"trial_type":"pit-trial","trial_index":33,"time_elapsed":218361,"internal_node_id":"0.0-8.0","task_version":"battery-v0.2-trt","session":2},{"rune":"N","rune_set":"elianto","hex":"#f73b6a7A","correct":32,"choice":-1,"rt":-1,"accuracy":0,"outcome":"-10","keys":[],"total_keys":0,"block":1,"trial":4,"stimulus":1,"robot":3,"valence":"lose","action":"go","sham":0,"trial_type":"pit-trial","trial_index":34,"time_elapsed":222365,"internal_node_id":"0.0-9.0","task_version":"battery-v0.2-trt","session":2},{"rune":"F","rune_set":"elianto","hex":"#f73b6a7A","correct":32,"choice":-1,"rt":-1,"accuracy":0,"outcome":"-10","keys":[],"total_keys":0,"block":1,"trial":5,"stimulus":2,"robot":3,"valence":"lose","action":"go","sham":0,"trial_type":"pit-trial","trial_index":35,"time_elapsed":226369,"internal_node_id":"0.0-10.0","task_version":"battery-v0.2-trt","session":2},{"rune":"N","rune_set":"elianto","hex":"#f73b6a7A","correct":32,"choice":-1,"rt":-1,"accuracy":0,"outcome":"-10","keys":[],"total_keys":0,"block":1,"trial":6,"stimulus":1,"robot":3,"valence":"lose","action":"go","sham":0,"trial_type":"pit-trial","trial_index":36,"time_elapsed":230371,"internal_node_id":"0.0-11.0","task_version":"battery-v0.2-trt","session":2},{"rune":"Q","rune_set":"elianto","hex":"#f73b6a7A","correct":-1,"choice":-1,"rt":-1,"accuracy":1,"outcome":"-1","keys":[],"total_keys":0,"block":1,"trial":7,"stimulus":0,"robot":4,"valence":"lose","action":"no-go","sham":0,"trial_type":"pit-trial","trial_index":37,"time_elapsed":234375,"internal_node_id":"0.0-12.0","task_version":"battery-v0.2-trt","session":2},{"rune":"X","rune_set":"elianto","hex":"#3366ff99","correct":32,"choice":32,"rt":498.0849999701604,"accuracy":1,"outcome":"+10","keys":[1999.7599999187514],"total_keys":1,"block":1,"trial":8,"stimulus":3,"robot":1,"valence":"win","action":"go","sham":0,"trial_type":"pit-trial","trial_index":38,"time_elapsed":237578,"internal_node_id":"0.0-13.0","task_version":"battery-v0.2-trt","session":2},{"rune":"F","rune_set":"elianto","hex":"#f73b6a7A","correct":32,"choice":32,"rt":715.8849999541417,"accuracy":1,"outcome":"-1","keys":[2216.035000048578],"total_keys":1,"block":1,"trial":9,"stimulus":2,"robot":3,"valence":"lose","action":"go","sham":0,"trial_type":"pit-trial","trial_index":39,"time_elapsed":240999,"internal_node_id":"0.0-14.0","task_version":"battery-v0.2-trt","session":2},{"rune":"Q","rune_set":"elianto","hex":"#f73b6a7A","correct":-1,"choice":-1,"rt":-1,"accuracy":1,"outcome":"-1","keys":[],"total_keys":0,"block":1,"trial":10,"stimulus":0,"robot":4,"valence":"lose","action":"no-go","sham":0,"trial_type":"pit-trial","trial_index":40,"time_elapsed":245020,"internal_node_id":"0.0-15.0","task_version":"battery-v0.2-trt","session":2},{"rune":"N","rune_set":"elianto","hex":"#f73b6a7A","correct":32,"choice":32,"rt":405.5050000315532,"accuracy":1,"outcome":"-10","keys":[1906.2400000402704],"total_keys":1,"block":1,"trial":11,"stimulus":1,"robot":3,"valence":"lose","action":"go","sham":1,"trial_type":"pit-trial","trial_index":41,"time_elapsed":248131,"internal_node_id":"0.0-16.0","task_version":"battery-v0.2-trt","session":2},{"rune":"X","rune_set":"elianto","hex":"#3366ff99","correct":32,"choice":32,"rt":599.7000000206754,"accuracy":1,"outcome":"+10","keys":[2100.2800000132993],"total_keys":1,"block":1,"trial":12,"stimulus":3,"robot":1,"valence":"win","action":"go","sham":0,"trial_type":"pit-trial","trial_index":42,"time_elapsed":251435,"internal_node_id":"0.0-17.0","task_version":"battery-v0.2-trt","session":2},{"rune":"X","rune_set":"elianto","hex":"#3366ff99","correct":32,"choice":32,"rt":702.4649999802932,"accuracy":1,"outcome":"+10","keys":[2203.044999972917],"total_keys":1,"block":1,"trial":13,"stimulus":3,"robot":1,"valence":"win","action":"go","sham":0,"trial_type":"pit-trial","trial_index":43,"time_elapsed":254843,"internal_node_id":"0.0-18.0","task_version":"battery-v0.2-trt","session":2},{"rune":"Q","rune_set":"elianto","hex":"#f73b6a7A","correct":-1,"choice":-1,"rt":-1,"accuracy":1,"outcome":"-1","keys":[],"total_keys":0,"block":1,"trial":14,"stimulus":0,"robot":4,"valence":"lose","action":"no-go","sham":0,"trial_type":"pit-trial","trial_index":44,"time_elapsed":258852,"internal_node_id":"0.0-19.0","task_version":"battery-v0.2-trt","session":2},{"rune":"F","rune_set":"elianto","hex":"#f73b6a7A","correct":32,"choice":32,"rt":683.214999968186,"accuracy":1,"outcome":"-1","keys":[2183.35000006482],"total_keys":1,"block":1,"trial":15,"stimulus":2,"robot":3,"valence":"lose","action":"go","sham":0,"trial_type":"pit-trial","trial_index":45,"time_elapsed":262251,"internal_node_id":"0.0-20.0","task_version":"battery-v0.2-trt","session":2},{"rune":"N","rune_set":"elianto","hex":"#f73b6a7A","correct":32,"choice":32,"rt":645.4500000691041,"accuracy":1,"outcome":"-1","keys":[2146.9649999635294],"total_keys":1,"block":1,"trial":16,"stimulus":1,"robot":3,"valence":"lose","action":"go","sham":0,"trial_type":"pit-trial","trial_index":46,"time_elapsed":265601,"internal_node_id":"0.0-21.0","task_version":"battery-v0.2-trt","session":2},{"rune":"X","rune_set":"elianto","hex":"#3366ff99","correct":32,"choice":32,"rt":530.7949999114498,"accuracy":1,"outcome":"+10","keys":[2031.5349999582395],"total_keys":1,"block":1,"trial":17,"stimulus":3,"robot":1,"valence":"win","action":"go","sham":0,"trial_type":"pit-trial","trial_index":47,"time_elapsed":268836,"internal_node_id":"0.0-22.0","task_version":"battery-v0.2-trt","session":2},{"rune":"N","rune_set":"elianto","hex":"#f73b6a7A","correct":32,"choice":32,"rt":579.5449999859557,"accuracy":1,"outcome":"-1","keys":[2080.3450000239536],"total_keys":1,"block":1,"trial":18,"stimulus":1,"robot":3,"valence":"lose","action":"go","sham":0,"trial_type":"pit-trial","trial_index":48,"time_elapsed":272121,"internal_node_id":"0.0-23.0","task_version":"battery-v0.2-trt","session":2},{"rune":"F","rune_set":"elianto","hex":"#f73b6a7A","correct":32,"choice":32,"rt":624.8850000556558,"accuracy":1,"outcome":"-1","keys":[2125.149999978021],"total_keys":1,"block":1,"trial":19,"stimulus":2,"robot":3,"valence":"lose","action":"go","sham":0,"trial_type":"pit-trial","trial_index":49,"time_elapsed":275451,"internal_node_id":"0.0-24.0","task_version":"battery-v0.2-trt","session":2},{"rune":"Q","rune_set":"elianto","hex":"#f73b6a7A","correct":-1,"choice":-1,"rt":-1,"accuracy":1,"outcome":"-1","keys":[],"total_keys":0,"block":1,"trial":20,"stimulus":0,"robot":4,"valence":"lose","action":"no-go","sham":0,"trial_type":"pit-trial","trial_index":50,"time_elapsed":279457,"internal_node_id":"0.0-25.0","task_version":"battery-v0.2-trt","session":2},{"rune":"F","rune_set":"elianto","hex":"#f73b6a7A","correct":32,"choice":32,"rt":495.3299999469891,"accuracy":1,"outcome":"-1","keys":[1995.8349999506027],"total_keys":1,"block":1,"trial":21,"stimulus":2,"robot":3,"valence":"lose","action":"go","sham":0,"trial_type":"pit-trial","trial_index":51,"time_elapsed":282656,"internal_node_id":"0.0-26.0","task_version":"battery-v0.2-trt","session":2},{"rune":"N","rune_set":"elianto","hex":"#f73b6a7A","correct":32,"choice":32,"rt":403.4699999028817,"accuracy":1,"outcome":"-1","keys":[1903.9949999423698],"total_keys":1,"block":1,"trial":22,"stimulus":1,"robot":3,"valence":"lose","action":"go","sham":0,"trial_type":"pit-trial","trial_index":52,"time_elapsed":285762,"internal_node_id":"0.0-27.0","task_version":"battery-v0.2-trt","session":2},{"rune":"X","rune_set":"elianto","hex":"#3366ff99","correct":32,"choice":32,"rt":568.8699999591336,"accuracy":1,"outcome":"+10","keys":[2069.634999963455],"total_keys":1,"block":1,"trial":23,"stimulus":3,"robot":1,"valence":"win","action":"go","sham":0,"trial_type":"pit-trial","trial_index":53,"time_elapsed":289043,"internal_node_id":"0.0-28.0","task_version":"battery-v0.2-trt","session":2},{"rune":"Q","rune_set":"elianto","hex":"#f73b6a7A","correct":-1,"choice":-1,"rt":-1,"accuracy":1,"outcome":"-1","keys":[],"total_keys":0,"block":1,"trial":24,"stimulus":0,"robot":4,"valence":"lose","action":"no-go","sham":0,"trial_type":"pit-trial","trial_index":54,"time_elapsed":293048,"internal_node_id":"0.0-29.0","task_version":"battery-v0.2-trt","session":2},{"rune":"N","rune_set":"elianto","hex":"#f73b6a7A","correct":32,"choice":32,"rt":447.9949999367818,"accuracy":1,"outcome":"-1","keys":[1948.4449999872595],"total_keys":1,"block":1,"trial":25,"stimulus":1,"robot":3,"valence":"lose","action":"go","sham":0,"trial_type":"pit-trial","trial_index":55,"time_elapsed":296202,"internal_node_id":"0.0-30.0","task_version":"battery-v0.2-trt","session":2},{"rune":"Q","rune_set":"elianto","hex":"#f73b6a7A","correct":-1,"choice":-1,"rt":-1,"accuracy":1,"outcome":"-1","keys":[],"total_keys":0,"block":1,"trial":26,"stimulus":0,"robot":4,"valence":"lose","action":"no-go","sham":0,"trial_type":"pit-trial","trial_index":56,"time_elapsed":300216,"internal_node_id":"0.0-31.0","task_version":"battery-v0.2-trt","session":2},{"rune":"F","rune_set":"elianto","hex":"#f73b6a7A","correct":32,"choice":32,"rt":334.0600000228733,"accuracy":1,"outcome":"-10","keys":[1834.8949999781325],"total_keys":1,"block":1,"trial":27,"stimulus":2,"robot":3,"valence":"lose","action":"go","sham":1,"trial_type":"pit-trial","trial_index":57,"time_elapsed":303255,"internal_node_id":"0.0-32.0","task_version":"battery-v0.2-trt","session":2},{"rune":"X","rune_set":"elianto","hex":"#3366ff99","correct":32,"choice":32,"rt":458.05499993730336,"accuracy":1,"outcome":"+10","keys":[1958.214999991469],"total_keys":1,"block":1,"trial":28,"stimulus":3,"robot":1,"valence":"win","action":"go","sham":0,"trial_type":"pit-trial","trial_index":58,"time_elapsed":306418,"internal_node_id":"0.0-33.0","task_version":"battery-v0.2-trt","session":2},{"rune":"F","rune_set":"elianto","hex":"#f73b6a7A","correct":32,"choice":32,"rt":647.3199999891222,"accuracy":1,"outcome":"-1","keys":[2147.720000008121],"total_keys":1,"block":1,"trial":29,"stimulus":2,"robot":3,"valence":"lose","action":"go","sham":0,"trial_type":"pit-trial","trial_index":59,"time_elapsed":309769,"internal_node_id":"0.0-34.0","task_version":"battery-v0.2-trt","session":2},{"rune":"Q","rune_set":"elianto","hex":"#f73b6a7A","correct":-1,"choice":-1,"rt":-1,"accuracy":1,"outcome":"-1","keys":[],"total_keys":0,"block":1,"trial":30,"stimulus":0,"robot":4,"valence":"lose","action":"no-go","sham":0,"trial_type":"pit-trial","trial_index":60,"time_elapsed":313773,"internal_node_id":"0.0-35.0","task_version":"battery-v0.2-trt","session":2},{"rune":"X","rune_set":"elianto","hex":"#3366ff99","correct":32,"choice":32,"rt":504.09000006038696,"accuracy":1,"outcome":"+10","keys":[2004.2949999915436],"total_keys":1,"block":1,"trial":31,"stimulus":3,"robot":1,"valence":"win","action":"go","sham":0,"trial_type":"pit-trial","trial_index":61,"time_elapsed":316981,"internal_node_id":"0.0-36.0","task_version":"battery-v0.2-trt","session":2},{"rune":"N","rune_set":"elianto","hex":"#f73b6a7A","correct":32,"choice":-1,"rt":-1,"accuracy":0,"outcome":"-10","keys":[],"total_keys":0,"block":1,"trial":32,"stimulus":1,"robot":3,"valence":"lose","action":"go","sham":0,"trial_type":"pit-trial","trial_index":62,"time_elapsed":320992,"internal_node_id":"0.0-37.0","task_version":"battery-v0.2-trt","session":2},{"rune":"X","rune_set":"elianto","hex":"#3366ff99","correct":32,"choice":32,"rt":464.84499995131046,"accuracy":1,"outcome":"+1","keys":[1964.9699999717996],"total_keys":1,"block":1,"trial":33,"stimulus":3,"robot":1,"valence":"win","action":"go","sham":1,"trial_type":"pit-trial","trial_index":63,"time_elapsed":324161,"internal_node_id":"0.0-38.0","task_version":"battery-v0.2-trt","session":2},{"rune":"Q","rune_set":"elianto","hex":"#f73b6a7A","correct":-1,"choice":32,"rt":826.799999922514,"accuracy":0,"outcome":"-10","keys":[2327.0699999993667],"total_keys":1,"block":1,"trial":34,"stimulus":0,"robot":4,"valence":"lose","action":"no-go","sham":0,"trial_type":"pit-trial","trial_index":64,"time_elapsed":327691,"internal_node_id":"0.0-39.0","task_version":"battery-v0.2-trt","session":2},{"rune":"T","rune_set":"elianto","hex":"#f73b6a7A","correct":-1,"choice":32,"rt":944.8299999348819,"accuracy":0,"outcome":"-1","keys":[2444.870000006631],"total_keys":1,"block":1,"trial":35,"stimulus":4,"robot":4,"valence":"lose","action":"no-go","sham":1,"trial_type":"pit-trial","trial_index":65,"time_elapsed":331357,"internal_node_id":"0.0-40.0","task_version":"battery-v0.2-trt","session":2},{"rune":"N","rune_set":"elianto","hex":"#f73b6a7A","correct":32,"choice":32,"rt":569.4750000257045,"accuracy":1,"outcome":"-1","keys":[2069.6300000417978],"total_keys":1,"block":1,"trial":36,"stimulus":1,"robot":3,"valence":"lose","action":"go","sham":0,"trial_type":"pit-trial","trial_index":66,"time_elapsed":334632,"internal_node_id":"0.0-41.0","task_version":"battery-v0.2-trt","session":2},{"rune":"X","rune_set":"elianto","hex":"#3366ff99","correct":32,"choice":-1,"rt":-1,"accuracy":0,"outcome":"+1","keys":[],"total_keys":0,"block":1,"trial":37,"stimulus":3,"robot":1,"valence":"win","action":"go","sham":0,"trial_type":"pit-trial","trial_index":67,"time_elapsed":338638,"internal_node_id":"0.0-42.0","task_version":"battery-v0.2-trt","session":2},{"rune":"Q","rune_set":"elianto","hex":"#f73b6a7A","correct":-1,"choice":-1,"rt":-1,"accuracy":1,"outcome":"-1","keys":[],"total_keys":0,"block":1,"trial":38,"stimulus":0,"robot":4,"valence":"lose","action":"no-go","sham":0,"trial_type":"pit-trial","trial_index":68,"time_elapsed":342655,"internal_node_id":"0.0-43.0","task_version":"battery-v0.2-trt","session":2},{"rune":"T","rune_set":"elianto","hex":"#f73b6a7A","correct":-1,"choice":32,"rt":788.2449999451637,"accuracy":0,"outcome":"-1","keys":[2288.8200000161305],"total_keys":1,"block":1,"trial":39,"stimulus":4,"robot":4,"valence":"lose","action":"no-go","sham":1,"trial_type":"pit-trial","trial_index":69,"time_elapsed":346157,"internal_node_id":"0.0-44.0","task_version":"battery-v0.2-trt","session":2},{"rune":"N","rune_set":"elianto","hex":"#f73b6a7A","correct":32,"choice":32,"rt":569.9950000271201,"accuracy":1,"outcome":"-1","keys":[2070.7600000314415],"total_keys":1,"block":1,"trial":40,"stimulus":1,"robot":3,"valence":"lose","action":"go","sham":0,"trial_type":"pit-trial","trial_index":70,"time_elapsed":349432,"internal_node_id":"0.0-45.0","task_version":"battery-v0.2-trt","session":2},{"rune":"T","rune_set":"elianto","hex":"#f73b6a7A","correct":-1,"choice":32,"rt":908.835000009276,"accuracy":0,"outcome":"-10","keys":[2409.220000030473],"total_keys":1,"block":1,"trial":41,"stimulus":4,"robot":4,"valence":"lose","action":"no-go","sham":0,"trial_type":"pit-trial","trial_index":71,"time_elapsed":353044,"internal_node_id":"0.0-46.0","task_version":"battery-v0.2-trt","session":2},{"rune":"N","rune_set":"elianto","hex":"#f73b6a7A","correct":32,"choice":32,"rt":708.4500000346452,"accuracy":1,"outcome":"-1","keys":[2208.8399999774992],"total_keys":1,"block":1,"trial":42,"stimulus":1,"robot":3,"valence":"lose","action":"go","sham":0,"trial_type":"pit-trial","trial_index":72,"time_elapsed":356458,"internal_node_id":"0.0-47.0","task_version":"battery-v0.2-trt","session":2},{"rune":"Q","rune_set":"elianto","hex":"#f73b6a7A","correct":-1,"choice":-1,"rt":-1,"accuracy":1,"outcome":"-1","keys":[],"total_keys":0,"block":1,"trial":43,"stimulus":0,"robot":4,"valence":"lose","action":"no-go","sham":0,"trial_type":"pit-trial","trial_index":73,"time_elapsed":360462,"internal_node_id":"0.0-48.0","task_version":"battery-v0.2-trt","session":2},{"rune":"B","rune_set":"elianto","hex":"#3366ff99","correct":-1,"choice":32,"rt":774.6099999640137,"accuracy":0,"outcome":"+1","keys":[2275.00499994494],"total_keys":1,"block":1,"trial":44,"stimulus":5,"robot":2,"valence":"win","action":"no-go","sham":0,"trial_type":"pit-trial","trial_index":74,"time_elapsed":363940,"internal_node_id":"0.0-49.0","task_version":"battery-v0.2-trt","session":2},{"rune":"Q","rune_set":"elianto","hex":"#f73b6a7A","correct":-1,"choice":-1,"rt":-1,"accuracy":1,"outcome":"-1","keys":[],"total_keys":0,"block":1,"trial":45,"stimulus":0,"robot":4,"valence":"lose","action":"no-go","sham":0,"trial_type":"pit-trial","trial_index":75,"time_elapsed":367945,"internal_node_id":"0.0-50.0","task_version":"battery-v0.2-trt","session":2},{"rune":"T","rune_set":"elianto","hex":"#f73b6a7A","correct":-1,"choice":-1,"rt":-1,"accuracy":1,"outcome":"-1","keys":[],"total_keys":0,"block":1,"trial":46,"stimulus":4,"robot":4,"valence":"lose","action":"no-go","sham":0,"trial_type":"pit-trial","trial_index":76,"time_elapsed":371959,"internal_node_id":"0.0-51.0","task_version":"battery-v0.2-trt","session":2},{"rune":"N","rune_set":"elianto","hex":"#f73b6a7A","correct":32,"choice":32,"rt":743.5800000093877,"accuracy":1,"outcome":"-1","keys":[2243.8599999295548],"total_keys":1,"block":1,"trial":47,"stimulus":1,"robot":3,"valence":"lose","action":"go","sham":0,"trial_type":"pit-trial","trial_index":77,"time_elapsed":375408,"internal_node_id":"0.0-52.0","task_version":"battery-v0.2-trt","session":2},{"rune":"B","rune_set":"elianto","hex":"#3366ff99","correct":-1,"choice":-1,"rt":-1,"accuracy":1,"outcome":"+1","keys":[],"total_keys":0,"block":1,"trial":48,"stimulus":5,"robot":2,"valence":"win","action":"no-go","sham":1,"trial_type":"pit-trial","trial_index":78,"time_elapsed":379411,"internal_node_id":"0.0-53.0","task_version":"battery-v0.2-trt","session":2},{"rune":"B","rune_set":"elianto","hex":"#3366ff99","correct":-1,"choice":32,"rt":422.1499999985099,"accuracy":0,"outcome":"+10","keys":[1923.160000005737],"total_keys":1,"block":1,"trial":49,"stimulus":5,"robot":2,"valence":"win","action":"no-go","sham":1,"trial_type":"pit-trial","trial_index":79,"time_elapsed":382539,"internal_node_id":"0.0-54.0","task_version":"battery-v0.2-trt","session":2},{"rune":"Z","rune_set":"elianto","hex":"#3366ff99","correct":32,"choice":32,"rt":784.1600000392646,"accuracy":1,"outcome":"+10","keys":[2285.1299999747425],"total_keys":1,"block":1,"trial":50,"stimulus":7,"robot":1,"valence":"win","action":"go","sham":0,"trial_type":"pit-trial","trial_index":80,"time_elapsed":386028,"internal_node_id":"0.0-55.0","task_version":"battery-v0.2-trt","session":2},{"rune":"T","rune_set":"elianto","hex":"#f73b6a7A","correct":-1,"choice":-1,"rt":-1,"accuracy":1,"outcome":"-1","keys":[],"total_keys":0,"block":1,"trial":51,"stimulus":4,"robot":4,"valence":"lose","action":"no-go","sham":0,"trial_type":"pit-trial","trial_index":81,"time_elapsed":390049,"internal_node_id":"0.0-56.0","task_version":"battery-v0.2-trt","session":2},{"rune":"C","rune_set":"elianto","hex":"#f73b6a7A","correct":-1,"choice":32,"rt":1053.0600000638515,"accuracy":0,"outcome":"-1","keys":[2554.5599999604747],"total_keys":1,"block":1,"trial":52,"stimulus":6,"robot":4,"valence":"lose","action":"no-go","sham":1,"trial_type":"pit-trial","trial_index":82,"time_elapsed":393819,"internal_node_id":"0.0-57.0","task_version":"battery-v0.2-trt","session":2},{"rune":"B","rune_set":"elianto","hex":"#3366ff99","correct":-1,"choice":32,"rt":895.9150000009686,"accuracy":0,"outcome":"+1","keys":[2395.9950000280514],"total_keys":1,"block":1,"trial":53,"stimulus":5,"robot":2,"valence":"win","action":"no-go","sham":0,"trial_type":"pit-trial","trial_index":83,"time_elapsed":397419,"internal_node_id":"0.0-58.0","task_version":"battery-v0.2-trt","session":2},{"rune":"Z","rune_set":"elianto","hex":"#3366ff99","correct":32,"choice":32,"rt":567.3350000288337,"accuracy":1,"outcome":"+10","keys":[2068.030000082217],"total_keys":1,"block":1,"trial":54,"stimulus":7,"robot":1,"valence":"win","action":"go","sham":0,"trial_type":"pit-trial","trial_index":84,"time_elapsed":400692,"internal_node_id":"0.0-59.0","task_version":"battery-v0.2-trt","session":2},{"rune":"T","rune_set":"elianto","hex":"#f73b6a7A","correct":-1,"choice":-1,"rt":-1,"accuracy":1,"outcome":"-1","keys":[],"total_keys":0,"block":1,"trial":55,"stimulus":4,"robot":4,"valence":"lose","action":"no-go","sham":0,"trial_type":"pit-trial","trial_index":85,"time_elapsed":404698,"internal_node_id":"0.0-60.0","task_version":"battery-v0.2-trt","session":2},{"rune":"C","rune_set":"elianto","hex":"#f73b6a7A","correct":-1,"choice":32,"rt":588.0449999822304,"accuracy":0,"outcome":"-10","keys":[2088.694999925792],"total_keys":1,"block":1,"trial":56,"stimulus":6,"robot":4,"valence":"lose","action":"no-go","sham":0,"trial_type":"pit-trial","trial_index":86,"time_elapsed":407991,"internal_node_id":"0.0-61.0","task_version":"battery-v0.2-trt","session":2},{"rune":"Z","rune_set":"elianto","hex":"#3366ff99","correct":32,"choice":32,"rt":678.4300000872463,"accuracy":1,"outcome":"+10","keys":[2180.1899999845773],"total_keys":1,"block":1,"trial":57,"stimulus":7,"robot":1,"valence":"win","action":"go","sham":0,"trial_type":"pit-trial","trial_index":87,"time_elapsed":411381,"internal_node_id":"0.0-62.0","task_version":"battery-v0.2-trt","session":2},{"rune":"C","rune_set":"elianto","hex":"#f73b6a7A","correct":-1,"choice":-1,"rt":-1,"accuracy":1,"outcome":"-10","keys":[],"total_keys":0,"block":1,"trial":58,"stimulus":6,"robot":4,"valence":"lose","action":"no-go","sham":1,"trial_type":"pit-trial","trial_index":88,"time_elapsed":415387,"internal_node_id":"0.0-63.0","task_version":"battery-v0.2-trt","session":2},{"rune":"T","rune_set":"elianto","hex":"#f73b6a7A","correct":-1,"choice":32,"rt":600.1650000689551,"accuracy":0,"outcome":"-1","keys":[2101.494999951683],"total_keys":1,"block":1,"trial":59,"stimulus":4,"robot":4,"valence":"lose","action":"no-go","sham":1,"trial_type":"pit-trial","trial_index":89,"time_elapsed":418693,"internal_node_id":"0.0-64.0","task_version":"battery-v0.2-trt","session":2},{"rune":"B","rune_set":"elianto","hex":"#3366ff99","correct":-1,"choice":32,"rt":968.3349999831989,"accuracy":0,"outcome":"+1","keys":[2469.4349999772385],"total_keys":1,"block":1,"trial":60,"stimulus":5,"robot":2,"valence":"win","action":"no-go","sham":0,"trial_type":"pit-trial","trial_index":90,"time_elapsed":422367,"internal_node_id":"0.0-65.0","task_version":"battery-v0.2-trt","session":2},{"rune":"B","rune_set":"elianto","hex":"#3366ff99","correct":-1,"choice":-1,"rt":-1,"accuracy":1,"outcome":"+10","keys":[],"total_keys":0,"block":1,"trial":61,"stimulus":5,"robot":2,"valence":"win","action":"no-go","sham":0,"trial_type":"pit-trial","trial_index":91,"time_elapsed":426370,"internal_node_id":"0.0-66.0","task_version":"battery-v0.2-trt","session":2},{"rune":"C","rune_set":"elianto","hex":"#f73b6a7A","correct":-1,"choice":-1,"rt":-1,"accuracy":1,"outcome":"-1","keys":[],"total_keys":0,"block":1,"trial":62,"stimulus":6,"robot":4,"valence":"lose","action":"no-go","sham":0,"trial_type":"pit-trial","trial_index":92,"time_elapsed":430374,"internal_node_id":"0.0-67.0","task_version":"battery-v0.2-trt","session":2},{"rune":"Z","rune_set":"elianto","hex":"#3366ff99","correct":32,"choice":32,"rt":562.169999931939,"accuracy":1,"outcome":"+10","keys":[2062.190000084229],"total_keys":1,"block":1,"trial":63,"stimulus":7,"robot":1,"valence":"win","action":"go","sham":0,"trial_type":"pit-trial","trial_index":93,"time_elapsed":433651,"internal_node_id":"0.0-68.0","task_version":"battery-v0.2-trt","session":2},{"rune":"T","rune_set":"elianto","hex":"#f73b6a7A","correct":-1,"choice":-1,"rt":-1,"accuracy":1,"outcome":"-1","keys":[],"total_keys":0,"block":1,"trial":64,"stimulus":4,"robot":4,"valence":"lose","action":"no-go","sham":0,"trial_type":"pit-trial","trial_index":94,"time_elapsed":437669,"internal_node_id":"0.0-69.0","task_version":"battery-v0.2-trt","session":2},{"rune":"T","rune_set":"elianto","hex":"#f73b6a7A","correct":-1,"choice":-1,"rt":-1,"accuracy":1,"outcome":"-10","keys":[],"total_keys":0,"block":1,"trial":65,"stimulus":4,"robot":4,"valence":"lose","action":"no-go","sham":1,"trial_type":"pit-trial","trial_index":95,"time_elapsed":441677,"internal_node_id":"0.0-70.0","task_version":"battery-v0.2-trt","session":2},{"rune":"B","rune_set":"elianto","hex":"#3366ff99","correct":-1,"choice":32,"rt":694.8150000534952,"accuracy":0,"outcome":"+1","keys":[2195.1099999714643],"total_keys":1,"block":1,"trial":66,"stimulus":5,"robot":2,"valence":"win","action":"no-go","sham":0,"trial_type":"pit-trial","trial_index":96,"time_elapsed":445076,"internal_node_id":"0.0-71.0","task_version":"battery-v0.2-trt","session":2},{"rune":"C","rune_set":"elianto","hex":"#f73b6a7A","correct":-1,"choice":-1,"rt":-1,"accuracy":1,"outcome":"-10","keys":[],"total_keys":0,"block":1,"trial":67,"stimulus":6,"robot":4,"valence":"lose","action":"no-go","sham":1,"trial_type":"pit-trial","trial_index":97,"time_elapsed":449085,"internal_node_id":"0.0-72.0","task_version":"battery-v0.2-trt","session":2},{"rune":"Z","rune_set":"elianto","hex":"#3366ff99","correct":32,"choice":32,"rt":419.40000001341105,"accuracy":1,"outcome":"+10","keys":[1920.4300000565127],"total_keys":1,"block":1,"trial":68,"stimulus":7,"robot":1,"valence":"win","action":"go","sham":0,"trial_type":"pit-trial","trial_index":98,"time_elapsed":452209,"internal_node_id":"0.0-73.0","task_version":"battery-v0.2-trt","session":2},{"rune":"C","rune_set":"elianto","hex":"#f73b6a7A","correct":-1,"choice":32,"rt":991.814999957569,"accuracy":0,"outcome":"-10","keys":[2492.2200000146404],"total_keys":1,"block":1,"trial":69,"stimulus":6,"robot":4,"valence":"lose","action":"no-go","sham":0,"trial_type":"pit-trial","trial_index":99,"time_elapsed":455907,"internal_node_id":"0.0-74.0","task_version":"battery-v0.2-trt","session":2},{"rune":"T","rune_set":"elianto","hex":"#f73b6a7A","correct":-1,"choice":-1,"rt":-1,"accuracy":1,"outcome":"-10","keys":[],"total_keys":0,"block":1,"trial":70,"stimulus":4,"robot":4,"valence":"lose","action":"no-go","sham":1,"trial_type":"pit-trial","trial_index":100,"time_elapsed":459912,"internal_node_id":"0.0-75.0","task_version":"battery-v0.2-trt","session":2},{"rune":"Z","rune_set":"elianto","hex":"#3366ff99","correct":32,"choice":32,"rt":520.3299999702722,"accuracy":1,"outcome":"+10","keys":[2021.2499999906868],"total_keys":1,"block":1,"trial":71,"stimulus":7,"robot":1,"valence":"win","action":"go","sham":0,"trial_type":"pit-trial","trial_index":101,"time_elapsed":463138,"internal_node_id":"0.0-76.0","task_version":"battery-v0.2-trt","session":2},{"rune":"B","rune_set":"elianto","hex":"#3366ff99","correct":-1,"choice":32,"rt":544.3649999797344,"accuracy":0,"outcome":"+1","keys":[2044.400000013411],"total_keys":1,"block":1,"trial":72,"stimulus":5,"robot":2,"valence":"win","action":"no-go","sham":0,"trial_type":"pit-trial","trial_index":102,"time_elapsed":466386,"internal_node_id":"0.0-77.0","task_version":"battery-v0.2-trt","session":2},{"rune":"C","rune_set":"elianto","hex":"#f73b6a7A","correct":-1,"choice":-1,"rt":-1,"accuracy":1,"outcome":"-10","keys":[],"total_keys":0,"block":1,"trial":73,"stimulus":6,"robot":4,"valence":"lose","action":"no-go","sham":1,"trial_type":"pit-trial","trial_index":103,"time_elapsed":470392,"internal_node_id":"0.0-78.0","task_version":"battery-v0.2-trt","session":2},{"rune":"H","rune_set":"elianto","hex":"#3366ff99","correct":32,"choice":32,"rt":602.3449999047443,"accuracy":1,"outcome":"+10","keys":[2104.0199999697506],"total_keys":1,"block":1,"trial":74,"stimulus":8,"robot":1,"valence":"win","action":"go","sham":0,"trial_type":"pit-trial","trial_index":104,"time_elapsed":473714,"internal_node_id":"0.0-79.0","task_version":"battery-v0.2-trt","session":2},{"rune":"Z","rune_set":"elianto","hex":"#3366ff99","correct":32,"choice":32,"rt":465.82499996293336,"accuracy":1,"outcome":"+10","keys":[1966.9200000353158],"total_keys":1,"block":1,"trial":75,"stimulus":7,"robot":1,"valence":"win","action":"go","sham":0,"trial_type":"pit-trial","trial_index":105,"time_elapsed":476885,"internal_node_id":"0.0-80.0","task_version":"battery-v0.2-trt","session":2},{"rune":"B","rune_set":"elianto","hex":"#3366ff99","correct":-1,"choice":32,"rt":724.625000031665,"accuracy":0,"outcome":"+1","keys":[2225.16499995254],"total_keys":1,"block":1,"trial":76,"stimulus":5,"robot":2,"valence":"win","action":"no-go","sham":0,"trial_type":"pit-trial","trial_index":106,"time_elapsed":480315,"internal_node_id":"0.0-81.0","task_version":"battery-v0.2-trt","session":2},{"rune":"Z","rune_set":"elianto","hex":"#3366ff99","correct":32,"choice":32,"rt":574.4350000750273,"accuracy":1,"outcome":"+10","keys":[2075.6749999709427],"total_keys":1,"block":1,"trial":77,"stimulus":7,"robot":1,"valence":"win","action":"go","sham":0,"trial_type":"pit-trial","trial_index":107,"time_elapsed":483599,"internal_node_id":"0.0-82.0","task_version":"battery-v0.2-trt","session":2},{"rune":"C","rune_set":"elianto","hex":"#f73b6a7A","correct":-1,"choice":32,"rt":378.179999999702,"accuracy":0,"outcome":"-10","keys":[1879.7750000376254],"total_keys":1,"block":1,"trial":78,"stimulus":6,"robot":4,"valence":"lose","action":"no-go","sham":0,"trial_type":"pit-trial","trial_index":108,"time_elapsed":486681,"internal_node_id":"0.0-83.0","task_version":"battery-v0.2-trt","session":2},{"rune":"B","rune_set":"elianto","hex":"#3366ff99","correct":-1,"choice":-1,"rt":-1,"accuracy":1,"outcome":"+10","keys":[],"total_keys":0,"block":1,"trial":79,"stimulus":5,"robot":2,"valence":"win","action":"no-go","sham":0,"trial_type":"pit-trial","trial_index":109,"time_elapsed":490687,"internal_node_id":"0.0-84.0","task_version":"battery-v0.2-trt","session":2},{"rune":"H","rune_set":"elianto","hex":"#3366ff99","correct":32,"choice":32,"rt":507.6699999626726,"accuracy":1,"outcome":"+1","keys":[2007.7199999941513],"total_keys":1,"block":1,"trial":80,"stimulus":8,"robot":1,"valence":"win","action":"go","sham":1,"trial_type":"pit-trial","trial_index":110,"time_elapsed":493898,"internal_node_id":"0.0-85.0","task_version":"battery-v0.2-trt","session":2},{"rune":"Y","rune_set":"elianto","hex":"#3366ff99","correct":-1,"choice":32,"rt":727.515000035055,"accuracy":0,"outcome":"+1","keys":[2228.0399999581277],"total_keys":1,"block":1,"trial":81,"stimulus":9,"robot":2,"valence":"win","action":"no-go","sham":0,"trial_type":"pit-trial","trial_index":111,"time_elapsed":497331,"internal_node_id":"0.0-86.0","task_version":"battery-v0.2-trt","session":2},{"rune":"R","rune_set":"elianto","hex":"#f73b6a7A","correct":32,"choice":-1,"rt":-1,"accuracy":0,"outcome":"-10","keys":[],"total_keys":0,"block":1,"trial":82,"stimulus":10,"robot":3,"valence":"lose","action":"go","sham":0,"trial_type":"pit-trial","trial_index":112,"time_elapsed":501335,"internal_node_id":"0.0-87.0","task_version":"battery-v0.2-trt","session":2},{"rune":"B","rune_set":"elianto","hex":"#3366ff99","correct":-1,"choice":32,"rt":635.950000025332,"accuracy":0,"outcome":"+10","keys":[2136.0749999294057],"total_keys":1,"block":1,"trial":83,"stimulus":5,"robot":2,"valence":"win","action":"no-go","sham":1,"trial_type":"pit-trial","trial_index":113,"time_elapsed":504687,"internal_node_id":"0.0-88.0","task_version":"battery-v0.2-trt","session":2},{"rune":"H","rune_set":"elianto","hex":"#3366ff99","correct":32,"choice":32,"rt":597.8650000179186,"accuracy":1,"outcome":"+10","keys":[2098.3199999900535],"total_keys":1,"block":1,"trial":84,"stimulus":8,"robot":1,"valence":"win","action":"go","sham":0,"trial_type":"pit-trial","trial_index":114,"time_elapsed":507990,"internal_node_id":"0.0-89.0","task_version":"battery-v0.2-trt","session":2},{"rune":"Y","rune_set":"elianto","hex":"#3366ff99","correct":-1,"choice":32,"rt":771.7249999986961,"accuracy":0,"outcome":"+1","keys":[2272.7949999971315],"total_keys":1,"block":1,"trial":85,"stimulus":9,"robot":2,"valence":"win","action":"no-go","sham":0,"trial_type":"pit-trial","trial_index":115,"time_elapsed":511468,"internal_node_id":"0.0-90.0","task_version":"battery-v0.2-trt","session":2},{"rune":"B","rune_set":"elianto","hex":"#3366ff99","correct":-1,"choice":32,"rt":919.9299999745563,"accuracy":0,"outcome":"+1","keys":[2421.455000061542],"total_keys":1,"block":1,"trial":86,"stimulus":5,"robot":2,"valence":"win","action":"no-go","sham":0,"trial_type":"pit-trial","trial_index":116,"time_elapsed":515093,"internal_node_id":"0.0-91.0","task_version":"battery-v0.2-trt","session":2},{"rune":"H","rune_set":"elianto","hex":"#3366ff99","correct":32,"choice":32,"rt":563.7599999317899,"accuracy":1,"outcome":"+10","keys":[2064.104999997653],"total_keys":1,"block":1,"trial":87,"stimulus":8,"robot":1,"valence":"win","action":"go","sham":0,"trial_type":"pit-trial","trial_index":117,"time_elapsed":518363,"internal_node_id":"0.0-92.0","task_version":"battery-v0.2-trt","session":2},{"rune":"R","rune_set":"elianto","hex":"#f73b6a7A","correct":32,"choice":-1,"rt":-1,"accuracy":0,"outcome":"-1","keys":[],"total_keys":0,"block":1,"trial":88,"stimulus":10,"robot":3,"valence":"lose","action":"go","sham":1,"trial_type":"pit-trial","trial_index":118,"time_elapsed":522367,"internal_node_id":"0.0-93.0","task_version":"battery-v0.2-trt","session":2},{"rune":"M","rune_set":"elianto","hex":"#3366ff99","correct":-1,"choice":32,"rt":605.7649999856949,"accuracy":0,"outcome":"+1","keys":[2106.124999932945],"total_keys":1,"block":1,"trial":89,"stimulus":11,"robot":2,"valence":"win","action":"no-go","sham":0,"trial_type":"pit-trial","trial_index":119,"time_elapsed":525677,"internal_node_id":"0.0-94.0","task_version":"battery-v0.2-trt","session":2},{"rune":"H","rune_set":"elianto","hex":"#3366ff99","correct":32,"choice":-1,"rt":-1,"accuracy":0,"outcome":"+1","keys":[],"total_keys":0,"block":1,"trial":90,"stimulus":8,"robot":1,"valence":"win","action":"go","sham":0,"trial_type":"pit-trial","trial_index":120,"time_elapsed":529682,"internal_node_id":"0.0-95.0","task_version":"battery-v0.2-trt","session":2},{"rune":"R","rune_set":"elianto","hex":"#f73b6a7A","correct":32,"choice":32,"rt":779.3750000419095,"accuracy":1,"outcome":"-1","keys":[2279.7799999825656],"total_keys":1,"block":1,"trial":91,"stimulus":10,"robot":3,"valence":"lose","action":"go","sham":0,"trial_type":"pit-trial","trial_index":121,"time_elapsed":533168,"internal_node_id":"0.0-96.0","task_version":"battery-v0.2-trt","session":2},{"rune":"Y","rune_set":"elianto","hex":"#3366ff99","correct":-1,"choice":32,"rt":643.3099999558181,"accuracy":0,"outcome":"+1","keys":[2143.4499999741092],"total_keys":1,"block":1,"trial":92,"stimulus":9,"robot":2,"valence":"win","action":"no-go","sham":0,"trial_type":"pit-trial","trial_index":122,"time_elapsed":536516,"internal_node_id":"0.0-97.0","task_version":"battery-v0.2-trt","session":2},{"rune":"Y","rune_set":"elianto","hex":"#3366ff99","correct":-1,"choice":-1,"rt":-1,"accuracy":1,"outcome":"+1","keys":[],"total_keys":0,"block":1,"trial":93,"stimulus":9,"robot":2,"valence":"win","action":"no-go","sham":1,"trial_type":"pit-trial","trial_index":123,"time_elapsed":540522,"internal_node_id":"0.0-98.0","task_version":"battery-v0.2-trt","session":2},{"rune":"H","rune_set":"elianto","hex":"#3366ff99","correct":32,"choice":32,"rt":546.1299999151379,"accuracy":1,"outcome":"+10","keys":[2046.6149999992922],"total_keys":1,"block":1,"trial":94,"stimulus":8,"robot":1,"valence":"win","action":"go","sham":0,"trial_type":"pit-trial","trial_index":124,"time_elapsed":543773,"internal_node_id":"0.0-99.0","task_version":"battery-v0.2-trt","session":2},{"rune":"R","rune_set":"elianto","hex":"#f73b6a7A","correct":32,"choice":-1,"rt":-1,"accuracy":0,"outcome":"-10","keys":[],"total_keys":0,"block":1,"trial":95,"stimulus":10,"robot":3,"valence":"lose","action":"go","sham":0,"trial_type":"pit-trial","trial_index":125,"time_elapsed":547778,"internal_node_id":"0.0-100.0","task_version":"battery-v0.2-trt","session":2},{"rune":"M","rune_set":"elianto","hex":"#3366ff99","correct":-1,"choice":32,"rt":619.0449999412522,"accuracy":0,"outcome":"+1","keys":[2119.249999988824],"total_keys":1,"block":1,"trial":96,"stimulus":11,"robot":2,"valence":"win","action":"no-go","sham":0,"trial_type":"pit-trial","trial_index":126,"time_elapsed":551103,"internal_node_id":"0.0-101.0","task_version":"battery-v0.2-trt","session":2},{"rune":"R","rune_set":"elianto","hex":"#f73b6a7A","correct":32,"choice":32,"rt":719.9549999786541,"accuracy":1,"outcome":"-1","keys":[2220.240000053309],"total_keys":1,"block":1,"trial":97,"stimulus":10,"robot":3,"valence":"lose","action":"go","sham":0,"trial_type":"pit-trial","trial_index":127,"time_elapsed":554527,"internal_node_id":"0.0-102.0","task_version":"battery-v0.2-trt","session":2},{"rune":"H","rune_set":"elianto","hex":"#3366ff99","correct":32,"choice":32,"rt":668.6700000427663,"accuracy":1,"outcome":"+10","keys":[2169.3349999841303],"total_keys":1,"block":1,"trial":98,"stimulus":8,"robot":1,"valence":"win","action":"go","sham":0,"trial_type":"pit-trial","trial_index":128,"time_elapsed":557900,"internal_node_id":"0.0-103.0","task_version":"battery-v0.2-trt","session":2},{"rune":"M","rune_set":"elianto","hex":"#3366ff99","correct":-1,"choice":-1,"rt":-1,"accuracy":1,"outcome":"+10","keys":[],"total_keys":0,"block":1,"trial":99,"stimulus":11,"robot":2,"valence":"win","action":"no-go","sham":0,"trial_type":"pit-trial","trial_index":129,"time_elapsed":561905,"internal_node_id":"0.0-104.0","task_version":"battery-v0.2-trt","session":2},{"rune":"Y","rune_set":"elianto","hex":"#3366ff99","correct":-1,"choice":32,"rt":525.4100000020117,"accuracy":0,"outcome":"+1","keys":[2025.9599999990314],"total_keys":1,"block":1,"trial":100,"stimulus":9,"robot":2,"valence":"win","action":"no-go","sham":0,"trial_type":"pit-trial","trial_index":130,"time_elapsed":565135,"internal_node_id":"0.0-105.0","task_version":"battery-v0.2-trt","session":2},{"rune":"M","rune_set":"elianto","hex":"#3366ff99","correct":-1,"choice":-1,"rt":-1,"accuracy":1,"outcome":"+10","keys":[],"total_keys":0,"block":1,"trial":101,"stimulus":11,"robot":2,"valence":"win","action":"no-go","sham":0,"trial_type":"pit-trial","trial_index":131,"time_elapsed":569141,"internal_node_id":"0.0-106.0","task_version":"battery-v0.2-trt","session":2},{"rune":"H","rune_set":"elianto","hex":"#3366ff99","correct":32,"choice":32,"rt":700.4149999702349,"accuracy":1,"outcome":"+1","keys":[2202.380000031553],"total_keys":1,"block":1,"trial":102,"stimulus":8,"robot":1,"valence":"win","action":"go","sham":1,"trial_type":"pit-trial","trial_index":132,"time_elapsed":572548,"internal_node_id":"0.0-107.0","task_version":"battery-v0.2-trt","session":2},{"rune":"R","rune_set":"elianto","hex":"#f73b6a7A","correct":32,"choice":32,"rt":823.0149999726564,"accuracy":1,"outcome":"-1","keys":[2323.9299999549985],"total_keys":1,"block":1,"trial":103,"stimulus":10,"robot":3,"valence":"lose","action":"go","sham":0,"trial_type":"pit-trial","trial_index":133,"time_elapsed":576078,"internal_node_id":"0.0-108.0","task_version":"battery-v0.2-trt","session":2},{"rune":"Y","rune_set":"elianto","hex":"#3366ff99","correct":-1,"choice":-1,"rt":-1,"accuracy":1,"outcome":"+10","keys":[],"total_keys":0,"block":1,"trial":104,"stimulus":9,"robot":2,"valence":"win","action":"no-go","sham":0,"trial_type":"pit-trial","trial_index":134,"time_elapsed":580083,"internal_node_id":"0.0-109.0","task_version":"battery-v0.2-trt","session":2},{"rune":"H","rune_set":"elianto","hex":"#3366ff99","correct":32,"choice":32,"rt":895.1250000391155,"accuracy":1,"outcome":"+10","keys":[2395.409999997355],"total_keys":1,"block":1,"trial":105,"stimulus":8,"robot":1,"valence":"win","action":"go","sham":0,"trial_type":"pit-trial","trial_index":135,"time_elapsed":583683,"internal_node_id":"0.0-110.0","task_version":"battery-v0.2-trt","session":2},{"rune":"R","rune_set":"elianto","hex":"#f73b6a7A","correct":32,"choice":32,"rt":1092.3400000901893,"accuracy":1,"outcome":"-10","keys":[2592.4749999539927],"total_keys":1,"block":1,"trial":106,"stimulus":10,"robot":3,"valence":"lose","action":"go","sham":1,"trial_type":"pit-trial","trial_index":136,"time_elapsed":587480,"internal_node_id":"0.0-111.0","task_version":"battery-v0.2-trt","session":2},{"rune":"Y","rune_set":"elianto","hex":"#3366ff99","correct":-1,"choice":-1,"rt":-1,"accuracy":1,"outcome":"+10","keys":[],"total_keys":0,"block":1,"trial":107,"stimulus":9,"robot":2,"valence":"win","action":"no-go","sham":0,"trial_type":"pit-trial","trial_index":137,"time_elapsed":591485,"internal_node_id":"0.0-112.0","task_version":"battery-v0.2-trt","session":2},{"rune":"M","rune_set":"elianto","hex":"#3366ff99","correct":-1,"choice":-1,"rt":-1,"accuracy":1,"outcome":"+1","keys":[],"total_keys":0,"block":1,"trial":108,"stimulus":11,"robot":2,"valence":"win","action":"no-go","sham":1,"trial_type":"pit-trial","trial_index":138,"time_elapsed":595491,"internal_node_id":"0.0-113.0","task_version":"battery-v0.2-trt","session":2},{"rune":"H","rune_set":"elianto","hex":"#3366ff99","correct":32,"choice":-1,"rt":-1,"accuracy":0,"outcome":"+1","keys":[],"total_keys":0,"block":1,"trial":109,"stimulus":8,"robot":1,"valence":"win","action":"go","sham":0,"trial_type":"pit-trial","trial_index":139,"time_elapsed":599505,"internal_node_id":"0.0-114.0","task_version":"battery-v0.2-trt","session":2},{"rune":"R","rune_set":"elianto","hex":"#f73b6a7A","correct":32,"choice":32,"rt":513.0850001005456,"accuracy":1,"outcome":"-10","keys":[2014.1499999444932],"total_keys":1,"block":1,"trial":110,"stimulus":10,"robot":3,"valence":"lose","action":"go","sham":1,"trial_type":"pit-trial","trial_index":140,"time_elapsed":602723,"internal_node_id":"0.0-115.0","task_version":"battery-v0.2-trt","session":2},{"rune":"M","rune_set":"elianto","hex":"#3366ff99","correct":-1,"choice":32,"rt":645.4000000376254,"accuracy":0,"outcome":"+1","keys":[2146.6249999357387],"total_keys":1,"block":1,"trial":111,"stimulus":11,"robot":2,"valence":"win","action":"no-go","sham":0,"trial_type":"pit-trial","trial_index":141,"time_elapsed":606072,"internal_node_id":"0.0-116.0","task_version":"battery-v0.2-trt","session":2},{"rune":"Y","rune_set":"elianto","hex":"#3366ff99","correct":-1,"choice":-1,"rt":-1,"accuracy":1,"outcome":"+10","keys":[],"total_keys":0,"block":1,"trial":112,"stimulus":9,"robot":2,"valence":"win","action":"no-go","sham":0,"trial_type":"pit-trial","trial_index":142,"time_elapsed":610076,"internal_node_id":"0.0-117.0","task_version":"battery-v0.2-trt","session":2},{"rune":"H","rune_set":"elianto","hex":"#3366ff99","correct":32,"choice":32,"rt":491.1849999334663,"accuracy":1,"outcome":"+10","keys":[1991.2149999290705],"total_keys":1,"block":1,"trial":113,"stimulus":8,"robot":1,"valence":"win","action":"go","sham":0,"trial_type":"pit-trial","trial_index":143,"time_elapsed":613271,"internal_node_id":"0.0-118.0","task_version":"battery-v0.2-trt","session":2},{"rune":"R","rune_set":"elianto","hex":"#f73b6a7A","correct":32,"choice":-1,"rt":-1,"accuracy":0,"outcome":"-10","keys":[],"total_keys":0,"block":1,"trial":114,"stimulus":10,"robot":3,"valence":"lose","action":"go","sham":0,"trial_type":"pit-trial","trial_index":144,"time_elapsed":617287,"internal_node_id":"0.0-119.0","task_version":"battery-v0.2-trt","session":2},{"rune":"Y","rune_set":"elianto","hex":"#3366ff99","correct":-1,"choice":-1,"rt":-1,"accuracy":1,"outcome":"+10","keys":[],"total_keys":0,"block":1,"trial":115,"stimulus":9,"robot":2,"valence":"win","action":"no-go","sham":0,"trial_type":"pit-trial","trial_index":145,"time_elapsed":621290,"internal_node_id":"0.0-120.0","task_version":"battery-v0.2-trt","session":2},{"rune":"M","rune_set":"elianto","hex":"#3366ff99","correct":-1,"choice":-1,"rt":-1,"accuracy":1,"outcome":"+10","keys":[],"total_keys":0,"block":1,"trial":116,"stimulus":11,"robot":2,"valence":"win","action":"no-go","sham":0,"trial_type":"pit-trial","trial_index":146,"time_elapsed":625305,"internal_node_id":"0.0-121.0","task_version":"battery-v0.2-trt","session":2},{"rune":"Y","rune_set":"elianto","hex":"#3366ff99","correct":-1,"choice":32,"rt":803.0250000301749,"accuracy":0,"outcome":"+1","keys":[2303.414999973029],"total_keys":1,"block":1,"trial":117,"stimulus":9,"robot":2,"valence":"win","action":"no-go","sham":0,"trial_type":"pit-trial","trial_index":147,"time_elapsed":628813,"internal_node_id":"0.0-122.0","task_version":"battery-v0.2-trt","session":2},{"rune":"R","rune_set":"elianto","hex":"#f73b6a7A","correct":32,"choice":32,"rt":659.0700000524521,"accuracy":1,"outcome":"-10","keys":[2159.4099999638274],"total_keys":1,"block":1,"trial":118,"stimulus":10,"robot":3,"valence":"lose","action":"go","sham":1,"trial_type":"pit-trial","trial_index":148,"time_elapsed":632177,"internal_node_id":"0.0-123.0","task_version":"battery-v0.2-trt","session":2},{"rune":"M","rune_set":"elianto","hex":"#3366ff99","correct":-1,"choice":-1,"rt":-1,"accuracy":1,"outcome":"+10","keys":[],"total_keys":0,"block":1,"trial":119,"stimulus":11,"robot":2,"valence":"win","action":"no-go","sham":0,"trial_type":"pit-trial","trial_index":149,"time_elapsed":636182,"internal_node_id":"0.0-124.0","task_version":"battery-v0.2-trt","session":2},{"rune":"H","rune_set":"elianto","hex":"#3366ff99","correct":32,"choice":32,"rt":1148.0449999216944,"accuracy":1,"outcome":"+10","keys":[2648.3949999092147],"total_keys":1,"block":1,"trial":120,"stimulus":8,"robot":1,"valence":"win","action":"go","sham":0,"trial_type":"pit-trial","trial_index":150,"time_elapsed":640035,"internal_node_id":"0.0-125.0","task_version":"battery-v0.2-trt","session":2},{"view_history":"[{\"page_index\":0,\"viewing_time\":62705.63000009861},{\"page_index\":1,\"viewing_time\":1474.8999999137595}]","rt":64181.6000000108,"trial_type":"pit-instructions","trial_index":151,"time_elapsed":704217,"internal_node_id":"0.0-126.0","task_version":"battery-v0.2-trt","session":2},{"rune":"J","rune_set":"elianto","hex":"#f73b6a7A","correct":32,"choice":32,"rt":619.5399999851361,"accuracy":1,"outcome":"-1","keys":[2122.789999935776],"total_keys":1,"block":2,"trial":121,"stimulus":1,"robot":3,"valence":"lose","action":"go","sham":0,"trial_type":"pit-trial","trial_index":152,"time_elapsed":707548,"internal_node_id":"0.0-127.0","task_version":"battery-v0.2-trt","session":2},{"rune":"V","rune_set":"elianto","hex":"#3366ff99","correct":32,"choice":32,"rt":545.7800000440329,"accuracy":1,"outcome":"+10","keys":[2046.4849999407306],"total_keys":1,"block":2,"trial":122,"stimulus":0,"robot":1,"valence":"win","action":"go","sham":0,"trial_type":"pit-trial","trial_index":153,"time_elapsed":710798,"internal_node_id":"0.0-128.0","task_version":"battery-v0.2-trt","session":2},{"rune":"K","rune_set":"elianto","hex":"#3366ff99","correct":-1,"choice":32,"rt":654.6949999174103,"accuracy":0,"outcome":"+10","keys":[2155.419999966398],"total_keys":1,"block":2,"trial":123,"stimulus":3,"robot":2,"valence":"win","action":"no-go","sham":1,"trial_type":"pit-trial","trial_index":154,"time_elapsed":714156,"internal_node_id":"0.0-129.0","task_version":"battery-v0.2-trt","session":2},{"rune":"D","rune_set":"elianto","hex":"#f73b6a7A","correct":-1,"choice":-1,"rt":-1,"accuracy":1,"outcome":"-1","keys":[],"total_keys":0,"block":2,"trial":124,"stimulus":2,"robot":4,"valence":"lose","action":"no-go","sham":0,"trial_type":"pit-trial","trial_index":155,"time_elapsed":718164,"internal_node_id":"0.0-130.0","task_version":"battery-v0.2-trt","session":2},{"rune":"D","rune_set":"elianto","hex":"#f73b6a7A","correct":-1,"choice":32,"rt":1079.4900000328198,"accuracy":0,"outcome":"-10","keys":[2580.5549999931827],"total_keys":1,"block":2,"trial":125,"stimulus":2,"robot":4,"valence":"lose","action":"no-go","sham":0,"trial_type":"pit-trial","trial_index":156,"time_elapsed":721948,"internal_node_id":"0.0-131.0","task_version":"battery-v0.2-trt","session":2},{"rune":"V","rune_set":"elianto","hex":"#3366ff99","correct":32,"choice":32,"rt":560.494999983348,"accuracy":1,"outcome":"+10","keys":[2060.990000027232],"total_keys":1,"block":2,"trial":126,"stimulus":0,"robot":1,"valence":"win","action":"go","sham":0,"trial_type":"pit-trial","trial_index":157,"time_elapsed":725213,"internal_node_id":"0.0-132.0","task_version":"battery-v0.2-trt","session":2},{"rune":"K","rune_set":"elianto","hex":"#3366ff99","correct":-1,"choice":32,"rt":651.8200000282377,"accuracy":0,"outcome":"+1","keys":[2152.4549999739975],"total_keys":1,"block":2,"trial":127,"stimulus":3,"robot":2,"valence":"win","action":"no-go","sham":0,"trial_type":"pit-trial","trial_index":158,"time_elapsed":728571,"internal_node_id":"0.0-133.0","task_version":"battery-v0.2-trt","session":2},{"rune":"J","rune_set":"elianto","hex":"#f73b6a7A","correct":32,"choice":32,"rt":880.3100000368431,"accuracy":1,"outcome":"-10","keys":[2381.359999999404],"total_keys":1,"block":2,"trial":128,"stimulus":1,"robot":3,"valence":"lose","action":"go","sham":1,"trial_type":"pit-trial","trial_index":159,"time_elapsed":732156,"internal_node_id":"0.0-134.0","task_version":"battery-v0.2-trt","session":2},{"rune":"J","rune_set":"elianto","hex":"#f73b6a7A","correct":32,"choice":-1,"rt":-1,"accuracy":0,"outcome":"-10","keys":[],"total_keys":0,"block":2,"trial":129,"stimulus":1,"robot":3,"valence":"lose","action":"go","sham":0,"trial_type":"pit-trial","trial_index":160,"time_elapsed":736160,"internal_node_id":"0.0-135.0","task_version":"battery-v0.2-trt","session":2},{"rune":"V","rune_set":"elianto","hex":"#3366ff99","correct":32,"choice":32,"rt":705.6349999038503,"accuracy":1,"outcome":"+10","keys":[2205.6599999777973],"total_keys":1,"block":2,"trial":130,"stimulus":0,"robot":1,"valence":"win","action":"go","sham":0,"trial_type":"pit-trial","trial_index":161,"time_elapsed":739571,"internal_node_id":"0.0-136.0","task_version":"battery-v0.2-trt","session":2},{"rune":"K","rune_set":"elianto","hex":"#3366ff99","correct":-1,"choice":-1,"rt":-1,"accuracy":1,"outcome":"+10","keys":[],"total_keys":0,"block":2,"trial":131,"stimulus":3,"robot":2,"valence":"win","action":"no-go","sham":0,"trial_type":"pit-trial","trial_index":162,"time_elapsed":743577,"internal_node_id":"0.0-137.0","task_version":"battery-v0.2-trt","session":2},{"rune":"D","rune_set":"elianto","hex":"#f73b6a7A","correct":-1,"choice":32,"rt":1192.6949999760836,"accuracy":0,"outcome":"-10","keys":[2692.945000017062],"total_keys":1,"block":2,"trial":132,"stimulus":2,"robot":4,"valence":"lose","action":"no-go","sham":0,"trial_type":"pit-trial","trial_index":163,"time_elapsed":747474,"internal_node_id":"0.0-138.0","task_version":"battery-v0.2-trt","session":2},{"rune":"V","rune_set":"elianto","hex":"#3366ff99","correct":32,"choice":32,"rt":833.589999936521,"accuracy":1,"outcome":"+10","keys":[2334.8299999488518],"total_keys":1,"block":2,"trial":133,"stimulus":0,"robot":1,"valence":"win","action":"go","sham":0,"trial_type":"pit-trial","trial_index":164,"time_elapsed":751013,"internal_node_id":"0.0-139.0","task_version":"battery-v0.2-trt","session":2},{"rune":"K","rune_set":"elianto","hex":"#3366ff99","correct":-1,"choice":-1,"rt":-1,"accuracy":1,"outcome":"+1","keys":[],"total_keys":0,"block":2,"trial":134,"stimulus":3,"robot":2,"valence":"win","action":"no-go","sham":1,"trial_type":"pit-trial","trial_index":165,"time_elapsed":755031,"internal_node_id":"0.0-140.0","task_version":"battery-v0.2-trt","session":2},{"rune":"J","rune_set":"elianto","hex":"#f73b6a7A","correct":32,"choice":-1,"rt":-1,"accuracy":0,"outcome":"-10","keys":[2845.6950000254437],"total_keys":1,"block":2,"trial":135,"stimulus":1,"robot":3,"valence":"lose","action":"go","sham":0,"trial_type":"pit-trial","trial_index":166,"time_elapsed":759037,"internal_node_id":"0.0-141.0","task_version":"battery-v0.2-trt","session":2},{"rune":"D","rune_set":"elianto","hex":"#f73b6a7A","correct":-1,"choice":-1,"rt":-1,"accuracy":1,"outcome":"-10","keys":[],"total_keys":0,"block":2,"trial":136,"stimulus":2,"robot":4,"valence":"lose","action":"no-go","sham":1,"trial_type":"pit-trial","trial_index":167,"time_elapsed":763043,"internal_node_id":"0.0-142.0","task_version":"battery-v0.2-trt","session":2},{"rune":"V","rune_set":"elianto","hex":"#3366ff99","correct":32,"choice":32,"rt":574.7350000310689,"accuracy":1,"outcome":"+1","keys":[2074.9200000427663],"total_keys":1,"block":2,"trial":137,"stimulus":0,"robot":1,"valence":"win","action":"go","sham":1,"trial_type":"pit-trial","trial_index":168,"time_elapsed":766322,"internal_node_id":"0.0-143.0","task_version":"battery-v0.2-trt","session":2},{"rune":"D","rune_set":"elianto","hex":"#f73b6a7A","correct":-1,"choice":-1,"rt":-1,"accuracy":1,"outcome":"-10","keys":[],"total_keys":0,"block":2,"trial":138,"stimulus":2,"robot":4,"valence":"lose","action":"no-go","sham":1,"trial_type":"pit-trial","trial_index":169,"time_elapsed":770333,"internal_node_id":"0.0-144.0","task_version":"battery-v0.2-trt","session":2},{"rune":"K","rune_set":"elianto","hex":"#3366ff99","correct":-1,"choice":32,"rt":650.2949999412522,"accuracy":0,"outcome":"+10","keys":[2151.1000000173226],"total_keys":1,"block":2,"trial":139,"stimulus":3,"robot":2,"valence":"win","action":"no-go","sham":1,"trial_type":"pit-trial","trial_index":170,"time_elapsed":773688,"internal_node_id":"0.0-145.0","task_version":"battery-v0.2-trt","session":2},{"rune":"J","rune_set":"elianto","hex":"#f73b6a7A","correct":32,"choice":32,"rt":1120.4149998957291,"accuracy":1,"outcome":"-1","keys":[2621.049999957904],"total_keys":1,"block":2,"trial":140,"stimulus":1,"robot":3,"valence":"lose","action":"go","sham":0,"trial_type":"pit-trial","trial_index":171,"time_elapsed":777512,"internal_node_id":"0.0-146.0","task_version":"battery-v0.2-trt","session":2},{"rune":"J","rune_set":"elianto","hex":"#f73b6a7A","correct":32,"choice":32,"rt":381.76000001840293,"accuracy":1,"outcome":"-10","keys":[1883.750000037253],"total_keys":1,"block":2,"trial":141,"stimulus":1,"robot":3,"valence":"lose","action":"go","sham":1,"trial_type":"pit-trial","trial_index":172,"time_elapsed":780598,"internal_node_id":"0.0-147.0","task_version":"battery-v0.2-trt","session":2},{"rune":"D","rune_set":"elianto","hex":"#f73b6a7A","correct":-1,"choice":-1,"rt":-1,"accuracy":1,"outcome":"-1","keys":[],"total_keys":0,"block":2,"trial":142,"stimulus":2,"robot":4,"valence":"lose","action":"no-go","sham":0,"trial_type":"pit-trial","trial_index":173,"time_elapsed":784603,"internal_node_id":"0.0-148.0","task_version":"battery-v0.2-trt","session":2},{"rune":"V","rune_set":"elianto","hex":"#3366ff99","correct":32,"choice":32,"rt":565.9500000765547,"accuracy":1,"outcome":"+10","keys":[2066.2500000325963],"total_keys":1,"block":2,"trial":143,"stimulus":0,"robot":1,"valence":"win","action":"go","sham":0,"trial_type":"pit-trial","trial_index":174,"time_elapsed":787873,"internal_node_id":"0.0-149.0","task_version":"battery-v0.2-trt","session":2},{"rune":"K","rune_set":"elianto","hex":"#3366ff99","correct":-1,"choice":-1,"rt":-1,"accuracy":1,"outcome":"+10","keys":[],"total_keys":0,"block":2,"trial":144,"stimulus":3,"robot":2,"valence":"win","action":"no-go","sham":0,"trial_type":"pit-trial","trial_index":175,"time_elapsed":791877,"internal_node_id":"0.0-150.0","task_version":"battery-v0.2-trt","session":2},{"rune":"K","rune_set":"elianto","hex":"#3366ff99","correct":-1,"choice":32,"rt":845.0650000013411,"accuracy":0,"outcome":"+10","keys":[2345.74000001885],"total_keys":1,"block":2,"trial":145,"stimulus":3,"robot":2,"valence":"win","action":"no-go","sham":1,"trial_type":"pit-trial","trial_index":176,"time_elapsed":795427,"internal_node_id":"0.0-151.0","task_version":"battery-v0.2-trt","session":2},{"rune":"J","rune_set":"elianto","hex":"#f73b6a7A","correct":32,"choice":-1,"rt":-1,"accuracy":0,"outcome":"-10","keys":[],"total_keys":0,"block":2,"trial":146,"stimulus":1,"robot":3,"valence":"lose","action":"go","sham":0,"trial_type":"pit-trial","trial_index":177,"time_elapsed":799434,"internal_node_id":"0.0-152.0","task_version":"battery-v0.2-trt","session":2},{"rune":"V","rune_set":"elianto","hex":"#3366ff99","correct":32,"choice":32,"rt":646.7299999203533,"accuracy":1,"outcome":"+10","keys":[2147.110000019893],"total_keys":1,"block":2,"trial":147,"stimulus":0,"robot":1,"valence":"win","action":"go","sham":0,"trial_type":"pit-trial","trial_index":178,"time_elapsed":802786,"internal_node_id":"0.0-153.0","task_version":"battery-v0.2-trt","session":2},{"rune":"D","rune_set":"elianto","hex":"#f73b6a7A","correct":-1,"choice":-1,"rt":-1,"accuracy":1,"outcome":"-1","keys":[],"total_keys":0,"block":2,"trial":148,"stimulus":2,"robot":4,"valence":"lose","action":"no-go","sham":0,"trial_type":"pit-trial","trial_index":179,"time_elapsed":806790,"internal_node_id":"0.0-154.0","task_version":"battery-v0.2-trt","session":2},{"rune":"V","rune_set":"elianto","hex":"#3366ff99","correct":32,"choice":32,"rt":666.5550000034273,"accuracy":1,"outcome":"+10","keys":[2167.674999916926],"total_keys":1,"block":2,"trial":149,"stimulus":0,"robot":1,"valence":"win","action":"go","sham":0,"trial_type":"pit-trial","trial_index":180,"time_elapsed":810160,"internal_node_id":"0.0-155.0","task_version":"battery-v0.2-trt","session":2},{"rune":"J","rune_set":"elianto","hex":"#f73b6a7A","correct":32,"choice":32,"rt":610.8500000555068,"accuracy":1,"outcome":"-1","keys":[2111.17499996908],"total_keys":1,"block":2,"trial":150,"stimulus":1,"robot":3,"valence":"lose","action":"go","sham":0,"trial_type":"pit-trial","trial_index":181,"time_elapsed":813476,"internal_node_id":"0.0-156.0","task_version":"battery-v0.2-trt","session":2},{"rune":"K","rune_set":"elianto","hex":"#3366ff99","correct":-1,"choice":-1,"rt":-1,"accuracy":1,"outcome":"+10","keys":[],"total_keys":0,"block":2,"trial":151,"stimulus":3,"robot":2,"valence":"win","action":"no-go","sham":0,"trial_type":"pit-trial","trial_index":182,"time_elapsed":817484,"internal_node_id":"0.0-157.0","task_version":"battery-v0.2-trt","session":2},{"rune":"D","rune_set":"elianto","hex":"#f73b6a7A","correct":-1,"choice":-1,"rt":-1,"accuracy":1,"outcome":"-1","keys":[],"total_keys":0,"block":2,"trial":152,"stimulus":2,"robot":4,"valence":"lose","action":"no-go","sham":0,"trial_type":"pit-trial","trial_index":183,"time_elapsed":821489,"internal_node_id":"0.0-158.0","task_version":"battery-v0.2-trt","session":2},{"rune":"J","rune_set":"elianto","hex":"#f73b6a7A","correct":32,"choice":32,"rt":545.97500001546,"accuracy":1,"outcome":"-1","keys":[2046.8950000358745],"total_keys":1,"block":2,"trial":153,"stimulus":1,"robot":3,"valence":"lose","action":"go","sham":0,"trial_type":"pit-trial","trial_index":184,"time_elapsed":824742,"internal_node_id":"0.0-159.0","task_version":"battery-v0.2-trt","session":2},{"rune":"E","rune_set":"elianto","hex":"#f73b6a7A","correct":-1,"choice":32,"rt":800.1899999799207,"accuracy":0,"outcome":"-10","keys":[2301.009999937378],"total_keys":1,"block":2,"trial":154,"stimulus":4,"robot":4,"valence":"lose","action":"no-go","sham":0,"trial_type":"pit-trial","trial_index":185,"time_elapsed":828248,"internal_node_id":"0.0-160.0","task_version":"battery-v0.2-trt","session":2},{"rune":"V","rune_set":"elianto","hex":"#3366ff99","correct":32,"choice":32,"rt":663.6100000469014,"accuracy":1,"outcome":"+10","keys":[2165.595000027679],"total_keys":1,"block":2,"trial":155,"stimulus":0,"robot":1,"valence":"win","action":"go","sham":0,"trial_type":"pit-trial","trial_index":186,"time_elapsed":831617,"internal_node_id":"0.0-161.0","task_version":"battery-v0.2-trt","session":2},{"rune":"K","rune_set":"elianto","hex":"#3366ff99","correct":-1,"choice":-1,"rt":-1,"accuracy":1,"outcome":"+10","keys":[],"total_keys":0,"block":2,"trial":156,"stimulus":3,"robot":2,"valence":"win","action":"no-go","sham":0,"trial_type":"pit-trial","trial_index":187,"time_elapsed":835623,"internal_node_id":"0.0-162.0","task_version":"battery-v0.2-trt","session":2},{"rune":"E","rune_set":"elianto","hex":"#f73b6a7A","correct":-1,"choice":-1,"rt":-1,"accuracy":1,"outcome":"-1","keys":[],"total_keys":0,"block":2,"trial":157,"stimulus":4,"robot":4,"valence":"lose","action":"no-go","sham":0,"trial_type":"pit-trial","trial_index":188,"time_elapsed":839629,"internal_node_id":"0.0-163.0","task_version":"battery-v0.2-trt","session":2},{"rune":"K","rune_set":"elianto","hex":"#3366ff99","correct":-1,"choice":-1,"rt":-1,"accuracy":1,"outcome":"+10","keys":[],"total_keys":0,"block":2,"trial":158,"stimulus":3,"robot":2,"valence":"win","action":"no-go","sham":0,"trial_type":"pit-trial","trial_index":189,"time_elapsed":843638,"internal_node_id":"0.0-164.0","task_version":"battery-v0.2-trt","session":2},{"rune":"J","rune_set":"elianto","hex":"#f73b6a7A","correct":32,"choice":32,"rt":633.0249999882653,"accuracy":1,"outcome":"-1","keys":[2134.3999999808148],"total_keys":1,"block":2,"trial":159,"stimulus":1,"robot":3,"valence":"lose","action":"go","sham":0,"trial_type":"pit-trial","trial_index":190,"time_elapsed":846987,"internal_node_id":"0.0-165.0","task_version":"battery-v0.2-trt","session":2},{"rune":"V","rune_set":"elianto","hex":"#3366ff99","correct":32,"choice":32,"rt":512.7799999900162,"accuracy":1,"outcome":"+10","keys":[2014.4100000616163],"total_keys":1,"block":2,"trial":160,"stimulus":0,"robot":1,"valence":"win","action":"go","sham":0,"trial_type":"pit-trial","trial_index":191,"time_elapsed":850205,"internal_node_id":"0.0-166.0","task_version":"battery-v0.2-trt","session":2},{"rune":"W","rune_set":"elianto","hex":"#f73b6a7A","correct":32,"choice":-1,"rt":-1,"accuracy":0,"outcome":"-10","keys":[],"total_keys":0,"block":2,"trial":161,"stimulus":5,"robot":3,"valence":"lose","action":"go","sham":0,"trial_type":"pit-trial","trial_index":192,"time_elapsed":854208,"internal_node_id":"0.0-167.0","task_version":"battery-v0.2-trt","session":2},{"rune":"V","rune_set":"elianto","hex":"#3366ff99","correct":32,"choice":32,"rt":886.5950000472367,"accuracy":1,"outcome":"+10","keys":[2387.11000001058],"total_keys":1,"block":2,"trial":162,"stimulus":0,"robot":1,"valence":"win","action":"go","sham":0,"trial_type":"pit-trial","trial_index":193,"time_elapsed":857800,"internal_node_id":"0.0-168.0","task_version":"battery-v0.2-trt","session":2},{"rune":"K","rune_set":"elianto","hex":"#3366ff99","correct":-1,"choice":-1,"rt":-1,"accuracy":1,"outcome":"+1","keys":[],"total_keys":0,"block":2,"trial":163,"stimulus":3,"robot":2,"valence":"win","action":"no-go","sham":1,"trial_type":"pit-trial","trial_index":194,"time_elapsed":861805,"internal_node_id":"0.0-169.0","task_version":"battery-v0.2-trt","session":2},{"rune":"E","rune_set":"elianto","hex":"#f73b6a7A","correct":-1,"choice":-1,"rt":-1,"accuracy":1,"outcome":"-10","keys":[],"total_keys":0,"block":2,"trial":164,"stimulus":4,"robot":4,"valence":"lose","action":"no-go","sham":1,"trial_type":"pit-trial","trial_index":195,"time_elapsed":865811,"internal_node_id":"0.0-170.0","task_version":"battery-v0.2-trt","session":2},{"rune":"V","rune_set":"elianto","hex":"#3366ff99","correct":32,"choice":32,"rt":450.4200000083074,"accuracy":1,"outcome":"+10","keys":[1951.160000055097],"total_keys":1,"block":2,"trial":165,"stimulus":0,"robot":1,"valence":"win","action":"go","sham":0,"trial_type":"pit-trial","trial_index":196,"time_elapsed":868966,"internal_node_id":"0.0-171.0","task_version":"battery-v0.2-trt","session":2},{"rune":"W","rune_set":"elianto","hex":"#f73b6a7A","correct":32,"choice":32,"rt":626.5300000086427,"accuracy":1,"outcome":"-10","keys":[2126.6649999888614],"total_keys":1,"block":2,"trial":166,"stimulus":5,"robot":3,"valence":"lose","action":"go","sham":1,"trial_type":"pit-trial","trial_index":197,"time_elapsed":872296,"internal_node_id":"0.0-172.0","task_version":"battery-v0.2-trt","session":2},{"rune":"E","rune_set":"elianto","hex":"#f73b6a7A","correct":-1,"choice":32,"rt":990.349999978207,"accuracy":0,"outcome":"-10","keys":[2491.3050000322983],"total_keys":1,"block":2,"trial":167,"stimulus":4,"robot":4,"valence":"lose","action":"no-go","sham":0,"trial_type":"pit-trial","trial_index":198,"time_elapsed":875989,"internal_node_id":"0.0-173.0","task_version":"battery-v0.2-trt","session":2},{"rune":"K","rune_set":"elianto","hex":"#3366ff99","correct":-1,"choice":-1,"rt":-1,"accuracy":1,"outcome":"+10","keys":[],"total_keys":0,"block":2,"trial":168,"stimulus":3,"robot":2,"valence":"win","action":"no-go","sham":0,"trial_type":"pit-trial","trial_index":199,"time_elapsed":880000,"internal_node_id":"0.0-174.0","task_version":"battery-v0.2-trt","session":2},{"rune":"W","rune_set":"elianto","hex":"#f73b6a7A","correct":32,"choice":32,"rt":1266.0700000124052,"accuracy":1,"outcome":"-1","keys":[2766.154999961145],"total_keys":1,"block":2,"trial":169,"stimulus":5,"robot":3,"valence":"lose","action":"go","sham":0,"trial_type":"pit-trial","trial_index":200,"time_elapsed":883971,"internal_node_id":"0.0-175.0","task_version":"battery-v0.2-trt","session":2},{"rune":"P","rune_set":"elianto","hex":"#3366ff99","correct":-1,"choice":-1,"rt":-1,"accuracy":1,"outcome":"+10","keys":[],"total_keys":0,"block":2,"trial":170,"stimulus":7,"robot":2,"valence":"win","action":"no-go","sham":0,"trial_type":"pit-trial","trial_index":201,"time_elapsed":887980,"internal_node_id":"0.0-176.0","task_version":"battery-v0.2-trt","session":2},{"rune":"E","rune_set":"elianto","hex":"#f73b6a7A","correct":-1,"choice":-1,"rt":-1,"accuracy":1,"outcome":"-10","keys":[],"total_keys":0,"block":2,"trial":171,"stimulus":4,"robot":4,"valence":"lose","action":"no-go","sham":1,"trial_type":"pit-trial","trial_index":202,"time_elapsed":891984,"internal_node_id":"0.0-177.0","task_version":"battery-v0.2-trt","session":2},{"rune":"S","rune_set":"elianto","hex":"#3366ff99","correct":-1,"choice":32,"rt":846.944999997504,"accuracy":0,"outcome":"+1","keys":[2348.8699999870732],"total_keys":1,"block":2,"trial":172,"stimulus":6,"robot":2,"valence":"win","action":"no-go","sham":0,"trial_type":"pit-trial","trial_index":203,"time_elapsed":895548,"internal_node_id":"0.0-178.0","task_version":"battery-v0.2-trt","session":2},{"rune":"W","rune_set":"elianto","hex":"#f73b6a7A","correct":32,"choice":32,"rt":793.320000055246,"accuracy":1,"outcome":"-1","keys":[2293.390000006184],"total_keys":1,"block":2,"trial":173,"stimulus":5,"robot":3,"valence":"lose","action":"go","sham":0,"trial_type":"pit-trial","trial_index":204,"time_elapsed":899045,"internal_node_id":"0.0-179.0","task_version":"battery-v0.2-trt","session":2},{"rune":"P","rune_set":"elianto","hex":"#3366ff99","correct":-1,"choice":32,"rt":990.9950000001118,"accuracy":0,"outcome":"+1","keys":[2491.715000011027],"total_keys":1,"block":2,"trial":174,"stimulus":7,"robot":2,"valence":"win","action":"no-go","sham":0,"trial_type":"pit-trial","trial_index":205,"time_elapsed":902740,"internal_node_id":"0.0-180.0","task_version":"battery-v0.2-trt","session":2},{"rune":"S","rune_set":"elianto","hex":"#3366ff99","correct":-1,"choice":-1,"rt":-1,"accuracy":1,"outcome":"+10","keys":[],"total_keys":0,"block":2,"trial":175,"stimulus":6,"robot":2,"valence":"win","action":"no-go","sham":0,"trial_type":"pit-trial","trial_index":206,"time_elapsed":906754,"internal_node_id":"0.0-181.0","task_version":"battery-v0.2-trt","session":2},{"rune":"E","rune_set":"elianto","hex":"#f73b6a7A","correct":-1,"choice":32,"rt":713.4599999990314,"accuracy":0,"outcome":"-10","keys":[2215.3000000398606],"total_keys":1,"block":2,"trial":176,"stimulus":4,"robot":4,"valence":"lose","action":"no-go","sham":0,"trial_type":"pit-trial","trial_index":207,"time_elapsed":910173,"internal_node_id":"0.0-182.0","task_version":"battery-v0.2-trt","session":2},{"rune":"E","rune_set":"elianto","hex":"#f73b6a7A","correct":-1,"choice":-1,"rt":-1,"accuracy":1,"outcome":"-1","keys":[],"total_keys":0,"block":2,"trial":177,"stimulus":4,"robot":4,"valence":"lose","action":"no-go","sham":0,"trial_type":"pit-trial","trial_index":208,"time_elapsed":914178,"internal_node_id":"0.0-183.0","task_version":"battery-v0.2-trt","session":2},{"rune":"P","rune_set":"elianto","hex":"#3366ff99","correct":-1,"choice":32,"rt":968.1949999649078,"accuracy":0,"outcome":"+1","keys":[2468.639999977313],"total_keys":1,"block":2,"trial":178,"stimulus":7,"robot":2,"valence":"win","action":"no-go","sham":0,"trial_type":"pit-trial","trial_index":209,"time_elapsed":917852,"internal_node_id":"0.0-184.0","task_version":"battery-v0.2-trt","session":2},{"rune":"S","rune_set":"elianto","hex":"#3366ff99","correct":-1,"choice":32,"rt":659.9649999989197,"accuracy":0,"outcome":"+10","keys":[2160.050000064075],"total_keys":1,"block":2,"trial":179,"stimulus":6,"robot":2,"valence":"win","action":"no-go","sham":1,"trial_type":"pit-trial","trial_index":210,"time_elapsed":921216,"internal_node_id":"0.0-185.0","task_version":"battery-v0.2-trt","session":2},{"rune":"W","rune_set":"elianto","hex":"#f73b6a7A","correct":32,"choice":-1,"rt":-1,"accuracy":0,"outcome":"-10","keys":[],"total_keys":0,"block":2,"trial":180,"stimulus":5,"robot":3,"valence":"lose","action":"go","sham":0,"trial_type":"pit-trial","trial_index":211,"time_elapsed":925220,"internal_node_id":"0.0-186.0","task_version":"battery-v0.2-trt","session":2},{"rune":"S","rune_set":"elianto","hex":"#3366ff99","correct":-1,"choice":-1,"rt":-1,"accuracy":1,"outcome":"+10","keys":[],"total_keys":0,"block":2,"trial":181,"stimulus":6,"robot":2,"valence":"win","action":"no-go","sham":0,"trial_type":"pit-trial","trial_index":212,"time_elapsed":929243,"internal_node_id":"0.0-187.0","task_version":"battery-v0.2-trt","session":2},{"rune":"W","rune_set":"elianto","hex":"#f73b6a7A","correct":32,"choice":32,"rt":579.3449999764562,"accuracy":1,"outcome":"-1","keys":[2081.309999921359],"total_keys":1,"block":2,"trial":182,"stimulus":5,"robot":3,"valence":"lose","action":"go","sham":0,"trial_type":"pit-trial","trial_index":213,"time_elapsed":932529,"internal_node_id":"0.0-188.0","task_version":"battery-v0.2-trt","session":2},{"rune":"P","rune_set":"elianto","hex":"#3366ff99","correct":-1,"choice":-1,"rt":-1,"accuracy":1,"outcome":"+10","keys":[],"total_keys":0,"block":2,"trial":183,"stimulus":7,"robot":2,"valence":"win","action":"no-go","sham":0,"trial_type":"pit-trial","trial_index":214,"time_elapsed":936534,"internal_node_id":"0.0-189.0","task_version":"battery-v0.2-trt","session":2},{"rune":"E","rune_set":"elianto","hex":"#f73b6a7A","correct":-1,"choice":32,"rt":701.630000025034,"accuracy":0,"outcome":"-10","keys":[2203.1750000314787],"total_keys":1,"block":2,"trial":184,"stimulus":4,"robot":4,"valence":"lose","action":"no-go","sham":0,"trial_type":"pit-trial","trial_index":215,"time_elapsed":939942,"internal_node_id":"0.0-190.0","task_version":"battery-v0.2-trt","session":2},{"rune":"P","rune_set":"elianto","hex":"#3366ff99","correct":-1,"choice":-1,"rt":-1,"accuracy":1,"outcome":"+10","keys":[],"total_keys":0,"block":2,"trial":185,"stimulus":7,"robot":2,"valence":"win","action":"no-go","sham":0,"trial_type":"pit-trial","trial_index":216,"time_elapsed":943947,"internal_node_id":"0.0-191.0","task_version":"battery-v0.2-trt","session":2},{"rune":"E","rune_set":"elianto","hex":"#f73b6a7A","correct":-1,"choice":32,"rt":502.9899999499321,"accuracy":0,"outcome":"-10","keys":[2003.3849999308586],"total_keys":1,"block":2,"trial":186,"stimulus":4,"robot":4,"valence":"lose","action":"no-go","sham":0,"trial_type":"pit-trial","trial_index":217,"time_elapsed":947165,"internal_node_id":"0.0-192.0","task_version":"battery-v0.2-trt","session":2},{"rune":"W","rune_set":"elianto","hex":"#f73b6a7A","correct":32,"choice":32,"rt":693.6350000323728,"accuracy":1,"outcome":"-1","keys":[2194.5999999297783],"total_keys":1,"block":2,"trial":187,"stimulus":5,"robot":3,"valence":"lose","action":"go","sham":0,"trial_type":"pit-trial","trial_index":218,"time_elapsed":950564,"internal_node_id":"0.0-193.0","task_version":"battery-v0.2-trt","session":2},{"rune":"S","rune_set":"elianto","hex":"#3366ff99","correct":-1,"choice":-1,"rt":-1,"accuracy":1,"outcome":"+10","keys":[],"total_keys":0,"block":2,"trial":188,"stimulus":6,"robot":2,"valence":"win","action":"no-go","sham":0,"trial_type":"pit-trial","trial_index":219,"time_elapsed":954569,"internal_node_id":"0.0-194.0","task_version":"battery-v0.2-trt","session":2},{"rune":"W","rune_set":"elianto","hex":"#f73b6a7A","correct":32,"choice":32,"rt":476.120000006631,"accuracy":1,"outcome":"-1","keys":[1976.8049999838695],"total_keys":1,"block":2,"trial":189,"stimulus":5,"robot":3,"valence":"lose","action":"go","sham":0,"trial_type":"pit-trial","trial_index":220,"time_elapsed":957749,"internal_node_id":"0.0-195.0","task_version":"battery-v0.2-trt","session":2},{"rune":"E","rune_set":"elianto","hex":"#f73b6a7A","correct":-1,"choice":-1,"rt":-1,"accuracy":1,"outcome":"-10","keys":[],"total_keys":0,"block":2,"trial":190,"stimulus":4,"robot":4,"valence":"lose","action":"no-go","sham":1,"trial_type":"pit-trial","trial_index":221,"time_elapsed":961755,"internal_node_id":"0.0-196.0","task_version":"battery-v0.2-trt","session":2},{"rune":"P","rune_set":"elianto","hex":"#3366ff99","correct":-1,"choice":32,"rt":629.6299999812618,"accuracy":0,"outcome":"+1","keys":[2131.2250000191852],"total_keys":1,"block":2,"trial":191,"stimulus":7,"robot":2,"valence":"win","action":"no-go","sham":0,"trial_type":"pit-trial","trial_index":222,"time_elapsed":965090,"internal_node_id":"0.0-197.0","task_version":"battery-v0.2-trt","session":2},{"rune":"S","rune_set":"elianto","hex":"#3366ff99","correct":-1,"choice":-1,"rt":-1,"accuracy":1,"outcome":"+10","keys":[],"total_keys":0,"block":2,"trial":192,"stimulus":6,"robot":2,"valence":"win","action":"no-go","sham":0,"trial_type":"pit-trial","trial_index":223,"time_elapsed":969093,"internal_node_id":"0.0-198.0","task_version":"battery-v0.2-trt","session":2},{"rune":"E","rune_set":"elianto","hex":"#f73b6a7A","correct":-1,"choice":-1,"rt":-1,"accuracy":1,"outcome":"-1","keys":[],"total_keys":0,"block":2,"trial":193,"stimulus":4,"robot":4,"valence":"lose","action":"no-go","sham":0,"trial_type":"pit-trial","trial_index":224,"time_elapsed":973096,"internal_node_id":"0.0-199.0","task_version":"battery-v0.2-trt","session":2},{"rune":"S","rune_set":"elianto","hex":"#3366ff99","correct":-1,"choice":32,"rt":888.8399999123067,"accuracy":0,"outcome":"+1","keys":[2389.314999920316],"total_keys":1,"block":2,"trial":194,"stimulus":6,"robot":2,"valence":"win","action":"no-go","sham":0,"trial_type":"pit-trial","trial_index":225,"time_elapsed":976687,"internal_node_id":"0.0-200.0","task_version":"battery-v0.2-trt","session":2},{"rune":"W","rune_set":"elianto","hex":"#f73b6a7A","correct":32,"choice":32,"rt":638.8649999862537,"accuracy":1,"outcome":"-1","keys":[2139.6650000242516],"total_keys":1,"block":2,"trial":195,"stimulus":5,"robot":3,"valence":"lose","action":"go","sham":0,"trial_type":"pit-trial","trial_index":226,"time_elapsed":980032,"internal_node_id":"0.0-201.0","task_version":"battery-v0.2-trt","session":2},{"rune":"P","rune_set":"elianto","hex":"#3366ff99","correct":-1,"choice":-1,"rt":-1,"accuracy":1,"outcome":"+10","keys":[],"total_keys":0,"block":2,"trial":196,"stimulus":7,"robot":2,"valence":"win","action":"no-go","sham":0,"trial_type":"pit-trial","trial_index":227,"time_elapsed":984034,"internal_node_id":"0.0-202.0","task_version":"battery-v0.2-trt","session":2},{"rune":"W","rune_set":"elianto","hex":"#f73b6a7A","correct":32,"choice":32,"rt":706.6150000318885,"accuracy":1,"outcome":"-1","keys":[2207.4199999915436],"total_keys":1,"block":2,"trial":197,"stimulus":5,"robot":3,"valence":"lose","action":"go","sham":0,"trial_type":"pit-trial","trial_index":228,"time_elapsed":987444,"internal_node_id":"0.0-203.0","task_version":"battery-v0.2-trt","session":2},{"rune":"E","rune_set":"elianto","hex":"#f73b6a7A","correct":-1,"choice":-1,"rt":-1,"accuracy":1,"outcome":"-1","keys":[],"total_keys":0,"block":2,"trial":198,"stimulus":4,"robot":4,"valence":"lose","action":"no-go","sham":0,"trial_type":"pit-trial","trial_index":229,"time_elapsed":991450,"internal_node_id":"0.0-204.0","task_version":"battery-v0.2-trt","session":2},{"rune":"P","rune_set":"elianto","hex":"#3366ff99","correct":-1,"choice":-1,"rt":-1,"accuracy":1,"outcome":"+10","keys":[],"total_keys":0,"block":2,"trial":199,"stimulus":7,"robot":2,"valence":"win","action":"no-go","sham":0,"trial_type":"pit-trial","trial_index":230,"time_elapsed":995454,"internal_node_id":"0.0-205.0","task_version":"battery-v0.2-trt","session":2},{"rune":"S","rune_set":"elianto","hex":"#3366ff99","correct":-1,"choice":-1,"rt":-1,"accuracy":1,"outcome":"+10","keys":[],"total_keys":0,"block":2,"trial":200,"stimulus":6,"robot":2,"valence":"win","action":"no-go","sham":0,"trial_type":"pit-trial","trial_index":231,"time_elapsed":999457,"internal_node_id":"0.0-206.0","task_version":"battery-v0.2-trt","session":2},{"rune":"W","rune_set":"elianto","hex":"#f73b6a7A","correct":32,"choice":32,"rt":547.2399999853224,"accuracy":1,"outcome":"-1","keys":[2047.6449999259785],"total_keys":1,"block":2,"trial":201,"stimulus":5,"robot":3,"valence":"lose","action":"go","sham":0,"trial_type":"pit-trial","trial_index":232,"time_elapsed":1002708,"internal_node_id":"0.0-207.0","task_version":"battery-v0.2-trt","session":2},{"rune":"A","rune_set":"elianto","hex":"#f73b6a7A","correct":-1,"choice":32,"rt":825.1049999380484,"accuracy":0,"outcome":"-10","keys":[2325.1600000075996],"total_keys":1,"block":2,"trial":202,"stimulus":9,"robot":4,"valence":"lose","action":"no-go","sham":0,"trial_type":"pit-trial","trial_index":233,"time_elapsed":1006238,"internal_node_id":"0.0-208.0","task_version":"battery-v0.2-trt","session":2},{"rune":"G","rune_set":"elianto","hex":"#3366ff99","correct":32,"choice":-1,"rt":-1,"accuracy":0,"outcome":"+1","keys":[],"total_keys":0,"block":2,"trial":203,"stimulus":8,"robot":1,"valence":"win","action":"go","sham":0,"trial_type":"pit-trial","trial_index":234,"time_elapsed":1010243,"internal_node_id":"0.0-209.0","task_version":"battery-v0.2-trt","session":2},{"rune":"P","rune_set":"elianto","hex":"#3366ff99","correct":-1,"choice":-1,"rt":-1,"accuracy":1,"outcome":"+10","keys":[],"total_keys":0,"block":2,"trial":204,"stimulus":7,"robot":2,"valence":"win","action":"no-go","sham":0,"trial_type":"pit-trial","trial_index":235,"time_elapsed":1014250,"internal_node_id":"0.0-210.0","task_version":"battery-v0.2-trt","session":2},{"rune":"G","rune_set":"elianto","hex":"#3366ff99","correct":32,"choice":32,"rt":776.4599999645725,"accuracy":1,"outcome":"+10","keys":[2277.3550000274554],"total_keys":1,"block":2,"trial":205,"stimulus":8,"robot":1,"valence":"win","action":"go","sham":0,"trial_type":"pit-trial","trial_index":236,"time_elapsed":1017731,"internal_node_id":"0.0-211.0","task_version":"battery-v0.2-trt","session":2},{"rune":"W","rune_set":"elianto","hex":"#f73b6a7A","correct":32,"choice":32,"rt":639.2449999693781,"accuracy":1,"outcome":"-1","keys":[2139.6200000308454],"total_keys":1,"block":2,"trial":206,"stimulus":5,"robot":3,"valence":"lose","action":"go","sham":0,"trial_type":"pit-trial","trial_index":237,"time_elapsed":1021074,"internal_node_id":"0.0-212.0","task_version":"battery-v0.2-trt","session":2},{"rune":"A","rune_set":"elianto","hex":"#f73b6a7A","correct":-1,"choice":-1,"rt":-1,"accuracy":1,"outcome":"-1","keys":[],"total_keys":0,"block":2,"trial":207,"stimulus":9,"robot":4,"valence":"lose","action":"no-go","sham":0,"trial_type":"pit-trial","trial_index":238,"time_elapsed":1025079,"internal_node_id":"0.0-213.0","task_version":"battery-v0.2-trt","session":2},{"rune":"P","rune_set":"elianto","hex":"#3366ff99","correct":-1,"choice":-1,"rt":-1,"accuracy":1,"outcome":"+10","keys":[],"total_keys":0,"block":2,"trial":208,"stimulus":7,"robot":2,"valence":"win","action":"no-go","sham":0,"trial_type":"pit-trial","trial_index":239,"time_elapsed":1029084,"internal_node_id":"0.0-214.0","task_version":"battery-v0.2-trt","session":2},{"rune":"G","rune_set":"elianto","hex":"#3366ff99","correct":32,"choice":32,"rt":782.4199999449775,"accuracy":1,"outcome":"+10","keys":[2283.919999958016],"total_keys":1,"block":2,"trial":209,"stimulus":8,"robot":1,"valence":"win","action":"go","sham":0,"trial_type":"pit-trial","trial_index":240,"time_elapsed":1032573,"internal_node_id":"0.0-215.0","task_version":"battery-v0.2-trt","session":2},{"rune":"L","rune_set":"elianto","hex":"#f73b6a7A","correct":32,"choice":-1,"rt":-1,"accuracy":0,"outcome":"-10","keys":[],"total_keys":0,"block":2,"trial":210,"stimulus":10,"robot":3,"valence":"lose","action":"go","sham":0,"trial_type":"pit-trial","trial_index":241,"time_elapsed":1036578,"internal_node_id":"0.0-216.0","task_version":"battery-v0.2-trt","session":2},{"rune":"U","rune_set":"elianto","hex":"#3366ff99","correct":32,"choice":32,"rt":731.9600000046194,"accuracy":1,"outcome":"+10","keys":[2233.074999996461],"total_keys":1,"block":2,"trial":211,"stimulus":11,"robot":1,"valence":"win","action":"go","sham":0,"trial_type":"pit-trial","trial_index":242,"time_elapsed":1040014,"internal_node_id":"0.0-217.0","task_version":"battery-v0.2-trt","session":2},{"rune":"A","rune_set":"elianto","hex":"#f73b6a7A","correct":-1,"choice":-1,"rt":-1,"accuracy":1,"outcome":"-1","keys":[],"total_keys":0,"block":2,"trial":212,"stimulus":9,"robot":4,"valence":"lose","action":"no-go","sham":0,"trial_type":"pit-trial","trial_index":243,"time_elapsed":1044021,"internal_node_id":"0.0-218.0","task_version":"battery-v0.2-trt","session":2},{"rune":"G","rune_set":"elianto","hex":"#3366ff99","correct":32,"choice":32,"rt":543.1050000479445,"accuracy":1,"outcome":"+10","keys":[2043.1500000413507],"total_keys":1,"block":2,"trial":213,"stimulus":8,"robot":1,"valence":"win","action":"go","sham":0,"trial_type":"pit-trial","trial_index":244,"time_elapsed":1047268,"internal_node_id":"0.0-219.0","task_version":"battery-v0.2-trt","session":2},{"rune":"L","rune_set":"elianto","hex":"#f73b6a7A","correct":32,"choice":32,"rt":525.5850000539795,"accuracy":1,"outcome":"-1","keys":[2026.1800000444055],"total_keys":1,"block":2,"trial":214,"stimulus":10,"robot":3,"valence":"lose","action":"go","sham":0,"trial_type":"pit-trial","trial_index":245,"time_elapsed":1050499,"internal_node_id":"0.0-220.0","task_version":"battery-v0.2-trt","session":2},{"rune":"U","rune_set":"elianto","hex":"#3366ff99","correct":32,"choice":32,"rt":418.94000000320375,"accuracy":1,"outcome":"+10","keys":[1919.6249999804422],"total_keys":1,"block":2,"trial":215,"stimulus":11,"robot":1,"valence":"win","action":"go","sham":0,"trial_type":"pit-trial","trial_index":246,"time_elapsed":1053621,"internal_node_id":"0.0-221.0","task_version":"battery-v0.2-trt","session":2},{"rune":"A","rune_set":"elianto","hex":"#f73b6a7A","correct":-1,"choice":-1,"rt":-1,"accuracy":1,"outcome":"-1","keys":[],"total_keys":0,"block":2,"trial":216,"stimulus":9,"robot":4,"valence":"lose","action":"no-go","sham":0,"trial_type":"pit-trial","trial_index":247,"time_elapsed":1057624,"internal_node_id":"0.0-222.0","task_version":"battery-v0.2-trt","session":2},{"rune":"A","rune_set":"elianto","hex":"#f73b6a7A","correct":-1,"choice":-1,"rt":-1,"accuracy":1,"outcome":"-1","keys":[],"total_keys":0,"block":2,"trial":217,"stimulus":9,"robot":4,"valence":"lose","action":"no-go","sham":0,"trial_type":"pit-trial","trial_index":248,"time_elapsed":1061628,"internal_node_id":"0.0-223.0","task_version":"battery-v0.2-trt","session":2},{"rune":"U","rune_set":"elianto","hex":"#3366ff99","correct":32,"choice":32,"rt":392.9700000444427,"accuracy":1,"outcome":"+10","keys":[1893.500000005588],"total_keys":1,"block":2,"trial":218,"stimulus":11,"robot":1,"valence":"win","action":"go","sham":0,"trial_type":"pit-trial","trial_index":249,"time_elapsed":1064724,"internal_node_id":"0.0-224.0","task_version":"battery-v0.2-trt","session":2},{"rune":"G","rune_set":"elianto","hex":"#3366ff99","correct":32,"choice":32,"rt":369.85499993897974,"accuracy":1,"outcome":"+1","keys":[1870.0950000202283],"total_keys":1,"block":2,"trial":219,"stimulus":8,"robot":1,"valence":"win","action":"go","sham":1,"trial_type":"pit-trial","trial_index":250,"time_elapsed":1067796,"internal_node_id":"0.0-225.0","task_version":"battery-v0.2-trt","session":2},{"rune":"L","rune_set":"elianto","hex":"#f73b6a7A","correct":32,"choice":32,"rt":414.44500000216067,"accuracy":1,"outcome":"-10","keys":[1916.1249999888241],"total_keys":1,"block":2,"trial":220,"stimulus":10,"robot":3,"valence":"lose","action":"go","sham":1,"trial_type":"pit-trial","trial_index":251,"time_elapsed":1070915,"internal_node_id":"0.0-226.0","task_version":"battery-v0.2-trt","session":2},{"rune":"A","rune_set":"elianto","hex":"#f73b6a7A","correct":-1,"choice":-1,"rt":-1,"accuracy":1,"outcome":"-1","keys":[],"total_keys":0,"block":2,"trial":221,"stimulus":9,"robot":4,"valence":"lose","action":"no-go","sham":0,"trial_type":"pit-trial","trial_index":252,"time_elapsed":1074919,"internal_node_id":"0.0-227.0","task_version":"battery-v0.2-trt","session":2},{"rune":"G","rune_set":"elianto","hex":"#3366ff99","correct":32,"choice":32,"rt":619.8800000129268,"accuracy":1,"outcome":"+10","keys":[2120.03500002902],"total_keys":1,"block":2,"trial":222,"stimulus":8,"robot":1,"valence":"win","action":"go","sham":0,"trial_type":"pit-trial","trial_index":253,"time_elapsed":1078245,"internal_node_id":"0.0-228.0","task_version":"battery-v0.2-trt","session":2},{"rune":"U","rune_set":"elianto","hex":"#3366ff99","correct":32,"choice":-1,"rt":-1,"accuracy":0,"outcome":"+1","keys":[],"total_keys":0,"block":2,"trial":223,"stimulus":11,"robot":1,"valence":"win","action":"go","sham":0,"trial_type":"pit-trial","trial_index":254,"time_elapsed":1082252,"internal_node_id":"0.0-229.0","task_version":"battery-v0.2-trt","session":2},{"rune":"L","rune_set":"elianto","hex":"#f73b6a7A","correct":32,"choice":32,"rt":637.73499999661,"accuracy":1,"outcome":"-10","keys":[2138.440000009723],"total_keys":1,"block":2,"trial":224,"stimulus":10,"robot":3,"valence":"lose","action":"go","sham":1,"trial_type":"pit-trial","trial_index":255,"time_elapsed":1085595,"internal_node_id":"0.0-230.0","task_version":"battery-v0.2-trt","session":2},{"rune":"A","rune_set":"elianto","hex":"#f73b6a7A","correct":-1,"choice":-1,"rt":-1,"accuracy":1,"outcome":"-1","keys":[],"total_keys":0,"block":2,"trial":225,"stimulus":9,"robot":4,"valence":"lose","action":"no-go","sham":0,"trial_type":"pit-trial","trial_index":256,"time_elapsed":1089611,"internal_node_id":"0.0-231.0","task_version":"battery-v0.2-trt","session":2},{"rune":"U","rune_set":"elianto","hex":"#3366ff99","correct":32,"choice":32,"rt":844.260000041686,"accuracy":1,"outcome":"+10","keys":[2345.2650000108406],"total_keys":1,"block":2,"trial":226,"stimulus":11,"robot":1,"valence":"win","action":"go","sham":0,"trial_type":"pit-trial","trial_index":257,"time_elapsed":1093160,"internal_node_id":"0.0-232.0","task_version":"battery-v0.2-trt","session":2},{"rune":"G","rune_set":"elianto","hex":"#3366ff99","correct":32,"choice":32,"rt":725.0300000887364,"accuracy":1,"outcome":"+10","keys":[2225.664999918081],"total_keys":1,"block":2,"trial":227,"stimulus":8,"robot":1,"valence":"win","action":"go","sham":0,"trial_type":"pit-trial","trial_index":258,"time_elapsed":1096601,"internal_node_id":"0.0-233.0","task_version":"battery-v0.2-trt","session":2},{"rune":"L","rune_set":"elianto","hex":"#f73b6a7A","correct":32,"choice":-1,"rt":-1,"accuracy":0,"outcome":"-10","keys":[],"total_keys":0,"block":2,"trial":228,"stimulus":10,"robot":3,"valence":"lose","action":"go","sham":0,"trial_type":"pit-trial","trial_index":259,"time_elapsed":1100606,"internal_node_id":"0.0-234.0","task_version":"battery-v0.2-trt","session":2},{"rune":"G","rune_set":"elianto","hex":"#3366ff99","correct":32,"choice":-1,"rt":-1,"accuracy":0,"outcome":"+1","keys":[],"total_keys":0,"block":2,"trial":229,"stimulus":8,"robot":1,"valence":"win","action":"go","sham":0,"trial_type":"pit-trial","trial_index":260,"time_elapsed":1104612,"internal_node_id":"0.0-235.0","task_version":"battery-v0.2-trt","session":2},{"rune":"L","rune_set":"elianto","hex":"#f73b6a7A","correct":32,"choice":32,"rt":735.2449999889359,"accuracy":1,"outcome":"-1","keys":[2235.9299999661744],"total_keys":1,"block":2,"trial":230,"stimulus":10,"robot":3,"valence":"lose","action":"go","sham":0,"trial_type":"pit-trial","trial_index":261,"time_elapsed":1108052,"internal_node_id":"0.0-236.0","task_version":"battery-v0.2-trt","session":2},{"rune":"A","rune_set":"elianto","hex":"#f73b6a7A","correct":-1,"choice":-1,"rt":-1,"accuracy":1,"outcome":"-1","keys":[],"total_keys":0,"block":2,"trial":231,"stimulus":9,"robot":4,"valence":"lose","action":"no-go","sham":0,"trial_type":"pit-trial","trial_index":262,"time_elapsed":1112056,"internal_node_id":"0.0-237.0","task_version":"battery-v0.2-trt","session":2},{"rune":"U","rune_set":"elianto","hex":"#3366ff99","correct":32,"choice":32,"rt":622.9799999855459,"accuracy":1,"outcome":"+10","keys":[2123.920000041835],"total_keys":1,"block":2,"trial":232,"stimulus":11,"robot":1,"valence":"