[{"view_history":"[{\"page_index\":0,\"viewing_time\":3162.3100000433624}]","rt":3163.055000011809,"trial_type":"instructions","trial_index":0,"time_elapsed":3176,"internal_node_id":"0.0-0.0","task_version":"battery-v0.2-trt","session":2},{"slider_type":"valence","raw_loc":654,"loc":0.808,"trial_type":"affective-slider","trial_index":1,"time_elapsed":7096,"internal_node_id":"0.0-1.0","task_version":"battery-v0.2-trt","session":2},{"responses":{"Q06":"0","Q01":"0","Q05":"0","Q03":"0","Q04":"0","Q02":"0","Q07":"0","Q08":"3"},"rt":22887.465000036173,"item_order":[5,0,4,2,3,1,6,7],"radio_events":[10590.194999997038,11574.320000014268,12669.745000021067,13985.370000009425,14849.135000025854,15853.79500000272,19620.78500003554,21127.470000006724],"key_events":[],"mouse_events":[9585.239999985788,10590.194999997038,11574.320000014268,12669.745000021067,13985.370000009425,14849.135000025854,15853.79500000272,16708.11499998672,19620.78500003554,21127.470000006724,22885.56000002427],"straightlining":0.875,"zigzagging":0.14285714285714285,"survey":"dass_d","trial_type":"survey-template","trial_index":2,"time_elapsed":30003,"internal_node_id":"0.0-2.0","task_version":"battery-v0.2-trt","session":2,"infrequency":0},{"responses":{"Q02":"0","Q03":"1","Q05":"1","Q07":"0","Q01":"0","Q08":"0","Q04":"0","Q06":"0"},"rt":16972.859999979846,"item_order":[1,2,4,6,0,7,3,5],"radio_events":[3811.7349999956787,4947.014999983367,7930.200000002515,11275.604999973439,12270.129999960773,13505.7149999775,14439.939999952912,15504.474999965169],"key_events":[],"mouse_events":[3811.7349999956787,4947.014999983367,7930.200000002515,9176.999999966938,10321.469999966212,11275.604999973439,12270.129999960773,13505.7149999775,14439.939999952912,15504.474999965169,16971.409999998286],"straightlining":0.75,"zigzagging":0.2857142857142857,"survey":"gad7","trial_type":"survey-template","trial_index":3,"time_elapsed":46979,"internal_node_id":"0.0-3.0","task_version":"battery-v0.2-trt","session":2,"infrequency":0},{"view_history":"[{\"page_index\":0,\"viewing_time\":22031.430000031833},{\"page_index\":1,\"viewing_time\":4389.619999972638},{\"page_index\":2,\"viewing_time\":50786.93000000203},{\"page_index\":3,\"viewing_time\":6815.854999993462},{\"page_index\":4,\"viewing_time\":191.2000000011176},{\"page_index\":5,\"viewing_time\":2892.6700000301935},{\"page_index\":6,\"viewing_time\":2339.9699999717996},{\"page_index\":7,\"viewing_time\":4429.320000053849},{\"page_index\":8,\"viewing_time\":3173.789999971632},{\"page_index\":9,\"viewing_time\":4218.110000016168}]","rt":101269.57000000402,"trial_type":"pit-instructions","trial_index":4,"time_elapsed":148246,"internal_node_id":"0.0-4.0-0.0","task_version":"battery-v0.2-trt","session":2},{"rune":"1","rune_set":"elianto","hex":"#3366ff99","correct":32,"choice":32,"rt":275.7750000455417,"accuracy":1,"outcome":"+10","keys":[1781.3049999531358],"total_keys":1,"block":0,"practice":1,"trial_type":"pit-trial","trial_index":5,"time_elapsed":151233,"internal_node_id":"0.0-4.0-1.0-0.0","task_version":"battery-v0.2-trt","session":2},{"rune":"1","rune_set":"elianto","hex":"#3366ff99","correct":32,"choice":32,"rt":296.13499995321035,"accuracy":1,"outcome":"+10","keys":[1797.3000000347383],"total_keys":1,"block":0,"practice":1,"trial_type":"pit-trial","trial_index":6,"time_elapsed":154241,"internal_node_id":"0.0-4.0-1.1-0.1","task_version":"battery-v0.2-trt","session":2},{"rune":"1","rune_set":"elianto","hex":"#3366ff99","correct":32,"choice":32,"rt":201.9999999902211,"accuracy":1,"outcome":"+10","keys":[1706.7849999875762],"total_keys":1,"block":0,"practice":1,"trial_type":"pit-trial","trial_index":7,"time_elapsed":157155,"internal_node_id":"0.0-4.0-1.2-0.2","task_version":"battery-v0.2-trt","session":2},{"rune":"1","rune_set":"elianto","hex":"#3366ff99","correct":32,"choice":32,"rt":259.5199999632314,"accuracy":1,"outcome":"+10","keys":[1765.0099999736995],"total_keys":1,"block":0,"practice":1,"trial_type":"pit-trial","trial_index":8,"time_elapsed":160135,"internal_node_id":"0.0-4.0-1.3-0.3","task_version":"battery-v0.2-trt","session":2},{"trial_type":"call-function","trial_index":9,"time_elapsed":160138,"internal_node_id":"0.0-4.0-2.0","task_version":"battery-v0.2-trt","session":2},{"view_history":"[{\"page_index\":0,\"viewing_time\":2456.9400000036694},{\"page_index\":1,\"viewing_time\":1205.690000031609}]","rt":3663.135000038892,"trial_type":"pit-instructions","trial_index":10,"time_elapsed":163803,"internal_node_id":"0.0-4.0-3.0","task_version":"battery-v0.2-trt","session":2},{"rune":"2","rune_set":"elianto","hex":"#3366ff99","correct":-1,"choice":-1,"rt":-1,"accuracy":1,"outcome":"+10","keys":[],"total_keys":0,"block":0,"practice":2,"trial_type":"pit-trial","trial_index":11,"time_elapsed":167811,"internal_node_id":"0.0-4.0-4.0-0.0","task_version":"battery-v0.2-trt","session":2},{"rune":"2","rune_set":"elianto","hex":"#3366ff99","correct":-1,"choice":-1,"rt":-1,"accuracy":1,"outcome":"+10","keys":[],"total_keys":0,"block":0,"practice":2,"trial_type":"pit-trial","trial_index":12,"time_elapsed":171828,"internal_node_id":"0.0-4.0-4.1-0.1","task_version":"battery-v0.2-trt","session":2},{"rune":"2","rune_set":"elianto","hex":"#3366ff99","correct":-1,"choice":-1,"rt":-1,"accuracy":1,"outcome":"+10","keys":[],"total_keys":0,"block":0,"practice":2,"trial_type":"pit-trial","trial_index":13,"time_elapsed":175840,"internal_node_id":"0.0-4.0-4.2-0.2","task_version":"battery-v0.2-trt","session":2},{"rune":"2","rune_set":"elianto","hex":"#3366ff99","correct":-1,"choice":-1,"rt":-1,"accuracy":1,"outcome":"+10","keys":[],"total_keys":0,"block":0,"practice":2,"trial_type":"pit-trial","trial_index":14,"time_elapsed":179856,"internal_node_id":"0.0-4.0-4.3-0.3","task_version":"battery-v0.2-trt","session":2},{"trial_type":"call-function","trial_index":15,"time_elapsed":179859,"internal_node_id":"0.0-4.0-5.0","task_version":"battery-v0.2-trt","session":2},{"view_history":"[{\"page_index\":0,\"viewing_time\":2417.4300000304356},{\"page_index\":1,\"viewing_time\":1849.2149999947287}]","rt":4267.150000028778,"trial_type":"pit-instructions","trial_index":16,"time_elapsed":184127,"internal_node_id":"0.0-4.0-6.0","task_version":"battery-v0.2-trt","session":2},{"rune":"3","rune_set":"elianto","hex":"#f73b6a7A","correct":-1,"choice":-1,"rt":-1,"accuracy":1,"outcome":"-1","keys":[],"total_keys":0,"block":0,"practice":3,"trial_type":"pit-trial","trial_index":17,"time_elapsed":188136,"internal_node_id":"0.0-4.0-7.0-0.0","task_version":"battery-v0.2-trt","session":2},{"rune":"3","rune_set":"elianto","hex":"#f73b6a7A","correct":-1,"choice":-1,"rt":-1,"accuracy":1,"outcome":"-1","keys":[],"total_keys":0,"block":0,"practice":3,"trial_type":"pit-trial","trial_index":18,"time_elapsed":192154,"internal_node_id":"0.0-4.0-7.1-0.1","task_version":"battery-v0.2-trt","session":2},{"rune":"3","rune_set":"elianto","hex":"#f73b6a7A","correct":-1,"choice":-1,"rt":-1,"accuracy":1,"outcome":"-1","keys":[],"total_keys":0,"block":0,"practice":3,"trial_type":"pit-trial","trial_index":19,"time_elapsed":196171,"internal_node_id":"0.0-4.0-7.2-0.2","task_version":"battery-v0.2-trt","session":2},{"rune":"3","rune_set":"elianto","hex":"#f73b6a7A","correct":-1,"choice":-1,"rt":-1,"accuracy":1,"outcome":"-1","keys":[],"total_keys":0,"block":0,"practice":3,"trial_type":"pit-trial","trial_index":20,"time_elapsed":200184,"internal_node_id":"0.0-4.0-7.3-0.3","task_version":"battery-v0.2-trt","session":2},{"trial_type":"call-function","trial_index":21,"time_elapsed":200186,"internal_node_id":"0.0-4.0-8.0","task_version":"battery-v0.2-trt","session":2},{"view_history":"[{\"page_index\":0,\"viewing_time\":2454.94000002509},{\"page_index\":1,\"viewing_time\":854.5400000293739}]","rt":3310.0150000536814,"trial_type":"pit-instructions","trial_index":22,"time_elapsed":203497,"internal_node_id":"0.0-4.0-9.0","task_version":"battery-v0.2-trt","session":2},{"rune":"4","rune_set":"elianto","hex":"#f73b6a7A","correct":32,"choice":32,"rt":234.7099999897182,"accuracy":1,"outcome":"-1","keys":[1735.3299999958836],"total_keys":1,"block":0,"practice":4,"trial_type":"pit-trial","trial_index":23,"time_elapsed":206441,"internal_node_id":"0.0-4.0-10.0-0.0","task_version":"battery-v0.2-trt","session":2},{"rune":"4","rune_set":"elianto","hex":"#f73b6a7A","correct":32,"choice":32,"rt":205.7099999510683,"accuracy":1,"outcome":"-1","keys":[1707.8500000061467],"total_keys":1,"block":0,"practice":4,"trial_type":"pit-trial","trial_index":24,"time_elapsed":209850,"internal_node_id":"0.0-4.0-10.1-0.1","task_version":"battery-v0.2-trt","session":2},{"rune":"4","rune_set":"elianto","hex":"#f73b6a7A","correct":32,"choice":32,"rt":674.76500000339,"accuracy":1,"outcome":"-1","keys":[2176.83999997098],"total_keys":1,"block":0,"practice":4,"trial_type":"pit-trial","trial_index":25,"time_elapsed":213238,"internal_node_id":"0.0-4.0-10.2-0.2","task_version":"battery-v0.2-trt","session":2},{"rune":"4","rune_set":"elianto","hex":"#f73b6a7A","correct":32,"choice":32,"rt":447.3850000067614,"accuracy":1,"outcome":"-1","keys":[1947.9149999679066],"total_keys":1,"block":0,"practice":4,"trial_type":"pit-trial","trial_index":26,"time_elapsed":216393,"internal_node_id":"0.0-4.0-10.3-0.3","task_version":"battery-v0.2-trt","session":2},{"trial_type":"call-function","trial_index":27,"time_elapsed":216395,"internal_node_id":"0.0-4.0-11.0","task_version":"battery-v0.2-trt","session":2},{"view_history":"[{\"page_index\":0,\"viewing_time\":4535.874999943189},{\"page_index\":1,\"viewing_time\":18785.115000035148},{\"page_index\":2,\"viewing_time\":14993.97000001045},{\"page_index\":3,\"viewing_time\":1687.5249999575317},{\"page_index\":4,\"viewing_time\":2450.890000036452},{\"page_index\":5,\"viewing_time\":1365.4499999829568}]","rt":43819.37499996275,"trial_type":"pit-instructions","trial_index":28,"time_elapsed":260216,"internal_node_id":"0.0-4.0-12.0","task_version":"battery-v0.2-trt","session":2},{"responses":["Press SPACE","+10","-1","True","True"],"num_errors":0,"rt":317720.8549999632,"trial_type":"pit-comprehension","trial_index":29,"time_elapsed":577942,"internal_node_id":"0.0-4.0-13.0","task_version":"battery-v0.2-trt","session":2},{"view_history":"[{\"page_index\":0,\"viewing_time\":1712.2399999643676},{\"page_index\":1,\"viewing_time\":4379.755000001751}]","rt":6092.514999967534,"trial_type":"pit-instructions","trial_index":30,"time_elapsed":584038,"internal_node_id":"0.0-5.0","task_version":"battery-v0.2-trt","session":2},{"rune":"K","rune_set":"elianto","hex":"#3366ff99","correct":32,"choice":32,"rt":421.7599999974482,"accuracy":1,"outcome":"+1","keys":[1927.4449999793433],"total_keys":1,"block":1,"trial":1,"stimulus":3,"robot":1,"valence":"win","action":"go","sham":1,"trial_type":"pit-trial","trial_index":31,"time_elapsed":587177,"internal_node_id":"0.0-6.0","task_version":"battery-v0.2-trt","session":2},{"rune":"D","rune_set":"elianto","hex":"#f73b6a7A","correct":32,"choice":-1,"rt":-1,"accuracy":0,"outcome":"-10","keys":[],"total_keys":0,"block":1,"trial":2,"stimulus":2,"robot":3,"valence":"lose","action":"go","sham":0,"trial_type":"pit-trial","trial_index":32,"time_elapsed":591195,"internal_node_id":"0.0-7.0","task_version":"battery-v0.2-trt","session":2},{"rune":"J","rune_set":"elianto","hex":"#f73b6a7A","correct":32,"choice":32,"rt":430.945000029169,"accuracy":1,"outcome":"-1","keys":[1931.2400000053458],"total_keys":1,"block":1,"trial":3,"stimulus":1,"robot":3,"valence":"lose","action":"go","sham":0,"trial_type":"pit-trial","trial_index":33,"time_elapsed":594332,"internal_node_id":"0.0-8.0","task_version":"battery-v0.2-trt","session":2},{"rune":"V","rune_set":"elianto","hex":"#f73b6a7A","correct":-1,"choice":32,"rt":987.3099999967963,"accuracy":0,"outcome":"-1","keys":[2490.159999986645],"total_keys":1,"block":1,"trial":4,"stimulus":0,"robot":4,"valence":"lose","action":"no-go","sham":1,"trial_type":"pit-trial","trial_index":34,"time_elapsed":598027,"internal_node_id":"0.0-9.0","task_version":"battery-v0.2-trt","session":2},{"rune":"J","rune_set":"elianto","hex":"#f73b6a7A","correct":32,"choice":-1,"rt":-1,"accuracy":0,"outcome":"-10","keys":[3219.0449999761768],"total_keys":1,"block":1,"trial":5,"stimulus":1,"robot":3,"valence":"lose","action":"go","sham":0,"trial_type":"pit-trial","trial_index":35,"time_elapsed":602041,"internal_node_id":"0.0-10.0","task_version":"battery-v0.2-trt","session":2},{"rune":"D","rune_set":"elianto","hex":"#f73b6a7A","correct":32,"choice":32,"rt":483.34999999497086,"accuracy":1,"outcome":"-10","keys":[1986.4050000323914],"total_keys":1,"block":1,"trial":6,"stimulus":2,"robot":3,"valence":"lose","action":"go","sham":1,"trial_type":"pit-trial","trial_index":36,"time_elapsed":605232,"internal_node_id":"0.0-11.0","task_version":"battery-v0.2-trt","session":2},{"rune":"V","rune_set":"elianto","hex":"#f73b6a7A","correct":-1,"choice":32,"rt":578.8499999907799,"accuracy":0,"outcome":"-1","keys":[2080.2399999811314],"total_keys":1,"block":1,"trial":7,"stimulus":0,"robot":4,"valence":"lose","action":"no-go","sham":1,"trial_type":"pit-trial","trial_index":37,"time_elapsed":608526,"internal_node_id":"0.0-12.0","task_version":"battery-v0.2-trt","session":2},{"rune":"K","rune_set":"elianto","hex":"#3366ff99","correct":32,"choice":-1,"rt":-1,"accuracy":0,"outcome":"+1","keys":[3276.3300000224262],"total_keys":1,"block":1,"trial":8,"stimulus":3,"robot":1,"valence":"win","action":"go","sham":0,"trial_type":"pit-trial","trial_index":38,"time_elapsed":612536,"internal_node_id":"0.0-13.0","task_version":"battery-v0.2-trt","session":2},{"rune":"J","rune_set":"elianto","hex":"#f73b6a7A","correct":32,"choice":32,"rt":1110.065000015311,"accuracy":1,"outcome":"-10","keys":[2611.0849999822676],"total_keys":1,"block":1,"trial":9,"stimulus":1,"robot":3,"valence":"lose","action":"go","sham":1,"trial_type":"pit-trial","trial_index":39,"time_elapsed":616355,"internal_node_id":"0.0-14.0","task_version":"battery-v0.2-trt","session":2},{"rune":"V","rune_set":"elianto","hex":"#f73b6a7A","correct":-1,"choice":32,"rt":672.0000000204891,"accuracy":0,"outcome":"-10","keys":[2172.465000010561],"total_keys":1,"block":1,"trial":10,"stimulus":0,"robot":4,"valence":"lose","action":"no-go","sham":0,"trial_type":"pit-trial","trial_index":40,"time_elapsed":619740,"internal_node_id":"0.0-15.0","task_version":"battery-v0.2-trt","session":2},{"rune":"D","rune_set":"elianto","hex":"#f73b6a7A","correct":32,"choice":-1,"rt":-1,"accuracy":0,"outcome":"-10","keys":[3447.824999981094],"total_keys":1,"block":1,"trial":11,"stimulus":2,"robot":3,"valence":"lose","action":"go","sham":0,"trial_type":"pit-trial","trial_index":41,"time_elapsed":623754,"internal_node_id":"0.0-16.0","task_version":"battery-v0.2-trt","session":2},{"rune":"K","rune_set":"elianto","hex":"#3366ff99","correct":32,"choice":32,"rt":1305.705000006128,"accuracy":1,"outcome":"+10","keys":[2806.655000022147],"total_keys":1,"block":1,"trial":12,"stimulus":3,"robot":1,"valence":"win","action":"go","sham":0,"trial_type":"pit-trial","trial_index":42,"time_elapsed":627774,"internal_node_id":"0.0-17.0","task_version":"battery-v0.2-trt","session":2},{"rune":"J","rune_set":"elianto","hex":"#f73b6a7A","correct":32,"choice":-1,"rt":-1,"accuracy":0,"outcome":"-10","keys":[3372.945000010077],"total_keys":1,"block":1,"trial":13,"stimulus":1,"robot":3,"valence":"lose","action":"go","sham":0,"trial_type":"pit-trial","trial_index":43,"time_elapsed":631790,"internal_node_id":"0.0-18.0","task_version":"battery-v0.2-trt","session":2},{"rune":"V","rune_set":"elianto","hex":"#f73b6a7A","correct":-1,"choice":32,"rt":1028.2700000097975,"accuracy":0,"outcome":"-10","keys":[2531.9299999973737],"total_keys":1,"block":1,"trial":14,"stimulus":0,"robot":4,"valence":"lose","action":"no-go","sham":0,"trial_type":"pit-trial","trial_index":44,"time_elapsed":635533,"internal_node_id":"0.0-19.0","task_version":"battery-v0.2-trt","session":2},{"rune":"D","rune_set":"elianto","hex":"#f73b6a7A","correct":32,"choice":-1,"rt":-1,"accuracy":0,"outcome":"-10","keys":[3054.869999992661,3255.315000016708],"total_keys":2,"block":1,"trial":15,"stimulus":2,"robot":3,"valence":"lose","action":"go","sham":0,"trial_type":"pit-trial","trial_index":45,"time_elapsed":639547,"internal_node_id":"0.0-20.0","task_version":"battery-v0.2-trt","session":2},{"rune":"K","rune_set":"elianto","hex":"#3366ff99","correct":32,"choice":32,"rt":674.5349999982864,"accuracy":1,"outcome":"+1","keys":[2180.4600000032224],"total_keys":1,"block":1,"trial":16,"stimulus":3,"robot":1,"valence":"win","action":"go","sham":1,"trial_type":"pit-trial","trial_index":46,"time_elapsed":642936,"internal_node_id":"0.0-21.0","task_version":"battery-v0.2-trt","session":2},{"rune":"J","rune_set":"elianto","hex":"#f73b6a7A","correct":32,"choice":-1,"rt":-1,"accuracy":0,"outcome":"-10","keys":[2895.7500000251457],"total_keys":1,"block":1,"trial":17,"stimulus":1,"robot":3,"valence":"lose","action":"go","sham":0,"trial_type":"pit-trial","trial_index":47,"time_elapsed":646954,"internal_node_id":"0.0-22.0","task_version":"battery-v0.2-trt","session":2},{"rune":"D","rune_set":"elianto","hex":"#f73b6a7A","correct":32,"choice":32,"rt":201.39499998185784,"accuracy":1,"outcome":"-10","keys":[1705.0850000232458],"total_keys":1,"block":1,"trial":18,"stimulus":2,"robot":3,"valence":"lose","action":"go","sham":1,"trial_type":"pit-trial","trial_index":48,"time_elapsed":649869,"internal_node_id":"0.0-23.0","task_version":"battery-v0.2-trt","session":2},{"rune":"V","rune_set":"elianto","hex":"#f73b6a7A","correct":-1,"choice":32,"rt":1086.310000042431,"accuracy":0,"outcome":"-10","keys":[2588.1500000250526],"total_keys":1,"block":1,"trial":19,"stimulus":0,"robot":4,"valence":"lose","action":"no-go","sham":0,"trial_type":"pit-trial","trial_index":49,"time_elapsed":653664,"internal_node_id":"0.0-24.0","task_version":"battery-v0.2-trt","session":2},{"rune":"K","rune_set":"elianto","hex":"#3366ff99","correct":32,"choice":-1,"rt":-1,"accuracy":0,"outcome":"+1","keys":[],"total_keys":0,"block":1,"trial":20,"stimulus":3,"robot":1,"valence":"win","action":"go","sham":0,"trial_type":"pit-trial","trial_index":50,"time_elapsed":657683,"internal_node_id":"0.0-25.0","task_version":"battery-v0.2-trt","session":2},{"rune":"K","rune_set":"elianto","hex":"#3366ff99","correct":32,"choice":32,"rt":690.9749999758787,"accuracy":1,"outcome":"+1","keys":[2195.9250000072643],"total_keys":1,"block":1,"trial":21,"stimulus":3,"robot":1,"valence":"win","action":"go","sham":1,"trial_type":"pit-trial","trial_index":51,"time_elapsed":661088,"internal_node_id":"0.0-26.0","task_version":"battery-v0.2-trt","session":2},{"rune":"V","rune_set":"elianto","hex":"#f73b6a7A","correct":-1,"choice":32,"rt":1231.8800000357442,"accuracy":0,"outcome":"-10","keys":[2732.0700000273064],"total_keys":1,"block":1,"trial":22,"stimulus":0,"robot":4,"valence":"lose","action":"no-go","sham":0,"trial_type":"pit-trial","trial_index":52,"time_elapsed":665030,"internal_node_id":"0.0-27.0","task_version":"battery-v0.2-trt","session":2},{"rune":"D","rune_set":"elianto","hex":"#f73b6a7A","correct":32,"choice":-1,"rt":-1,"accuracy":0,"outcome":"-10","keys":[],"total_keys":0,"block":1,"trial":23,"stimulus":2,"robot":3,"valence":"lose","action":"go","sham":0,"trial_type":"pit-trial","trial_index":53,"time_elapsed":669050,"internal_node_id":"0.0-28.0","task_version":"battery-v0.2-trt","session":2},{"rune":"J","rune_set":"elianto","hex":"#f73b6a7A","correct":32,"choice":32,"rt":510.5650000041351,"accuracy":1,"outcome":"-1","keys":[2014.4799999543466],"total_keys":1,"block":1,"trial":24,"stimulus":1,"robot":3,"valence":"lose","action":"go","sham":0,"trial_type":"pit-trial","trial_index":54,"time_elapsed":672275,"internal_node_id":"0.0-29.0","task_version":"battery-v0.2-trt","session":2},{"rune":"D","rune_set":"elianto","hex":"#f73b6a7A","correct":32,"choice":-1,"rt":-1,"accuracy":0,"outcome":"-10","keys":[3486.8850000202656],"total_keys":1,"block":1,"trial":25,"stimulus":2,"robot":3,"valence":"lose","action":"go","sham":0,"trial_type":"pit-trial","trial_index":55,"time_elapsed":676293,"internal_node_id":"0.0-30.0","task_version":"battery-v0.2-trt","session":2},{"rune":"J","rune_set":"elianto","hex":"#f73b6a7A","correct":32,"choice":32,"rt":613.965000025928,"accuracy":1,"outcome":"-1","keys":[2116.8049999978393],"total_keys":1,"block":1,"trial":26,"stimulus":1,"robot":3,"valence":"lose","action":"go","sham":0,"trial_type":"pit-trial","trial_index":56,"time_elapsed":679621,"internal_node_id":"0.0-31.0","task_version":"battery-v0.2-trt","session":2},{"rune":"V","rune_set":"elianto","hex":"#f73b6a7A","correct":-1,"choice":32,"rt":720.4750000382774,"accuracy":0,"outcome":"-10","keys":[2220.8300000056624],"total_keys":1,"block":1,"trial":27,"stimulus":0,"robot":4,"valence":"lose","action":"no-go","sham":0,"trial_type":"pit-trial","trial_index":57,"time_elapsed":683050,"internal_node_id":"0.0-32.0","task_version":"battery-v0.2-trt","session":2},{"rune":"K","rune_set":"elianto","hex":"#3366ff99","correct":32,"choice":32,"rt":682.7499999781139,"accuracy":1,"outcome":"+10","keys":[2184.369999973569],"total_keys":1,"block":1,"trial":28,"stimulus":3,"robot":1,"valence":"win","action":"go","sham":0,"trial_type":"pit-trial","trial_index":58,"time_elapsed":686444,"internal_node_id":"0.0-33.0","task_version":"battery-v0.2-trt","session":2},{"rune":"K","rune_set":"elianto","hex":"#3366ff99","correct":32,"choice":32,"rt":472.3999999696389,"accuracy":1,"outcome":"+10","keys":[1975.574999989476],"total_keys":1,"block":1,"trial":29,"stimulus":3,"robot":1,"valence":"win","action":"go","sham":0,"trial_type":"pit-trial","trial_index":59,"time_elapsed":689632,"internal_node_id":"0.0-34.0","task_version":"battery-v0.2-trt","session":2},{"rune":"J","rune_set":"elianto","hex":"#f73b6a7A","correct":32,"choice":32,"rt":1111.609999963548,"accuracy":1,"outcome":"-10","keys":[2617.1399999875575],"total_keys":1,"block":1,"trial":30,"stimulus":1,"robot":3,"valence":"lose","action":"go","sham":1,"trial_type":"pit-trial","trial_index":60,"time_elapsed":693461,"internal_node_id":"0.0-35.0","task_version":"battery-v0.2-trt","session":2},{"rune":"V","rune_set":"elianto","hex":"#f73b6a7A","correct":-1,"choice":-1,"rt":-1,"accuracy":1,"outcome":"-10","keys":[],"total_keys":0,"block":1,"trial":31,"stimulus":0,"robot":4,"valence":"lose","action":"no-go","sham":1,"trial_type":"pit-trial","trial_index":61,"time_elapsed":697478,"internal_node_id":"0.0-36.0","task_version":"battery-v0.2-trt","session":2},{"rune":"D","rune_set":"elianto","hex":"#f73b6a7A","correct":32,"choice":32,"rt":1194.344999967143,"accuracy":1,"outcome":"-1","keys":[2700.025000027381],"total_keys":1,"block":1,"trial":32,"stimulus":2,"robot":3,"valence":"lose","action":"go","sham":0,"trial_type":"pit-trial","trial_index":62,"time_elapsed":701383,"internal_node_id":"0.0-37.0","task_version":"battery-v0.2-trt","session":2},{"rune":"J","rune_set":"elianto","hex":"#f73b6a7A","correct":32,"choice":32,"rt":1074.3249999941327,"accuracy":1,"outcome":"-1","keys":[2577.5249999715015],"total_keys":1,"block":1,"trial":33,"stimulus":1,"robot":3,"valence":"lose","action":"go","sham":0,"trial_type":"pit-trial","trial_index":63,"time_elapsed":705172,"internal_node_id":"0.0-38.0","task_version":"battery-v0.2-trt","session":2},{"rune":"E","rune_set":"elianto","hex":"#f73b6a7A","correct":-1,"choice":32,"rt":1191.1550000077114,"accuracy":0,"outcome":"-10","keys":[2695.305000001099],"total_keys":1,"block":1,"trial":34,"stimulus":4,"robot":4,"valence":"lose","action":"no-go","sham":0,"trial_type":"pit-trial","trial_index":64,"time_elapsed":709075,"internal_node_id":"0.0-39.0","task_version":"battery-v0.2-trt","session":2},{"rune":"K","rune_set":"elianto","hex":"#3366ff99","correct":32,"choice":32,"rt":729.1350000305101,"accuracy":1,"outcome":"+1","keys":[2230.6600000010803],"total_keys":1,"block":1,"trial":35,"stimulus":3,"robot":1,"valence":"win","action":"go","sham":1,"trial_type":"pit-trial","trial_index":65,"time_elapsed":712516,"internal_node_id":"0.0-40.0","task_version":"battery-v0.2-trt","session":2},{"rune":"V","rune_set":"elianto","hex":"#f73b6a7A","correct":-1,"choice":-1,"rt":-1,"accuracy":1,"outcome":"-1","keys":[],"total_keys":0,"block":1,"trial":36,"stimulus":0,"robot":4,"valence":"lose","action":"no-go","sham":0,"trial_type":"pit-trial","trial_index":66,"time_elapsed":716530,"internal_node_id":"0.0-41.0","task_version":"battery-v0.2-trt","session":2},{"rune":"V","rune_set":"elianto","hex":"#f73b6a7A","correct":-1,"choice":32,"rt":840.8050000434741,"accuracy":0,"outcome":"-10","keys":[2347.0799999777228],"total_keys":1,"block":1,"trial":37,"stimulus":0,"robot":4,"valence":"lose","action":"no-go","sham":0,"trial_type":"pit-trial","trial_index":67,"time_elapsed":720091,"internal_node_id":"0.0-42.0","task_version":"battery-v0.2-trt","session":2},{"rune":"J","rune_set":"elianto","hex":"#f73b6a7A","correct":32,"choice":32,"rt":690.7850000425242,"accuracy":1,"outcome":"-1","keys":[2191.645000013523],"total_keys":1,"block":1,"trial":38,"stimulus":1,"robot":3,"valence":"lose","action":"go","sham":0,"trial_type":"pit-trial","trial_index":68,"time_elapsed":723491,"internal_node_id":"0.0-43.0","task_version":"battery-v0.2-trt","session":2},{"rune":"K","rune_set":"elianto","hex":"#3366ff99","correct":32,"choice":32,"rt":771.729999978561,"accuracy":1,"outcome":"+10","keys":[2275.850000034552],"total_keys":1,"block":1,"trial":39,"stimulus":3,"robot":1,"valence":"win","action":"go","sham":0,"trial_type":"pit-trial","trial_index":69,"time_elapsed":726977,"internal_node_id":"0.0-44.0","task_version":"battery-v0.2-trt","session":2},{"rune":"E","rune_set":"elianto","hex":"#f73b6a7A","correct":-1,"choice":-1,"rt":-1,"accuracy":1,"outcome":"-1","keys":[],"total_keys":0,"block":1,"trial":40,"stimulus":4,"robot":4,"valence":"lose","action":"no-go","sham":0,"trial_type":"pit-trial","trial_index":70,"time_elapsed":730992,"internal_node_id":"0.0-45.0","task_version":"battery-v0.2-trt","session":2},{"rune":"E","rune_set":"elianto","hex":"#f73b6a7A","correct":-1,"choice":-1,"rt":-1,"accuracy":1,"outcome":"-1","keys":[],"total_keys":0,"block":1,"trial":41,"stimulus":4,"robot":4,"valence":"lose","action":"no-go","sham":0,"trial_type":"pit-trial","trial_index":71,"time_elapsed":734998,"internal_node_id":"0.0-46.0","task_version":"battery-v0.2-trt","session":2},{"rune":"W","rune_set":"elianto","hex":"#3366ff99","correct":-1,"choice":32,"rt":665.6249999650754,"accuracy":0,"outcome":"+1","keys":[2168.5099999886006],"total_keys":1,"block":1,"trial":42,"stimulus":5,"robot":2,"valence":"win","action":"no-go","sham":0,"trial_type":"pit-trial","trial_index":72,"time_elapsed":738381,"internal_node_id":"0.0-47.0","task_version":"battery-v0.2-trt","session":2},{"rune":"J","rune_set":"elianto","hex":"#f73b6a7A","correct":32,"choice":32,"rt":1190.375000005588,"accuracy":1,"outcome":"-1","keys":[2695.659999968484],"total_keys":1,"block":1,"trial":43,"stimulus":1,"robot":3,"valence":"lose","action":"go","sham":0,"trial_type":"pit-trial","trial_index":73,"time_elapsed":742289,"internal_node_id":"0.0-48.0","task_version":"battery-v0.2-trt","session":2},{"rune":"V","rune_set":"elianto","hex":"#f73b6a7A","correct":-1,"choice":-1,"rt":-1,"accuracy":1,"outcome":"-10","keys":[2847.1750000026077],"total_keys":1,"block":1,"trial":44,"stimulus":0,"robot":4,"valence":"lose","action":"no-go","sham":1,"trial_type":"pit-trial","trial_index":74,"time_elapsed":746305,"internal_node_id":"0.0-49.0","task_version":"battery-v0.2-trt","session":2},{"rune":"V","rune_set":"elianto","hex":"#f73b6a7A","correct":-1,"choice":-1,"rt":-1,"accuracy":1,"outcome":"-1","keys":[],"total_keys":0,"block":1,"trial":45,"stimulus":0,"robot":4,"valence":"lose","action":"no-go","sham":0,"trial_type":"pit-trial","trial_index":75,"time_elapsed":750326,"internal_node_id":"0.0-50.0","task_version":"battery-v0.2-trt","session":2},{"rune":"J","rune_set":"elianto","hex":"#f73b6a7A","correct":32,"choice":32,"rt":863.0750000011176,"accuracy":1,"outcome":"-1","keys":[2367.114999971818],"total_keys":1,"block":1,"trial":46,"stimulus":1,"robot":3,"valence":"lose","action":"go","sham":0,"trial_type":"pit-trial","trial_index":76,"time_elapsed":753904,"internal_node_id":"0.0-51.0","task_version":"battery-v0.2-trt","session":2},{"rune":"W","rune_set":"elianto","hex":"#3366ff99","correct":-1,"choice":32,"rt":912.6649999525398,"accuracy":0,"outcome":"+1","keys":[2416.0200000042096],"total_keys":1,"block":1,"trial":47,"stimulus":5,"robot":2,"valence":"win","action":"no-go","sham":0,"trial_type":"pit-trial","trial_index":77,"time_elapsed":757527,"internal_node_id":"0.0-52.0","task_version":"battery-v0.2-trt","session":2},{"rune":"E","rune_set":"elianto","hex":"#f73b6a7A","correct":-1,"choice":32,"rt":1267.8500000038184,"accuracy":0,"outcome":"-10","keys":[2768.325000011828],"total_keys":1,"block":1,"trial":48,"stimulus":4,"robot":4,"valence":"lose","action":"no-go","sham":0,"trial_type":"pit-trial","trial_index":78,"time_elapsed":761502,"internal_node_id":"0.0-53.0","task_version":"battery-v0.2-trt","session":2},{"rune":"W","rune_set":"elianto","hex":"#3366ff99","correct":-1,"choice":-1,"rt":-1,"accuracy":1,"outcome":"+10","keys":[],"total_keys":0,"block":1,"trial":49,"stimulus":5,"robot":2,"valence":"win","action":"no-go","sham":0,"trial_type":"pit-trial","trial_index":79,"time_elapsed":765509,"internal_node_id":"0.0-54.0","task_version":"battery-v0.2-trt","session":2},{"rune":"E","rune_set":"elianto","hex":"#f73b6a7A","correct":-1,"choice":-1,"rt":-1,"accuracy":1,"outcome":"-10","keys":[],"total_keys":0,"block":1,"trial":50,"stimulus":4,"robot":4,"valence":"lose","action":"no-go","sham":1,"trial_type":"pit-trial","trial_index":80,"time_elapsed":769523,"internal_node_id":"0.0-55.0","task_version":"battery-v0.2-trt","session":2},{"rune":"P","rune_set":"elianto","hex":"#3366ff99","correct":32,"choice":32,"rt":542.1499999938533,"accuracy":1,"outcome":"+1","keys":[2048.04999998305],"total_keys":1,"block":1,"trial":51,"stimulus":7,"robot":1,"valence":"win","action":"go","sham":1,"trial_type":"pit-trial","trial_index":81,"time_elapsed":772781,"internal_node_id":"0.0-56.0","task_version":"battery-v0.2-trt","session":2},{"rune":"S","rune_set":"elianto","hex":"#f73b6a7A","correct":-1,"choice":32,"rt":769.4849999970756,"accuracy":0,"outcome":"-10","keys":[2270.075000007637],"total_keys":1,"block":1,"trial":52,"stimulus":6,"robot":4,"valence":"lose","action":"no-go","sham":0,"trial_type":"pit-trial","trial_index":82,"time_elapsed":776258,"internal_node_id":"0.0-57.0","task_version":"battery-v0.2-trt","session":2},{"rune":"E","rune_set":"elianto","hex":"#f73b6a7A","correct":-1,"choice":-1,"rt":-1,"accuracy":1,"outcome":"-1","keys":[],"total_keys":0,"block":1,"trial":53,"stimulus":4,"robot":4,"valence":"lose","action":"no-go","sham":0,"trial_type":"pit-trial","trial_index":83,"time_elapsed":780274,"internal_node_id":"0.0-58.0","task_version":"battery-v0.2-trt","session":2},{"rune":"P","rune_set":"elianto","hex":"#3366ff99","correct":32,"choice":32,"rt":358.4699999773875,"accuracy":1,"outcome":"+10","keys":[1858.8100000051782],"total_keys":1,"block":1,"trial":54,"stimulus":7,"robot":1,"valence":"win","action":"go","sham":0,"trial_type":"pit-trial","trial_index":84,"time_elapsed":783339,"internal_node_id":"0.0-59.0","task_version":"battery-v0.2-trt","session":2},{"rune":"S","rune_set":"elianto","hex":"#f73b6a7A","correct":-1,"choice":32,"rt":923.9599999855272,"accuracy":0,"outcome":"-10","keys":[2426.099999982398],"total_keys":1,"block":1,"trial":55,"stimulus":6,"robot":4,"valence":"lose","action":"no-go","sham":0,"trial_type":"pit-trial","trial_index":85,"time_elapsed":786972,"internal_node_id":"0.0-60.0","task_version":"battery-v0.2-trt","session":2},{"rune":"W","rune_set":"elianto","hex":"#3366ff99","correct":-1,"choice":32,"rt":745.0599999865517,"accuracy":0,"outcome":"+1","keys":[2250.1349999802187],"total_keys":1,"block":1,"trial":56,"stimulus":5,"robot":2,"valence":"win","action":"no-go","sham":0,"trial_type":"pit-trial","trial_index":86,"time_elapsed":790435,"internal_node_id":"0.0-61.0","task_version":"battery-v0.2-trt","session":2},{"rune":"S","rune_set":"elianto","hex":"#f73b6a7A","correct":-1,"choice":-1,"rt":-1,"accuracy":1,"outcome":"-1","keys":[],"total_keys":0,"block":1,"trial":57,"stimulus":6,"robot":4,"valence":"lose","action":"no-go","sham":0,"trial_type":"pit-trial","trial_index":87,"time_elapsed":794450,"internal_node_id":"0.0-62.0","task_version":"battery-v0.2-trt","session":2},{"rune":"P","rune_set":"elianto","hex":"#3366ff99","correct":32,"choice":-1,"rt":-1,"accuracy":0,"outcome":"+1","keys":[],"total_keys":0,"block":1,"trial":58,"stimulus":7,"robot":1,"valence":"win","action":"go","sham":0,"trial_type":"pit-trial","trial_index":88,"time_elapsed":798464,"internal_node_id":"0.0-63.0","task_version":"battery-v0.2-trt","session":2},{"rune":"W","rune_set":"elianto","hex":"#3366ff99","correct":-1,"choice":-1,"rt":-1,"accuracy":1,"outcome":"+10","keys":[],"total_keys":0,"block":1,"trial":59,"stimulus":5,"robot":2,"valence":"win","action":"no-go","sham":0,"trial_type":"pit-trial","trial_index":89,"time_elapsed":802477,"internal_node_id":"0.0-64.0","task_version":"battery-v0.2-trt","session":2},{"rune":"E","rune_set":"elianto","hex":"#f73b6a7A","correct":-1,"choice":-1,"rt":-1,"accuracy":1,"outcome":"-1","keys":[2842.1099999686703],"total_keys":1,"block":1,"trial":60,"stimulus":4,"robot":4,"valence":"lose","action":"no-go","sham":0,"trial_type":"pit-trial","trial_index":90,"time_elapsed":806494,"internal_node_id":"0.0-65.0","task_version":"battery-v0.2-trt","session":2},{"rune":"E","rune_set":"elianto","hex":"#f73b6a7A","correct":-1,"choice":32,"rt":1000.1749999937601,"accuracy":0,"outcome":"-10","keys":[2503.6400000099093],"total_keys":1,"block":1,"trial":61,"stimulus":4,"robot":4,"valence":"lose","action":"no-go","sham":0,"trial_type":"pit-trial","trial_index":91,"time_elapsed":810210,"internal_node_id":"0.0-66.0","task_version":"battery-v0.2-trt","session":2},{"rune":"P","rune_set":"elianto","hex":"#3366ff99","correct":32,"choice":32,"rt":486.0100000514649,"accuracy":1,"outcome":"+1","keys":[1990.9199999528937],"total_keys":1,"block":1,"trial":62,"stimulus":7,"robot":1,"valence":"win","action":"go","sham":1,"trial_type":"pit-trial","trial_index":92,"time_elapsed":813410,"internal_node_id":"0.0-67.0","task_version":"battery-v0.2-trt","session":2},{"rune":"W","rune_set":"elianto","hex":"#3366ff99","correct":-1,"choice":32,"rt":786.019999999553,"accuracy":0,"outcome":"+1","keys":[2287.7600000356324],"total_keys":1,"block":1,"trial":63,"stimulus":5,"robot":2,"valence":"win","action":"no-go","sham":0,"trial_type":"pit-trial","trial_index":93,"time_elapsed":816904,"internal_node_id":"0.0-68.0","task_version":"battery-v0.2-trt","session":2},{"rune":"S","rune_set":"elianto","hex":"#f73b6a7A","correct":-1,"choice":-1,"rt":-1,"accuracy":1,"outcome":"-1","keys":[2920.0800000107847],"total_keys":1,"block":1,"trial":64,"stimulus":6,"robot":4,"valence":"lose","action":"no-go","sham":0,"trial_type":"pit-trial","trial_index":94,"time_elapsed":820915,"internal_node_id":"0.0-69.0","task_version":"battery-v0.2-trt","session":2},{"rune":"S","rune_set":"elianto","hex":"#f73b6a7A","correct":-1,"choice":32,"rt":598.569999972824,"accuracy":0,"outcome":"-10","keys":[2102.4900000193156],"total_keys":1,"block":1,"trial":65,"stimulus":6,"robot":4,"valence":"lose","action":"no-go","sham":0,"trial_type":"pit-trial","trial_index":95,"time_elapsed":824222,"internal_node_id":"0.0-70.0","task_version":"battery-v0.2-trt","session":2},{"rune":"W","rune_set":"elianto","hex":"#3366ff99","correct":-1,"choice":32,"rt":1138.6799999745563,"accuracy":0,"outcome":"+1","keys":[2644.5249999524094],"total_keys":1,"block":1,"trial":66,"stimulus":5,"robot":2,"valence":"win","action":"no-go","sham":0,"trial_type":"pit-trial","trial_index":96,"time_elapsed":828078,"internal_node_id":"0.0-71.0","task_version":"battery-v0.2-trt","session":2},{"rune":"E","rune_set":"elianto","hex":"#f73b6a7A","correct":-1,"choice":-1,"rt":-1,"accuracy":1,"outcome":"-10","keys":[],"total_keys":0,"block":1,"trial":67,"stimulus":4,"robot":4,"valence":"lose","action":"no-go","sham":1,"trial_type":"pit-trial","trial_index":97,"time_elapsed":832094,"internal_node_id":"0.0-72.0","task_version":"battery-v0.2-trt","session":2},{"rune":"P","rune_set":"elianto","hex":"#3366ff99","correct":32,"choice":-1,"rt":-1,"accuracy":0,"outcome":"+1","keys":[],"total_keys":0,"block":1,"trial":68,"stimulus":7,"robot":1,"valence":"win","action":"go","sham":0,"trial_type":"pit-trial","trial_index":98,"time_elapsed":836111,"internal_node_id":"0.0-73.0","task_version":"battery-v0.2-trt","session":2},{"rune":"S","rune_set":"elianto","hex":"#f73b6a7A","correct":-1,"choice":32,"rt":291.88500001328066,"accuracy":0,"outcome":"-10","keys":[1797.5899999728426],"total_keys":1,"block":1,"trial":69,"stimulus":6,"robot":4,"valence":"lose","action":"no-go","sham":0,"trial_type":"pit-trial","trial_index":99,"time_elapsed":839115,"internal_node_id":"0.0-74.0","task_version":"battery-v0.2-trt","session":2},{"rune":"P","rune_set":"elianto","hex":"#3366ff99","correct":32,"choice":32,"rt":442.5850000116043,"accuracy":1,"outcome":"+10","keys":[1947.9150000261143],"total_keys":1,"block":1,"trial":70,"stimulus":7,"robot":1,"valence":"win","action":"go","sham":0,"trial_type":"pit-trial","trial_index":100,"time_elapsed":842272,"internal_node_id":"0.0-75.0","task_version":"battery-v0.2-trt","session":2},{"rune":"W","rune_set":"elianto","hex":"#3366ff99","correct":-1,"choice":-1,"rt":-1,"accuracy":1,"outcome":"+1","keys":[],"total_keys":0,"block":1,"trial":71,"stimulus":5,"robot":2,"valence":"win","action":"no-go","sham":1,"trial_type":"pit-trial","trial_index":101,"time_elapsed":846285,"internal_node_id":"0.0-76.0","task_version":"battery-v0.2-trt","session":2},{"rune":"E","rune_set":"elianto","hex":"#f73b6a7A","correct":-1,"choice":32,"rt":351.09000001102686,"accuracy":0,"outcome":"-10","keys":[1852.0600000047125],"total_keys":1,"block":1,"trial":72,"stimulus":4,"robot":4,"valence":"lose","action":"no-go","sham":0,"trial_type":"pit-trial","trial_index":102,"time_elapsed":849344,"internal_node_id":"0.0-77.0","task_version":"battery-v0.2-trt","session":2},{"rune":"S","rune_set":"elianto","hex":"#f73b6a7A","correct":-1,"choice":-1,"rt":-1,"accuracy":1,"outcome":"-1","keys":[2992.969999962952],"total_keys":1,"block":1,"trial":73,"stimulus":6,"robot":4,"valence":"lose","action":"no-go","sham":0,"trial_type":"pit-trial","trial_index":103,"time_elapsed":853361,"internal_node_id":"0.0-78.0","task_version":"battery-v0.2-trt","session":2},{"rune":"P","rune_set":"elianto","hex":"#3366ff99","correct":32,"choice":-1,"rt":-1,"accuracy":0,"outcome":"+1","keys":[],"total_keys":0,"block":1,"trial":74,"stimulus":7,"robot":1,"valence":"win","action":"go","sham":0,"trial_type":"pit-trial","trial_index":104,"time_elapsed":857379,"internal_node_id":"0.0-79.0","task_version":"battery-v0.2-trt","session":2},{"rune":"W","rune_set":"elianto","hex":"#3366ff99","correct":-1,"choice":32,"rt":281.8699999479577,"accuracy":0,"outcome":"+1","keys":[1785.0800000014715],"total_keys":1,"block":1,"trial":75,"stimulus":5,"robot":2,"valence":"win","action":"no-go","sham":0,"trial_type":"pit-trial","trial_index":105,"time_elapsed":860372,"internal_node_id":"0.0-80.0","task_version":"battery-v0.2-trt","session":2},{"rune":"G","rune_set":"elianto","hex":"#3366ff99","correct":32,"choice":32,"rt":622.8550000232644,"accuracy":1,"outcome":"+10","keys":[2130.6800000020303],"total_keys":1,"block":1,"trial":76,"stimulus":8,"robot":1,"valence":"win","action":"go","sham":0,"trial_type":"pit-trial","trial_index":106,"time_elapsed":863716,"internal_node_id":"0.0-81.0","task_version":"battery-v0.2-trt","session":2},{"rune":"W","rune_set":"elianto","hex":"#3366ff99","correct":-1,"choice":-1,"rt":-1,"accuracy":1,"outcome":"+10","keys":[],"total_keys":0,"block":1,"trial":77,"stimulus":5,"robot":2,"valence":"win","action":"no-go","sham":0,"trial_type":"pit-trial","trial_index":107,"time_elapsed":867724,"internal_node_id":"0.0-82.0","task_version":"battery-v0.2-trt","session":2},{"rune":"P","rune_set":"elianto","hex":"#3366ff99","correct":32,"choice":32,"rt":606.4650000189431,"accuracy":1,"outcome":"+10","keys":[2113.1099999765866],"total_keys":1,"block":1,"trial":78,"stimulus":7,"robot":1,"valence":"win","action":"go","sham":0,"trial_type":"pit-trial","trial_index":108,"time_elapsed":871044,"internal_node_id":"0.0-83.0","task_version":"battery-v0.2-trt","session":2},{"rune":"S","rune_set":"elianto","hex":"#f73b6a7A","correct":-1,"choice":32,"rt":974.5050000492483,"accuracy":0,"outcome":"-10","keys":[2475.179999950342],"total_keys":1,"block":1,"trial":79,"stimulus":6,"robot":4,"valence":"lose","action":"no-go","sham":0,"trial_type":"pit-trial","trial_index":109,"time_elapsed":874727,"internal_node_id":"0.0-84.0","task_version":"battery-v0.2-trt","session":2},{"rune":"G","rune_set":"elianto","hex":"#3366ff99","correct":32,"choice":32,"rt":699.9349999823608,"accuracy":1,"outcome":"+10","keys":[2199.925000022631],"total_keys":1,"block":1,"trial":80,"stimulus":8,"robot":1,"valence":"win","action":"go","sham":0,"trial_type":"pit-trial","trial_index":110,"time_elapsed":878141,"internal_node_id":"0.0-85.0","task_version":"battery-v0.2-trt","session":2},{"rune":"A","rune_set":"elianto","hex":"#3366ff99","correct":-1,"choice":32,"rt":879.9550000112504,"accuracy":0,"outcome":"+1","keys":[2380.654999986291],"total_keys":1,"block":1,"trial":81,"stimulus":9,"robot":2,"valence":"win","action":"no-go","sham":0,"trial_type":"pit-trial","trial_index":111,"time_elapsed":881735,"internal_node_id":"0.0-86.0","task_version":"battery-v0.2-trt","session":2},{"rune":"G","rune_set":"elianto","hex":"#3366ff99","correct":32,"choice":-1,"rt":-1,"accuracy":0,"outcome":"+1","keys":[],"total_keys":0,"block":1,"trial":82,"stimulus":8,"robot":1,"valence":"win","action":"go","sham":0,"trial_type":"pit-trial","trial_index":112,"time_elapsed":885747,"internal_node_id":"0.0-87.0","task_version":"battery-v0.2-trt","session":2},{"rune":"L","rune_set":"elianto","hex":"#f73b6a7A","correct":32,"choice":32,"rt":969.1649999585934,"accuracy":1,"outcome":"-1","keys":[2471.1150000221096],"total_keys":1,"block":1,"trial":83,"stimulus":10,"robot":3,"valence":"lose","action":"go","sham":0,"trial_type":"pit-trial","trial_index":113,"time_elapsed":889431,"internal_node_id":"0.0-88.0","task_version":"battery-v0.2-trt","session":2},{"rune":"W","rune_set":"elianto","hex":"#3366ff99","correct":-1,"choice":32,"rt":1249.4849999784492,"accuracy":0,"outcome":"+1","keys":[2751.140000007581],"total_keys":1,"block":1,"trial":84,"stimulus":5,"robot":2,"valence":"win","action":"no-go","sham":0,"trial_type":"pit-trial","trial_index":114,"time_elapsed":893387,"internal_node_id":"0.0-89.0","task_version":"battery-v0.2-trt","session":2},{"rune":"L","rune_set":"elianto","hex":"#f73b6a7A","correct":32,"choice":32,"rt":998.4699999913573,"accuracy":1,"outcome":"-1","keys":[2502.2899999748915],"total_keys":1,"block":1,"trial":85,"stimulus":10,"robot":3,"valence":"lose","action":"go","sham":0,"trial_type":"pit-trial","trial_index":115,"time_elapsed":897095,"internal_node_id":"0.0-90.0","task_version":"battery-v0.2-trt","session":2},{"rune":"G","rune_set":"elianto","hex":"#3366ff99","correct":32,"choice":-1,"rt":-1,"accuracy":0,"outcome":"+1","keys":[],"total_keys":0,"block":1,"trial":86,"stimulus":8,"robot":1,"valence":"win","action":"go","sham":0,"trial_type":"pit-trial","trial_index":116,"time_elapsed":901108,"internal_node_id":"0.0-91.0","task_version":"battery-v0.2-trt","session":2},{"rune":"W","rune_set":"elianto","hex":"#3366ff99","correct":-1,"choice":32,"rt":1034.0199999627657,"accuracy":0,"outcome":"+1","keys":[2535.265000013169],"total_keys":1,"block":1,"trial":87,"stimulus":5,"robot":2,"valence":"win","action":"no-go","sham":0,"trial_type":"pit-trial","trial_index":117,"time_elapsed":904852,"internal_node_id":"0.0-92.0","task_version":"battery-v0.2-trt","session":2},{"rune":"A","rune_set":"elianto","hex":"#3366ff99","correct":-1,"choice":-1,"rt":-1,"accuracy":1,"outcome":"+10","keys":[],"total_keys":0,"block":1,"trial":88,"stimulus":9,"robot":2,"valence":"win","action":"no-go","sham":0,"trial_type":"pit-trial","trial_index":118,"time_elapsed":908870,"internal_node_id":"0.0-93.0","task_version":"battery-v0.2-trt","session":2},{"rune":"G","rune_set":"elianto","hex":"#3366ff99","correct":32,"choice":32,"rt":1027.3249999736436,"accuracy":1,"outcome":"+10","keys":[2528.0799999600276],"total_keys":1,"block":1,"trial":89,"stimulus":8,"robot":1,"valence":"win","action":"go","sham":0,"trial_type":"pit-trial","trial_index":119,"time_elapsed":912606,"internal_node_id":"0.0-94.0","task_version":"battery-v0.2-trt","session":2},{"rune":"U","rune_set":"elianto","hex":"#3366ff99","correct":-1,"choice":32,"rt":652.509999985341,"accuracy":0,"outcome":"+1","keys":[2157.2299999534152],"total_keys":1,"block":1,"trial":90,"stimulus":11,"robot":2,"valence":"win","action":"no-go","sham":0,"trial_type":"pit-trial","trial_index":120,"time_elapsed":915973,"internal_node_id":"0.0-95.0","task_version":"battery-v0.2-trt","session":2},{"rune":"L","rune_set":"elianto","hex":"#f73b6a7A","correct":32,"choice":32,"rt":994.7099999990314,"accuracy":1,"outcome":"-1","keys":[2494.7899999679066],"total_keys":1,"block":1,"trial":91,"stimulus":10,"robot":3,"valence":"lose","action":"go","sham":0,"trial_type":"pit-trial","trial_index":121,"time_elapsed":919699,"internal_node_id":"0.0-96.0","task_version":"battery-v0.2-trt","session":2},{"rune":"A","rune_set":"elianto","hex":"#3366ff99","correct":-1,"choice":32,"rt":657.6800000038929,"accuracy":0,"outcome":"+1","keys":[2164.1550000058487],"total_keys":1,"block":1,"trial":92,"stimulus":9,"robot":2,"valence":"win","action":"no-go","sham":0,"trial_type":"pit-trial","trial_index":122,"time_elapsed":923077,"internal_node_id":"0.0-97.0","task_version":"battery-v0.2-trt","session":2},{"rune":"G","rune_set":"elianto","hex":"#3366ff99","correct":32,"choice":-1,"rt":-1,"accuracy":0,"outcome":"+1","keys":[],"total_keys":0,"block":1,"trial":93,"stimulus":8,"robot":1,"valence":"win","action":"go","sham":0,"trial_type":"pit-trial","trial_index":123,"time_elapsed":927099,"internal_node_id":"0.0-98.0","task_version":"battery-v0.2-trt","session":2},{"rune":"U","rune_set":"elianto","hex":"#3366ff99","correct":-1,"choice":32,"rt":1018.2349999668077,"accuracy":0,"outcome":"+1","keys":[2520.569999993313],"total_keys":1,"block":1,"trial":94,"stimulus":11,"robot":2,"valence":"win","action":"no-go","sham":0,"trial_type":"pit-trial","trial_index":124,"time_elapsed":930824,"internal_node_id":"0.0-99.0","task_version":"battery-v0.2-trt","session":2},{"rune":"A","rune_set":"elianto","hex":"#3366ff99","correct":-1,"choice":-1,"rt":-1,"accuracy":1,"outcome":"+10","keys":[],"total_keys":0,"block":1,"trial":95,"stimulus":9,"robot":2,"valence":"win","action":"no-go","sham":0,"trial_type":"pit-trial","trial_index":125,"time_elapsed":934839,"internal_node_id":"0.0-100.0","task_version":"battery-v0.2-trt","session":2},{"rune":"L","rune_set":"elianto","hex":"#f73b6a7A","correct":32,"choice":32,"rt":555.2700000116602,"accuracy":1,"outcome":"-1","keys":[2057.7899999916553],"total_keys":1,"block":1,"trial":96,"stimulus":10,"robot":3,"valence":"lose","action":"go","sham":0,"trial_type":"pit-trial","trial_index":126,"time_elapsed":938104,"internal_node_id":"0.0-101.0","task_version":"battery-v0.2-trt","session":2},{"rune":"A","rune_set":"elianto","hex":"#3366ff99","correct":-1,"choice":-1,"rt":-1,"accuracy":1,"outcome":"+10","keys":[],"total_keys":0,"block":1,"trial":97,"stimulus":9,"robot":2,"valence":"win","action":"no-go","sham":0,"trial_type":"pit-trial","trial_index":127,"time_elapsed":942111,"internal_node_id":"0.0-102.0","task_version":"battery-v0.2-trt","session":2},{"rune":"L","rune_set":"elianto","hex":"#f73b6a7A","correct":32,"choice":32,"rt":498.34499997086823,"accuracy":1,"outcome":"-1","keys":[2000.7350000087172],"total_keys":1,"block":1,"trial":98,"stimulus":10,"robot":3,"valence":"lose","action":"go","sham":0,"trial_type":"pit-trial","trial_index":128,"time_elapsed":945323,"internal_node_id":"0.0-103.0","task_version":"battery-v0.2-trt","session":2},{"rune":"G","rune_set":"elianto","hex":"#3366ff99","correct":32,"choice":32,"rt":533.6950000491925,"accuracy":1,"outcome":"+10","keys":[2038.7399999890476],"total_keys":1,"block":1,"trial":99,"stimulus":8,"robot":1,"valence":"win","action":"go","sham":0,"trial_type":"pit-trial","trial_index":129,"time_elapsed":948568,"internal_node_id":"0.0-104.0","task_version":"battery-v0.2-trt","session":2},{"rune":"U","rune_set":"elianto","hex":"#3366ff99","correct":-1,"choice":-1,"rt":-1,"accuracy":1,"outcome":"+10","keys":[],"total_keys":0,"block":1,"trial":100,"stimulus":11,"robot":2,"valence":"win","action":"no-go","sham":0,"trial_type":"pit-trial","trial_index":130,"time_elapsed":952577,"internal_node_id":"0.0-105.0","task_version":"battery-v0.2-trt","session":2},{"rune":"G","rune_set":"elianto","hex":"#3366ff99","correct":32,"choice":32,"rt":382.75499996962026,"accuracy":1,"outcome":"+1","keys":[1883.4849999984726],"total_keys":1,"block":1,"trial":101,"stimulus":8,"robot":1,"valence":"win","action":"go","sham":1,"trial_type":"pit-trial","trial_index":131,"time_elapsed":955672,"internal_node_id":"0.0-106.0","task_version":"battery-v0.2-trt","session":2},{"rune":"L","rune_set":"elianto","hex":"#f73b6a7A","correct":32,"choice":32,"rt":944.019999995362,"accuracy":1,"outcome":"-10","keys":[2449.2000000318512,3052.650000026915],"total_keys":2,"block":1,"trial":102,"stimulus":10,"robot":3,"valence":"lose","action":"go","sham":1,"trial_type":"pit-trial","trial_index":132,"time_elapsed":959329,"internal_node_id":"0.0-107.0","task_version":"battery-v0.2-trt","session":2},{"rune":"U","rune_set":"elianto","hex":"#3366ff99","correct":-1,"choice":32,"rt":684.5450000255369,"accuracy":0,"outcome":"+1","keys":[2185.23499998264],"total_keys":1,"block":1,"trial":103,"stimulus":11,"robot":2,"valence":"win","action":"no-go","sham":0,"trial_type":"pit-trial","trial_index":133,"time_elapsed":962728,"internal_node_id":"0.0-108.0","task_version":"battery-v0.2-trt","session":2},{"rune":"A","rune_set":"elianto","hex":"#3366ff99","correct":-1,"choice":32,"rt":546.1200000136159,"accuracy":0,"outcome":"+1","keys":[2048.7100000027567],"total_keys":1,"block":1,"trial":104,"stimulus":9,"robot":2,"valence":"win","action":"no-go","sham":0,"trial_type":"pit-trial","trial_index":134,"time_elapsed":965982,"internal_node_id":"0.0-109.0","task_version":"battery-v0.2-trt","session":2},{"rune":"G","rune_set":"elianto","hex":"#3366ff99","correct":32,"choice":32,"rt":593.3349999831989,"accuracy":1,"outcome":"+10","keys":[2095.404999970924],"total_keys":1,"block":1,"trial":105,"stimulus":8,"robot":1,"valence":"win","action":"go","sham":0,"trial_type":"pit-trial","trial_index":135,"time_elapsed":969290,"internal_node_id":"0.0-110.0","task_version":"battery-v0.2-trt","session":2},{"rune":"A","rune_set":"elianto","hex":"#3366ff99","correct":-1,"choice":-1,"rt":-1,"accuracy":1,"outcome":"+10","keys":[],"total_keys":0,"block":1,"trial":106,"stimulus":9,"robot":2,"valence":"win","action":"no-go","sham":0,"trial_type":"pit-trial","trial_index":136,"time_elapsed":973300,"internal_node_id":"0.0-111.0","task_version":"battery-v0.2-trt","session":2},{"rune":"U","rune_set":"elianto","hex":"#3366ff99","correct":-1,"choice":-1,"rt":-1,"accuracy":1,"outcome":"+1","keys":[3266.7399999918416],"total_keys":1,"block":1,"trial":107,"stimulus":11,"robot":2,"valence":"win","action":"no-go","sham":1,"trial_type":"pit-trial","trial_index":137,"time_elapsed":977309,"internal_node_id":"0.0-112.0","task_version":"battery-v0.2-trt","session":2},{"rune":"L","rune_set":"elianto","hex":"#f73b6a7A","correct":32,"choice":32,"rt":519.8899999959394,"accuracy":1,"outcome":"-1","keys":[2025.7950000232086],"total_keys":1,"block":1,"trial":108,"stimulus":10,"robot":3,"valence":"lose","action":"go","sham":0,"trial_type":"pit-trial","trial_index":138,"time_elapsed":980545,"internal_node_id":"0.0-113.0","task_version":"battery-v0.2-trt","session":2},{"rune":"A","rune_set":"elianto","hex":"#3366ff99","correct":-1,"choice":-1,"rt":-1,"accuracy":1,"outcome":"+1","keys":[2808.039999974426],"total_keys":1,"block":1,"trial":109,"stimulus":9,"robot":2,"valence":"win","action":"no-go","sham":1,"trial_type":"pit-trial","trial_index":139,"time_elapsed":984563,"internal_node_id":"0.0-114.0","task_version":"battery-v0.2-trt","session":2},{"rune":"L","rune_set":"elianto","hex":"#f73b6a7A","correct":32,"choice":32,"rt":649.0450000273995,"accuracy":1,"outcome":"-1","keys":[2151.305000006687],"total_keys":1,"block":1,"trial":110,"stimulus":10,"robot":3,"valence":"lose","action":"go","sham":0,"trial_type":"pit-trial","trial_index":140,"time_elapsed":987920,"internal_node_id":"0.0-115.0","task_version":"battery-v0.2-trt","session":2},{"rune":"G","rune_set":"elianto","hex":"#3366ff99","correct":32,"choice":32,"rt":1278.7349999998696,"accuracy":1,"outcome":"+10","keys":[2783.064999966882],"total_keys":1,"block":1,"trial":111,"stimulus":8,"robot":1,"valence":"win","action":"go","sham":0,"trial_type":"pit-trial","trial_index":141,"time_elapsed":991913,"internal_node_id":"0.0-116.0","task_version":"battery-v0.2-trt","session":2},{"rune":"U","rune_set":"elianto","hex":"#3366ff99","correct":-1,"choice":32,"rt":1134.5999999903142,"accuracy":0,"outcome":"+1","keys":[2634.734999970533],"total_keys":1,"block":1,"trial":112,"stimulus":11,"robot":2,"valence":"win","action":"no-go","sham":0,"trial_type":"pit-trial","trial_index":142,"time_elapsed":995757,"internal_node_id":"0.0-117.0","task_version":"battery-v0.2-trt","session":2},{"rune":"G","rune_set":"elianto","hex":"#3366ff99","correct":32,"choice":32,"rt":1018.8450000132434,"accuracy":1,"outcome":"+1","keys":[2534.4850000110455],"total_keys":1,"block":1,"trial":113,"stimulus":8,"robot":1,"valence":"win","action":"go","sham":1,"trial_type":"pit-trial","trial_index":143,"time_elapsed":999511,"internal_node_id":"0.0-118.0","task_version":"battery-v0.2-trt","session":2},{"rune":"L","rune_set":"elianto","hex":"#f73b6a7A","correct":32,"choice":32,"rt":725.925000035204,"accuracy":1,"outcome":"-10","keys":[2228.575000015553],"total_keys":1,"block":1,"trial":114,"stimulus":10,"robot":3,"valence":"lose","action":"go","sham":1,"trial_type":"pit-trial","trial_index":144,"time_elapsed":1002948,"internal_node_id":"0.0-119.0","task_version":"battery-v0.2-trt","session":2},{"rune":"A","rune_set":"elianto","hex":"#3366ff99","correct":-1,"choice":-1,"rt":-1,"accuracy":1,"outcome":"+10","keys":[],"total_keys":0,"block":1,"trial":115,"stimulus":9,"robot":2,"valence":"win","action":"no-go","sham":0,"trial_type":"pit-trial","trial_index":145,"time_elapsed":1006961,"internal_node_id":"0.0-120.0","task_version":"battery-v0.2-trt","session":2},{"rune":"U","rune_set":"elianto","hex":"#3366ff99","correct":-1,"choice":-1,"rt":-1,"accuracy":1,"outcome":"+10","keys":[],"total_keys":0,"block":1,"trial":116,"stimulus":11,"robot":2,"valence":"win","action":"no-go","sham":0,"trial_type":"pit-trial","trial_index":146,"time_elapsed":1010975,"internal_node_id":"0.0-121.0","task_version":"battery-v0.2-trt","session":2},{"rune":"G","rune_set":"elianto","hex":"#3366ff99","correct":32,"choice":-1,"rt":-1,"accuracy":0,"outcome":"+1","keys":[],"total_keys":0,"block":1,"trial":117,"stimulus":8,"robot":1,"valence":"win","action":"go","sham":0,"trial_type":"pit-trial","trial_index":147,"time_elapsed":1014986,"internal_node_id":"0.0-122.0","task_version":"battery-v0.2-trt","session":2},{"rune":"U","rune_set":"elianto","hex":"#3366ff99","correct":-1,"choice":32,"rt":1155.6500000297092,"accuracy":0,"outcome":"+1","keys":[2656.4699999871664],"total_keys":1,"block":1,"trial":118,"stimulus":11,"robot":2,"valence":"win","action":"no-go","sham":0,"trial_type":"pit-trial","trial_index":148,"time_elapsed":1018851,"internal_node_id":"0.0-123.0","task_version":"battery-v0.2-trt","session":2},{"rune":"L","rune_set":"elianto","hex":"#f73b6a7A","correct":32,"choice":32,"rt":519.4450000417419,"accuracy":1,"outcome":"-10","keys":[2023.0350000201724],"total_keys":1,"block":1,"trial":119,"stimulus":10,"robot":3,"valence":"lose","action":"go","sham":1,"trial_type":"pit-trial","trial_index":149,"time_elapsed":1022088,"internal_node_id":"0.0-124.0","task_version":"battery-v0.2-trt","session":2},{"rune":"A","rune_set":"elianto","hex":"#3366ff99","correct":-1,"choice":32,"rt":744.7350000147708,"accuracy":0,"outcome":"+1","keys":[2245.770000037737],"total_keys":1,"block":1,"trial":120,"stimulus":9,"robot":2,"valence":"win","action":"no-go","sham":0,"trial_type":"pit-trial","trial_index":150,"time_elapsed":1025540,"internal_node_id":"0.0-125.0","task_version":"battery-v0.2-trt","session":2},{"view_history":"[{\"page_index\":0,\"viewing_time\":4410.704999987502},{\"page_index\":1,\"viewing_time\":2026.335000002291}]","rt":6437.634999980219,"trial_type":"pit-instructions","trial_index":151,"time_elapsed":1031980,"internal_node_id":"0.0-126.0","task_version":"battery-v0.2-trt","session":2},{"rune":"Y","rune_set":"elianto","hex":"#f73b6a7A","correct":-1,"choice":32,"rt":908.8099999935366,"accuracy":0,"outcome":"-10","keys":[2408.980000007432],"total_keys":1,"block":2,"trial":121,"stimulus":2,"robot":4,"valence":"lose","action":"no-go","sham":0,"trial_type":"pit-trial","trial_index":152,"time_elapsed":1035601,"internal_node_id":"0.0-127.0","task_version":"battery-v0.2-trt","session":2},{"rune":"R","rune_set":"elianto","hex":"#f73b6a7A","correct":32,"choice":32,"rt":1070.659999968484,"accuracy":1,"outcome":"-10","keys":[2572.295000019949],"total_keys":1,"block":2,"trial":122,"stimulus":1,"robot":3,"valence":"lose","action":"go","sham":1,"trial_type":"pit-trial","trial_index":153,"time_elapsed":1039384,"internal_node_id":"0.0-128.0","task_version":"battery-v0.2-trt","session":2},{"rune":"H","rune_set":"elianto","hex":"#3366ff99","correct":-1,"choice":32,"rt":572.9250000440516,"accuracy":0,"outcome":"+1","keys":[2076.920000021346],"total_keys":1,"block":2,"trial":123,"stimulus":3,"robot":2,"valence":"win","action":"no-go","sham":0,"trial_type":"pit-trial","trial_index":154,"time_elapsed":1042671,"internal_node_id":"0.0-129.0","task_version":"battery-v0.2-trt","session":2},{"rune":"M","rune_set":"elianto","hex":"#3366ff99","correct":32,"choice":-1,"rt":-1,"accuracy":0,"outcome":"+1","keys":[],"total_keys":0,"block":2,"trial":124,"stimulus":0,"robot":1,"valence":"win","action":"go","sham":0,"trial_type":"pit-trial","trial_index":155,"time_elapsed":1046686,"internal_node_id":"0.0-130.0","task_version":"battery-v0.2-trt","session":2},{"rune":"M","rune_set":"elianto","hex":"#3366ff99","correct":32,"choice":32,"rt":270.0300000142306,"accuracy":1,"outcome":"+1","keys":[1770.235000003595],"total_keys":1,"block":2,"trial":125,"stimulus":0,"robot":1,"valence":"win","action":"go","sham":1,"trial_type":"pit-trial","trial_index":156,"time_elapsed":1049663,"internal_node_id":"0.0-131.0","task_version":"battery-v0.2-trt","session":2},{"rune":"R","rune_set":"elianto","hex":"#f73b6a7A","correct":32,"choice":32,"rt":830.7500000228174,"accuracy":1,"outcome":"-1","keys":[2331.7750000278465],"total_keys":1,"block":2,"trial":126,"stimulus":1,"robot":3,"valence":"lose","action":"go","sham":0,"trial_type":"pit-trial","trial_index":157,"time_elapsed":1053200,"internal_node_id":"0.0-132.0","task_version":"battery-v0.2-trt","session":2},{"rune":"Y","rune_set":"elianto","hex":"#f73b6a7A","correct":-1,"choice":32,"rt":1215.7950000255369,"accuracy":0,"outcome":"-10","keys":[2721.4249999960884],"total_keys":1,"block":2,"trial":127,"stimulus":2,"robot":4,"valence":"lose","action":"no-go","sham":0,"trial_type":"pit-trial","trial_index":158,"time_elapsed":1057130,"internal_node_id":"0.0-133.0","task_version":"battery-v0.2-trt","session":2},{"rune":"H","rune_set":"elianto","hex":"#3366ff99","correct":-1,"choice":32,"rt":569.0049999975599,"accuracy":0,"outcome":"+1","keys":[2076.0349999764003],"total_keys":1,"block":2,"trial":128,"stimulus":3,"robot":2,"valence":"win","action":"no-go","sham":0,"trial_type":"pit-trial","trial_index":159,"time_elapsed":1060423,"internal_node_id":"0.0-134.0","task_version":"battery-v0.2-trt","session":2},{"rune":"Y","rune_set":"elianto","hex":"#f73b6a7A","correct":-1,"choice":32,"rt":1005.1550000207499,"accuracy":0,"outcome":"-10","keys":[2506.5900000045076],"total_keys":1,"block":2,"trial":129,"stimulus":2,"robot":4,"valence":"lose","action":"no-go","sham":0,"trial_type":"pit-trial","trial_index":160,"time_elapsed":1064138,"internal_node_id":"0.0-135.0","task_version":"battery-v0.2-trt","session":2},{"rune":"H","rune_set":"elianto","hex":"#3366ff99","correct":-1,"choice":32,"rt":868.8850000035018,"accuracy":0,"outcome":"+1","keys":[2368.9899999881163],"total_keys":1,"block":2,"trial":130,"stimulus":3,"robot":2,"valence":"win","action":"no-go","sham":0,"trial_type":"pit-trial","trial_index":161,"time_elapsed":1067716,"internal_node_id":"0.0-136.0","task_version":"battery-v0.2-trt","session":2},{"rune":"M","rune_set":"elianto","hex":"#3366ff99","correct":32,"choice":32,"rt":713.2850000052713,"accuracy":1,"outcome":"+10","keys":[2215.5049999710172],"total_keys":1,"block":2,"trial":131,"stimulus":0,"robot":1,"valence":"win","action":"go","sham":0,"trial_type":"pit-trial","trial_index":162,"time_elapsed":1071140,"internal_node_id":"0.0-137.0","task_version":"battery-v0.2-trt","session":2},{"rune":"R","rune_set":"elianto","hex":"#f73b6a7A","correct":32,"choice":32,"rt":499.7399999992922,"accuracy":1,"outcome":"-1","keys":[2003.7149999989197],"total_keys":1,"block":2,"trial":132,"stimulus":1,"robot":3,"valence":"lose","action":"go","sham":0,"trial_type":"pit-trial","trial_index":163,"time_elapsed":1074355,"internal_node_id":"0.0-138.0","task_version":"battery-v0.2-trt","session":2},{"rune":"M","rune_set":"elianto","hex":"#3366ff99","correct":32,"choice":32,"rt":519.5999999996275,"accuracy":1,"outcome":"+10","keys":[2021.7749999719672],"total_keys":1,"block":2,"trial":133,"stimulus":0,"robot":1,"valence":"win","action":"go","sham":0,"trial_type":"pit-trial","trial_index":164,"time_elapsed":1077584,"internal_node_id":"0.0-139.0","task_version":"battery-v0.2-trt","session":2},{"rune":"Y","rune_set":"elianto","hex":"#f73b6a7A","correct":-1,"choice":-1,"rt":-1,"accuracy":1,"outcome":"-10","keys":[],"total_keys":0,"block":2,"trial":134,"stimulus":2,"robot":4,"valence":"lose","action":"no-go","sham":1,"trial_type":"pit-trial","trial_index":165,"time_elapsed":1081593,"internal_node_id":"0.0-140.0","task_version":"battery-v0.2-trt","session":2},{"rune":"R","rune_set":"elianto","hex":"#f73b6a7A","correct":32,"choice":32,"rt":961.1300000105985,"accuracy":1,"outcome":"-1","keys":[2462.8149999771267],"total_keys":1,"block":2,"trial":135,"stimulus":1,"robot":3,"valence":"lose","action":"go","sham":0,"trial_type":"pit-trial","trial_index":166,"time_elapsed":1085267,"internal_node_id":"0.0-141.0","task_version":"battery-v0.2-trt","session":2},{"rune":"H","rune_set":"elianto","hex":"#3366ff99","correct":-1,"choice":-1,"rt":-1,"accuracy":1,"outcome":"+10","keys":[],"total_keys":0,"block":2,"trial":136,"stimulus":3,"robot":2,"valence":"win","action":"no-go","sham":0,"trial_type":"pit-trial","trial_index":167,"time_elapsed":1089276,"internal_node_id":"0.0-142.0","task_version":"battery-v0.2-trt","session":2},{"rune":"H","rune_set":"elianto","hex":"#3366ff99","correct":-1,"choice":-1,"rt":-1,"accuracy":1,"outcome":"+10","keys":[2949.0449999575503],"total_keys":1,"block":2,"trial":137,"stimulus":3,"robot":2,"valence":"win","action":"no-go","sham":0,"trial_type":"pit-trial","trial_index":168,"time_elapsed":1093288,"internal_node_id":"0.0-143.0","task_version":"battery-v0.2-trt","session":2},{"rune":"R","rune_set":"elianto","hex":"#f73b6a7A","correct":32,"choice":32,"rt":613.6599999736063,"accuracy":1,"outcome":"-1","keys":[2116.5150000015274],"total_keys":1,"block":2,"trial":138,"stimulus":1,"robot":3,"valence":"lose","action":"go","sham":0,"trial_type":"pit-trial","trial_index":169,"time_elapsed":1096615,"internal_node_id":"0.0-144.0","task_version":"battery-v0.2-trt","session":2},{"rune":"Y","rune_set":"elianto","hex":"#f73b6a7A","correct":-1,"choice":32,"rt":644.2800000077114,"accuracy":0,"outcome":"-10","keys":[2145.9199999808334],"total_keys":1,"block":2,"trial":139,"stimulus":2,"robot":4,"valence":"lose","action":"no-go","sham":0,"trial_type":"pit-trial","trial_index":170,"time_elapsed":1099969,"internal_node_id":"0.0-145.0","task_version":"battery-v0.2-trt","session":2},{"rune":"M","rune_set":"elianto","hex":"#3366ff99","correct":32,"choice":32,"rt":388.9399999752641,"accuracy":1,"outcome":"+10","keys":[1895.4149999772198],"total_keys":1,"block":2,"trial":140,"stimulus":0,"robot":1,"valence":"win","action":"go","sham":0,"trial_type":"pit-trial","trial_index":171,"time_elapsed":1103073,"internal_node_id":"0.0-146.0","task_version":"battery-v0.2-trt","session":2},{"rune":"R","rune_set":"elianto","hex":"#f73b6a7A","correct":32,"choice":32,"rt":661.9799999753013,"accuracy":1,"outcome":"-10","keys":[2163.659999961965],"total_keys":1,"block":2,"trial":141,"stimulus":1,"robot":3,"valence":"lose","action":"go","sham":1,"trial_type":"pit-trial","trial_index":172,"time_elapsed":1106445,"internal_node_id":"0.0-147.0","task_version":"battery-v0.2-trt","session":2},{"rune":"M","rune_set":"elianto","hex":"#3366ff99","correct":32,"choice":32,"rt":513.63499998115,"accuracy":1,"outcome":"+10","keys":[2018.1949999532662],"total_keys":1,"block":2,"trial":142,"stimulus":0,"robot":1,"valence":"win","action":"go","sham":0,"trial_type":"pit-trial","trial_index":173,"time_elapsed":1109672,"internal_node_id":"0.0-148.0","task_version":"battery-v0.2-trt","session":2},{"rune":"Y","rune_set":"elianto","hex":"#f73b6a7A","correct":-1,"choice":32,"rt":604.6849999693222,"accuracy":0,"outcome":"-10","keys":[2105.519999982789],"total_keys":1,"block":2,"trial":143,"stimulus":2,"robot":4,"valence":"lose","action":"no-go","sham":0,"trial_type":"pit-trial","trial_index":174,"time_elapsed":1112988,"internal_node_id":"0.0-149.0","task_version":"battery-v0.2-trt","session":2},{"rune":"H","rune_set":"elianto","hex":"#3366ff99","correct":-1,"choice":-1,"rt":-1,"accuracy":1,"outcome":"+10","keys":[],"total_keys":0,"block":2,"trial":144,"stimulus":3,"robot":2,"valence":"win","action":"no-go","sham":0,"trial_type":"pit-trial","trial_index":175,"time_elapsed":1117003,"internal_node_id":"0.0-150.0","task_version":"battery-v0.2-trt","session":2},{"rune":"H","rune_set":"elianto","hex":"#3366ff99","correct":-1,"choice":-1,"rt":-1,"accuracy":1,"outcome":"+10","keys":[],"total_keys":0,"block":2,"trial":145,"stimulus":3,"robot":2,"valence":"win","action":"no-go","sham":0,"trial_type":"pit-trial","trial_index":176,"time_elapsed":1121014,"internal_node_id":"0.0-151.0","task_version":"battery-v0.2-trt","session":2},{"rune":"M","rune_set":"elianto","hex":"#3366ff99","correct":32,"choice":32,"rt":492.2449999721721,"accuracy":1,"outcome":"+1","keys":[1995.4399999696761],"total_keys":1,"block":2,"trial":146,"stimulus":0,"robot":1,"valence":"win","action":"go","sham":1,"trial_type":"pit-trial","trial_index":177,"time_elapsed":1124221,"internal_node_id":"0.0-152.0","task_version":"battery-v0.2-trt","session":2},{"rune":"R","rune_set":"elianto","hex":"#f73b6a7A","correct":32,"choice":32,"rt":760.9900000388734,"accuracy":1,"outcome":"-1","keys":[2261.319999990519],"total_keys":1,"block":2,"trial":147,"stimulus":1,"robot":3,"valence":"lose","action":"go","sham":0,"trial_type":"pit-trial","trial_index":178,"time_elapsed":1127693,"internal_node_id":"0.0-153.0","task_version":"battery-v0.2-trt","session":2},{"rune":"Y","rune_set":"elianto","hex":"#f73b6a7A","correct":-1,"choice":32,"rt":638.3050000295043,"accuracy":0,"outcome":"-10","keys":[2142.485000018496],"total_keys":1,"block":2,"trial":148,"stimulus":2,"robot":4,"valence":"lose","action":"no-go","sham":0,"trial_type":"pit-trial","trial_index":179,"time_elapsed":1131046,"internal_node_id":"0.0-154.0","task_version":"battery-v0.2-trt","session":2},{"rune":"H","rune_set":"elianto","hex":"#3366ff99","correct":-1,"choice":-1,"rt":-1,"accuracy":1,"outcome":"+10","keys":[],"total_keys":0,"block":2,"trial":149,"stimulus":3,"robot":2,"valence":"win","action":"no-go","sham":0,"trial_type":"pit-trial","trial_index":180,"time_elapsed":1135061,"internal_node_id":"0.0-155.0","task_version":"battery-v0.2-trt","session":2},{"rune":"R","rune_set":"elianto","hex":"#f73b6a7A","correct":32,"choice":32,"rt":598.5050000017509,"accuracy":1,"outcome":"-1","keys":[2099.835000000894],"total_keys":1,"block":2,"trial":150,"stimulus":1,"robot":3,"valence":"lose","action":"go","sham":0,"trial_type":"pit-trial","trial_index":181,"time_elapsed":1138369,"internal_node_id":"0.0-156.0","task_version":"battery-v0.2-trt","session":2},{"rune":"Y","rune_set":"elianto","hex":"#f73b6a7A","correct":-1,"choice":-1,"rt":-1,"accuracy":1,"outcome":"-1","keys":[],"total_keys":0,"block":2,"trial":151,"stimulus":2,"robot":4,"valence":"lose","action":"no-go","sham":0,"trial_type":"pit-trial","trial_index":182,"time_elapsed":1142399,"internal_node_id":"0.0-157.0","task_version":"battery-v0.2-trt","session":2},{"rune":"M","rune_set":"elianto","hex":"#3366ff99","correct":32,"choice":32,"rt":462.2249999665655,"accuracy":1,"outcome":"+10","keys":[1963.9350000070408],"total_keys":1,"block":2,"trial":152,"stimulus":0,"robot":1,"valence":"win","action":"go","sham":0,"trial_type":"pit-trial","trial_index":183,"time_elapsed":1145571,"internal_node_id":"0.0-158.0","task_version":"battery-v0.2-trt","session":2},{"rune":"M","rune_set":"elianto","hex":"#3366ff99","correct":32,"choice":32,"rt":463.274999987334,"accuracy":1,"outcome":"+10","keys":[1964.0650000073947],"total_keys":1,"block":2,"trial":153,"stimulus":0,"robot":1,"valence":"win","action":"go","sham":0,"trial_type":"pit-trial","trial_index":184,"time_elapsed":1148745,"internal_node_id":"0.0-159.0","task_version":"battery-v0.2-trt","session":2},{"rune":"R","rune_set":"elianto","hex":"#f73b6a7A","correct":32,"choice":32,"rt":1171.154999989085,"accuracy":1,"outcome":"-1","keys":[2675.2850000048056],"total_keys":1,"block":2,"trial":154,"stimulus":1,"robot":3,"valence":"lose","action":"go","sham":0,"trial_type":"pit-trial","trial_index":185,"time_elapsed":1152627,"internal_node_id":"0.0-160.0","task_version":"battery-v0.2-trt","session":2},{"rune":"H","rune_set":"elianto","hex":"#3366ff99","correct":-1,"choice":-1,"rt":-1,"accuracy":1,"outcome":"+1","keys":[],"total_keys":0,"block":2,"trial":155,"stimulus":3,"robot":2,"valence":"win","action":"no-go","sham":1,"trial_type":"pit-trial","trial_index":186,"time_elapsed":1156645,"internal_node_id":"0.0-161.0","task_version":"battery-v0.2-trt","session":2},{"rune":"Z","rune_set":"elianto","hex":"#f73b6a7A","correct":-1,"choice":-1,"rt":-1,"accuracy":1,"outcome":"-1","keys":[],"total_keys":0,"block":2,"trial":156,"stimulus":4,"robot":4,"valence":"lose","action":"no-go","sham":0,"trial_type":"pit-trial","trial_index":187,"time_elapsed":1160657,"internal_node_id":"0.0-162.0","task_version":"battery-v0.2-trt","session":2},{"rune":"Z","rune_set":"elianto","hex":"#f73b6a7A","correct":-1,"choice":-1,"rt":-1,"accuracy":1,"outcome":"-1","keys":[],"total_keys":0,"block":2,"trial":157,"stimulus":4,"robot":4,"valence":"lose","action":"no-go","sham":0,"trial_type":"pit-trial","trial_index":188,"time_elapsed":1164667,"internal_node_id":"0.0-163.0","task_version":"battery-v0.2-trt","session":2},{"rune":"H","rune_set":"elianto","hex":"#3366ff99","correct":-1,"choice":-1,"rt":-1,"accuracy":1,"outcome":"+1","keys":[],"total_keys":0,"block":2,"trial":158,"stimulus":3,"robot":2,"valence":"win","action":"no-go","sham":1,"trial_type":"pit-trial","trial_index":189,"time_elapsed":1168680,"internal_node_id":"0.0-164.0","task_version":"battery-v0.2-trt","session":2},{"rune":"R","rune_set":"elianto","hex":"#f73b6a7A","correct":32,"choice":32,"rt":675.4150000051595,"accuracy":1,"outcome":"-1","keys":[2178.0450000078417],"total_keys":1,"block":2,"trial":159,"stimulus":1,"robot":3,"valence":"lose","action":"go","sham":0,"trial_type":"pit-trial","trial_index":190,"time_elapsed":1172066,"internal_node_id":"0.0-165.0","task_version":"battery-v0.2-trt","session":2},{"rune":"M","rune_set":"elianto","hex":"#3366ff99","correct":32,"choice":32,"rt":376.9800000009127,"accuracy":1,"outcome":"+10","keys":[1877.9250000370666],"total_keys":1,"block":2,"trial":160,"stimulus":0,"robot":1,"valence":"win","action":"go","sham":0,"trial_type":"pit-trial","trial_index":191,"time_elapsed":1175151,"internal_node_id":"0.0-166.0","task_version":"battery-v0.2-trt","session":2},{"rune":"M","rune_set":"elianto","hex":"#3366ff99","correct":32,"choice":32,"rt":403.57500000391155,"accuracy":1,"outcome":"+10","keys":[1909.845000016503],"total_keys":1,"block":2,"trial":161,"stimulus":0,"robot":1,"valence":"win","action":"go","sham":0,"trial_type":"pit-trial","trial_index":192,"time_elapsed":1178267,"internal_node_id":"0.0-167.0","task_version":"battery-v0.2-trt","session":2},{"rune":"C","rune_set":"elianto","hex":"#f73b6a7A","correct":32,"choice":-1,"rt":-1,"accuracy":0,"outcome":"-10","keys":[],"total_keys":0,"block":2,"trial":162,"stimulus":5,"robot":3,"valence":"lose","action":"go","sham":0,"trial_type":"pit-trial","trial_index":193,"time_elapsed":1182276,"internal_node_id":"0.0-168.0","task_version":"battery-v0.2-trt","session":2},{"rune":"Z","rune_set":"elianto","hex":"#f73b6a7A","correct":-1,"choice":-1,"rt":-1,"accuracy":1,"outcome":"-1","keys":[],"total_keys":0,"block":2,"trial":163,"stimulus":4,"robot":4,"valence":"lose","action":"no-go","sham":0,"trial_type":"pit-trial","trial_index":194,"time_elapsed":1186290,"internal_node_id":"0.0-169.0","task_version":"battery-v0.2-trt","session":2},{"rune":"H","rune_set":"elianto","hex":"#3366ff99","correct":-1,"choice":-1,"rt":-1,"accuracy":1,"outcome":"+10","keys":[2891.139999963343],"total_keys":1,"block":2,"trial":164,"stimulus":3,"robot":2,"valence":"win","action":"no-go","sham":0,"trial_type":"pit-trial","trial_index":195,"time_elapsed":1190298,"internal_node_id":"0.0-170.0","task_version":"battery-v0.2-trt","session":2},{"rune":"Z","rune_set":"elianto","hex":"#f73b6a7A","correct":-1,"choice":-1,"rt":-1,"accuracy":1,"outcome":"-1","keys":[],"total_keys":0,"block":2,"trial":165,"stimulus":4,"robot":4,"valence":"lose","action":"no-go","sham":0,"trial_type":"pit-trial","trial_index":196,"time_elapsed":1194310,"internal_node_id":"0.0-171.0","task_version":"battery-v0.2-trt","session":2},{"rune":"H","rune_set":"elianto","hex":"#3366ff99","correct":-1,"choice":-1,"rt":-1,"accuracy":1,"outcome":"+10","keys":[3240.6600000103936],"total_keys":1,"block":2,"trial":166,"stimulus":3,"robot":2,"valence":"win","action":"no-go","sham":0,"trial_type":"pit-trial","trial_index":197,"time_elapsed":1198329,"internal_node_id":"0.0-172.0","task_version":"battery-v0.2-trt","session":2},{"rune":"C","rune_set":"elianto","hex":"#f73b6a7A","correct":32,"choice":-1,"rt":-1,"accuracy":0,"outcome":"-10","keys":[],"total_keys":0,"block":2,"trial":167,"stimulus":5,"robot":3,"valence":"lose","action":"go","sham":0,"trial_type":"pit-trial","trial_index":198,"time_elapsed":1202342,"internal_node_id":"0.0-173.0","task_version":"battery-v0.2-trt","session":2},{"rune":"M","rune_set":"elianto","hex":"#3366ff99","correct":32,"choice":32,"rt":392.7249999833293,"accuracy":1,"outcome":"+10","keys":[1898.4850000124425],"total_keys":1,"block":2,"trial":168,"stimulus":0,"robot":1,"valence":"win","action":"go","sham":0,"trial_type":"pit-trial","trial_index":199,"time_elapsed":1205449,"internal_node_id":"0.0-174.0","task_version":"battery-v0.2-trt","session":2},{"rune":"Z","rune_set":"elianto","hex":"#f73b6a7A","correct":-1,"choice":-1,"rt":-1,"accuracy":1,"outcome":"-10","keys":[],"total_keys":0,"block":2,"trial":169,"stimulus":4,"robot":4,"valence":"lose","action":"no-go","sham":1,"trial_type":"pit-trial","trial_index":200,"time_elapsed":1209468,"internal_node_id":"0.0-175.0","task_version":"battery-v0.2-trt","session":2},{"rune":"C","rune_set":"elianto","hex":"#f73b6a7A","correct":32,"choice":32,"rt":838.5750000015832,"accuracy":1,"outcome":"-1","keys":[2344.5000000065193],"total_keys":1,"block":2,"trial":170,"stimulus":5,"robot":3,"valence":"lose","action":"go","sham":0,"trial_type":"pit-trial","trial_index":201,"time_elapsed":1213022,"internal_node_id":"0.0-176.0","task_version":"battery-v0.2-trt","session":2},{"rune":"T","rune_set":"elianto","hex":"#3366ff99","correct":-1,"choice":32,"rt":1005.8449999778531,"accuracy":0,"outcome":"+1","keys":[2510.6700000469573],"total_keys":1,"block":2,"trial":171,"stimulus":7,"robot":2,"valence":"win","action":"no-go","sham":0,"trial_type":"pit-trial","trial_index":202,"time_elapsed":1216742,"internal_node_id":"0.0-177.0","task_version":"battery-v0.2-trt","session":2},{"rune":"B","rune_set":"elianto","hex":"#3366ff99","correct":-1,"choice":-1,"rt":-1,"accuracy":1,"outcome":"+10","keys":[],"total_keys":0,"block":2,"trial":172,"stimulus":6,"robot":2,"valence":"win","action":"no-go","sham":0,"trial_type":"pit-trial","trial_index":203,"time_elapsed":1220751,"internal_node_id":"0.0-178.0","task_version":"battery-v0.2-trt","session":2},{"rune":"T","rune_set":"elianto","hex":"#3366ff99","correct":-1,"choice":32,"rt":786.0400000354275,"accuracy":0,"outcome":"+1","keys":[2289.0800000168383],"total_keys":1,"block":2,"trial":173,"stimulus":7,"robot":2,"valence":"win","action":"no-go","sham":0,"trial_type":"pit-trial","trial_index":204,"time_elapsed":1224245,"internal_node_id":"0.0-179.0","task_version":"battery-v0.2-trt","session":2},{"rune":"Z","rune_set":"elianto","hex":"#f73b6a7A","correct":-1,"choice":32,"rt":1128.6250000121072,"accuracy":0,"outcome":"-10","keys":[2633.930000010878],"total_keys":1,"block":2,"trial":174,"stimulus":4,"robot":4,"valence":"lose","action":"no-go","sham":0,"trial_type":"pit-trial","trial_index":205,"time_elapsed":1228092,"internal_node_id":"0.0-180.0","task_version":"battery-v0.2-trt","session":2},{"rune":"B","rune_set":"elianto","hex":"#3366ff99","correct":-1,"choice":-1,"rt":-1,"accuracy":1,"outcome":"+10","keys":[],"total_keys":0,"block":2,"trial":175,"stimulus":6,"robot":2,"valence":"win","action":"no-go","sham":0,"trial_type":"pit-trial","trial_index":206,"time_elapsed":1232107,"internal_node_id":"0.0-181.0","task_version":"battery-v0.2-trt","session":2},{"rune":"C","rune_set":"elianto","hex":"#f73b6a7A","correct":32,"choice":-1,"rt":-1,"accuracy":0,"outcome":"-10","keys":[],"total_keys":0,"block":2,"trial":176,"stimulus":5,"robot":3,"valence":"lose","action":"go","sham":0,"trial_type":"pit-trial","trial_index":207,"time_elapsed":1236124,"internal_node_id":"0.0-182.0","task_version":"battery-v0.2-trt","session":2},{"rune":"B","rune_set":"elianto","hex":"#3366ff99","correct":-1,"choice":32,"rt":446.1899999878369,"accuracy":0,"outcome":"+1","keys":[1947.3700000089593],"total_keys":1,"block":2,"trial":177,"stimulus":6,"robot":2,"valence":"win","action":"no-go","sham":0,"trial_type":"pit-trial","trial_index":208,"time_elapsed":1239289,"internal_node_id":"0.0-183.0","task_version":"battery-v0.2-trt","session":2},{"rune":"Z","rune_set":"elianto","hex":"#f73b6a7A","correct":-1,"choice":-1,"rt":-1,"accuracy":1,"outcome":"-1","keys":[],"total_keys":0,"block":2,"trial":178,"stimulus":4,"robot":4,"valence":"lose","action":"no-go","sham":0,"trial_type":"pit-trial","trial_index":209,"time_elapsed":1243306,"internal_node_id":"0.0-184.0","task_version":"battery-v0.2-trt","session":2},{"rune":"C","rune_set":"elianto","hex":"#f73b6a7A","correct":32,"choice":-1,"rt":-1,"accuracy":0,"outcome":"-10","keys":[],"total_keys":0,"block":2,"trial":179,"stimulus":5,"robot":3,"valence":"lose","action":"go","sham":0,"trial_type":"pit-trial","trial_index":210,"time_elapsed":1247321,"internal_node_id":"0.0-185.0","task_version":"battery-v0.2-trt","session":2},{"rune":"T","rune_set":"elianto","hex":"#3366ff99","correct":-1,"choice":-1,"rt":-1,"accuracy":1,"outcome":"+1","keys":[],"total_keys":0,"block":2,"trial":180,"stimulus":7,"robot":2,"valence":"win","action":"no-go","sham":1,"trial_type":"pit-trial","trial_index":211,"time_elapsed":1251331,"internal_node_id":"0.0-186.0","task_version":"battery-v0.2-trt","session":2},{"rune":"C","rune_set":"elianto","hex":"#f73b6a7A","correct":32,"choice":32,"rt":930.9700000449084,"accuracy":1,"outcome":"-1","keys":[2433.0799999879673],"total_keys":1,"block":2,"trial":181,"stimulus":5,"robot":3,"valence":"lose","action":"go","sham":0,"trial_type":"pit-trial","trial_index":212,"time_elapsed":1254975,"internal_node_id":"0.0-187.0","task_version":"battery-v0.2-trt","session":2},{"rune":"T","rune_set":"elianto","hex":"#3366ff99","correct":-1,"choice":-1,"rt":-1,"accuracy":1,"outcome":"+10","keys":[],"total_keys":0,"block":2,"trial":182,"stimulus":7,"robot":2,"valence":"win","action":"no-go","sham":0,"trial_type":"pit-trial","trial_index":213,"time_elapsed":1258986,"internal_node_id":"0.0-188.0","task_version":"battery-v0.2-trt","session":2},{"rune":"B","rune_set":"elianto","hex":"#3366ff99","correct":-1,"choice":32,"rt":512.9849999793805,"accuracy":0,"outcome":"+1","keys":[2018.1700000539422],"total_keys":1,"block":2,"trial":183,"stimulus":6,"robot":2,"valence":"win","action":"no-go","sham":0,"trial_type":"pit-trial","trial_index":214,"time_elapsed":1262214,"internal_node_id":"0.0-189.0","task_version":"battery-v0.2-trt","session":2},{"rune":"Z","rune_set":"elianto","hex":"#f73b6a7A","correct":-1,"choice":32,"rt":1140.5999999842606,"accuracy":0,"outcome":"-10","keys":[2640.305000008084],"total_keys":1,"block":2,"trial":184,"stimulus":4,"robot":4,"valence":"lose","action":"no-go","sham":0,"trial_type":"pit-trial","trial_index":215,"time_elapsed":1266065,"internal_node_id":"0.0-190.0","task_version":"battery-v0.2-trt","session":2},{"rune":"Z","rune_set":"elianto","hex":"#f73b6a7A","correct":-1,"choice":32,"rt":648.6049999948591,"accuracy":0,"outcome":"-10","keys":[2149.085000040941],"total_keys":1,"block":2,"trial":185,"stimulus":4,"robot":4,"valence":"lose","action":"no-go","sham":0,"trial_type":"pit-trial","trial_index":216,"time_elapsed":1269425,"internal_node_id":"0.0-191.0","task_version":"battery-v0.2-trt","session":2},{"rune":"B","rune_set":"elianto","hex":"#3366ff99","correct":-1,"choice":-1,"rt":-1,"accuracy":1,"outcome":"+10","keys":[],"total_keys":0,"block":2,"trial":186,"stimulus":6,"robot":2,"valence":"win","action":"no-go","sham":0,"trial_type":"pit-trial","trial_index":217,"time_elapsed":1273440,"internal_node_id":"0.0-192.0","task_version":"battery-v0.2-trt","session":2},{"rune":"T","rune_set":"elianto","hex":"#3366ff99","correct":-1,"choice":-1,"rt":-1,"accuracy":1,"outcome":"+1","keys":[],"total_keys":0,"block":2,"trial":187,"stimulus":7,"robot":2,"valence":"win","action":"no-go","sham":1,"trial_type":"pit-trial","trial_index":218,"time_elapsed":1277458,"internal_node_id":"0.0-193.0","task_version":"battery-v0.2-trt","session":2},{"rune":"C","rune_set":"elianto","hex":"#f73b6a7A","correct":32,"choice":-1,"rt":-1,"accuracy":0,"outcome":"-1","keys":[],"total_keys":0,"block":2,"trial":188,"stimulus":5,"robot":3,"valence":"lose","action":"go","sham":1,"trial_type":"pit-trial","trial_index":219,"time_elapsed":1281472,"internal_node_id":"0.0-194.0","task_version":"battery-v0.2-trt","session":2},{"rune":"B","rune_set":"elianto","hex":"#3366ff99","correct":-1,"choice":32,"rt":746.8000000226311,"accuracy":0,"outcome":"+1","keys":[2251.594999979716],"total_keys":1,"block":2,"trial":189,"stimulus":6,"robot":2,"valence":"win","action":"no-go","sham":0,"trial_type":"pit-trial","trial_index":220,"time_elapsed":1284932,"internal_node_id":"0.0-195.0","task_version":"battery-v0.2-trt","session":2},{"rune":"T","rune_set":"elianto","hex":"#3366ff99","correct":-1,"choice":-1,"rt":-1,"accuracy":1,"outcome":"+1","keys":[],"total_keys":0,"block":2,"trial":190,"stimulus":7,"robot":2,"valence":"win","action":"no-go","sham":1,"trial_type":"pit-trial","trial_index":221,"time_elapsed":1288947,"internal_node_id":"0.0-196.0","task_version":"battery-v0.2-trt","session":2},{"rune":"C","rune_set":"elianto","hex":"#f73b6a7A","correct":32,"choice":-1,"rt":-1,"accuracy":0,"outcome":"-10","keys":[],"total_keys":0,"block":2,"trial":191,"stimulus":5,"robot":3,"valence":"lose","action":"go","sham":0,"trial_type":"pit-trial","trial_index":222,"time_elapsed":1292956,"internal_node_id":"0.0-197.0","task_version":"battery-v0.2-trt","session":2},{"rune":"Z","rune_set":"elianto","hex":"#f73b6a7A","correct":-1,"choice":32,"rt":1038.8699999894015,"accuracy":0,"outcome":"-10","keys":[2544.4099999731407],"total_keys":1,"block":2,"trial":192,"stimulus":4,"robot":4,"valence":"lose","action":"no-go","sham":0,"trial_type":"pit-trial","trial_index":223,"time_elapsed":1296716,"internal_node_id":"0.0-198.0","task_version":"battery-v0.2-trt","session":2},{"rune":"T","rune_set":"elianto","hex":"#3366ff99","correct":-1,"choice":32,"rt":339.08500004326925,"accuracy":0,"outcome":"+1","keys":[1844.0150000387803],"total_keys":1,"block":2,"trial":193,"stimulus":7,"robot":2,"valence":"win","action":"no-go","sham":0,"trial_type":"pit-trial","trial_index":224,"time_elapsed":1299770,"internal_node_id":"0.0-199.0","task_version":"battery-v0.2-trt","session":2},{"rune":"Z","rune_set":"elianto","hex":"#f73b6a7A","correct":-1,"choice":-1,"rt":-1,"accuracy":1,"outcome":"-1","keys":[],"total_keys":0,"block":2,"trial":194,"stimulus":4,"robot":4,"valence":"lose","action":"no-go","sham":0,"trial_type":"pit-trial","trial_index":225,"time_elapsed":1303784,"internal_node_id":"0.0-200.0","task_version":"battery-v0.2-trt","session":2},{"rune":"C","rune_set":"elianto","hex":"#f73b6a7A","correct":32,"choice":32,"rt":516.3450000109151,"accuracy":1,"outcome":"-1","keys":[2017.359999998007],"total_keys":1,"block":2,"trial":195,"stimulus":5,"robot":3,"valence":"lose","action":"go","sham":0,"trial_type":"pit-trial","trial_index":226,"time_elapsed":1307014,"internal_node_id":"0.0-201.0","task_version":"battery-v0.2-trt","session":2},{"rune":"B","rune_set":"elianto","hex":"#3366ff99","correct":-1,"choice":-1,"rt":-1,"accuracy":1,"outcome":"+1","keys":[],"total_keys":0,"block":2,"trial":196,"stimulus":6,"robot":2,"valence":"win","action":"no-go","sham":1,"trial_type":"pit-trial","trial_index":227,"time_elapsed":1311029,"internal_node_id":"0.0-202.0","task_version":"battery-v0.2-trt","session":2},{"rune":"B","rune_set":"elianto","hex":"#3366ff99","correct":-1,"choice":32,"rt":720.8000000100583,"accuracy":0,"outcome":"+10","keys":[2221.499999985099],"total_keys":1,"block":2,"trial":197,"stimulus":6,"robot":2,"valence":"win","action":"no-go","sham":1,"trial_type":"pit-trial","trial_index":228,"time_elapsed":1314459,"internal_node_id":"0.0-203.0","task_version":"battery-v0.2-trt","session":2},{"rune":"C","rune_set":"elianto","hex":"#f73b6a7A","correct":32,"choice":32,"rt":630.8500000159256,"accuracy":1,"outcome":"-1","keys":[2133.3149999845773],"total_keys":1,"block":2,"trial":198,"stimulus":5,"robot":3,"valence":"lose","action":"go","sham":0,"trial_type":"pit-trial","trial_index":229,"time_elapsed":1317804,"internal_node_id":"0.0-204.0","task_version":"battery-v0.2-trt","session":2},{"rune":"T","rune_set":"elianto","hex":"#3366ff99","correct":-1,"choice":32,"rt":850.6000000052154,"accuracy":0,"outcome":"+10","keys":[2351.42999998061],"total_keys":1,"block":2,"trial":199,"stimulus":7,"robot":2,"valence":"win","action":"no-go","sham":1,"trial_type":"pit-trial","trial_index":230,"time_elapsed":1321363,"internal_node_id":"0.0-205.0","task_version":"battery-v0.2-trt","session":2},{"rune":"Z","rune_set":"elianto","hex":"#f73b6a7A","correct":-1,"choice":-1,"rt":-1,"accuracy":1,"outcome":"-1","keys":[2927.8400000184774],"total_keys":1,"block":2,"trial":200,"stimulus":4,"robot":4,"valence":"lose","action":"no-go","sham":0,"trial_type":"pit-trial","trial_index":231,"time_elapsed":1325379,"internal_node_id":"0.0-206.0","task_version":"battery-v0.2-trt","session":2},{"rune":"X","rune_set":"elianto","hex":"#3366ff99","correct":32,"choice":32,"rt":917.4050000146963,"accuracy":1,"outcome":"+10","keys":[2421.555000008084],"total_keys":1,"block":2,"trial":201,"stimulus":8,"robot":1,"valence":"win","action":"go","sham":0,"trial_type":"pit-trial","trial_index":232,"time_elapsed":1329013,"internal_node_id":"0.0-207.0","task_version":"battery-v0.2-trt","session":2},{"rune":"F","rune_set":"elianto","hex":"#f73b6a7A","correct":-1,"choice":-1,"rt":-1,"accuracy":1,"outcome":"-1","keys":[],"total_keys":0,"block":2,"trial":202,"stimulus":9,"robot":4,"valence":"lose","action":"no-go","sham":0,"trial_type":"pit-trial","trial_index":233,"time_elapsed":1333029,"internal_node_id":"0.0-208.0","task_version":"battery-v0.2-trt","session":2},{"rune":"C","rune_set":"elianto","hex":"#f73b6a7A","correct":32,"choice":32,"rt":625.8549999911338,"accuracy":1,"outcome":"-10","keys":[2127.6599999982864],"total_keys":1,"block":2,"trial":203,"stimulus":5,"robot":3,"valence":"lose","action":"go","sham":1,"trial_type":"pit-trial","trial_index":234,"time_elapsed":1336361,"internal_node_id":"0.0-209.0","task_version":"battery-v0.2-trt","session":2},{"rune":"T","rune_set":"elianto","hex":"#3366ff99","correct":-1,"choice":32,"rt":590.2800000039861,"accuracy":0,"outcome":"+10","keys":[2094.1299999831244],"total_keys":1,"block":2,"trial":204,"stimulus":7,"robot":2,"valence":"win","action":"no-go","sham":1,"trial_type":"pit-trial","trial_index":235,"time_elapsed":1339668,"internal_node_id":"0.0-210.0","task_version":"battery-v0.2-trt","session":2},{"rune":"T","rune_set":"elianto","hex":"#3366ff99","correct":-1,"choice":32,"rt":497.14499997207895,"accuracy":0,"outcome":"+10","keys":[1999.1799999843352],"total_keys":1,"block":2,"trial":205,"stimulus":7,"robot":2,"valence":"win","action":"no-go","sham":1,"trial_type":"pit-trial","trial_index":236,"time_elapsed":1342873,"internal_node_id":"0.0-211.0","task_version":"battery-v0.2-trt","session":2},{"rune":"X","rune_set":"elianto","hex":"#3366ff99","correct":32,"choice":32,"rt":978.8950000074692,"accuracy":1,"outcome":"+10","keys":[2481.9900000002235],"total_keys":1,"block":2,"trial":206,"stimulus":8,"robot":1,"valence":"win","action":"go","sham":0,"trial_type":"pit-trial","trial_index":237,"time_elapsed":1346560,"internal_node_id":"0.0-212.0","task_version":"battery-v0.2-trt","session":2},{"rune":"F","rune_set":"elianto","hex":"#f73b6a7A","correct":-1,"choice":-1,"rt":-1,"accuracy":1,"outcome":"-10","keys":[],"total_keys":0,"block":2,"trial":207,"stimulus":9,"robot":4,"valence":"lose","action":"no-go","sham":1,"trial_type":"pit-trial","trial_index":238,"time_elapsed":1350579,"internal_node_id":"0.0-213.0","task_version":"battery-v0.2-trt","session":2},{"rune":"C","rune_set":"elianto","hex":"#f73b6a7A","correct":32,"choice":32,"rt":524.3199999677017,"accuracy":1,"outcome":"-10","keys":[2028.954999987036],"total_keys":1,"block":2,"trial":208,"stimulus":5,"robot":3,"valence":"lose","action":"go","sham":1,"trial_type":"pit-trial","trial_index":239,"time_elapsed":1353827,"internal_node_id":"0.0-214.0","task_version":"battery-v0.2-trt","session":2},{"rune":"Q","rune_set":"elianto","hex":"#3366ff99","correct":32,"choice":-1,"rt":-1,"accuracy":0,"outcome":"+1","keys":[],"total_keys":0,"block":2,"trial":209,"stimulus":11,"robot":1,"valence":"win","action":"go","sham":0,"trial_type":"pit-trial","trial_index":240,"time_elapsed":1357841,"internal_node_id":"0.0-215.0","task_version":"battery-v0.2-trt","session":2},{"rune":"X","rune_set":"elianto","hex":"#3366ff99","correct":32,"choice":32,"rt":310.8650000067428,"accuracy":1,"outcome":"+10","keys":[1812.3799999593757],"total_keys":1,"block":2,"trial":210,"stimulus":8,"robot":1,"valence":"win","action":"go","sham":0,"trial_type":"pit-trial","trial_index":241,"time_elapsed":1360862,"internal_node_id":"0.0-216.0","task_version":"battery-v0.2-trt","session":2},{"rune":"N","rune_set":"elianto","hex":"#f73b6a7A","correct":32,"choice":-1,"rt":-1,"accuracy":0,"outcome":"-10","keys":[],"total_keys":0,"block":2,"trial":211,"stimulus":10,"robot":3,"valence":"lose","action":"go","sham":0,"trial_type":"pit-trial","trial_index":242,"time_elapsed":1364874,"internal_node_id":"0.0-217.0","task_version":"battery-v0.2-trt","session":2},{"rune":"F","rune_set":"elianto","hex":"#f73b6a7A","correct":-1,"choice":-1,"rt":-1,"accuracy":1,"outcome":"-1","keys":[],"total_keys":0,"block":2,"trial":212,"stimulus":9,"robot":4,"valence":"lose","action":"no-go","sham":0,"trial_type":"pit-trial","trial_index":243,"time_elapsed":1368889,"internal_node_id":"0.0-218.0","task_version":"battery-v0.2-trt","session":2},{"rune":"N","rune_set":"elianto","hex":"#f73b6a7A","correct":32,"choice":32,"rt":418.3049999992363,"accuracy":1,"outcome":"-1","keys":[1919.419999991078],"total_keys":1,"block":2,"trial":213,"stimulus":10,"robot":3,"valence":"lose","action":"go","sham":0,"trial_type":"pit-trial","trial_index":244,"time_elapsed":1372014,"internal_node_id":"0.0-219.0","task_version":"battery-v0.2-trt","session":2},{"rune":"X","rune_set":"elianto","hex":"#3366ff99","correct":32,"choice":32,"rt":999.0550000220537,"accuracy":1,"outcome":"+10","keys":[2501.924999989569],"total_keys":1,"block":2,"trial":214,"stimulus":8,"robot":1,"valence":"win","action":"go","sham":0,"trial_type":"pit-trial","trial_index":245,"time_elapsed":1375726,"internal_node_id":"0.0-220.0","task_version":"battery-v0.2-trt","session":2},{"rune":"Q","rune_set":"elianto","hex":"#3366ff99","correct":32,"choice":32,"rt":589.4350000307895,"accuracy":1,"outcome":"+10","keys":[2096.2849999777973],"total_keys":1,"block":2,"trial":215,"stimulus":11,"robot":1,"valence":"win","action":"go","sham":0,"trial_type":"pit-trial","trial_index":246,"time_elapsed":1379033,"internal_node_id":"0.0-221.0","task_version":"battery-v0.2-trt","session":2},{"rune":"F","rune_set":"elianto","hex":"#f73b6a7A","correct":-1,"choice":32,"rt":1152.6450000237674,"accuracy":0,"outcome":"-1","keys":[2653.645000013057],"total_keys":1,"block":2,"trial":216,"stimulus":9,"robot":4,"valence":"lose","action":"no-go","sham":1,"trial_type":"pit-trial","trial_index":247,"time_elapsed":1382897,"internal_node_id":"0.0-222.0","task_version":"battery-v0.2-trt","session":2},{"rune":"Q","rune_set":"elianto","hex":"#3366ff99","correct":32,"choice":32,"rt":401.09499997925013,"accuracy":1,"outcome":"+10","keys":[1902.0000000018626],"total_keys":1,"block":2,"trial":217,"stimulus":11,"robot":1,"valence":"win","action":"go","sham":0,"trial_type":"pit-trial","trial_index":248,"time_elapsed":1386007,"internal_node_id":"0.0-223.0","task_version":"battery-v0.2-trt","session":2},{"rune":"X","rune_set":"elianto","hex":"#3366ff99","correct":32,"choice":32,"rt":560.6249999837019,"accuracy":1,"outcome":"+10","keys":[2061.5550000220537],"total_keys":1,"block":2,"trial":218,"stimulus":8,"robot":1,"valence":"win","action":"go","sham":0,"trial_type":"pit-trial","trial_index":249,"time_elapsed":1389277,"internal_node_id":"0.0-224.0","task_version":"battery-v0.2-trt","session":2},{"rune":"F","rune_set":"elianto","hex":"#f73b6a7A","correct":-1,"choice":32,"rt":720.6349999760278,"accuracy":0,"outcome":"-10","keys":[2226.2249999912456],"total_keys":1,"block":2,"trial":219,"stimulus":9,"robot":4,"valence":"lose","action":"no-go","sham":0,"trial_type":"pit-trial","trial_index":250,"time_elapsed":1392717,"internal_node_id":"0.0-225.0","task_version":"battery-v0.2-trt","session":2},{"rune":"N","rune_set":"elianto","hex":"#f73b6a7A","correct":32,"choice":-1,"rt":-1,"accuracy":0,"outcome":"-10","keys":[],"total_keys":0,"block":2,"trial":220,"stimulus":10,"robot":3,"valence":"lose","action":"go","sham":0,"trial_type":"pit-trial","trial_index":251,"time_elapsed":1396727,"internal_node_id":"0.0-226.0","task_version":"battery-v0.2-trt","session":2},{"rune":"F","rune_set":"elianto","hex":"#f73b6a7A","correct":-1,"choice":32,"rt":631.5250000334345,"accuracy":0,"outcome":"-10","keys":[2136.960000032559],"total_keys":1,"block":2,"trial":221,"stimulus":9,"robot":4,"valence":"lose","action":"no-go","sham":0,"trial_type":"pit-trial","trial_index":252,"time_elapsed":1400073,"internal_node_id":"0.0-227.0","task_version":"battery-v0.2-trt","session":2},{"rune":"N","rune_set":"elianto","hex":"#f73b6a7A","correct":32,"choice":-1,"rt":-1,"accuracy":0,"outcome":"-1","keys":[],"total_keys":0,"block":2,"trial":222,"stimulus":10,"robot":3,"valence":"lose","action":"go","sham":1,"trial_type":"pit-trial","trial_index":253,"time_elapsed":1404090,"internal_node_id":"0.0-228.0","task_version":"battery-v0.2-trt","session":2},{"rune":"Q","rune_set":"elianto","hex":"#3366ff99","correct":32,"choice":32,"rt":456.6849999828264,"accuracy":1,"outcome":"+10","keys":[1958.4750000503846],"total_keys":1,"block":2,"trial":223,"stimulus":11,"robot":1,"valence":"win","action":"go","sham":0,"trial_type":"pit-trial","trial_index":254,"time_elapsed":1407261,"internal_node_id":"0.0-229.0","task_version":"battery-v0.2-trt","session":2},{"rune":"X","rune_set":"elianto","hex":"#3366ff99","correct":32,"choice":32,"rt":554.3199999956414,"accuracy":1,"outcome":"+1","keys":[2054.4000000227243],"total_keys":1,"block":2,"trial":224,"stimulus":8,"robot":1,"valence":"win","action":"go","sham":1,"trial_type":"pit-trial","trial_index":255,"time_elapsed":1410524,"internal_node_id":"0.0-230.0","task_version":"battery-v0.2-trt","session":2},{"rune":"F","rune_set":"elianto","hex":"#f73b6a7A","correct":-1,"choice":-1,"rt":-1,"accuracy":1,"outcome":"-10","keys":[],"total_keys":0,"block":2,"trial":225,"stimulus":9,"robot":4,"valence":"lose","action":"no-go","sham":1,"trial_type":"pit-trial","trial_index":256,"time_elapsed":1414538,"internal_node_id":"0.0-231.0","task_version":"battery-v0.2-trt","session":2},{"rune":"X","rune_set":"elianto","hex":"#3366ff99","correct":32,"choice":32,"rt":788.0800000275485,"accuracy":1,"outcome":"+10","keys":[2289.219999976922],"total_keys":1,"block":2,"trial":226,"stimulus":8,"robot":1,"valence":"win","action":"go","sham":0,"trial_type":"pit-trial","trial_index":257,"time_elapsed":1418035,"internal_node_id":"0.0-232.0","task_version":"battery-v0.2-trt","session":2},{"rune":"N","rune_set":"elianto","hex":"#f73b6a7A","correct":32,"choice":-1,"rt":-1,"accuracy":0,"outcome":"-10","keys":[],"total_keys":0,"block":2,"trial":227,"stimulus":10,"robot":3,"valence":"lose","action":"go","sham":0,"trial_type":"pit-trial","trial_index":258,"time_elapsed":1422050,"internal_node_id":"0.0-233.0","task_version":"battery-v0.2-trt","session":2},{"rune":"Q","rune_set":"elianto","hex":"#3366ff99","correct":32,"choice":32,"rt":368.84499998996034,"accuracy":1,"outcome":"+10","keys":[1870.2000000048429],"total_keys":1,"block":2,"trial":228,"stimulus":11,"robot":1,"valence":"win","action":"go","sham":0,"trial_type":"pit-trial","trial_index":259,"time_elapsed":1425132,"internal_node_id":"0.0-234.0","task_version":"battery-v0.2-trt","session":2},{"rune":"N","rune_set":"elianto","hex":"#f73b6a7A","correct":32,"choice":32,"rt":394.9199999915436,"accuracy":1,"outcome":"-1","keys":[1899.1050000186078],"total_keys":1,"block":2,"trial":229,"stimulus":10,"robot":3,"valence":"lose","action":"go","sham":0,"trial_type":"pit-trial","trial_index":260,"time_elapsed":1428236,"internal_node_id":"0.0-235.0","task_version":"battery-v0.2-trt","session":2},{"rune":"X","rune_set":"elianto","hex":"#3366ff99","correct":32,"choice":32,"rt":433.19000001065433,"accuracy":1,"outcome":"+10","keys":[1936.6249999729916],"total_keys":1,"block":2,"trial":230,"stimulus":8,"robot":1,"valence":"win","action":"go","sham":0,"trial_type":"pit-trial","trial_index":261,"time_elapsed":1431384,"internal_node_id":"0.0-236.0","ta