[{"view_history":"[{\"page_index\":0,\"viewing_time\":6766.794999828562}]","rt":6767.650000052527,"trial_type":"instructions","trial_index":0,"time_elapsed":6774,"internal_node_id":"0.0-0.0","task_version":"battery-v0.2-trt","session":2},{"slider_type":"valence","raw_loc":572,"loc":0.644,"trial_type":"affective-slider","trial_index":1,"time_elapsed":15401,"internal_node_id":"0.0-1.0","task_version":"battery-v0.2-trt","session":2},{"responses":{"Q06":"0","Q01":"1","Q03":"1","Q04":"2","Q08":"3","Q02":"2","Q05":"2","Q07":"1"},"rt":58849.95000017807,"item_order":[5,0,2,3,7,1,4,6],"radio_events":[9544.410000089556,15224.145000101998,23912.385000148788,26479.895000113174,28968.164999969304,34712.345000123605,42344.27500003949,47616.245000157505,50944.30000009015],"key_events":[],"mouse_events":[8680.170000065118,9544.410000089556,15224.145000101998,23912.385000148788,26479.895000113174,28968.164999969304,34712.345000123605,42344.27500003949,47616.245000157505,50944.30000009015,58848.250000039116],"straightlining":0.375,"zigzagging":0.7142857142857143,"survey":"dass_d","trial_type":"survey-template","trial_index":2,"time_elapsed":74255,"internal_node_id":"0.0-2.0","task_version":"battery-v0.2-trt","session":2,"infrequency":0},{"responses":{"Q04":"1","Q02":"1","Q03":"1","Q07":"1","Q01":"3","Q05":"1","Q08":"0","Q06":"2"},"rt":36681.00499990396,"item_order":[3,1,2,6,0,4,7,5],"radio_events":[5255.774999968708,9015.535000013188,9679.530000081286,15215.654999949038,19015.970000065863,21719.83000007458,24975.56499997154,32575.85999998264],"key_events":[],"mouse_events":[5255.774999968708,7687.905000057071,9015.535000013188,9679.530000081286,15215.654999949038,19015.970000065863,21719.83000007458,24975.56499997154,32575.85999998264,36679.64500002563],"straightlining":0.625,"zigzagging":0.14285714285714285,"survey":"gad7","trial_type":"survey-template","trial_index":3,"time_elapsed":110942,"internal_node_id":"0.0-3.0","task_version":"battery-v0.2-trt","session":2,"infrequency":0},{"view_history":"[{\"page_index\":0,\"viewing_time\":5380.760000087321},{\"page_index\":1,\"viewing_time\":3231.9050000514835},{\"page_index\":2,\"viewing_time\":6855.94499995932},{\"page_index\":3,\"viewing_time\":6096.209999872372},{\"page_index\":4,\"viewing_time\":5847.9450000450015},{\"page_index\":5,\"viewing_time\":10335.935000097379},{\"page_index\":6,\"viewing_time\":4088.190000038594},{\"page_index\":7,\"viewing_time\":8071.68999989517},{\"page_index\":8,\"viewing_time\":13888.19000008516},{\"page_index\":9,\"viewing_time\":4935.964999953285}]","rt":68733.9000001084,"trial_type":"pit-instructions","trial_index":4,"time_elapsed":179685,"internal_node_id":"0.0-4.0-0.0","task_version":"battery-v0.2-trt","session":2},{"rune":"1","rune_set":"elianto","hex":"#3366ff99","correct":32,"choice":32,"rt":986.9399999734014,"accuracy":1,"outcome":"+10","keys":[2488.60999988392],"total_keys":1,"block":0,"practice":1,"trial_type":"pit-trial","trial_index":5,"time_elapsed":183380,"internal_node_id":"0.0-4.0-1.0-0.0","task_version":"battery-v0.2-trt","session":2},{"rune":"1","rune_set":"elianto","hex":"#3366ff99","correct":32,"choice":32,"rt":667.4299999140203,"accuracy":1,"outcome":"+10","keys":[2168.159999884665],"total_keys":1,"block":0,"practice":1,"trial_type":"pit-trial","trial_index":6,"time_elapsed":186754,"internal_node_id":"0.0-4.0-1.1-0.1","task_version":"battery-v0.2-trt","session":2},{"rune":"1","rune_set":"elianto","hex":"#3366ff99","correct":32,"choice":32,"rt":758.5400000680238,"accuracy":1,"outcome":"+10","keys":[2259.0949998702854],"total_keys":1,"block":0,"practice":1,"trial_type":"pit-trial","trial_index":7,"time_elapsed":190219,"internal_node_id":"0.0-4.0-1.2-0.2","task_version":"battery-v0.2-trt","session":2},{"rune":"1","rune_set":"elianto","hex":"#3366ff99","correct":32,"choice":32,"rt":758.5299999918789,"accuracy":1,"outcome":"+10","keys":[2258.6949998512864],"total_keys":1,"block":0,"practice":1,"trial_type":"pit-trial","trial_index":8,"time_elapsed":193682,"internal_node_id":"0.0-4.0-1.3-0.3","task_version":"battery-v0.2-trt","session":2},{"trial_type":"call-function","trial_index":9,"time_elapsed":193686,"internal_node_id":"0.0-4.0-2.0","task_version":"battery-v0.2-trt","session":2},{"view_history":"[{\"page_index\":0,\"viewing_time\":6796.624999959022},{\"page_index\":1,\"viewing_time\":5479.640000034124}]","rt":12276.725000003353,"trial_type":"pit-instructions","trial_index":10,"time_elapsed":205964,"internal_node_id":"0.0-4.0-3.0","task_version":"battery-v0.2-trt","session":2},{"rune":"2","rune_set":"elianto","hex":"#3366ff99","correct":-1,"choice":32,"rt":637.285000178963,"accuracy":0,"outcome":"+1","keys":[2137.5200001057237],"total_keys":1,"block":0,"practice":2,"trial_type":"pit-trial","trial_index":11,"time_elapsed":209308,"internal_node_id":"0.0-4.0-4.0-0.0","task_version":"battery-v0.2-trt","session":2},{"rune":"2","rune_set":"elianto","hex":"#3366ff99","correct":-1,"choice":-1,"rt":-1,"accuracy":1,"outcome":"+10","keys":[],"total_keys":0,"block":0,"practice":2,"trial_type":"pit-trial","trial_index":12,"time_elapsed":213315,"internal_node_id":"0.0-4.0-4.1-0.1","task_version":"battery-v0.2-trt","session":2},{"rune":"2","rune_set":"elianto","hex":"#3366ff99","correct":-1,"choice":-1,"rt":-1,"accuracy":1,"outcome":"+10","keys":[],"total_keys":0,"block":0,"practice":2,"trial_type":"pit-trial","trial_index":13,"time_elapsed":217322,"internal_node_id":"0.0-4.0-4.2-0.2","task_version":"battery-v0.2-trt","session":2},{"rune":"2","rune_set":"elianto","hex":"#3366ff99","correct":-1,"choice":-1,"rt":-1,"accuracy":1,"outcome":"+10","keys":[],"total_keys":0,"block":0,"practice":2,"trial_type":"pit-trial","trial_index":14,"time_elapsed":221329,"internal_node_id":"0.0-4.0-4.3-0.3","task_version":"battery-v0.2-trt","session":2},{"trial_type":"call-function","trial_index":15,"time_elapsed":221333,"internal_node_id":"0.0-4.0-5.0","task_version":"battery-v0.2-trt","session":2},{"view_history":"[{\"page_index\":0,\"viewing_time\":14190.029999939725},{\"page_index\":1,\"viewing_time\":5839.799999957904}]","rt":20030.250000068918,"trial_type":"pit-instructions","trial_index":16,"time_elapsed":241364,"internal_node_id":"0.0-4.0-6.0","task_version":"battery-v0.2-trt","session":2},{"rune":"3","rune_set":"elianto","hex":"#f73b6a7A","correct":-1,"choice":-1,"rt":-1,"accuracy":1,"outcome":"-1","keys":[],"total_keys":0,"block":0,"practice":3,"trial_type":"pit-trial","trial_index":17,"time_elapsed":245371,"internal_node_id":"0.0-4.0-7.0-0.0","task_version":"battery-v0.2-trt","session":2},{"rune":"3","rune_set":"elianto","hex":"#f73b6a7A","correct":-1,"choice":-1,"rt":-1,"accuracy":1,"outcome":"-1","keys":[],"total_keys":0,"block":0,"practice":3,"trial_type":"pit-trial","trial_index":18,"time_elapsed":249378,"internal_node_id":"0.0-4.0-7.1-0.1","task_version":"battery-v0.2-trt","session":2},{"rune":"3","rune_set":"elianto","hex":"#f73b6a7A","correct":-1,"choice":-1,"rt":-1,"accuracy":1,"outcome":"-1","keys":[],"total_keys":0,"block":0,"practice":3,"trial_type":"pit-trial","trial_index":19,"time_elapsed":253385,"internal_node_id":"0.0-4.0-7.2-0.2","task_version":"battery-v0.2-trt","session":2},{"rune":"3","rune_set":"elianto","hex":"#f73b6a7A","correct":-1,"choice":-1,"rt":-1,"accuracy":1,"outcome":"-1","keys":[],"total_keys":0,"block":0,"practice":3,"trial_type":"pit-trial","trial_index":20,"time_elapsed":257391,"internal_node_id":"0.0-4.0-7.3-0.3","task_version":"battery-v0.2-trt","session":2},{"trial_type":"call-function","trial_index":21,"time_elapsed":257395,"internal_node_id":"0.0-4.0-8.0","task_version":"battery-v0.2-trt","session":2},{"view_history":"[{\"page_index\":0,\"viewing_time\":9232.465000124648},{\"page_index\":1,\"viewing_time\":4016.224999912083}]","rt":13249.100000131875,"trial_type":"pit-instructions","trial_index":22,"time_elapsed":270644,"internal_node_id":"0.0-4.0-9.0","task_version":"battery-v0.2-trt","session":2},{"rune":"4","rune_set":"elianto","hex":"#f73b6a7A","correct":32,"choice":-1,"rt":-1,"accuracy":0,"outcome":"-10","keys":[],"total_keys":0,"block":0,"practice":4,"trial_type":"pit-trial","trial_index":23,"time_elapsed":274659,"internal_node_id":"0.0-4.0-10.0-0.0","task_version":"battery-v0.2-trt","session":2},{"rune":"4","rune_set":"elianto","hex":"#f73b6a7A","correct":32,"choice":32,"rt":382.34999985434115,"accuracy":1,"outcome":"-1","keys":[1882.6399999670684],"total_keys":1,"block":0,"practice":4,"trial_type":"pit-trial","trial_index":24,"time_elapsed":277747,"internal_node_id":"0.0-4.0-10.1-0.1","task_version":"battery-v0.2-trt","session":2},{"rune":"4","rune_set":"elianto","hex":"#f73b6a7A","correct":32,"choice":32,"rt":502.6149998884648,"accuracy":1,"outcome":"-1","keys":[2002.705000108108],"total_keys":1,"block":0,"practice":4,"trial_type":"pit-trial","trial_index":25,"time_elapsed":280955,"internal_node_id":"0.0-4.0-10.2-0.2","task_version":"battery-v0.2-trt","session":2},{"rune":"4","rune_set":"elianto","hex":"#f73b6a7A","correct":32,"choice":32,"rt":428.4800000023097,"accuracy":1,"outcome":"-1","keys":[1930.3999999538064],"total_keys":1,"block":0,"practice":4,"trial_type":"pit-trial","trial_index":26,"time_elapsed":284091,"internal_node_id":"0.0-4.0-10.3-0.3","task_version":"battery-v0.2-trt","session":2},{"trial_type":"call-function","trial_index":27,"time_elapsed":284095,"internal_node_id":"0.0-4.0-11.0","task_version":"battery-v0.2-trt","session":2},{"view_history":"[{\"page_index\":0,\"viewing_time\":2708.8150000199676},{\"page_index\":1,\"viewing_time\":10640.294999815524},{\"page_index\":2,\"viewing_time\":6239.509999984875},{\"page_index\":3,\"viewing_time\":5615.9500000067055},{\"page_index\":4,\"viewing_time\":6743.855000007898},{\"page_index\":5,\"viewing_time\":3184.190000174567}]","rt":35133.05999990553,"trial_type":"pit-instructions","trial_index":28,"time_elapsed":319228,"internal_node_id":"0.0-4.0-12.0","task_version":"battery-v0.2-trt","session":2},{"responses":["Press SPACE","+10","-1","True","True"],"num_errors":0,"rt":21235.124999890104,"trial_type":"pit-comprehension","trial_index":29,"time_elapsed":340470,"internal_node_id":"0.0-4.0-13.0","task_version":"battery-v0.2-trt","session":2},{"view_history":"[{\"page_index\":0,\"viewing_time\":2741.6100001428276},{\"page_index\":1,\"viewing_time\":5119.775000028312}]","rt":7861.789999995381,"trial_type":"pit-instructions","trial_index":30,"time_elapsed":348340,"internal_node_id":"0.0-5.0","task_version":"battery-v0.2-trt","session":2},{"rune":"B","rune_set":"bacs1","hex":"#f73b6a7A","correct":-1,"choice":32,"rt":738.7500000186265,"accuracy":0,"outcome":"-10","keys":[2239.7600000258535],"total_keys":1,"block":1,"trial":1,"stimulus":0,"robot":4,"valence":"lose","action":"no-go","sham":0,"trial_type":"pit-trial","trial_index":31,"time_elapsed":351787,"internal_node_id":"0.0-6.0","task_version":"battery-v0.2-trt","session":2},{"rune":"Z","rune_set":"bacs1","hex":"#f73b6a7A","correct":32,"choice":32,"rt":654.1649999562651,"accuracy":1,"outcome":"-1","keys":[2154.97999987565],"total_keys":1,"block":1,"trial":2,"stimulus":1,"robot":3,"valence":"lose","action":"go","sham":0,"trial_type":"pit-trial","trial_index":32,"time_elapsed":355147,"internal_node_id":"0.0-7.0","task_version":"battery-v0.2-trt","session":2},{"rune":"R","rune_set":"bacs1","hex":"#3366ff99","correct":32,"choice":32,"rt":668.16999996081,"accuracy":1,"outcome":"+10","keys":[2170.0899999123067],"total_keys":1,"block":1,"trial":3,"stimulus":3,"robot":1,"valence":"win","action":"go","sham":0,"trial_type":"pit-trial","trial_index":33,"time_elapsed":358523,"internal_node_id":"0.0-8.0","task_version":"battery-v0.2-trt","session":2},{"rune":"J","rune_set":"bacs1","hex":"#f73b6a7A","correct":32,"choice":32,"rt":828.4500001464039,"accuracy":1,"outcome":"-10","keys":[2330.4149999748915],"total_keys":1,"block":1,"trial":4,"stimulus":2,"robot":3,"valence":"lose","action":"go","sham":1,"trial_type":"pit-trial","trial_index":34,"time_elapsed":362059,"internal_node_id":"0.0-9.0","task_version":"battery-v0.2-trt","session":2},{"rune":"Z","rune_set":"bacs1","hex":"#f73b6a7A","correct":32,"choice":32,"rt":822.3549998365343,"accuracy":1,"outcome":"-1","keys":[2322.775000007823],"total_keys":1,"block":1,"trial":5,"stimulus":1,"robot":3,"valence":"lose","action":"go","sham":0,"trial_type":"pit-trial","trial_index":35,"time_elapsed":365586,"internal_node_id":"0.0-10.0","task_version":"battery-v0.2-trt","session":2},{"rune":"J","rune_set":"bacs1","hex":"#f73b6a7A","correct":32,"choice":-1,"rt":-1,"accuracy":0,"outcome":"-10","keys":[],"total_keys":0,"block":1,"trial":6,"stimulus":2,"robot":3,"valence":"lose","action":"go","sham":0,"trial_type":"pit-trial","trial_index":36,"time_elapsed":369592,"internal_node_id":"0.0-11.0","task_version":"battery-v0.2-trt","session":2},{"rune":"R","rune_set":"bacs1","hex":"#3366ff99","correct":32,"choice":32,"rt":847.9250001255423,"accuracy":1,"outcome":"+10","keys":[2349.5899999979883],"total_keys":1,"block":1,"trial":7,"stimulus":3,"robot":1,"valence":"win","action":"go","sham":0,"trial_type":"pit-trial","trial_index":37,"time_elapsed":373148,"internal_node_id":"0.0-12.0","task_version":"battery-v0.2-trt","session":2},{"rune":"B","rune_set":"bacs1","hex":"#f73b6a7A","correct":-1,"choice":-1,"rt":-1,"accuracy":1,"outcome":"-1","keys":[],"total_keys":0,"block":1,"trial":8,"stimulus":0,"robot":4,"valence":"lose","action":"no-go","sham":0,"trial_type":"pit-trial","trial_index":38,"time_elapsed":377154,"internal_node_id":"0.0-13.0","task_version":"battery-v0.2-trt","session":2},{"rune":"J","rune_set":"bacs1","hex":"#f73b6a7A","correct":32,"choice":32,"rt":798.0849999003112,"accuracy":1,"outcome":"-1","keys":[2298.9750001579523],"total_keys":1,"block":1,"trial":9,"stimulus":2,"robot":3,"valence":"lose","action":"go","sham":0,"trial_type":"pit-trial","trial_index":39,"time_elapsed":380660,"internal_node_id":"0.0-14.0","task_version":"battery-v0.2-trt","session":2},{"rune":"R","rune_set":"bacs1","hex":"#3366ff99","correct":32,"choice":32,"rt":1061.1050000879914,"accuracy":1,"outcome":"+10","keys":[2561.4700000733137],"total_keys":1,"block":1,"trial":10,"stimulus":3,"robot":1,"valence":"win","action":"go","sham":0,"trial_type":"pit-trial","trial_index":40,"time_elapsed":384427,"internal_node_id":"0.0-15.0","task_version":"battery-v0.2-trt","session":2},{"rune":"B","rune_set":"bacs1","hex":"#f73b6a7A","correct":-1,"choice":-1,"rt":-1,"accuracy":1,"outcome":"-1","keys":[],"total_keys":0,"block":1,"trial":11,"stimulus":0,"robot":4,"valence":"lose","action":"no-go","sham":0,"trial_type":"pit-trial","trial_index":41,"time_elapsed":388433,"internal_node_id":"0.0-16.0","task_version":"battery-v0.2-trt","session":2},{"rune":"Z","rune_set":"bacs1","hex":"#f73b6a7A","correct":32,"choice":32,"rt":648.5000001266599,"accuracy":1,"outcome":"-1","keys":[2148.5800000373274],"total_keys":1,"block":1,"trial":12,"stimulus":1,"robot":3,"valence":"lose","action":"go","sham":0,"trial_type":"pit-trial","trial_index":42,"time_elapsed":391787,"internal_node_id":"0.0-17.0","task_version":"battery-v0.2-trt","session":2},{"rune":"R","rune_set":"bacs1","hex":"#3366ff99","correct":32,"choice":32,"rt":861.9849998503923,"accuracy":1,"outcome":"+10","keys":[2362.304999958724],"total_keys":1,"block":1,"trial":13,"stimulus":3,"robot":1,"valence":"win","action":"go","sham":0,"trial_type":"pit-trial","trial_index":43,"time_elapsed":395355,"internal_node_id":"0.0-18.0","task_version":"battery-v0.2-trt","session":2},{"rune":"J","rune_set":"bacs1","hex":"#f73b6a7A","correct":32,"choice":32,"rt":909.565000096336,"accuracy":1,"outcome":"-1","keys":[2410.0799998268485],"total_keys":1,"block":1,"trial":14,"stimulus":2,"robot":3,"valence":"lose","action":"go","sham":0,"trial_type":"pit-trial","trial_index":44,"time_elapsed":398970,"internal_node_id":"0.0-19.0","task_version":"battery-v0.2-trt","session":2},{"rune":"B","rune_set":"bacs1","hex":"#f73b6a7A","correct":-1,"choice":-1,"rt":-1,"accuracy":1,"outcome":"-1","keys":[],"total_keys":0,"block":1,"trial":15,"stimulus":0,"robot":4,"valence":"lose","action":"no-go","sham":0,"trial_type":"pit-trial","trial_index":45,"time_elapsed":402977,"internal_node_id":"0.0-20.0","task_version":"battery-v0.2-trt","session":2},{"rune":"Z","rune_set":"bacs1","hex":"#f73b6a7A","correct":32,"choice":32,"rt":591.8099998962134,"accuracy":1,"outcome":"-1","keys":[2091.895000077784],"total_keys":1,"block":1,"trial":16,"stimulus":1,"robot":3,"valence":"lose","action":"go","sham":0,"trial_type":"pit-trial","trial_index":46,"time_elapsed":406275,"internal_node_id":"0.0-21.0","task_version":"battery-v0.2-trt","session":2},{"rune":"Z","rune_set":"bacs1","hex":"#f73b6a7A","correct":32,"choice":32,"rt":781.1949998140335,"accuracy":1,"outcome":"-10","keys":[2281.859999988228],"total_keys":1,"block":1,"trial":17,"stimulus":1,"robot":3,"valence":"lose","action":"go","sham":1,"trial_type":"pit-trial","trial_index":47,"time_elapsed":409763,"internal_node_id":"0.0-22.0","task_version":"battery-v0.2-trt","session":2},{"rune":"B","rune_set":"bacs1","hex":"#f73b6a7A","correct":-1,"choice":-1,"rt":-1,"accuracy":1,"outcome":"-1","keys":[],"total_keys":0,"block":1,"trial":18,"stimulus":0,"robot":4,"valence":"lose","action":"no-go","sham":0,"trial_type":"pit-trial","trial_index":48,"time_elapsed":413768,"internal_node_id":"0.0-23.0","task_version":"battery-v0.2-trt","session":2},{"rune":"J","rune_set":"bacs1","hex":"#f73b6a7A","correct":32,"choice":32,"rt":608.5149999707937,"accuracy":1,"outcome":"-10","keys":[2109.080000082031],"total_keys":1,"block":1,"trial":19,"stimulus":2,"robot":3,"valence":"lose","action":"go","sham":1,"trial_type":"pit-trial","trial_index":49,"time_elapsed":417083,"internal_node_id":"0.0-24.0","task_version":"battery-v0.2-trt","session":2},{"rune":"R","rune_set":"bacs1","hex":"#3366ff99","correct":32,"choice":32,"rt":765.0699999649078,"accuracy":1,"outcome":"+10","keys":[2266.760000027716],"total_keys":1,"block":1,"trial":20,"stimulus":3,"robot":1,"valence":"win","action":"go","sham":0,"trial_type":"pit-trial","trial_index":50,"time_elapsed":420554,"internal_node_id":"0.0-25.0","task_version":"battery-v0.2-trt","session":2},{"rune":"R","rune_set":"bacs1","hex":"#3366ff99","correct":32,"choice":32,"rt":526.1949999257922,"accuracy":1,"outcome":"+10","keys":[2026.9100000150502],"total_keys":1,"block":1,"trial":21,"stimulus":3,"robot":1,"valence":"win","action":"go","sham":0,"trial_type":"pit-trial","trial_index":51,"time_elapsed":423787,"internal_node_id":"0.0-26.0","task_version":"battery-v0.2-trt","session":2},{"rune":"J","rune_set":"bacs1","hex":"#f73b6a7A","correct":32,"choice":32,"rt":686.225000070408,"accuracy":1,"outcome":"-1","keys":[2186.6000001318753],"total_keys":1,"block":1,"trial":22,"stimulus":2,"robot":3,"valence":"lose","action":"go","sham":0,"trial_type":"pit-trial","trial_index":52,"time_elapsed":427178,"internal_node_id":"0.0-27.0","task_version":"battery-v0.2-trt","session":2},{"rune":"B","rune_set":"bacs1","hex":"#f73b6a7A","correct":-1,"choice":-1,"rt":-1,"accuracy":1,"outcome":"-1","keys":[],"total_keys":0,"block":1,"trial":23,"stimulus":0,"robot":4,"valence":"lose","action":"no-go","sham":0,"trial_type":"pit-trial","trial_index":53,"time_elapsed":431198,"internal_node_id":"0.0-28.0","task_version":"battery-v0.2-trt","session":2},{"rune":"Z","rune_set":"bacs1","hex":"#f73b6a7A","correct":32,"choice":32,"rt":682.7850001864135,"accuracy":1,"outcome":"-1","keys":[2183.3599999081343],"total_keys":1,"block":1,"trial":24,"stimulus":1,"robot":3,"valence":"lose","action":"go","sham":0,"trial_type":"pit-trial","trial_index":54,"time_elapsed":434587,"internal_node_id":"0.0-29.0","task_version":"battery-v0.2-trt","session":2},{"rune":"R","rune_set":"bacs1","hex":"#3366ff99","correct":32,"choice":32,"rt":702.0900000352412,"accuracy":1,"outcome":"+10","keys":[2202.85000000149],"total_keys":1,"block":1,"trial":25,"stimulus":3,"robot":1,"valence":"win","action":"go","sham":0,"trial_type":"pit-trial","trial_index":55,"time_elapsed":437995,"internal_node_id":"0.0-30.0","task_version":"battery-v0.2-trt","session":2},{"rune":"J","rune_set":"bacs1","hex":"#f73b6a7A","correct":32,"choice":32,"rt":589.4399997778237,"accuracy":1,"outcome":"-10","keys":[2090.684999944642],"total_keys":1,"block":1,"trial":26,"stimulus":2,"robot":3,"valence":"lose","action":"go","sham":1,"trial_type":"pit-trial","trial_index":56,"time_elapsed":441290,"internal_node_id":"0.0-31.0","task_version":"battery-v0.2-trt","session":2},{"rune":"Z","rune_set":"bacs1","hex":"#f73b6a7A","correct":32,"choice":32,"rt":878.5650001373142,"accuracy":1,"outcome":"-1","keys":[2378.969999961555],"total_keys":1,"block":1,"trial":27,"stimulus":1,"robot":3,"valence":"lose","action":"go","sham":0,"trial_type":"pit-trial","trial_index":57,"time_elapsed":444874,"internal_node_id":"0.0-32.0","task_version":"battery-v0.2-trt","session":2},{"rune":"B","rune_set":"bacs1","hex":"#f73b6a7A","correct":-1,"choice":-1,"rt":-1,"accuracy":1,"outcome":"-1","keys":[],"total_keys":0,"block":1,"trial":28,"stimulus":0,"robot":4,"valence":"lose","action":"no-go","sham":0,"trial_type":"pit-trial","trial_index":58,"time_elapsed":448887,"internal_node_id":"0.0-33.0","task_version":"battery-v0.2-trt","session":2},{"rune":"R","rune_set":"bacs1","hex":"#3366ff99","correct":32,"choice":32,"rt":537.8499999642372,"accuracy":1,"outcome":"+1","keys":[2038.444999838248],"total_keys":1,"block":1,"trial":29,"stimulus":3,"robot":1,"valence":"win","action":"go","sham":1,"trial_type":"pit-trial","trial_index":59,"time_elapsed":452132,"internal_node_id":"0.0-34.0","task_version":"battery-v0.2-trt","session":2},{"rune":"B","rune_set":"bacs1","hex":"#f73b6a7A","correct":-1,"choice":-1,"rt":-1,"accuracy":1,"outcome":"-1","keys":[],"total_keys":0,"block":1,"trial":30,"stimulus":0,"robot":4,"valence":"lose","action":"no-go","sham":0,"trial_type":"pit-trial","trial_index":60,"time_elapsed":456138,"internal_node_id":"0.0-35.0","task_version":"battery-v0.2-trt","session":2},{"rune":"Z","rune_set":"bacs1","hex":"#f73b6a7A","correct":32,"choice":32,"rt":654.7900000587106,"accuracy":1,"outcome":"-1","keys":[2154.8450000118464],"total_keys":1,"block":1,"trial":31,"stimulus":1,"robot":3,"valence":"lose","action":"go","sham":0,"trial_type":"pit-trial","trial_index":61,"time_elapsed":459499,"internal_node_id":"0.0-36.0","task_version":"battery-v0.2-trt","session":2},{"rune":"J","rune_set":"bacs1","hex":"#f73b6a7A","correct":32,"choice":32,"rt":652.5749999564141,"accuracy":1,"outcome":"-10","keys":[2154.425000073388],"total_keys":1,"block":1,"trial":32,"stimulus":2,"robot":3,"valence":"lose","action":"go","sham":1,"trial_type":"pit-trial","trial_index":62,"time_elapsed":462859,"internal_node_id":"0.0-37.0","task_version":"battery-v0.2-trt","session":2},{"rune":"R","rune_set":"bacs1","hex":"#3366ff99","correct":32,"choice":32,"rt":684.5599999651313,"accuracy":1,"outcome":"+1","keys":[2186.1750001553446],"total_keys":1,"block":1,"trial":33,"stimulus":3,"robot":1,"valence":"win","action":"go","sham":1,"trial_type":"pit-trial","trial_index":63,"time_elapsed":466251,"internal_node_id":"0.0-38.0","task_version":"battery-v0.2-trt","session":2},{"rune":"Z","rune_set":"bacs1","hex":"#f73b6a7A","correct":32,"choice":32,"rt":821.8300000298768,"accuracy":1,"outcome":"-1","keys":[2322.304999921471],"total_keys":1,"block":1,"trial":34,"stimulus":1,"robot":3,"valence":"lose","action":"go","sham":0,"trial_type":"pit-trial","trial_index":64,"time_elapsed":469779,"internal_node_id":"0.0-39.0","task_version":"battery-v0.2-trt","session":2},{"rune":"V","rune_set":"bacs1","hex":"#f73b6a7A","correct":-1,"choice":32,"rt":796.4550000615418,"accuracy":0,"outcome":"-1","keys":[2296.8049999326468],"total_keys":1,"block":1,"trial":35,"stimulus":4,"robot":4,"valence":"lose","action":"no-go","sham":1,"trial_type":"pit-trial","trial_index":65,"time_elapsed":473284,"internal_node_id":"0.0-40.0","task_version":"battery-v0.2-trt","session":2},{"rune":"B","rune_set":"bacs1","hex":"#f73b6a7A","correct":-1,"choice":-1,"rt":-1,"accuracy":1,"outcome":"-10","keys":[],"total_keys":0,"block":1,"trial":36,"stimulus":0,"robot":4,"valence":"lose","action":"no-go","sham":1,"trial_type":"pit-trial","trial_index":66,"time_elapsed":477296,"internal_node_id":"0.0-41.0","task_version":"battery-v0.2-trt","session":2},{"rune":"Z","rune_set":"bacs1","hex":"#f73b6a7A","correct":32,"choice":32,"rt":641.2949999794364,"accuracy":1,"outcome":"-1","keys":[2141.3249999750406],"total_keys":1,"block":1,"trial":37,"stimulus":1,"robot":3,"valence":"lose","action":"go","sham":0,"trial_type":"pit-trial","trial_index":67,"time_elapsed":480643,"internal_node_id":"0.0-42.0","task_version":"battery-v0.2-trt","session":2},{"rune":"B","rune_set":"bacs1","hex":"#f73b6a7A","correct":-1,"choice":-1,"rt":-1,"accuracy":1,"outcome":"-1","keys":[],"total_keys":0,"block":1,"trial":38,"stimulus":0,"robot":4,"valence":"lose","action":"no-go","sham":0,"trial_type":"pit-trial","trial_index":68,"time_elapsed":484649,"internal_node_id":"0.0-43.0","task_version":"battery-v0.2-trt","session":2},{"rune":"V","rune_set":"bacs1","hex":"#f73b6a7A","correct":-1,"choice":32,"rt":711.2350000534207,"accuracy":0,"outcome":"-10","keys":[2212.1550000738353],"total_keys":1,"block":1,"trial":39,"stimulus":4,"robot":4,"valence":"lose","action":"no-go","sham":0,"trial_type":"pit-trial","trial_index":69,"time_elapsed":488067,"internal_node_id":"0.0-44.0","task_version":"battery-v0.2-trt","session":2},{"rune":"R","rune_set":"bacs1","hex":"#3366ff99","correct":32,"choice":32,"rt":750.3549999091774,"accuracy":1,"outcome":"+10","keys":[2250.4350000526756],"total_keys":1,"block":1,"trial":40,"stimulus":3,"robot":1,"valence":"win","action":"go","sham":0,"trial_type":"pit-trial","trial_index":70,"time_elapsed":491524,"internal_node_id":"0.0-45.0","task_version":"battery-v0.2-trt","session":2},{"rune":"Z","rune_set":"bacs1","hex":"#f73b6a7A","correct":32,"choice":32,"rt":748.4750000294298,"accuracy":1,"outcome":"-1","keys":[2250.214999774471],"total_keys":1,"block":1,"trial":41,"stimulus":1,"robot":3,"valence":"lose","action":"go","sham":0,"trial_type":"pit-trial","trial_index":71,"time_elapsed":494979,"internal_node_id":"0.0-46.0","task_version":"battery-v0.2-trt","session":2},{"rune":"V","rune_set":"bacs1","hex":"#f73b6a7A","correct":-1,"choice":32,"rt":982.4500000104308,"accuracy":0,"outcome":"-10","keys":[2482.730000047013],"total_keys":1,"block":1,"trial":42,"stimulus":4,"robot":4,"valence":"lose","action":"no-go","sham":0,"trial_type":"pit-trial","trial_index":72,"time_elapsed":498667,"internal_node_id":"0.0-47.0","task_version":"battery-v0.2-trt","session":2},{"rune":"B","rune_set":"bacs1","hex":"#f73b6a7A","correct":-1,"choice":-1,"rt":-1,"accuracy":1,"outcome":"-1","keys":[],"total_keys":0,"block":1,"trial":43,"stimulus":0,"robot":4,"valence":"lose","action":"no-go","sham":0,"trial_type":"pit-trial","trial_index":73,"time_elapsed":502674,"internal_node_id":"0.0-48.0","task_version":"battery-v0.2-trt","session":2},{"rune":"E","rune_set":"bacs1","hex":"#3366ff99","correct":-1,"choice":32,"rt":783.1349999178201,"accuracy":0,"outcome":"+1","keys":[2283.2750000525266],"total_keys":1,"block":1,"trial":44,"stimulus":5,"robot":2,"valence":"win","action":"no-go","sham":0,"trial_type":"pit-trial","trial_index":74,"time_elapsed":506163,"internal_node_id":"0.0-49.0","task_version":"battery-v0.2-trt","session":2},{"rune":"B","rune_set":"bacs1","hex":"#f73b6a7A","correct":-1,"choice":-1,"rt":-1,"accuracy":1,"outcome":"-1","keys":[],"total_keys":0,"block":1,"trial":45,"stimulus":0,"robot":4,"valence":"lose","action":"no-go","sham":0,"trial_type":"pit-trial","trial_index":75,"time_elapsed":510169,"internal_node_id":"0.0-50.0","task_version":"battery-v0.2-trt","session":2},{"rune":"V","rune_set":"bacs1","hex":"#f73b6a7A","correct":-1,"choice":-1,"rt":-1,"accuracy":1,"outcome":"-1","keys":[3028.470000019297],"total_keys":1,"block":1,"trial":46,"stimulus":4,"robot":4,"valence":"lose","action":"no-go","sham":0,"trial_type":"pit-trial","trial_index":76,"time_elapsed":514177,"internal_node_id":"0.0-51.0","task_version":"battery-v0.2-trt","session":2},{"rune":"E","rune_set":"bacs1","hex":"#3366ff99","correct":-1,"choice":32,"rt":887.4699999578297,"accuracy":0,"outcome":"+1","keys":[2388.455000007525],"total_keys":1,"block":1,"trial":47,"stimulus":5,"robot":2,"valence":"win","action":"no-go","sham":0,"trial_type":"pit-trial","trial_index":77,"time_elapsed":517771,"internal_node_id":"0.0-52.0","task_version":"battery-v0.2-trt","session":2},{"rune":"Z","rune_set":"bacs1","hex":"#f73b6a7A","correct":32,"choice":32,"rt":581.8149999249727,"accuracy":1,"outcome":"-10","keys":[2082.0250001270324],"total_keys":1,"block":1,"trial":48,"stimulus":1,"robot":3,"valence":"lose","action":"go","sham":1,"trial_type":"pit-trial","trial_index":78,"time_elapsed":521059,"internal_node_id":"0.0-53.0","task_version":"battery-v0.2-trt","session":2},{"rune":"E","rune_set":"bacs1","hex":"#3366ff99","correct":-1,"choice":-1,"rt":-1,"accuracy":1,"outcome":"+10","keys":[],"total_keys":0,"block":1,"trial":49,"stimulus":5,"robot":2,"valence":"win","action":"no-go","sham":0,"trial_type":"pit-trial","trial_index":79,"time_elapsed":525066,"internal_node_id":"0.0-54.0","task_version":"battery-v0.2-trt","session":2},{"rune":"F","rune_set":"bacs1","hex":"#3366ff99","correct":32,"choice":32,"rt":686.9149999693036,"accuracy":1,"outcome":"+10","keys":[2187.75499984622],"total_keys":1,"block":1,"trial":50,"stimulus":7,"robot":1,"valence":"win","action":"go","sham":0,"trial_type":"pit-trial","trial_index":80,"time_elapsed":528458,"internal_node_id":"0.0-55.0","task_version":"battery-v0.2-trt","session":2},{"rune":"V","rune_set":"bacs1","hex":"#f73b6a7A","correct":-1,"choice":32,"rt":1014.5000000484288,"accuracy":0,"outcome":"-10","keys":[2514.9449999444187],"total_keys":1,"block":1,"trial":51,"stimulus":4,"robot":4,"valence":"lose","action":"no-go","sham":0,"trial_type":"pit-trial","trial_index":81,"time_elapsed":532179,"internal_node_id":"0.0-56.0","task_version":"battery-v0.2-trt","session":2},{"rune":"T","rune_set":"bacs1","hex":"#f73b6a7A","correct":-1,"choice":32,"rt":716.5649998933077,"accuracy":0,"outcome":"-1","keys":[2217.8800001274794],"total_keys":1,"block":1,"trial":52,"stimulus":6,"robot":4,"valence":"lose","action":"no-go","sham":1,"trial_type":"pit-trial","trial_index":82,"time_elapsed":535607,"internal_node_id":"0.0-57.0","task_version":"battery-v0.2-trt","session":2},{"rune":"F","rune_set":"bacs1","hex":"#3366ff99","correct":32,"choice":32,"rt":785.0099999923259,"accuracy":1,"outcome":"+10","keys":[2286.019999999553],"total_keys":1,"block":1,"trial":53,"stimulus":7,"robot":1,"valence":"win","action":"go","sham":0,"trial_type":"pit-trial","trial_index":83,"time_elapsed":539099,"internal_node_id":"0.0-58.0","task_version":"battery-v0.2-trt","session":2},{"rune":"V","rune_set":"bacs1","hex":"#f73b6a7A","correct":-1,"choice":-1,"rt":-1,"accuracy":1,"outcome":"-1","keys":[],"total_keys":0,"block":1,"trial":54,"stimulus":4,"robot":4,"valence":"lose","action":"no-go","sham":0,"trial_type":"pit-trial","trial_index":84,"time_elapsed":543105,"internal_node_id":"0.0-59.0","task_version":"battery-v0.2-trt","session":2},{"rune":"T","rune_set":"bacs1","hex":"#f73b6a7A","correct":-1,"choice":32,"rt":711.820000084117,"accuracy":0,"outcome":"-10","keys":[2212.4799999874085],"total_keys":1,"block":1,"trial":55,"stimulus":6,"robot":4,"valence":"lose","action":"no-go","sham":0,"trial_type":"pit-trial","trial_index":85,"time_elapsed":546523,"internal_node_id":"0.0-60.0","task_version":"battery-v0.2-trt","session":2},{"rune":"E","rune_set":"bacs1","hex":"#3366ff99","correct":-1,"choice":-1,"rt":-1,"accuracy":1,"outcome":"+10","keys":[],"total_keys":0,"block":1,"trial":56,"stimulus":5,"robot":2,"valence":"win","action":"no-go","sham":0,"trial_type":"pit-trial","trial_index":86,"time_elapsed":550529,"internal_node_id":"0.0-61.0","task_version":"battery-v0.2-trt","session":2},{"rune":"V","rune_set":"bacs1","hex":"#f73b6a7A","correct":-1,"choice":-1,"rt":-1,"accuracy":1,"outcome":"-10","keys":[],"total_keys":0,"block":1,"trial":57,"stimulus":4,"robot":4,"valence":"lose","action":"no-go","sham":1,"trial_type":"pit-trial","trial_index":87,"time_elapsed":554536,"internal_node_id":"0.0-62.0","task_version":"battery-v0.2-trt","session":2},{"rune":"F","rune_set":"bacs1","hex":"#3366ff99","correct":32,"choice":32,"rt":752.9200001154095,"accuracy":1,"outcome":"+10","keys":[2253.4250000026077],"total_keys":1,"block":1,"trial":58,"stimulus":7,"robot":1,"valence":"win","action":"go","sham":0,"trial_type":"pit-trial","trial_index":88,"time_elapsed":557995,"internal_node_id":"0.0-63.0","task_version":"battery-v0.2-trt","session":2},{"rune":"E","rune_set":"bacs1","hex":"#3366ff99","correct":-1,"choice":-1,"rt":-1,"accuracy":1,"outcome":"+10","keys":[],"total_keys":0,"block":1,"trial":59,"stimulus":5,"robot":2,"valence":"win","action":"no-go","sham":0,"trial_type":"pit-trial","trial_index":89,"time_elapsed":562001,"internal_node_id":"0.0-64.0","task_version":"battery-v0.2-trt","session":2},{"rune":"T","rune_set":"bacs1","hex":"#f73b6a7A","correct":-1,"choice":32,"rt":910.5650000274181,"accuracy":0,"outcome":"-1","keys":[2412.2750000096858],"total_keys":1,"block":1,"trial":60,"stimulus":6,"robot":4,"valence":"lose","action":"no-go","sham":1,"trial_type":"pit-trial","trial_index":90,"time_elapsed":565619,"internal_node_id":"0.0-65.0","task_version":"battery-v0.2-trt","session":2},{"rune":"E","rune_set":"bacs1","hex":"#3366ff99","correct":-1,"choice":-1,"rt":-1,"accuracy":1,"outcome":"+10","keys":[],"total_keys":0,"block":1,"trial":61,"stimulus":5,"robot":2,"valence":"win","action":"no-go","sham":0,"trial_type":"pit-trial","trial_index":91,"time_elapsed":569626,"internal_node_id":"0.0-66.0","task_version":"battery-v0.2-trt","session":2},{"rune":"F","rune_set":"bacs1","hex":"#3366ff99","correct":32,"choice":32,"rt":855.4000000003725,"accuracy":1,"outcome":"+10","keys":[2355.470000067726],"total_keys":1,"block":1,"trial":62,"stimulus":7,"robot":1,"valence":"win","action":"go","sham":0,"trial_type":"pit-trial","trial_index":92,"time_elapsed":573187,"internal_node_id":"0.0-67.0","task_version":"battery-v0.2-trt","session":2},{"rune":"V","rune_set":"bacs1","hex":"#f73b6a7A","correct":-1,"choice":-1,"rt":-1,"accuracy":1,"outcome":"-1","keys":[],"total_keys":0,"block":1,"trial":63,"stimulus":4,"robot":4,"valence":"lose","action":"no-go","sham":0,"trial_type":"pit-trial","trial_index":93,"time_elapsed":577193,"internal_node_id":"0.0-68.0","task_version":"battery-v0.2-trt","session":2},{"rune":"T","rune_set":"bacs1","hex":"#f73b6a7A","correct":-1,"choice":-1,"rt":-1,"accuracy":1,"outcome":"-1","keys":[],"total_keys":0,"block":1,"trial":64,"stimulus":6,"robot":4,"valence":"lose","action":"no-go","sham":0,"trial_type":"pit-trial","trial_index":94,"time_elapsed":581200,"internal_node_id":"0.0-69.0","task_version":"battery-v0.2-trt","session":2},{"rune":"V","rune_set":"bacs1","hex":"#f73b6a7A","correct":-1,"choice":-1,"rt":-1,"accuracy":1,"outcome":"-1","keys":[],"total_keys":0,"block":1,"trial":65,"stimulus":4,"robot":4,"valence":"lose","action":"no-go","sham":0,"trial_type":"pit-trial","trial_index":95,"time_elapsed":585206,"internal_node_id":"0.0-70.0","task_version":"battery-v0.2-trt","session":2},{"rune":"T","rune_set":"bacs1","hex":"#f73b6a7A","correct":-1,"choice":-1,"rt":-1,"accuracy":1,"outcome":"-1","keys":[],"total_keys":0,"block":1,"trial":66,"stimulus":6,"robot":4,"valence":"lose","action":"no-go","sham":0,"trial_type":"pit-trial","trial_index":96,"time_elapsed":589213,"internal_node_id":"0.0-71.0","task_version":"battery-v0.2-trt","session":2},{"rune":"F","rune_set":"bacs1","hex":"#3366ff99","correct":32,"choice":32,"rt":604.435000102967,"accuracy":1,"outcome":"+10","keys":[2104.625000152737],"total_keys":1,"block":1,"trial":67,"stimulus":7,"robot":1,"valence":"win","action":"go","sham":0,"trial_type":"pit-trial","trial_index":97,"time_elapsed":592523,"internal_node_id":"0.0-72.0","task_version":"battery-v0.2-trt","session":2},{"rune":"E","rune_set":"bacs1","hex":"#3366ff99","correct":-1,"choice":-1,"rt":-1,"accuracy":1,"outcome":"+10","keys":[],"total_keys":0,"block":1,"trial":68,"stimulus":5,"robot":2,"valence":"win","action":"no-go","sham":0,"trial_type":"pit-trial","trial_index":98,"time_elapsed":596530,"internal_node_id":"0.0-73.0","task_version":"battery-v0.2-trt","session":2},{"rune":"F","rune_set":"bacs1","hex":"#3366ff99","correct":32,"choice":32,"rt":646.100000012666,"accuracy":1,"outcome":"+10","keys":[2147.0600001048297],"total_keys":1,"block":1,"trial":69,"stimulus":7,"robot":1,"valence":"win","action":"go","sham":0,"trial_type":"pit-trial","trial_index":99,"time_elapsed":599883,"internal_node_id":"0.0-74.0","task_version":"battery-v0.2-trt","session":2},{"rune":"T","rune_set":"bacs1","hex":"#f73b6a7A","correct":-1,"choice":-1,"rt":-1,"accuracy":1,"outcome":"-1","keys":[],"total_keys":0,"block":1,"trial":70,"stimulus":6,"robot":4,"valence":"lose","action":"no-go","sham":0,"trial_type":"pit-trial","trial_index":100,"time_elapsed":603889,"internal_node_id":"0.0-75.0","task_version":"battery-v0.2-trt","session":2},{"rune":"E","rune_set":"bacs1","hex":"#3366ff99","correct":-1,"choice":-1,"rt":-1,"accuracy":1,"outcome":"+10","keys":[],"total_keys":0,"block":1,"trial":71,"stimulus":5,"robot":2,"valence":"win","action":"no-go","sham":0,"trial_type":"pit-trial","trial_index":101,"time_elapsed":607895,"internal_node_id":"0.0-76.0","task_version":"battery-v0.2-trt","session":2},{"rune":"V","rune_set":"bacs1","hex":"#f73b6a7A","correct":-1,"choice":-1,"rt":-1,"accuracy":1,"outcome":"-10","keys":[],"total_keys":0,"block":1,"trial":72,"stimulus":4,"robot":4,"valence":"lose","action":"no-go","sham":1,"trial_type":"pit-trial","trial_index":102,"time_elapsed":611903,"internal_node_id":"0.0-77.0","task_version":"battery-v0.2-trt","session":2},{"rune":"E","rune_set":"bacs1","hex":"#3366ff99","correct":-1,"choice":-1,"rt":-1,"accuracy":1,"outcome":"+10","keys":[],"total_keys":0,"block":1,"trial":73,"stimulus":5,"robot":2,"valence":"win","action":"no-go","sham":0,"trial_type":"pit-trial","trial_index":103,"time_elapsed":615908,"internal_node_id":"0.0-78.0","task_version":"battery-v0.2-trt","session":2},{"rune":"F","rune_set":"bacs1","hex":"#3366ff99","correct":32,"choice":32,"rt":668.6299999710172,"accuracy":1,"outcome":"+10","keys":[2169.099999824539],"total_keys":1,"block":1,"trial":74,"stimulus":7,"robot":1,"valence":"win","action":"go","sham":0,"trial_type":"pit-trial","trial_index":104,"time_elapsed":619283,"internal_node_id":"0.0-79.0","task_version":"battery-v0.2-trt","session":2},{"rune":"A","rune_set":"bacs1","hex":"#3366ff99","correct":32,"choice":32,"rt":718.0600001011044,"accuracy":1,"outcome":"+10","keys":[2218.3349998667836],"total_keys":1,"block":1,"trial":75,"stimulus":8,"robot":1,"valence":"win","action":"go","sham":0,"trial_type":"pit-trial","trial_index":105,"time_elapsed":622707,"internal_node_id":"0.0-80.0","task_version":"battery-v0.2-trt","session":2},{"rune":"T","rune_set":"bacs1","hex":"#f73b6a7A","correct":-1,"choice":-1,"rt":-1,"accuracy":1,"outcome":"-1","keys":[],"total_keys":0,"block":1,"trial":76,"stimulus":6,"robot":4,"valence":"lose","action":"no-go","sham":0,"trial_type":"pit-trial","trial_index":106,"time_elapsed":626714,"internal_node_id":"0.0-81.0","task_version":"battery-v0.2-trt","session":2},{"rune":"T","rune_set":"bacs1","hex":"#f73b6a7A","correct":-1,"choice":-1,"rt":-1,"accuracy":1,"outcome":"-1","keys":[],"total_keys":0,"block":1,"trial":77,"stimulus":6,"robot":4,"valence":"lose","action":"no-go","sham":0,"trial_type":"pit-trial","trial_index":107,"time_elapsed":630722,"internal_node_id":"0.0-82.0","task_version":"battery-v0.2-trt","session":2},{"rune":"E","rune_set":"bacs1","hex":"#3366ff99","correct":-1,"choice":-1,"rt":-1,"accuracy":1,"outcome":"+1","keys":[],"total_keys":0,"block":1,"trial":78,"stimulus":5,"robot":2,"valence":"win","action":"no-go","sham":1,"trial_type":"pit-trial","trial_index":108,"time_elapsed":634727,"internal_node_id":"0.0-83.0","task_version":"battery-v0.2-trt","session":2},{"rune":"A","rune_set":"bacs1","hex":"#3366ff99","correct":32,"choice":32,"rt":681.6899999976158,"accuracy":1,"outcome":"+10","keys":[2181.71999999322],"total_keys":1,"block":1,"trial":79,"stimulus":8,"robot":1,"valence":"win","action":"go","sham":0,"trial_type":"pit-trial","trial_index":109,"time_elapsed":638114,"internal_node_id":"0.0-84.0","task_version":"battery-v0.2-trt","session":2},{"rune":"F","rune_set":"bacs1","hex":"#3366ff99","correct":32,"choice":32,"rt":622.1600000280887,"accuracy":1,"outcome":"+10","keys":[2122.484999941662],"total_keys":1,"block":1,"trial":80,"stimulus":7,"robot":1,"valence":"win","action":"go","sham":0,"trial_type":"pit-trial","trial_index":110,"time_elapsed":641442,"internal_node_id":"0.0-85.0","task_version":"battery-v0.2-trt","session":2},{"rune":"L","rune_set":"bacs1","hex":"#f73b6a7A","correct":32,"choice":32,"rt":774.6349999215454,"accuracy":1,"outcome":"-1","keys":[2275.164999999106],"total_keys":1,"block":1,"trial":81,"stimulus":10,"robot":3,"valence":"lose","action":"go","sham":0,"trial_type":"pit-trial","trial_index":111,"time_elapsed":644923,"internal_node_id":"0.0-86.0","task_version":"battery-v0.2-trt","session":2},{"rune":"C","rune_set":"bacs1","hex":"#3366ff99","correct":-1,"choice":32,"rt":790.074999909848,"accuracy":0,"outcome":"+1","keys":[2290.760000003502],"total_keys":1,"block":1,"trial":82,"stimulus":9,"robot":2,"valence":"win","action":"no-go","sham":0,"trial_type":"pit-trial","trial_index":112,"time_elapsed":648419,"internal_node_id":"0.0-87.0","task_version":"battery-v0.2-trt","session":2},{"rune":"A","rune_set":"bacs1","hex":"#3366ff99","correct":32,"choice":32,"rt":701.4299998991191,"accuracy":1,"outcome":"+1","keys":[2202.1500000264496],"total_keys":1,"block":1,"trial":83,"stimulus":8,"robot":1,"valence":"win","action":"go","sham":1,"trial_type":"pit-trial","trial_index":113,"time_elapsed":651827,"internal_node_id":"0.0-88.0","task_version":"battery-v0.2-trt","session":2},{"rune":"E","rune_set":"bacs1","hex":"#3366ff99","correct":-1,"choice":-1,"rt":-1,"accuracy":1,"outcome":"+10","keys":[],"total_keys":0,"block":1,"trial":84,"stimulus":5,"robot":2,"valence":"win","action":"no-go","sham":0,"trial_type":"pit-trial","trial_index":114,"time_elapsed":655834,"internal_node_id":"0.0-89.0","task_version":"battery-v0.2-trt","session":2},{"rune":"E","rune_set":"bacs1","hex":"#3366ff99","correct":-1,"choice":-1,"rt":-1,"accuracy":1,"outcome":"+10","keys":[],"total_keys":0,"block":1,"trial":85,"stimulus":5,"robot":2,"valence":"win","action":"no-go","sham":0,"trial_type":"pit-trial","trial_index":115,"time_elapsed":659840,"internal_node_id":"0.0-90.0","task_version":"battery-v0.2-trt","session":2},{"rune":"L","rune_set":"bacs1","hex":"#f73b6a7A","correct":32,"choice":32,"rt":1113.134999992326,"accuracy":1,"outcome":"-1","keys":[2613.734999904409],"total_keys":1,"block":1,"trial":86,"stimulus":10,"robot":3,"valence":"lose","action":"go","sham":0,"trial_type":"pit-trial","trial_index":116,"time_elapsed":663659,"internal_node_id":"0.0-91.0","task_version":"battery-v0.2-trt","session":2},{"rune":"A","rune_set":"bacs1","hex":"#3366ff99","correct":32,"choice":-1,"rt":-1,"accuracy":0,"outcome":"+1","keys":[],"total_keys":0,"block":1,"trial":87,"stimulus":8,"robot":1,"valence":"win","action":"go","sham":0,"trial_type":"pit-trial","trial_index":117,"time_elapsed":667667,"internal_node_id":"0.0-92.0","task_version":"battery-v0.2-trt","session":2},{"rune":"C","rune_set":"bacs1","hex":"#3366ff99","correct":-1,"choice":32,"rt":838.3299999404699,"accuracy":0,"outcome":"+1","keys":[2338.7949999887496],"total_keys":1,"block":1,"trial":88,"stimulus":9,"robot":2,"valence":"win","action":"no-go","sham":0,"trial_type":"pit-trial","trial_index":118,"time_elapsed":671211,"internal_node_id":"0.0-93.0","task_version":"battery-v0.2-trt","session":2},{"rune":"Q","rune_set":"bacs1","hex":"#3366ff99","correct":-1,"choice":32,"rt":797.1550000365824,"accuracy":0,"outcome":"+1","keys":[2298.739999998361],"total_keys":1,"block":1,"trial":89,"stimulus":11,"robot":2,"valence":"win","action":"no-go","sham":0,"trial_type":"pit-trial","trial_index":119,"time_elapsed":674715,"internal_node_id":"0.0-94.0","task_version":"battery-v0.2-trt","session":2},{"rune":"A","rune_set":"bacs1","hex":"#3366ff99","correct":32,"choice":-1,"rt":-1,"accuracy":0,"outcome":"+1","keys":[],"total_keys":0,"block":1,"trial":90,"stimulus":8,"robot":1,"valence":"win","action":"go","sham":0,"trial_type":"pit-trial","trial_index":120,"time_elapsed":678730,"internal_node_id":"0.0-95.0","task_version":"battery-v0.2-trt","session":2},{"rune":"C","rune_set":"bacs1","hex":"#3366ff99","correct":-1,"choice":32,"rt":719.5350001566112,"accuracy":0,"outcome":"+1","keys":[2219.7450001258403],"total_keys":1,"block":1,"trial":91,"stimulus":9,"robot":2,"valence":"win","action":"no-go","sham":0,"trial_type":"pit-trial","trial_index":121,"time_elapsed":682155,"internal_node_id":"0.0-96.0","task_version":"battery-v0.2-trt","session":2},{"rune":"L","rune_set":"bacs1","hex":"#f73b6a7A","correct":32,"choice":32,"rt":836.8899999186397,"accuracy":1,"outcome":"-1","keys":[2338.6999999638647],"total_keys":1,"block":1,"trial":92,"stimulus":10,"robot":3,"valence":"lose","action":"go","sham":0,"trial_type":"pit-trial","trial_index":122,"time_elapsed":685699,"internal_node_id":"0.0-97.0","task_version":"battery-v0.2-trt","session":2},{"rune":"A","rune_set":"bacs1","hex":"#3366ff99","correct":32,"choice":-1,"rt":-1,"accuracy":0,"outcome":"+1","keys":[],"total_keys":0,"block":1,"trial":93,"stimulus":8,"robot":1,"valence":"win","action":"go","sham":0,"trial_type":"pit-trial","trial_index":123,"time_elapsed":689706,"internal_node_id":"0.0-98.0","task_version":"battery-v0.2-trt","session":2},{"rune":"Q","rune_set":"bacs1","hex":"#3366ff99","correct":-1,"choice":32,"rt":709.6499998588115,"accuracy":0,"outcome":"+1","keys":[2211.159999947995],"total_keys":1,"block":1,"trial":94,"stimulus":11,"robot":2,"valence":"win","action":"no-go","sham":0,"trial_type":"pit-trial","trial_index":124,"time_elapsed":693123,"internal_node_id":"0.0-99.0","task_version":"battery-v0.2-trt","session":2},{"rune":"C","rune_set":"bacs1","hex":"#3366ff99","correct":-1,"choice":-1,"rt":-1,"accuracy":1,"outcome":"+1","keys":[],"total_keys":0,"block":1,"trial":95,"stimulus":9,"robot":2,"valence":"win","action":"no-go","sham":1,"trial_type":"pit-trial","trial_index":125,"time_elapsed":697129,"internal_node_id":"0.0-100.0","task_version":"battery-v0.2-trt","session":2},{"rune":"L","rune_set":"bacs1","hex":"#f73b6a7A","correct":32,"choice":32,"rt":712.3500001616776,"accuracy":1,"outcome":"-10","keys":[2212.7400001045316],"total_keys":1,"block":1,"trial":96,"stimulus":10,"robot":3,"valence":"lose","action":"go","sham":1,"trial_type":"pit-trial","trial_index":126,"time_elapsed":700547,"internal_node_id":"0.0-101.0","task_version":"battery-v0.2-trt","session":2},{"rune":"A","rune_set":"bacs1","hex":"#3366ff99","correct":32,"choice":32,"rt":805.6850000284612,"accuracy":1,"outcome":"+10","keys":[2306.400000117719],"total_keys":1,"block":1,"trial":97,"stimulus":8,"robot":1,"valence":"win","action":"go","sham":0,"trial_type":"pit-trial","trial_index":127,"time_elapsed":704058,"internal_node_id":"0.0-102.0","task_version":"battery-v0.2-trt","session":2},{"rune":"Q","rune_set":"bacs1","hex":"#3366ff99","correct":-1,"choice":-1,"rt":-1,"accuracy":1,"outcome":"+10","keys":[],"total_keys":0,"block":1,"trial":98,"stimulus":11,"robot":2,"valence":"win","action":"no-go","sham":0,"trial_type":"pit-trial","trial_index":128,"time_elapsed":708066,"internal_node_id":"0.0-103.0","task_version":"battery-v0.2-trt","session":2},{"rune":"L","rune_set":"bacs1","hex":"#f73b6a7A","correct":32,"choice":32,"rt":678.9700000081211,"accuracy":1,"outcome":"-1","keys":[2180.214999942109],"total_keys":1,"block":1,"trial":99,"stimulus":10,"robot":3,"valence":"lose","action":"go","sham":0,"trial_type":"pit-trial","trial_index":129,"time_elapsed":711452,"internal_node_id":"0.0-104.0","task_version":"battery-v0.2-trt","session":2},{"rune":"C","rune_set":"bacs1","hex":"#3366ff99","correct":-1,"choice":-1,"rt":-1,"accuracy":1,"outcome":"+10","keys":[],"total_keys":0,"block":1,"trial":100,"stimulus":9,"robot":2,"valence":"win","action":"no-go","sham":0,"trial_type":"pit-trial","trial_index":130,"time_elapsed":715458,"internal_node_id":"0.0-105.0","task_version":"battery-v0.2-trt","session":2},{"rune":"L","rune_set":"bacs1","hex":"#f73b6a7A","correct":32,"choice":32,"rt":638.4000000543892,"accuracy":1,"outcome":"-1","keys":[2139.8300000000745],"total_keys":1,"block":1,"trial":101,"stimulus":10,"robot":3,"valence":"lose","action":"go","sham":0,"trial_type":"pit-trial","trial_index":131,"time_elapsed":718804,"internal_node_id":"0.0-106.0","task_version":"battery-v0.2-trt","session":2},{"rune":"Q","rune_set":"bacs1","hex":"#3366ff99","correct":-1,"choice":-1,"rt":-1,"accuracy":1,"outcome":"+1","keys":[],"total_keys":0,"block":1,"trial":102,"stimulus":11,"robot":2,"valence":"win","action":"no-go","sham":1,"trial_type":"pit-trial","trial_index":132,"time_elapsed":722810,"internal_node_id":"0.0-107.0","task_version":"battery-v0.2-trt","session":2},{"rune":"A","rune_set":"bacs1","hex":"#3366ff99","correct":32,"choice":32,"rt":1078.5199999809265,"accuracy":1,"outcome":"+10","keys":[2580.4449999704957],"total_keys":1,"block":1,"trial":103,"stimulus":8,"robot":1,"valence":"win","action":"go","sham":0,"trial_type":"pit-trial","trial_index":133,"time_elapsed":726596,"internal_node_id":"0.0-108.0","task_version":"battery-v0.2-trt","session":2},{"rune":"C","rune_set":"bacs1","hex":"#3366ff99","correct":-1,"choice":32,"rt":957.4799998663366,"accuracy":0,"outcome":"+1","keys":[2458.1949999555945],"total_keys":1,"block":1,"trial":104,"stimulus":9,"robot":2,"valence":"win","action":"no-go","sham":0,"trial_type":"pit-trial","trial_index":134,"time_elapsed":730259,"internal_node_id":"0.0-109.0","task_version":"battery-v0.2-trt","session":2},{"rune":"A","rune_set":"bacs1","hex":"#3366ff99","correct":32,"choice":32,"rt":870.3550000209361,"accuracy":1,"outcome":"+10","keys":[2370.3749999403954],"total_keys":1,"block":1,"trial":105,"stimulus":8,"robot":1,"valence":"win","action":"go","sham":0,"trial_type":"pit-trial","trial_index":135,"time_elapsed":733836,"internal_node_id":"0.0-110.0","task_version":"battery-v0.2-trt","session":2},{"rune":"Q","rune_set":"bacs1","hex":"#3366ff99","correct":-1,"choice":-1,"rt":-1,"accuracy":1,"outcome":"+10","keys":[],"total_keys":0,"block":1,"trial":106,"stimulus":11,"robot":2,"valence":"win","action":"no-go","sham":0,"trial_type":"pit-trial","trial_index":136,"time_elapsed":737842,"internal_node_id":"0.0-111.0","task_version":"battery-v0.2-trt","session":2},{"rune":"L","rune_set":"bacs1","hex":"#f73b6a7A","correct":32,"choice":32,"rt":719.6449998300523,"accuracy":1,"outcome":"-10","keys":[2219.6599999442697],"total_keys":1,"block":1,"trial":107,"stimulus":10,"robot":3,"valence":"lose","action":"go","sham":1,"trial_type":"pit-trial","trial_index":137,"time_elapsed":741267,"internal_node_id":"0.0-112.0","task_version":"battery-v0.2-trt","session":2},{"rune":"C","rune_set":"bacs1","hex":"#3366ff99","correct":-1,"choice":-1,"rt":-1,"accuracy":1,"outcome":"+10","keys":[],"total_keys":0,"block":1,"trial":108,"stimulus":9,"robot":2,"valence":"win","action":"no-go","sham":0,"trial_type":"pit-trial","trial_index":138,"time_elapsed":745273,"internal_node_id":"0.0-113.0","task_version":"battery-v0.2-trt","session":2},{"rune":"L","rune_set":"bacs1","hex":"#f73b6a7A","correct":32,"choice":32,"rt":920.2999998815358,"accuracy":1,"outcome":"-1","keys":[2420.7200000528246],"total_keys":1,"block":1,"trial":109,"stimulus":10,"robot":3,"valence":"lose","action":"go","sham":0,"trial_type":"pit-trial","trial_index":139,"time_elapsed":748899,"internal_node_id":"0.0-114.0","task_version":"battery-v0.2-trt","session":2},{"rune":"A","rune_set":"bacs1","hex":"#3366ff99","correct":32,"choice":32,"rt":1086.390000069514,"accuracy":1,"outcome":"+10","keys":[2586.949999909848],"total_keys":1,"block":1,"trial":110,"stimulus":8,"robot":1,"valence":"win","action":"go","sham":0,"trial_type":"pit-trial","trial_index":140,"time_elapsed":752691,"internal_node_id":"0.0-115.0","task_version":"battery-v0.2-trt","session":2},{"rune":"Q","rune_set":"bacs1","hex":"#3366ff99","correct":-1,"choice":32,"rt":790.2699999976903,"accuracy":0,"outcome":"+1","keys":[2290.5950001440942],"total_keys":1,"block":1,"trial":111,"stimulus":11,"robot":2,"valence":"win","action":"no-go","sham":0,"trial_type":"pit-trial","trial_index":141,"time_elapsed":756187,"internal_node_id":"0.0-116.0","task_version":"battery-v0.2-trt","session":2},{"rune":"C","rune_set":"bacs1","hex":"#3366ff99","correct":-1,"choice":32,"rt":821.0749998688698,"accuracy":0,"outcome":"+1","keys":[2322.425000136718],"total_keys":1,"block":1,"trial":112,"stimulus":9,"robot":2,"valence":"win","action":"no-go","sham":0,"trial_type":"pit-trial","trial_index":142,"time_elapsed":759715,"internal_node_id":"0.0-117.0","task_version":"battery-v0.2-trt","session":2},{"rune":"L","rune_set":"bacs1","hex":"#f73b6a7A","correct":32,"choice":32,"rt":638.5300001129508,"accuracy":1,"outcome":"-10","keys":[2138.6900001671165],"total_keys":1,"block":1,"trial":113,"stimulus":10,"robot":3,"valence":"lose","action":"go","sham":1,"trial_type":"pit-trial","trial_index":143,"time_elapsed":763059,"internal_node_id":"0.0-118.0","task_version":"battery-v0.2-trt","session":2},{"rune":"Q","rune_set":"bacs1","hex":"#3366ff99","correct":-1,"choice":32,"rt":724.8299999628216,"accuracy":0,"outcome":"+1","keys":[2226.814999943599],"total_keys":1,"block":1,"trial":114,"stimulus":11,"robot":2,"valence":"win","action":"no-go","sham":0,"trial_type":"pit-trial","trial_index":144,"time_elapsed":766491,"internal_node_id":"0.0-119.0","task_version":"battery-v0.2-trt","session":2},{"rune":"C","rune_set":"bacs1","hex":"#3366ff99","correct":-1,"choice":-1,"rt":-1,"accuracy":1,"outcome":"+10","keys":[],"total_keys":0,"block":1,"trial":115,"stimulus":9,"robot":2,"valence":"win","action":"no-go","sham":0,"trial_type":"pit-trial","trial_index":145,"time_elapsed":770497,"internal_node_id":"0.0-120.0","task_version":"battery-v0.2-trt","session":2},{"rune":"A","rune_set":"bacs1","hex":"#3366ff99","correct":32,"choice":-1,"rt":-1,"accuracy":0,"outcome":"+1","keys":[],"total_keys":0,"block":1,"trial":116,"stimulus":8,"robot":1,"valence":"win","action":"go","sham":0,"trial_type":"pit-trial","trial_index":146,"time_elapsed":774504,"internal_node_id":"0.0-121.0","task_version":"battery-v0.2-trt","session":2},{"rune":"L","rune_set":"bacs1","hex":"#f73b6a7A","correct":32,"choice":32,"rt":648.6100000329316,"accuracy":1,"outcome":"-10","keys":[2149.3250001221895],"total_keys":1,"block":1,"trial":117,"stimulus":10,"robot":3,"valence":"lose","action":"go","sham":1,"trial_type":"pit-trial","trial_index":147,"time_elapsed":777859,"internal_node_id":"0.0-122.0","task_version":"battery-v0.2-trt","session":2},{"rune":"A","rune_set":"bacs1","hex":"#3366ff99","correct":32,"choice":32,"rt":765.2449999004602,"accuracy":1,"outcome":"+10","keys":[2266.1049999296665],"total_keys":1,"block":1,"trial":118,"stimulus":8,"robot":1,"valence":"win","action":"go","sham":0,"trial_type":"pit-trial","trial_index":148,"time_elapsed":781332,"internal_node_id":"0.0-123.0","task_version":"battery-v0.2-trt","session":2},{"rune":"Q","rune_set":"bacs1","hex":"#3366ff99","correct":-1,"choice":-1,"rt":-1,"accuracy":1,"outcome":"+10","keys":[2833.7749999482185],"total_keys":1,"block":1,"trial":119,"stimulus":11,"robot":2,"valence":"win","action":"no-go","sham":0,"trial_type":"pit-trial","trial_index":149,"time_elapsed":785339,"internal_node_id":"0.0-124.0","task_version":"battery-v0.2-trt","session":2},{"rune":"C","rune_set":"bacs1","hex":"#3366ff99","correct":-1,"choice":32,"rt":966.0749998874962,"accuracy":0,"outcome":"+10","keys":[2466.7249999474734],"total_keys":1,"block":1,"trial":120,"stimulus":9,"robot":2,"valence":"win","action":"no-go","sham":1,"trial_type":"pit-trial","trial_index":150,"time_elapsed":789011,"internal_node_id":"0.0-125.0","task_version":"battery-v0.2-trt","session":2},{"view_history":"[{\"page_index\":0,\"viewing_time\":13588.430000003427},{\"page_index\":1,\"viewing_time\":2743.900000117719}]","rt":16332.769999979064,"trial_type":"pit-instructions","trial_index":151,"time_elapsed":805348,"internal_node_id":"0.0-126.0","task_version":"battery-v0.2-trt","session":2},{"rune":"H","rune_set":"bacs1","hex":"#f73b6a7A","correct":32,"choice":32,"rt":939.2999999690801,"accuracy":1,"outcome":"-1","keys":[2440.2600000612438],"total_keys":1,"block":2,"trial":121,"stimulus":1,"robot":3,"valence":"lose","action":"go","sham":0,"trial_type":"pit-trial","trial_index":152,"time_elapsed":808994,"internal_node_id":"0.0-127.0","task_version":"battery-v0.2-trt","session":2},{"rune":"P","rune_set":"bacs1","hex":"#f73b6a7A","correct":-1,"choice":32,"rt":828.8499999325722,"accuracy":0,"outcome":"-10","keys":[2330.8050001505762],"total_keys":1,"block":2,"trial":122,"stimulus":2,"robot":4,"valence":"lose","action":"no-go","sham":0,"trial_type":"pit-trial","trial_index":153,"time_elapsed":812531,"internal_node_id":"0.0-128.0","task_version":"battery-v0.2-trt","session":2},{"rune":"Y","rune_set":"bacs1","hex":"#3366ff99","correct":32,"choice":32,"rt":645.7299999892712,"accuracy":1,"outcome":"+1","keys":[2146.2849997915328],"total_keys":1,"block":2,"trial":123,"stimulus":0,"robot":1,"valence":"win","action":"go","sham":1,"trial_type":"pit-trial","trial_index":154,"time_elapsed":815882,"internal_node_id":"0.0-129.0","task_version":"battery-v0.2-trt","session":2},{"rune":"M","rune_set":"bacs1","hex":"#3366ff99","correct":-1,"choice":32,"rt":765.7550000585616,"accuracy":0,"outcome":"+10","keys":[2266.865000128746],"total_keys":1,"block":2,"trial":124,"stimulus":3,"robot":2,"valence":"win","action":"no-go","sham":1,"trial_type":"pit-trial","trial_index":155,"time_elapsed":819355,"internal_node_id":"0.0-130.0","task_version":"battery-v0.2-trt","session":2},{"rune":"Y","rune_set":"bacs1","hex":"#3366ff99","correct":32,"choice":-1,"rt":-1,"accuracy":0,"outcome":"+1","keys":[],"total_keys":0,"block":2,"trial":125,"stimulus":0,"robot":1,"valence":"win","action":"go","sham":0,"trial_type":"pit-trial","trial_index":156,"time_elapsed":823361,"internal_node_id":"0.0-131.0","task_version":"battery-v0.2-trt","session":2},{"rune":"M","rune_set":"bacs1","hex":"#3366ff99","correct":-1,"choice":32,"rt":752.3200002033263,"accuracy":0,"outcome":"+1","keys":[2252.4299998767674],"total_keys":1,"block":2,"trial":126,"stimulus":3,"robot":2,"valence":"win","action":"no-go","sham":0,"trial_type":"pit-trial","trial_index":157,"time_elapsed":826819,"internal_node_id":"0.0-132.0","task_version":"battery-v0.2-trt","session":2},{"rune":"H","rune_set":"bacs1","hex":"#f73b6a7A","correct":32,"choice":32,"rt":812.4899999238551,"accuracy":1,"outcome":"-1","keys":[2314.3599999602884],"total_keys":1,"block":2,"trial":127,"stimulus":1,"robot":3,"valence":"lose","action":"go","sham":0,"trial_type":"pit-trial","trial_index":158,"time_elapsed":830339,"internal_node_id":"0.0-133.0","task_version":"battery-v0.2-trt","session":2},{"rune":"P","rune_set":"bacs1","hex":"#f73b6a7A","correct":-1,"choice":-1,"rt":-1,"accuracy":1,"outcome":"-1","keys":[],"total_keys":0,"block":2,"trial":128,"stimulus":2,"robot":4,"valence":"lose","action":"no-go","sham":0,"trial_type":"pit-trial","trial_index":159,"time_elapsed":834346,"internal_node_id":"0.0-134.0","task_version":"battery-v0.2-trt","session":2},{"rune":"P","rune_set":"bacs1","hex":"#f73b6a7A","correct":-1,"choice":-1,"rt":-1,"accuracy":1,"outcome":"-10","keys":[],"total_keys":0,"block":2,"trial":129,"stimulus":2,"robot":4,"valence":"lose","action":"no-go","sham":1,"trial_type":"pit-trial","trial_index":160,"time_elapsed":838353,"internal_node_id":"0.0-135.0","task_version":"battery-v0.2-trt","session":2},{"rune":"M","rune_set":"bacs1","hex":"#3366ff99","correct":-1,"choice":32,"rt":760.0500001572073,"accuracy":0,"outcome":"+1","keys":[2260.3899999521673],"total_keys":1,"block":2,"trial":130,"stimulus":3,"robot":2,"valence":"win","action":"no-go","sham":0,"trial_type":"pit-trial","trial_index":161,"time_elapsed":841819,"internal_node_id":"0.0-136.0","task_version":"battery-v0.2-trt","session":2},{"rune":"H","rune_set":"bacs1","hex":"#f73b6a7A","correct":32,"choice":32,"rt":846.4200000744313,"accuracy":1,"outcome":"-1","keys":[2346.4900001417845],"total_keys":1,"block":2,"trial":131,"stimulus":1,"robot":3,"valence":"lose","action":"go","sham":0,"trial_type":"pit-trial","trial_index":162,"time_elapsed":845372,"internal_node_id":"0.0-137.0","task_version":"battery-v0.2-trt","session":2},{"rune":"Y","rune_set":"bacs1","hex":"#3366ff99","correct":32,"choice":32,"rt":1028.7550000939518,"accuracy":1,"outcome":"+10","keys":[2529.994999989867],"total_keys":1,"block":2,"trial":132,"stimulus":0,"robot":1,"valence":"win","action":"go","sham":0,"trial_type":"pit-trial","trial_index":163,"time_elapsed":849107,"internal_node_id":"0.0-138.0","task_version":"battery-v0.2-trt","session":2},{"rune":"M","rune_set":"bacs1","hex":"#3366ff99","correct":-1,"choice":-1,"rt":-1,"accuracy":1,"outcome":"+10","keys":[],"total_keys":0,"block":2,"trial":133,"stimulus":3,"robot":2,"valence":"win","action":"no-go","sham":0,"trial_type":"pit-trial","trial_index":164,"time_elapsed":853113,"internal_node_id":"0.0-139.0","task_version":"battery-v0.2-trt","session":2},{"rune":"P","rune_set":"bacs1","hex":"#f73b6a7A","correct":-1,"choice":-1,"rt":-1,"accuracy":1,"outcome":"-1","keys":[],"total_keys":0,"block":2,"trial":134,"stimulus":2,"robot":4,"valence":"lose","action":"no-go","sham":0,"trial_type":"pit-trial","trial_index":165,"time_elapsed":857119,"internal_node_id":"0.0-140.0","task_version":"battery-v0.2-trt","session":2},{"rune":"H","rune_set":"bacs1","hex":"#f73b6a7A","correct":32,"choice":-1,"rt":-1,"accuracy":0,"outcome":"-10","keys":[],"total_keys":0,"block":2,"trial":135,"stimulus":1,"robot":3,"valence":"lose","action":"go","sham":0,"trial_type":"pit-trial","trial_index":166,"time_elapsed":861126,"internal_node_id":"0.0-141.0","task_version":"battery-v0.2-trt","session":2},{"rune":"Y","rune_set":"bacs1","hex":"#3366ff99","correct":32,"choice":32,"rt":922.9049999266863,"accuracy":1,"outcome":"+10","keys":[2423.6599998548627],"total_keys":1,"block":2,"trial":136,"stimulus":0,"robot":1,"valence":"win","action":"go","sham":0,"trial_type":"pit-trial","trial_index":167,"time_elapsed":864755,"internal_node_id":"0.0-142.0","task_version":"battery-v0.2-trt","session":2},{"rune":"M","rune_set":"bacs1","hex":"#3366ff99","correct":-1,"choice":-1,"rt":-1,"accuracy":1,"outcome":"+10","keys":[],"total_keys":0,"block":2,"trial":137,"stimulus":3,"robot":2,"valence":"win","action":"no-go","sham":0,"trial_type":"pit-trial","trial_index":168,"time_elapsed":868761,"internal_node_id":"0.0-143.0","task_version":"battery-v0.2-trt","session":2},{"rune":"H","rune_set":"bacs1","hex":"#f73b6a7A","correct":32,"choice":32,"rt":648.0499999597669,"accuracy":1,"outcome":"-1","keys":[2148.2900001574308],"total_keys":1,"block":2,"trial":138,"stimulus":1,"robot":3,"valence":"lose","action":"go","sham":0,"trial_type":"pit-trial","trial_index":169,"time_elapsed":872115,"internal_node_id":"0.0-144.0","task_version":"battery-v0.2-trt","session":2},{"rune":"Y","rune_set":"bacs1","hex":"#3366ff99","correct":32,"choice":-1,"rt":-1,"accuracy":0,"outcome":"+1","keys":[],"total_keys":0,"block":2,"trial":139,"stimulus":0,"robot":1,"valence":"win","action":"go","sham":0,"trial_type":"pit-trial","trial_index":170,"time_elapsed":876121,"internal_node_id":"0.0-145.0","task_version":"battery-v0.2-trt","session":2},{"rune":"P","rune_set":"bacs1","hex":"#f73b6a7A","correct":-1,"choice":32,"rt":942.5699999555945,"accuracy":0,"outcome":"-10","keys":[2444.0549998544157],"total_keys":1,"block":2,"trial":140,"stimulus":2,"robot":4,"valence":"lose","action":"no-go","sham":0,"trial_type":"pit-trial","trial_index":171,"time_elapsed":879770,"internal_node_id":"0.0-146.0","task_version":"battery-v0.2-trt","session":2},{"rune":"P","rune_set":"bacs1","hex":"#f73b6a7A","correct":-1,"choice":-1,"rt":-1,"accuracy":1,"outcome":"-10","keys":[],"total_keys":0,"block":2,"trial":141,"stimulus":2,"robot":4,"valence":"lose","action":"no-go","sham":1,"trial_type":"pit-trial","trial_index":172,"time_elapsed":883778,"internal_node_id":"0.0-147.0","task_version":"battery-v0.2-trt","session":2},{"rune":"H","rune_set":"bacs1","hex":"#f73b6a7A","correct":32,"choice":32,"rt":559.1049999929965,"accuracy":1,"outcome":"-1","keys":[2059.9049997981638],"total_keys":1,"block":2,"trial":142,"stimulus":1,"robot":3,"valence":"lose","action":"go","sham":0,"trial_type":"pit-trial","trial_index":173,"time_elapsed":887044,"internal_node_id":"0.0-148.0","task_version":"battery-v0.2-trt","session":2},{"rune":"Y","rune_set":"bacs1","hex":"#3366ff99","correct":32,"choice":32,"rt":692.964999936521,"accuracy":1,"outcome":"+10","keys":[2194.270000094548],"total_keys":1,"block":2,"trial":143,"stimulus":0,"robot":1,"valence":"win","action":"go","sham":0,"trial_type":"pit-trial","trial_index":174,"time_elapsed":890443,"internal_node_id":"0.0-149.0","task_version":"battery-v0.2-trt","session":2},{"rune":"M","rune_set":"bacs1","hex":"#3366ff99","correct":-1,"choice":-1,"rt":-1,"accuracy":1,"outcome":"+10","keys":[],"total_keys":0,"block":2,"trial":144,"stimulus":3,"robot":2,"valence":"win","action":"no-go","sham":0,"trial_type":"pit-trial","trial_index":175,"time_elapsed":894449,"internal_node_id":"0.0-150.0","task_version":"battery-v0.2-trt","session":2},{"rune":"P","rune_set":"bacs1","hex":"#f73b6a7A","correct":-1,"choice":-1,"rt":-1,"accuracy":1,"outcome":"-1","keys":[],"total_keys":0,"block":2,"trial":145,"stimulus":2,"robot":4,"valence":"lose","action":"no-go","sham":0,"trial_type":"pit-trial","trial_index":176,"time_elapsed":898456,"internal_node_id":"0.0-151.0","task_version":"battery-v0.2-trt","session":2},{"rune":"H","rune_set":"bacs1","hex":"#f73b6a7A","correct":32,"choice":32,"rt":769.0600000787526,"accuracy":1,"outcome":"-1","keys":[2269.6200001519173],"total_keys":1,"block":2,"trial":146,"stimulus":1,"robot":3,"valence":"lose","action":"go","sham":0,"trial_type":"pit-trial","trial_index":177,"time_elapsed":901932,"internal_node_id":"0.0-152.0","task_version":"battery-v0.2-trt","session":2},{"rune":"Y","rune_set":"bacs1","hex":"#3366ff99","correct":32,"choice":32,"rt":644.7099999058992,"accuracy":1,"outcome":"+10","keys":[2145.5449999775738],"total_keys":1,"block":2,"trial":147,"stimulus":0,"robot":1,"valence":"win","action":"go","sham":0,"trial_type":"pit-trial","trial_index":178,"time_elapsed":905284,"internal_node_id":"0.0-153.0","task_version":"battery-v0.2-trt","session":2},{"rune":"M","rune_set":"bacs1","hex":"#3366ff99","correct":-1,"choice":-1,"rt":-1,"accuracy":1,"outcome":"+1","keys":[],"total_keys":0,"block":2,"trial":148,"stimulus":3,"robot":2,"valence":"win","action":"no-go","sham":1,"trial_type":"pit-trial","trial_index":179,"time_elapsed":909290,"internal_node_id":"0.0-154.0","task_version":"battery-v0.2-trt","session":2},{"rune":"Y","rune_set":"bacs1","hex":"#3366ff99","correct":32,"choice":32,"rt":662.4700000975281,"accuracy":1,"outcome":"+10","keys":[2163.389999885112],"total_keys":1,"block":2,"trial":149,"stimulus":0,"robot":1,"valence":"win","action":"go","sham":0,"trial_type":"pit-trial","trial_index":180,"time_elapsed":912659,"internal_node_id":"0.0-155.0","task_version":"battery-v0.2-trt","session":2},{"rune":"M","rune_set":"bacs1","hex":"#3366ff99","correct":-1,"choice":-1,"rt":-1,"accuracy":1,"outcome":"+10","keys":[],"total_keys":0,"block":2,"trial":150,"stimulus":3,"robot":2,"valence":"win","action":"no-go","sham":0,"trial_type":"pit-trial","trial_index":181,"time_elapsed":916672,"internal_node_id":"0.0-156.0","task_version":"battery-v0.2-trt","session":2},{"rune":"P","rune_set":"bacs1","hex":"#f73b6a7A","correct":-1,"choice":-1,"rt":-1,"accuracy":1,"outcome":"-1","keys":[],"total_keys":0,"block":2,"trial":151,"stimulus":2,"robot":4,"valence":"lose","action":"no-go","sham":0,"trial_type":"pit-trial","trial_index":182,"time_elapsed":920679,"internal_node_id":"0.0-157.0","task_version":"battery-v0.2-trt","session":2},{"rune":"H","rune_set":"bacs1","hex":"#f73b6a7A","correct":32,"choice":32,"rt":705.0799999851733,"accuracy":1,"outcome":"-1","keys":[2206.345000071451],"total_keys":1,"block":2,"trial":152,"stimulus":1,"robot":3,"valence":"lose","action":"go","sham":0,"trial_type":"pit-trial","trial_index":183,"time_elapsed":924092,"internal_node_id":"0.0-158.0","task_version":"battery-v0.2-trt","session":2},{"rune":"Y","rune_set":"bacs1","hex":"#3366ff99","correct":32,"choice":32,"rt":749.5249998755753,"accuracy":1,"outcome":"+10","keys":[2250.0700000673532],"total_keys":1,"block":2,"trial":153,"stimulus":0,"robot":1,"valence":"win","action":"go","sham":0,"trial_type":"pit-trial","trial_index":184,"time_elapsed":927548,"internal_node_id":"0.0-159.0","task_version":"battery-v0.2-trt","session":2},{"rune":"H","rune_set":"bacs1","hex":"#f73b6a7A","correct":32,"choice":32,"rt":661.2500001210719,"accuracy":1,"outcome":"-1","keys":[2161.9199998676777],"total_keys":1,"block":2,"trial":154,"stimulus":1,"robot":3,"valence":"lose","action":"go","sham":0,"trial_type":"pit-trial","trial_index":185,"time_elapsed":930915,"internal_node_id":"0.0-160.0","task_version":"battery-v0.2-trt","session":2},{"rune":"M","rune_set":"bacs1","hex":"#3366ff99","correct":-1,"choice":-1,"rt":-1,"accuracy":1,"outcome":"+10","keys":[],"total_keys":0,"block":2,"trial":155,"stimulus":3,"robot":2,"valence":"win","action":"no-go","sham":0,"trial_type":"pit-trial","trial_index":186,"time_elapsed":934922,"internal_node_id":"0.0-161.0","task_version":"battery-v0.2-trt","session":2},{"rune":"U","rune_set":"bacs1","hex":"#f73b6a7A","correct":-1,"choice":32,"rt":919.4500001613051,"accuracy":0,"outcome":"-10","keys":[2420.0199998449534],"total_keys":1,"block":2,"trial":156,"stimulus":4,"robot":4,"valence":"lose","action":"no-go","sham":0,"trial_type":"pit-trial","trial_index":187,"time_elapsed":938548,"internal_node_id":"0.0-162.0","task_version":"battery-v0.2-trt","session":2},{"rune":"M","rune_set":"bacs1","hex":"#3366ff99","correct":-1,"choice":-1,"rt":-1,"accuracy":1,"outcome":"+10","keys":[],"total_keys":0,"block":2,"trial":157,"stimulus":3,"robot":2,"valence":"win","action":"no-go","sham":0,"trial_type":"pit-trial","trial_index":188,"time_elapsed":942555,"internal_node_id":"0.0-163.0","task_version":"battery-v0.2-trt","session":2},{"rune":"U","rune_set":"bacs1","hex":"#f73b6a7A","correct":-1,"choice":-1,"rt":-1,"accuracy":1,"outcome":"-10","keys":[],"total_keys":0,"block":2,"trial":158,"stimulus":4,"robot":4,"valence":"lose","action":"no-go","sham":1,"trial_type":"pit-trial","trial_index":189,"time_elapsed":946561,"internal_node_id":"0.0-164.0","task_version":"battery-v0.2-trt","session":2},{"rune":"H","rune_set":"bacs1","hex":"#f73b6a7A","correct":32,"choice":32,"rt":711.5800001192838,"accuracy":1,"outcome":"-10","keys":[2212.3849999625236],"total_keys":1,"block":2,"trial":159,"stimulus":1,"robot":3,"valence":"lose","action":"go","sham":1,"trial_type":"pit-trial","trial_index":190,"time_elapsed":949980,"internal_node_id":"0.0-165.0","task_version":"battery-v0.2-trt","session":2},{"rune":"Y","rune_set":"bacs1","hex":"#3366ff99","correct":32,"choice":32,"rt":812.1099998243153,"accuracy":1,"outcome":"+1","keys":[2314.1250000335276],"total_keys":1,"block":2,"trial":160,"stimulus":0,"robot":1,"valence":"win","action":"go","sham":1,"trial_type":"pit-trial","trial_index":191,"time_elapsed":953499,"internal_node_id":"0.0-166.0","task_version":"battery-v0.2-trt","session":2},{"rune":"U","rune_set":"bacs1","hex":"#f73b6a7A","correct":-1,"choice":32,"rt":741.0699999891222,"accuracy":0,"outcome":"-10","keys":[2242.460000095889],"total_keys":1,"block":2,"trial":161,"stimulus":4,"robot":4,"valence":"lose","action":"no-go","sham":0,"trial_type":"pit-trial","trial_index":192,"time_elapsed":956947,"internal_node_id":"0.0-167.0","task_version":"battery-v0.2-trt","session":2},{"rune":"S","rune_set":"bacs1","hex":"#f73b6a7A","correct":32,"choice":32,"rt":734.2400001361966,"accuracy":1,"outcome":"-1","keys":[2234.584999969229],"total_keys":1,"block":2,"trial":162,"stimulus":5,"robot":3,"valence":"lose","action":"go","sham":0,"trial_type":"pit-trial","trial_index":193,"time_elapsed":960387,"internal_node_id":"0.0-168.0","task_version":"battery-v0.2-trt","session":2},{"rune":"M","rune_set":"bacs1","hex":"#3366ff99","correct":-1,"choice":-1,"rt":-1,"accuracy":1,"outcome":"+10","keys":[],"total_keys":0,"block":2,"trial":163,"stimulus":3,"robot":2,"valence":"win","action":"no-go","sham":0,"trial_type":"pit-trial","trial_index":194,"time_elapsed":964393,"internal_node_id":"0.0-169.0","task_version":"battery-v0.2-trt","session":2},{"rune":"Y","rune_set":"bacs1","hex":"#3366ff99","correct":32,"choice":32,"rt":736.2250001169741,"accuracy":1,"outcome":"+10","keys":[2236.3450000993907],"total_keys":1,"block":2,"trial":164,"stimulus":0,"robot":1,"valence":"win","action":"go","sham":0,"trial_type":"pit-trial","trial_index":195,"time_elapsed":967836,"internal_node_id":"0.0-170.0","task_version":"battery-v0.2-trt","session":2},{"rune":"U","rune_set":"bacs1","hex":"#f73b6a7A","correct":-1,"choice":32,"rt":973.194999853149,"accuracy":0,"outcome":"-10","keys":[2474.625000031665],"total_keys":1,"block":2,"trial":165,"stimulus":4,"robot":4,"valence":"lose","action":"no-go","sham":0,"trial_type":"pit-trial","trial_index":196,"time_elapsed":971516,"internal_node_id":"0.0-171.0","task_version":"battery-v0.2-trt","session":2},{"rune":"Y","rune_set":"bacs1","hex":"#3366ff99","correct":32,"choice":32,"rt":653.0999999959022,"accuracy":1,"outcome":"+1","keys":[2153.459999943152],"total_keys":1,"block":2,"trial":166,"stimulus":0,"robot":1,"valence":"win","action":"go","sham":1,"trial_type":"pit-trial","trial_index":197,"time_elapsed":974875,"internal_node_id":"0.0-172.0","task_version":"battery-v0.2-trt","session":2},{"rune":"S","rune_set":"bacs1","hex":"#f73b6a7A","correct":32,"choice":32,"rt":853.1649999786168,"accuracy":1,"outcome":"-1","keys":[2354.2149998247623],"total_keys":1,"block":2,"trial":167,"stimulus":5,"robot":3,"valence":"lose","action":"go","sham":0,"trial_type":"pit-trial","trial_index":198,"time_elapsed":978435,"internal_node_id":"0.0-173.0","task_version":"battery-v0.2-trt","session":2},{"rune":"M","rune_set":"bacs1","hex":"#3366ff99","correct":-1,"choice":-1,"rt":-1,"accuracy":1,"outcome":"+1","keys":[],"total_keys":0,"block":2,"trial":168,"stimulus":3,"robot":2,"valence":"win","action":"no-go","sham":1,"trial_type":"pit-trial","trial_index":199,"time_elapsed":982444,"internal_node_id":"0.0-174.0","task_version":"battery-v0.2-trt","session":2},{"rune":"S","rune_set":"bacs1","hex":"#f73b6a7A","correct":32,"choice":32,"rt":707.9650000669062,"accuracy":1,"outcome":"-1","keys":[2209.724999964237],"total_keys":1,"block":2,"trial":169,"stimulus":5,"robot":3,"valence":"lose","action":"go","sham":0,"trial_type":"pit-trial","trial_index":200,"time_elapsed":985858,"internal_node_id":"0.0-175.0","task_version":"battery-v0.2-trt","session":2},{"rune":"D","rune_set":"bacs1","hex":"#3366ff99","correct":-1,"choice":32,"rt":837.3999998439103,"accuracy":0,"outcome":"+10","keys":[2339.2700001131743],"total_keys":1,"block":2,"trial":170,"stimulus":7,"robot":2,"valence":"win","action":"no-go","sham":1,"trial_type":"pit-trial","trial_index":201,"time_elapsed":989403,"internal_node_id":"0.0-176.0","task_version":"battery-v0.2-trt","session":2},{"rune":"U","rune_set":"bacs1","hex":"#f73b6a7A","correct":-1,"choice":-1,"rt":-1,"accuracy":1,"outcome":"-1","keys":[],"total_keys":0,"block":2,"trial":171,"stimulus":4,"robot":4,"valence":"lose","action":"no-go","sham":0,"trial_type":"pit-trial","trial_index":202,"time_elapsed":993414,"internal_node_id":"0.0-177.0","task_version":"battery-v0.2-trt","session":2},{"rune":"K","rune_set":"bacs1","hex":"#3366ff99","correct":-1,"choice":32,"rt":931.224999949336,"accuracy":0,"outcome":"+1","keys":[2431.790000060573],"total_keys":1,"block":2,"trial":172,"stimulus":6,"robot":2,"valence":"win","action":"no-go","sham":0,"trial_type":"pit-trial","trial_index":203,"time_elapsed":997052,"internal_node_id":"0.0-178.0","task_version":"battery-v0.2-trt","session":2},{"rune":"D","rune_set":"bacs1","hex":"#3366ff99","correct":-1,"choice":32,"rt":933.8150001130998,"accuracy":0,"outcome":"+1","keys":[2434.0850000735372],"total_keys":1,"block":2,"trial":173,"stimulus":7,"robot":2,"valence":"win","action":"no-go","sham":0,"trial_type":"pit-trial","trial_index":204,"time_elapsed":1000691,"internal_node_id":"0.0-179.0","task_version":"battery-v0.2-trt","session":2},{"rune":"S","rune_set":"bacs1","hex":"#f73b6a7A","correct":32,"choice":32,"rt":1077.5900001171976,"accuracy":1,"outcome":"-1","keys":[2578.349999850616],"total_keys":1,"block":2,"trial":174,"stimulus":5,"robot":3,"valence":"lose","action":"go","sham":0,"trial_type":"pit-trial","trial_index":205,"time_elapsed":1004475,"internal_node_id":"0.0-180.0","task_version":"battery-v0.2-trt","session":2},{"rune":"K","rune_set":"bacs1","hex":"#3366ff99","correct":-1,"choice":32,"rt":685.9649999532849,"accuracy":0,"outcome":"+1","keys":[2186.7349999956787],"total_keys":1,"block":2,"trial":175,"stimulus":6,"robot":2,"valence":"win","action":"no-go","sham":0,"trial_type":"pit-trial","trial_index":206,"time_elapsed":1007867,"internal_node_id":"0.0-181.0","task_version":"battery-v0.2-trt","session":2},{"rune":"U","rune_set":"bacs1","hex":"#f73b6a7A","correct":-1,"choice":-1,"rt":-1,"accuracy":1,"outcome":"-1","keys":[],"total_keys":0,"block":2,"trial":176,"stimulus":4,"robot":4,"valence":"lose","action":"no-go","sham":0,"trial_type":"pit-trial","trial_index":207,"time_elapsed":1011873,"internal_node_id":"0.0-182.0","task_version":"battery-v0.2-trt","session":2},{"rune":"S","rune_set":"bacs1","hex":"#f73b6a7A","correct":32,"choice":32,"rt":775.38500004448,"accuracy":1,"outcome":"-1","keys":[2276.575000025332],"total_keys":1,"block":2,"trial":177,"stimulus":5,"robot":3,"valence":"lose","action":"go","sham":0,"trial_type":"pit-trial","trial_index":208,"time_elapsed":1015355,"internal_node_id":"0.0-183.0","task_version":"battery-v0.2-trt","session":2},{"rune":"D","rune_set":"bacs1","hex":"#3366ff99","correct":-1,"choice":32,"rt":877.7699999045581,"accuracy":0,"outcome":"+1","keys":[2379.1849999688566],"total_keys":1,"block":2,"trial":178,"stimulus":7,"robot":2,"valence":"win","action":"no-go","sham":0,"trial_type":"pit-trial","trial_index":209,"time_elapsed":1018939,"internal_node_id":"0.0-184.0","task_version":"battery-v0.2-trt","session":2},{"rune":"K","rune_set":"bacs1","hex":"#3366ff99","correct":-1,"choice":-1,"rt":-1,"accuracy":1,"outcome":"+1","keys":[],"total_keys":0,"block":2,"trial":179,"stimulus":6,"robot":2,"valence":"win","action":"no-go","sham":1,"trial_type":"pit-trial","trial_index":210,"time_elapsed":1022945,"internal_node_id":"0.0-185.0","task_version":"battery-v0.2-trt","session":2},{"rune":"U","rune_set":"bacs1","hex":"#f73b6a7A","correct":-1,"choice":-1,"rt":-1,"accuracy":1,"outcome":"-1","keys":[],"total_keys":0,"block":2,"trial":180,"stimulus":4,"robot":4,"valence":"lose","action":"no-go","sham":0,"trial_type":"pit-trial","trial_index":211,"time_elapsed":1026959,"internal_node_id":"0.0-186.0","task_version":"battery-v0.2-trt","session":2},{"rune":"D","rune_set":"bacs1","hex":"#3366ff99","correct":-1,"choice":32,"rt":882.1800001896918,"accuracy":0,"outcome":"+1","keys":[2382.645000005141],"total_keys":1,"block":2,"trial":181,"stimulus":7,"robot":2,"valence":"win","action":"no-go","sham":0,"trial_type":"pit-trial","trial_index":212,"time_elapsed":1030548,"internal_node_id":"0.0-187.0","task_version":"battery-v0.2-trt","session":2},{"rune":"S","rune_set":"bacs1","hex":"#f73b6a7A","correct":32,"choice":32,"rt":644.1649999469519,"accuracy":1,"outcome":"-1","keys":[2145.780000137165],"total_keys":1,"block":2,"trial":182,"stimulus":5,"robot":3,"valence":"lose","action":"go","sham":0,"trial_type":"pit-trial","trial_index":213,"time_elapsed":1033899,"internal_node_id":"0.0-188.0","task_version":"battery-v0.2-trt","session":2},{"rune":"K","rune_set":"bacs1","hex":"#3366ff99","correct":-1,"choice":32,"rt":886.0150000546128,"accuracy":0,"outcome":"+1","keys":[2386.970000108704],"total_keys":1,"block":2,"trial":183,"stimulus":6,"robot":2,"valence":"win","action":"no-go","sham":0,"trial_type":"pit-trial","trial_index":214,"time_elapsed":1037492,"internal_node_id":"0.0-189.0","task_version":"battery-v0.2-trt","session":2},{"rune":"U","rune_set":"bacs1","hex":"#f73b6a7A","correct":-1,"choice":-1,"rt":-1,"accuracy":1,"outcome":"-1","keys":[],"total_keys":0,"block":2,"trial":184,"stimulus":4,"robot":4,"valence":"lose","action":"no-go","sham":0,"trial_type":"pit-trial","trial_index":215,"time_elapsed":1041498,"internal_node_id":"0.0-190.0","task_version":"battery-v0.2-trt","session":2},{"rune":"D","rune_set":"bacs1","hex":"#3366ff99","correct":-1,"choice":-1,"rt":-1,"accuracy":1,"outcome":"+10","keys":[],"total_keys":0,"block":2,"trial":185,"stimulus":7,"robot":2,"valence":"win","action":"no-go","sham":0,"trial_type":"pit-trial","trial_index":216,"time_elapsed":1045510,"internal_node_id":"0.0-191.0","task_version":"battery-v0.2-trt","session":2},{"rune":"K","rune_set":"bacs1","hex":"#3366ff99","correct":-1,"choice":-1,"rt":-1,"accuracy":1,"outcome":"+10","keys":[],"total_keys":0,"block":2,"trial":186,"stimulus":6,"robot":2,"valence":"win","action":"no-go","sham":0,"trial_type":"pit-trial","trial_index":217,"time_elapsed":1049516,"internal_node_id":"0.0-192.0","task_version":"battery-v0.2-trt","session":2},{"rune":"S","rune_set":"bacs1","hex":"#f73b6a7A","correct":32,"choice":32,"rt":708.3950000815094,"accuracy":1,"outcome":"-10","keys":[2209.915000014007],"total_keys":1,"block":2,"trial":187,"stimulus":5,"robot":3,"valence":"lose","action":"go","sham":1,"trial_type":"pit-trial","trial_index":218,"time_elapsed":1052932,"internal_node_id":"0.0-193.0","task_version":"battery-v0.2-trt","session":2},{"rune":"U","rune_set":"bacs1","hex":"#f73b6a7A","correct":-1,"choice":-1,"rt":-1,"accuracy":1,"outcome":"-1","keys":[],"total_keys":0,"block":2,"trial":188,"stimulus":4,"robot":4,"valence":"lose","action":"no-go","sham":0,"trial_type":"pit-trial","trial_index":219,"time_elapsed":1056939,"internal_node_id":"0.0-194.0","task_version":"battery-v0.2-trt","session":2},{"rune":"K","rune_set":"bacs1","hex":"#3366ff99","correct":-1,"choice":-1,"rt":-1,"accuracy":1,"outcome":"+10","keys":[],"total_keys":0,"block":2,"trial":189,"stimulus":6,"robot":2,"valence":"win","action":"no-go","sham":0,"trial_type":"pit-trial","trial_index":220,"time_elapsed":1060946,"internal_node_id":"0.0-195.0","task_version":"battery-v0.2-trt","session":2},{"rune":"S","rune_set":"bacs1","hex":"#f73b6a7A","correct":32,"choice":32,"rt":647.6449999026954,"accuracy":1,"outcome":"-1","keys":[2148.025000002235],"total_keys":1,"block":2,"trial":190,"stimulus":5,"robot":3,"valence":"lose","action":"go","sham":0,"trial_type":"pit-trial","trial_index":221,"time_elapsed":1064299,"internal_node_id":"0.0-196.0","task_version":"battery-v0.2-trt","session":2},{"rune":"U","rune_set":"bacs1","hex":"#f73b6a7A","correct":-1,"choice":-1,"rt":-1,"accuracy":1,"outcome":"-1","keys":[],"total_keys":0,"block":2,"trial":191,"stimulus":4,"robot":4,"valence":"lose","action":"no-go","sham":0,"trial_type":"pit-trial","trial_index":222,"time_elapsed":1068305,"internal_node_id":"0.0-197.0","task_version":"battery-v0.2-trt","session":2},{"rune":"D","rune_set":"bacs1","hex":"#3366ff99","correct":-1,"choice":-1,"rt":-1,"accuracy":1,"outcome":"+1","keys":[],"total_keys":0,"block":2,"trial":192,"stimulus":7,"robot":2,"valence":"win","action":"no-go","sham":1,"trial_type":"pit-trial","trial_index":223,"time_elapsed":1072311,"internal_node_id":"0.0-198.0","task_version":"battery-v0.2-trt","session":2},{"rune":"S","rune_set":"bacs1","hex":"#f73b6a7A","correct":32,"choice":32,"rt":665.6450000591576,"accuracy":1,"outcome":"-10","keys":[2166.3000001572073],"total_keys":1,"block":2,"trial":193,"stimulus":5,"robot":3,"valence":"lose","action":"go","sham":1,"trial_type":"pit-trial","trial_index":224,"time_elapsed":1075684,"internal_node_id":"0.0-199.0","task_version":"battery-v0.2-trt","session":2},{"rune":"U","rune_set":"bacs1","hex":"#f73b6a7A","correct":-1,"choice":-1,"rt":-1,"accuracy":1,"outcome":"-10","keys":[],"total_keys":0,"block":2,"trial":194,"stimulus":4,"robot":4,"valence":"lose","action":"no-go","sham":1,"trial_type":"pit-trial","trial_index":225,"time_elapsed":1079690,"internal_node_id":"0.0-200.0","task_version":"battery-v0.2-trt","session":2},{"rune":"K","rune_set":"bacs1","hex":"#3366ff99","correct":-1,"choice":-1,"rt":-1,"accuracy":1,"outcome":"+10","keys":[],"total_keys":0,"block":2,"trial":195,"stimulus":6,"robot":2,"valence":"win","action":"no-go","sham":0,"trial_type":"pit-trial","trial_index":226,"time_elapsed":1083698,"internal_node_id":"0.0-201.0","task_version":"battery-v0.2-trt","session":2},{"rune":"D","rune_set":"bacs1","hex":"#3366ff99","correct":-1,"choice":-1,"rt":-1,"accuracy":1,"outcome":"+10","keys":[],"total_keys":0,"block":2,"trial":196,"stimulus":7,"robot":2,"valence":"win","action":"no-go","sham":0,"trial_type":"pit-trial","trial_index":227,"time_elapsed":1087704,"internal_node_id":"0.0-202.0","task_version":"battery-v0.2-trt","session":2},{"rune":"D","rune_set":"bacs1","hex":"#3366ff99","correct":-1,"choice":-1,"rt":-1,"accuracy":1,"outcome":"+10","keys":[],"total_keys":0,"block":2,"trial":197,"stimulus":7,"robot":2,"valence":"win","action":"no-go","sham":0,"trial_type":"pit-trial","trial_index":228,"time_elapsed":1091714,"internal_node_id":"0.0-203.0","task_version":"battery-v0.2-trt","session":2},{"rune":"K","rune_set":"bacs1","hex":"#3366ff99","correct":-1,"choice":-1,"rt":-1,"accuracy":1,"outcome":"+10","keys":[],"total_keys":0,"block":2,"trial":198,"stimulus":6,"robot":2,"valence":"win","action":"no-go","sham":0,"trial_type":"pit-trial","trial_index":229,"time_elapsed":1095730,"internal_node_id":"0.0-204.0","task_version":"battery-v0.2-trt","session":2},{"rune":"S","rune_set":"bacs1","hex":"#f73b6a7A","correct":32,"choice":32,"rt":639.2699999269098,"accuracy":1,"outcome":"-1","keys":[2139.560000039637],"total_keys":1,"block":2,"trial":199,"stimulus":5,"robot":3,"valence":"lose","action":"go","sham":0,"trial_type":"pit-trial","trial_index":230,"time_elapsed":1099075,"internal_node_id":"0.0-205.0","task_version":"battery-v0.2-trt","session":2},{"rune":"U","rune_set":"bacs1","hex":"#f73b6a7A","correct":-1,"choice":-1,"rt":-1,"accuracy":1,"outcome":"-10","keys":[],"total_keys":0,"block":2,"trial":200,"stimulus":4,"robot":4,"valence":"lose","action":"no-go","sham":1,"trial_type":"pit-trial","trial_index":231,"time_elapsed":1103082,"internal_node_id":"0.0-206.0","task_version":"battery-v0.2-trt","session":2},{"rune":"O","rune_set":"bacs1","hex":"#3366ff99","correct":32,"choice":32,"rt":887.5049999915063,"accuracy":1,"outcome":"+1","keys":[2387.9799998831004],"total_keys":1,"block":2,"trial":201,"stimulus":8,"robot":1,"valence":"win","action":"go","sham":1,"trial_type":"pit-trial","trial_index":232,"time_elapsed":1106675,"internal_node_id":"0.0-207.0","task_version":"battery-v0.2-trt","session":2},{"rune":"I","rune_set":"bacs1","hex":"#f73b6a7A","correct":-1,"choice":32,"rt":902.1550000179559,"accuracy":0,"outcome":"-10","keys":[2402.9149999842048],"total_keys":1,"block":2,"trial":202,"stimulus":9,"robot":4,"valence":"lose","action":"no-go","sham":0,"trial_type":"pit-trial","trial_index":233,"time_elapsed":1110283,"internal_node_id":"0.0-208.0","task_version":"battery-v0.2-trt","session":2},{"rune":"D","rune_set":"bacs1","hex":"#3366ff99","correct":-1,"choice":-1,"rt":-1,"accuracy":1,"outcome":"+10","keys":[],"total_keys":0,"block":2,"trial":203,"stimulus":7,"robot":2,"valence":"win","action":"no-go","sham":0,"trial_type":"pit-trial","trial_index":234,"time_elapsed":1114289,"internal_node_id":"0.0-209.0","task_version":"battery-v0.2-trt","session":2},{"rune":"S","rune_set":"bacs1","hex":"#f73b6a7A","correct":32,"choice":32,"rt":671.1549998726696,"accuracy":1,"outcome":"-10","keys":[2172.454999992624],"total_keys":1,"block":2,"trial":204,"stimulus":5,"robot":3,"valence":"lose","action":"go","sham":1,"trial_type":"pit-trial","trial_index":235,"time_elapsed":1117667,"internal_node_id":"0.0-210.0","task_version":"battery-v0.2-trt","session":2},{"rune":"D","rune_set":"bacs1","hex":"#3366ff99","correct":-1,"choice":-1,"rt":-1,"accuracy":1,"outcome":"+10","keys":[],"total_keys":0,"block":2,"trial":205,"stimulus":7,"robot":2,"valence":"win","action":"no-go","sham":0,"trial_type":"pit-trial","trial_index":236,"time_elapsed":1121673,"internal_node_id":"0.0-211.0","task_version":"battery-v0.2-trt","session":2},{"rune":"I","rune_set":"bacs1","hex":"#f73b6a7A","correct":-1,"choice":-1,"rt":-1,"accuracy":1,"outcome":"-1","keys":[],"total_keys":0,"block":2,"trial":206,"stimulus":9,"robot":4,"valence":"lose","action":"no-go","sham":0,"trial_type":"pit-trial","trial_index":237,"time_elapsed":1125680,"internal_node_id":"0.0-212.0","task_version":"battery-v0.2-trt","session":2},{"rune":"O","rune_set":"bacs1","hex":"#3366ff99","correct":32,"choice":-1,"rt":-1,"accuracy":0,"outcome":"+1","keys":[],"total_keys":0,"block":2,"trial":207,"stimulus":8,"robot":1,"valence":"win","action":"go","sham":0,"trial_type":"pit-trial","trial_index":238,"time_elapsed":1129686,"internal_node_id":"0.0-213.0","task_version":"battery-v0.2-trt","session":2},{"rune":"S","rune_set":"bacs1","hex":"#f73b6a7A","correct":32,"choice":32,"rt":740.1399998925626,"accuracy":1,"outcome":"-1","keys":[2240.504999877885],"total_keys":1,"block":2,"trial":208,"stimulus":5,"robot":3,"valence":"lose","action":"go","sham":0,"trial_type":"pit-trial","trial_index":239,"time_elapsed":1133131,"internal_node_id":"0.0-214.0","task_version":"battery-v0.2-trt","session":2},{"rune":"N","rune_set":"bacs1","hex":"#3366ff99","correct":32,"choice":32,"rt":869.2799999844283,"accuracy":1,"outcome":"+10","keys":[2370.7850000355393],"total_keys":1,"block":2,"trial":209,"stimulus":11,"robot":1,"valence":"win","action":"go","sham":0,"trial_type":"pit-trial","trial_index":240,"time_elapsed":1136707,"internal_node_id":"0.0-215.0","task_version":"battery-v0.2-trt","session":2},{"rune":"G","rune_set":"bacs1","hex":"#f73b6a7A","correct":32,"choice":32,"rt":1158.4699999075383,"accuracy":1,"outcome":"-10","keys":[2659.059999976307],"total_keys":1,"block":2,"trial":210,"stimulus":10,"robot":3,"valence":"lose","action":"go","sham":1,"trial_type":"pit-trial","trial_index":241,"time_elapsed":1140572,"internal_node_id":"0.0-216.0","task_version":"battery-v0.2-trt","session":2},{"rune":"O","rune_set":"bacs1","hex":"#3366ff99","correct":32,"choice":-1,"rt":-1,"accuracy":0,"outcome":"+10","keys":[],"total_keys":0,"block":2,"trial":211,"stimulus":8,"robot":1,"valence":"win","action":"go","sham":1,"trial_type":"pit-trial","trial_index":242,"time_elapsed":1144579,"internal_node_id":"0.0-217.0","task_version":"battery-v0.2-trt","session":2},{"rune":"I","rune_set":"bacs1","hex":"#f73b6a7A","correct":-1,"choice":-1,"rt":-1,"accuracy":1,"outcome":"-10","keys":[],"total_keys":0,"block":2,"trial":212,"stimulus":9,"robot":4,"valence":"lose","action":"no-go","sham":1,"trial_type":"pit-trial","trial_index":243,"time_elapsed":1148585,"internal_node_id":"0.0-218.0","task_version":"battery-v0.2-trt","session":2},{"rune":"I","rune_set":"bacs1","hex":"#f73b6a7A","correct":-1,"choice":-1,"rt":-1,"accuracy":1,"outcome":"-1","keys":[],"total_keys":0,"block":2,"trial":213,"stimulus":9,"robot":4,"valence":"lose","action":"no-go","sham":0,"trial_type":"pit-trial","trial_index":244,"time_elapsed":1152605,"internal_node_id":"0.0-219.0","task_version":"battery-v0.2-trt","session":2},{"rune":"O","rune_set":"bacs1","hex":"#3366ff99","correct":32,"choice":-1,"rt":-1,"accuracy":0,"outcome":"+10","keys":[],"total_keys":0,"block":2,"trial":214,"stimulus":8,"robot":1,"valence":"win","action":"go","sham":1,"trial_type":"pit-trial","trial_index":245,"time_elapsed":1156612,"internal_node_id":"0.0-220.0","task_version":"battery-v0.2-trt","session":2},{"rune":"G","rune_set":"bacs1","hex":"#f73b6a7A","correct":32,"choice":-1,"rt":-1,"accuracy":0,"outcome":"-1","keys":[],"total_keys":0,"block":2,"trial":215,"stimulus":10,"robot":3,"valence":"lose","action":"go","sham":1,"trial_type":"pit-trial","trial_index":246,"time_elapsed":1160619,"internal_node_id":"0.0-221.0","task_version":"battery-v0.2-trt","session":2},{"rune":"N","rune_set":"bacs1","hex":"#3366ff99","correct":32,"choice":32,"rt":743.2049999479204,"accuracy":1,"outcome":"+10","keys":[2243.4549999888986],"total_keys":1,"block":2,"trial":216,"stimulus":11,"robot":1,"valence":"win","action":"go","sham":0,"trial_type":"pit-trial","trial_index":247,"time_elapsed":1164067,"internal_node_id":"0.0-222.0","task_version":"battery-v0.2-trt","session":2},{"rune":"O","rune_set":"bacs1","hex":"#3366ff99","correct":32,"choice":-1,"rt":-1,"accuracy":0,"outcome":"+1","keys":[],"total_keys":0,"block":2,"trial":217,"stimulus":8,"robot":1,"valence":"win","action":"go","sham":0,"trial_type":"pit-trial","trial_index":248,"time_elapsed":1168073,"internal_node_id":"0.0-223.0","task_version":"battery-v0.2-trt","session":2},{"rune":"I","rune_set":"bacs1","hex":"#f73b6a7A","correct":-1,"choice":-1,"rt":-1,"accuracy":1,"outcome":"-1","keys":[],"total_keys":0,"block":2,"trial":218,"stimulus":9,"robot":4,"valence":"lose","action":"no-go","sham":0,"trial_type":"pit-trial","trial_index":249,"time_elapsed":1172080,"internal_node_id":"0.0-224.0","task_version":"battery-v0.2-trt","session":2},{"rune":"G","rune_set":"bacs1","hex":"#f73b6a7A","correct":32,"choice":-1,"rt":-1,"accuracy":0,"outcome":"-10","keys":[],"total_keys":0,"block":2,"trial":219,"stimulus":10,"robot":3,"valence":"lose","action":"go","sham":0,"trial_type":"pit-trial","trial_index":250,"time_elapsed":1176087,"internal_node_id":"0.0-225.0","task_version":"battery-v0.2-trt","session":2},{"rune":"N","rune_set":"bacs1","hex":"#3366ff99","correct":32,"choice":32,"rt":777.0000000018626,"accuracy":1,"outcome":"+10","keys":[2278.4649999812245],"total_keys":1,"block":2,"trial":220,"stimulus":11,"robot":1,"valence":"win","action":"go","sham":0,"trial_type":"pit-trial","trial_index":251,"time_elapsed":1179571,"internal_node_id":"0.0-226.0","task_version":"battery-v0.2-trt","session":2},{"rune":"G","rune_set":"bacs1","hex":"#f73b6a7A","correct":32,"choice":-1,"rt":-1,"accuracy":0,"outcome":"-10","keys":[],"total_keys":0,"block":2,"trial":221,"stimulus":10,"robot":3,"valence":"lose","action":"go","sham":0,"trial_type":"pit-trial","trial_index":252,"time_elapsed":1183578,"internal_node_id":"0.0-227.0","task_version":"battery-v0.2-trt","session":2},{"rune":"O","rune_set":"bacs1","hex":"#3366ff99","correct":32,"choice":-1,"rt":-1,"accuracy":0,"outcome":"+1","keys":[],"total_keys":0,"block":2,"trial":222,"stimulus":8,"robot":1,"valence":"win","action":"go","sham":0,"trial_type":"pit-trial","trial_index":253,"time_elapsed":1187584,"internal_node_id":"0.0-228.0","task_version":"battery-v0.2-trt","session":2},{"rune":"I","rune_set":"bacs1","hex":"#f73b6a7A","correct":-1,"choice":-1,"rt":-1,"accuracy":1,"outcome":"-10","keys":[],"total_keys":0,"block":2,"trial":223,"stimulus":9,"robot":4,"valence":"lose","action":"no-go","sham":1,"trial_type":"pit-trial","trial_index":254,"time_elapsed":1191591,"internal_node_id":"0.0-229.0","task_version":"battery-v0.2-trt","session":2},{"rune":"N","rune_set":"bacs1","hex":"#3366ff99","correct":32,"choice":32,"rt":640.9999998286366,"accuracy":1,"outcome":"+10","keys":[2142.649999819696],"total_keys":1,"block":2,"trial":224,"stimulus":11,"robot":1,"valence":"win","action":"go","sham":0,"trial_type":"pit-trial","trial_index":255,"time_elapsed":1194940,"internal_node_id":"0.0-230.0","task_version":"battery-v0.2-trt","session":2},{"rune":"I","rune_set":"bacs1","hex":"#f73b6a7A","correct":-1,"choice":-1,"rt":-1,"accuracy":1,"outcome":"-1","keys":[],"total_keys":0,"block":2,"trial":225,"stimulus":9,"robot":4,"valence":"lose","action":"no-go","sham":0,"trial_type":"pit-trial","trial_index":256,"time_elapsed":1198946,"internal_node_id":"0.0-231.0","task_version":"battery-v0.2-trt","session":2},{"rune":"G","rune_set":"bacs1","hex":"#f73b6a7A","correct":32,"choice":-1,"rt":-1,"accuracy":0,"outcome":"-10","keys":[],"total_keys":0,"block":2,"trial":226,"stimulus":10,"robot":3,"valence":"lose","action":"go","sham":0,"trial_type":"pit-trial","trial_index":257,"time_elapsed":1202952,"internal_node_id":"0.0-232.0","task_version":"battery-v0.2-trt","session":2},{"rune":"N","rune_set":"bacs1","hex":"#3366ff99","correct":32,"choice":32,"rt":784.0250001754612,"accuracy":1,"outcome":"+10","keys":[2285.4349999688566],"total_keys":1,"block":2,"trial":227,"stimulus":11,"robot":1,"valence":"win","action":"go","sham":0,"trial_type":"pit-trial","trial_index":258,"time_elapsed":1206442,"internal_node_id":"0.0-233.0","task_version":"battery-v0.2-trt","session":2},{"rune":"O","rune_set":"bacs1","hex":"#3366ff99","correct":32,"choice":32,"rt":854.9000001512468,"accuracy":1,"outcome":"+10","keys":[2355.0549999345094],"total_keys":1,"block":2,"trial":228,"stimulus":8,"robot":1,"valence":"win","action":"go","sham":0,"trial_type":"pit-trial","trial_index":259,"time_elapsed":1210003,"internal_node_id":"0.0-234.0","task_version":"battery-v0.2-trt","session":2},{"rune":"G","rune_set":"bacs1","hex":"#f73b6a7A","correct":32,"choice":32,"rt":838.7299999594688,"accuracy":1,"outcome":"-1","keys":[2338.8300000224262],"total_keys":1,"block":2,"trial":229,"stimulus":10,"robot":3,"valence":"lose","action":"go","sham":0,"trial_type":"pit-trial","trial_index":260,"time_elapsed":1213547,"internal_node_id":"0.0-235.0","task_version":"battery-v0.2-trt","session":2},{"rune":"I","rune_set":"bacs1","hex":"#f73b6a7A","correct":-1,"choice":-1,"rt":-1,"accuracy":1,"outcome":"-1","keys":[],"total_keys":0,"block":2,"trial":230,"stimulus":9,"robot":4,"valence":"lose","action":"no-go","sham":0,"trial_type":"pit-trial","trial_index":261,"time_elapsed":1217553,"internal_node_id":"0.0-236.0","task_version":"battery-v0.2-trt","session":2},{"rune":"O","rune_set":"bacs1","hex":"#3366ff99","correct":32,"choice":32,"rt":808.2749999593943,"accuracy":1,"outcome":"+10","keys":[2308.8449998758733],"total_keys":1,"block":2,"trial":231,"stimulus":8,"robot":1,"valence":"win","action":"go","sham":0,"trial_type":"pit-trial","trial_index":262,"time_elapsed":1221067,"internal_node_id":"0.0-237.0","task_version":"battery-v0.2-trt","session":2},{"rune":"N","rune_set":"bacs1","hex":"#3366ff99","correct":32,"choice":32,"rt":804.8600000329316,"accuracy":1,"outcome":"+10","keys":[2306.4600001089275],"total_keys":1,"block":2,"trial":232,"stimulus":11,"robot":1,"valence":"win","action":"go","sham":0,"trial_type":"pit-trial","trial_index":263,"time_elapsed":1224580,"internal_node_id":"0.0-238.0","task_version":"battery-v0.2-trt","session":2},{"rune":"I","rune_set":"bacs1","hex":"#f73b6a7A","correct":-1,"choice":-1,"rt":-1,"accuracy":1,"outcome":"-10","keys":[],"total_keys":0,"block":2,"trial":233,"stimulus":9,"robot":4,"valence":"lose","action":"no-go","sham":1,"trial_type":"pit-trial","trial_index":264,"time_elapsed":1228598,"internal_node_id":"0.0-239.0","task_version":"battery-v0.2-trt","session":2},{"rune":"G","rune_set":"bacs1","hex":"#f73b6a7A","correct":32,"choice":32,"rt":642.4200