[{"view_history":"[{\"page_index\":0,\"viewing_time\":1654.4350001495332}]","rt":1654.6300000045449,"trial_type":"instructions","trial_index":0,"time_elapsed":1664,"internal_node_id":"0.0-0.0","task_version":"battery-v0.2-trt","session":2},{"slider_type":"valence","raw_loc":695,"loc":0.89,"trial_type":"affective-slider","trial_index":1,"time_elapsed":4875,"internal_node_id":"0.0-1.0","task_version":"battery-v0.2-trt","session":2},{"responses":{"Q06":"0","Q05":"0","Q08":"0","Q07":"0","Q01":"1","Q02":"0","Q03":"0","Q04":"0"},"rt":15791.424999944866,"item_order":[5,4,7,6,0,1,2,3],"radio_events":[3504.7100000083447,4609.554999973625,9285.624999785796,11145.774999866262,12312.56499979645,13588.724999921396,14030.80499987118,14812.724999850616],"key_events":[3504.7100000083447,4609.554999973625,5785.6149999424815,6924.634999828413,8350.75999982655,9285.624999785796,10063.629999989644,10665.6499998644,11145.774999866262,11839.709999971092,12312.56499979645,13588.724999921396,14030.80499987118,14812.724999850616,15790.62999994494],"mouse_events":[],"straightlining":0.875,"zigzagging":0.2857142857142857,"survey":"gad7","trial_type":"survey-template","trial_index":2,"time_elapsed":20669,"internal_node_id":"0.0-2.0","task_version":"battery-v0.2-trt","session":2,"infrequency":0},{"responses":{"Q05":"0","Q06":"0","Q02":"0","Q07":"0","Q01":"0","Q04":"0","Q08":"3","Q03":"0"},"rt":15851.185000035912,"item_order":[4,5,1,6,0,3,7,2],"radio_events":[3645.564999897033,5248.429999919608,6072.565000038594,7356.604999862611,7810.529999900609,10502.369999885559,11132.449999917299,12976.335000013933,15073.364999843761],"key_events":[3645.564999897033,5248.429999919608,6072.565000038594,6742.570000002161,7356.604999862611,7810.529999900609,10502.369999885559,11132.449999917299,12976.335000013933,15073.364999843761,15850.579999852926],"mouse_events":[],"straightlining":0.875,"zigzagging":0.2857142857142857,"survey":"dass_d","trial_type":"survey-template","trial_index":3,"time_elapsed":36521,"internal_node_id":"0.0-3.0","task_version":"battery-v0.2-trt","session":2,"infrequency":0},{"view_history":"[{\"page_index\":0,\"viewing_time\":49662.10999991745},{\"page_index\":1,\"viewing_time\":946.9600000884384},{\"page_index\":2,\"viewing_time\":953.9900000672787},{\"page_index\":3,\"viewing_time\":612.9199999850243},{\"page_index\":4,\"viewing_time\":768.1149998679757},{\"page_index\":5,\"viewing_time\":609.9549999926239},{\"page_index\":6,\"viewing_time\":611.1150002107024},{\"page_index\":7,\"viewing_time\":710.9399999026209},{\"page_index\":8,\"viewing_time\":662.6899999100715},{\"page_index\":9,\"viewing_time\":1134.275000076741}]","rt":56673.560000024736,"trial_type":"pit-instructions","trial_index":4,"time_elapsed":93196,"internal_node_id":"0.0-4.0-0.0","task_version":"battery-v0.2-trt","session":2},{"rune":"1","rune_set":"elianto","hex":"#3366ff99","correct":32,"choice":32,"rt":409.25499983131886,"accuracy":1,"outcome":"+10","keys":[1909.9949998781085],"total_keys":1,"block":0,"practice":1,"trial_type":"pit-trial","trial_index":5,"time_elapsed":96308,"internal_node_id":"0.0-4.0-1.0-0.0","task_version":"battery-v0.2-trt","session":2},{"rune":"1","rune_set":"elianto","hex":"#3366ff99","correct":32,"choice":32,"rt":432.85500002093613,"accuracy":1,"outcome":"+10","keys":[1933.4599999710917],"total_keys":1,"block":0,"practice":1,"trial_type":"pit-trial","trial_index":6,"time_elapsed":99443,"internal_node_id":"0.0-4.0-1.1-0.1","task_version":"battery-v0.2-trt","session":2},{"rune":"1","rune_set":"elianto","hex":"#3366ff99","correct":32,"choice":32,"rt":337.6949999947101,"accuracy":1,"outcome":"+10","keys":[1838.6899998877198],"total_keys":1,"block":0,"practice":1,"trial_type":"pit-trial","trial_index":7,"time_elapsed":102483,"internal_node_id":"0.0-4.0-1.2-0.2","task_version":"battery-v0.2-trt","session":2},{"rune":"1","rune_set":"elianto","hex":"#3366ff99","correct":32,"choice":32,"rt":497.56000004708767,"accuracy":1,"outcome":"+10","keys":[1998.4699999913573],"total_keys":1,"block":0,"practice":1,"trial_type":"pit-trial","trial_index":8,"time_elapsed":105684,"internal_node_id":"0.0-4.0-1.3-0.3","task_version":"battery-v0.2-trt","session":2},{"trial_type":"call-function","trial_index":9,"time_elapsed":105685,"internal_node_id":"0.0-4.0-2.0","task_version":"battery-v0.2-trt","session":2},{"view_history":"[{\"page_index\":0,\"viewing_time\":1528.9400001056492},{\"page_index\":1,\"viewing_time\":530.8399999048561}]","rt":2060.090000042692,"trial_type":"pit-instructions","trial_index":10,"time_elapsed":107745,"internal_node_id":"0.0-4.0-3.0","task_version":"battery-v0.2-trt","session":2},{"rune":"2","rune_set":"elianto","hex":"#3366ff99","correct":-1,"choice":-1,"rt":-1,"accuracy":1,"outcome":"+10","keys":[],"total_keys":0,"block":0,"practice":2,"trial_type":"pit-trial","trial_index":11,"time_elapsed":111748,"internal_node_id":"0.0-4.0-4.0-0.0","task_version":"battery-v0.2-trt","session":2},{"rune":"2","rune_set":"elianto","hex":"#3366ff99","correct":-1,"choice":-1,"rt":-1,"accuracy":1,"outcome":"+10","keys":[],"total_keys":0,"block":0,"practice":2,"trial_type":"pit-trial","trial_index":12,"time_elapsed":115751,"internal_node_id":"0.0-4.0-4.1-0.1","task_version":"battery-v0.2-trt","session":2},{"rune":"2","rune_set":"elianto","hex":"#3366ff99","correct":-1,"choice":-1,"rt":-1,"accuracy":1,"outcome":"+10","keys":[],"total_keys":0,"block":0,"practice":2,"trial_type":"pit-trial","trial_index":13,"time_elapsed":119754,"internal_node_id":"0.0-4.0-4.2-0.2","task_version":"battery-v0.2-trt","session":2},{"rune":"2","rune_set":"elianto","hex":"#3366ff99","correct":-1,"choice":-1,"rt":-1,"accuracy":1,"outcome":"+10","keys":[],"total_keys":0,"block":0,"practice":2,"trial_type":"pit-trial","trial_index":14,"time_elapsed":123757,"internal_node_id":"0.0-4.0-4.3-0.3","task_version":"battery-v0.2-trt","session":2},{"trial_type":"call-function","trial_index":15,"time_elapsed":123758,"internal_node_id":"0.0-4.0-5.0","task_version":"battery-v0.2-trt","session":2},{"view_history":"[{\"page_index\":0,\"viewing_time\":1604.0550000034273},{\"page_index\":1,\"viewing_time\":590.8700001891702}]","rt":2195.215000072494,"trial_type":"pit-instructions","trial_index":16,"time_elapsed":125954,"internal_node_id":"0.0-4.0-6.0","task_version":"battery-v0.2-trt","session":2},{"rune":"3","rune_set":"elianto","hex":"#f73b6a7A","correct":-1,"choice":32,"rt":419.1399998962879,"accuracy":0,"outcome":"-10","keys":[1920.1850001700222],"total_keys":1,"block":0,"practice":3,"trial_type":"pit-trial","trial_index":17,"time_elapsed":129076,"internal_node_id":"0.0-4.0-7.0-0.0","task_version":"battery-v0.2-trt","session":2},{"rune":"3","rune_set":"elianto","hex":"#f73b6a7A","correct":-1,"choice":-1,"rt":-1,"accuracy":1,"outcome":"-1","keys":[],"total_keys":0,"block":0,"practice":3,"trial_type":"pit-trial","trial_index":18,"time_elapsed":133080,"internal_node_id":"0.0-4.0-7.1-0.1","task_version":"battery-v0.2-trt","session":2},{"rune":"3","rune_set":"elianto","hex":"#f73b6a7A","correct":-1,"choice":-1,"rt":-1,"accuracy":1,"outcome":"-1","keys":[],"total_keys":0,"block":0,"practice":3,"trial_type":"pit-trial","trial_index":19,"time_elapsed":137083,"internal_node_id":"0.0-4.0-7.2-0.2","task_version":"battery-v0.2-trt","session":2},{"rune":"3","rune_set":"elianto","hex":"#f73b6a7A","correct":-1,"choice":-1,"rt":-1,"accuracy":1,"outcome":"-1","keys":[],"total_keys":0,"block":0,"practice":3,"trial_type":"pit-trial","trial_index":20,"time_elapsed":141084,"internal_node_id":"0.0-4.0-7.3-0.3","task_version":"battery-v0.2-trt","session":2},{"trial_type":"call-function","trial_index":21,"time_elapsed":141085,"internal_node_id":"0.0-4.0-8.0","task_version":"battery-v0.2-trt","session":2},{"view_history":"[{\"page_index\":0,\"viewing_time\":2078.8650000467896},{\"page_index\":1,\"viewing_time\":505.9549999423325}]","rt":2585.145000135526,"trial_type":"pit-instructions","trial_index":22,"time_elapsed":143670,"internal_node_id":"0.0-4.0-9.0","task_version":"battery-v0.2-trt","session":2},{"rune":"4","rune_set":"elianto","hex":"#f73b6a7A","correct":32,"choice":32,"rt":271.8850001692772,"accuracy":1,"outcome":"-1","keys":[1772.9700000490993],"total_keys":1,"block":0,"practice":4,"trial_type":"pit-trial","trial_index":23,"time_elapsed":146645,"internal_node_id":"0.0-4.0-10.0-0.0","task_version":"battery-v0.2-trt","session":2},{"rune":"4","rune_set":"elianto","hex":"#f73b6a7A","correct":32,"choice":-1,"rt":-1,"accuracy":0,"outcome":"-10","keys":[1485.1599999237806],"total_keys":1,"block":0,"practice":4,"trial_type":"pit-trial","trial_index":24,"time_elapsed":150649,"internal_node_id":"0.0-4.0-10.1-0.1","task_version":"battery-v0.2-trt","session":2},{"rune":"4","rune_set":"elianto","hex":"#f73b6a7A","correct":32,"choice":32,"rt":685.7399998698384,"accuracy":1,"outcome":"-1","keys":[2186.140000121668],"total_keys":1,"block":0,"practice":4,"trial_type":"pit-trial","trial_index":25,"time_elapsed":154036,"internal_node_id":"0.0-4.0-10.2-0.2","task_version":"battery-v0.2-trt","session":2},{"rune":"4","rune_set":"elianto","hex":"#f73b6a7A","correct":32,"choice":32,"rt":321.53000007383525,"accuracy":1,"outcome":"-1","keys":[1821.955000050366],"total_keys":1,"block":0,"practice":4,"trial_type":"pit-trial","trial_index":26,"time_elapsed":157060,"internal_node_id":"0.0-4.0-10.3-0.3","task_version":"battery-v0.2-trt","session":2},{"rune":"4","rune_set":"elianto","hex":"#f73b6a7A","correct":32,"choice":32,"rt":609.5750001259148,"accuracy":1,"outcome":"-1","keys":[2110.3199999779463],"total_keys":1,"block":0,"practice":4,"trial_type":"pit-trial","trial_index":27,"time_elapsed":160373,"internal_node_id":"0.0-4.0-10.4-0.4","task_version":"battery-v0.2-trt","session":2},{"trial_type":"call-function","trial_index":28,"time_elapsed":160373,"internal_node_id":"0.0-4.0-11.0","task_version":"battery-v0.2-trt","session":2},{"view_history":"[{\"page_index\":0,\"viewing_time\":2130.6099998764694},{\"page_index\":1,\"viewing_time\":578.8100000936538},{\"page_index\":2,\"viewing_time\":467.1849999576807},{\"page_index\":3,\"viewing_time\":432.8350001014769},{\"page_index\":4,\"viewing_time\":489.1649999190122},{\"page_index\":5,\"viewing_time\":450.9399998933077}]","rt":4549.804999958724,"trial_type":"pit-instructions","trial_index":29,"time_elapsed":164923,"internal_node_id":"0.0-4.0-12.0","task_version":"battery-v0.2-trt","session":2},{"responses":["Press SPACE","+10","-1","True","True"],"num_errors":0,"rt":19277.13999990374,"trial_type":"pit-comprehension","trial_index":30,"time_elapsed":184202,"internal_node_id":"0.0-4.0-13.0","task_version":"battery-v0.2-trt","session":2},{"view_history":"[{\"page_index\":0,\"viewing_time\":1462.5500000547618},{\"page_index\":1,\"viewing_time\":1239.0649998560548}]","rt":2701.869999989867,"trial_type":"pit-instructions","trial_index":31,"time_elapsed":186907,"internal_node_id":"0.0-5.0","task_version":"battery-v0.2-trt","session":2},{"rune":"Z","rune_set":"bacs2","hex":"#3366ff99","correct":-1,"choice":32,"rt":601.4499999582767,"accuracy":0,"outcome":"+1","keys":[2103.4399999771267],"total_keys":1,"block":1,"trial":1,"stimulus":3,"robot":2,"valence":"win","action":"no-go","sham":0,"trial_type":"pit-trial","trial_index":32,"time_elapsed":190212,"internal_node_id":"0.0-6.0","task_version":"battery-v0.2-trt","session":2},{"rune":"W","rune_set":"bacs2","hex":"#f73b6a7A","correct":32,"choice":32,"rt":850.6499999202788,"accuracy":1,"outcome":"-1","keys":[2350.859999889508],"total_keys":1,"block":1,"trial":2,"stimulus":1,"robot":3,"valence":"lose","action":"go","sham":0,"trial_type":"pit-trial","trial_index":33,"time_elapsed":193764,"internal_node_id":"0.0-7.0","task_version":"battery-v0.2-trt","session":2},{"rune":"J","rune_set":"bacs2","hex":"#3366ff99","correct":32,"choice":32,"rt":641.730000032112,"accuracy":1,"outcome":"+10","keys":[2142.634999938309],"total_keys":1,"block":1,"trial":3,"stimulus":0,"robot":1,"valence":"win","action":"go","sham":0,"trial_type":"pit-trial","trial_index":34,"time_elapsed":197108,"internal_node_id":"0.0-8.0","task_version":"battery-v0.2-trt","session":2},{"rune":"X","rune_set":"bacs2","hex":"#f73b6a7A","correct":-1,"choice":32,"rt":626.7500000540167,"accuracy":0,"outcome":"-10","keys":[2126.8199998885393],"total_keys":1,"block":1,"trial":4,"stimulus":2,"robot":4,"valence":"lose","action":"no-go","sham":0,"trial_type":"pit-trial","trial_index":35,"time_elapsed":200436,"internal_node_id":"0.0-9.0","task_version":"battery-v0.2-trt","session":2},{"rune":"J","rune_set":"bacs2","hex":"#3366ff99","correct":32,"choice":32,"rt":753.6599999293685,"accuracy":1,"outcome":"+10","keys":[2254.789999919012],"total_keys":1,"block":1,"trial":5,"stimulus":0,"robot":1,"valence":"win","action":"go","sham":0,"trial_type":"pit-trial","trial_index":36,"time_elapsed":203893,"internal_node_id":"0.0-10.0","task_version":"battery-v0.2-trt","session":2},{"rune":"W","rune_set":"bacs2","hex":"#f73b6a7A","correct":32,"choice":32,"rt":849.1800001356751,"accuracy":1,"outcome":"-1","keys":[2349.9350000638515],"total_keys":1,"block":1,"trial":6,"stimulus":1,"robot":3,"valence":"lose","action":"go","sham":0,"trial_type":"pit-trial","trial_index":37,"time_elapsed":207445,"internal_node_id":"0.0-11.0","task_version":"battery-v0.2-trt","session":2},{"rune":"Z","rune_set":"bacs2","hex":"#3366ff99","correct":-1,"choice":-1,"rt":-1,"accuracy":1,"outcome":"+1","keys":[],"total_keys":0,"block":1,"trial":7,"stimulus":3,"robot":2,"valence":"win","action":"no-go","sham":1,"trial_type":"pit-trial","trial_index":38,"time_elapsed":211448,"internal_node_id":"0.0-12.0","task_version":"battery-v0.2-trt","session":2},{"rune":"X","rune_set":"bacs2","hex":"#f73b6a7A","correct":-1,"choice":32,"rt":861.670000012964,"accuracy":0,"outcome":"-10","keys":[2362.8650000318885],"total_keys":1,"block":1,"trial":8,"stimulus":2,"robot":4,"valence":"lose","action":"no-go","sham":0,"trial_type":"pit-trial","trial_index":39,"time_elapsed":215013,"internal_node_id":"0.0-13.0","task_version":"battery-v0.2-trt","session":2},{"rune":"X","rune_set":"bacs2","hex":"#f73b6a7A","correct":-1,"choice":-1,"rt":-1,"accuracy":1,"outcome":"-1","keys":[],"total_keys":0,"block":1,"trial":9,"stimulus":2,"robot":4,"valence":"lose","action":"no-go","sham":0,"trial_type":"pit-trial","trial_index":40,"time_elapsed":219015,"internal_node_id":"0.0-14.0","task_version":"battery-v0.2-trt","session":2},{"rune":"J","rune_set":"bacs2","hex":"#3366ff99","correct":32,"choice":32,"rt":814.9949999060482,"accuracy":1,"outcome":"+10","keys":[2315.669999923557],"total_keys":1,"block":1,"trial":10,"stimulus":0,"robot":1,"valence":"win","action":"go","sham":0,"trial_type":"pit-trial","trial_index":41,"time_elapsed":222532,"internal_node_id":"0.0-15.0","task_version":"battery-v0.2-trt","session":2},{"rune":"Z","rune_set":"bacs2","hex":"#3366ff99","correct":-1,"choice":32,"rt":657.8000001609325,"accuracy":0,"outcome":"+10","keys":[2158.629999961704],"total_keys":1,"block":1,"trial":11,"stimulus":3,"robot":2,"valence":"win","action":"no-go","sham":1,"trial_type":"pit-trial","trial_index":42,"time_elapsed":225892,"internal_node_id":"0.0-16.0","task_version":"battery-v0.2-trt","session":2},{"rune":"W","rune_set":"bacs2","hex":"#f73b6a7A","correct":32,"choice":32,"rt":626.1599999852479,"accuracy":1,"outcome":"-1","keys":[2126.5300000086427],"total_keys":1,"block":1,"trial":12,"stimulus":1,"robot":3,"valence":"lose","action":"go","sham":0,"trial_type":"pit-trial","trial_index":43,"time_elapsed":229221,"internal_node_id":"0.0-17.0","task_version":"battery-v0.2-trt","session":2},{"rune":"X","rune_set":"bacs2","hex":"#f73b6a7A","correct":-1,"choice":-1,"rt":-1,"accuracy":1,"outcome":"-10","keys":[],"total_keys":0,"block":1,"trial":13,"stimulus":2,"robot":4,"valence":"lose","action":"no-go","sham":1,"trial_type":"pit-trial","trial_index":44,"time_elapsed":233223,"internal_node_id":"0.0-18.0","task_version":"battery-v0.2-trt","session":2},{"rune":"Z","rune_set":"bacs2","hex":"#3366ff99","correct":-1,"choice":32,"rt":591.1650001071393,"accuracy":0,"outcome":"+1","keys":[2092.0700000133365],"total_keys":1,"block":1,"trial":14,"stimulus":3,"robot":2,"valence":"win","action":"no-go","sham":0,"trial_type":"pit-trial","trial_index":45,"time_elapsed":236518,"internal_node_id":"0.0-19.0","task_version":"battery-v0.2-trt","session":2},{"rune":"W","rune_set":"bacs2","hex":"#f73b6a7A","correct":32,"choice":32,"rt":799.9149998649955,"accuracy":1,"outcome":"-1","keys":[2300.9000001475215],"total_keys":1,"block":1,"trial":15,"stimulus":1,"robot":3,"valence":"lose","action":"go","sham":0,"trial_type":"pit-trial","trial_index":46,"time_elapsed":240021,"internal_node_id":"0.0-20.0","task_version":"battery-v0.2-trt","session":2},{"rune":"J","rune_set":"bacs2","hex":"#3366ff99","correct":32,"choice":32,"rt":497.304999968037,"accuracy":1,"outcome":"+10","keys":[1997.7000001817942],"total_keys":1,"block":1,"trial":16,"stimulus":0,"robot":1,"valence":"win","action":"go","sham":0,"trial_type":"pit-trial","trial_index":47,"time_elapsed":243221,"internal_node_id":"0.0-21.0","task_version":"battery-v0.2-trt","session":2},{"rune":"Z","rune_set":"bacs2","hex":"#3366ff99","correct":-1,"choice":32,"rt":449.9749999959022,"accuracy":0,"outcome":"+1","keys":[1950.2850000280887],"total_keys":1,"block":1,"trial":17,"stimulus":3,"robot":2,"valence":"win","action":"no-go","sham":0,"trial_type":"pit-trial","trial_index":48,"time_elapsed":246373,"internal_node_id":"0.0-22.0","task_version":"battery-v0.2-trt","session":2},{"rune":"W","rune_set":"bacs2","hex":"#f73b6a7A","correct":32,"choice":32,"rt":753.0200001783669,"accuracy":1,"outcome":"-1","keys":[2253.9450000040233],"total_keys":1,"block":1,"trial":18,"stimulus":1,"robot":3,"valence":"lose","action":"go","sham":0,"trial_type":"pit-trial","trial_index":49,"time_elapsed":249829,"internal_node_id":"0.0-23.0","task_version":"battery-v0.2-trt","session":2},{"rune":"X","rune_set":"bacs2","hex":"#f73b6a7A","correct":-1,"choice":-1,"rt":-1,"accuracy":1,"outcome":"-1","keys":[],"total_keys":0,"block":1,"trial":19,"stimulus":2,"robot":4,"valence":"lose","action":"no-go","sham":0,"trial_type":"pit-trial","trial_index":50,"time_elapsed":253832,"internal_node_id":"0.0-24.0","task_version":"battery-v0.2-trt","session":2},{"rune":"J","rune_set":"bacs2","hex":"#3366ff99","correct":32,"choice":32,"rt":526.2050000019372,"accuracy":1,"outcome":"+10","keys":[2027.1199999842793],"total_keys":1,"block":1,"trial":20,"stimulus":0,"robot":1,"valence":"win","action":"go","sham":0,"trial_type":"pit-trial","trial_index":51,"time_elapsed":257060,"internal_node_id":"0.0-25.0","task_version":"battery-v0.2-trt","session":2},{"rune":"X","rune_set":"bacs2","hex":"#f73b6a7A","correct":-1,"choice":-1,"rt":-1,"accuracy":1,"outcome":"-1","keys":[],"total_keys":0,"block":1,"trial":21,"stimulus":2,"robot":4,"valence":"lose","action":"no-go","sham":0,"trial_type":"pit-trial","trial_index":52,"time_elapsed":261063,"internal_node_id":"0.0-26.0","task_version":"battery-v0.2-trt","session":2},{"rune":"W","rune_set":"bacs2","hex":"#f73b6a7A","correct":32,"choice":32,"rt":591.2849998567253,"accuracy":1,"outcome":"-1","keys":[2092.369999969378],"total_keys":1,"block":1,"trial":22,"stimulus":1,"robot":3,"valence":"lose","action":"go","sham":0,"trial_type":"pit-trial","trial_index":53,"time_elapsed":264356,"internal_node_id":"0.0-27.0","task_version":"battery-v0.2-trt","session":2},{"rune":"Z","rune_set":"bacs2","hex":"#3366ff99","correct":-1,"choice":32,"rt":466.27500001341105,"accuracy":0,"outcome":"+1","keys":[1966.4300000295043],"total_keys":1,"block":1,"trial":23,"stimulus":3,"robot":2,"valence":"win","action":"no-go","sham":0,"trial_type":"pit-trial","trial_index":54,"time_elapsed":267524,"internal_node_id":"0.0-28.0","task_version":"battery-v0.2-trt","session":2},{"rune":"J","rune_set":"bacs2","hex":"#3366ff99","correct":32,"choice":32,"rt":497.44999990798533,"accuracy":1,"outcome":"+10","keys":[1998.450000071898],"total_keys":1,"block":1,"trial":24,"stimulus":0,"robot":1,"valence":"win","action":"go","sham":0,"trial_type":"pit-trial","trial_index":55,"time_elapsed":270724,"internal_node_id":"0.0-29.0","task_version":"battery-v0.2-trt","session":2},{"rune":"Z","rune_set":"bacs2","hex":"#3366ff99","correct":-1,"choice":-1,"rt":-1,"accuracy":1,"outcome":"+1","keys":[],"total_keys":0,"block":1,"trial":25,"stimulus":3,"robot":2,"valence":"win","action":"no-go","sham":1,"trial_type":"pit-trial","trial_index":56,"time_elapsed":274726,"internal_node_id":"0.0-30.0","task_version":"battery-v0.2-trt","session":2},{"rune":"W","rune_set":"bacs2","hex":"#f73b6a7A","correct":32,"choice":32,"rt":783.8850000407547,"accuracy":1,"outcome":"-1","keys":[2284.555000020191],"total_keys":1,"block":1,"trial":26,"stimulus":1,"robot":3,"valence":"lose","action":"go","sham":0,"trial_type":"pit-trial","trial_index":57,"time_elapsed":278212,"internal_node_id":"0.0-31.0","task_version":"battery-v0.2-trt","session":2},{"rune":"J","rune_set":"bacs2","hex":"#3366ff99","correct":32,"choice":32,"rt":417.31499996967614,"accuracy":1,"outcome":"+10","keys":[1918.3699998538941],"total_keys":1,"block":1,"trial":27,"stimulus":0,"robot":1,"valence":"win","action":"go","sham":0,"trial_type":"pit-trial","trial_index":58,"time_elapsed":281333,"internal_node_id":"0.0-32.0","task_version":"battery-v0.2-trt","session":2},{"rune":"X","rune_set":"bacs2","hex":"#f73b6a7A","correct":-1,"choice":32,"rt":785.8099997974932,"accuracy":0,"outcome":"-10","keys":[2286.210000049323],"total_keys":1,"block":1,"trial":28,"stimulus":2,"robot":4,"valence":"lose","action":"no-go","sham":0,"trial_type":"pit-trial","trial_index":59,"time_elapsed":284821,"internal_node_id":"0.0-33.0","task_version":"battery-v0.2-trt","session":2},{"rune":"Z","rune_set":"bacs2","hex":"#3366ff99","correct":-1,"choice":-1,"rt":-1,"accuracy":1,"outcome":"+10","keys":[],"total_keys":0,"block":1,"trial":29,"stimulus":3,"robot":2,"valence":"win","action":"no-go","sham":0,"trial_type":"pit-trial","trial_index":60,"time_elapsed":288823,"internal_node_id":"0.0-34.0","task_version":"battery-v0.2-trt","session":2},{"rune":"J","rune_set":"bacs2","hex":"#3366ff99","correct":32,"choice":32,"rt":430.3999999538064,"accuracy":1,"outcome":"+10","keys":[1931.3050000928342],"total_keys":1,"block":1,"trial":30,"stimulus":0,"robot":1,"valence":"win","action":"go","sham":0,"trial_type":"pit-trial","trial_index":61,"time_elapsed":291957,"internal_node_id":"0.0-35.0","task_version":"battery-v0.2-trt","session":2},{"rune":"W","rune_set":"bacs2","hex":"#f73b6a7A","correct":32,"choice":32,"rt":576.0200000368059,"accuracy":1,"outcome":"-1","keys":[2077.609999803826],"total_keys":1,"block":1,"trial":31,"stimulus":1,"robot":3,"valence":"lose","action":"go","sham":0,"trial_type":"pit-trial","trial_index":62,"time_elapsed":295237,"internal_node_id":"0.0-36.0","task_version":"battery-v0.2-trt","session":2},{"rune":"X","rune_set":"bacs2","hex":"#f73b6a7A","correct":-1,"choice":-1,"rt":-1,"accuracy":1,"outcome":"-1","keys":[],"total_keys":0,"block":1,"trial":32,"stimulus":2,"robot":4,"valence":"lose","action":"no-go","sham":0,"trial_type":"pit-trial","trial_index":63,"time_elapsed":299241,"internal_node_id":"0.0-37.0","task_version":"battery-v0.2-trt","session":2},{"rune":"G","rune_set":"bacs2","hex":"#f73b6a7A","correct":-1,"choice":32,"rt":700.5400001071393,"accuracy":0,"outcome":"-1","keys":[2200.969999888912],"total_keys":1,"block":1,"trial":33,"stimulus":4,"robot":4,"valence":"lose","action":"no-go","sham":1,"trial_type":"pit-trial","trial_index":64,"time_elapsed":302645,"internal_node_id":"0.0-38.0","task_version":"battery-v0.2-trt","session":2},{"rune":"W","rune_set":"bacs2","hex":"#f73b6a7A","correct":32,"choice":32,"rt":944.1900001838803,"accuracy":1,"outcome":"-1","keys":[2444.584999931976],"total_keys":1,"block":1,"trial":34,"stimulus":1,"robot":3,"valence":"lose","action":"go","sham":0,"trial_type":"pit-trial","trial_index":65,"time_elapsed":306292,"internal_node_id":"0.0-39.0","task_version":"battery-v0.2-trt","session":2},{"rune":"J","rune_set":"bacs2","hex":"#3366ff99","correct":32,"choice":32,"rt":561.259999871254,"accuracy":1,"outcome":"+10","keys":[2061.9799999985844],"total_keys":1,"block":1,"trial":35,"stimulus":0,"robot":1,"valence":"win","action":"go","sham":0,"trial_type":"pit-trial","trial_index":66,"time_elapsed":309556,"internal_node_id":"0.0-40.0","task_version":"battery-v0.2-trt","session":2},{"rune":"Z","rune_set":"bacs2","hex":"#3366ff99","correct":-1,"choice":32,"rt":688.0449999589473,"accuracy":0,"outcome":"+1","keys":[2190.0849998928607],"total_keys":1,"block":1,"trial":36,"stimulus":3,"robot":2,"valence":"win","action":"no-go","sham":0,"trial_type":"pit-trial","trial_index":67,"time_elapsed":312948,"internal_node_id":"0.0-41.0","task_version":"battery-v0.2-trt","session":2},{"rune":"G","rune_set":"bacs2","hex":"#f73b6a7A","correct":-1,"choice":32,"rt":625.7200001273304,"accuracy":0,"outcome":"-10","keys":[2126.4599999412894],"total_keys":1,"block":1,"trial":37,"stimulus":4,"robot":4,"valence":"lose","action":"no-go","sham":0,"trial_type":"pit-trial","trial_index":68,"time_elapsed":316276,"internal_node_id":"0.0-42.0","task_version":"battery-v0.2-trt","session":2},{"rune":"Z","rune_set":"bacs2","hex":"#3366ff99","correct":-1,"choice":32,"rt":673.7299999222159,"accuracy":0,"outcome":"+1","keys":[2174.200000008568],"total_keys":1,"block":1,"trial":38,"stimulus":3,"robot":2,"valence":"win","action":"no-go","sham":0,"trial_type":"pit-trial","trial_index":69,"time_elapsed":319652,"internal_node_id":"0.0-43.0","task_version":"battery-v0.2-trt","session":2},{"rune":"J","rune_set":"bacs2","hex":"#3366ff99","correct":32,"choice":32,"rt":481.0949999373406,"accuracy":1,"outcome":"+10","keys":[1982.090000063181],"total_keys":1,"block":1,"trial":39,"stimulus":0,"robot":1,"valence":"win","action":"go","sham":0,"trial_type":"pit-trial","trial_index":70,"time_elapsed":322836,"internal_node_id":"0.0-44.0","task_version":"battery-v0.2-trt","session":2},{"rune":"W","rune_set":"bacs2","hex":"#f73b6a7A","correct":32,"choice":32,"rt":514.0500001143664,"accuracy":1,"outcome":"-1","keys":[2014.7199998609722],"total_keys":1,"block":1,"trial":40,"stimulus":1,"robot":3,"valence":"lose","action":"go","sham":0,"trial_type":"pit-trial","trial_index":71,"time_elapsed":326052,"internal_node_id":"0.0-45.0","task_version":"battery-v0.2-trt","session":2},{"rune":"O","rune_set":"bacs2","hex":"#f73b6a7A","correct":32,"choice":-1,"rt":-1,"accuracy":0,"outcome":"-10","keys":[],"total_keys":0,"block":1,"trial":41,"stimulus":5,"robot":3,"valence":"lose","action":"go","sham":0,"trial_type":"pit-trial","trial_index":72,"time_elapsed":330055,"internal_node_id":"0.0-46.0","task_version":"battery-v0.2-trt","session":2},{"rune":"Z","rune_set":"bacs2","hex":"#3366ff99","correct":-1,"choice":-1,"rt":-1,"accuracy":1,"outcome":"+10","keys":[],"total_keys":0,"block":1,"trial":42,"stimulus":3,"robot":2,"valence":"win","action":"no-go","sham":0,"trial_type":"pit-trial","trial_index":73,"time_elapsed":334058,"internal_node_id":"0.0-47.0","task_version":"battery-v0.2-trt","session":2},{"rune":"G","rune_set":"bacs2","hex":"#f73b6a7A","correct":-1,"choice":32,"rt":636.790000135079,"accuracy":0,"outcome":"-1","keys":[2137.014999985695],"total_keys":1,"block":1,"trial":43,"stimulus":4,"robot":4,"valence":"lose","action":"no-go","sham":1,"trial_type":"pit-trial","trial_index":74,"time_elapsed":337396,"internal_node_id":"0.0-48.0","task_version":"battery-v0.2-trt","session":2},{"rune":"J","rune_set":"bacs2","hex":"#3366ff99","correct":32,"choice":32,"rt":593.7749999575317,"accuracy":1,"outcome":"+10","keys":[2094.705000054091],"total_keys":1,"block":1,"trial":44,"stimulus":0,"robot":1,"valence":"win","action":"go","sham":0,"trial_type":"pit-trial","trial_index":75,"time_elapsed":340692,"internal_node_id":"0.0-49.0","task_version":"battery-v0.2-trt","session":2},{"rune":"Z","rune_set":"bacs2","hex":"#3366ff99","correct":-1,"choice":-1,"rt":-1,"accuracy":1,"outcome":"+10","keys":[],"total_keys":0,"block":1,"trial":45,"stimulus":3,"robot":2,"valence":"win","action":"no-go","sham":0,"trial_type":"pit-trial","trial_index":76,"time_elapsed":344694,"internal_node_id":"0.0-50.0","task_version":"battery-v0.2-trt","session":2},{"rune":"O","rune_set":"bacs2","hex":"#f73b6a7A","correct":32,"choice":32,"rt":688.689999980852,"accuracy":1,"outcome":"-10","keys":[2189.140000147745],"total_keys":1,"block":1,"trial":46,"stimulus":5,"robot":3,"valence":"lose","action":"go","sham":1,"trial_type":"pit-trial","trial_index":77,"time_elapsed":348085,"internal_node_id":"0.0-51.0","task_version":"battery-v0.2-trt","session":2},{"rune":"G","rune_set":"bacs2","hex":"#f73b6a7A","correct":-1,"choice":32,"rt":721.7099999543279,"accuracy":0,"outcome":"-10","keys":[2221.780000021681],"total_keys":1,"block":1,"trial":47,"stimulus":4,"robot":4,"valence":"lose","action":"no-go","sham":0,"trial_type":"pit-trial","trial_index":78,"time_elapsed":351508,"internal_node_id":"0.0-52.0","task_version":"battery-v0.2-trt","session":2},{"rune":"J","rune_set":"bacs2","hex":"#3366ff99","correct":32,"choice":32,"rt":465.96499998122454,"accuracy":1,"outcome":"+10","keys":[1966.3150000851601],"total_keys":1,"block":1,"trial":48,"stimulus":0,"robot":1,"valence":"win","action":"go","sham":0,"trial_type":"pit-trial","trial_index":79,"time_elapsed":354676,"internal_node_id":"0.0-53.0","task_version":"battery-v0.2-trt","session":2},{"rune":"C","rune_set":"bacs2","hex":"#3366ff99","correct":-1,"choice":32,"rt":625.5449999589473,"accuracy":0,"outcome":"+1","keys":[2126.1549999471754],"total_keys":1,"block":1,"trial":49,"stimulus":6,"robot":2,"valence":"win","action":"no-go","sham":0,"trial_type":"pit-trial","trial_index":80,"time_elapsed":358004,"internal_node_id":"0.0-54.0","task_version":"battery-v0.2-trt","session":2},{"rune":"E","rune_set":"bacs2","hex":"#3366ff99","correct":-1,"choice":32,"rt":689.5300000905991,"accuracy":0,"outcome":"+1","keys":[2190.0949999690056],"total_keys":1,"block":1,"trial":50,"stimulus":7,"robot":2,"valence":"win","action":"no-go","sham":0,"trial_type":"pit-trial","trial_index":81,"time_elapsed":361396,"internal_node_id":"0.0-55.0","task_version":"battery-v0.2-trt","session":2},{"rune":"O","rune_set":"bacs2","hex":"#f73b6a7A","correct":32,"choice":32,"rt":978.0550000723451,"accuracy":1,"outcome":"-1","keys":[2478.804999962449],"total_keys":1,"block":1,"trial":51,"stimulus":5,"robot":3,"valence":"lose","action":"go","sham":0,"trial_type":"pit-trial","trial_index":82,"time_elapsed":365077,"internal_node_id":"0.0-56.0","task_version":"battery-v0.2-trt","session":2},{"rune":"G","rune_set":"bacs2","hex":"#f73b6a7A","correct":-1,"choice":32,"rt":801.6150000039488,"accuracy":0,"outcome":"-10","keys":[2301.8199999351054],"total_keys":1,"block":1,"trial":52,"stimulus":4,"robot":4,"valence":"lose","action":"no-go","sham":0,"trial_type":"pit-trial","trial_index":83,"time_elapsed":368581,"internal_node_id":"0.0-57.0","task_version":"battery-v0.2-trt","session":2},{"rune":"E","rune_set":"bacs2","hex":"#3366ff99","correct":-1,"choice":-1,"rt":-1,"accuracy":1,"outcome":"+10","keys":[],"total_keys":0,"block":1,"trial":53,"stimulus":7,"robot":2,"valence":"win","action":"no-go","sham":0,"trial_type":"pit-trial","trial_index":84,"time_elapsed":372584,"internal_node_id":"0.0-58.0","task_version":"battery-v0.2-trt","session":2},{"rune":"O","rune_set":"bacs2","hex":"#f73b6a7A","correct":32,"choice":32,"rt":766.279999865219,"accuracy":1,"outcome":"-1","keys":[2266.580000054091],"total_keys":1,"block":1,"trial":54,"stimulus":5,"robot":3,"valence":"lose","action":"go","sham":0,"trial_type":"pit-trial","trial_index":85,"time_elapsed":376053,"internal_node_id":"0.0-59.0","task_version":"battery-v0.2-trt","session":2},{"rune":"C","rune_set":"bacs2","hex":"#3366ff99","correct":-1,"choice":-1,"rt":-1,"accuracy":1,"outcome":"+10","keys":[],"total_keys":0,"block":1,"trial":55,"stimulus":6,"robot":2,"valence":"win","action":"no-go","sham":0,"trial_type":"pit-trial","trial_index":86,"time_elapsed":380055,"internal_node_id":"0.0-60.0","task_version":"battery-v0.2-trt","session":2},{"rune":"G","rune_set":"bacs2","hex":"#f73b6a7A","correct":-1,"choice":32,"rt":798.7100000027567,"accuracy":0,"outcome":"-10","keys":[2300.519999815151],"total_keys":1,"block":1,"trial":56,"stimulus":4,"robot":4,"valence":"lose","action":"no-go","sham":0,"trial_type":"pit-trial","trial_index":87,"time_elapsed":383557,"internal_node_id":"0.0-61.0","task_version":"battery-v0.2-trt","session":2},{"rune":"G","rune_set":"bacs2","hex":"#f73b6a7A","correct":-1,"choice":-1,"rt":-1,"accuracy":1,"outcome":"-1","keys":[],"total_keys":0,"block":1,"trial":57,"stimulus":4,"robot":4,"valence":"lose","action":"no-go","sham":0,"trial_type":"pit-trial","trial_index":88,"time_elapsed":387560,"internal_node_id":"0.0-62.0","task_version":"battery-v0.2-trt","session":2},{"rune":"O","rune_set":"bacs2","hex":"#f73b6a7A","correct":32,"choice":32,"rt":1261.380000039935,"accuracy":1,"outcome":"-1","keys":[2762.455000076443],"total_keys":1,"block":1,"trial":58,"stimulus":5,"robot":3,"valence":"lose","action":"go","sham":0,"trial_type":"pit-trial","trial_index":89,"time_elapsed":391524,"internal_node_id":"0.0-63.0","task_version":"battery-v0.2-trt","session":2},{"rune":"E","rune_set":"bacs2","hex":"#3366ff99","correct":-1,"choice":-1,"rt":-1,"accuracy":1,"outcome":"+10","keys":[],"total_keys":0,"block":1,"trial":59,"stimulus":7,"robot":2,"valence":"win","action":"no-go","sham":0,"trial_type":"pit-trial","trial_index":90,"time_elapsed":395534,"internal_node_id":"0.0-64.0","task_version":"battery-v0.2-trt","session":2},{"rune":"C","rune_set":"bacs2","hex":"#3366ff99","correct":-1,"choice":-1,"rt":-1,"accuracy":1,"outcome":"+1","keys":[],"total_keys":0,"block":1,"trial":60,"stimulus":6,"robot":2,"valence":"win","action":"no-go","sham":1,"trial_type":"pit-trial","trial_index":91,"time_elapsed":399537,"internal_node_id":"0.0-65.0","task_version":"battery-v0.2-trt","session":2},{"rune":"O","rune_set":"bacs2","hex":"#f73b6a7A","correct":32,"choice":32,"rt":660.7450000010431,"accuracy":1,"outcome":"-1","keys":[2161.8149999994785],"total_keys":1,"block":1,"trial":61,"stimulus":5,"robot":3,"valence":"lose","action":"go","sham":0,"trial_type":"pit-trial","trial_index":92,"time_elapsed":402900,"internal_node_id":"0.0-66.0","task_version":"battery-v0.2-trt","session":2},{"rune":"E","rune_set":"bacs2","hex":"#3366ff99","correct":-1,"choice":-1,"rt":-1,"accuracy":1,"outcome":"+1","keys":[],"total_keys":0,"block":1,"trial":62,"stimulus":7,"robot":2,"valence":"win","action":"no-go","sham":1,"trial_type":"pit-trial","trial_index":93,"time_elapsed":406903,"internal_node_id":"0.0-67.0","task_version":"battery-v0.2-trt","session":2},{"rune":"G","rune_set":"bacs2","hex":"#f73b6a7A","correct":-1,"choice":-1,"rt":-1,"accuracy":1,"outcome":"-1","keys":[],"total_keys":0,"block":1,"trial":63,"stimulus":4,"robot":4,"valence":"lose","action":"no-go","sham":0,"trial_type":"pit-trial","trial_index":94,"time_elapsed":410905,"internal_node_id":"0.0-68.0","task_version":"battery-v0.2-trt","session":2},{"rune":"C","rune_set":"bacs2","hex":"#3366ff99","correct":-1,"choice":-1,"rt":-1,"accuracy":1,"outcome":"+10","keys":[],"total_keys":0,"block":1,"trial":64,"stimulus":6,"robot":2,"valence":"win","action":"no-go","sham":0,"trial_type":"pit-trial","trial_index":95,"time_elapsed":414908,"internal_node_id":"0.0-69.0","task_version":"battery-v0.2-trt","session":2},{"rune":"O","rune_set":"bacs2","hex":"#f73b6a7A","correct":32,"choice":32,"rt":585.8549999538809,"accuracy":1,"outcome":"-1","keys":[2086.570000043139],"total_keys":1,"block":1,"trial":65,"stimulus":5,"robot":3,"valence":"lose","action":"go","sham":0,"trial_type":"pit-trial","trial_index":96,"time_elapsed":418197,"internal_node_id":"0.0-70.0","task_version":"battery-v0.2-trt","session":2},{"rune":"C","rune_set":"bacs2","hex":"#3366ff99","correct":-1,"choice":-1,"rt":-1,"accuracy":1,"outcome":"+10","keys":[],"total_keys":0,"block":1,"trial":66,"stimulus":6,"robot":2,"valence":"win","action":"no-go","sham":0,"trial_type":"pit-trial","trial_index":97,"time_elapsed":422200,"internal_node_id":"0.0-71.0","task_version":"battery-v0.2-trt","session":2},{"rune":"G","rune_set":"bacs2","hex":"#f73b6a7A","correct":-1,"choice":-1,"rt":-1,"accuracy":1,"outcome":"-1","keys":[],"total_keys":0,"block":1,"trial":67,"stimulus":4,"robot":4,"valence":"lose","action":"no-go","sham":0,"trial_type":"pit-trial","trial_index":98,"time_elapsed":426203,"internal_node_id":"0.0-72.0","task_version":"battery-v0.2-trt","session":2},{"rune":"E","rune_set":"bacs2","hex":"#3366ff99","correct":-1,"choice":-1,"rt":-1,"accuracy":1,"outcome":"+1","keys":[],"total_keys":0,"block":1,"trial":68,"stimulus":7,"robot":2,"valence":"win","action":"no-go","sham":1,"trial_type":"pit-trial","trial_index":99,"time_elapsed":430205,"internal_node_id":"0.0-73.0","task_version":"battery-v0.2-trt","session":2},{"rune":"O","rune_set":"bacs2","hex":"#f73b6a7A","correct":32,"choice":32,"rt":921.0299998521805,"accuracy":1,"outcome":"-1","keys":[2421.6499999165535],"total_keys":1,"block":1,"trial":69,"stimulus":5,"robot":3,"valence":"lose","action":"go","sham":0,"trial_type":"pit-trial","trial_index":100,"time_elapsed":433828,"internal_node_id":"0.0-74.0","task_version":"battery-v0.2-trt","session":2},{"rune":"C","rune_set":"bacs2","hex":"#3366ff99","correct":-1,"choice":-1,"rt":-1,"accuracy":1,"outcome":"+10","keys":[],"total_keys":0,"block":1,"trial":70,"stimulus":6,"robot":2,"valence":"win","action":"no-go","sham":0,"trial_type":"pit-trial","trial_index":101,"time_elapsed":437842,"internal_node_id":"0.0-75.0","task_version":"battery-v0.2-trt","session":2},{"rune":"E","rune_set":"bacs2","hex":"#3366ff99","correct":-1,"choice":-1,"rt":-1,"accuracy":1,"outcome":"+10","keys":[],"total_keys":0,"block":1,"trial":71,"stimulus":7,"robot":2,"valence":"win","action":"no-go","sham":0,"trial_type":"pit-trial","trial_index":102,"time_elapsed":441847,"internal_node_id":"0.0-76.0","task_version":"battery-v0.2-trt","session":2},{"rune":"G","rune_set":"bacs2","hex":"#f73b6a7A","correct":-1,"choice":-1,"rt":-1,"accuracy":1,"outcome":"-1","keys":[],"total_keys":0,"block":1,"trial":72,"stimulus":4,"robot":4,"valence":"lose","action":"no-go","sham":0,"trial_type":"pit-trial","trial_index":103,"time_elapsed":445850,"internal_node_id":"0.0-77.0","task_version":"battery-v0.2-trt","session":2},{"rune":"O","rune_set":"bacs2","hex":"#f73b6a7A","correct":32,"choice":32,"rt":428.7200001999736,"accuracy":1,"outcome":"-1","keys":[1929.0099998470396],"total_keys":1,"block":1,"trial":73,"stimulus":5,"robot":3,"valence":"lose","action":"go","sham":0,"trial_type":"pit-trial","trial_index":104,"time_elapsed":448981,"internal_node_id":"0.0-78.0","task_version":"battery-v0.2-trt","session":2},{"rune":"E","rune_set":"bacs2","hex":"#3366ff99","correct":-1,"choice":-1,"rt":-1,"accuracy":1,"outcome":"+1","keys":[],"total_keys":0,"block":1,"trial":74,"stimulus":7,"robot":2,"valence":"win","action":"no-go","sham":1,"trial_type":"pit-trial","trial_index":105,"time_elapsed":452982,"internal_node_id":"0.0-79.0","task_version":"battery-v0.2-trt","session":2},{"rune":"G","rune_set":"bacs2","hex":"#f73b6a7A","correct":-1,"choice":-1,"rt":-1,"accuracy":1,"outcome":"-1","keys":[],"total_keys":0,"block":1,"trial":75,"stimulus":4,"robot":4,"valence":"lose","action":"no-go","sham":0,"trial_type":"pit-trial","trial_index":106,"time_elapsed":456985,"internal_node_id":"0.0-80.0","task_version":"battery-v0.2-trt","session":2},{"rune":"C","rune_set":"bacs2","hex":"#3366ff99","correct":-1,"choice":-1,"rt":-1,"accuracy":1,"outcome":"+10","keys":[],"total_keys":0,"block":1,"trial":76,"stimulus":6,"robot":2,"valence":"win","action":"no-go","sham":0,"trial_type":"pit-trial","trial_index":107,"time_elapsed":460988,"internal_node_id":"0.0-81.0","task_version":"battery-v0.2-trt","session":2},{"rune":"C","rune_set":"bacs2","hex":"#3366ff99","correct":-1,"choice":-1,"rt":-1,"accuracy":1,"outcome":"+1","keys":[],"total_keys":0,"block":1,"trial":77,"stimulus":6,"robot":2,"valence":"win","action":"no-go","sham":1,"trial_type":"pit-trial","trial_index":108,"time_elapsed":464990,"internal_node_id":"0.0-82.0","task_version":"battery-v0.2-trt","session":2},{"rune":"G","rune_set":"bacs2","hex":"#f73b6a7A","correct":-1,"choice":-1,"rt":-1,"accuracy":1,"outcome":"-1","keys":[],"total_keys":0,"block":1,"trial":78,"stimulus":4,"robot":4,"valence":"lose","action":"no-go","sham":0,"trial_type":"pit-trial","trial_index":109,"time_elapsed":468993,"internal_node_id":"0.0-83.0","task_version":"battery-v0.2-trt","session":2},{"rune":"E","rune_set":"bacs2","hex":"#3366ff99","correct":-1,"choice":-1,"rt":-1,"accuracy":1,"outcome":"+1","keys":[],"total_keys":0,"block":1,"trial":79,"stimulus":7,"robot":2,"valence":"win","action":"no-go","sham":1,"trial_type":"pit-trial","trial_index":110,"time_elapsed":472995,"internal_node_id":"0.0-84.0","task_version":"battery-v0.2-trt","session":2},{"rune":"O","rune_set":"bacs2","hex":"#f73b6a7A","correct":32,"choice":32,"rt":641.8049999047071,"accuracy":1,"outcome":"-1","keys":[2142.824999988079],"total_keys":1,"block":1,"trial":80,"stimulus":5,"robot":3,"valence":"lose","action":"go","sham":0,"trial_type":"pit-trial","trial_index":111,"time_elapsed":476341,"internal_node_id":"0.0-85.0","task_version":"battery-v0.2-trt","session":2},{"rune":"Q","rune_set":"bacs2","hex":"#f73b6a7A","correct":-1,"choice":-1,"rt":-1,"accuracy":1,"outcome":"-1","keys":[],"total_keys":0,"block":1,"trial":81,"stimulus":9,"robot":4,"valence":"lose","action":"no-go","sham":0,"trial_type":"pit-trial","trial_index":112,"time_elapsed":480344,"internal_node_id":"0.0-86.0","task_version":"battery-v0.2-trt","session":2},{"rune":"H","rune_set":"bacs2","hex":"#3366ff99","correct":32,"choice":32,"rt":702.4499999824911,"accuracy":1,"outcome":"+10","keys":[2202.7000000234693],"total_keys":1,"block":1,"trial":82,"stimulus":8,"robot":1,"valence":"win","action":"go","sham":0,"trial_type":"pit-trial","trial_index":113,"time_elapsed":483748,"internal_node_id":"0.0-87.0","task_version":"battery-v0.2-trt","session":2},{"rune":"E","rune_set":"bacs2","hex":"#3366ff99","correct":-1,"choice":-1,"rt":-1,"accuracy":1,"outcome":"+10","keys":[],"total_keys":0,"block":1,"trial":83,"stimulus":7,"robot":2,"valence":"win","action":"no-go","sham":0,"trial_type":"pit-trial","trial_index":114,"time_elapsed":487750,"internal_node_id":"0.0-88.0","task_version":"battery-v0.2-trt","session":2},{"rune":"O","rune_set":"bacs2","hex":"#f73b6a7A","correct":32,"choice":32,"rt":752.0550000481308,"accuracy":1,"outcome":"-10","keys":[2252.254999941215],"total_keys":1,"block":1,"trial":84,"stimulus":5,"robot":3,"valence":"lose","action":"go","sham":1,"trial_type":"pit-trial","trial_index":115,"time_elapsed":491204,"internal_node_id":"0.0-89.0","task_version":"battery-v0.2-trt","session":2},{"rune":"O","rune_set":"bacs2","hex":"#f73b6a7A","correct":32,"choice":32,"rt":801.2549998238683,"accuracy":1,"outcome":"-1","keys":[2302.265000063926],"total_keys":1,"block":1,"trial":85,"stimulus":5,"robot":3,"valence":"lose","action":"go","sham":0,"trial_type":"pit-trial","trial_index":116,"time_elapsed":494708,"internal_node_id":"0.0-90.0","task_version":"battery-v0.2-trt","session":2},{"rune":"Q","rune_set":"bacs2","hex":"#f73b6a7A","correct":-1,"choice":-1,"rt":-1,"accuracy":1,"outcome":"-10","keys":[],"total_keys":0,"block":1,"trial":86,"stimulus":9,"robot":4,"valence":"lose","action":"no-go","sham":1,"trial_type":"pit-trial","trial_index":117,"time_elapsed":498712,"internal_node_id":"0.0-91.0","task_version":"battery-v0.2-trt","session":2},{"rune":"H","rune_set":"bacs2","hex":"#3366ff99","correct":32,"choice":-1,"rt":-1,"accuracy":0,"outcome":"+1","keys":[2826.8049999605864],"total_keys":1,"block":1,"trial":87,"stimulus":8,"robot":1,"valence":"win","action":"go","sham":0,"trial_type":"pit-trial","trial_index":118,"time_elapsed":502714,"internal_node_id":"0.0-92.0","task_version":"battery-v0.2-trt","session":2},{"rune":"E","rune_set":"bacs2","hex":"#3366ff99","correct":-1,"choice":-1,"rt":-1,"accuracy":1,"outcome":"+10","keys":[],"total_keys":0,"block":1,"trial":88,"stimulus":7,"robot":2,"valence":"win","action":"no-go","sham":0,"trial_type":"pit-trial","trial_index":119,"time_elapsed":506717,"internal_node_id":"0.0-93.0","task_version":"battery-v0.2-trt","session":2},{"rune":"T","rune_set":"bacs2","hex":"#f73b6a7A","correct":32,"choice":-1,"rt":-1,"accuracy":0,"outcome":"-10","keys":[],"total_keys":0,"block":1,"trial":89,"stimulus":10,"robot":3,"valence":"lose","action":"go","sham":0,"trial_type":"pit-trial","trial_index":120,"time_elapsed":510721,"internal_node_id":"0.0-94.0","task_version":"battery-v0.2-trt","session":2},{"rune":"Q","rune_set":"bacs2","hex":"#f73b6a7A","correct":-1,"choice":-1,"rt":-1,"accuracy":1,"outcome":"-1","keys":[],"total_keys":0,"block":1,"trial":90,"stimulus":9,"robot":4,"valence":"lose","action":"no-go","sham":0,"trial_type":"pit-trial","trial_index":121,"time_elapsed":514728,"internal_node_id":"0.0-95.0","task_version":"battery-v0.2-trt","session":2},{"rune":"Y","rune_set":"bacs2","hex":"#3366ff99","correct":32,"choice":32,"rt":956.9749999791384,"accuracy":1,"outcome":"+10","keys":[2458.4049999248236],"total_keys":1,"block":1,"trial":91,"stimulus":11,"robot":1,"valence":"win","action":"go","sham":0,"trial_type":"pit-trial","trial_index":122,"time_elapsed":518388,"internal_node_id":"0.0-96.0","task_version":"battery-v0.2-trt","session":2},{"rune":"H","rune_set":"bacs2","hex":"#3366ff99","correct":32,"choice":-1,"rt":-1,"accuracy":0,"outcome":"+1","keys":[],"total_keys":0,"block":1,"trial":92,"stimulus":8,"robot":1,"valence":"win","action":"go","sham":0,"trial_type":"pit-trial","trial_index":123,"time_elapsed":522391,"internal_node_id":"0.0-97.0","task_version":"battery-v0.2-trt","session":2},{"rune":"Q","rune_set":"bacs2","hex":"#f73b6a7A","correct":-1,"choice":-1,"rt":-1,"accuracy":1,"outcome":"-1","keys":[],"total_keys":0,"block":1,"trial":93,"stimulus":9,"robot":4,"valence":"lose","action":"no-go","sham":0,"trial_type":"pit-trial","trial_index":124,"time_elapsed":526393,"internal_node_id":"0.0-98.0","task_version":"battery-v0.2-trt","session":2},{"rune":"H","rune_set":"bacs2","hex":"#3366ff99","correct":32,"choice":32,"rt":636.604999890551,"accuracy":1,"outcome":"+10","keys":[2137.739999918267],"total_keys":1,"block":1,"trial":94,"stimulus":8,"robot":1,"valence":"win","action":"go","sham":0,"trial_type":"pit-trial","trial_index":125,"time_elapsed":529732,"internal_node_id":"0.0-99.0","task_version":"battery-v0.2-trt","session":2},{"rune":"T","rune_set":"bacs2","hex":"#f73b6a7A","correct":32,"choice":-1,"rt":-1,"accuracy":0,"outcome":"-10","keys":[],"total_keys":0,"block":1,"trial":95,"stimulus":10,"robot":3,"valence":"lose","action":"go","sham":0,"trial_type":"pit-trial","trial_index":126,"time_elapsed":533735,"internal_node_id":"0.0-100.0","task_version":"battery-v0.2-trt","session":2},{"rune":"Y","rune_set":"bacs2","hex":"#3366ff99","correct":32,"choice":-1,"rt":-1,"accuracy":0,"outcome":"+1","keys":[2875.0249999575317],"total_keys":1,"block":1,"trial":96,"stimulus":11,"robot":1,"valence":"win","action":"go","sham":0,"trial_type":"pit-trial","trial_index":127,"time_elapsed":537738,"internal_node_id":"0.0-101.0","task_version":"battery-v0.2-trt","session":2},{"rune":"Y","rune_set":"bacs2","hex":"#3366ff99","correct":32,"choice":32,"rt":764.2500000074506,"accuracy":1,"outcome":"+10","keys":[2264.614999992773],"total_keys":1,"block":1,"trial":97,"stimulus":11,"robot":1,"valence":"win","action":"go","sham":0,"trial_type":"pit-trial","trial_index":128,"time_elapsed":541204,"internal_node_id":"0.0-102.0","task_version":"battery-v0.2-trt","session":2},{"rune":"H","rune_set":"bacs2","hex":"#3366ff99","correct":32,"choice":-1,"rt":-1,"accuracy":0,"outcome":"+1","keys":[],"total_keys":0,"block":1,"trial":98,"stimulus":8,"robot":1,"valence":"win","action":"go","sham":0,"trial_type":"pit-trial","trial_index":129,"time_elapsed":545208,"internal_node_id":"0.0-103.0","task_version":"battery-v0.2-trt","session":2},{"rune":"Q","rune_set":"bacs2","hex":"#f73b6a7A","correct":-1,"choice":-1,"rt":-1,"accuracy":1,"outcome":"-1","keys":[],"total_keys":0,"block":1,"trial":99,"stimulus":9,"robot":4,"valence":"lose","action":"no-go","sham":0,"trial_type":"pit-trial","trial_index":130,"time_elapsed":549210,"internal_node_id":"0.0-104.0","task_version":"battery-v0.2-trt","session":2},{"rune":"T","rune_set":"bacs2","hex":"#f73b6a7A","correct":32,"choice":32,"rt":1098.994999891147,"accuracy":1,"outcome":"-1","keys":[2599.7999999672174],"total_keys":1,"block":1,"trial":100,"stimulus":10,"robot":3,"valence":"lose","action":"go","sham":0,"trial_type":"pit-trial","trial_index":131,"time_elapsed":553013,"internal_node_id":"0.0-105.0","task_version":"battery-v0.2-trt","session":2},{"rune":"T","rune_set":"bacs2","hex":"#f73b6a7A","correct":32,"choice":-1,"rt":-1,"accuracy":0,"outcome":"-10","keys":[],"total_keys":0,"block":1,"trial":101,"stimulus":10,"robot":3,"valence":"lose","action":"go","sham":0,"trial_type":"pit-trial","trial_index":132,"time_elapsed":557015,"internal_node_id":"0.0-106.0","task_version":"battery-v0.2-trt","session":2},{"rune":"Y","rune_set":"bacs2","hex":"#3366ff99","correct":32,"choice":32,"rt":989.8449999745935,"accuracy":1,"outcome":"+10","keys":[2490.6649999320507],"total_keys":1,"block":1,"trial":102,"stimulus":11,"robot":1,"valence":"win","action":"go","sham":0,"trial_type":"pit-trial","trial_index":133,"time_elapsed":560708,"internal_node_id":"0.0-107.0","task_version":"battery-v0.2-trt","session":2},{"rune":"H","rune_set":"bacs2","hex":"#3366ff99","correct":32,"choice":32,"rt":898.4300000593066,"accuracy":1,"outcome":"+10","keys":[2398.4449999406934],"total_keys":1,"block":1,"trial":103,"stimulus":8,"robot":1,"valence":"win","action":"go","sham":0,"trial_type":"pit-trial","trial_index":134,"time_elapsed":564308,"internal_node_id":"0.0-108.0","task_version":"battery-v0.2-trt","session":2},{"rune":"Q","rune_set":"bacs2","hex":"#f73b6a7A","correct":-1,"choice":-1,"rt":-1,"accuracy":1,"outcome":"-1","keys":[],"total_keys":0,"block":1,"trial":104,"stimulus":9,"robot":4,"valence":"lose","action":"no-go","sham":0,"trial_type":"pit-trial","trial_index":135,"time_elapsed":568311,"internal_node_id":"0.0-109.0","task_version":"battery-v0.2-trt","session":2},{"rune":"Y","rune_set":"bacs2","hex":"#3366ff99","correct":32,"choice":32,"rt":574.2200000677258,"accuracy":1,"outcome":"+10","keys":[2074.3100000545382],"total_keys":1,"block":1,"trial":105,"stimulus":11,"robot":1,"valence":"win","action":"go","sham":0,"trial_type":"pit-trial","trial_index":136,"time_elapsed":571587,"internal_node_id":"0.0-110.0","task_version":"battery-v0.2-trt","session":2},{"rune":"H","rune_set":"bacs2","hex":"#3366ff99","correct":32,"choice":32,"rt":706.3400000333786,"accuracy":1,"outcome":"+10","keys":[2206.810000119731],"total_keys":1,"block":1,"trial":106,"stimulus":8,"robot":1,"valence":"win","action":"go","sham":0,"trial_type":"pit-trial","trial_index":137,"time_elapsed":574996,"internal_node_id":"0.0-111.0","task_version":"battery-v0.2-trt","session":2},{"rune":"Q","rune_set":"bacs2","hex":"#f73b6a7A","correct":-1,"choice":-1,"rt":-1,"accuracy":1,"outcome":"-1","keys":[],"total_keys":0,"block":1,"trial":107,"stimulus":9,"robot":4,"valence":"lose","action":"no-go","sham":0,"trial_type":"pit-trial","trial_index":138,"time_elapsed":578998,"internal_node_id":"0.0-112.0","task_version":"battery-v0.2-trt","session":2},{"rune":"T","rune_set":"bacs2","hex":"#f73b6a7A","correct":32,"choice":32,"rt":718.8800000585616,"accuracy":1,"outcome":"-1","keys":[2219.4900000467896],"total_keys":1,"block":1,"trial":108,"stimulus":10,"robot":3,"valence":"lose","action":"go","sham":0,"trial_type":"pit-trial","trial_index":139,"time_elapsed":582419,"internal_node_id":"0.0-113.0","task_version":"battery-v0.2-trt","session":2},{"rune":"T","rune_set":"bacs2","hex":"#f73b6a7A","correct":32,"choice":-1,"rt":-1,"accuracy":0,"outcome":"-10","keys":[],"total_keys":0,"block":1,"trial":109,"stimulus":10,"robot":3,"valence":"lose","action":"go","sham":0,"trial_type":"pit-trial","trial_index":140,"time_elapsed":586422,"internal_node_id":"0.0-114.0","task_version":"battery-v0.2-trt","session":2},{"rune":"Q","rune_set":"bacs2","hex":"#f73b6a7A","correct":-1,"choice":-1,"rt":-1,"accuracy":1,"outcome":"-10","keys":[],"total_keys":0,"block":1,"trial":110,"stimulus":9,"robot":4,"valence":"lose","action":"no-go","sham":1,"trial_type":"pit-trial","trial_index":141,"time_elapsed":590424,"internal_node_id":"0.0-115.0","task_version":"battery-v0.2-trt","session":2},{"rune":"H","rune_set":"bacs2","hex":"#3366ff99","correct":32,"choice":32,"rt":653.1299999915063,"accuracy":1,"outcome":"+10","keys":[2153.5800001583993],"total_keys":1,"block":1,"trial":111,"stimulus":8,"robot":1,"valence":"win","action":"go","sham":0,"trial_type":"pit-trial","trial_index":142,"time_elapsed":593780,"internal_node_id":"0.0-116.0","task_version":"battery-v0.2-trt","session":2},{"rune":"Y","rune_set":"bacs2","hex":"#3366ff99","correct":32,"choice":32,"rt":849.174999864772,"accuracy":1,"outcome":"+10","keys":[2349.5150001253933],"total_keys":1,"block":1,"trial":112,"stimulus":11,"robot":1,"valence":"win","action":"go","sham":0,"trial_type":"pit-trial","trial_index":143,"time_elapsed":597331,"internal_node_id":"0.0-117.0","task_version":"battery-v0.2-trt","session":2},{"rune":"Y","rune_set":"bacs2","hex":"#3366ff99","correct":32,"choice":32,"rt":561.6950001567602,"accuracy":1,"outcome":"+1","keys":[2062.299999874085],"total_keys":1,"block":1,"trial":113,"stimulus":11,"robot":1,"valence":"win","action":"go","sham":1,"trial_type":"pit-trial","trial_index":144,"time_elapsed":600595,"internal_node_id":"0.0-118.0","task_version":"battery-v0.2-trt","session":2},{"rune":"T","rune_set":"bacs2","hex":"#f73b6a7A","correct":32,"choice":-1,"rt":-1,"accuracy":0,"outcome":"-10","keys":[],"total_keys":0,"block":1,"trial":114,"stimulus":10,"robot":3,"valence":"lose","action":"go","sham":0,"trial_type":"pit-trial","trial_index":145,"time_elapsed":604613,"internal_node_id":"0.0-119.0","task_version":"battery-v0.2-trt","session":2},{"rune":"Q","rune_set":"bacs2","hex":"#f73b6a7A","correct":-1,"choice":-1,"rt":-1,"accuracy":1,"outcome":"-1","keys":[],"total_keys":0,"block":1,"trial":115,"stimulus":9,"robot":4,"valence":"lose","action":"no-go","sham":0,"trial_type":"pit-trial","trial_index":146,"time_elapsed":608616,"internal_node_id":"0.0-120.0","task_version":"battery-v0.2-trt","session":2},{"rune":"H","rune_set":"bacs2","hex":"#3366ff99","correct":32,"choice":32,"rt":413.18500018678606,"accuracy":1,"outcome":"+10","keys":[1913.704999955371],"total_keys":1,"block":1,"trial":116,"stimulus":8,"robot":1,"valence":"win","action":"go","sham":0,"trial_type":"pit-trial","trial_index":147,"time_elapsed":611731,"internal_node_id":"0.0-121.0","task_version":"battery-v0.2-trt","session":2},{"rune":"T","rune_set":"bacs2","hex":"#f73b6a7A","correct":32,"choice":32,"rt":720.82499996759,"accuracy":1,"outcome":"-1","keys":[2222.360000014305],"total_keys":1,"block":1,"trial":117,"stimulus":10,"robot":3,"valence":"lose","action":"go","sham":0,"trial_type":"pit-trial","trial_index":148,"time_elapsed":615155,"internal_node_id":"0.0-122.0","task_version":"battery-v0.2-trt","session":2},{"rune":"H","rune_set":"bacs2","hex":"#3366ff99","correct":32,"choice":32,"rt":658.0149999354035,"accuracy":1,"outcome":"+10","keys":[2158.4599998313934],"total_keys":1,"block":1,"trial":118,"stimulus":8,"robot":1,"valence":"win","action":"go","sham":0,"trial_type":"pit-trial","trial_index":149,"time_elapsed":618516,"internal_node_id":"0.0-123.0","task_version":"battery-v0.2-trt","session":2},{"rune":"Q","rune_set":"bacs2","hex":"#f73b6a7A","correct":-1,"choice":-1,"rt":-1,"accuracy":1,"outcome":"-1","keys":[],"total_keys":0,"block":1,"trial":119,"stimulus":9,"robot":4,"valence":"lose","action":"no-go","sham":0,"trial_type":"pit-trial","trial_index":150,"time_elapsed":622519,"internal_node_id":"0.0-124.0","task_version":"battery-v0.2-trt","session":2},{"rune":"Y","rune_set":"bacs2","hex":"#3366ff99","correct":32,"choice":32,"rt":445.95000008121133,"accuracy":1,"outcome":"+10","keys":[1946.6049999464303],"total_keys":1,"block":1,"trial":120,"stimulus":11,"robot":1,"valence":"win","action":"go","sham":0,"trial_type":"pit-trial","trial_index":151,"time_elapsed":625667,"internal_node_id":"0.0-125.0","task_version":"battery-v0.2-trt","session":2},{"view_history":"[{\"page_index\":0,\"viewing_time\":37368.03999985568},{\"page_index\":1,\"viewing_time\":1213.0350000225008}]","rt":38581.314999843016,"trial_type":"pit-instructions","trial_index":152,"time_elapsed":664250,"internal_node_id":"0.0-126.0","task_version":"battery-v0.2-trt","session":2},{"rune":"N","rune_set":"bacs2","hex":"#f73b6a7A","correct":-1,"choice":-1,"rt":-1,"accuracy":1,"outcome":"-1","keys":[],"total_keys":0,"block":2,"trial":121,"stimulus":0,"robot":4,"valence":"lose","action":"no-go","sham":0,"trial_type":"pit-trial","trial_index":153,"time_elapsed":668252,"internal_node_id":"0.0-127.0","task_version":"battery-v0.2-trt","session":2},{"rune":"F","rune_set":"bacs2","hex":"#f73b6a7A","correct":32,"choice":-1,"rt":-1,"accuracy":0,"outcome":"-10","keys":[],"total_keys":0,"block":2,"trial":122,"stimulus":1,"robot":3,"valence":"lose","action":"go","sham":0,"trial_type":"pit-trial","trial_index":154,"time_elapsed":672256,"internal_node_id":"0.0-128.0","task_version":"battery-v0.2-trt","session":2},{"rune":"A","rune_set":"bacs2","hex":"#f73b6a7A","correct":32,"choice":32,"rt":741.6750001721084,"accuracy":1,"outcome":"-1","keys":[2241.965000052005],"total_keys":1,"block":2,"trial":123,"stimulus":2,"robot":3,"valence":"lose","action":"go","sham":0,"trial_type":"pit-trial","trial_index":155,"time_elapsed":675700,"internal_node_id":"0.0-129.0","task_version":"battery-v0.2-trt","session":2},{"rune":"U","rune_set":"bacs2","hex":"#3366ff99","correct":32,"choice":32,"rt":657.0999999530613,"accuracy":1,"outcome":"+10","keys":[2157.4649999383837],"total_keys":1,"block":2,"trial":124,"stimulus":3,"robot":1,"valence":"win","action":"go","sham":0,"trial_type":"pit-trial","trial_index":156,"time_elapsed":679059,"internal_node_id":"0.0-130.0","task_version":"battery-v0.2-trt","session":2},{"rune":"N","rune_set":"bacs2","hex":"#f73b6a7A","correct":-1,"choice":32,"rt":594.0100001171231,"accuracy":0,"outcome":"-1","keys":[2094.4499999750406],"total_keys":1,"block":2,"trial":125,"stimulus":0,"robot":4,"valence":"lose","action":"no-go","sham":1,"trial_type":"pit-trial","trial_index":157,"time_elapsed":682355,"internal_node_id":"0.0-131.0","task_version":"battery-v0.2-trt","session":2},{"rune":"F","rune_set":"bacs2","hex":"#f73b6a7A","correct":32,"choice":-1,"rt":-1,"accuracy":0,"outcome":"-1","keys":[],"total_keys":0,"block":2,"trial":126,"stimulus":1,"robot":3,"valence":"lose","action":"go","sham":1,"trial_type":"pit-trial","trial_index":158,"time_elapsed":686358,"internal_node_id":"0.0-132.0","task_version":"battery-v0.2-trt","session":2},{"rune":"U","rune_set":"bacs2","hex":"#3366ff99","correct":32,"choice":32,"rt":526.8250000663102,"accuracy":1,"outcome":"+10","keys":[2027.7849999256432],"total_keys":1,"block":2,"trial":127,"stimulus":3,"robot":1,"valence":"win","action":"go","sham":0,"trial_type":"pit-trial","trial_index":159,"time_elapsed":689587,"internal_node_id":"0.0-133.0","task_version":"battery-v0.2-trt","session":2},{"rune":"A","rune_set":"bacs2","hex":"#f73b6a7A","correct":32,"choice":32,"rt":721.8850001227111,"accuracy":1,"outcome":"-1","keys":[2222.414999967441],"total_keys":1,"block":2,"trial":128,"stimulus":2,"robot":3,"valence":"lose","action":"go","sham":0,"trial_type":"pit-trial","trial_index":160,"time_elapsed":693018,"internal_node_id":"0.0-134.0","task_version":"battery-v0.2-trt","session":2},{"rune":"A","rune_set":"bacs2","hex":"#f73b6a7A","correct":32,"choice":32,"rt":603.499999968335,"accuracy":1,"outcome":"-1","keys":[2103.669999865815],"total_keys":1,"block":2,"trial":129,"stimulus":2,"robot":3,"valence":"lose","action":"go","sham":0,"trial_type":"pit-trial","trial_index":161,"time_elapsed":696323,"internal_node_id":"0.0-135.0","task_version":"battery-v0.2-trt","session":2},{"rune":"F","rune_set":"bacs2","hex":"#f73b6a7A","correct":32,"choice":32,"rt":480.2149999886751,"accuracy":1,"outcome":"-1","keys":[1982.13000013493],"total_keys":1,"block":2,"trial":130,"stimulus":1,"robot":3,"valence":"lose","action":"go","sham":0,"trial_type":"pit-trial","trial_index":162,"time_elapsed":699507,"internal_node_id":"0.0-136.0","task_version":"battery-v0.2-trt","session":2},{"rune":"U","rune_set":"bacs2","hex":"#3366ff99","correct":32,"choice":32,"rt":592.4299999605864,"accuracy":1,"outcome":"+10","keys":[2094.0499999560416],"total_keys":1,"block":2,"trial":131,"stimulus":3,"robot":1,"valence":"win","action":"go","sham":0,"trial_type":"pit-trial","trial_index":163,"time_elapsed":702803,"internal_node_id":"0.0-137.0","task_version":"battery-v0.2-trt","session":2},{"rune":"N","rune_set":"bacs2","hex":"#f73b6a7A","correct":-1,"choice":32,"rt":593.095000134781,"accuracy":0,"outcome":"-10","keys":[2094.2100000102073],"total_keys":1,"block":2,"trial":132,"stimulus":0,"robot":4,"valence":"lose","action":"no-go","sham":0,"trial_type":"pit-trial","trial_index":164,"time_elapsed":706099,"internal_node_id":"0.0-138.0","task_version":"battery-v0.2-trt","session":2},{"rune":"N","rune_set":"bacs2","hex":"#f73b6a7A","correct":-1,"choice":32,"rt":688.9649999793619,"accuracy":0,"outcome":"-10","keys":[2189.9899998679757],"total_keys":1,"block":2,"trial":133,"stimulus":0,"robot":4,"valence":"lose","action":"no-go","sham":0,"trial_type":"pit-trial","trial_index":165,"time_elapsed":709492,"internal_node_id":"0.0-139.0","task_version":"battery-v0.2-trt","session":2},{"rune":"A","rune_set":"bacs2","hex":"#f73b6a7A","correct":32,"choice":32,"rt":481.2849999871105,"accuracy":1,"outcome":"-1","keys":[1981.815000064671],"total_keys":1,"block":2,"trial":134,"stimulus":2,"robot":3,"valence":"lose","action":"go","sham":0,"trial_type":"pit-trial","trial_index":166,"time_elapsed":712675,"internal_node_id":"0.0-140.0","task_version":"battery-v0.2-trt","session":2},{"rune":"U","rune_set":"bacs2","hex":"#3366ff99","correct":32,"choice":32,"rt":593.4350001625717,"accuracy":1,"outcome":"+1","keys":[2094.264999963343],"total_keys":1,"block":2,"trial":135,"stimulus":3,"robot":1,"valence":"win","action":"go","sham":1,"trial_type":"pit-trial","trial_index":167,"time_elapsed":715971,"internal_node_id":"0.0-141.0","task_version":"battery-v0.2-trt","session":2},{"rune":"F","rune_set":"bacs2","hex":"#f73b6a7A","correct":32,"choice":32,"rt":642.2200000379235,"accuracy":1,"outcome":"-1","keys":[2142.61500001885],"total_keys":1,"block":2,"trial":136,"stimulus":1,"robot":3,"valence":"lose","action":"go","sham":0,"trial_type":"pit-trial","trial_index":168,"time_elapsed":719315,"internal_node_id":"0.0-142.0","task_version":"battery-v0.2-trt","session":2},{"rune":"A","rune_set":"bacs2","hex":"#f73b6a7A","correct":32,"choice":-1,"rt":-1,"accuracy":0,"outcome":"-10","keys":[],"total_keys":0,"block":2,"trial":137,"stimulus":2,"robot":3,"valence":"lose","action":"go","sham":0,"trial_type":"pit-trial","trial_index":169,"time_elapsed":723317,"internal_node_id":"0.0-143.0","task_version":"battery-v0.2-trt","session":2},{"rune":"U","rune_set":"bacs2","hex":"#3366ff99","correct":32,"choice":32,"rt":336.57500008121133,"accuracy":1,"outcome":"+1","keys":[1836.8899999186397],"total_keys":1,"block":2,"trial":138,"stimulus":3,"robot":1,"valence":"win","action":"go","sham":1,"trial_type":"pit-trial","trial_index":170,"time_elapsed":726356,"internal_node_id":"0.0-144.0","task_version":"battery-v0.2-trt","session":2},{"rune":"N","rune_set":"bacs2","hex":"#f73b6a7A","correct":-1,"choice":-1,"rt":-1,"accuracy":1,"outcome":"-1","keys":[],"total_keys":0,"block":2,"trial":139,"stimulus":0,"robot":4,"valence":"lose","action":"no-go","sham":0,"trial_type":"pit-trial","trial_index":171,"time_elapsed":730359,"internal_node_id":"0.0-145.0","task_version":"battery-v0.2-trt","session":2},{"rune":"F","rune_set":"bacs2","hex":"#f73b6a7A","correct":32,"choice":-1,"rt":-1,"accuracy":0,"outcome":"-10","keys":[],"total_keys":0,"block":2,"trial":140,"stimulus":1,"robot":3,"valence":"lose","action":"go","sham":0,"trial_type":"pit-trial","trial_index":172,"time_elapsed":734362,"internal_node_id":"0.0-146.0","task_version":"battery-v0.2-trt","session":2},{"rune":"N","rune_set":"bacs2","hex":"#f73b6a7A","correct":-1,"choice":32,"rt":810.6250001583248,"accuracy":0,"outcome":"-10","keys":[2311.6849998477846],"total_keys":1,"block":2,"trial":141,"stimulus":0,"robot":4,"valence":"lose","action":"no-go","sham":0,"trial_type":"pit-trial","trial_index":173,"time_elapsed":737875,"internal_node_id":"0.0-147.0","task_version":"battery-v0.2-trt","session":2},{"rune":"A","rune_set":"bacs2","hex":"#f73b6a7A","correct":32,"choice":32,"rt":481.33000009693205,"accuracy":1,"outcome":"-1","keys":[1982.3600000236183],"total_keys":1,"block":2,"trial":142,"stimulus":2,"robot":3,"valence":"lose","action":"go","sham":0,"trial_type":"pit-trial","trial_index":174,"time_elapsed":741059,"internal_node_id":"0.0-148.0","task_version":"battery-v0.2-trt","session":2},{"rune":"F","rune_set":"bacs2","hex":"#f73b6a7A","correct":32,"choice":-1,"rt":-1,"accuracy":0,"outcome":"-10","keys":[3022.8099999949336],"total_keys":1,"block":2,"trial":143,"stimulus":1,"robot":3,"valence":"lose","action":"go","sham":0,"trial_type":"pit-trial","trial_index":175,"time_elapsed":745060,"internal_node_id":"0.0-149.0","task_version":"battery-v0.2-trt","session":2},{"rune":"U","rune_set":"bacs2","hex":"#3366ff99","correct":32,"choice":-1,"rt":-1,"accuracy":0,"outcome":"+10","keys":[],"total_keys":0,"block":2,"trial":144,"stimulus":3,"robot":1,"valence":"win","action":"go","sham":1,"trial_type":"pit-trial","trial_index":176,"time_elapsed":749064,"internal_node_id":"0.0-150.0","task_version":"battery-v0.2-trt","session":2},{"rune":"U","rune_set":"bacs2","hex":"#3366ff99","correct":32,"choice":-1,"rt":-1,"accuracy":0,"outcome":"+1","keys":[],"total_keys":0,"block":2,"trial":145,"stimulus":3,"robot":1,"valence":"win","action":"go","sham":0,"trial_type":"pit-trial","trial_index":177,"time_elapsed":753066,"internal_node_id":"0.0-151.0","task_version":"battery-v0.2-trt","session":2},{"rune":"F","rune_set":"bacs2","hex":"#f73b6a7A","correct":32,"choice":32,"rt":587.7249999903142,"accuracy":1,"outcome":"-10","keys":[2088.2600001059473],"total_keys":1,"block":2,"trial":146,"stimulus":1,"robot":3,"valence":"lose","action":"go","sham":1,"trial_type":"pit-trial","trial_index":178,"time_elapsed":756356,"internal_node_id":"0.0-152.0","task_version":"battery-v0.2-trt","session":2},{"rune":"N","rune_set":"bacs2","hex":"#f73b6a7A","correct":-1,"choice":32,"rt":433.73499996960163,"accuracy":0,"outcome":"-10","keys":[1934.0349999256432],"total_keys":1,"block":2,"trial":147,"stimulus":0,"robot":4,"valence":"lose","action":"no-go","sham":0,"trial_type":"pit-trial","trial_index":179,"time_elapsed":759491,"internal_node_id":"0.0-153.0","task_version":"battery-v0.2-trt","session":2},{"rune":"A","rune_set":"bacs2","hex":"#f73b6a7A","correct":32,"choice":32,"rt":529.1899999137968,"accuracy":1,"outcome":"-1","keys":[2030.8300000615418],"total_keys":1,"block":2,"trial":148,"stimulus":2,"robot":3,"valence":"lose","action":"go","sham":0,"trial_type":"pit-trial","trial_index":180,"time_elapsed":762724,"internal_node_id":"0.0-154.0","task_version":"battery-v0.2-trt","session":2},{"rune":"N","rune_set":"bacs2","hex":"#f73b6a7A","correct":-1,"choice":-1,"rt":-1,"accuracy":1,"outcome":"-1","keys":[],"total_keys":0,"block":2,"trial":149,"stimulus":0,"robot":4,"valence":"lose","action":"no-go","sham":0,"trial_type":"pit-trial","trial_index":181,"time_elapsed":766726,"internal_node_id":"0.0-155.0","task_version":"battery-v0.2-trt","session":2},{"rune":"A","rune_set":"bacs2","hex":"#f73b6a7A","correct":32,"choice":32,"rt":815.6249998137355,"accuracy":1,"outcome":"-10","keys":[2316.090000094846],"total_keys":1,"block":2,"trial":150,"stimulus":2,"robot":3,"valence":"lose","action":"go","sham":1,"trial_type":"pit-trial","trial_index":182,"time_elapsed":770244,"internal_node_id":"0.0-156.0","task_version":"battery-v0.2-trt","session":2},{"rune":"U","rune_set":"bacs2","hex":"#3366ff99","correct":32,"choice":-1,"rt":-1,"accuracy":0,"outcome":"+1","keys":[],"total_keys":0,"block":2,"trial":151,"stimulus":3,"robot":1,"valence":"win","action":"go","sham":0,"trial_type":"pit-trial","trial_index":183,"time_elapsed":774248,"internal_node_id":"0.0-157.0","task_version":"battery-v0.2-trt","session":2},{"rune":"F","rune_set":"bacs2","hex":"#f73b6a7A","correct":32,"choice":-1,"rt":-1,"accuracy":0,"outcome":"-10","keys":[],"total_keys":0,"block":2,"trial":152,"stimulus":1,"robot":3,"valence":"lose","action":"go","sham":0,"trial_type":"pit-trial","trial_index":184,"time_elapsed":778250,"internal_node_id":"0.0-158.0","task_version":"battery-v0.2-trt","session":2},{"rune":"N","rune_set":"bacs2","hex":"#f73b6a7A","correct":-1,"choice":-1,"rt":-1,"accuracy":1,"outcome":"-1","keys":[],"total_keys":0,"block":2,"trial":153,"stimulus":0,"robot":4,"valence":"lose","action":"no-go","sham":0,"trial_type":"pit-trial","trial_index":185,"time_elapsed":782253,"internal_node_id":"0.0-159.0","task_version":"battery-v0.2-trt","session":2},{"rune":"U","rune_set":"bacs2","hex":"#3366ff99","correct":32,"choice":-1,"rt":-1,"accuracy":0,"outcome":"+10","keys":[],"total_keys":0,"block":2,"trial":154,"stimulus":3,"robot":1,"valence":"win","action":"go","sham":1,"trial_type":"pit-trial","trial_index":186,"time_elapsed":786255,"internal_node_id":"0.0-160.0","task_version":"battery-v0.2-trt","session":2},{"rune":"S","rune_set":"bacs2","hex":"#f73b6a7A","correct":-1,"choice":-1,"rt":-1,"accuracy":1,"outcome":"-1","keys":[],"total_keys":0,"block":2,"trial":155,"stimulus":4,"robot":4,"valence":"lose","action":"no-go","sham":0,"trial_type":"pit-trial","trial_index":187,"time_elapsed":790258,"internal_node_id":"0.0-161.0","task_version":"battery-v0.2-trt","session":2},{"rune":"F","rune_set":"bacs2","hex":"#f73b6a7A","correct":32,"choice":32,"rt":596.2900000158697,"accuracy":1,"outcome":"-1","keys":[2096.485000103712],"total_keys":1,"block":2,"trial":156,"stimulus":1,"robot":3,"valence":"lose","action":"go","sham":0,"trial_type":"pit-trial","trial_index":188,"time_elapsed":793556,"internal_node_id":"0.0-162.0","task_version":"battery-v0.2-trt","session":2},{"rune":"F","rune_set":"bacs2","hex":"#f73b6a7A","correct":32,"choice":32,"rt":624.3749998975545,"accuracy":1,"outcome":"-1","keys":[2125.8600000292063],"total_keys":1,"block":2,"trial":157,"stimulus":1,"robot":3,"valence":"lose","action":"go","sham":0,"trial_type":"pit-trial","trial_index":189,"time_elapsed":796884,"internal_node_id":"0.0-163.0","task_version":"battery-v0.2-trt","session":2},{"rune":"S","rune_set":"bacs2","hex":"#f73b6a7A","correct":-1,"choice":32,"rt":992.6650000270456,"accuracy":0,"outcome":"-1","keys":[2493.565000128001],"total_keys":1,"block":2,"trial":158,"stimulus":4,"robot":4,"valence":"lose","action":"no-go","sham":1,"trial_type":"pit-trial","trial_index":190,"time_elapsed":800580,"internal_node_id":"0.0-164.0","task_version":"battery-v0.2-trt","session":2},{"rune":"N","rune_set":"bacs2","hex":"#f73b6a7A","correct":-1,"choice":32,"rt":1025.6449999287724,"accuracy":0,"outcome":"-10","keys":[2526.0550000239164],"total_keys":1,"block":2,"trial":159,"stimulus":0,"robot":4,"valence":"lose","action":"no-go","sham":0,"trial_type":"pit-trial","trial_index":191,"time_elapsed":804308,"internal_node_id":"0.0-165.0","task_version":"battery-v0.2-trt","session":2},{"rune":"U","rune_set":"bacs2","hex":"#3366ff99","correct":32,"choice":-1,"rt":-1,"accuracy":0,"outcome":"+10","keys":[],"total_keys":0,"block":2,"trial":160,"stimulus":3,"robot":1,"valence":"win","action":"go","sham":1,"trial_type":"pit-trial","trial_index":192,"time_elapsed":808310,"internal_node_id":"0.0-166.0","task_version":"battery-v0.2-trt","session":2},{"rune":"F","rune_set":"bacs2","hex":"#f73b6a7A","correct":32,"choice":-1,"rt":-1,"accuracy":0,"outcome":"-10","keys":[3259.63499979116],"total_keys":1,"block":2,"trial":161,"stimulus":1,"robot":3,"valence":"lose","action":"go","sham":0,"trial_type":"pit-trial","trial_index":193,"time_elapsed":812312,"internal_node_id":"0.0-167.0","task_version":"battery-v0.2-trt","session":2},{"rune":"L","rune_set":"bacs2","hex":"#3366ff99","correct":-1,"choice":-1,"rt":-1,"accuracy":1,"outcome":"+10","keys":[],"total_keys":0,"block":2,"trial":162,"stimulus":5,"robot":2,"valence":"win","action":"no-go","sham":0,"trial_type":"pit-trial","trial_index":194,"time_elapsed":816315,"internal_node_id":"0.0-168.0","task_version":"battery-v0.2-trt","session":2},{"rune":"S","rune_set":"bacs2","hex":"#f73b6a7A","correct":-1,"choice":32,"rt":778.3749999944121,"accuracy":0,"outcome":"-10","keys":[2279.134999960661],"total_keys":1,"block":2,"trial":163,"stimulus":4,"robot":4,"valence":"lose","action":"no-go","sham":0,"trial_type":"pit-trial","trial_index":195,"time_elapsed":819795,"internal_node_id":"0.0-169.0","task_version":"battery-v0.2-trt","session":2},{"rune":"N","rune_set":"bacs2","hex":"#f73b6a7A","correct":-1,"choice":-1,"rt":-1,"accuracy":1,"outcome":"-10","keys":[3342.8099998272955],"total_keys":1,"block":2,"trial":164,"stimulus":0,"robot":4,"valence":"lose","action":"no-go","sham":1,"trial_type":"pit-trial","trial_index":196,"time_elapsed":823797,"internal_node_id":"0.0-170.0","task_version":"battery-v0.2-trt","session":2},{"rune":"S","rune_set":"bacs2","hex":"#f73b6a7A","correct":-1,"choice":32,"rt":304.0099998470396,"accuracy":0,"outcome":"-10","keys":[1804.9749999772757],"total_keys":1,"block":2,"trial":165,"stimulus":4,"robot":4,"valence":"lose","action":"no-go","sham":0,"trial_type":"pit-trial","trial_index":197,"time_elapsed":826803,"internal_node_id":"0.0-171.0","task_version":"battery-v0.2-trt","session":2},{"rune":"N","rune_set":"bacs2","hex":"#f73b6a7A","correct":-1,"choice":32,"rt":928.8950001355261,"accuracy":0,"outcome":"-10","keys":[2430.3349999245256],"total_keys":1,"block":2,"trial":166,"stimulus":0,"robot":4,"valence":"lose","action":"no-go","sham":0,"trial_type":"pit-trial","trial_index":198,"time_elapsed":830436,"internal_node_id":"0.0-172.0","task_version":"battery-v0.2-trt","session":2},{"rune":"L","rune_set":"bacs2","hex":"#3366ff99","correct":-1,"choice":32,"rt":832.7099999878556,"accuracy":0,"outcome":"+10","keys":[2333.104999968782],"total_keys":1,"block":2,"trial":167,"stimulus":5,"robot":2,"valence":"win","action":"no-go","sham":1,"trial_type":"pit-trial","trial_index":199,"time_elapsed":833971,"internal_node_id":"0.0-173.0","task_version":"battery-v0.2-trt","session":2},{"rune":"F","rune_set":"bacs2","hex":"#f73b6a7A","correct":32,"choice":32,"rt":769.3949998356402,"accuracy":1,"outcome":"-1","keys":[2270.164999878034],"total_keys":1,"block":2,"trial":168,"stimulus":1,"robot":3,"valence":"lose","action":"go","sham":0,"trial_type":"pit-trial","trial_index":200,"time_elapsed":837443,"internal_node_id":"0.0-174.0","task_version":"battery-v0.2-trt","session":2},{"rune":"P","rune_set":"bacs2","hex":"#f73b6a7A","correct":-1,"choice":32,"rt":1248.9849999547005,"accuracy":0,"outcome":"-10","keys":[2750.4450001288205],"total_keys":1,"block":2,"trial":169,"stimulus":6,"robot":4,"valence":"lose","action":"no-go","sham":0,"trial_type":"pit-trial","trial_index":201,"time_elapsed":841395,"internal_node_id":"0.0-175.0","task_version":"battery-v0.2-trt","session":2},{"rune":"R","rune_set":"bacs2","hex":"#3366ff99","correct":32,"choice":-1,"rt":-1,"accuracy":0,"outcome":"+10","keys":[],"total_keys":0,"block":2,"trial":170,"stimulus":7,"robot":1,"valence":"win","action":"go","sham":1,"trial_type":"pit-trial","trial_index":202,"time_elapsed":845397,"internal_node_id":"0.0-176.0","task_version":"battery-v0.2-trt","session":2},{"rune":"S","rune_set":"bacs2","hex":"#f73b6a7A","correct":-1,"choice":32,"rt":767.5750001799315,"accuracy":0,"outcome":"-10","keys":[2268.5599999967963],"total_keys":1,"block":2,"trial":171,"stimulus":4,"robot":4,"valence":"lose","action":"no-go","sham":0,"trial_type":"pit-trial","trial_index":203,"time_elapsed":848867,"internal_node_id":"0.0-177.0","task_version":"battery-v0.2-trt","session":2},{"rune":"L","rune_set":"bacs2","hex":"#3366ff99","correct":-1,"choice":-1,"rt":-1,"accuracy":1,"outcome":"+10","keys":[],"total_keys":0,"block":2,"trial":172,"stimulus":5,"robot":2,"valence":"win","action":"no-go","sham":0,"trial_type":"pit-trial","trial_index":204,"time_elapsed":852870,"internal_node_id":"0.0-178.0","task_version":"battery-v0.2-trt","session":2},{"rune":"R","rune_set":"bacs2","hex":"#3366ff99","correct":32,"choice":-1,"rt":-1,"accuracy":0,"outcome":"+1","keys":[],"total_keys":0,"block":2,"trial":173,"stimulus":7,"robot":1,"valence":"win","action":"go","sham":0,"trial_type":"pit-trial","trial_index":205,"time_elapsed":856873,"internal_node_id":"0.0-179.0","task_version":"battery-v0.2-trt","session":2},{"rune":"P","rune_set":"bacs2","hex":"#f73b6a7A","correct":-1,"choice":32,"rt":603.1350002158433,"accuracy":0,"outcome":"-10","keys":[2104.310000082478],"total_keys":1,"block":2,"trial":174,"stimulus":6,"robot":4,"valence":"lose","action":"no-go","sham":0,"trial_type":"pit-trial","trial_index":206,"time_elapsed":860183,"internal_node_id":"0.0-180.0","task_version":"battery-v0.2-trt","session":2},{"rune":"L","rune_set":"bacs2","hex":"#3366ff99","correct":-1,"choice":-1,"rt":-1,"accuracy":1,"outcome":"+10","keys":[],"total_keys":0,"block":2,"trial":175,"stimulus":5,"robot":2,"valence":"win","action":"no-go","sham":0,"trial_type":"pit-trial","trial_index":207,"time_elapsed":864185,"internal_node_id":"0.0-181.0","task_version":"battery-v0.2-trt","session":2},{"rune":"S","rune_set":"bacs2","hex":"#f73b6a7A","correct":-1,"choice":-1,"rt":-1,"accuracy":1,"outcome":"-1","keys":[],"total_keys":0,"block":2,"trial":176,"stimulus":4,"robot":4,"valence":"lose","action":"no-go","sham":0,"trial_type":"pit-trial","trial_index":208,"time_elapsed":868187,"internal_node_id":"0.0-182.0","task_version":"battery-v0.2-trt","session":2},{"rune":"S","rune_set":"bacs2","hex":"#f73b6a7A","correct":-1,"choice":-1,"rt":-1,"accuracy":1,"outcome":"-1","keys":[],"total_keys":0,"block":2,"trial":177,"stimulus":4,"robot":4,"valence":"lose","action":"no-go","sham":0,"trial_type":"pit-trial","trial_index":209,"time_elapsed":872191,"internal_node_id":"0.0-183.0","task_version":"battery-v0.2-trt","session":2},{"rune":"R","rune_set":"bacs2","hex":"#3366ff99","correct":32,"choice":-1,"rt":-1,"accuracy":0,"outcome":"+1","keys":[],"total_keys":0,"block":2,"trial":178,"stimulus":7,"robot":1,"valence":"win","action":"go","sham":0,"trial_type":"pit-trial","trial_index":210,"time_elapsed":876194,"internal_node_id":"0.0-184.0","task_version":"battery-v0.2-trt","session":2},{"rune":"P","rune_set":"bacs2","hex":"#f73b6a7A","correct":-1,"choice":-1,"rt":-1,"accuracy":1,"outcome":"-1","keys":[],"total_keys":0,"block":2,"trial":179,"stimulus":6,"robot":4,"valence":"lose","action":"no-go","sham":0,"trial_type":"pit-trial","trial_index":211,"time_elapsed":880196,"internal_node_id":"0.0-185.0","task_version":"battery-v0.2-trt","session":2},{"rune":"L","rune_set":"bacs2","hex":"#3366ff99","correct":-1,"choice":-1,"rt":-1,"accuracy":1,"outcome":"+10","keys":[],"total_keys":0,"block":2,"trial":180,"stimulus":5,"robot":2,"valence":"win","action":"no-go","sham":0,"trial_type":"pit-trial","trial_index":212,"time_elapsed":884200,"internal_node_id":"0.0-186.0","task_version":"battery-v0.2-trt","session":2},{"rune":"R","rune_set":"bacs2","hex":"#3366ff99","correct":32,"choice":-1,"rt":-1,"accuracy":0,"outcome":"+1","keys":[],"total_keys":0,"block":2,"trial":181,"stimulus":7,"robot":1,"valence":"win","action":"go","sham":0,"trial_type":"pit-trial","trial_index":213,"time_elapsed":888202,"internal_node_id":"0.0-187.0","task_version":"battery-v0.2-trt","session":2},{"rune":"L","rune_set":"bacs2","hex":"#3366ff99","correct":-1,"choice":-1,"rt":-1,"accuracy":1,"outcome":"+10","keys":[],"total_keys":0,"block":2,"trial":182,"stimulus":5,"robot":2,"valence":"win","action":"no-go","sham":0,"trial_type":"pit-trial","trial_index":214,"time_elapsed":892218,"internal_node_id":"0.0-188.0","task_version":"battery-v0.2-trt","session":2},{"rune":"S","rune_set":"bacs2","hex":"#f73b6a7A","correct":-1,"choice":-1,"rt":-1,"accuracy":1,"outcome":"-1","keys":[],"total_keys":0,"block":2,"trial":183,"stimulus":4,"robot":4,"valence":"lose","action":"no-go","sham":0,"trial_type":"pit-trial","trial_index":215,"time_elapsed":896220,"internal_node_id":"0.0-189.0","task_version":"battery-v0.2-trt","session":2},{"rune":"P","rune_set":"bacs2","hex":"#f73b6a7A","correct":-1,"choice":-1,"rt":-1,"accuracy":1,"outcome":"-1","keys":[],"total_keys":0,"block":2,"trial":184,"stimulus":6,"robot":4,"valence":"lose","action":"no-go","sham":0,"trial_type":"pit-trial","trial_index":216,"time_elapsed":900222,"internal_node_id":"0.0-190.0","task_version":"battery-v0.2-trt","session":2},{"rune":"L","rune_set":"bacs2","hex":"#3366ff99","correct":-1,"choice":-1,"rt":-1,"accuracy":1,"outcome":"+10","keys":[],"total_keys":0,"block":2,"trial":185,"stimulus":5,"robot":2,"valence":"win","action":"no-go","sham":0,"trial_type":"pit-trial","trial_index":217,"time_elapsed":904224,"internal_node_id":"0.0-191.0","task_version":"battery-v0.2-trt","session":2},{"rune":"P","rune_set":"bacs2","hex":"#f73b6a7A","correct":-1,"choice":-1,"rt":-1,"accuracy":1,"outcome":"-1","keys":[],"total_keys":0,"block":2,"trial":186,"stimulus":6,"robot":4,"valence":"lose","action":"no-go","sham":0,"trial_type":"pit-trial","trial_index":218,"time_elapsed":908226,"internal_node_id":"0.0-192.0","task_version":"battery-v0.2-trt","session":2},{"rune":"R","rune_set":"bacs2","hex":"#3366ff99","correct":32,"choice":-1,"rt":-1,"accuracy":0,"outcome":"+10","keys":[],"total_keys":0,"block":2,"trial":187,"stimulus":7,"robot":1,"valence":"win","action":"go","sham":1,"trial_type":"pit-trial","trial_index":219,"time_elapsed":912228,"internal_node_id":"0.0-193.0","task_version":"battery-v0.2-trt","session":2},{"rune":"S","rune_set":"bacs2","hex":"#f73b6a7A","correct":-1,"choice":-1,"rt":-1,"accuracy":1,"outcome":"-1","keys":[],"total_keys":0,"block":2,"trial":188,"stimulus":4,"robot":4,"valence":"lose","action":"no-go","sham":0,"trial_type":"pit-trial","trial_index":220,"time_elapsed":916230,"internal_node_id":"0.0-194.0","task_version":"battery-v0.2-trt","session":2},{"rune":"L","rune_set":"bacs2","hex":"#3366ff99","correct":-1,"choice":-1,"rt":-1,"accuracy":1,"outcome":"+10","keys":[],"total_keys":0,"block":2,"trial":189,"stimulus":5,"robot":2,"valence":"win","action":"no-go","sham":0,"trial_type":"pit-trial","trial_index":221,"time_elapsed":920235,"internal_node_id":"0.0-195.0","task_version":"battery-v0.2-trt","session":2},{"rune":"S","rune_set":"bacs2","hex":"#f73b6a7A","correct":-1,"choice":-1,"rt":-1,"accuracy":1,"outcome":"-10","keys":[],"total_keys":0,"block":2,"trial":190,"stimulus":4,"robot":4,"valence":"lose","action":"no-go","sham":1,"trial_type":"pit-trial","trial_index":222,"time_elapsed":924237,"internal_node_id":"0.0-196.0","task_version":"battery-v0.2-trt","session":2},{"rune":"P","rune_set":"bacs2","hex":"#f73b6a7A","correct":-1,"choice":-1,"rt":-1,"accuracy":1,"outcome":"-1","keys":[],"total_keys":0,"block":2,"trial":191,"stimulus":6,"robot":4,"valence":"lose","action":"no-go","sham":0,"trial_type":"pit-trial","trial_index":223,"time_elapsed":928240,"internal_node_id":"0.0-197.0","task_version":"battery-v0.2-trt","session":2},{"rune":"R","rune_set":"bacs2","hex":"#3366ff99","correct":32,"choice":-1,"rt":-1,"accuracy":0,"outcome":"+1","keys":[],"total_keys":0,"block":2,"trial":192,"stimulus":7,"robot":1,"valence":"win","action":"go","sham":0,"trial_type":"pit-trial","trial_index":224,"time_elapsed":932243,"internal_node_id":"0.0-198.0","task_version":"battery-v0.2-trt","session":2},{"rune":"L","rune_set":"bacs2","hex":"#3366ff99","correct":-1,"choice":-1,"rt":-1,"accuracy":1,"outcome":"+10","keys":[],"total_keys":0,"block":2,"trial":193,"stimulus":5,"robot":2,"valence":"win","action":"no-go","sham":0,"trial_type":"pit-trial","trial_index":225,"time_elapsed":936244,"internal_node_id":"0.0-199.0","task_version":"battery-v0.2-trt","session":2},{"rune":"R","rune_set":"bacs2","hex":"#3366ff99","correct":32,"choice":32,"rt":960.4249999392778,"accuracy":1,"outcome":"+10","keys":[2461.5350000094622],"total_keys":1,"block":2,"trial":194,"stimulus":7,"robot":1,"valence":"win","action":"go","sham":0,"trial_type":"pit-trial","trial_index":226,"time_elapsed":939908,"internal_node_id":"0.0-200.0","task_version":"battery-v0.2-trt","session":2},{"rune":"V","rune_set":"bacs2","hex":"#3366ff99","correct":32,"choice":-1,"rt":-1,"accuracy":0,"outcome":"+1","keys":[],"total_keys":0,"block":2,"trial":195,"stimulus":8,"robot":1,"valence":"win","action":"go","sham":0,"trial_type":"pit-trial","trial_index":227,"time_elapsed":943910,"internal_node_id":"0.0-201.0","task_version":"battery-v0.2-trt","session":2},{"rune":"P","rune_set":"bacs2","hex":"#f73b6a7A","correct":-1,"choice":-1,"rt":-1,"accuracy":1,"outcome":"-1","keys":[],"total_keys":0,"block":2,"trial":196,"stimulus":6,"robot":4,"valence":"lose","action":"no-go","sham":0,"trial_type":"pit-trial","trial_index":228,"time_elapsed":947914,"internal_node_id":"0.0-202.0","task_version":"battery-v0.2-trt","session":2},{"rune":"P","rune_set":"bacs2","hex":"#f73b6a7A","correct":-1,"choice":-1,"rt":-1,"accuracy":1,"outcome":"-1","keys":[],"total_keys":0,"block":2,"trial":197,"stimulus":6,"robot":4,"valence":"lose","action":"no-go","sham":0,"trial_type":"pit-trial","trial_index":229,"time_elapsed":951916,"internal_node_id":"0.0-203.0","task_version":"battery-v0.2-trt","session":2},{"rune":"V","rune_set":"bacs2","hex":"#3366ff99","correct":32,"choice":32,"rt":793.0800002068281,"accuracy":1,"outcome":"+1","keys":[2293.5200000647455],"total_keys":1,"block":2,"trial":198,"stimulus":8,"robot":1,"valence":"win","action":"go","sham":1,"trial_type":"pit-trial","trial_index":230,"time_elapsed":955411,"internal_node_id":"0.0-204.0","task_version":"battery-v0.2-trt","session":2},{"rune":"R","rune_set":"bacs2","hex":"#3366ff99","correct":32,"choice":32,"rt":433.7999999988824,"accuracy":1,"outcome":"+1","keys":[1934.6499999519438],"total_keys":1,"block":2,"trial":199,"stimulus":7,"robot":1,"valence":"win","action":"go","sham":1,"trial_type":"pit-trial","trial_index":231,"time_elapsed":958548,"internal_node_id":"0.0-205.0","task_version":"battery-v0.2-trt","session":2},{"rune":"L","rune_set":"bacs2","hex":"#3366ff99","correct":-1,"choice":-1,"rt":-1,"accuracy":1,"outcome":"+10","keys":[],"total_keys":0,"block":2,"trial":200,"stimulus":5,"robot":2,"valence":"win","action":"no-go","sham":0,"trial_type":"pit-trial","trial_index":232,"time_elapsed":962551,"internal_node_id":"0.0-206.0","task_version":"battery-v0.2-trt","session":2},{"rune":"V","rune_set":"bacs2","hex":"#3366ff99","correct":32,"choice":-1,"rt":-1,"accuracy":0,"outcome":"+1","keys":[],"total_keys":0,"block":2,"trial":201,"stimulus":8,"robot":1,"valence":"win","action":"go","sham":0,"trial_type":"pit-trial","trial_index":233,"time_elapsed":966553,"internal_node_id":"0.0-207.0","task_version":"battery-v0.2-trt","session":2},{"rune":"K","rune_set":"bacs2","hex":"#3366ff99","correct":-1,"choice":-1,"rt":-1,"accuracy":1,"outcome":"+10","keys":[],"total_keys":0,"block":2,"trial":202,"stimulus":9,"robot":2,"valence":"win","action":"no-go","sham":0,"trial_type":"pit-trial","trial_index":234,"time_elapsed":970555,"internal_node_id":"0.0-208.0","task_version":"battery-v0.2-trt","session":2},{"rune":"B","rune_set":"bacs2","hex":"#f73b6a7A","correct":32,"choice":-1,"rt":-1,"accuracy":0,"outcome":"-10","keys":[],"total_keys":0,"block":2,"trial":203,"stimulus":10,"robot":3,"valence":"lose","action":"go","sham":0,"trial_type":"pit-trial","trial_index":235,"time_elapsed":974557,"internal_node_id":"0.0-209.0","task_version":"battery-v0.2-trt","session":2},{"rune":"L","rune_set":"bacs2","hex":"#3366ff99","correct":-1,"choice":-1,"rt":-1,"accuracy":1,"outcome":"+10","keys":[],"total_keys":0,"block":2,"trial":204,"stimulus":5,"robot":2,"valence":"win","action":"no-go","sham":0,"trial_type":"pit-trial","trial_index":236,"time_elapsed":978559,"internal_node_id":"0.0-210.0","task_version":"battery-v0.2-trt","session":2},{"rune":"B","rune_set":"bacs2","hex":"#f73b6a7A","correct":32,"choice":32,"rt":662.0899999979883,"accuracy":1,"outcome":"-1","keys":[2162.335000000894],"total_keys":1,"block":2,"trial":205,"stimulus":10,"robot":3,"valence":"lose","action":"go","sham":0,"trial_type":"pit-trial","trial_index":237,"time_elapsed":981924,"internal_node_id":"0.0-211.0","task_version":"battery-v0.2-trt","session":2},{"rune":"K","rune_set":"bacs2","hex":"#3366ff99","correct":-1,"choice":-1,"rt":-1,"accuracy":1,"outcome":"+10","keys":[],"total_keys":0,"block":2,"trial":206,"stimulus":9,"robot":2,"valence":"win","action":"no-go","sham":0,"trial_type":"pit-trial","trial_index":238,"time_elapsed":985934,"internal_node_id":"0.0-212.0","task_version":"battery-v0.2-trt","session":2},{"rune":"L","rune_set":"bacs2","hex":"#3366ff99","correct":-1,"choice":-1,"rt":-1,"accuracy":1,"outcome":"+1","keys":[],"total_keys":0,"block":2,"trial":207,"stimulus":5,"robot":2,"valence":"win","action":"no-go","sham":1,"trial_type":"pit-trial","trial_index":239,"time_elapsed":989936,"internal_node_id":"0.0-213.0","task_version":"battery-v0.2-trt","session":2},{"rune":"V","rune_set":"bacs2","hex":"#3366ff99","correct":32,"choice":-1,"rt":-1,"accuracy":0,"outcome":"+1","keys":[],"total_keys":0,"block":2,"trial":208,"stimulus":8,"robot":1,"valence":"win","action":"go","sham":0,"trial_type":"pit-trial","trial_index":240,"time_elapsed":993938,"internal_node_id":"0.0-214.0","task_version":"battery-v0.2-trt","session":2},{"rune":"K","rune_set":"bacs2","hex":"#3366ff99","correct":-1,"choice":-1,"rt":-1,"accuracy":1,"outcome":"+10","keys":[],"total_keys":0,"block":2,"trial":209,"stimulus":9,"robot":2,"valence":"win","action":"no-go","sham":0,"trial_type":"pit-trial","trial_index":241,"time_elapsed":997941,"internal_node_id":"0.0-215.0","task_version":"battery-v0.2-trt","session":2},{"rune":"B","rune_set":"bacs2","hex":"#f73b6a7A","correct":32,"choice":32,"rt":671.4800000190735,"accuracy":1,"outcome":"-1","keys":[2172.610000008717],"total_keys":1,"block":2,"trial":210,"stimulus":10,"robot":3,"valence":"lose","action":"go","sham":0,"trial_type":"pit-trial","trial_index":242,"time_elapsed":1001315,"internal_node_id":"0.0-216.0","task_version":"battery-v0.2-trt","session":2},{"rune":"M","rune_set":"bacs2","hex":"#3366ff99","correct":-1,"choice":-1,"rt":-1,"accuracy":1,"outcome":"+10","keys":[],"total_keys":0,"block":2,"trial":211,"stimulus":11,"robot":2,"valence":"win","action":"no-go","sham":0,"trial_type":"pit-trial","trial_index":243,"time_elapsed":1005317,"internal_node_id":"0.0-217.0","task_version":"battery-v0.2-trt","session":2},{"rune":"V","rune_set":"bacs2","hex":"#3366ff99","correct":32,"choice":-1,"rt":-1,"accuracy":0,"outcome":"+10","keys":[],"total_keys":0,"block":2,"trial":212,"stimulus":8,"robot":1,"valence":"win","action":"go","sham":1,"trial_type":"pit-trial","trial_index":244,"time_elapsed":1009320,"internal_node_id":"0.0-218.0","task_version":"battery-v0.2-trt","session":2},{"rune":"B","rune_set":"bacs2","hex":"#f73b6a7A","correct":32,"choice":32,"rt":508.6499999742955,"accuracy":1,"outcome":"-10","keys":[2009.6450001001358],"total_keys":1,"block":2,"trial":213,"stimulus":10,"robot":3,"valence":"lose","action":"go","sham":1,"trial_type":"pit-trial","trial_index":245,"time_elapsed":1012532,"internal_node_id":"0.0-219.0","task_version":"battery-v0.2-trt","session":2},{"rune":"V","rune_set":"bacs2","hex":"#3366ff99","correct":32,"choice":-1,"rt":-1,"accuracy":0,"outcome":"+1","keys":[],"total_keys":0,"block":2,"trial":214,"stimulus":8,"robot":1,"valence":"win","action":"go","sham":0,"trial_type":"pit-trial","trial_index":246,"time_elapsed":1016534,"internal_node_id":"0.0-220.0","task_version":"battery-v0.2-trt","session":2},{"rune":"M","rune_set":"bacs2","hex":"#3366ff99","correct":-1,"choice":-1,"rt":-1,"accuracy":1,"outcome":"+10","keys":[],"total_keys":0,"block":2,"trial":215,"stimulus":11,"robot":2,"valence":"win","action":"no-go","sham":0,"trial_type":"pit-trial","trial_index":247,"time_elapsed":1020537,"internal_node_id":"0.0-221.0","task_version":"battery-v0.2-trt","session":2},{"rune":"K","rune_set":"bacs2","hex":"#3366ff99","correct":-1,"choice":-1,"rt":-1,"accuracy":1,"outcome":"+10","keys":[],"total_keys":0,"block":2,"trial":216,"stimulus":9,"robot":2,"valence":"win","action":"no-go","sham":0,"trial_type":"pit-trial","trial_index":248,"time_elapsed":1024540,"internal_node_id":"0.0-222.0","task_version":"battery-v0.2-trt","session":2},{"rune":"B","rune_set":"bacs2","hex":"#f73b6a7A","correct":32,"choice":32,"rt":568.3349999599159,"accuracy":1,"outcome":"-1","keys":[2069.4300001487136],"total_keys":1,"block":2,"trial":217,"stimulus":10,"robot":3,"valence":"lose","action":"go","sham":0,"trial_type":"pit-trial","trial_index":249,"time_elapsed":1027812,"internal_node_id":"0.0-223.0","task_version":"battery-v0.2-trt","session":2},{"rune":"V","rune_set":"bacs2","hex":"#3366ff99","correct":32,"choice":-1,"rt":-1,"accuracy":0,"outcome":"+1","keys":[],"total_keys":0,"block":2,"trial":218,"stimulus":8,"robot":1,"valence":"win","action":"go","sham":0,"trial_type":"pit-trial","trial_index":250,"time_elapsed":1031813,"internal_node_id":"0.0-224.0","task_version":"battery-v0.2-trt","session":2},{"rune":"K","rune_set":"bacs2","hex":"#3366ff99","correct":-1,"choice":-1,"rt":-1,"accuracy":1,"outcome":"+10","keys":[],"total_keys":0,"block":2,"trial":219,"stimulus":9,"robot":2,"valence":"win","action":"no-go","sham":0,"trial_type":"pit-trial","trial_index":251,"time_elapsed":1035817,"internal_node_id":"0.0-225.0","task_version":"battery-v0.2-trt","session":2},{"rune":"M","rune_set":"bacs2","hex":"#3366ff99","correct":-1,"choice":-1,"rt":-1,"accuracy":1,"outcome":"+1","keys":[],"total_keys":0,"block":2,"trial":220,"stimulus":11,"robot":2,"valence":"win","action":"no-go","sham":1,"trial_type":"pit-trial","trial_index":252,"time_elapsed":1039820,"internal_node_id":"0.0-226.0","task_version":"battery-v0.2-trt","session":2},{"rune":"K","rune_set":"bacs2","hex":"#3366ff99","correct":-1,"choice":-1,"rt":-1,"accuracy":1,"outcome":"+10","keys":[],"total_keys":0,"block":2,"trial":221,"stimulus":9,"robot":2,"valence":"win","action":"no-go","sham":0,"trial_type":"pit-trial","trial_index":253,"time_elapsed":1043823,"internal_node_id":"0.0-227.0","task_version":"battery-v0.2-trt","session":2},{"rune":"M","rune_set":"bacs2","hex":"#3366ff99","correct":-1,"choice":-1,"rt":-1,"accuracy":1,"outcome":"+10","keys":[],"total_keys":0,"block":2,"trial":222,"stimulus":11,"robot":2,"valence":"win","action":"no-go","sham":0,"trial_type":"pit-trial","trial_index":254,"time_elapsed":1047825,"internal_node_id":"0.0-228.0","task_version":"battery-v0.2-trt","session":2},{"rune":"V","rune_set":"bacs2","hex":"#3366ff99","correct":32,"choice":-1,"rt":-1,"accuracy":0,"outcome":"+1","keys":[],"total_keys":0,"block":2,"trial":223,"stimulus":8,"robot":1,"valence":"win","action":"go","sham":0,"trial_type":"pit-trial","trial_index":255,"time_elapsed":1051829,"internal_node_id":"0.0-229.0","task_version":"battery-v0.2-trt","session":2},{"rune":"B","rune_set":"bacs2","hex":"#f73b6a7A","correct":32,"choice":32,"rt":592.9149999283254,"accuracy":1,"outcome":"-1","keys":[2093.345000175759],"total_keys":1,"block":2,"trial":224,"stimulus":10,"robot":3,"valence":"lose","action":"go","sham":0,"trial_type":"pit-trial","trial_index":256,"time_elapsed":1055123,"internal_node_id":"0.0-230.0","task_version":"battery-v0.2-trt","session":2},{"rune":"V","rune_set":"bacs2","hex":"#3366ff99","correct":32,"choice":-1,"rt":-1,"accuracy":0,"outcome":"+1","keys":[],"total_keys":0,"block":2,"trial":225,"stimulus":8,"robot":1,"valence":"win","action":"go","sham":0,"trial_type":"pit-trial","trial_index":257,"time_elapsed":1059126,"internal_node_id":"0.0-231.0","task_version":"battery-v0.2-trt","session":2},{"rune":"K","rune_set":"bacs2","hex":"#3366ff99","correct":-1,"choice":-1,"rt":-1,"accuracy":1,"outcome":"+1","keys":[],"total_keys":0,"block":2,"trial":226,"stimulus":9,"robot":2,"valence":"win","action":"no-go","sham":1,"trial_type":"pit-trial","trial_index":258,"time_elapsed":1063128,"internal_node_id":"0.0-232.0","task_version":"battery-v0.2-trt","session":2},{"rune":"B","rune_set":"bacs2","hex":"#f73b6a7A","correct":32,"choice":32,"rt":492.70000006072223,"accuracy":1,"outcome":"-1","keys":[1994.02999994345],"total_keys":1,"block":2,"trial":227,"stimulus":10,"robot":3,"valence":"lose","action":"go","sham":0,"trial_type":"pit-trial","trial_index":259,"time_elapsed":1066324,"internal_node_id":"0.0-233.0","task_version":"battery-v0.2-trt","session":2},{"rune":"M","rune_set":"bacs2","hex":"#3366ff99","correct":-1,"choice":-1,"rt":-1,"accuracy":1,"outcome":"+10","keys":[],"total_keys":0,"block":2,"trial":228,"stimulus":11,"robot":2,"valence":"win","action":"no-go","sham":0,"trial_type":"pit-trial","trial_index":260,"time_elapsed":1070327,"internal_node_id":"0.0-234.0","task_version":"battery-v0.2-trt","session":2},{"rune":"V","rune_set":"bacs2","hex":"#3366ff99","correct":32,"choice":32,"rt":686.8900000117719,"accuracy":1,"outcome":"+10","keys":[2187.0349999517202],"total_keys":1,"block":2,"trial":229,"stimulus":8,"robot":1,"valence":"win","action":"go","sham":0,"trial_type":"pit-trial","trial_index":261,"time_elapsed":1073716,"internal_node_id":"0.0-235.0","task_version":"battery-v0.2-trt","session":2},{"rune":"M","rune_set":"bacs2","hex":"#3366ff99","correct":-1,"choice":-1,"rt":-1,"accuracy":1,"outcome":"+10","keys":[],"total_keys":0,"block":2,"trial":230,"stimulus":11,"robot":2,"valence":"win","action":"no-go","sham":0,"trial_type":"pit-trial","trial_index":262,"time_elapsed":1077718,"internal_node_id":"0.0-236.0","task_version":"battery-v0.2-trt","session":2},{"rune":"B","rune_set":"bacs2","hex":"#f73b6a7A","correct":32,"choice":32,"rt":399.03999981470406,"accuracy":1,"outcome":"-1","keys":[1899.7299999464303],"total_keys":1,"block":2,"trial":231,"stimulus":10,"robot":3,"valence":"lose","action":"go","sham":0,"trial_type":"pit-trial","trial_index":263,"time_elapsed":1080821,"internal_node_id":"0.0-237.0","task_version":"battery-v0.2-trt","session":2},{"rune":"K","rune_set":"bacs2","hex":"#3366ff99","correct":-1,"choice":-1,"rt":-1,"accuracy":1,"outcome":"+1","keys":[],"total_keys":0,"block":2,"trial":232,"stimulus":9,"robot":2,"valence":"win","action":"no-go","sham":1,"trial_type":"pit-trial","trial_index":264,"time_elapsed":1084824,"internal_node_id":"0.0-238.0","task_version":"battery-v0.2-trt","session":2},{"rune":"K","rune_set":"bacs2","hex":"#3366ff99","correct":-1,"choice":32,"rt":541.7900001630187,"accuracy":0,"outcome":"+10","keys":[2042.5850001629442],"total_keys":1,"block":2,"trial":233,"stimulus":9,"robot":2,"valence":"win","action":"no-go","sham":1,"trial_type":"pit-trial","trial_index":265,"time_elapsed":1088067,"internal_node_id":"0.0-239.0","task_version":"battery-v0.2-trt","session":2},{"rune":"V","rune_set":"bacs2","hex":"#3366ff99","correct":32,"choice":32,"rt":466.2450000178069,"accuracy":1,"outcome":"+10","keys":[1966.5999999269843],"total_keys":1,"block":2,"trial":234,"stimulus":8,"robot":1,"valence":"win","action":"go","sham":0,"trial_type":"pit-trial","trial_index":266,"time_