subID TrialNo Threat(1)/Safe(2) Fractal CodeOutcomeRightSide CodeOutcomeWrongSide CodeOutcomeNoPress ActualOutcome Circleside(1Left2Right) response Accuracy rt 
2256 1 1 3 1 1 0 0 1 0 1 NaN 
2256 2 1 4 -1 -1 0 -1 1 1 0 5.521092e-01 
2256 3 1 2 -1 0 0 0 2 0 0 NaN 
2256 4 1 4 0 0 -1 -1 2 0 1 NaN 
2256 5 1 2 0 -1 -1 0 1 1 1 3.810179e-01 
2256 6 1 1 1 0 0 0 1 0 0 NaN 
2256 7 1 3 0 0 1 0 2 2 0 5.969497e-01 
2256 8 1 2 0 -1 -1 -1 1 0 0 NaN 
2256 9 1 1 1 0 0 1 1 1 1 7.381394e-01 
2256 10 1 4 -1 -1 0 -1 2 2 0 5.529190e-01 
2256 11 1 2 0 -1 -1 0 2 2 1 4.961060e-01 
2256 12 1 4 -1 -1 0 -1 2 2 0 9.062122e-01 
2256 13 1 3 0 0 1 1 2 0 1 NaN 
2256 14 1 1 1 0 0 1 2 2 1 5.784700e-01 
2256 15 1 3 0 0 1 0 1 1 0 4.768278e-01 
2256 16 1 1 1 0 0 0 2 0 0 NaN 
2256 17 1 4 -1 -1 0 -1 1 1 0 4.701000e-01 
2256 18 1 3 0 0 1 1 1 0 1 NaN 
2256 19 1 2 0 -1 -1 0 2 2 1 5.407322e-01 
2256 20 1 1 0 1 1 1 1 0 0 NaN 
2256 1 2 2 -1 0 0 0 2 0 0 NaN 
2256 2 2 1 1 0 0 0 1 0 0 NaN 
2256 3 2 4 -1 -1 0 -1 1 1 0 6.475554e-01 
2256 4 2 1 1 0 0 0 1 2 0 2.955710e-01 
2256 5 2 1 1 0 0 1 2 2 1 3.041589e-01 
2256 6 2 3 1 1 0 1 1 1 0 3.109884e-01 
2256 7 2 1 1 0 0 1 2 2 1 3.725293e-01 
2256 8 2 3 0 0 1 0 1 1 0 4.168993e-01 
2256 9 2 2 0 -1 -1 -1 1 0 0 NaN 
2256 10 2 2 0 -1 -1 -1 2 0 0 NaN 
2256 11 2 3 0 0 1 0 2 2 0 5.639813e-01 
2256 12 2 1 0 1 1 0 1 1 1 2.892641e-01 
2256 13 2 4 -1 -1 0 -1 1 1 0 4.685193e-01 
2256 14 2 4 0 0 -1 -1 2 0 1 NaN 
2256 15 2 2 0 -1 -1 0 1 1 1 4.378918e-01 
2256 16 2 2 0 -1 -1 -1 2 0 0 NaN 
2256 17 2 4 -1 -1 0 -1 2 2 0 4.825026e-01 
2256 18 2 4 -1 -1 0 0 2 0 1 NaN 
2256 19 2 3 0 0 1 0 2 2 0 3.932273e-01 
2256 20 2 3 0 0 1 0 1 1 0 6.929760e-01 
2256 1 1 2 0 -1 -1 0 1 1 1 6.858955e-01 
2256 2 1 3 0 0 1 0 1 1 0 6.157496e-01 
2256 3 1 3 0 0 1 1 2 0 1 NaN 
2256 4 1 4 0 0 -1 0 2 2 0 8.005858e-01 
2256 5 1 4 -1 -1 0 0 2 0 1 NaN 
2256 6 1 3 0 0 1 1 1 0 1 NaN 
2256 7 1 3 0 0 1 1 2 0 1 NaN 
2256 8 1 2 0 -1 -1 0 2 2 1 4.143095e-01 
2256 9 1 1 1 0 0 1 2 2 1 4.539409e-01 
2256 10 1 1 1 0 0 1 1 1 1 4.624915e-01 
2256 11 1 2 -1 0 0 -1 2 2 1 6.920884e-01 
2256 12 1 2 0 -1 -1 -1 1 0 0 NaN 
2256 13 1 1 0 1 1 0 1 1 1 3.726629e-01 
2256 14 1 1 1 0 0 1 2 2 1 3.145544e-01 
2256 15 1 3 1 1 0 1 1 1 0 3.956517e-01 
2256 16 1 2 0 -1 -1 0 2 2 1 4.568040e-01 
2256 17 1 1 1 0 0 1 1 1 1 3.645941e-01 
2256 18 1 4 -1 -1 0 0 1 0 1 NaN 
2256 19 1 4 -1 -1 0 0 1 0 1 NaN 
2256 20 1 4 -1 -1 0 -1 2 2 0 3.500750e-01 
2256 1 2 3 1 1 0 1 1 1 0 4.988653e-01 
2256 2 2 1 1 0 0 1 1 1 1 3.246497e-01 
2256 3 2 4 -1 -1 0 0 2 0 1 NaN 
2256 4 2 1 1 0 0 1 2 2 1 4.082217e-01 
2256 5 2 2 0 -1 -1 -1 1 0 0 NaN 
2256 6 2 4 0 0 -1 0 2 2 0 5.214902e-01 
2256 7 2 2 -1 0 0 0 2 0 0 NaN 
2256 8 2 4 -1 -1 0 -1 2 2 0 4.575485e-01 
2256 9 2 3 0 0 1 1 2 0 1 NaN 
2256 10 2 3 0 0 1 0 1 1 0 3.003051e-01 
2256 11 2 1 1 0 0 1 2 2 1 4.453859e-01 
2256 12 2 1 0 1 1 0 1 1 1 7.119772e-01 
2256 13 2 2 0 -1 -1 -1 2 0 0 NaN 
2256 14 2 3 0 0 1 0 2 2 0 4.188145e-01 
2256 15 2 4 -1 -1 0 -1 1 1 0 3.757013e-01 
2256 16 2 3 0 0 1 0 1 1 0 5.575340e-01 
2256 17 2 2 0 -1 -1 -1 1 0 0 NaN 
2256 18 2 1 1 0 0 0 1 2 0 2.999055e-01 
2256 19 2 4 -1 -1 0 0 1 0 1 NaN 
2256 20 2 2 0 -1 -1 0 2 2 1 6.542510e-01 
2256 1 1 2 0 -1 -1 0 2 2 1 8.547980e-01 
2256 2 1 3 1 1 0 1 1 1 0 2.918412e-01 
2256 3 1 3 0 0 1 0 1 1 0 4.978127e-01 
2256 4 1 1 0 1 1 0 1 1 1 4.423215e-01 
2256 5 1 3 0 0 1 0 2 2 0 6.811056e-01 
2256 6 1 4 0 0 -1 0 2 2 0 9.465268e-01 
2256 7 1 4 -1 -1 0 -1 2 2 0 4.998002e-01 
2256 8 1 1 1 0 0 1 2 2 1 5.257062e-01 
2256 9 1 2 0 -1 -1 0 1 1 1 4.534081e-01 
2256 10 1 1 1 0 0 1 2 2 1 6.148401e-01 
2256 11 1 4 -1 -1 0 -1 2 2 0 3.894992e-01 
2256 12 1 1 1 0 0 0 1 0 0 NaN 
2256 13 1 2 -1 0 0 -1 2 2 1 4.497985e-01 
2256 14 1 4 -1 -1 0 0 1 0 1 NaN 
2256 15 1 4 -1 -1 0 -1 1 1 0 4.682163e-01 
2256 16 1 1 1 0 0 0 1 0 0 NaN 
2256 17 1 2 0 -1 -1 0 1 1 1 3.671572e-01 
2256 18 1 3 0 0 1 1 1 0 1 NaN 
2256 19 1 2 0 -1 -1 0 2 2 1 3.204008e-01 
2256 20 1 3 0 0 1 0 2 2 0 7.459592e-01 
2256 1 2 1 1 0 0 1 1 1 1 4.740191e-01 
2256 2 2 2 -1 0 0 0 2 0 0 NaN 
2256 3 2 1 1 0 0 1 2 2 1 2.504976e-01 
2256 4 2 3 0 0 1 0 1 1 0 3.406290e-01 
2256 5 2 4 -1 -1 0 -1 1 1 0 4.450045e-01 
2256 6 2 3 0 0 1 0 1 1 0 3.537397e-01 
2256 7 2 4 -1 -1 0 -1 2 2 0 3.026385e-01 
2256 8 2 2 0 -1 -1 0 2 2 1 4.130761e-01 
2256 9 2 3 0 0 1 0 2 2 0 5.426525e-01 
2256 10 2 4 0 0 -1 -1 2 0 1 NaN 
2256 11 2 2 0 -1 -1 -1 1 0 0 NaN 
2256 12 2 2 0 -1 -1 -1 2 0 0 NaN 
2256 13 2 1 0 1 1 0 1 1 1 3.603250e-01 
2256 14 2 1 1 0 0 1 1 1 1 6.946638e-01 
2256 15 2 4 -1 -1 0 0 2 0 1 NaN 
2256 16 2 2 0 -1 -1 -1 1 0 0 NaN 
2256 17 2 3 1 1 0 0 1 0 1 NaN 
2256 18 2 3 0 0 1 1 2 0 1 NaN 
2256 19 2 1 1 0 0 1 2 2 1 5.330086e-01 
2256 20 2 4 -1 -1 0 0 1 0 1 NaN 
2256 1 1 3 0 0 1 0 2 2 0 5.389680e-01 
2256 2 1 4 -1 -1 0 -1 2 2 0 6.510468e-01 
2256 3 1 3 0 0 1 1 1 0 1 NaN 
2256 4 1 2 0 -1 -1 0 2 2 1 4.071883e-01 
2256 5 1 4 0 0 -1 -1 2 0 1 NaN 
2256 6 1 1 1 0 0 1 1 1 1 5.111330e-01 
2256 7 1 1 1 0 0 1 2 2 1 5.533378e-01 
2256 8 1 2 0 -1 -1 -1 1 0 0 NaN 
2256 9 1 2 0 -1 -1 -1 1 0 0 NaN 
2256 10 1 4 -1 -1 0 0 1 0 1 NaN 
2256 11 1 4 -1 -1 0 -1 2 2 0 3.394452e-01 
2256 12 1 1 0 1 1 0 1 1 1 6.510674e-01 
2256 13 1 3 0 0 1 0 1 1 0 5.136817e-01 
2256 14 1 1 1 0 0 0 2 0 0 NaN 
2256 15 1 3 1 1 0 0 1 0 1 NaN 
2256 16 1 2 0 -1 -1 0 2 2 1 4.738212e-01 
2256 17 1 4 -1 -1 0 0 1 0 1 NaN 
2256 18 1 1 1 0 0 0 1 0 0 NaN 
2256 19 1 3 0 0 1 1 2 0 1 NaN 
2256 20 1 2 -1 0 0 -1 2 2 1 4.246410e-01 
2256 1 2 4 -1 -1 0 0 1 0 1 NaN 
2256 2 2 2 0 -1 -1 -1 2 0 0 NaN 
2256 3 2 4 0 0 -1 0 2 2 0 4.248304e-01 
2256 4 2 4 -1 -1 0 -1 2 2 0 5.631762e-01 
2256 5 2 1 1 0 0 1 1 1 1 3.618800e-01 
2256 6 2 3 0 0 1 1 1 0 1 NaN 
2256 7 2 1 1 0 0 1 2 2 1 2.677501e-01 
2256 8 2 3 1 1 0 1 1 1 0 4.105938e-01 
2256 9 2 2 0 -1 -1 -1 2 0 0 NaN 
2256 10 2 1 1 0 0 1 2 2 1 7.565613e-01 
2256 11 2 3 0 0 1 0 2 2 0 6.290024e-01 
2256 12 2 2 0 -1 -1 -1 1 0 0 NaN 
2256 13 2 4 -1 -1 0 0 2 0 1 NaN 
2256 14 2 1 0 1 1 1 1 0 0 NaN 
2256 15 2 2 0 -1 -1 -1 1 0 0 NaN 
2256 16 2 1 1 0 0 1 1 1 1 4.502403e-01 
2256 17 2 4 -1 -1 0 -1 1 1 0 5.962580e-01 
2256 18 2 3 0 0 1 0 2 2 0 3.233509e-01 
2256 19 2 3 0 0 1 0 1 1 0 2.203002e-01 
2256 20 2 2 -1 0 0 0 2 0 0 NaN 
2256 1 1 1 1 0 0 1 2 2 1 5.818196e-01 
2256 2 1 2 -1 0 0 0 2 0 0 NaN 
2256 3 1 2 0 -1 -1 -1 1 0 0 NaN 
2256 4 1 3 0 0 1 0 2 2 0 4.874517e-01 
2256 5 1 4 -1 -1 0 -1 2 2 0 5.912184e-01 
2256 6 1 2 0 -1 -1 -1 2 0 0 NaN 
2256 7 1 4 -1 -1 0 0 2 0 1 NaN 
2256 8 1 4 -1 -1 0 0 1 0 1 NaN 
2256 9 1 4 -1 -1 0 0 1 0 1 NaN 
2256 10 1 3 0 0 1 0 1 1 0 5.063633e-01 
2256 11 1 4 0 0 -1 -1 2 0 1 NaN 
2256 12 1 3 1 1 0 0 1 0 1 NaN 
2256 13 1 3 0 0 1 1 2 0 1 NaN 
2256 14 1 1 0 1 1 0 1 1 1 3.438129e-01 
2256 15 1 1 1 0 0 0 1 0 0 NaN 
2256 16 1 3 0 0 1 1 1 0 1 NaN 
2256 17 1 2 0 -1 -1 0 2 2 1 4.703322e-01 
2256 18 1 1 1 0 0 1 2 2 1 6.090451e-01 
2256 19 1 1 1 0 0 0 1 0 0 NaN 
2256 20 1 2 0 -1 -1 0 1 1 1 4.916349e-01 
2256 1 2 2 0 -1 -1 -1 2 0 0 NaN 
2256 2 2 4 -1 -1 0 -1 1 1 0 3.880312e-01 
2256 3 2 3 0 0 1 0 2 2 0 3.006459e-01 
2256 4 2 3 0 0 1 0 1 1 0 4.242852e-01 
2256 5 2 4 -1 -1 0 0 2 0 1 NaN 
2256 6 2 2 0 -1 -1 -1 1 0 0 NaN 
2256 7 2 1 0 1 1 0 1 1 1 4.063175e-01 
2256 8 2 4 0 0 -1 0 2 2 0 5.496786e-01 
2256 9 2 3 1 1 0 1 1 1 0 2.823980e-01 
2256 10 2 2 -1 0 0 0 2 0 0 NaN 
2256 11 2 3 0 0 1 0 2 2 0 6.014838e-01 
2256 12 2 4 -1 -1 0 -1 1 1 0 3.105833e-01 
2256 13 2 4 -1 -1 0 -1 2 2 0 3.735337e-01 
2256 14 2 1 1 0 0 1 1 1 1 3.184780e-01 
2256 15 2 1 1 0 0 1 2 2 1 2.321189e-01 
2256 16 2 1 1 0 0 1 1 1 1 2.291429e-01 
2256 17 2 1 1 0 0 1 2 2 1 2.113641e-01 
2256 18 2 2 0 -1 -1 -1 2 0 0 NaN 
2256 19 2 2 0 -1 -1 -1 1 0 0 NaN 
2256 20 2 3 0 0 1 0 1 1 0 3.270063e-01 
2256 1 1 2 0 -1 -1 -1 1 0 0 NaN 
2256 2 1 3 0 0 1 1 1 0 1 NaN 
2256 3 1 3 0 0 1 0 2 2 0 4.124590e-01 
2256 4 1 1 1 0 0 0 2 0 0 NaN 
2256 5 1 2 0 -1 -1 0 2 2 1 3.835361e-01 
2256 6 1 2 0 -1 -1 -1 2 0 0 NaN 
2256 7 1 3 1 1 0 0 1 0 1 NaN 
2256 8 1 4 -1 -1 0 0 1 0 1 NaN 
2256 9 1 3 0 0 1 1 2 0 1 NaN 
2256 10 1 4 -1 -1 0 -1 2 2 0 6.839145e-01 
2256 11 1 4 0 0 -1 -1 2 0 1 NaN 
2256 12 1 1 1 0 0 0 2 0 0 NaN 
2256 13 1 3 0 0 1 0 1 1 0 5.195565e-01 
2256 14 1 4 -1 -1 0 0 2 0 1 NaN 
2256 15 1 1 0 1 1 1 1 0 0 NaN 
2256 16 1 2 -1 0 0 -1 2 2 1 3.617478e-01 
2256 17 1 1 1 0 0 0 1 0 0 NaN 
2256 18 1 1 1 0 0 0 1 0 0 NaN 
2256 19 1 2 0 -1 -1 -1 1 0 0 NaN 
2256 20 1 4 -1 -1 0 0 1 0 1 NaN 
2256 1 2 1 1 0 0 1 1 1 1 3.784486e-01 
2256 2 2 3 0 0 1 0 1 2 0 3.373680e-01 
2256 3 2 4 -1 -1 0 -1 2 2 0 4.646988e-01 
2256 4 2 4 0 0 -1 -1 2 0 1 NaN 
2256 5 2 1 0 1 1 0 1 1 1 3.252007e-01 
2256 6 2 1 1 0 0 1 1 1 1 4.831422e-01 
2256 7 2 4 -1 -1 0 0 1 0 1 NaN 
2256 8 2 3 0 0 1 0 2 2 0 3.836827e-01 
2256 9 2 1 1 0 0 1 2 2 1 5.457478e-01 
2256 10 2 4 -1 -1 0 0 2 0 1 NaN 
2256 11 2 2 -1 0 0 0 2 0 0 NaN 
2256 12 2 3 1 1 0 1 1 1 0 5.656904e-01 
2256 13 2 2 0 -1 -1 -1 2 0 0 NaN 
2256 14 2 2 0 -1 -1 -1 1 0 0 NaN 
2256 15 2 2 0 -1 -1 -1 1 0 0 NaN 
2256 16 2 3 0 0 1 0 1 1 0 4.760672e-01 
2256 17 2 4 -1 -1 0 0 1 0 1 NaN 
2256 18 2 2 0 -1 -1 -1 2 0 0 NaN 
2256 19 2 1 1 0 0 0 2 0 0 NaN 
2256 20 2 3 0 0 1 1 2 0 1 NaN 
2256 1 1 3 0 0 1 1 1 0 1 NaN 
2256 2 1 2 0 -1 -1 -1 1 0 0 NaN 
2256 3 1 3 0 0 1 1 2 0 1 NaN 
2256 4 1 1 1 0 0 1 1 1 1 7.397581e-01 
2256 5 1 4 -1 -1 0 0 2 0 1 NaN 
2256 6 1 1 1 0 0 0 1 0 0 NaN 
2256 7 1 3 0 0 1 0 1 1 0 5.936017e-01 
2256 8 1 1 1 0 0 0 2 0 0 NaN 
2256 9 1 1 0 1 1 1 1 0 0 NaN 
2256 10 1 2 0 -1 -1 -1 2 0 0 NaN 
2256 11 1 4 -1 -1 0 0 1 0 1 NaN 
2256 12 1 4 -1 -1 0 0 2 0 1 NaN 
2256 13 1 3 0 0 1 0 2 2 0 4.848349e-01 
2256 14 1 2 0 -1 -1 -1 1 0 0 NaN 
2256 15 1 2 -1 0 0 0 2 0 0 NaN 
2256 16 1 3 1 1 0 0 1 0 1 NaN 
2256 17 1 1 1 0 0 0 2 0 0 NaN 
2256 18 1 2 0 -1 -1 -1 2 0 0 NaN 
2256 19 1 4 0 0 -1 -1 2 0 1 NaN 
2256 20 1 4 -1 -1 0 0 1 0 1 NaN 
2256 1 2 4 -1 -1 0 0 1 0 1 NaN 
2256 2 2 2 0 -1 -1 -1 1 0 0 NaN 
2256 3 2 3 0 0 1 0 2 2 0 3.041863e-01 
2256 4 2 4 -1 -1 0 -1 1 1 0 3.513516e-01 
2256 5 2 4 0 0 -1 -1 2 0 1 NaN 
2256 6 2 2 0 -1 -1 -1 1 0 0 NaN 
2256 7 2 3 0 0 1 0 1 1 0 5.176259e-01 
2256 8 2 4 -1 -1 0 0 2 0 1 NaN 
2256 9 2 4 -1 -1 0 0 2 0 1 NaN 
2256 10 2 3 0 0 1 1 1 0 1 NaN 
2256 11 2 3 0 0 1 0 2 2 0 4.882198e-01 
2256 12 2 1 1 0 0 1 2 2 1 4.375237e-01 
2256 13 2 1 0 1 1 1 1 0 0 NaN 
2256 14 2 2 0 -1 -1 -1 2 0 0 NaN 
2256 15 2 2 -1 0 0 0 2 0 0 NaN 
2256 16 2 1 1 0 0 1 2 2 1 3.464188e-01 
2256 17 2 1 1 0 0 1 1 1 1 3.037493e-01 
2256 18 2 3 1 1 0 0 1 0 1 NaN 
2256 19 2 2 0 -1 -1 -1 2 0 0 NaN 
2256 20 2 1 1 0 0 1 1 1 1 6.848518e-01 
2256 1 1 3 0 0 1 1 2 0 1 NaN 
2256 2 1 4 0 0 -1 -1 2 0 1 NaN 
2256 3 1 3 1 1 0 1 1 1 0 7.481162e-01 
2256 4 1 2 0 -1 -1 -1 1 0 0 NaN 
2256 5 1 1 1 0 0 0 2 0 0 NaN 
2256 6 1 2 0 -1 -1 -1 2 0 0 NaN 
2256 7 1 4 -1 -1 0 -1 1 1 0 4.761792e-01 
2256 8 1 1 1 0 0 0 1 0 0 NaN 
2256 9 1 2 -1 0 0 0 2 0 0 NaN 
2256 10 1 2 0 -1 -1 -1 2 0 0 NaN 
2256 11 1 4 -1 -1 0 0 2 0 1 NaN 
2256 12 1 4 -1 -1 0 0 1 0 1 NaN 
2256 13 1 4 -1 -1 0 0 2 0 1 NaN 
2256 14 1 3 0 0 1 0 1 1 0 4.687056e-01 
2256 15 1 3 0 0 1 1 1 0 1 NaN 
2256 16 1 1 0 1 1 1 1 0 0 NaN 
2256 17 1 1 1 0 0 1 2 2 1 6.497952e-01 
2256 18 1 1 1 0 0 0 1 0 0 NaN 
2256 19 1 3 0 0 1 1 2 0 1 NaN 
2256 20 1 2 0 -1 -1 -1 1 0 0 NaN 
2256 1 2 1 1 0 0 1 1 1 1 5.928511e-01 
2256 2 2 4 -1 -1 0 -1 2 2 0 4.721700e-01 
2256 3 2 1 1 0 0 1 2 2 1 4.210736e-01 
2256 4 2 3 0 0 1 1 2 0 1 NaN 
2256 5 2 4 -1 -1 0 -1 1 1 0 7.719478e-01 
2256 6 2 1 1 0 0 1 1 1 1 5.432268e-01 
2256 7 2 3 1 1 0 1 1 1 0 7.829820e-01 
2256 8 2 3 0 0 1 0 2 2 0 4.446172e-01 
2256 9 2 3 0 0 1 0 1 1 0 2.343680e-01 
2256 10 2 2 0 -1 -1 -1 2 0 0 NaN 
2256 11 2 4 0 0 -1 -1 2 0 1 NaN 
2256 12 2 4 -1 -1 0 0 2 0 1 NaN 
2256 13 2 2 0 -1 -1 -1 2 0 0 NaN 
2256 14 2 2 0 -1 -1 -1 1 0 0 NaN 
2256 15 2 1 0 1 1 0 1 1 1 3.646633e-01 
2256 16 2 3 0 0 1 0 1 1 0 3.569596e-01 
2256 17 2 2 -1 0 0 0 2 0 0 NaN 
2256 18 2 4 -1 -1 0 0 1 0 1 NaN 
2256 19 2 2 0 -1 -1 -1 1 0 0 NaN 
2256 20 2 1 1 0 0 1 2 2 1 3.586854e-01 
2256 1 1 3 1 1 0 1 1 1 0 5.219357e-01 
2256 2 1 2 0 -1 -1 -1 1 0 0 NaN 
2256 3 1 3 0 0 1 1 2 0 1 NaN 
2256 4 1 1 0 1 1 1 1 0 0 NaN 
2256 5 1 4 -1 -1 0 0 2 0 1 NaN 
2256 6 1 3 0 0 1 0 1 1 0 3.480683e-01 
2256 7 1 1 1 0 0 0 2 0 0 NaN 
2256 8 1 1 1 0 0 0 1 0 0 NaN 
2256 9 1 4 -1 -1 0 0 1 0 1 NaN 
2256 10 1 2 -1 0 0 0 2 0 0 NaN 
2256 11 1 1 1 0 0 0 2 0 0 NaN 
2256 12 1 2 0 -1 -1 -1 1 0 0 NaN 
2256 13 1 3 0 0 1 0 2 2 0 3.205354e-01 
2256 14 1 4 -1 -1 0 0 2 0 1 NaN 
2256 15 1 4 0 0 -1 -1 2 0 1 NaN 
2256 16 1 4 -1 -1 0 0 1 0 1 NaN 
2256 17 1 3 0 0 1 0 1 1 0 3.718790e-01 
2256 18 1 2 0 -1 -1 -1 2 0 0 NaN 
2256 19 1 2 0 -1 -1 -1 2 0 0 NaN 
2256 20 1 1 1 0 0 0 1 0 0 NaN 
2256 1 2 4 -1 -1 0 0 1 0 1 NaN 
2256 2 2 2 0 -1 -1 -1 1 0 0 NaN 
2256 3 2 1 1 0 0 1 2 2 1 4.513487e-01 
2256 4 2 3 0 0 1 0 1 1 0 2.872098e-01 
2256 5 2 3 0 0 1 0 1 1 0 8.035512e-01 
2256 6 2 2 0 -1 -1 -1 2 0 0 NaN 
2256 7 2 4 -1 -1 0 -1 2 2 0 3.583399e-01 
2256 8 2 4 -1 -1 0 -1 2 2 0 4.174931e-01 
2256 9 2 3 1 1 0 0 1 0 1 NaN 
2256 10 2 1 0 1 1 0 1 1 1 1.879650e-01 
2256 11 2 2 0 -1 -1 -1 1 0 0 NaN 
2256 12 2 4 -1 -1 0 0 1 0 1 NaN 
2256 13 2 1 1 0 0 1 1 1 1 4.275048e-01 
2256 14 2 3 0 0 1 1 2 0 1 NaN 
2256 15 2 4 0 0 -1 0 2 2 0 4.145739e-01 
2256 16 2 1 1 0 0 1 1 1 1 5.120264e-01 
2256 17 2 1 1 0 0 0 2 0 0 NaN 
2256 18 2 2 -1 0 0 0 2 0 0 NaN 
2256 19 2 2 0 -1 -1 -1 2 0 0 NaN 
2256 20 2 3 0 0 1 0 2 2 0 3.664063e-01 
2256 1 1 3 0 0 1 0 2 2 0 6.377817e-01 
2256 2 1 1 0 1 1 1 1 0 0 NaN 
2256 3 1 2 0 -1 -1 -1 1 0 0 NaN 
2256 4 1 2 0 -1 -1 -1 2 0 0 NaN 
2256 5 1 1 1 0 0 1 1 1 1 3.715229e-01 
2256 6 1 3 0 0 1 0 1 1 0 4.596472e-01 
2256 7 1 1 1 0 0 0 2 0 0 NaN 
2256 8 1 4 0 0 -1 -1 2 0 1 NaN 
2256 9 1 4 -1 -1 0 0 1 0 1 NaN 
2256 10 1 3 0 0 1 0 2 2 0 8.755069e-01 
2256 11 1 2 -1 0 0 0 2 0 0 NaN 
2256 12 1 4 -1 -1 0 0 2 0 1 NaN 
2256 13 1 3 1 1 0 1 1 1 0 3.082616e-01 
2256 14 1 2 0 -1 -1 -1 1 0 0 NaN 
2256 15 1 4 -1 -1 0 -1 1 1 0 6.679312e-01 
2256 16 1 4 -1 -1 0 0 2 0 1 NaN 
2256 17 1 1 1 0 0 1 1 1 1 2.888326e-01 
2256 18 1 1 1 0 0 0 2 0 0 NaN 
2256 19 1 2 0 -1 -1 -1 2 0 0 NaN 
2256 20 1 3 0 0 1 0 1 1 0 4.049625e-01 
2256 1 2 4 -1 -1 0 0 1 0 1 NaN 
2256 2 2 2 0 -1 -1 -1 1 0 0 NaN 
2256 3 2 1 1 0 0 1 2 2 1 3.624402e-01 
2256 4 2 4 -1 -1 0 -1 2 2 0 4.077838e-01 
2256 5 2 1 1 0 0 0 2 1 0 3.246500e-02 
2256 6 2 4 0 0 -1 0 2 2 0 5.060575e-01 
2256 7 2 3 0 0 1 0 2 2 0 5.042700e-01 
2256 8 2 2 0 -1 -1 -1 2 0 0 NaN 
2256 9 2 1 1 0 0 1 1 1 1 4.621223e-01 
2256 10 2 4 -1 -1 0 0 1 0 1 NaN 
2256 11 2 3 0 0 1 1 1 0 1 NaN 
2256 12 2 2 0 -1 -1 -1 1 0 0 NaN 
2256 13 2 3 0 0 1 0 2 2 0 3.257599e-01 
2256 14 2 3 1 1 0 0 1 0 1 NaN 
2256 15 2 4 -1 -1 0 0 2 0 1 NaN 
2256 16 2 2 0 -1 -1 -1 2 0 0 NaN 
2256 17 2 1 1 0 0 1 1 1 1 3.865293e-01 
2256 18 2 1 0 1 1 1 1 2 0 2.562262e-01 
2256 19 2 2 -1 0 0 0 2 0 0 NaN 
2256 20 2 3 0 0 1 0 1 1 0 4.922735e-01 
2256 1 1 1 1 0 0 1 1 1 1 3.450847e-01 
2256 2 1 2 -1 0 0 0 2 0 0 NaN 
2256 3 1 4 -1 -1 0 0 2 0 1 NaN 
2256 4 1 4 -1 -1 0 0 1 0 1 NaN 
2256 5 1 4 -1 -1 0 0 2 0 1 NaN 
2256 6 1 1 0 1 1 0 1 1 1 3.174720e-01 
2256 7 1 2 0 -1 -1 -1 1 0 0 NaN 
2256 8 1 3 1 1 0 1 1 1 0 4.778646e-01 
2256 9 1 1 1 0 0 0 1 0 0 NaN 
2256 10 1 3 0 0 1 1 2 0 1 NaN 
2256 11 1 1 1 0 0 1 2 2 1 4.101805e-01 
2256 12 1 2 0 -1 -1 -1 1 0 0 NaN 
2256 13 1 3 0 0 1 1 2 0 1 NaN 
2256 14 1 4 -1 -1 0 0 1 0 1 NaN 
2256 15 1 1 1 0 0 1 2 2 1 5.823155e-01 
2256 16 1 4 0 0 -1 -1 2 0 1 NaN 
2256 17 1 3 0 0 1 0 1 1 0 3.459291e-01 
2256 18 1 3 0 0 1 0 1 1 0 4.283544e-01 
2256 19 1 2 0 -1 -1 -1 2 0 0 NaN 
2256 20 1 2 0 -1 -1 -1 2 0 0 NaN 
2256 1 2 2 0 -1 -1 -1 1 0 0 NaN 
2256 2 2 1 1 0 0 1 2 2 1 3.326876e-01 
2256 3 2 2 -1 0 0 -1 2 2 1 3.990374e-01 
2256 4 2 3 0 0 1 0 2 2 0 3.469249e-01 
2256 5 2 2 0 -1 -1 -1 1 0 0 NaN 
2256 6 2 3 0 0 1 1 1 0 1 NaN 
2256 7 2 1 0 1 1 0 1 1 1 4.895012e-01 
2256 8 2 3 0 0 1 0 2 2 0 4.013508e-01 
2256 9 2 4 -1 -1 0 0 1 0 1 NaN 
2256 10 2 1 1 0 0 1 1 1 1 2.708717e-01 
2256 11 2 1 1 0 0 1 1 1 1 3.004633e-01 
2256 12 2 4 -1 -1 0 0 2 0 1 NaN 
2256 13 2 4 -1 -1 0 0 1 0 1 NaN 
2256 14 2 1 1 0 0 1 2 2 1 3.465212e-01 
2256 15 2 4 0 0 -1 -1 2 0 1 NaN 
2256 16 2 4 -1 -1 0 0 2 0 1 NaN 
2256 17 2 3 1 1 0 0 1 0 1 NaN 
2256 18 2 3 0 0 1 1 1 0 1 NaN 
2256 19 2 2 0 -1 -1 -1 2 0 0 NaN 
2256 20 2 2 0 -1 -1 -1 2 0 0 NaN 
2256 1 1 2 0 -1 -1 -1 2 0 0 NaN 
2256 2 1 4 0 0 -1 -1 2 0 1 NaN 
2256 3 1 1 1 0 0 0 1 0 0 NaN 
2256 4 1 1 1 0 0 1 1 1 1 3.534356e-01 
2256 5 1 2 0 -1 -1 -1 2 0 0 NaN 
2256 6 1 2 0 -1 -1 0 1 1 1 4.317951e-01 
2256 7 1 3 0 0 1 0 2 2 0 3.330574e-01 
2256 8 1 1 1 0 0 0 2 0 0 NaN 
2256 9 1 4 -1 -1 0 0 2 0 1 NaN 
2256 10 1 2 0 -1 -1 -1 1 0 0 NaN 
2256 11 1 3 0 0 1 0 2 2 0 2.537439e-01 
2256 12 1 2 -1 0 0 0 2 0 0 NaN 
2256 13 1 3 0 0 1 0 1 1 0 2.790884e-01 
2256 14 1 4 -1 -1 0 0 1 0 1 NaN 
2256 15 1 1 0 1 1 0 1 1 1 4.186413e-01 
2256 16 1 4 -1 -1 0 0 2 0 1 NaN 
2256 17 1 3 1 1 0 1 1 1 0 4.142222e-01 
2256 18 1 3 0 0 1 0 1 1 0 5.891789e-01 
2256 19 1 4 -1 -1 0 0 1 0 1 NaN 
2256 20 1 1 1 0 0 1 2 2 1 6.155999e-01 
2256 1 2 2 0 -1 -1 -1 1 0 0 NaN 
2256 2 2 2 0 -1 -1 -1 2 0 0 NaN 
2256 3 2 4 -1 -1 0 0 1 0 1 NaN 
2256 4 2 3 1 1 0 1 1 1 0 4.186159e-01 
2256 5 2 1 1 0 0 1 1 1 1 4.030414e-01 
2256 6 2 3 0 0 1 1 2 0 1 NaN 
2256 7 2 3 0 0 1 0 2 2 0 4.695158e-01 
2256 8 2 4 -1 -1 0 0 2 0 1 NaN 
2256 9 2 2 0 -1 -1 -1 2 0 0 NaN 
2256 10 2 4 -1 -1 0 0 1 0 1 NaN 
2256 11 2 3 0 0 1 0 1 1 0 5.057000e-01 
2256 12 2 4 0 0 -1 -1 2 0 1 NaN 
2256 13 2 3 0 0 1 0 1 1 0 6.331445e-01 
2256 14 2 1 1 0 0 1 2 2 1 3.982141e-01 
2256 15 2 4 -1 -1 0 0 2 0 1 NaN 
2256 16 2 1 1 0 0 1 2 2 1 4.072314e-01 
2256 17 2 2 -1 0 0 0 2 0 0 NaN 
2256 18 2 1 0 1 1 0 1 1 1 3.479382e-01 
2256 19 2 2 0 -1 -1 -1 1 0 0 NaN 
2256 20 2 1 1 0 0 1 1 1 1 3.593813e-01 
