Subject,Block,Trial,Valence,Action,Correct,Choice,RT,Accuracy,Sham,Outcome
1el4r80fxt4k6nkx41bqjynb,1,1,Win,No-Go,0,1,0.683,0,0,0
1el4r80fxt4k6nkx41bqjynb,1,2,Lose,Go,1,0,,0,0,-1
1el4r80fxt4k6nkx41bqjynb,1,3,Lose,No-Go,0,0,,1,0,0
1el4r80fxt4k6nkx41bqjynb,1,4,Win,Go,1,1,0.558,1,0,1
1el4r80fxt4k6nkx41bqjynb,1,5,Lose,Go,1,1,0.81,1,1,-1
1el4r80fxt4k6nkx41bqjynb,1,6,Lose,No-Go,0,0,,1,0,0
1el4r80fxt4k6nkx41bqjynb,1,7,Win,Go,1,1,0.615,1,0,1
1el4r80fxt4k6nkx41bqjynb,1,8,Win,No-Go,0,1,0.694,0,0,0
1el4r80fxt4k6nkx41bqjynb,1,9,Win,Go,1,1,0.414,1,0,1
1el4r80fxt4k6nkx41bqjynb,1,10,Lose,Go,1,0,,0,0,-1
1el4r80fxt4k6nkx41bqjynb,1,11,Win,No-Go,0,1,0.44,0,0,0
1el4r80fxt4k6nkx41bqjynb,1,12,Lose,No-Go,0,0,,1,0,0
1el4r80fxt4k6nkx41bqjynb,1,13,Win,Go,1,1,0.566,1,0,1
1el4r80fxt4k6nkx41bqjynb,1,14,Win,No-Go,0,1,0.447,0,0,0
1el4r80fxt4k6nkx41bqjynb,1,15,Lose,Go,1,0,,0,0,-1
1el4r80fxt4k6nkx41bqjynb,1,16,Lose,No-Go,0,0,,1,1,-1
1el4r80fxt4k6nkx41bqjynb,1,17,Win,Go,1,1,0.347,1,1,0
1el4r80fxt4k6nkx41bqjynb,1,18,Lose,Go,1,1,0.629,1,0,0
1el4r80fxt4k6nkx41bqjynb,1,19,Win,No-Go,0,1,0.501,0,1,1
1el4r80fxt4k6nkx41bqjynb,1,20,Lose,No-Go,0,0,,1,0,0
1el4r80fxt4k6nkx41bqjynb,1,21,Lose,No-Go,0,0,,1,0,0
1el4r80fxt4k6nkx41bqjynb,1,22,Win,No-Go,0,1,0.676,0,0,0
1el4r80fxt4k6nkx41bqjynb,1,23,Win,Go,1,1,0.573,1,0,1
1el4r80fxt4k6nkx41bqjynb,1,24,Lose,Go,1,0,,0,0,-1
1el4r80fxt4k6nkx41bqjynb,1,25,Lose,No-Go,0,0,,1,0,0
1el4r80fxt4k6nkx41bqjynb,1,26,Win,Go,1,1,0.481,1,0,1
1el4r80fxt4k6nkx41bqjynb,1,27,Lose,Go,1,0,,0,0,-1
1el4r80fxt4k6nkx41bqjynb,1,28,Win,No-Go,0,1,0.479,0,0,0
1el4r80fxt4k6nkx41bqjynb,1,29,Lose,Go,1,1,0.726,1,0,0
1el4r80fxt4k6nkx41bqjynb,1,30,Win,No-Go,0,1,0.427,0,1,1
1el4r80fxt4k6nkx41bqjynb,1,31,Win,Go,1,1,0.459,1,1,0
1el4r80fxt4k6nkx41bqjynb,1,32,Lose,No-Go,0,1,0.597,0,0,-1
1el4r80fxt4k6nkx41bqjynb,1,33,Lose,No-Go,0,0,,1,0,0
1el4r80fxt4k6nkx41bqjynb,1,34,Win,No-Go,0,1,0.504,0,0,0
1el4r80fxt4k6nkx41bqjynb,1,35,Win,Go,1,1,0.461,1,0,1
1el4r80fxt4k6nkx41bqjynb,1,36,Lose,Go,1,1,0.814,1,1,-1
1el4r80fxt4k6nkx41bqjynb,1,37,Lose,No-Go,0,0,,1,1,-1
1el4r80fxt4k6nkx41bqjynb,1,38,Lose,Go,1,0,,0,0,-1
1el4r80fxt4k6nkx41bqjynb,1,39,Win,Go,1,1,0.362,1,0,1
1el4r80fxt4k6nkx41bqjynb,1,40,Win,No-Go,0,1,0.414,0,0,0
1el4r80fxt4k6nkx41bqjynb,1,41,Lose,Go,1,0,,0,1,0
1el4r80fxt4k6nkx41bqjynb,1,42,Win,No-Go,0,1,0.472,0,0,0
1el4r80fxt4k6nkx41bqjynb,1,43,Lose,No-Go,0,0,,1,0,0
1el4r80fxt4k6nkx41bqjynb,1,44,Win,Go,1,1,0.504,1,0,1
1el4r80fxt4k6nkx41bqjynb,1,45,Lose,No-Go,0,0,,1,0,0
1el4r80fxt4k6nkx41bqjynb,1,46,Win,No-Go,0,1,0.615,0,1,1
1el4r80fxt4k6nkx41bqjynb,1,47,Lose,Go,1,1,0.734,1,0,0
1el4r80fxt4k6nkx41bqjynb,1,48,Win,Go,1,1,0.461,1,0,1
1el4r80fxt4k6nkx41bqjynb,1,49,Lose,No-Go,0,0,,1,0,0
1el4r80fxt4k6nkx41bqjynb,1,50,Win,Go,1,1,0.375,1,0,1
1el4r80fxt4k6nkx41bqjynb,1,51,Win,No-Go,0,1,0.463,0,0,0
1el4r80fxt4k6nkx41bqjynb,1,52,Lose,Go,1,0,,0,0,-1
1el4r80fxt4k6nkx41bqjynb,1,53,Win,No-Go,0,1,0.39,0,0,0
1el4r80fxt4k6nkx41bqjynb,1,54,Lose,Go,1,1,0.688,1,0,0
1el4r80fxt4k6nkx41bqjynb,1,55,Lose,No-Go,0,0,,1,0,0
1el4r80fxt4k6nkx41bqjynb,1,56,Win,Go,1,1,0.334,1,0,1
1el4r80fxt4k6nkx41bqjynb,1,57,Win,Go,1,1,0.334,1,1,0
1el4r80fxt4k6nkx41bqjynb,1,58,Lose,Go,1,0,,0,0,-1
1el4r80fxt4k6nkx41bqjynb,1,59,Lose,No-Go,0,0,,1,1,-1
1el4r80fxt4k6nkx41bqjynb,1,60,Win,No-Go,0,1,0.417,0,0,0
1el4r80fxt4k6nkx41bqjynb,1,61,Win,No-Go,0,1,0.47,0,0,0
1el4r80fxt4k6nkx41bqjynb,1,62,Lose,Go,1,1,0.782,1,0,0
1el4r80fxt4k6nkx41bqjynb,1,63,Lose,No-Go,0,0,,1,0,0
1el4r80fxt4k6nkx41bqjynb,1,64,Win,Go,1,1,0.424,1,0,1
1el4r80fxt4k6nkx41bqjynb,1,65,Win,No-Go,0,1,0.469,0,0,0
1el4r80fxt4k6nkx41bqjynb,1,66,Lose,No-Go,0,1,1.246,0,0,-1
1el4r80fxt4k6nkx41bqjynb,1,67,Win,Go,1,1,0.408,1,1,0
1el4r80fxt4k6nkx41bqjynb,1,68,Lose,Go,1,1,0.727,1,0,0
1el4r80fxt4k6nkx41bqjynb,1,69,Lose,No-Go,0,0,,1,1,-1
1el4r80fxt4k6nkx41bqjynb,1,70,Lose,Go,1,1,0.998,1,0,0
1el4r80fxt4k6nkx41bqjynb,1,71,Win,Go,1,1,0.406,1,0,1
1el4r80fxt4k6nkx41bqjynb,1,72,Win,No-Go,0,1,0.429,0,0,0
1el4r80fxt4k6nkx41bqjynb,1,73,Win,No-Go,0,1,0.448,0,0,0
1el4r80fxt4k6nkx41bqjynb,1,74,Lose,Go,1,1,0.59,1,1,-1
1el4r80fxt4k6nkx41bqjynb,1,75,Win,Go,1,1,0.542,1,0,1
1el4r80fxt4k6nkx41bqjynb,1,76,Lose,No-Go,0,1,0.701,0,0,-1
1el4r80fxt4k6nkx41bqjynb,1,77,Win,No-Go,0,1,0.446,0,1,1
1el4r80fxt4k6nkx41bqjynb,1,78,Win,Go,1,1,0.349,1,0,1
1el4r80fxt4k6nkx41bqjynb,1,79,Lose,No-Go,0,1,0.649,0,0,-1
1el4r80fxt4k6nkx41bqjynb,1,80,Lose,Go,1,1,0.604,1,0,0
1el4r80fxt4k6nkx41bqjynb,2,81,Win,Go,1,1,0.622,1,0,1
1el4r80fxt4k6nkx41bqjynb,2,82,Win,No-Go,0,1,0.493,0,0,0
1el4r80fxt4k6nkx41bqjynb,2,83,Lose,No-Go,0,1,0.798,0,0,-1
1el4r80fxt4k6nkx41bqjynb,2,84,Lose,Go,1,0,,0,0,-1
1el4r80fxt4k6nkx41bqjynb,2,85,Win,Go,1,1,0.376,1,0,1
1el4r80fxt4k6nkx41bqjynb,2,86,Win,No-Go,0,1,0.742,0,0,0
1el4r80fxt4k6nkx41bqjynb,2,87,Lose,Go,1,0,,0,0,-1
1el4r80fxt4k6nkx41bqjynb,2,88,Lose,No-Go,0,1,0.426,0,0,-1
1el4r80fxt4k6nkx41bqjynb,2,89,Lose,Go,1,1,0.613,1,1,-1
1el4r80fxt4k6nkx41bqjynb,2,90,Win,Go,1,1,0.436,1,1,0
1el4r80fxt4k6nkx41bqjynb,2,91,Win,No-Go,0,1,0.365,0,0,0
1el4r80fxt4k6nkx41bqjynb,2,92,Lose,No-Go,0,0,,1,0,0
1el4r80fxt4k6nkx41bqjynb,2,93,Lose,No-Go,0,1,0.768,0,0,-1
1el4r80fxt4k6nkx41bqjynb,2,94,Win,Go,1,1,0.43,1,0,1
1el4r80fxt4k6nkx41bqjynb,2,95,Lose,Go,1,0,,0,0,-1
1el4r80fxt4k6nkx41bqjynb,2,96,Win,No-Go,0,1,0.439,0,1,1
1el4r80fxt4k6nkx41bqjynb,2,97,Lose,No-Go,0,0,,1,1,-1
1el4r80fxt4k6nkx41bqjynb,2,98,Win,Go,1,1,0.519,1,0,1
1el4r80fxt4k6nkx41bqjynb,2,99,Lose,Go,1,1,0.639,1,0,0
1el4r80fxt4k6nkx41bqjynb,2,100,Win,No-Go,0,1,0.47,0,0,0
1el4r80fxt4k6nkx41bqjynb,2,101,Lose,No-Go,0,1,0.786,0,0,-1
1el4r80fxt4k6nkx41bqjynb,2,102,Lose,Go,1,1,0.655,1,0,0
1el4r80fxt4k6nkx41bqjynb,2,103,Win,Go,1,1,0.365,1,1,0
1el4r80fxt4k6nkx41bqjynb,2,104,Win,No-Go,0,1,0.453,0,1,1
1el4r80fxt4k6nkx41bqjynb,2,105,Lose,Go,1,1,0.63,1,0,0
1el4r80fxt4k6nkx41bqjynb,2,106,Win,Go,1,1,0.486,1,0,1
1el4r80fxt4k6nkx41bqjynb,2,107,Win,No-Go,0,1,0.469,0,0,0
1el4r80fxt4k6nkx41bqjynb,2,108,Lose,No-Go,0,1,0.686,0,0,-1
1el4r80fxt4k6nkx41bqjynb,2,109,Win,No-Go,0,1,0.461,0,0,0
1el4r80fxt4k6nkx41bqjynb,2,110,Lose,No-Go,0,1,0.679,0,0,-1
1el4r80fxt4k6nkx41bqjynb,2,111,Win,Go,1,1,0.429,1,0,1
1el4r80fxt4k6nkx41bqjynb,2,112,Lose,Go,1,1,0.742,1,0,0
1el4r80fxt4k6nkx41bqjynb,2,113,Win,No-Go,0,1,0.592,0,0,0
1el4r80fxt4k6nkx41bqjynb,2,114,Lose,No-Go,0,0,,1,0,0
1el4r80fxt4k6nkx41bqjynb,2,115,Lose,Go,1,1,0.776,1,1,-1
1el4r80fxt4k6nkx41bqjynb,2,116,Win,Go,1,1,0.389,1,0,1
1el4r80fxt4k6nkx41bqjynb,2,117,Lose,No-Go,0,0,,1,1,-1
1el4r80fxt4k6nkx41bqjynb,2,118,Lose,Go,1,1,0.471,1,0,0
1el4r80fxt4k6nkx41bqjynb,2,119,Win,No-Go,0,1,0.454,0,0,0
1el4r80fxt4k6nkx41bqjynb,2,120,Win,Go,1,1,0.493,1,0,1
1el4r80fxt4k6nkx41bqjynb,2,121,Win,No-Go,0,1,0.685,0,0,0
1el4r80fxt4k6nkx41bqjynb,2,122,Lose,No-Go,0,0,,1,0,0
1el4r80fxt4k6nkx41bqjynb,2,123,Lose,Go,1,1,0.88,1,0,0
1el4r80fxt4k6nkx41bqjynb,2,124,Win,Go,1,1,0.533,1,1,0
1el4r80fxt4k6nkx41bqjynb,2,125,Lose,Go,1,1,1.078,1,1,-1
1el4r80fxt4k6nkx41bqjynb,2,126,Lose,No-Go,0,0,,1,0,0
1el4r80fxt4k6nkx41bqjynb,2,127,Win,No-Go,0,1,0.554,0,0,0
1el4r80fxt4k6nkx41bqjynb,2,128,Win,Go,1,1,0.438,1,0,1
1el4r80fxt4k6nkx41bqjynb,2,129,Lose,No-Go,0,0,,1,0,0
1el4r80fxt4k6nkx41bqjynb,2,130,Win,Go,1,1,0.514,1,0,1
1el4r80fxt4k6nkx41bqjynb,2,131,Lose,Go,1,0,,0,0,-1
1el4r80fxt4k6nkx41bqjynb,2,132,Win,No-Go,0,1,0.497,0,0,0
1el4r80fxt4k6nkx41bqjynb,2,133,Lose,No-Go,0,0,,1,0,0
1el4r80fxt4k6nkx41bqjynb,2,134,Win,Go,1,1,0.463,1,0,1
1el4r80fxt4k6nkx41bqjynb,2,135,Lose,Go,1,1,1.062,1,0,0
1el4r80fxt4k6nkx41bqjynb,2,136,Win,No-Go,0,1,0.397,0,0,0
1el4r80fxt4k6nkx41bqjynb,2,137,Lose,No-Go,0,0,,1,1,-1
1el4r80fxt4k6nkx41bqjynb,2,138,Win,Go,1,1,0.456,1,0,1
1el4r80fxt4k6nkx41bqjynb,2,139,Lose,Go,1,0,,0,0,-1
1el4r80fxt4k6nkx41bqjynb,2,140,Win,No-Go,0,1,0.568,0,1,1
1el4r80fxt4k6nkx41bqjynb,2,141,Win,No-Go,0,1,0.501,0,1,1
1el4r80fxt4k6nkx41bqjynb,2,142,Lose,Go,1,0,,0,0,-1
1el4r80fxt4k6nkx41bqjynb,2,143,Win,Go,1,1,0.488,1,0,1
1el4r80fxt4k6nkx41bqjynb,2,144,Lose,No-Go,0,0,,1,0,0
1el4r80fxt4k6nkx41bqjynb,2,145,Lose,No-Go,0,0,,1,0,0
1el4r80fxt4k6nkx41bqjynb,2,146,Win,Go,1,1,0.425,1,0,1
1el4r80fxt4k6nkx41bqjynb,2,147,Lose,Go,1,0,,0,0,-1
1el4r80fxt4k6nkx41bqjynb,2,148,Win,No-Go,0,1,0.4,0,0,0
1el4r80fxt4k6nkx41bqjynb,2,149,Win,No-Go,0,1,0.414,0,0,0
1el4r80fxt4k6nkx41bqjynb,2,150,Lose,No-Go,0,0,,1,0,0
1el4r80fxt4k6nkx41bqjynb,2,151,Lose,Go,1,1,0.92,1,0,0
1el4r80fxt4k6nkx41bqjynb,2,152,Win,Go,1,1,0.429,1,0,1
1el4r80fxt4k6nkx41bqjynb,2,153,Win,Go,1,1,0.486,1,0,1
1el4r80fxt4k6nkx41bqjynb,2,154,Lose,No-Go,0,0,,1,0,0
1el4r80fxt4k6nkx41bqjynb,2,155,Lose,Go,1,1,0.65,1,0,0
1el4r80fxt4k6nkx41bqjynb,2,156,Win,No-Go,0,1,0.47,0,0,0
1el4r80fxt4k6nkx41bqjynb,2,157,Lose,Go,1,1,0.789,1,1,-1
1el4r80fxt4k6nkx41bqjynb,2,158,Lose,No-Go,0,0,,1,1,-1
1el4r80fxt4k6nkx41bqjynb,2,159,Win,No-Go,0,1,0.44,0,0,0
1el4r80fxt4k6nkx41bqjynb,2,160,Win,Go,1,1,0.428,1,1,0
2ei3r25qpzx9ltlxw0da58rb,1,1,Win,No-Go,0,1,0.629,0,0,0
2ei3r25qpzx9ltlxw0da58rb,1,2,Lose,Go,1,1,0.665,1,0,0
2ei3r25qpzx9ltlxw0da58rb,1,3,Lose,No-Go,0,1,1.022,0,0,-1
2ei3r25qpzx9ltlxw0da58rb,1,4,Win,Go,1,1,0.694,1,0,1
2ei3r25qpzx9ltlxw0da58rb,1,5,Lose,Go,1,0,,0,1,0
2ei3r25qpzx9ltlxw0da58rb,1,6,Lose,No-Go,0,0,,1,0,0
2ei3r25qpzx9ltlxw0da58rb,1,7,Win,Go,1,1,0.551,1,0,1
2ei3r25qpzx9ltlxw0da58rb,1,8,Win,No-Go,0,0,,1,0,1
2ei3r25qpzx9ltlxw0da58rb,1,9,Win,Go,1,1,0.617,1,0,1
2ei3r25qpzx9ltlxw0da58rb,1,10,Lose,Go,1,0,,0,0,-1
2ei3r25qpzx9ltlxw0da58rb,1,11,Win,No-Go,0,0,,1,0,1
2ei3r25qpzx9ltlxw0da58rb,1,12,Lose,No-Go,0,0,,1,0,0
2ei3r25qpzx9ltlxw0da58rb,1,13,Win,Go,1,1,0.549,1,0,1
2ei3r25qpzx9ltlxw0da58rb,1,14,Win,No-Go,0,0,,1,0,1
2ei3r25qpzx9ltlxw0da58rb,1,15,Lose,Go,1,1,0.505,1,0,0
2ei3r25qpzx9ltlxw0da58rb,1,16,Lose,No-Go,0,0,,1,1,-1
2ei3r25qpzx9ltlxw0da58rb,1,17,Win,Go,1,1,0.746,1,1,0
2ei3r25qpzx9ltlxw0da58rb,1,18,Lose,Go,1,1,0.598,1,0,0
2ei3r25qpzx9ltlxw0da58rb,1,19,Win,No-Go,0,0,,1,1,0
2ei3r25qpzx9ltlxw0da58rb,1,20,Lose,No-Go,0,1,0.541,0,0,-1
2ei3r25qpzx9ltlxw0da58rb,1,21,Lose,No-Go,0,1,0.806,0,0,-1
2ei3r25qpzx9ltlxw0da58rb,1,22,Win,No-Go,0,0,,1,0,1
2ei3r25qpzx9ltlxw0da58rb,1,23,Win,Go,1,1,0.558,1,0,1
2ei3r25qpzx9ltlxw0da58rb,1,24,Lose,Go,1,1,1.228,1,0,0
2ei3r25qpzx9ltlxw0da58rb,1,25,Lose,No-Go,0,1,1.129,0,0,-1
2ei3r25qpzx9ltlxw0da58rb,1,26,Win,Go,1,1,0.503,1,0,1
2ei3r25qpzx9ltlxw0da58rb,1,27,Lose,Go,1,1,0.609,1,0,0
2ei3r25qpzx9ltlxw0da58rb,1,28,Win,No-Go,0,0,,1,0,1
2ei3r25qpzx9ltlxw0da58rb,1,29,Lose,Go,1,1,0.455,1,0,0
2ei3r25qpzx9ltlxw0da58rb,1,30,Win,No-Go,0,0,,1,1,0
2ei3r25qpzx9ltlxw0da58rb,1,31,Win,Go,1,1,0.522,1,1,0
2ei3r25qpzx9ltlxw0da58rb,1,32,Lose,No-Go,0,1,1.318,0,0,-1
2ei3r25qpzx9ltlxw0da58rb,1,33,Lose,No-Go,0,0,,1,0,0
2ei3r25qpzx9ltlxw0da58rb,1,34,Win,No-Go,0,1,0.554,0,0,0
2ei3r25qpzx9ltlxw0da58rb,1,35,Win,Go,1,1,0.503,1,0,1
2ei3r25qpzx9ltlxw0da58rb,1,36,Lose,Go,1,1,0.449,1,1,-1
2ei3r25qpzx9ltlxw0da58rb,1,37,Lose,No-Go,0,0,,1,1,-1
2ei3r25qpzx9ltlxw0da58rb,1,38,Lose,Go,1,1,0.712,1,0,0
2ei3r25qpzx9ltlxw0da58rb,1,39,Win,Go,1,1,0.453,1,0,1
2ei3r25qpzx9ltlxw0da58rb,1,40,Win,No-Go,0,0,,1,0,1
2ei3r25qpzx9ltlxw0da58rb,1,41,Lose,Go,1,1,0.843,1,1,-1
2ei3r25qpzx9ltlxw0da58rb,1,42,Win,No-Go,0,0,,1,0,1
2ei3r25qpzx9ltlxw0da58rb,1,43,Lose,No-Go,0,0,,1,0,0
2ei3r25qpzx9ltlxw0da58rb,1,44,Win,Go,1,1,0.465,1,0,1
2ei3r25qpzx9ltlxw0da58rb,1,45,Lose,No-Go,0,0,,1,0,0
2ei3r25qpzx9ltlxw0da58rb,1,46,Win,No-Go,0,0,,1,1,0
2ei3r25qpzx9ltlxw0da58rb,1,47,Lose,Go,1,1,0.636,1,0,0
2ei3r25qpzx9ltlxw0da58rb,1,48,Win,Go,1,1,0.432,1,0,1
2ei3r25qpzx9ltlxw0da58rb,1,49,Lose,No-Go,0,0,,1,0,0
2ei3r25qpzx9ltlxw0da58rb,1,50,Win,Go,1,1,0.469,1,0,1
2ei3r25qpzx9ltlxw0da58rb,1,51,Win,No-Go,0,1,1.417,0,0,0
2ei3r25qpzx9ltlxw0da58rb,1,52,Lose,Go,1,1,0.771,1,0,0
2ei3r25qpzx9ltlxw0da58rb,1,53,Win,No-Go,0,1,0.533,0,0,0
2ei3r25qpzx9ltlxw0da58rb,1,54,Lose,Go,1,1,0.773,1,0,0
2ei3r25qpzx9ltlxw0da58rb,1,55,Lose,No-Go,0,0,,1,0,0
2ei3r25qpzx9ltlxw0da58rb,1,56,Win,Go,1,1,0.459,1,0,1
2ei3r25qpzx9ltlxw0da58rb,1,57,Win,Go,1,1,0.604,1,1,0
2ei3r25qpzx9ltlxw0da58rb,1,58,Lose,Go,1,1,0.795,1,0,0
2ei3r25qpzx9ltlxw0da58rb,1,59,Lose,No-Go,0,0,,1,1,-1
2ei3r25qpzx9ltlxw0da58rb,1,60,Win,No-Go,0,1,1.252,0,0,0
2ei3r25qpzx9ltlxw0da58rb,1,61,Win,No-Go,0,1,0.942,0,0,0
2ei3r25qpzx9ltlxw0da58rb,1,62,Lose,Go,1,1,0.662,1,0,0
2ei3r25qpzx9ltlxw0da58rb,1,63,Lose,No-Go,0,0,,1,0,0
2ei3r25qpzx9ltlxw0da58rb,1,64,Win,Go,1,1,0.477,1,0,1
2ei3r25qpzx9ltlxw0da58rb,1,65,Win,No-Go,0,0,,1,0,1
2ei3r25qpzx9ltlxw0da58rb,1,66,Lose,No-Go,0,0,,1,0,0
2ei3r25qpzx9ltlxw0da58rb,1,67,Win,Go,1,1,0.493,1,1,0
2ei3r25qpzx9ltlxw0da58rb,1,68,Lose,Go,1,1,0.379,1,0,0
2ei3r25qpzx9ltlxw0da58rb,1,69,Lose,No-Go,0,0,,1,1,-1
2ei3r25qpzx9ltlxw0da58rb,1,70,Lose,Go,1,1,0.632,1,0,0
2ei3r25qpzx9ltlxw0da58rb,1,71,Win,Go,1,1,0.421,1,0,1
2ei3r25qpzx9ltlxw0da58rb,1,72,Win,No-Go,0,0,,1,0,1
2ei3r25qpzx9ltlxw0da58rb,1,73,Win,No-Go,0,0,,1,0,1
2ei3r25qpzx9ltlxw0da58rb,1,74,Lose,Go,1,1,0.798,1,1,-1
2ei3r25qpzx9ltlxw0da58rb,1,75,Win,Go,1,1,0.291,1,0,1
2ei3r25qpzx9ltlxw0da58rb,1,76,Lose,No-Go,0,0,,1,0,0
2ei3r25qpzx9ltlxw0da58rb,1,77,Win,No-Go,0,0,,1,1,0
2ei3r25qpzx9ltlxw0da58rb,1,78,Win,Go,1,1,0.428,1,0,1
2ei3r25qpzx9ltlxw0da58rb,1,79,Lose,No-Go,0,0,,1,0,0
2ei3r25qpzx9ltlxw0da58rb,1,80,Lose,Go,1,1,0.321,1,0,0
2ei3r25qpzx9ltlxw0da58rb,2,81,Win,Go,1,1,0.537,1,0,1
2ei3r25qpzx9ltlxw0da58rb,2,82,Win,No-Go,0,0,,1,0,1
2ei3r25qpzx9ltlxw0da58rb,2,83,Lose,No-Go,0,1,1.109,0,0,-1
2ei3r25qpzx9ltlxw0da58rb,2,84,Lose,Go,1,1,1.1,1,0,0
2ei3r25qpzx9ltlxw0da58rb,2,85,Win,Go,1,1,0.95,1,0,1
2ei3r25qpzx9ltlxw0da58rb,2,86,Win,No-Go,0,0,,1,0,1
2ei3r25qpzx9ltlxw0da58rb,2,87,Lose,Go,1,1,0.886,1,0,0
2ei3r25qpzx9ltlxw0da58rb,2,88,Lose,No-Go,0,0,,1,0,0
2ei3r25qpzx9ltlxw0da58rb,2,89,Lose,Go,1,1,0.936,1,1,-1
2ei3r25qpzx9ltlxw0da58rb,2,90,Win,Go,1,1,0.859,1,1,0
2ei3r25qpzx9ltlxw0da58rb,2,91,Win,No-Go,0,0,,1,0,1
2ei3r25qpzx9ltlxw0da58rb,2,92,Lose,No-Go,0,1,1.473,0,0,-1
2ei3r25qpzx9ltlxw0da58rb,2,93,Lose,No-Go,0,0,,1,0,0
2ei3r25qpzx9ltlxw0da58rb,2,94,Win,Go,1,1,0.528,1,0,1
2ei3r25qpzx9ltlxw0da58rb,2,95,Lose,Go,1,1,0.775,1,0,0
2ei3r25qpzx9ltlxw0da58rb,2,96,Win,No-Go,0,0,,1,1,0
2ei3r25qpzx9ltlxw0da58rb,2,97,Lose,No-Go,0,0,,1,1,-1
2ei3r25qpzx9ltlxw0da58rb,2,98,Win,Go,1,1,0.519,1,0,1
2ei3r25qpzx9ltlxw0da58rb,2,99,Lose,Go,1,1,0.683,1,0,0
2ei3r25qpzx9ltlxw0da58rb,2,100,Win,No-Go,0,0,,1,0,1
2ei3r25qpzx9ltlxw0da58rb,2,101,Lose,No-Go,0,1,0.9,0,0,-1
2ei3r25qpzx9ltlxw0da58rb,2,102,Lose,Go,1,1,0.968,1,0,0
2ei3r25qpzx9ltlxw0da58rb,2,103,Win,Go,1,1,0.587,1,1,0
2ei3r25qpzx9ltlxw0da58rb,2,104,Win,No-Go,0,0,,1,1,0
2ei3r25qpzx9ltlxw0da58rb,2,105,Lose,Go,1,1,0.5,1,0,0
2ei3r25qpzx9ltlxw0da58rb,2,106,Win,Go,1,1,0.482,1,0,1
2ei3r25qpzx9ltlxw0da58rb,2,107,Win,No-Go,0,0,,1,0,1
2ei3r25qpzx9ltlxw0da58rb,2,108,Lose,No-Go,0,0,,1,0,0
2ei3r25qpzx9ltlxw0da58rb,2,109,Win,No-Go,0,0,,1,0,1
2ei3r25qpzx9ltlxw0da58rb,2,110,Lose,No-Go,0,0,,1,0,0
2ei3r25qpzx9ltlxw0da58rb,2,111,Win,Go,1,1,1.068,1,0,1
2ei3r25qpzx9ltlxw0da58rb,2,112,Lose,Go,1,1,0.497,1,0,0
2ei3r25qpzx9ltlxw0da58rb,2,113,Win,No-Go,0,0,,1,0,1
2ei3r25qpzx9ltlxw0da58rb,2,114,Lose,No-Go,0,0,,1,0,0
2ei3r25qpzx9ltlxw0da58rb,2,115,Lose,Go,1,1,0.611,1,1,-1
2ei3r25qpzx9ltlxw0da58rb,2,116,Win,Go,1,1,0.435,1,0,1
2ei3r25qpzx9ltlxw0da58rb,2,117,Lose,No-Go,0,0,,1,1,-1
2ei3r25qpzx9ltlxw0da58rb,2,118,Lose,Go,1,1,0.546,1,0,0
2ei3r25qpzx9ltlxw0da58rb,2,119,Win,No-Go,0,0,,1,0,1
2ei3r25qpzx9ltlxw0da58rb,2,120,Win,Go,1,1,0.606,1,0,1
2ei3r25qpzx9ltlxw0da58rb,2,121,Win,No-Go,0,0,,1,0,1
2ei3r25qpzx9ltlxw0da58rb,2,122,Lose,No-Go,0,0,,1,0,0
2ei3r25qpzx9ltlxw0da58rb,2,123,Lose,Go,1,1,0.517,1,0,0
2ei3r25qpzx9ltlxw0da58rb,2,124,Win,Go,1,1,0.484,1,1,0
2ei3r25qpzx9ltlxw0da58rb,2,125,Lose,Go,1,1,0.458,1,1,-1
2ei3r25qpzx9ltlxw0da58rb,2,126,Lose,No-Go,0,0,,1,0,0
2ei3r25qpzx9ltlxw0da58rb,2,127,Win,No-Go,0,0,,1,0,1
2ei3r25qpzx9ltlxw0da58rb,2,128,Win,Go,1,1,0.4,1,0,1
2ei3r25qpzx9ltlxw0da58rb,2,129,Lose,No-Go,0,0,,1,0,0
2ei3r25qpzx9ltlxw0da58rb,2,130,Win,Go,1,1,0.463,1,0,1
2ei3r25qpzx9ltlxw0da58rb,2,131,Lose,Go,1,1,0.423,1,0,0
2ei3r25qpzx9ltlxw0da58rb,2,132,Win,No-Go,0,0,,1,0,1
2ei3r25qpzx9ltlxw0da58rb,2,133,Lose,No-Go,0,0,,1,0,0
2ei3r25qpzx9ltlxw0da58rb,2,134,Win,Go,1,1,0.425,1,0,1
2ei3r25qpzx9ltlxw0da58rb,2,135,Lose,Go,1,1,0.515,1,0,0
2ei3r25qpzx9ltlxw0da58rb,2,136,Win,No-Go,0,0,,1,0,1
2ei3r25qpzx9ltlxw0da58rb,2,137,Lose,No-Go,0,0,,1,1,-1
2ei3r25qpzx9ltlxw0da58rb,2,138,Win,Go,1,1,0.561,1,0,1
2ei3r25qpzx9ltlxw0da58rb,2,139,Lose,Go,1,1,0.856,1,0,0
2ei3r25qpzx9ltlxw0da58rb,2,140,Win,No-Go,0,0,,1,1,0
2ei3r25qpzx9ltlxw0da58rb,2,141,Win,No-Go,0,0,,1,1,0
2ei3r25qpzx9ltlxw0da58rb,2,142,Lose,Go,1,1,0.544,1,0,0
2ei3r25qpzx9ltlxw0da58rb,2,143,Win,Go,1,1,0.305,1,0,1
2ei3r25qpzx9ltlxw0da58rb,2,144,Lose,No-Go,0,0,,1,0,0
2ei3r25qpzx9ltlxw0da58rb,2,145,Lose,No-Go,0,0,,1,0,0
2ei3r25qpzx9ltlxw0da58rb,2,146,Win,Go,1,1,0.498,1,0,1
2ei3r25qpzx9ltlxw0da58rb,2,147,Lose,Go,1,1,0.467,1,0,0
2ei3r25qpzx9ltlxw0da58rb,2,148,Win,No-Go,0,0,,1,0,1
2ei3r25qpzx9ltlxw0da58rb,2,149,Win,No-Go,0,0,,1,0,1
2ei3r25qpzx9ltlxw0da58rb,2,150,Lose,No-Go,0,0,,1,0,0
2ei3r25qpzx9ltlxw0da58rb,2,151,Lose,Go,1,1,0.464,1,0,0
2ei3r25qpzx9ltlxw0da58rb,2,152,Win,Go,1,1,0.365,1,0,1
2ei3r25qpzx9ltlxw0da58rb,2,153,Win,Go,1,1,0.499,1,0,1
2ei3r25qpzx9ltlxw0da58rb,2,154,Lose,No-Go,0,0,,1,0,0
2ei3r25qpzx9ltlxw0da58rb,2,155,Lose,Go,1,1,0.475,1,0,0
2ei3r25qpzx9ltlxw0da58rb,2,156,Win,No-Go,0,0,,1,0,1
2ei3r25qpzx9ltlxw0da58rb,2,157,Lose,Go,1,1,0.456,1,1,-1
2ei3r25qpzx9ltlxw0da58rb,2,158,Lose,No-Go,0,0,,1,1,-1
2ei3r25qpzx9ltlxw0da58rb,2,159,Win,No-Go,0,0,,1,0,1
2ei3r25qpzx9ltlxw0da58rb,2,160,Win,Go,1,1,0.416,1,1,0
3befz6gaec5j18hl2flx89cc,1,1,Win,No-Go,0,1,0.724,0,0,0
3befz6gaec5j18hl2flx89cc,1,2,Lose,Go,1,0,,0,0,-1
3befz6gaec5j18hl2flx89cc,1,3,Lose,No-Go,0,1,0.774,0,0,-1
3befz6gaec5j18hl2flx89cc,1,4,Win,Go,1,1,0.685,1,0,1
3befz6gaec5j18hl2flx89cc,1,5,Lose,Go,1,0,,0,1,0
3befz6gaec5j18hl2flx89cc,1,6,Lose,No-Go,0,1,0.645,0,0,-1
3befz6gaec5j18hl2flx89cc,1,7,Win,Go,1,1,0.574,1,0,1
3befz6gaec5j18hl2flx89cc,1,8,Win,No-Go,0,1,0.62,0,0,0
3befz6gaec5j18hl2flx89cc,1,9,Win,Go,1,1,0.653,1,0,1
3befz6gaec5j18hl2flx89cc,1,10,Lose,Go,1,0,,0,0,-1
3befz6gaec5j18hl2flx89cc,1,11,Win,No-Go,0,1,0.39,0,0,0
3befz6gaec5j18hl2flx89cc,1,12,Lose,No-Go,0,0,,1,0,0
3befz6gaec5j18hl2flx89cc,1,13,Win,Go,1,1,0.67,1,0,1
3befz6gaec5j18hl2flx89cc,1,14,Win,No-Go,0,1,0.733,0,0,0
3befz6gaec5j18hl2flx89cc,1,15,Lose,Go,1,1,0.757,1,0,0
3befz6gaec5j18hl2flx89cc,1,16,Lose,No-Go,0,0,,1,1,-1
3befz6gaec5j18hl2flx89cc,1,17,Win,Go,1,1,0.396,1,1,0
3befz6gaec5j18hl2flx89cc,1,18,Lose,Go,1,1,0.628,1,0,0
3befz6gaec5j18hl2flx89cc,1,19,Win,No-Go,0,0,,1,1,0
3befz6gaec5j18hl2flx89cc,1,20,Lose,No-Go,0,1,0.741,0,0,-1
3befz6gaec5j18hl2flx89cc,1,21,Lose,No-Go,0,0,,1,0,0
3befz6gaec5j18hl2flx89cc,1,22,Win,No-Go,0,1,0.573,0,0,0
3befz6gaec5j18hl2flx89cc,1,23,Win,Go,1,1,0.525,1,0,1
3befz6gaec5j18hl2flx89cc,1,24,Lose,Go,1,1,0.964,1,0,0
3befz6gaec5j18hl2flx89cc,1,25,Lose,No-Go,0,0,,1,0,0
3befz6gaec5j18hl2flx89cc,1,26,Win,Go,1,1,0.558,1,0,1
3befz6gaec5j18hl2flx89cc,1,27,Lose,Go,1,1,1.029,1,0,0
3befz6gaec5j18hl2flx89cc,1,28,Win,No-Go,0,0,,1,0,1
3befz6gaec5j18hl2flx89cc,1,29,Lose,Go,1,1,0.638,1,0,0
3befz6gaec5j18hl2flx89cc,1,30,Win,No-Go,0,0,,1,1,0
3befz6gaec5j18hl2flx89cc,1,31,Win,Go,1,1,0.558,1,1,0
3befz6gaec5j18hl2flx89cc,1,32,Lose,No-Go,0,0,,1,0,0
3befz6gaec5j18hl2flx89cc,1,33,Lose,No-Go,0,0,,1,0,0
3befz6gaec5j18hl2flx89cc,1,34,Win,No-Go,0,1,0.589,0,0,0
3befz6gaec5j18hl2flx89cc,1,35,Win,Go,1,1,0.636,1,0,1
3befz6gaec5j18hl2flx89cc,1,36,Lose,Go,1,1,0.596,1,1,-1
3befz6gaec5j18hl2flx89cc,1,37,Lose,No-Go,0,0,,1,1,-1
3befz6gaec5j18hl2flx89cc,1,38,Lose,Go,1,1,0.526,1,0,0
3befz6gaec5j18hl2flx89cc,1,39,Win,Go,1,1,0.597,1,0,1
3befz6gaec5j18hl2flx89cc,1,40,Win,No-Go,0,0,,1,0,1
3befz6gaec5j18hl2flx89cc,1,41,Lose,Go,1,1,0.56,1,1,-1
3befz6gaec5j18hl2flx89cc,1,42,Win,No-Go,0,0,,1,0,1
3befz6gaec5j18hl2flx89cc,1,43,Lose,No-Go,0,1,1.494,0,0,-1
3befz6gaec5j18hl2flx89cc,1,44,Win,Go,1,1,0.612,1,0,1
3befz6gaec5j18hl2flx89cc,1,45,Lose,No-Go,0,0,,1,0,0
3befz6gaec5j18hl2flx89cc,1,46,Win,No-Go,0,1,0.669,0,1,1
3befz6gaec5j18hl2flx89cc,1,47,Lose,Go,1,1,1.109,1,0,0
3befz6gaec5j18hl2flx89cc,1,48,Win,Go,1,1,0.557,1,0,1
3befz6gaec5j18hl2flx89cc,1,49,Lose,No-Go,0,0,,1,0,0
3befz6gaec5j18hl2flx89cc,1,50,Win,Go,1,1,0.453,1,0,1
3befz6gaec5j18hl2flx89cc,1,51,Win,No-Go,0,0,,1,0,1
3befz6gaec5j18hl2flx89cc,1,52,Lose,Go,1,0,,0,0,-1
3befz6gaec5j18hl2flx89cc,1,53,Win,No-Go,0,0,,1,0,1
3befz6gaec5j18hl2flx89cc,1,54,Lose,Go,1,0,,0,0,-1
3befz6gaec5j18hl2flx89cc,1,55,Lose,No-Go,0,0,,1,0,0
3befz6gaec5j18hl2flx89cc,1,56,Win,Go,1,1,0.541,1,0,1
3befz6gaec5j18hl2flx89cc,1,57,Win,Go,1,1,0.62,1,1,0
3befz6gaec5j18hl2flx89cc,1,58,Lose,Go,1,0,,0,0,-1
3befz6gaec5j18hl2flx89cc,1,59,Lose,No-Go,0,0,,1,1,-1
3befz6gaec5j18hl2flx89cc,1,60,Win,No-Go,0,0,,1,0,1
3befz6gaec5j18hl2flx89cc,1,61,Win,No-Go,0,0,,1,0,1
3befz6gaec5j18hl2flx89cc,1,62,Lose,Go,1,1,1.218,1,0,0
3befz6gaec5j18hl2flx89cc,1,63,Lose,No-Go,0,0,,1,0,0
3befz6gaec5j18hl2flx89cc,1,64,Win,Go,1,1,0.514,1,0,1
3befz6gaec5j18hl2flx89cc,1,65,Win,No-Go,0,0,,1,0,1
3befz6gaec5j18hl2flx89cc,1,66,Lose,No-Go,0,0,,1,0,0
3befz6gaec5j18hl2flx89cc,1,67,Win,Go,1,1,0.406,1,1,0
3befz6gaec5j18hl2flx89cc,1,68,Lose,Go,1,1,0.732,1,0,0
3befz6gaec5j18hl2flx89cc,1,69,Lose,No-Go,0,0,,1,1,-1
3befz6gaec5j18hl2flx89cc,1,70,Lose,Go,1,1,0.789,1,0,0
3befz6gaec5j18hl2flx89cc,1,71,Win,Go,1,1,0.477,1,0,1
3befz6gaec5j18hl2flx89cc,1,72,Win,No-Go,0,0,,1,0,1
3befz6gaec5j18hl2flx89cc,1,73,Win,No-Go,0,0,,1,0,1
3befz6gaec5j18hl2flx89cc,1,74,Lose,Go,1,1,1.125,1,1,-1
3befz6gaec5j18hl2flx89cc,1,75,Win,Go,1,1,0.494,1,0,1
3befz6gaec5j18hl2flx89cc,1,76,Lose,No-Go,0,0,,1,0,0
3befz6gaec5j18hl2flx89cc,1,77,Win,No-Go,0,0,,1,1,0
3befz6gaec5j18hl2flx89cc,1,78,Win,Go,1,1,0.405,1,0,1
3befz6gaec5j18hl2flx89cc,1,79,Lose,No-Go,0,0,,1,0,0
3befz6gaec5j18hl2flx89cc,1,80,Lose,Go,1,0,,0,0,-1
3befz6gaec5j18hl2flx89cc,2,81,Win,Go,1,1,0.598,1,0,1
3befz6gaec5j18hl2flx89cc,2,82,Win,No-Go,0,1,0.741,0,0,0
3befz6gaec5j18hl2flx89cc,2,83,Lose,No-Go,0,0,,1,0,0
3befz6gaec5j18hl2flx89cc,2,84,Lose,Go,1,0,,0,0,-1
3befz6gaec5j18hl2flx89cc,2,85,Win,Go,1,1,0.743,1,0,1
3befz6gaec5j18hl2flx89cc,2,86,Win,No-Go,0,1,1.333,0,0,0
3befz6gaec5j18hl2flx89cc,2,87,Lose,Go,1,1,0.852,1,0,0
3befz6gaec5j18hl2flx89cc,2,88,Lose,No-Go,0,0,,1,0,0
3befz6gaec5j18hl2flx89cc,2,89,Lose,Go,1,1,1.286,1,1,-1
3befz6gaec5j18hl2flx89cc,2,90,Win,Go,1,1,0.668,1,1,0
3befz6gaec5j18hl2flx89cc,2,91,Win,No-Go,0,0,,1,0,1
3befz6gaec5j18hl2flx89cc,2,92,Lose,No-Go,0,0,,1,0,0
3befz6gaec5j18hl2flx89cc,2,93,Lose,No-Go,0,0,,1,0,0
3befz6gaec5j18hl2flx89cc,2,94,Win,Go,1,1,0.503,1,0,1
3befz6gaec5j18hl2flx89cc,2,95,Lose,Go,1,1,1.253,1,0,0
3befz6gaec5j18hl2flx89cc,2,96,Win,No-Go,0,0,,1,1,0
3befz6gaec5j18hl2flx89cc,2,97,Lose,No-Go,0,0,,1,1,-1
3befz6gaec5j18hl2flx89cc,2,98,Win,Go,1,1,0.372,1,0,1
3befz6gaec5j18hl2flx89cc,2,99,Lose,Go,1,1,1.46,1,0,0
3befz6gaec5j18hl2flx89cc,2,100,Win,No-Go,0,0,,1,0,1
3befz6gaec5j18hl2flx89cc,2,101,Lose,No-Go,0,0,,1,0,0
3befz6gaec5j18hl2flx89cc,2,102,Lose,Go,1,0,,0,0,-1
3befz6gaec5j18hl2flx89cc,2,103,Win,Go,1,1,0.423,1,1,0
3befz6gaec5j18hl2flx89cc,2,104,Win,No-Go,0,0,,1,1,0
3befz6gaec5j18hl2flx89cc,2,105,Lose,Go,1,1,0.59,1,0,0
3befz6gaec5j18hl2flx89cc,2,106,Win,Go,1,1,0.477,1,0,1
3befz6gaec5j18hl2flx89cc,2,107,Win,No-Go,0,0,,1,0,1
3befz6gaec5j18hl2flx89cc,2,108,Lose,No-Go,0,0,,1,0,0
3befz6gaec5j18hl2flx89cc,2,109,Win,No-Go,0,0,,1,0,1
3befz6gaec5j18hl2flx89cc,2,110,Lose,No-Go,0,0,,1,0,0
3befz6gaec5j18hl2flx89cc,2,111,Win,Go,1,1,0.584,1,0,1
3befz6gaec5j18hl2flx89cc,2,112,Lose,Go,1,1,0.741,1,0,0
3befz6gaec5j18hl2flx89cc,2,113,Win,No-Go,0,0,,1,0,1
3befz6gaec5j18hl2flx89cc,2,114,Lose,No-Go,0,0,,1,0,0
3befz6gaec5j18hl2flx89cc,2,115,Lose,Go,1,1,1.34,1,1,-1
3befz6gaec5j18hl2flx89cc,2,116,Win,Go,1,1,0.541,1,0,1
3befz6gaec5j18hl2flx89cc,2,117,Lose,No-Go,0,0,,1,1,-1
3befz6gaec5j18hl2flx89cc,2,118,Lose,Go,1,1,0.564,1,0,0
3befz6gaec5j18hl2flx89cc,2,119,Win,No-Go,0,0,,1,0,1
3befz6gaec5j18hl2flx89cc,2,120,Win,Go,1,1,0.413,1,0,1
3befz6gaec5j18hl2flx89cc,2,121,Win,No-Go,0,0,,1,0,1
3befz6gaec5j18hl2flx89cc,2,122,Lose,No-Go,0,0,,1,0,0
3befz6gaec5j18hl2flx89cc,2,123,Lose,Go,1,0,,0,0,-1
3befz6gaec5j18hl2flx89cc,2,124,Win,Go,1,1,0.536,1,1,0
3befz6gaec5j18hl2flx89cc,2,125,Lose,Go,1,1,0.884,1,1,-1
3befz6gaec5j18hl2flx89cc,2,126,Lose,No-Go,0,0,,1,0,0
3befz6gaec5j18hl2flx89cc,2,127,Win,No-Go,0,0,,1,0,1
3befz6gaec5j18hl2flx89cc,2,128,Win,Go,1,1,0.774,1,0,1
3befz6gaec5j18hl2flx89cc,2,129,Lose,No-Go,0,0,,1,0,0
3befz6gaec5j18hl2flx89cc,2,130,Win,Go,1,1,0.675,1,0,1
3befz6gaec5j18hl2flx89cc,2,131,Lose,Go,1,1,0.814,1,0,0
3befz6gaec5j18hl2flx89cc,2,132,Win,No-Go,0,0,,1,0,1
3befz6gaec5j18hl2flx89cc,2,133,Lose,No-Go,0,0,,1,0,0
3befz6gaec5j18hl2flx89cc,2,134,Win,Go,1,1,0.654,1,0,1
3befz6gaec5j18hl2flx89cc,2,135,Lose,Go,1,1,0.709,1,0,0
3befz6gaec5j18hl2flx89cc,2,136,Win,No-Go,0,0,,1,0,1
3befz6gaec5j18hl2flx89cc,2,137,Lose,No-Go,0,0,,1,1,-1
3befz6gaec5j18hl2flx89cc,2,138,Win,Go,1,1,0.519,1,0,1
3befz6gaec5j18hl2flx89cc,2,139,Lose,Go,1,1,0.876,1,0,0
3befz6gaec5j18hl2flx89cc,2,140,Win,No-Go,0,0,,1,1,0
3befz6gaec5j18hl2flx89cc,2,141,Win,No-Go,0,0,,1,1,0
3befz6gaec5j18hl2flx89cc,2,142,Lose,Go,1,1,0.703,1,0,0
3befz6gaec5j18hl2flx89cc,2,143,Win,Go,1,1,0.493,1,0,1
3befz6gaec5j18hl2flx89cc,2,144,Lose,No-Go,0,0,,1,0,0
3befz6gaec5j18hl2flx89cc,2,145,Lose,No-Go,0,0,,1,0,0
3befz6gaec5j18hl2flx89cc,2,146,Win,Go,1,1,0.454,1,0,1
3befz6gaec5j18hl2flx89cc,2,147,Lose,Go,1,1,0.861,1,0,0
3befz6gaec5j18hl2flx89cc,2,148,Win,No-Go,0,0,,1,0,1
3befz6gaec5j18hl2flx89cc,2,149,Win,No-Go,0,0,,1,0,1
3befz6gaec5j18hl2flx89cc,2,150,Lose,No-Go,0,0,,1,0,0
3befz6gaec5j18hl2flx89cc,2,151,Lose,Go,1,1,0.742,1,0,0
3befz6gaec5j18hl2flx89cc,2,152,Win,Go,1,1,0.429,1,0,1
3befz6gaec5j18hl2flx89cc,2,153,Win,Go,1,1,0.573,1,0,1
3befz6gaec5j18hl2flx89cc,2,154,Lose,No-Go,0,0,,1,0,0
3befz6gaec5j18hl2flx89cc,2,155,Lose,Go,1,1,0.765,1,0,0
3befz6gaec5j18hl2flx89cc,2,156,Win,No-Go,0,0,,1,0,1
3befz6gaec5j18hl2flx89cc,2,157,Lose,Go,1,1,0.614,1,1,-1
3befz6gaec5j18hl2flx89cc,2,158,Lose,No-Go,0,0,,1,1,-1
3befz6gaec5j18hl2flx89cc,2,159,Win,No-Go,0,0,,1,0,1
3befz6gaec5j18hl2flx89cc,2,160,Win,Go,1,1,0.534,1,1,0
52fjb9sxn5tdxslbebzipfjt,1,1,Win,No-Go,0,1,0.53,0,0,0
52fjb9sxn5tdxslbebzipfjt,1,2,Lose,Go,1,1,0.665,1,0,0
52fjb9sxn5tdxslbebzipfjt,1,3,Lose,No-Go,0,1,0.794,0,0,-1
52fjb9sxn5tdxslbebzipfjt,1,4,Win,Go,1,1,0.732,1,0,1
52fjb9sxn5tdxslbebzipfjt,1,5,Lose,Go,1,1,0.989,1,1,-1
52fjb9sxn5tdxslbebzipfjt,1,6,Lose,No-Go,0,0,,1,0,0
52fjb9sxn5tdxslbebzipfjt,1,7,Win,Go,1,1,0.487,1,0,1
52fjb9sxn5tdxslbebzipfjt,1,8,Win,No-Go,0,1,0.715,0,0,0
52fjb9sxn5tdxslbebzipfjt,1,9,Win,Go,1,1,0.542,1,0,1
52fjb9sxn5tdxslbebzipfjt,1,10,Lose,Go,1,0,,0,0,-1
52fjb9sxn5tdxslbebzipfjt,1,11,Win,No-Go,0,1,0.698,0,0,0
52fjb9sxn5tdxslbebzipfjt,1,12,Lose,No-Go,0,0,,1,0,0
52fjb9sxn5tdxslbebzipfjt,1,13,Win,Go,1,1,0.613,1,0,1
52fjb9sxn5tdxslbebzipfjt,1,14,Win,No-Go,0,1,0.929,0,0,0
52fjb9sxn5tdxslbebzipfjt,1,15,Lose,Go,1,1,1.048,1,0,0
52fjb9sxn5tdxslbebzipfjt,1,16,Lose,No-Go,0,0,,1,1,-1
52fjb9sxn5tdxslbebzipfjt,1,17,Win,Go,1,1,0.504,1,1,0
52fjb9sxn5tdxslbebzipfjt,1,18,Lose,Go,1,1,0.95,1,0,0
52fjb9sxn5tdxslbebzipfjt,1,19,Win,No-Go,0,1,0.983,0,1,1
52fjb9sxn5tdxslbebzipfjt,1,20,Lose,No-Go,0,1,0.799,0,0,-1
52fjb9sxn5tdxslbebzipfjt,1,21,Lose,No-Go,0,0,,1,0,0
52fjb9sxn5tdxslbebzipfjt,1,22,Win,No-Go,0,1,0.645,0,0,0
52fjb9sxn5tdxslbebzipfjt,1,23,Win,Go,1,1,0.548,1,0,1
52fjb9sxn5tdxslbebzipfjt,1,24,Lose,Go,1,1,0.713,1,0,0
52fjb9sxn5tdxslbebzipfjt,1,25,Lose,No-Go,0,0,,1,0,0
52fjb9sxn5tdxslbebzipfjt,1,26,Win,Go,1,1,0.435,1,0,1
52fjb9sxn5tdxslbebzipfjt,1,27,Lose,Go,1,0,,0,0,-1
52fjb9sxn5tdxslbebzipfjt,1,28,Win,No-Go,0,1,0.696,0,0,0
52fjb9sxn5tdxslbebzipfjt,1,29,Lose,Go,1,1,0.57,1,0,0
52fjb9sxn5tdxslbebzipfjt,1,30,Win,No-Go,0,1,0.881,0,1,1
52fjb9sxn5tdxslbebzipfjt,1,31,Win,Go,1,1,0.483,1,1,0
52fjb9sxn5tdxslbebzipfjt,1,32,Lose,No-Go,0,1,1.031,0,0,-1
52fjb9sxn5tdxslbebzipfjt,1,33,Lose,No-Go,0,0,,1,0,0
52fjb9sxn5tdxslbebzipfjt,1,34,Win,No-Go,0,1,0.444,0,0,0
52fjb9sxn5tdxslbebzipfjt,1,35,Win,Go,1,1,0.495,1,0,1
52fjb9sxn5tdxslbebzipfjt,1,36,Lose,Go,1,1,0.373,1,1,-1
52fjb9sxn5tdxslbebzipfjt,1,37,Lose,No-Go,0,0,,1,1,-1
52fjb9sxn5tdxslbebzipfjt,1,38,Lose,Go,1,1,0.758,1,0,0
52fjb9sxn5tdxslbebzipfjt,1,39,Win,Go,1,1,0.46,1,0,1
52fjb9sxn5tdxslbebzipfjt,1,40,Win,No-Go,0,1,0.644,0,0,0
52fjb9sxn5tdxslbebzipfjt,1,41,Lose,Go,1,1,0.551,1,1,-1
52fjb9sxn5tdxslbebzipfjt,1,42,Win,No-Go,0,1,0.524,0,0,0
52fjb9sxn5tdxslbebzipfjt,1,43,Lose,No-Go,0,0,,1,0,0
52fjb9sxn5tdxslbebzipfjt,1,44,Win,Go,1,1,0.458,1,0,1
52fjb9sxn5tdxslbebzipfjt,1,45,Lose,No-Go,0,0,,1,0,0
52fjb9sxn5tdxslbebzipfjt,1,46,Win,No-Go,0,1,0.709,0,1,1
52fjb9sxn5tdxslbebzipfjt,1,47,Lose,Go,1,1,0.97,1,0,0
52fjb9sxn5tdxslbebzipfjt,1,48,Win,Go,1,1,0.471,1,0,1
52fjb9sxn5tdxslbebzipfjt,1,49,Lose,No-Go,0,0,,1,0,0
52fjb9sxn5tdxslbebzipfjt,1,50,Win,Go,1,1,0.511,1,0,1
52fjb9sxn5tdxslbebzipfjt,1,51,Win,No-Go,0,1,0.445,0,0,0
52fjb9sxn5tdxslbebzipfjt,1,52,Lose,Go,1,1,0.425,1,0,0
52fjb9sxn5tdxslbebzipfjt,1,53,Win,No-Go,0,1,0.569,0,0,0
52fjb9sxn5tdxslbebzipfjt,1,54,Lose,Go,1,1,0.619,1,0,0
52fjb9sxn5tdxslbebzipfjt,1,55,Lose,No-Go,0,0,,1,0,0
52fjb9sxn5tdxslbebzipfjt,1,56,Win,Go,1,1,0.395,1,0,1
52fjb9sxn5tdxslbebzipfjt,1,57,Win,Go,1,1,0.425,1,1,0
52fjb9sxn5tdxslbebzipfjt,1,58,Lose,Go,1,1,0.554,1,0,0
52fjb9sxn5tdxslbebzipfjt,1,59,Lose,No-Go,0,0,,1,1,-1
52fjb9sxn5tdxslbebzipfjt,1,60,Win,No-Go,0,1,0.508,0,0,0
52fjb9sxn5tdxslbebzipfjt,1,61,Win,No-Go,0,1,0.569,0,0,0
52fjb9sxn5tdxslbebzipfjt,1,62,Lose,Go,1,1,0.714,1,0,0
52fjb9sxn5tdxslbebzipfjt,1,63,Lose,No-Go,0,0,,1,0,0
52fjb9sxn5tdxslbebzipfjt,1,64,Win,Go,1,1,0.47,1,0,1
52fjb9sxn5tdxslbebzipfjt,1,65,Win,No-Go,0,1,0.468,0,0,0
52fjb9sxn5tdxslbebzipfjt,1,66,Lose,No-Go,0,0,,1,0,0
52fjb9sxn5tdxslbebzipfjt,1,67,Win,Go,1,1,0.442,1,1,0
52fjb9sxn5tdxslbebzipfjt,1,68,Lose,Go,1,1,0.608,1,0,0
52fjb9sxn5tdxslbebzipfjt,1,69,Lose,No-Go,0,0,,1,1,-1
52fjb9sxn5tdxslbebzipfjt,1,70,Lose,Go,1,1,0.718,1,0,0
52fjb9sxn5tdxslbebzipfjt,1,71,Win,Go,1,1,0.471,1,0,1
52fjb9sxn5tdxslbebzipfjt,1,72,Win,No-Go,0,1,0.535,0,0,0
52fjb9sxn5tdxslbebzipfjt,1,73,Win,No-Go,0,1,0.469,0,0,0
52fjb9sxn5tdxslbebzipfjt,1,74,Lose,Go,1,1,0.745,1,1,-1
52fjb9sxn5tdxslbebzipfjt,1,75,Win,Go,1,1,0.446,1,0,1
52fjb9sxn5tdxslbebzipfjt,1,76,Lose,No-Go,0,0,,1,0,0
52fjb9sxn5tdxslbebzipfjt,1,77,Win,No-Go,0,1,0.529,0,1,1
52fjb9sxn5tdxslbebzipfjt,1,78,Win,Go,1,1,0.396,1,0,1
52fjb9sxn5tdxslbebzipfjt,1,79,Lose,No-Go,0,0,,1,0,0
52fjb9sxn5tdxslbebzipfjt,1,80,Lose,Go,1,1,0.808,1,0,0
52fjb9sxn5tdxslbebzipfjt,2,81,Win,Go,1,1,1.172,1,0,1
52fjb9sxn5tdxslbebzipfjt,2,82,Win,No-Go,0,1,0.742,0,0,0
52fjb9sxn5tdxslbebzipfjt,2,83,Lose,No-Go,0,1,0.703,0,0,-1
52fjb9sxn5tdxslbebzipfjt,2,84,Lose,Go,1,1,0.61,1,0,0
52fjb9sxn5tdxslbebzipfjt,2,85,Win,Go,1,1,0.736,1,0,1
52fjb9sxn5tdxslbebzipfjt,2,86,Win,No-Go,0,0,,1,0,1
52fjb9sxn5tdxslbebzipfjt,2,87,Lose,Go,1,0,,0,0,-1
52fjb9sxn5tdxslbebzipfjt,2,88,Lose,No-Go,0,1,1.012,0,0,-1
52fjb9sxn5tdxslbebzipfjt,2,89,Lose,Go,1,1,0.904,1,1,-1
52fjb9sxn5tdxslbebzipfjt,2,90,Win,Go,1,1,0.62,1,1,0
52fjb9sxn5tdxslbebzipfjt,2,91,Win,No-Go,0,0,,1,0,1
52fjb9sxn5tdxslbebzipfjt,2,92,Lose,No-Go,0,0,,1,0,0
52fjb9sxn5tdxslbebzipfjt,2,93,Lose,No-Go,0,0,,1,0,0
52fjb9sxn5tdxslbebzipfjt,2,94,Win,Go,1,1,0.565,1,0,1
52fjb9sxn5tdxslbebzipfjt,2,95,Lose,Go,1,0,,0,0,-1
52fjb9sxn5tdxslbebzipfjt,2,96,Win,No-Go,0,0,,1,1,0
52fjb9sxn5tdxslbebzipfjt,2,97,Lose,No-Go,0,0,,1,1,-1
52fjb9sxn5tdxslbebzipfjt,2,98,Win,Go,1,1,0.501,1,0,1
52fjb9sxn5tdxslbebzipfjt,2,99,Lose,Go,1,0,,0,0,-1
52fjb9sxn5tdxslbebzipfjt,2,100,Win,No-Go,0,0,,1,0,1
52fjb9sxn5tdxslbebzipfjt,2,101,Lose,No-Go,0,0,,1,0,0
52fjb9sxn5tdxslbebzipfjt,2,102,Lose,Go,1,0,,0,0,-1
52fjb9sxn5tdxslbebzipfjt,2,103,Win,Go,1,1,1.176,1,1,0
52fjb9sxn5tdxslbebzipfjt,2,104,Win,No-Go,0,0,,1,1,0
52fjb9sxn5tdxslbebzipfjt,2,105,Lose,Go,1,1,0.92,1,0,0
52fjb9sxn5tdxslbebzipfjt,2,106,Win,Go,1,1,0.56,1,0,1
52fjb9sxn5tdxslbebzipfjt,2,107,Win,No-Go,0,0,,1,0,1
52fjb9sxn5tdxslbebzipfjt,2,108,Lose,No-Go,0,1,1.404,0,0,-1
52fjb9sxn5tdxslbebzipfjt,2,109,Win,No-Go,0,0,,1,0,1
52fjb9sxn5tdxslbebzipfjt,2,110,Lose,No-Go,0,0,,1,0,0
52fjb9sxn5tdxslbebzipfjt,2,111,Win,Go,1,1,0.564,1,0,1
52fjb9sxn5tdxslbebzipfjt,2,112,Lose,Go,1,0,,0,0,-1
52fjb9sxn5tdxslbebzipfjt,2,113,Win,No-Go,0,0,,1,0,1
52fjb9sxn5tdxslbebzipfjt,2,114,Lose,No-Go,0,1,0.778,0,0,-1
52fjb9sxn5tdxslbebzipfjt,2,115,Lose,Go,1,1,0.986,1,1,-1
52fjb9sxn5tdxslbebzipfjt,2,116,Win,Go,1,1,0.478,1,0,1
52fjb9sxn5tdxslbebzipfjt,2,117,Lose,No-Go,0,0,,1,1,-1
52fjb9sxn5tdxslbebzipfjt,2,118,Lose,Go,1,0,,0,0,-1
52fjb9sxn5tdxslbebzipfjt,2,119,Win,No-Go,0,0,,1,0,1
52fjb9sxn5tdxslbebzipfjt,2,120,Win,Go,1,1,0.505,1,0,1
52fjb9sxn5tdxslbebzipfjt,2,121,Win,No-Go,0,0,,1,0,1
52fjb9sxn5tdxslbebzipfjt,2,122,Lose,No-Go,0,1,1.397,0,0,-1
52fjb9sxn5tdxslbebzipfjt,2,123,Lose,Go,1,1,1.373,1,0,0
52fjb9sxn5tdxslbebzipfjt,2,124,Win,Go,1,1,0.532,1,1,0
52fjb9sxn5tdxslbebzipfjt,2,125,Lose,Go,1,0,,0,1,0
52fjb9sxn5tdxslbebzipfjt,2,126,Lose,No-Go,0,0,,1,0,0
52fjb9sxn5tdxslbebzipfjt,2,127,Win,No-Go,0,0,,1,0,1
52fjb9sxn5tdxslbebzipfjt,2,128,Win,Go,1,1,0.502,1,0,1
52fjb9sxn5tdxslbebzipfjt,2,129,Lose,No-Go,0,0,,1,0,0
52fjb9sxn5tdxslbebzipfjt,2,130,Win,Go,1,1,0.746,1,0,1
52fjb9sxn5tdxslbebzipfjt,2,131,Lose,Go,1,1,1.189,1,0,0
52fjb9sxn5tdxslbebzipfjt,2,132,Win,No-Go,0,0,,1,0,1
52fjb9sxn5tdxslbebzipfjt,2,133,Lose,No-Go,0,0,,1,0,0
52fjb9sxn5tdxslbebzipfjt,2,134,Win,Go,1,1,0.546,1,0,1
52fjb9sxn5tdxslbebzipfjt,2,135,Lose,Go,1,1,0.572,1,0,0
52fjb9sxn5tdxslbebzipfjt,2,136,Win,No-Go,0,0,,1,0,1
52fjb9sxn5tdxslbebzipfjt,2,137,Lose,No-Go,0,0,,1,1,-1
52fjb9sxn5tdxslbebzipfjt,2,138,Win,Go,1,1,0.471,1,0,1
52fjb9sxn5tdxslbebzipfjt,2,139,Lose,Go,1,1,0.384,1,0,0
52fjb9sxn5tdxslbebzipfjt,2,140,Win,No-Go,0,0,,1,1,0
52fjb9sxn5tdxslbebzipfjt,2,141,Win,No-Go,0,0,,1,1,0
52fjb9sxn5tdxslbebzipfjt,2,142,Lose,Go,1,1,1.002,1,0,0
52fjb9sxn5tdxslbebzipfjt,2,143,Win,Go,1,1,0.527,1,0,1
52fjb9sxn5tdxslbebzipfjt,2,144,Lose,No-Go,0,0,,1,0,0
52fjb9sxn5tdxslbebzipfjt,2,145,Lose,No-Go,0,0,,1,0,0
52fjb9sxn5tdxslbebzipfjt,2,146,Win,Go,1,1,0.515,1,0,1
52fjb9sxn5tdxslbebzipfjt,2,147,Lose,Go,1,1,0.653,1,0,0
52fjb9sxn5tdxslbebzipfjt,2,148,Win,No-Go,0,0,,1,0,1
52fjb9sxn5tdxslbebzipfjt,2,149,Win,No-Go,0,0,,1,0,1
52fjb9sxn5tdxslbebzipfjt,2,150,Lose,No-Go,0,0,,1,0,0
52fjb9sxn5tdxslbebzipfjt,2,151,Lose,Go,1,1,0.556,1,0,0
52fjb9sxn5tdxslbebzipfjt,2,152,Win,Go,1,1,0.521,1,0,1
52fjb9sxn5tdxslbebzipfjt,2,153,Win,Go,1,1,0.582,1,0,1
52fjb9sxn5tdxslbebzipfjt,2,154,Lose,No-Go,0,0,,1,0,0
52fjb9sxn5tdxslbebzipfjt,2,155,Lose,Go,1,1,0.868,1,0,0
52fjb9sxn5tdxslbebzipfjt,2,156,Win,No-Go,0,0,,1,0,1
52fjb9sxn5tdxslbebzipfjt,2,157,Lose,Go,1,1,0.605,1,1,-1
52fjb9sxn5tdxslbebzipfjt,2,158,Lose,No-Go,0,0,,1,1,-1
52fjb9sxn5tdxslbebzipfjt,2,159,Win,No-Go,0,0,,1,0,1
52fjb9sxn5tdxslbebzipfjt,2,160,Win,Go,1,1,0.454,1,1,0
54fak01q4oxbaqt7lua2unuk,1,1,Win,No-Go,0,1,0.772,0,0,0
54fak01q4oxbaqt7lua2unuk,1,2,Lose,Go,1,0,,0,0,-1
54fak01q4oxbaqt7lua2unuk,1,3,Lose,No-Go,0,1,0.012,0,0,-1
54fak01q4oxbaqt7lua2unuk,1,4,Win,Go,1,0,,0,0,0
54fak01q4oxbaqt7lua2unuk,1,5,Lose,Go,1,0,,0,1,0
54fak01q4oxbaqt7lua2unuk,1,6,Lose,No-Go,0,1,0.676,0,0,-1
54fak01q4oxbaqt7lua2unuk,1,7,Win,Go,1,1,0.511,1,0,1
54fak01q4oxbaqt7lua2unuk,1,8,Win,No-Go,0,1,1.262,0,0,0
54fak01q4oxbaqt7lua2unuk,1,9,Win,Go,1,1,0.543,1,0,1
54fak01q4oxbaqt7lua2unuk,1,10,Lose,Go,1,0,,0,0,-1
54fak01q4oxbaqt7lua2unuk,1,11,Win,No-Go,0,1,0.441,0,0,0
54fak01q4oxbaqt7lua2unuk,1,12,Lose,No-Go,0,0,,1,0,0
54fak01q4oxbaqt7lua2unuk,1,13,Win,Go,1,1,0.49,1,0,1
54fak01q4oxbaqt7lua2unuk,1,14,Win,No-Go,0,0,,1,0,1
54fak01q4oxbaqt7lua2unuk,1,15,Lose,Go,1,0,,0,0,-1
54fak01q4oxbaqt7lua2unuk,1,16,Lose,No-Go,0,0,,1,1,-1
54fak01q4oxbaqt7lua2unuk,1,17,Win,Go,1,1,0.408,1,1,0
54fak01q4oxbaqt7lua2unuk,1,18,Lose,Go,1,1,0.557,1,0,0
54fak01q4oxbaqt7lua2unuk,1,19,Win,No-Go,0,0,,1,1,0
54fak01q4oxbaqt7lua2unuk,1,20,Lose,No-Go,0,1,1.456,0,0,-1
54fak01q4oxbaqt7lua2unuk,1,21,Lose,No-Go,0,1,0.634,0,0,-1
54fak01q4oxbaqt7lua2unuk,1,22,Win,No-Go,0,1,0.386,0,0,0
54fak01q4oxbaqt7lua2unuk,1,23,Win,Go,1,1,0.366,1,0,1
54fak01q4oxbaqt7lua2unuk,1,24,Lose,Go,1,0,,0,0,-1
54fak01q4oxbaqt7lua2unuk,1,25,Lose,No-Go,0,1,0.365,0,0,-1
54fak01q4oxbaqt7lua2unuk,1,26,Win,Go,1,1,0.502,1,0,1
54fak01q4oxbaqt7lua2unuk,1,27,Lose,Go,1,0,,0,0,-1
54fak01q4oxbaqt7lua2unuk,1,28,Win,No-Go,0,0,,1,0,1
54fak01q4oxbaqt7lua2unuk,1,29,Lose,Go,1,0,,0,0,-1
54fak01q4oxbaqt7lua2unuk,1,30,Win,No-Go,0,1,1.33,0,1,1
54fak01q4oxbaqt7lua2unuk,1,31,Win,Go,1,1,0.522,1,1,0
54fak01q4oxbaqt7lua2unuk,1,32,Lose,No-Go,0,1,0.64,0,0,-1
54fak01q4oxbaqt7lua2unuk,1,33,Lose,No-Go,0,0,,1,0,0
54fak01q4oxbaqt7lua2unuk,1,34,Win,No-Go,0,1,0.024,0,0,0
54fak01q4oxbaqt7lua2unuk,1,35,Win,Go,1,0,,0,0,0
54fak01q4oxbaqt7lua2unuk,1,36,Lose,Go,1,0,,0,1,0
54fak01q4oxbaqt7lua2unuk,1,37,Lose,No-Go,0,1,0.578,0,1,0
54fak01q4oxbaqt7lua2unuk,1,38,Lose,Go,1,1,0.514,1,0,0
54fak01q4oxbaqt7lua2unuk,1,39,Win,Go,1,1,0.312,1,0,1
54fak01q4oxbaqt7lua2unuk,1,40,Win,No-Go,0,0,,1,0,1
54fak01q4oxbaqt7lua2unuk,1,41,Lose,Go,1,0,,0,1,0
54fak01q4oxbaqt7lua2unuk,1,42,Win,No-Go,0,1,0.033,0,0,0
54fak01q4oxbaqt7lua2unuk,1,43,Lose,No-Go,0,0,,1,0,0
54fak01q4oxbaqt7lua2unuk,1,44,Win,Go,1,0,,0,0,0
54fak01q4oxbaqt7lua2unuk,1,45,Lose,No-Go,0,0,,1,0,0
54fak01q4oxbaqt7lua2unuk,1,46,Win,No-Go,0,0,,1,1,0
54fak01q4oxbaqt7lua2unuk,1,47,Lose,Go,1,1,0.568,1,0,0
54fak01q4oxbaqt7lua2unuk,1,48,Win,Go,1,1,0.456,1,0,1
54fak01q4oxbaqt7lua2unuk,1,49,Lose,No-Go,0,0,,1,0,0
54fak01q4oxbaqt7lua2unuk,1,50,Win,Go,1,1,0.388,1,0,1
54fak01q4oxbaqt7lua2unuk,1,51,Win,No-Go,0,1,0.868,0,0,0
54fak01q4oxbaqt7lua2unuk,1,52,Lose,Go,1,0,,0,0,-1
54fak01q4oxbaqt7lua2unuk,1,53,Win,No-Go,0,0,,1,0,1
54fak01q4oxbaqt7lua2unuk,1,54,Lose,Go,1,1,0.134,1,0,0
54fak01q4oxbaqt7lua2unuk,1,55,Lose,No-Go,0,0,,1,0,0
54fak01q4oxbaqt7lua2unuk,1,56,Win,Go,1,1,0.259,1,0,1
54fak01q4oxbaqt7lua2unuk,1,57,Win,Go,1,1,0.095,1,1,0
54fak01q4oxbaqt7lua2unuk,1,58,Lose,Go,1,0,,0,0,-1
54fak01q4oxbaqt7lua2unuk,1,59,Lose,No-Go,0,0,,1,1,-1
54fak01q4oxbaqt7lua2unuk,1,60,Win,No-Go,0,0,,1,0,1
54fak01q4oxbaqt7lua2unuk,1,61,Win,No-Go,0,1,1.401,0,0,0
54fak01q4oxbaqt7lua2unuk,1,62,Lose,Go,1,0,,0,0,-1
54fak01q4oxbaqt7lua2unuk,1,63,Lose,No-Go,0,1,0.809,0,0,-1
54fak01q4oxbaqt7lua2unuk,1,64,Win,Go,1,0,,0,0,0
54fak01q4oxbaqt7lua2unuk,1,65,Win,No-Go,0,1,0.597,0,0,0
54fak01q4oxbaqt7lua2unuk,1,66,Lose,No-Go,0,0,,1,0,0
54fak01q4oxbaqt7lua2unuk,1,67,Win,Go,1,0,,0,1,1
54fak01q4oxbaqt7lua2unuk,1,68,Lose,Go,1,0,,0,0,-1
54fak01q4oxbaqt7lua2unuk,1,69,Lose,No-Go,0,0,,1,1,-1
54fak01q4oxbaqt7lua2unuk,1,70,Lose,Go,1,1,0.471,1,0,0
54fak01q4oxbaqt7lua2unuk,1,71,Win,Go,1,1,0.377,1,0,1
54fak01q4oxbaqt7lua2unuk,1,72,Win,No-Go,0,1,0.439,0,0,0
54fak01q4oxbaqt7lua2unuk,1,73,Win,No-Go,0,1,0.403,0,0,0
54fak01q4oxbaqt7lua2unuk,1,74,Lose,Go,1,0,,0,1,0
54fak01q4oxbaqt7lua2unuk,1,75,Win,Go,1,1,0.223,1,0,1
54fak01q4oxbaqt7lua2unuk,1,76,Lose,No-Go,0,0,,1,0,0
54fak01q4oxbaqt7lua2unuk,1,77,Win,No-Go,0,0,,1,1,0
54fak01q4oxbaqt7lua2unuk,1,78,Win,Go,1,1,0.421,1,0,1
54fak01q4oxbaqt7lua2unuk,1,79,Lose,No-Go,0,0,,1,0,0
54fak01q4oxbaqt7lua2unuk,1,80,Lose,Go,1,0,,0,0,-1
54fak01q4oxbaqt7lua2unuk,2,81,Win,Go,1,0,,0,0,0
54fak01q4oxbaqt7lua2unuk,2,82,Win,No-Go,0,1,0.321,0,0,0
54fak01q4oxbaqt7lua2unuk,2,83,Lose,No-Go,0,0,,1,0,0
54fak01q4oxbaqt7lua2unuk,2,84,Lose,Go,1,0,,0,0,-1
54fak01q4oxbaqt7lua2unuk,2,85,Win,Go,1,1,0.498,1,0,1
54fak01q4oxbaqt7lua2unuk,2,86,Win,No-Go,0,1,0.393,0,0,0
54fak01q4oxbaqt7lua2unuk,2,87,Lose,Go,1,0,,0,0,-1
54fak01q4oxbaqt7lua2unuk,2,88,Lose,No-Go,0,0,,1,0,0
54fak01q4oxbaqt7lua2unuk,2,89,Lose,Go,1,1,0.028,1,1,-1
54fak01q4oxbaqt7lua2unuk,2,90,Win,Go,1,1,0.169,1,1,0
54fak01q4oxbaqt7lua2unuk,2,91,Win,No-Go,0,1,0.406,0,0,0
54fak01q4oxbaqt7lua2unuk,2,92,Lose,No-Go,0,0,,1,0,0
54fak01q4oxbaqt7lua2unuk,2,93,Lose,No-Go,0,1,0.252,0,0,-1
54fak01q4oxbaqt7lua2unuk,2,94,Win,Go,1,1,0.472,1,0,1
54fak01q4oxbaqt7lua2unuk,2,95,Lose,Go,1,0,,0,0,-1
54fak01q4oxbaqt7lua2unuk,2,96,Win,No-Go,0,1,0.831,0,1,1
54fak01q4oxbaqt7lua2unuk,2,97,Lose,No-Go,0,0,,1,1,-1
54fak01q4oxbaqt7lua2unuk,2,98,Win,Go,1,1,0.373,1,0,1
54fak01q4oxbaqt7lua2unuk,2,99,Lose,Go,1,0,,0,0,-1
54fak01q4oxbaqt7lua2unuk,2,100,Win,No-Go,0,1,0.375,0,0,0
54fak01q4oxbaqt7lua2unuk,2,101,Lose,No-Go,0,0,,1,0,0
54fak01q4oxbaqt7lua2unuk,2,102,Lose,Go,1,0,,0,0,-1
54fak01q4oxbaqt7lua2unuk,2,103,Win,Go,1,1,0.458,1,1,0
54fak01q4oxbaqt7lua2unuk,2,104,Win,No-Go,0,1,0.886,0,1,1
54fak01q4oxbaqt7lua2unuk,2,105,Lose,Go,1,0,,0,0,-1
54fak01q4oxbaqt7lua2unuk,2,106,Win,Go,1,1,0.35,1,0,1
54fak01q4oxbaqt7lua2unuk,2,107,Win,No-Go,0,1,0.328,0,0,0
54fak01q4oxbaqt7lua2unuk,2,108,Lose,No-Go,0,0,,1,0,0
54fak01q4oxbaqt7lua2unuk,2,109,Win,No-Go,0,1,0.352,0,0,0
54fak01q4oxbaqt7lua2unuk,2,110,Lose,No-Go,0,0,,1,0,0
54fak01q4oxbaqt7lua2unuk,2,111,Win,Go,1,1,0.262,1,0,1
54fak01q4oxbaqt7lua2unuk,2,112,Lose,Go,1,0,,0,0,-1
54fak01q4oxbaqt7lua2unuk,2,113,Win,No-Go,0,1,0.381,0,0,0
54fak01q4oxbaqt7lua2unuk,2,114,Lose,No-Go,0,0,,1,0,0
54fak01q4oxbaqt7lua2unuk,2,115,Lose,Go,1,0,,0,1,0
54fak01q4oxbaqt7lua2unuk,2,116,Win,Go,1,1,0.811,1,0,1
54fak01q4oxbaqt7lua2unuk,2,117,Lose,No-Go,0,0,,1,1,-1
54fak01q4oxbaqt7lua2unuk,2,118,Lose,Go,1,0,,0,0,-1
54fak01q4oxbaqt7lua2unuk,2,119,Win,No-Go,0,1,0.371,0,0,0
54fak01q4oxbaqt7lua2unuk,2,120,Win,Go,1,1,0.888,1,0,1
54fak01q4oxbaqt7lua2unuk,2,121,Win,No-Go,0,1,0.614,0,0,0
54fak01q4oxbaqt7lua2unuk,2,122,Lose,No-Go,0,0,,1,0,0
54fak01q4oxbaqt7lua2unuk,2,123,Lose,Go,1,0,,0,0,-1
54fak01q4oxbaqt7lua2unuk,2,124,Win,Go,1,1,0.336,1,1,0
54fak01q4oxbaqt7lua2unuk,2,125,Lose,Go,1,0,,0,1,0
54fak01q4oxbaqt7lua2unuk,2,126,Lose,No-Go,0,1,0.1,0,0,-1
54fak01q4oxbaqt7lua2unuk,2,127,Win,No-Go,0,1,0.401,0,0,0
54fak01q4oxbaqt7lua2unuk,2,128,Win,Go,1,1,0.645,1,0,1
54fak01q4oxbaqt7lua2unuk,2,129,Lose,No-Go,0,0,,1,0,0
54fak01q4oxbaqt7lua2unuk,2,130,Win,Go,1,1,0.259,1,0,1
54fak01q4oxbaqt7lua2unuk,2,131,Lose,Go,1,0,,0,0,-1
54fak01q4oxbaqt7lua2unuk,2,132,Win,No-Go,0,1,0.375,0,0,0
54fak01q4oxbaqt7lua2unuk,2,133,Lose,No-Go,0,0,,1,0,0
54fak01q4oxbaqt7lua2unuk,2,134,Win,Go,1,1,0.316,1,0,1
54fak01q4oxbaqt7lua2unuk,2,135,Lose,Go,1,0,,0,0,-1
54fak01q4oxbaqt7lua2unuk,2,136,Win,No-Go,0,1,0.409,0,0,0
54fak01q4oxbaqt7lua2unuk,2,137,Lose,No-Go,0,0,,1,1,-1
54fak01q4oxbaqt7lua2unuk,2,138,Win,Go,1,1,0.696,1,0,1
54fak01q4oxbaqt7lua2unuk,2,139,Lose,Go,1,0,,0,0,-1
54fak01q4oxbaqt7lua2unuk,2,140,Win,No-Go,0,1,0.723,0,1,1
54fak01q4oxbaqt7lua2unuk,2,141,Win,No-Go,0,1,0.445,0,1,1
54fak01q4oxbaqt7lua2unuk,2,142,Lose,Go,1,0,,0,0,-1
54fak01q4oxbaqt7lua2unuk,2,143,Win,Go,1,1,0.627,1,0,1
54fak01q4oxbaqt7lua2unuk,2,144,Lose,No-Go,0,0,,1,0,0
54fak01q4oxbaqt7lua2unuk,2,145,Lose,No-Go,0,0,,1,0,0
54fak01q4oxbaqt7lua2unuk,2,146,Win,Go,1,1,0.287,1,0,1
54fak01q4oxbaqt7lua2unuk,2,147,Lose,Go,1,0,,0,0,-1
54fak01q4oxbaqt7lua2unuk,2,148,Win,No-Go,0,1,0.811,0,0,0
54fak01q4oxbaqt7lua2unuk,2,149,Win,No-Go,0,1,0.715,0,0,0
54fak01q4oxbaqt7lua2unuk,2,150,Lose,No-Go,0,0,,1,0,0
54fak01q4oxbaqt7lua2unuk,2,151,Lose,Go,1,0,,0,0,-1
54fak01q4oxbaqt7lua2unuk,2,152,Win,Go,1,1,0.283,1,0,1
54fak01q4oxbaqt7lua2unuk,2,153,Win,Go,1,1,0.566,1,0,1
54fak01q4oxbaqt7lua2unuk,2,154,Lose,No-Go,0,0,,1,0,0
54fak01q4oxbaqt7lua2unuk,2,155,Lose,Go,1,0,,0,0,-1
54fak01q4oxbaqt7lua2unuk,2,156,Win,No-Go,0,1,0.56,0,0,0
54fak01q4oxbaqt7lua2unuk,2,157,Lose,Go,1,0,,0,1,0
54fak01q4oxbaqt7lua2unuk,2,158,Lose,No-Go,0,0,,1,1,-1
54fak01q4oxbaqt7lua2unuk,2,159,Win,No-Go,0,1,0.568,0,0,0
54fak01q4oxbaqt7lua2unuk,2,160,Win,Go,1,1,0.729,1,1,0
56zh5ndoykipsdz93cun3h2o,1,1,Win,No-Go,0,0,,1,0,1
56zh5ndoykipsdz93cun3h2o,1,2,Lose,Go,1,0,,0,0,-1
56zh5ndoykipsdz93cun3h2o,1,3,Lose,No-Go,0,1,1.499,0,0,-1
56zh5ndoykipsdz93cun3h2o,1,4,Win,Go,1,1,1.011,1,0,1
56zh5ndoykipsdz93cun3h2o,1,5,Lose,Go,1,0,,0,1,0
56zh5ndoykipsdz93cun3h2o,1,6,Lose,No-Go,0,0,,1,0,0
56zh5ndoykipsdz93cun3h2o,1,7,Win,Go,1,1,0.531,1,0,1
56zh5ndoykipsdz93cun3h2o,1,8,Win,No-Go,0,1,0.902,0,0,0
56zh5ndoykipsdz93cun3h2o,1,9,Win,Go,1,1,0.79,1,0,1
56zh5ndoykipsdz93cun3h2o,1,10,Lose,Go,1,0,,0,0,-1
56zh5ndoykipsdz93cun3h2o,1,11,Win,No-Go,0,1,0.789,0,0,0
56zh5ndoykipsdz93cun3h2o,1,12,Lose,No-Go,0,0,,1,0,0
56zh5ndoykipsdz93cun3h2o,1,13,Win,Go,1,1,0.755,1,0,1
56zh5ndoykipsdz93cun3h2o,1,14,Win,No-Go,0,1,0.886,0,0,0
56zh5ndoykipsdz93cun3h2o,1,15,Lose,Go,1,1,0.839,1,0,0
56zh5ndoykipsdz93cun3h2o,1,16,Lose,No-Go,0,0,,1,1,-1
56zh5ndoykipsdz93cun3h2o,1,17,Win,Go,1,1,0.701,1,1,0
56zh5ndoykipsdz93cun3h2o,1,18,Lose,Go,1,0,,0,0,-1
56zh5ndoykipsdz93cun3h2o,1,19,Win,No-Go,0,1,0.975,0,1,1
56zh5ndoykipsdz93cun3h2o,1,20,Lose,No-Go,0,1,0.753,0,0,-1
56zh5ndoykipsdz93cun3h2o,1,21,Lose,No-Go,0,1,0.996,0,0,-1
56zh5ndoykipsdz93cun3h2o,1,22,Win,No-Go,0,1,0.629,0,0,0
56zh5ndoykipsdz93cun3h2o,1,23,Win,Go,1,1,0.572,1,0,1
56zh5ndoykipsdz93cun3h2o,1,24,Lose,Go,1,1,0.879,1,0,0
56zh5ndoykipsdz93cun3h2o,1,25,Lose,No-Go,0,0,,1,0,0
56zh5ndoykipsdz93cun3h2o,1,26,Win,Go,1,1,0.702,1,0,1
56zh5ndoykipsdz93cun3h2o,1,27,Lose,Go,1,1,1.185,1,0,0
56zh5ndoykipsdz93cun3h2o,1,28,Win,No-Go,0,0,,1,0,1
56zh5ndoykipsdz93cun3h2o,1,29,Lose,Go,1,1,1.022,1,0,0
56zh5ndoykipsdz93cun3h2o,1,30,Win,No-Go,0,0,,1,1,0
56zh5ndoykipsdz93cun3h2o,1,31,Win,Go,1,1,0.568,1,1,0
56zh5ndoykipsdz93cun3h2o,1,32,Lose,No-Go,0,0,,1,0,0
56zh5ndoykipsdz93cun3h2o,1,33,Lose,No-Go,0,0,,1,0,0
56zh5ndoykipsdz93cun3h2o,1,34,Win,No-Go,0,1,0.912,0,0,0
56zh5ndoykipsdz93cun3h2o,1,35,Win,Go,1,1,1.093,1,0,1
56zh5ndoykipsdz93cun3h2o,1,36,Lose,Go,1,0,,0,1,0
56zh5ndoykipsdz93cun3h2o,1,37,Lose,No-Go,0,0,,1,1,-1
56zh5ndoykipsdz93cun3h2o,1,38,Lose,Go,1,0,,0,0,-1
56zh5ndoykipsdz93cun3h2o,1,39,Win,Go,1,1,0.635,1,0,1
56zh5ndoykipsdz93cun3h2o,1,40,Win,No-Go,0,1,0.911,0,0,0
56zh5ndoykipsdz93cun3h2o,1,41,Lose,Go,1,1,1.278,1,1,-1
56zh5ndoykipsdz93cun3h2o,1,42,Win,No-Go,0,0,,1,0,1
56zh5ndoykipsdz93cun3h2o,1,43,Lose,No-Go,0,0,,1,0,0
56zh5ndoykipsdz93cun3h2o,1,44,Win,Go,1,0,,0,0,0
56zh5ndoykipsdz93cun3h2o,1,45,Lose,No-Go,0,1,0.797,0,0,-1
56zh5ndoykipsdz93cun3h2o,1,46,Win,No-Go,0,1,0.755,0,1,1
56zh5ndoykipsdz93cun3h2o,1,47,Lose,Go,1,1,1.216,1,0,0
56zh5ndoykipsdz93cun3h2o,1,48,Win,Go,1,1,0.478,1,0,1
56zh5ndoykipsdz93cun3h2o,1,49,Lose,No-Go,0,0,,1,0,0
56zh5ndoykipsdz93cun3h2o,1,50,Win,Go,1,1,0.454,1,0,1
56zh5ndoykipsdz93cun3h2o,1,51,Win,No-Go,0,1,0.562,0,0,0
56zh5ndoykipsdz93cun3h2o,1,52,Lose,Go,1,1,1.027,1,0,0
56zh5ndoykipsdz93cun3h2o,1,53,Win,No-Go,0,1,0.716,0,0,0
56zh5ndoykipsdz93cun3h2o,1,54,Lose,Go,1,1,0.84,1,0,0
56zh5ndoykipsdz93cun3h2o,1,55,Lose,No-Go,0,0,,1,0,0
56zh5ndoykipsdz93cun3h2o,1,56,Win,Go,1,1,0.57,1,0,1
56zh5ndoykipsdz93cun3h2o,1,57,Win,Go,1,1,0.415,1,1,0
56zh5ndoykipsdz93cun3h2o,1,58,Lose,Go,1,1,0.634,1,0,0
56zh5ndoykipsdz93cun3h2o,1,59,Lose,No-Go,0,0,,1,1,-1
56zh5ndoykipsdz93cun3h2o,1,60,Win,No-Go,0,1,0.807,0,0,0
56zh5ndoykipsdz93cun3h2o,1,61,Win,No-Go,0,0,,1,0,1
56zh5ndoykipsdz93cun3h2o,1,62,Lose,Go,1,0,,0,0,-1
56zh5ndoykipsdz93cun3h2o,1,63,Lose,No-Go,0,0,,1,0,0
56zh5ndoykipsdz93cun3h2o,1,64,Win,Go,1,1,0.521,1,0,1
56zh5ndoykipsdz93cun3h2o,1,65,Win,No-Go,0,0,,1,0,1
56zh5ndoykipsdz93cun3h2o,1,66,Lose,No-Go,0,1,0.941,0,0,-1
56zh5ndoykipsdz93cun3h2o,1,67,Win,Go,1,1,0.566,1,1,0
56zh5ndoykipsdz93cun3h2o,1,68,Lose,Go,1,0,,0,0,-1
56zh5ndoykipsdz93cun3h2o,1,69,Lose,No-Go,0,1,0.855,0,1,0
56zh5ndoykipsdz93cun3h2o,1,70,Lose,Go,1,0,,0,0,-1
56zh5ndoykipsdz93cun3h2o,1,71,Win,Go,1,1,0.441,1,0,1
56zh5ndoykipsdz93cun3h2o,1,72,Win,No-Go,0,1,0.694,0,0,0
56zh5ndoykipsdz93cun3h2o,1,73,Win,No-Go,0,1,0.421,0,0,0
56zh5ndoykipsdz93cun3h2o,1,74,Lose,Go,1,1,0.718,1,1,-1
56zh5ndoykipsdz93cun3h2o,1,75,Win,Go,1,1,0.456,1,0,1
56zh5ndoykipsdz93cun3h2o,1,76,Lose,No-Go,0,0,,1,0,0
56zh5ndoykipsdz93cun3h2o,1,77,Win,No-Go,0,0,,1,1,0
56zh5ndoykipsdz93cun3h2o,1,78,Win,Go,1,1,0.792,1,0,1
56zh5ndoykipsdz93cun3h2o,1,79,Lose,No-Go,0,0,,1,0,0
56zh5ndoykipsdz93cun3h2o,1,80,Lose,Go,1,1,0.746,1,0,0
56zh5ndoykipsdz93cun3h2o,2,81,Win,Go,1,1,0.659,1,0,1
56zh5ndoykipsdz93cun3h2o,2,82,Win,No-Go,0,0,,1,0,1
56zh5ndoykipsdz93cun3h2o,2,83,Lose,No-Go,0,1,0.665,0,0,-1
56zh5ndoykipsdz93cun3h2o,2,84,Lose,Go,1,0,,0,0,-1
56zh5ndoykipsdz93cun3h2o,2,85,Win,Go,1,1,0.858,1,0,1
56zh5ndoykipsdz93cun3h2o,2,86,Win,No-Go,0,0,,1,0,1
56zh5ndoykipsdz93cun3h2o,2,87,Lose,Go,1,0,,0,0,-1
56zh5ndoykipsdz93cun3h2o,2,88,Lose,No-Go,0,0,,1,0,0
56zh5ndoykipsdz93cun3h2o,2,89,Lose,Go,1,0,,0,1,0
56zh5ndoykipsdz93cun3h2o,2,90,Win,Go,1,1,0.557,1,1,0
56zh5ndoykipsdz93cun3h2o,2,91,Win,No-Go,0,0,,1,0,1
56zh5ndoykipsdz93cun3h2o,2,92,Lose,No-Go,0,1,0.989,0,0,-1
56zh5ndoykipsdz93cun3h2o,2,93,Lose,No-Go,0,1,0.957,0,0,-1
56zh5ndoykipsdz93cun3h2o,2,94,Win,Go,1,1,1.339,1,0,1
56zh5ndoykipsdz93cun3h2o,2,95,Lose,Go,1,1,0.995,1,0,0
56zh5ndoykipsdz93cun3h2o,2,96,Win,No-Go,0,1,1.056,0,1,1
56zh5ndoykipsdz93cun3h2o,2,97,Lose,No-Go,0,1,1.118,0,1,0
56zh5ndoykipsdz93cun3h2o,2,98,Win,Go,1,1,0.965,1,0,1
56zh5ndoykipsdz93cun3h2o,2,99,Lose,Go,1,1,0.694,1,0,0
56zh5ndoykipsdz93cun3h2o,2,100,Win,No-Go,0,1,0.757,0,0,0
56zh5ndoykipsdz93cun3h2o,2,101,Lose,No-Go,0,1,0.939,0,0,-1
56zh5ndoykipsdz93cun3h2o,2,102,Lose,Go,1,0,,0,0,-1
56zh5ndoykipsdz93cun3h2o,2,103,Win,Go,1,1,0.533,1,1,0
56zh5ndoykipsdz93cun3h2o,2,104,Win,No-Go,0,1,1.253,0,1,1
56zh5ndoykipsdz93cun3h2o,2,105,Lose,Go,1,1,0.849,1,0,0
56zh5ndoykipsdz93cun3h2o,2,106,Win,Go,1,1,0.508,1,0,1
56zh5ndoykipsdz93cun3h2o,2,107,Win,No-Go,0,0,,1,0,1
56zh5ndoykipsdz93cun3h2o,2,108,Lose,No-Go,0,0,,1,0,0
56zh5ndoykipsdz93cun3h2o,2,109,Win,No-Go,0,0,,1,0,1
56zh5ndoykipsdz93cun3h2o,2,110,Lose,No-Go,0,0,,1,0,0
56zh5ndoykipsdz93cun3h2o,2,111,Win,Go,1,1,1.178,1,0,1
56zh5ndoykipsdz93cun3h2o,2,112,Lose,Go,1,1,1.415,1,0,0
56zh5ndoykipsdz93cun3h2o,2,113,Win,No-Go,0,0,,1,0,1
56zh5ndoykipsdz93cun3h2o,2,114,Lose,No-Go,0,0,,1,0,0
56zh5ndoykipsdz93cun3h2o,2,115,Lose,Go,1,0,,0,1,0
56zh5ndoykipsdz93cun3h2o,2,116,Win,Go,1,1,0.494,1,0,1
56zh5ndoykipsdz93cun3h2o,2,117,Lose,No-Go,0,0,,1,1,-1
56zh5ndoykipsdz93cun3h2o,2,118,Lose,Go,1,0,,0,0,-1
56zh5ndoykipsdz93cun3h2o,2,119,Win,No-Go,0,0,,1,0,1
56zh5ndoykipsdz93cun3h2o,2,120,Win,Go,1,0,,0,0,0
56zh5ndoykipsdz93cun3h2o,2,121,Win,No-Go,0,0,,1,0,1
56zh5ndoykipsdz93cun3h2o,2,122,Lose,No-Go,0,0,,1,0,0
56zh5ndoykipsdz93cun3h2o,2,123,Lose,Go,1,1,1.199,1,0,0
56zh5ndoykipsdz93cun3h2o,2,124,Win,Go,1,1,0.939,1,1,0
56zh5ndoykipsdz93cun3h2o,2,125,Lose,Go,1,0,,0,1,0
56zh5ndoykipsdz93cun3h2o,2,126,Lose,No-Go,0,1,0.97,0,0,-1
56zh5ndoykipsdz93cun3h2o,2,127,Win,No-Go,0,0,,1,0,1
56zh5ndoykipsdz93cun3h2o,2,128,Win,Go,1,1,1.314,1,0,1
56zh5ndoykipsdz93cun3h2o,2,129,Lose,No-Go,0,1,1.376,0,0,-1
56zh5ndoykipsdz93cun3h2o,2,130,Win,Go,1,1,0.55,1,0,1
56zh5ndoykipsdz93cun3h2o,2,131,Lose,Go,1,1,1.119,1,0,0
56zh5ndoykipsdz93cun3h2o,2,132,Win,No-Go,0,0,,1,0,1
56zh5ndoykipsdz93cun3h2o,2,133,Lose,No-Go,0,1,1.239,0,0,-1
56zh5ndoykipsdz93cun3h2o,2,134,Win,Go,1,0,,0,0,0
56zh5ndoykipsdz93cun3h2o,2,135,Lose,Go,1,1,1.205,1,0,0
56zh5ndoykipsdz93cun3h2o,2,136,Win,No-Go,0,0,,1,0,1
56zh5ndoykipsdz93cun3h2o,2,137,Lose,No-Go,0,1,0.821,0,1,0
56zh5ndoykipsdz93cun3h2o,2,138,Win,Go,1,1,0.753,1,0,1
56zh5ndoykipsdz93cun3h2o,2,139,Lose,Go,1,0,,0,0,-1
56zh5ndoykipsdz93cun3h2o,2,140,Win,No-Go,0,0,,1,1,0
56zh5ndoykipsdz93cun3h2o,2,141,Win,No-Go,0,0,,1,1,0
56zh5ndoykipsdz93cun3h2o,2,142,Lose,Go,1,1,1.206,1,0,0
56zh5ndoykipsdz93cun3h2o,2,143,Win,Go,1,1,1.004,1,0,1
56zh5ndoykipsdz93cun3h2o,2,144,Lose,No-Go,0,0,,1,0,0
56zh5ndoykipsdz93cun3h2o,2,145,Lose,No-Go,0,1,1.233,0,0,-1
56zh5ndoykipsdz93cun3h2o,2,146,Win,Go,1,1,0.616,1,0,1
56zh5ndoykipsdz93cun3h2o,2,147,Lose,Go,1,1,0.957,1,0,0
56zh5ndoykipsdz93cun3h2o,2,148,Win,No-Go,0,0,,1,0,1
56zh5ndoykipsdz93cun3h2o,2,149,Win,No-Go,0,0,,1,0,1
56zh5ndoykipsdz93cun3h2o,2,150,Lose,No-Go,0,1,0.589,0,0,-1
56zh5ndoykipsdz93cun3h2o,2,151,Lose,Go,1,1,0.595,1,0,0
56zh5ndoykipsdz93cun3h2o,2,152,Win,Go,1,1,0.495,1,0,1
56zh5ndoykipsdz93cun3h2o,2,153,Win,Go,1,1,0.442,1,0,1
56zh5ndoykipsdz93cun3h2o,2,154,Lose,No-Go,0,1,0.896,0,0,-1
56zh5ndoykipsdz93cun3h2o,2,155,Lose,Go,1,1,0.9,1,0,0
56zh5ndoykipsdz93cun3h2o,2,156,Win,No-Go,0,0,,1,0,1
56zh5ndoykipsdz93cun3h2o,2,157,Lose,Go,1,1,0.542,1,1,-1
56zh5ndoykipsdz93cun3h2o,2,158,Lose,No-Go,0,1,0.555,0,1,0
56zh5ndoykipsdz93cun3h2o,2,159,Win,No-Go,0,0,,1,0,1
56zh5ndoykipsdz93cun3h2o,2,160,Win,Go,1,1,0.913,1,1,0
5m4wtrggf87lvhab5194a437,1,1,Win,No-Go,0,1,1.081,0,0,0
5m4wtrggf87lvhab5194a437,1,2,Lose,Go,1,0,,0,0,-1
5m4wtrggf87lvhab5194a437,1,3,Lose,No-Go,0,1,0.896,0,0,-1
5m4wtrggf87lvhab5194a437,1,4,Win,Go,1,1,0.647,1,0,1
5m4wtrggf87lvhab5194a437,1,5,Lose,Go,1,0,,0,1,0
5m4wtrggf87lvhab5194a437,1,6,Lose,No-Go,0,0,,1,0,0
5m4wtrggf87lvhab5194a437,1,7,Win,Go,1,1,0.432,1,0,1
5m4wtrggf87lvhab5194a437,1,8,Win,No-Go,0,1,0.614,0,0,0
5m4wtrggf87lvhab5194a437,1,9,Win,Go,1,1,0.497,1,0,1
5m4wtrggf87lvhab5194a437,1,10,Lose,Go,1,0,,0,0,-1
5m4wtrggf87lvhab5194a437,1,11,Win,No-Go,0,1,0.486,0,0,0
5m4wtrggf87lvhab5194a437,1,12,Lose,No-Go,0,0,,1,0,0
5m4wtrggf87lvhab5194a437,1,13,Win,Go,1,1,0.488,1,0,1
5m4wtrggf87lvhab5194a437,1,14,Win,No-Go,0,1,0.697,0,0,0
5m4wtrggf87lvhab5194a437,1,15,Lose,Go,1,0,,0,0,-1
5m4wtrggf87lvhab5194a437,1,16,Lose,No-Go,0,0,,1,1,-1
5m4wtrggf87lvhab5194a437,1,17,Win,Go,1,1,0.477,1,1,0
5m4wtrggf87lvhab5194a437,1,18,Lose,Go,1,1,0.744,1,0,0
5m4wtrggf87lvhab5194a437,1,19,Win,No-Go,0,1,0.532,0,1,1
5m4wtrggf87lvhab5194a437,1,20,Lose,No-Go,0,1,1.113,0,0,-1
5m4wtrggf87lvhab5194a437,1,21,Lose,No-Go,0,0,,1,0,0
5m4wtrggf87lvhab5194a437,1,22,Win,No-Go,0,1,0.476,0,0,0
5m4wtrggf87lvhab5194a437,1,23,Win,Go,1,1,0.601,1,0,1
5m4wtrggf87lvhab5194a437,1,24,Lose,Go,1,1,0.473,1,0,0
5m4wtrggf87lvhab5194a437,1,25,Lose,No-Go,0,1,0.952,0,0,-1
5m4wtrggf87lvhab5194a437,1,26,Win,Go,1,1,0.536,1,0,1
5m4wtrggf87lvhab5194a437,1,27,Lose,Go,1,1,0.589,1,0,0
5m4wtrggf87lvhab5194a437,1,28,Win,No-Go,0,1,0.599,0,0,0
5m4wtrggf87lvhab5194a437,1,29,Lose,Go,1,1,0.745,1,0,0
5m4wtrggf87lvhab5194a437,1,30,Win,No-Go,0,1,0.593,0,1,1
5m4wtrggf87lvhab5194a437,1,31,Win,Go,1,1,0.527,1,1,0
5m4wtrggf87lvhab5194a437,1,32,Lose,No-Go,0,0,,1,0,0
5m4wtrggf87lvhab5194a437,1,33,Lose,No-Go,0,0,,1,0,0
5m4wtrggf87lvhab5194a437,1,34,Win,No-Go,0,1,0.435,0,0,0
5m4wtrggf87lvhab5194a437,1,35,Win,Go,1,1,0.419,1,0,1
5m4wtrggf87lvhab5194a437,1,36,Lose,Go,1,1,0.696,1,1,-1
5m4wtrggf87lvhab5194a437,1,37,Lose,No-Go,0,0,,1,1,-1
5m4wtrggf87lvhab5194a437,1,38,Lose,Go,1,1,0.629,1,0,0
5m4wtrggf87lvhab5194a437,1,39,Win,Go,1,1,0.456,1,0,1
5m4wtrggf87lvhab5194a437,1,40,Win,No-Go,0,1,0.493,0,0,0
5m4wtrggf87lvhab5194a437,1,41,Lose,Go,1,0,,0,1,0
5m4wtrggf87lvhab5194a437,1,42,Win,No-Go,0,1,0.583,0,0,0
5m4wtrggf87lvhab5194a437,1,43,Lose,No-Go,0,0,,1,0,0
5m4wtrggf87lvhab5194a437,1,44,Win,Go,1,1,0.487,1,0,1
5m4wtrggf87lvhab5194a437,1,45,Lose,No-Go,0,0,,1,0,0
5m4wtrggf87lvhab5194a437,1,46,Win,No-Go,0,1,0.502,0,1,1
5m4wtrggf87lvhab5194a437,1,47,Lose,Go,1,0,,0,0,-1
5m4wtrggf87lvhab5194a437,1,48,Win,Go,1,1,0.453,1,0,1
5m4wtrggf87lvhab5194a437,1,49,Lose,No-Go,0,0,,1,0,0
5m4wtrggf87lvhab5194a437,1,50,Win,Go,1,1,0.459,1,0,1
5m4wtrggf87lvhab5194a437,1,51,Win,No-Go,0,1,0.631,0,0,0
5m4wtrggf87lvhab5194a437,1,52,Lose,Go,1,1,0.49,1,0,0
5m4wtrggf87lvhab5194a437,1,53,Win,No-Go,0,1,0.649,0,0,0
5m4wtrggf87lvhab5194a437,1,54,Lose,Go,1,1,0.776,1,0,0
5m4wtrggf87lvhab5194a437,1,55,Lose,No-Go,0,1,0.391,0,0,-1
5m4wtrggf87lvhab5194a437,1,56,Win,Go,1,1,0.32,1,0,1
5m4wtrggf87lvhab5194a437,1,57,Win,Go,1,1,0.479,1,1,0
5m4wtrggf87lvhab5194a437,1,58,Lose,Go,1,0,,0,0,-1
5m4wtrggf87lvhab5194a437,1,59,Lose,No-Go,0,0,,1,1,-1
5m4wtrggf87lvhab5194a437,1,60,Win,No-Go,0,1,0.519,0,0,0
5m4wtrggf87lvhab5194a437,1,61,Win,No-Go,0,1,0.542,0,0,0
5m4wtrggf87lvhab5194a437,1,62,Lose,Go,1,1,0.646,1,0,0
5m4wtrggf87lvhab5194a437,1,63,Lose,No-Go,0,0,,1,0,0
5m4wtrggf87lvhab5194a437,1,64,Win,Go,1,1,0.47,1,0,1
5m4wtrggf87lvhab5194a437,1,65,Win,No-Go,0,1,0.638,0,0,0
5m4wtrggf87lvhab5194a437,1,66,Lose,No-Go,0,0,,1,0,0
5m4wtrggf87lvhab5194a437,1,67,Win,Go,1,1,0.594,1,1,0
5m4wtrggf87lvhab5194a437,1,68,Lose,Go,1,0,,0,0,-1
5m4wtrggf87lvhab5194a437,1,69,Lose,No-Go,0,0,,1,1,-1
5m4wtrggf87lvhab5194a437,1,70,Lose,Go,1,1,0.786,1,0,0
5m4wtrggf87lvhab5194a437,1,71,Win,Go,1,1,0.423,1,0,1
5m4wtrggf87lvhab5194a437,1,72,Win,No-Go,0,1,0.761,0,0,0
5m4wtrggf87lvhab5194a437,1,73,Win,No-Go,0,1,0.487,0,0,0
5m4wtrggf87lvhab5194a437,1,74,Lose,Go,1,0,,0,1,0
5m4wtrggf87lvhab5194a437,1,75,Win,Go,1,1,0.63,1,0,1
5m4wtrggf87lvhab5194a437,1,76,Lose,No-Go,0,0,,1,0,0
5m4wtrggf87lvhab5194a437,1,77,Win,No-Go,0,1,0.404,0,1,1
5m4wtrggf87lvhab5194a437,1,78,Win,Go,1,1,0.422,1,0,1
5m4wtrggf87lvhab5194a437,1,79,Lose,No-Go,0,0,,1,0,0
5m4wtrggf87lvhab5194a437,1,80,Lose,Go,1,0,,0,0,-1
5m4wtrggf87lvhab5194a437,2,81,Win,Go,1,1,0.606,1,0,1
5m4wtrggf87lvhab5194a437,2,82,Win,No-Go,0,1,0.782,0,0,0
5m4wtrggf87lvhab5194a437,2,83,Lose,No-Go,0,0,,1,0,0
5m4wtrggf87lvhab5194a437,2,84,Lose,Go,1,0,,0,0,-1
5m4wtrggf87lvhab5194a437,2,85,Win,Go,1,1,0.567,1,0,1
5m4wtrggf87lvhab5194a437,2,86,Win,No-Go,0,0,,1,0,1
5m4wtrggf87lvhab5194a437,2,87,Lose,Go,1,1,1.092,1,0,0
5m4wtrggf87lvhab5194a437,2,88,Lose,No-Go,0,0,,1,0,0
5m4wtrggf87lvhab5194a437,2,89,Lose,Go,1,1,0.861,1,1,-1
5m4wtrggf87lvhab5194a437,2,90,Win,Go,1,1,0.482,1,1,0
5m4wtrggf87lvhab5194a437,2,91,Win,No-Go,0,0,,1,0,1
5m4wtrggf87lvhab5194a437,2,92,Lose,No-Go,0,0,,1,0,0
5m4wtrggf87lvhab5194a437,2,93,Lose,No-Go,0,0,,1,0,0
5m4wtrggf87lvhab5194a437,2,94,Win,Go,1,1,0.389,1,0,1
5m4wtrggf87lvhab5194a437,2,95,Lose,Go,1,1,0.729,1,0,0
5m4wtrggf87lvhab5194a437,2,96,Win,No-Go,0,0,,1,1,0
5m4wtrggf87lvhab5194a437,2,97,Lose,No-Go,0,1,0.909,0,1,0
5m4wtrggf87lvhab5194a437,2,98,Win,Go,1,1,0.36,1,0,1
5m4wtrggf87lvhab5194a437,2,99,Lose,Go,1,0,,0,0,-1
5m4wtrggf87lvhab5194a437,2,100,Win,No-Go,0,0,,1,0,1
5m4wtrggf87lvhab5194a437,2,101,Lose,No-Go,0,0,,1,0,0
5m4wtrggf87lvhab5194a437,2,102,Lose,Go,1,0,,0,0,-1
5m4wtrggf87lvhab5194a437,2,103,Win,Go,1,1,0.332,1,1,0
5m4wtrggf87lvhab5194a437,2,104,Win,No-Go,0,0,,1,1,0
5m4wtrggf87lvhab5194a437,2,105,Lose,Go,1,1,0.527,1,0,0
5m4wtrggf87lvhab5194a437,2,106,Win,Go,1,1,0.522,1,0,1
5m4wtrggf87lvhab5194a437,2,107,Win,No-Go,0,0,,1,0,1
5m4wtrggf87lvhab5194a437,2,108,Lose,No-Go,0,1,1.325,0,0,-1
5m4wtrggf87lvhab5194a437,2,109,Win,No-Go,0,1,0.815,0,0,0
5m4wtrggf87lvhab5194a437,2,110,Lose,No-Go,0,1,0.831,0,0,-1
5m4wtrggf87lvhab5194a437,2,111,Win,Go,1,1,0.496,1,0,1
5m4wtrggf87lvhab5194a437,2,112,Lose,Go,1,0,,0,0,-1
5m4wtrggf87lvhab5194a437,2,113,Win,No-Go,0,0,,1,0,1
5m4wtrggf87lvhab5194a437,2,114,Lose,No-Go,0,0,,1,0,0
5m4wtrggf87lvhab5194a437,2,115,Lose,Go,1,1,0.684,1,1,-1
5m4wtrggf87lvhab5194a437,2,116,Win,Go,1,1,0.377,1,0,1
5m4wtrggf87lvhab5194a437,2,117,Lose,No-Go,0,0,,1,1,-1
5m4wtrggf87lvhab5194a437,2,118,Lose,Go,1,1,0.556,1,0,0
5m4wtrggf87lvhab5194a437,2,119,Win,No-Go,0,1,0.674,0,0,0
5m4wtrggf87lvhab5194a437,2,120,Win,Go,1,1,0.41,1,0,1
5m4wtrggf87lvhab5194a437,2,121,Win,No-Go,0,0,,1,0,1
5m4wtrggf87lvhab5194a437,2,122,Lose,No-Go,0,0,,1,0,0
5m4wtrggf87lvhab5194a437,2,123,Lose,Go,1,1,0.526,1,0,0
5m4wtrggf87lvhab5194a437,2,124,Win,Go,1,1,0.473,1,1,0
5m4wtrggf87lvhab5194a437,2,125,Lose,Go,1,1,0.532,1,1,-1
5m4wtrggf87lvhab5194a437,2,126,Lose,No-Go,0,0,,1,0,0
5m4wtrggf87lvhab5194a437,2,127,Win,No-Go,0,0,,1,0,1
5m4wtrggf87lvhab5194a437,2,128,Win,Go,1,1,0.397,1,0,1
5m4wtrggf87lvhab5194a437,2,129,Lose,No-Go,0,0,,1,0,0
5m4wtrggf87lvhab5194a437,2,130,Win,Go,1,1,0.534,1,0,1
5m4wtrggf87lvhab5194a437,2,131,Lose,Go,1,0,,0,0,-1
5m4wtrggf87lvhab5194a437,2,132,Win,No-Go,0,0,,1,0,1
5m4wtrggf87lvhab5194a437,2,133,Lose,No-Go,0,0,,1,0,0
5m4wtrggf87lvhab5194a437,2,134,Win,Go,1,1,0.334,1,0,1
5m4wtrggf87lvhab5194a437,2,135,Lose,Go,1,1,0.775,1,0,0
5m4wtrggf87lvhab5194a437,2,136,Win,No-Go,0,1,0.677,0,0,0
5m4wtrggf87lvhab5194a437,2,137,Lose,No-Go,0,0,,1,1,-1
5m4wtrggf87lvhab5194a437,2,138,Win,Go,1,1,0.45,1,0,1
5m4wtrggf87lvhab5194a437,2,139,Lose,Go,1,0,,0,0,-1
5m4wtrggf87lvhab5194a437,2,140,Win,No-Go,0,0,,1,1,0
5m4wtrggf87lvhab5194a437,2,141,Win,No-Go,0,0,,1,1,0
5m4wtrggf87lvhab5194a437,2,142,Lose,Go,1,0,,0,0,-1
5m4wtrggf87lvhab5194a437,2,143,Win,Go,1,1,0.38,1,0,1
5m4wtrggf87lvhab5194a437,2,144,Lose,No-Go,0,1,0.744,0,0,-1
5m4wtrggf87lvhab5194a437,2,145,Lose,No-Go,0,0,,1,0,0
5m4wtrggf87lvhab5194a437,2,146,Win,Go,1,1,0.493,1,0,1
5m4wtrggf87lvhab5194a437,2,147,Lose,Go,1,1,0.97,1,0,0
5m4wtrggf87lvhab5194a437,2,148,Win,No-Go,0,0,,1,0,1
5m4wtrggf87lvhab5194a437,2,149,Win,No-Go,0,0,,1,0,1
5m4wtrggf87lvhab5194a437,2,150,Lose,No-Go,0,0,,1,0,0
5m4wtrggf87lvhab5194a437,2,151,Lose,Go,1,0,,0,0,-1
5m4wtrggf87lvhab5194a437,2,152,Win,Go,1,1,0.617,1,0,1
5m4wtrggf87lvhab5194a437,2,153,Win,Go,1,1,0.576,1,0,1
5m4wtrggf87lvhab5194a437,2,154,Lose,No-Go,0,0,,1,0,0
5m4wtrggf87lvhab5194a437,2,155,Lose,Go,1,1,0.463,1,0,0
5m4wtrggf87lvhab5194a437,2,156,Win,No-Go,0,0,,1,0,1
5m4wtrggf87lvhab5194a437,2,157,Lose,Go,1,1,0.651,1,1,-1
5m4wtrggf87lvhab5194a437,2,158,Lose,No-Go,0,0,,1,1,-1
5m4wtrggf87lvhab5194a437,2,159,Win,No-Go,0,0,,1,0,1
5m4wtrggf87lvhab5194a437,2,160,Win,Go,1,1,0.51,1,1,0
9ebhpr9lvkz061wau9c0ew31,1,1,Win,No-Go,0,1,0.143,0,0,0
9ebhpr9lvkz061wau9c0ew31,1,2,Lose,Go,1,1,0.091,1,0,0
9ebhpr9lvkz061wau9c0ew31,1,3,Lose,No-Go,0,1,0.007,0,0,-1
9ebhpr9lvkz061wau9c0ew31,1,4,Win,Go,1,1,0.564,1,0,1
9ebhpr9lvkz061wau9c0ew31,1,5,Lose,Go,1,1,0.445,1,1,-1
9ebhpr9lvkz061wau9c0ew31,1,6,Lose,No-Go,0,1,1.331,0,0,-1
9ebhpr9lvkz061wau9c0ew31,1,7,Win,Go,1,1,0.34,1,0,1
9ebhpr9lvkz061wau9c0ew31,1,8,Win,No-Go,0,1,0.604,0,0,0
9ebhpr9lvkz061wau9c0ew31,1,9,Win,Go,1,1,0.125,1,0,1
9ebhpr9lvkz061wau9c0ew31,1,10,Lose,Go,1,0,,0,0,-1
9ebhpr9lvkz061wau9c0ew31,1,11,Win,No-Go,0,1,0.579,0,0,0
9ebhpr9lvkz061wau9c0ew31,1,12,Lose,No-Go,0,1,0.49,0,0,-1
9ebhpr9lvkz061wau9c0ew31,1,13,Win,Go,1,1,0.51,1,0,1
9ebhpr9lvkz061wau9c0ew31,1,14,Win,No-Go,0,1,0.547,0,0,0
9ebhpr9lvkz061wau9c0ew31,1,15,Lose,Go,1,1,0.58,1,0,0
9ebhpr9lvkz061wau9c0ew31,1,16,Lose,No-Go,0,0,,1,1,-1
9ebhpr9lvkz061wau9c0ew31,1,17,Win,Go,1,1,0.506,1,1,0
9ebhpr9lvkz061wau9c0ew31,1,18,Lose,Go,1,1,0.427,1,0,0
9ebhpr9lvkz061wau9c0ew31,1,19,Win,No-Go,0,1,0.371,0,1,1
9ebhpr9lvkz061wau9c0ew31,1,20,Lose,No-Go,0,1,0.666,0,0,-1
9ebhpr9lvkz061wau9c0ew31,1,21,Lose,No-Go,0,0,,1,0,0
9ebhpr9lvkz061wau9c0ew31,1,22,Win,No-Go,0,1,0.353,0,0,0
9ebhpr9lvkz061wau9c0ew31,1,23,Win,Go,1,1,0.393,1,0,1
9ebhpr9lvkz061wau9c0ew31,1,24,Lose,Go,1,1,0.682,1,0,0
9ebhpr9lvkz061wau9c0ew31,1,25,Lose,No-Go,0,1,0.376,0,0,-1
9ebhpr9lvkz061wau9c0ew31,1,26,Win,Go,1,1,0.392,1,0,1
9ebhpr9lvkz061wau9c0ew31,1,27,Lose,Go,1,1,0.52,1,0,0
9ebhpr9lvkz061wau9c0ew31,1,28,Win,No-Go,0,1,0.424,0,0,0
9ebhpr9lvkz061wau9c0ew31,1,29,Lose,Go,1,1,0.473,1,0,0
9ebhpr9lvkz061wau9c0ew31,1,30,Win,No-Go,0,1,0.467,0,1,1
9ebhpr9lvkz061wau9c0ew31,1,31,Win,Go,1,1,0.509,1,1,0
9ebhpr9lvkz061wau9c0ew31,1,32,Lose,No-Go,0,0,,1,0,0
9ebhpr9lvkz061wau9c0ew31,1,33,Lose,No-Go,0,0,,1,0,0
9ebhpr9lvkz061wau9c0ew31,1,34,Win,No-Go,0,1,0.462,0,0,0
9ebhpr9lvkz061wau9c0ew31,1,35,Win,Go,1,1,0.369,1,0,1
9ebhpr9lvkz061wau9c0ew31,1,36,Lose,Go,1,1,1.298,1,1,-1
9ebhpr9lvkz061wau9c0ew31,1,37,Lose,No-Go,0,0,,1,1,-1
9ebhpr9lvkz061wau9c0ew31,1,38,Lose,Go,1,1,0.522,1,0,0
9ebhpr9lvkz061wau9c0ew31,1,39,Win,Go,1,1,0.419,1,0,1
9ebhpr9lvkz061wau9c0ew31,1,40,Win,No-Go,0,1,0.452,0,0,0
9ebhpr9lvkz061wau9c0ew31,1,41,Lose,Go,1,1,0.557,1,1,-1
9ebhpr9lvkz061wau9c0ew31,1,42,Win,No-Go,0,1,0.349,0,0,0
9ebhpr9lvkz061wau9c0ew31,1,43,Lose,No-Go,0,1,0.277,0,0,-1
9ebhpr9lvkz061wau9c0ew31,1,44,Win,Go,1,1,0.456,1,0,1
9ebhpr9lvkz061wau9c0ew31,1,45,Lose,No-Go,0,0,,1,0,0
9ebhpr9lvkz061wau9c0ew31,1,46,Win,No-Go,0,1,0.456,0,1,1
9ebhpr9lvkz061wau9c0ew31,1,47,Lose,Go,1,1,0.518,1,0,0
9ebhpr9lvkz061wau9c0ew31,1,48,Win,Go,1,1,0.697,1,0,1
9ebhpr9lvkz061wau9c0ew31,1,49,Lose,No-Go,0,0,,1,0,0
9ebhpr9lvkz061wau9c0ew31,1,50,Win,Go,1,1,0.312,1,0,1
9ebhpr9lvkz061wau9c0ew31,1,51,Win,No-Go,0,1,0.351,0,0,0
9ebhpr9lvkz061wau9c0ew31,1,52,Lose,Go,1,1,0.575,1,0,0
9ebhpr9lvkz061wau9c0ew31,1,53,Win,No-Go,0,1,0.422,0,0,0
9ebhpr9lvkz061wau9c0ew31,1,54,Lose,Go,1,1,0.637,1,0,0
9ebhpr9lvkz061wau9c0ew31,1,55,Lose,No-Go,0,0,,1,0,0
9ebhpr9lvkz061wau9c0ew31,1,56,Win,Go,1,1,0.348,1,0,1
9ebhpr9lvkz061wau9c0ew31,1,57,Win,Go,1,1,0.391,1,1,0
9ebhpr9lvkz061wau9c0ew31,1,58,Lose,Go,1,1,0.675,1,0,0
9ebhpr9lvkz061wau9c0ew31,1,59,Lose,No-Go,0,0,,1,1,-1
9ebhpr9lvkz061wau9c0ew31,1,60,Win,No-Go,0,1,0.458,0,0,0
9ebhpr9lvkz061wau9c0ew31,1,61,Win,No-Go,0,1,0.433,0,0,0
9ebhpr9lvkz061wau9c0ew31,1,62,Lose,Go,1,1,0.365,1,0,0
9ebhpr9lvkz061wau9c0ew31,1,63,Lose,No-Go,0,1,0.392,0,0,-1
9ebhpr9lvkz061wau9c0ew31,1,64,Win,Go,1,1,0.382,1,0,1
9ebhpr9lvkz061wau9c0ew31,1,65,Win,No-Go,0,1,0.435,0,0,0
9ebhpr9lvkz061wau9c0ew31,1,66,Lose,No-Go,0,1,0.38,0,0,-1
9ebhpr9lvkz061wau9c0ew31,1,67,Win,Go,1,1,0.386,1,1,0
9ebhpr9lvkz061wau9c0ew31,1,68,Lose,Go,1,1,0.534,1,0,0
9ebhpr9lvkz061wau9c0ew31,1,69,Lose,No-Go,0,0,,1,1,-1
9ebhpr9lvkz061wau9c0ew31,1,70,Lose,Go,1,1,0.466,1,0,0
9ebhpr9lvkz061wau9c0ew31,1,71,Win,Go,1,1,0.421,1,0,1
9ebhpr9lvkz061wau9c0ew31,1,72,Win,No-Go,0,1,0.432,0,0,0
9ebhpr9lvkz061wau9c0ew31,1,73,Win,No-Go,0,1,0.427,0,0,0
9ebhpr9lvkz061wau9c0ew31,1,74,Lose,Go,1,1,0.59,1,1,-1
9ebhpr9lvkz061wau9c0ew31,1,75,Win,Go,1,1,0.726,1,0,1
9ebhpr9lvkz061wau9c0ew31,1,76,Lose,No-Go,0,1,0.931,0,0,-1
9ebhpr9lvkz061wau9c0ew31,1,77,Win,No-Go,0,1,0.495,0,1,1
9ebhpr9lvkz061wau9c0ew31,1,78,Win,Go,1,1,0.646,1,0,1
9ebhpr9lvkz061wau9c0ew31,1,79,Lose,No-Go,0,1,0.8,0,0,-1
9ebhpr9lvkz061wau9c0ew31,1,80,Lose,Go,1,1,0.429,1,0,0
9ebhpr9lvkz061wau9c0ew31,2,81,Win,Go,1,1,0.606,1,0,1
9ebhpr9lvkz061wau9c0ew31,2,82,Win,No-Go,0,1,0.621,0,0,0
9ebhpr9lvkz061wau9c0ew31,2,83,Lose,No-Go,0,1,0.537,0,0,-1
9ebhpr9lvkz061wau9c0ew31,2,84,Lose,Go,1,0,,0,0,-1
9ebhpr9lvkz061wau9c0ew31,2,85,Win,Go,1,1,0.655,1,0,1
9ebhpr9lvkz061wau9c0ew31,2,86,Win,No-Go,0,1,0.598,0,0,0
9ebhpr9lvkz061wau9c0ew31,2,87,Lose,Go,1,1,0.818,1,0,0
9ebhpr9lvkz061wau9c0ew31,2,88,Lose,No-Go,0,1,0.42,0,0,-1
9ebhpr9lvkz061wau9c0ew31,2,89,Lose,Go,1,1,0.763,1,1,-1
9ebhpr9lvkz061wau9c0ew31,2,90,Win,Go,1,1,0.553,1,1,0
9ebhpr9lvkz061wau9c0ew31,2,91,Win,No-Go,0,1,0.67,0,0,0
9ebhpr9lvkz061wau9c0ew31,2,92,Lose,No-Go,0,1,0.574,0,0,-1
9ebhpr9lvkz061wau9c0ew31,2,93,Lose,No-Go,0,0,,1,0,0
9ebhpr9lvkz061wau9c0ew31,2,94,Win,Go,1,1,0.507,1,0,1
9ebhpr9lvkz061wau9c0ew31,2,95,Lose,Go,1,1,0.874,1,0,0
9ebhpr9lvkz061wau9c0ew31,2,96,Win,No-Go,0,1,0.501,0,1,1
9ebhpr9lvkz061wau9c0ew31,2,97,Lose,No-Go,0,1,0.59,0,1,0
9ebhpr9lvkz061wau9c0ew31,2,98,Win,Go,1,1,0.389,1,0,1
9ebhpr9lvkz061wau9c0ew31,2,99,Lose,Go,1,1,0.89,1,0,0
9ebhpr9lvkz061wau9c0ew31,2,100,Win,No-Go,0,1,0.591,0,0,0
9ebhpr9lvkz061wau9c0ew31,2,101,Lose,No-Go,0,1,0.624,0,0,-1
9ebhpr9lvkz061wau9c0ew31,2,102,Lose,Go,1,1,0.87,1,0,0
9ebhpr9lvkz061wau9c0ew31,2,103,Win,Go,1,1,0.497,1,1,0
9ebhpr9lvkz061wau9c0ew31,2,104,Win,No-Go,0,1,0.526,0,1,1
9ebhpr9lvkz061wau9c0ew31,2,105,Lose,Go,1,1,0.613,1,0,0
9ebhpr9lvkz061wau9c0ew31,2,106,Win,Go,1,1,0.539,1,0,1
9ebhpr9lvkz061wau9c0ew31,2,107,Win,No-Go,0,1,0.564,0,0,0
9ebhpr9lvkz061wau9c0ew31,2,108,Lose,No-Go,0,1,0.736,0,0,-1
9ebhpr9lvkz061wau9c0ew31,2,109,Win,No-Go,0,1,0.47,0,0,0
9ebhpr9lvkz061wau9c0ew31,2,110,Lose,No-Go,0,1,0.729,0,0,-1
9ebhpr9lvkz061wau9c0ew31,2,111,Win,Go,1,1,0.377,1,0,1
9ebhpr9lvkz061wau9c0ew31,2,112,Lose,Go,1,1,0.581,1,0,0
9ebhpr9lvkz061wau9c0ew31,2,113,Win,No-Go,0,1,0.526,0,0,0
9ebhpr9lvkz061wau9c0ew31,2,114,Lose,No-Go,0,1,0.66,0,0,-1
9ebhpr9lvkz061wau9c0ew31,2,115,Lose,Go,1,1,0.45,1,1,-1
9ebhpr9lvkz061wau9c0ew31,2,116,Win,Go,1,1,0.417,1,0,1
9ebhpr9lvkz061wau9c0ew31,2,117,Lose,No-Go,0,1,0.635,0,1,0
9ebhpr9lvkz061wau9c0ew31,2,118,Lose,Go,1,1,0.651,1,0,0
9ebhpr9lvkz061wau9c0ew31,2,119,Win,No-Go,0,1,0.469,0,0,0
9ebhpr9lvkz061wau9c0ew31,2,120,Win,Go,1,1,0.446,1,0,1
9ebhpr9lvkz061wau9c0ew31,2,121,Win,No-Go,0,1,0.491,0,0,0
9ebhpr9lvkz061wau9c0ew31,2,122,Lose,No-Go,0,0,,1,0,0
9ebhpr9lvkz061wau9c0ew31,2,123,Lose,Go,1,1,0.899,1,0,0
9ebhpr9lvkz061wau9c0ew31,2,124,Win,Go,1,1,0.538,1,1,0
9ebhpr9lvkz061wau9c0ew31,2,125,Lose,Go,1,1,0.7,1,1,-1
9ebhpr9lvkz061wau9c0ew31,2,126,Lose,No-Go,0,0,,1,0,0
9ebhpr9lvkz061wau9c0ew31,2,127,Win,No-Go,0,1,0.455,0,0,0
9ebhpr9lvkz061wau9c0ew31,2,128,Win,Go,1,1,0.421,1,0,1
9ebhpr9lvkz061wau9c0ew31,2,129,Lose,No-Go,0,1,0.78,0,0,-1
9ebhpr9lvkz061wau9c0ew31,2,130,Win,Go,1,1,0.33,1,0,1
9ebhpr9lvkz061wau9c0ew31,2,131,Lose,Go,1,1,0.672,1,0,0
9ebhpr9lvkz061wau9c0ew31,2,132,Win,No-Go,0,1,0.63,0,0,0
9ebhpr9lvkz061wau9c0ew31,2,133,Lose,No-Go,0,1,0.77,0,0,-1
9ebhpr9lvkz061wau9c0ew31,2,134,Win,Go,1,1,0.313,1,0,1
9ebhpr9lvkz061wau9c0ew31,2,135,Lose,Go,1,1,0.571,1,0,0
9ebhpr9lvkz061wau9c0ew31,2,136,Win,No-Go,0,1,0.714,0,0,0
9ebhpr9lvkz061wau9c0ew31,2,137,Lose,No-Go,0,0,,1,1,-1
9ebhpr9lvkz061wau9c0ew31,2,138,Win,Go,1,1,0.447,1,0,1
9ebhpr9lvkz061wau9c0ew31,2,139,Lose,Go,1,1,0.659,1,0,0
9ebhpr9lvkz061wau9c0ew31,2,140,Win,No-Go,0,1,0.55,0,1,1
9ebhpr9lvkz061wau9c0ew31,2,141,Win,No-Go,0,1,0.418,0,1,1
9ebhpr9lvkz061wau9c0ew31,2,142,Lose,Go,1,1,0.684,1,0,0
9ebhpr9lvkz061wau9c0ew31,2,143,Win,Go,1,1,0.439,1,0,1
9ebhpr9lvkz061wau9c0ew31,2,144,Lose,No-Go,0,1,0.9,0,0,-1
9ebhpr9lvkz061wau9c0ew31,2,145,Lose,No-Go,0,0,,1,0,0
9ebhpr9lvkz061wau9c0ew31,2,146,Win,Go,1,1,0.339,1,0,1
9ebhpr9lvkz061wau9c0ew31,2,147,Lose,Go,1,1,0.541,1,0,0
9ebhpr9lvkz061wau9c0ew31,2,148,Win,No-Go,0,1,0.38,0,0,0
9ebhpr9lvkz061wau9c0ew31,2,149,Win,No-Go,0,1,0.424,0,0,0
9ebhpr9lvkz061wau9c0ew31,2,150,Lose,No-Go,0,0,,1,0,0
9ebhpr9lvkz061wau9c0ew31,2,151,Lose,Go,1,1,0.598,1,0,0
9ebhpr9lvkz061wau9c0ew31,2,152,Win,Go,1,1,0.4,1,0,1
9ebhpr9lvkz061wau9c0ew31,2,153,Win,Go,1,1,0.475,1,0,1
9ebhpr9lvkz061wau9c0ew31,2,154,Lose,No-Go,0,0,,1,0,0
9ebhpr9lvkz061wau9c0ew31,2,155,Lose,Go,1,1,0.52,1,0,0
9ebhpr9lvkz061wau9c0ew31,2,156,Win,No-Go,0,1,0.603,0,0,0
9ebhpr9lvkz061wau9c0ew31,2,157,Lose,Go,1,0,,0,1,0
9ebhpr9lvkz061wau9c0ew31,2,158,Lose,No-Go,0,0,,1,1,-1
9ebhpr9lvkz061wau9c0ew31,2,159,Win,No-Go,0,1,0.444,0,0,0
9ebhpr9lvkz061wau9c0ew31,2,160,Win,Go,1,1,0.432,1,1,0
9tpri3k3e27yxjljkpbnjun0,1,1,Win,No-Go,0,0,,1,0,1
9tpri3k3e27yxjljkpbnjun0,1,2,Lose,Go,1,0,,0,0,-1
9tpri3k3e27yxjljkpbnjun0,1,3,Lose,No-Go,0,0,,1,0,0
9tpri3k3e27yxjljkpbnjun0,1,4,Win,Go,1,1,0.906,1,0,1
9tpri3k3e27yxjljkpbnjun0,1,5,Lose,Go,1,0,,0,1,0
9tpri3k3e27yxjljkpbnjun0,1,6,Lose,No-Go,0,0,,1,0,0
9tpri3k3e27yxjljkpbnjun0,1,7,Win,Go,1,0,,0,0,0
9tpri3k3e27yxjljkpbnjun0,1,8,Win,No-Go,0,0,,1,0,1
9tpri3k3e27yxjljkpbnjun0,1,9,Win,Go,1,0,,0,0,0
9tpri3k3e27yxjljkpbnjun0,1,10,Lose,Go,1,1,1.451,1,0,0
9tpri3k3e27yxjljkpbnjun0,1,11,Win,No-Go,0,0,,1,0,1
9tpri3k3e27yxjljkpbnjun0,1,12,Lose,No-Go,0,1,0.385,0,0,-1
9tpri3k3e27yxjljkpbnjun0,1,13,Win,Go,1,0,,0,0,0
9tpri3k3e27yxjljkpbnjun0,1,14,Win,No-Go,0,1,0.32,0,0,0
9tpri3k3e27yxjljkpbnjun0,1,15,Lose,Go,1,0,,0,0,-1
9tpri3k3e27yxjljkpbnjun0,1,16,Lose,No-Go,0,0,,1,1,-1
9tpri3k3e27yxjljkpbnjun0,1,17,Win,Go,1,1,0.542,1,1,0
9tpri3k3e27yxjljkpbnjun0,1,18,Lose,Go,1,1,0.206,1,0,0
9tpri3k3e27yxjljkpbnjun0,1,19,Win,No-Go,0,1,0.845,0,1,1
9tpri3k3e27yxjljkpbnjun0,1,20,Lose,No-Go,0,0,,1,0,0
9tpri3k3e27yxjljkpbnjun0,1,21,Lose,No-Go,0,0,,1,0,0
9tpri3k3e27yxjljkpbnjun0,1,22,Win,No-Go,0,1,1.205,0,0,0
9tpri3k3e27yxjljkpbnjun0,1,23,Win,Go,1,1,0.771,1,0,1
9tpri3k3e27yxjljkpbnjun0,1,24,Lose,Go,1,0,,0,0,-1
9tpri3k3e27yxjljkpbnjun0,1,25,Lose,No-Go,0,0,,1,0,0
9tpri3k3e27yxjljkpbnjun0,1,26,Win,Go,1,1,0.806,1,0,1
9tpri3k3e27yxjljkpbnjun0,1,27,Lose,Go,1,0,,0,0,-1
9tpri3k3e27yxjljkpbnjun0,1,28,Win,No-Go,0,1,0.403,0,0,0
9tpri3k3e27yxjljkpbnjun0,1,29,Lose,Go,1,0,,0,0,-1
9tpri3k3e27yxjljkpbnjun0,1,30,Win,No-Go,0,1,0.373,0,1,1
9tpri3k3e27yxjljkpbnjun0,1,31,Win,Go,1,1,0.733,1,1,0
9tpri3k3e27yxjljkpbnjun0,1,32,Lose,No-Go,0,0,,1,0,0
9tpri3k3e27yxjljkpbnjun0,1,33,Lose,No-Go,0,0,,1,0,0
9tpri3k3e27yxjljkpbnjun0,1,34,Win,No-Go,0,1,0.881,0,0,0
9tpri3k3e27yxjljkpbnjun0,1,35,Win,Go,1,1,0.368,1,0,1
9tpri3k3e27yxjljkpbnjun0,1,36,Lose,Go,1,0,,0,1,0
9tpri3k3e27yxjljkpbnjun0,1,37,Lose,No-Go,0,0,,1,1,-1
9tpri3k3e27yxjljkpbnjun0,1,38,Lose,Go,1,1,0.224,1,0,0
9tpri3k3e27yxjljkpbnjun0,1,39,Win,Go,1,1,0.511,1,0,1
9tpri3k3e27yxjljkpbnjun0,1,40,Win,No-Go,0,1,0.421,0,0,0
9tpri3k3e27yxjljkpbnjun0,1,41,Lose,Go,1,0,,0,1,0
9tpri3k3e27yxjljkpbnjun0,1,42,Win,No-Go,0,1,0.362,0,0,0
9tpri3k3e27yxjljkpbnjun0,1,43,Lose,No-Go,0,0,,1,0,0
9tpri3k3e27yxjljkpbnjun0,1,44,Win,Go,1,1,1.431,1,0,1
9tpri3k3e27yxjljkpbnjun0,1,45,Lose,No-Go,0,0,,1,0,0
9tpri3k3e27yxjljkpbnjun0,1,46,Win,No-Go,0,1,0.624,0,1,1
9tpri3k3e27yxjljkpbnjun0,1,47,Lose,Go,1,0,,0,0,-1
9tpri3k3e27yxjljkpbnjun0,1,48,Win,Go,1,1,0.993,1,0,1
9tpri3k3e27yxjljkpbnjun0,1,49,Lose,No-Go,0,0,,1,0,0
9tpri3k3e27yxjljkpbnjun0,1,50,Win,Go,1,1,0.355,1,0,1
9tpri3k3e27yxjljkpbnjun0,1,51,Win,No-Go,0,1,0.423,0,0,0
9tpri3k3e27yxjljkpbnjun0,1,52,Lose,Go,1,0,,0,0,-1
9tpri3k3e27yxjljkpbnjun0,1,53,Win,No-Go,0,1,0.35,0,0,0
9tpri3k3e27yxjljkpbnjun0,1,54,Lose,Go,1,0,,0,0,-1
9tpri3k3e27yxjljkpbnjun0,1,55,Lose,No-Go,0,0,,1,0,0
9tpri3k3e27yxjljkpbnjun0,1,56,Win,Go,1,1,0.685,1,0,1
9tpri3k3e27yxjljkpbnjun0,1,57,Win,Go,1,1,0.789,1,1,0
9tpri3k3e27yxjljkpbnjun0,1,58,Lose,Go,1,0,,0,0,-1
9tpri3k3e27yxjljkpbnjun0,1,59,Lose,No-Go,0,0,,1,1,-1
9tpri3k3e27yxjljkpbnjun0,1,60,Win,No-Go,0,1,0.454,0,0,0
9tpri3k3e27yxjljkpbnjun0,1,61,Win,No-Go,0,1,0.52,0,0,0
9tpri3k3e27yxjljkpbnjun0,1,62,Lose,Go,1,0,,0,0,-1
9tpri3k3e27yxjljkpbnjun0,1,63,Lose,No-Go,0,1,0.249,0,0,-1
9tpri3k3e27yxjljkpbnjun0,1,64,Win,Go,1,1,0.551,1,0,1
9tpri3k3e27yxjljkpbnjun0,1,65,Win,No-Go,0,1,0.812,0,0,0
9tpri3k3e27yxjljkpbnjun0,1,66,Lose,No-Go,0,0,,1,0,0
9tpri3k3e27yxjljkpbnjun0,1,67,Win,Go,1,1,0.501,1,1,0
9tpri3k3e27yxjljkpbnjun0,1,68,Lose,Go,1,0,,0,0,-1
9tpri3k3e27yxjljkpbnjun0,1,69,Lose,No-Go,0,0,,1,1,-1
9tpri3k3e27yxjljkpbnjun0,1,70,Lose,Go,1,0,,0,0,-1
9tpri3k3e27yxjljkpbnjun0,1,71,Win,Go,1,1,0.633,1,0,1
9tpri3k3e27yxjljkpbnjun0,1,72,Win,No-Go,0,1,0.659,0,0,0
9tpri3k3e27yxjljkpbnjun0,1,73,Win,No-Go,0,1,0.664,0,0,0
9tpri3k3e27yxjljkpbnjun0,1,74,Lose,Go,1,0,,0,1,0
9tpri3k3e27yxjljkpbnjun0,1,75,Win,Go,1,1,1.462,1,0,1
9tpri3k3e27yxjljkpbnjun0,1,76,Lose,No-Go,0,0,,1,0,0
9tpri3k3e27yxjljkpbnjun0,1,77,Win,No-Go,0,1,0.459,0,1,1
9tpri3k3e27yxjljkpbnjun0,1,78,Win,Go,1,1,0.612,1,0,1
9tpri3k3e27yxjljkpbnjun0,1,79,Lose,No-Go,0,0,,1,0,0
9tpri3k3e27yxjljkpbnjun0,1,80,Lose,Go,1,0,,0,0,-1
9tpri3k3e27yxjljkpbnjun0,2,81,Win,Go,1,1,0.129,1,0,1
9tpri3k3e27yxjljkpbnjun0,2,82,Win,No-Go,0,0,,1,0,1
9tpri3k3e27yxjljkpbnjun0,2,83,Lose,No-Go,0,1,0.153,0,0,-1
9tpri3k3e27yxjljkpbnjun0,2,84,Lose,Go,1,0,,0,0,-1
9tpri3k3e27yxjljkpbnjun0,2,85,Win,Go,1,0,,0,0,0
9tpri3k3e27yxjljkpbnjun0,2,86,Win,No-Go,0,1,0.682,0,0,0
9tpri3k3e27yxjljkpbnjun0,2,87,Lose,Go,1,0,,0,0,-1
9tpri3k3e27yxjljkpbnjun0,2,88,Lose,No-Go,0,0,,1,0,0
9tpri3k3e27yxjljkpbnjun0,2,89,Lose,Go,1,0,,0,1,0
9tpri3k3e27yxjljkpbnjun0,2,90,Win,Go,1,0,,0,1,1
9tpri3k3e27yxjljkpbnjun0,2,91,Win,No-Go,0,0,,1,0,1
9tpri3k3e27yxjljkpbnjun0,2,92,Lose,No-Go,0,0,,1,0,0
9tpri3k3e27yxjljkpbnjun0,2,93,Lose,No-Go,0,1,0.068,0,0,-1
9tpri3k3e27yxjljkpbnjun0,2,94,Win,Go,1,1,0.252,1,0,1
9tpri3k3e27yxjljkpbnjun0,2,95,Lose,Go,1,0,,0,0,-1
9tpri3k3e27yxjljkpbnjun0,2,96,Win,No-Go,0,1,0.078,0,1,1
9tpri3k3e27yxjljkpbnjun0,2,97,Lose,No-Go,0,1,0.34,0,1,0
9tpri3k3e27yxjljkpbnjun0,2,98,Win,Go,1,1,0.008,1,0,1
9tpri3k3e27yxjljkpbnjun0,2,99,Lose,Go,1,0,,0,0,-1
9tpri3k3e27yxjljkpbnjun0,2,100,Win,No-Go,0,0,,1,0,1
9tpri3k3e27yxjljkpbnjun0,2,101,Lose,No-Go,0,1,0.654,0,0,-1
9tpri3k3e27yxjljkpbnjun0,2,102,Lose,Go,1,1,0.128,1,0,0
9tpri3k3e27yxjljkpbnjun0,2,103,Win,Go,1,1,0.144,1,1,0
9tpri3k3e27yxjljkpbnjun0,2,104,Win,No-Go,0,1,0.008,0,1,1
9tpri3k3e27yxjljkpbnjun0,2,105,Lose,Go,1,1,0.141,1,0,0
9tpri3k3e27yxjljkpbnjun0,2,106,Win,Go,1,1,0.027,1,0,1
9tpri3k3e27yxjljkpbnjun0,2,107,Win,No-Go,0,0,,1,0,1
9tpri3k3e27yxjljkpbnjun0,2,108,Lose,No-Go,0,1,0.017,0,0,-1
9tpri3k3e27yxjljkpbnjun0,2,109,Win,No-Go,0,1,0.028,0,0,0
9tpri3k3e27yxjljkpbnjun0,2,110,Lose,No-Go,0,1,1.076,0,0,-1
9tpri3k3e27yxjljkpbnjun0,2,111,Win,Go,1,1,0.166,1,0,1
9tpri3k3e27yxjljkpbnjun0,2,112,Lose,Go,1,0,,0,0,-1
9tpri3k3e27yxjljkpbnjun0,2,113,Win,No-Go,0,1,0.337,0,0,0
9tpri3k3e27yxjljkpbnjun0,2,114,Lose,No-Go,0,0,,1,0,0
9tpri3k3e27yxjljkpbnjun0,2,115,Lose,Go,1,1,0.35,1,1,-1
9tpri3k3e27yxjljkpbnjun0,2,116,Win,Go,1,0,,0,0,0
9tpri3k3e27yxjljkpbnjun0,2,117,Lose,No-Go,0,1,0.581,0,1,0
9tpri3k3e27yxjljkpbnjun0,2,118,Lose,Go,1,1,0.037,1,0,0
9tpri3k3e27yxjljkpbnjun0,2,119,Win,No-Go,0,1,0.556,0,0,0
9tpri3k3e27yxjljkpbnjun0,2,120,Win,Go,1,1,0.361,1,0,1
9tpri3k3e27yxjljkpbnjun0,2,121,Win,No-Go,0,1,0.338,0,0,0
9tpri3k3e27yxjljkpbnjun0,2,122,Lose,No-Go,0,1,0.321,0,0,-1
9tpri3k3e27yxjljkpbnjun0,2,123,Lose,Go,1,1,0.473,1,0,0
9tpri3k3e27yxjljkpbnjun0,2,124,Win,Go,1,0,,0,1,1
9tpri3k3e27yxjljkpbnjun0,2,125,Lose,Go,1,1,0.27,1,1,-1
9tpri3k3e27yxjljkpbnjun0,2,126,Lose,No-Go,0,0,,1,0,0
9tpri3k3e27yxjljkpbnjun0,2,127,Win,No-Go,0,1,0.438,0,0,0
9tpri3k3e27yxjljkpbnjun0,2,128,Win,Go,1,1,0.246,1,0,1
9tpri3k3e27yxjljkpbnjun0,2,129,Lose,No-Go,0,1,0.225,0,0,-1
9tpri3k3e27yxjljkpbnjun0,2,130,Win,Go,1,1,0.017,1,0,1
9tpri3k3e27yxjljkpbnjun0,2,131,Lose,Go,1,1,0.229,1,0,0
9tpri3k3e27yxjljkpbnjun0,2,132,Win,No-Go,0,1,0.307,0,0,0
9tpri3k3e27yxjljkpbnjun0,2,133,Lose,No-Go,0,0,,1,0,0
9tpri3k3e27yxjljkpbnjun0,2,134,Win,Go,1,1,0.074,1,0,1
9tpri3k3e27yxjljkpbnjun0,2,135,Lose,Go,1,1,0.198,1,0,0
9tpri3k3e27yxjljkpbnjun0,2,136,Win,No-Go,0,1,0.443,0,0,0
9tpri3k3e27yxjljkpbnjun0,2,137,Lose,No-Go,0,1,0.24,0,1,0
9tpri3k3e27yxjljkpbnjun0,2,138,Win,Go,1,1,0.415,1,0,1
9tpri3k3e27yxjljkpbnjun0,2,139,Lose,Go,1,1,0.802,1,0,0
9tpri3k3e27yxjljkpbnjun0,2,140,Win,No-Go,0,1,0.259,0,1,1
9tpri3k3e27yxjljkpbnjun0,2,141,Win,No-Go,0,1,0.333,0,1,1
9tpri3k3e27yxjljkpbnjun0,2,142,Lose,Go,1,1,0.255,1,0,0
9tpri3k3e27yxjljkpbnjun0,2,143,Win,Go,1,1,0.263,1,0,1
9tpri3k3e27yxjljkpbnjun0,2,144,Lose,No-Go,0,1,0.189,0,0,-1
9tpri3k3e27yxjljkpbnjun0,2,145,Lose,No-Go,0,1,0.139,0,0,-1
9tpri3k3e27yxjljkpbnjun0,2,146,Win,Go,1,1,0.219,1,0,1
9tpri3k3e27yxjljkpbnjun0,2,147,Lose,Go,1,1,0.106,1,0,0
9tpri3k3e27yxjljkpbnjun0,2,148,Win,No-Go,0,1,0.162,0,0,0
9tpri3k3e27yxjljkpbnjun0,2,149,Win,No-Go,0,1,0.158,0,0,0
9tpri3k3e27yxjljkpbnjun0,2,150,Lose,No-Go,0,1,0.342,0,0,-1
9tpri3k3e27yxjljkpbnjun0,2,151,Lose,Go,1,0,,0,0,-1
9tpri3k3e27yxjljkpbnjun0,2,152,Win,Go,1,1,1.17,1,0,1
9tpri3k3e27yxjljkpbnjun0,2,153,Win,Go,1,1,0.316,1,0,1
9tpri3k3e27yxjljkpbnjun0,2,154,Lose,No-Go,0,0,,1,0,0
9tpri3k3e27yxjljkpbnjun0,2,155,Lose,Go,1,0,,0,0,-1
9tpri3k3e27yxjljkpbnjun0,2,156,Win,No-Go,0,1,0.459,0,0,0
9tpri3k3e27yxjljkpbnjun0,2,157,Lose,Go,1,0,,0,1,0
9tpri3k3e27yxjljkpbnjun0,2,158,Lose,No-Go,0,0,,1,1,-1
9tpri3k3e27yxjljkpbnjun0,2,159,Win,No-Go,0,1,0.407,0,0,0
9tpri3k3e27yxjljkpbnjun0,2,160,Win,Go,1,1,0.606,1,1,0
e0lmmv26e6b9vxril9e8qspl,1,1,Win,No-Go,0,1,0.423,0,0,0
e0lmmv26e6b9vxril9e8qspl,1,2,Lose,Go,1,1,0.866,1,0,0
e0lmmv26e6b9vxril9e8qspl,1,3,Lose,No-Go,0,1,0.679,0,0,-1
e0lmmv26e6b9vxril9e8qspl,1,4,Win,Go,1,1,0.471,1,0,1
e0lmmv26e6b9vxril9e8qspl,1,5,Lose,Go,1,1,0.737,1,1,-1
e0lmmv26e6b9vxril9e8qspl,1,6,Lose,No-Go,0,1,0.798,0,0,-1
e0lmmv26e6b9vxril9e8qspl,1,7,Win,Go,1,0,,0,0,0
e0lmmv26e6b9vxril9e8qspl,1,8,Win,No-Go,0,0,,1,0,1
e0lmmv26e6b9vxril9e8qspl,1,9,Win,Go,1,1,0.419,1,0,1
e0lmmv26e6b9vxril9e8qspl,1,10,Lose,Go,1,1,0.704,1,0,0
e0lmmv26e6b9vxril9e8qspl,1,11,Win,No-Go,0,0,,1,0,1
e0lmmv26e6b9vxril9e8qspl,1,12,Lose,No-Go,0,0,,1,0,0
e0lmmv26e6b9vxril9e8qspl,1,13,Win,Go,1,1,0.448,1,0,1
e0lmmv26e6b9vxril9e8qspl,1,14,Win,No-Go,0,0,,1,0,1
e0lmmv26e6b9vxril9e8qspl,1,15,Lose,Go,1,1,0.526,1,0,0
e0lmmv26e6b9vxril9e8qspl,1,16,Lose,No-Go,0,0,,1,1,-1
e0lmmv26e6b9vxril9e8qspl,1,17,Win,Go,1,1,0.429,1,1,0
e0lmmv26e6b9vxril9e8qspl,1,18,Lose,Go,1,1,0.523,1,0,0
e0lmmv26e6b9vxril9e8qspl,1,19,Win,No-Go,0,0,,1,1,0
e0lmmv26e6b9vxril9e8qspl,1,20,Lose,No-Go,0,0,,1,0,0
e0lmmv26e6b9vxril9e8qspl,1,21,Lose,No-Go,0,0,,1,0,0
e0lmmv26e6b9vxril9e8qspl,1,22,Win,No-Go,0,0,,1,0,1
e0lmmv26e6b9vxril9e8qspl,1,23,Win,Go,1,1,0.396,1,0,1
e0lmmv26e6b9vxril9e8qspl,1,24,Lose,Go,1,1,0.448,1,0,0
e0lmmv26e6b9vxril9e8qspl,1,25,Lose,No-Go,0,0,,1,0,0
e0lmmv26e6b9vxril9e8qspl,1,26,Win,Go,1,1,0.372,1,0,1
e0lmmv26e6b9vxril9e8qspl,1,27,Lose,Go,1,1,0.415,1,0,0
e0lmmv26e6b9vxril9e8qspl,1,28,Win,No-Go,0,0,,1,0,1
e0lmmv26e6b9vxril9e8qspl,1,29,Lose,Go,1,1,0.37,1,0,0
e0lmmv26e6b9vxril9e8qspl,1,30,Win,No-Go,0,0,,1,1,0
e0lmmv26e6b9vxril9e8qspl,1,31,Win,Go,1,1,0.328,1,1,0
e0lmmv26e6b9vxril9e8qspl,1,32,Lose,No-Go,0,0,,1,0,0
e0lmmv26e6b9vxril9e8qspl,1,33,Lose,No-Go,0,0,,1,0,0
e0lmmv26e6b9vxril9e8qspl,1,34,Win,No-Go,0,1,0.777,0,0,0
e0lmmv26e6b9vxril9e8qspl,1,35,Win,Go,1,1,0.335,1,0,1
e0lmmv26e6b9vxril9e8qspl,1,36,Lose,Go,1,1,0.416,1,1,-1
e0lmmv26e6b9vxril9e8qspl,1,37,Lose,No-Go,0,0,,1,1,-1
e0lmmv26e6b9vxril9e8qspl,1,38,Lose,Go,1,1,0.38,1,0,0
e0lmmv26e6b9vxril9e8qspl,1,39,Win,Go,1,1,0.315,1,0,1
e0lmmv26e6b9vxril9e8qspl,1,40,Win,No-Go,0,0,,1,0,1
e0lmmv26e6b9vxril9e8qspl,1,41,Lose,Go,1,1,0.397,1,1,-1
e0lmmv26e6b9vxril9e8qspl,1,42,Win,No-Go,0,0,,1,0,1
e0lmmv26e6b9vxril9e8qspl,1,43,Lose,No-Go,0,0,,1,0,0
e0lmmv26e6b9vxril9e8qspl,1,44,Win,Go,1,1,0.382,1,0,1
e0lmmv26e6b9vxril9e8qspl,1,45,Lose,No-Go,0,0,,1,0,0
e0lmmv26e6b9vxril9e8qspl,1,46,Win,No-Go,0,0,,1,1,0
e0lmmv26e6b9vxril9e8qspl,1,47,Lose,Go,1,1,0.405,1,0,0
e0lmmv26e6b9vxril9e8qspl,1,48,Win,Go,1,1,0.404,1,0,1
e0lmmv26e6b9vxril9e8qspl,1,49,Lose,No-Go,0,0,,1,0,0
e0lmmv26e6b9vxril9e8qspl,1,50,Win,Go,1,1,0.288,1,0,1
e0lmmv26e6b9vxril9e8qspl,1,51,Win,No-Go,0,0,,1,0,1
e0lmmv26e6b9vxril9e8qspl,1,52,Lose,Go,1,1,0.401,1,0,0
e0lmmv26e6b9vxril9e8qspl,1,53,Win,No-Go,0,0,,1,0,1
e0lmmv26e6b9vxril9e8qspl,1,54,Lose,Go,1,1,0.625,1,0,0
e0lmmv26e6b9vxril9e8qspl,1,55,Lose,No-Go,0,0,,1,0,0
e0lmmv26e6b9vxril9e8qspl,1,56,Win,Go,1,1,0.304,1,0,1
e0lmmv26e6b9vxril9e8qspl,1,57,Win,Go,1,1,0.373,1,1,0
e0lmmv26e6b9vxril9e8qspl,1,58,Lose,Go,1,1,0.307,1,0,0
e0lmmv26e6b9vxril9e8qspl,1,59,Lose,No-Go,0,0,,1,1,-1
e0lmmv26e6b9vxril9e8qspl,1,60,Win,No-Go,0,0,,1,0,1
e0lmmv26e6b9vxril9e8qspl,1,61,Win,No-Go,0,0,,1,0,1
e0lmmv26e6b9vxril9e8qspl,1,62,Lose,Go,1,1,0.466,1,0,0
e0lmmv26e6b9vxril9e8qspl,1,63,Lose,No-Go,0,0,,1,0,0
e0lmmv26e6b9vxril9e8qspl,1,64,Win,Go,1,1,0.36,1,0,1
e0lmmv26e6b9vxril9e8qspl,1,65,Win,No-Go,0,0,,1,0,1
e0lmmv26e6b9vxril9e8qspl,1,66,Lose,No-Go,0,0,,1,0,0
e0lmmv26e6b9vxril9e8qspl,1,67,Win,Go,1,1,0.295,1,1,0
e0lmmv26e6b9vxril9e8qspl,1,68,Lose,Go,1,1,0.373,1,0,0
e0lmmv26e6b9vxril9e8qspl,1,69,Lose,No-Go,0,0,,1,1,-1
e0lmmv26e6b9vxril9e8qspl,1,70,Lose,Go,1,1,0.437,1,0,0
e0lmmv26e6b9vxril9e8qspl,1,71,Win,Go,1,1,0.393,1,0,1
e0lmmv26e6b9vxril9e8qspl,1,72,Win,No-Go,0,0,,1,0,1
e0lmmv26e6b9vxril9e8qspl,1,73,Win,No-Go,0,0,,1,0,1
e0lmmv26e6b9vxril9e8qspl,1,74,Lose,Go,1,1,0.516,1,1,-1
e0lmmv26e6b9vxril9e8qspl,1,75,Win,Go,1,1,0.364,1,0,1
e0lmmv26e6b9vxril9e8qspl,1,76,Lose,No-Go,0,0,,1,0,0
e0lmmv26e6b9vxril9e8qspl,1,77,Win,No-Go,0,0,,1,1,0
e0lmmv26e6b9vxril9e8qspl,1,78,Win,Go,1,1,0.473,1,0,1
e0lmmv26e6b9vxril9e8qspl,1,79,Lose,No-Go,0,0,,1,0,0
e0lmmv26e6b9vxril9e8qspl,1,80,Lose,Go,1,1,0.37,1,0,0
e0lmmv26e6b9vxril9e8qspl,2,81,Win,Go,1,1,0.367,1,0,1
e0lmmv26e6b9vxril9e8qspl,2,82,Win,No-Go,0,1,0.969,0,0,0
e0lmmv26e6b9vxril9e8qspl,2,83,Lose,No-Go,0,1,0.717,0,0,-1
e0lmmv26e6b9vxril9e8qspl,2,84,Lose,Go,1,1,0.521,1,0,0
e0lmmv26e6b9vxril9e8qspl,2,85,Win,Go,1,1,0.414,1,0,1
e0lmmv26e6b9vxril9e8qspl,2,86,Win,No-Go,0,1,0.899,0,0,0
e0lmmv26e6b9vxril9e8qspl,2,87,Lose,Go,1,0,,0,0,-1
e0lmmv26e6b9vxril9e8qspl,2,88,Lose,No-Go,0,0,,1,0,0
e0lmmv26e6b9vxril9e8qspl,2,89,Lose,Go,1,1,0.547,1,1,-1
e0lmmv26e6b9vxril9e8qspl,2,90,Win,Go,1,1,0.639,1,1,0
e0lmmv26e6b9vxril9e8qspl,2,91,Win,No-Go,0,0,,1,0,1
e0lmmv26e6b9vxril9e8qspl,2,92,Lose,No-Go,0,0,,1,0,0
e0lmmv26e6b9vxril9e8qspl,2,93,Lose,No-Go,0,0,,1,0,0
e0lmmv26e6b9vxril9e8qspl,2,94,Win,Go,1,1,0.39,1,0,1
e0lmmv26e6b9vxril9e8qspl,2,95,Lose,Go,1,1,0.555,1,0,0
e0lmmv26e6b9vxril9e8qspl,2,96,Win,No-Go,0,0,,1,1,0
e0lmmv26e6b9vxril9e8qspl,2,97,Lose,No-Go,0,0,,1,1,-1
e0lmmv26e6b9vxril9e8qspl,2,98,Win,Go,1,1,0.304,1,0,1
e0lmmv26e6b9vxril9e8qspl,2,99,Lose,Go,1,1,0.521,1,0,0
e0lmmv26e6b9vxril9e8qspl,2,100,Win,No-Go,0,0,,1,0,1
e0lmmv26e6b9vxril9e8qspl,2,101,Lose,No-Go,0,0,,1,0,0
e0lmmv26e6b9vxril9e8qspl,2,102,Lose,Go,1,1,0.472,1,0,0
e0lmmv26e6b9vxril9e8qspl,2,103,Win,Go,1,1,0.2,1,1,0
e0lmmv26e6b9vxril9e8qspl,2,104,Win,No-Go,0,0,,1,1,0
e0lmmv26e6b9vxril9e8qspl,2,105,Lose,Go,1,1,0.477,1,0,0
e0lmmv26e6b9vxril9e8qspl,2,106,Win,Go,1,1,0.332,1,0,1
e0lmmv26e6b9vxril9e8qspl,2,107,Win,No-Go,0,0,,1,0,1
e0lmmv26e6b9vxril9e8qspl,2,108,Lose,No-Go,0,0,,1,0,0
e0lmmv26e6b9vxril9e8qspl,2,109,Win,No-Go,0,0,,1,0,1
e0lmmv26e6b9vxril9e8qspl,2,110,Lose,No-Go,0,0,,1,0,0
e0lmmv26e6b9vxril9e8qspl,2,111,Win,Go,1,1,0.303,1,0,1
e0lmmv26e6b9vxril9e8qspl,2,112,Lose,Go,1,1,0.473,1,0,0
e0lmmv26e6b9vxril9e8qspl,2,113,Win,No-Go,0,0,,1,0,1
e0lmmv26e6b9vxril9e8qspl,2,114,Lose,No-Go,0,0,,1,0,0
e0lmmv26e6b9vxril9e8qspl,2,115,Lose,Go,1,1,0.472,1,1,-1
e0lmmv26e6b9vxril9e8qspl,2,116,Win,Go,1,1,0.398,1,0,1
e0lmmv26e6b9vxril9e8qspl,2,117,Lose,No-Go,0,0,,1,1,-1
e0lmmv26e6b9vxril9e8qspl,2,118,Lose,Go,1,1,0.435,1,0,0
e0lmmv26e6b9vxril9e8qspl,2,119,Win,No-Go,0,0,,1,0,1
e0lmmv26e6b9vxril9e8qspl,2,120,Win,Go,1,1,0.37,1,0,1
e0lmmv26e6b9vxril9e8qspl,2,121,Win,No-Go,0,0,,1,0,1
e0lmmv26e6b9vxril9e8qspl,2,122,Lose,No-Go,0,0,,1,0,0
e0lmmv26e6b9vxril9e8qspl,2,123,Lose,Go,1,1,0.275,1,0,0
e0lmmv26e6b9vxril9e8qspl,2,124,Win,Go,1,1,0.233,1,1,0
e0lmmv26e6b9vxril9e8qspl,2,125,Lose,Go,1,1,0.424,1,1,-1
e0lmmv26e6b9vxril9e8qspl,2,126,Lose,No-Go,0,0,,1,0,0
e0lmmv26e6b9vxril9e8qspl,2,127,Win,No-Go,0,0,,1,0,1
e0lmmv26e6b9vxril9e8qspl,2,128,Win,Go,1,1,0.435,1,0,1
e0lmmv26e6b9vxril9e8qspl,2,129,Lose,No-Go,0,0,,1,0,0
e0lmmv26e6b9vxril9e8qspl,2,130,Win,Go,1,1,0.238,1,0,1
e0lmmv26e6b9vxril9e8qspl,2,131,Lose,Go,1,1,0.5,1,0,0
e0lmmv26e6b9vxril9e8qspl,2,132,Win,No-Go,0,0,,1,0,1
e0lmmv26e6b9vxril9e8qspl,2,133,Lose,No-Go,0,0,,1,0,0
e0lmmv26e6b9vxril9e8qspl,2,134,Win,Go,1,1,0.286,1,0,1
e0lmmv26e6b9vxril9e8qspl,2,135,Lose,Go,1,1,0.249,1,0,0
e0lmmv26e6b9vxril9e8qspl,2,136,Win,No-Go,0,0,,1,0,1
e0lmmv26e6b9vxril9e8qspl,2,137,Lose,No-Go,0,0,,1,1,-1
e0lmmv26e6b9vxril9e8qspl,2,138,Win,Go,1,1,0.334,1,0,1
e0lmmv26e6b9vxril9e8qspl,2,139,Lose,Go,1,1,0.352,1,0,0
e0lmmv26e6b9vxril9e8qspl,2,140,Win,No-Go,0,0,,1,1,0
e0lmmv26e6b9vxril9e8qspl,2,141,Win,No-Go,0,0,,1,1,0
e0lmmv26e6b9vxril9e8qspl,2,142,Lose,Go,1,1,0.358,1,0,0
e0lmmv26e6b9vxril9e8qspl,2,143,Win,Go,1,1,0.366,1,0,1
e0lmmv26e6b9vxril9e8qspl,2,144,Lose,No-Go,0,0,,1,0,0
e0lmmv26e6b9vxril9e8qspl,2,145,Lose,No-Go,0,0,,1,0,0
e0lmmv26e6b9vxril9e8qspl,2,146,Win,Go,1,1,0.309,1,0,1
e0lmmv26e6b9vxril9e8qspl,2,147,Lose,Go,1,1,0.364,1,0,0
e0lmmv26e6b9vxril9e8qspl,2,148,Win,No-Go,0,0,,1,0,1
e0lmmv26e6b9vxril9e8qspl,2,149,Win,No-Go,0,0,,1,0,1
e0lmmv26e6b9vxril9e8qspl,2,150,Lose,No-Go,0,0,,1,0,0
e0lmmv26e6b9vxril9e8qspl,2,151,Lose,Go,1,1,0.36,1,0,0
e0lmmv26e6b9vxril9e8qspl,2,152,Win,Go,1,1,0.268,1,0,1
e0lmmv26e6b9vxril9e8qspl,2,153,Win,Go,1,1,0.276,1,0,1
e0lmmv26e6b9vxril9e8qspl,2,154,Lose,No-Go,0,0,,1,0,0
e0lmmv26e6b9vxril9e8qspl,2,155,Lose,Go,1,1,0.343,1,0,0
e0lmmv26e6b9vxril9e8qspl,2,156,Win,No-Go,0,0,,1,0,1
e0lmmv26e6b9vxril9e8qspl,2,157,Lose,Go,1,1,0.383,1,1,-1
e0lmmv26e6b9vxril9e8qspl,2,158,Lose,No-Go,0,0,,1,1,-1
e0lmmv26e6b9vxril9e8qspl,2,159,Win,No-Go,0,0,,1,0,1
e0lmmv26e6b9vxril9e8qspl,2,160,Win,Go,1,1,0.489,1,1,0
ejfcjg7wcfv8d8jl97hj8ds9,1,1,Win,No-Go,0,1,0.6,0,0,0
ejfcjg7wcfv8d8jl97hj8ds9,1,2,Lose,Go,1,1,0.21,1,0,0
ejfcjg7wcfv8d8jl97hj8ds9,1,3,Lose,No-Go,0,0,,1,0,0
ejfcjg7wcfv8d8jl97hj8ds9,1,4,Win,Go,1,1,0.365,1,0,1
ejfcjg7wcfv8d8jl97hj8ds9,1,5,Lose,Go,1,0,,0,1,0
ejfcjg7wcfv8d8jl97hj8ds9,1,6,Lose,No-Go,0,0,,1,0,0
ejfcjg7wcfv8d8jl97hj8ds9,1,7,Win,Go,1,1,0.295,1,0,1
ejfcjg7wcfv8d8jl97hj8ds9,1,8,Win,No-Go,0,1,0.395,0,0,0
ejfcjg7wcfv8d8jl97hj8ds9,1,9,Win,Go,1,1,0.282,1,0,1
ejfcjg7wcfv8d8jl97hj8ds9,1,10,Lose,Go,1,0,,0,0,-1
ejfcjg7wcfv8d8jl97hj8ds9,1,11,Win,No-Go,0,1,0.259,0,0,0
ejfcjg7wcfv8d8jl97hj8ds9,1,12,Lose,No-Go,0,1,0.224,0,0,-1
ejfcjg7wcfv8d8jl97hj8ds9,1,13,Win,Go,1,1,0.68,1,0,1
ejfcjg7wcfv8d8jl97hj8ds9,1,14,Win,No-Go,0,1,1.17,0,0,0
ejfcjg7wcfv8d8jl97hj8ds9,1,15,Lose,Go,1,0,,0,0,-1
ejfcjg7wcfv8d8jl97hj8ds9,1,16,Lose,No-Go,0,1,0.142,0,1,0
ejfcjg7wcfv8d8jl97hj8ds9,1,17,Win,Go,1,1,0.359,1,1,0
ejfcjg7wcfv8d8jl97hj8ds9,1,18,Lose,Go,1,0,,0,0,-1
ejfcjg7wcfv8d8jl97hj8ds9,1,19,Win,No-Go,0,1,0.21,0,1,1
ejfcjg7wcfv8d8jl97hj8ds9,1,20,Lose,No-Go,0,0,,1,0,0
ejfcjg7wcfv8d8jl97hj8ds9,1,21,Lose,No-Go,0,0,,1,0,0
ejfcjg7wcfv8d8jl97hj8ds9,1,22,Win,No-Go,0,1,0.497,0,0,0
ejfcjg7wcfv8d8jl97hj8ds9,1,23,Win,Go,1,1,0.449,1,0,1
ejfcjg7wcfv8d8jl97hj8ds9,1,24,Lose,Go,1,0,,0,0,-1
ejfcjg7wcfv8d8jl97hj8ds9,1,25,Lose,No-Go,0,0,,1,0,0
ejfcjg7wcfv8d8jl97hj8ds9,1,26,Win,Go,1,1,0.23,1,0,1
ejfcjg7wcfv8d8jl97hj8ds9,1,27,Lose,Go,1,0,,0,0,-1
ejfcjg7wcfv8d8jl97hj8ds9,1,28,Win,No-Go,0,1,0.328,0,0,0
ejfcjg7wcfv8d8jl97hj8ds9,1,29,Lose,Go,1,0,,0,0,-1
ejfcjg7wcfv8d8jl97hj8ds9,1,30,Win,No-Go,0,1,0.163,0,1,1
ejfcjg7wcfv8d8jl97hj8ds9,1,31,Win,Go,1,1,0.46,1,1,0
ejfcjg7wcfv8d8jl97hj8ds9,1,32,Lose,No-Go,0,0,,1,0,0
ejfcjg7wcfv8d8jl97hj8ds9,1,33,Lose,No-Go,0,0,,1,0,0
ejfcjg7wcfv8d8jl97hj8ds9,1,34,Win,No-Go,0,1,0.176,0,0,0
ejfcjg7wcfv8d8jl97hj8ds9,1,35,Win,Go,1,1,0.531,1,0,1
ejfcjg7wcfv8d8jl97hj8ds9,1,36,Lose,Go,1,0,,0,1,0
ejfcjg7wcfv8d8jl97hj8ds9,1,37,Lose,No-Go,0,0,,1,1,-1
ejfcjg7wcfv8d8jl97hj8ds9,1,38,Lose,Go,1,0,,0,0,-1
ejfcjg7wcfv8d8jl97hj8ds9,1,39,Win,Go,1,1,1.212,1,0,1
ejfcjg7wcfv8d8jl97hj8ds9,1,40,Win,No-Go,0,1,1.12,0,0,0
ejfcjg7wcfv8d8jl97hj8ds9,1,41,Lose,Go,1,0,,0,1,0
ejfcjg7wcfv8d8jl97hj8ds9,1,42,Win,No-Go,0,1,0.542,0,0,0
ejfcjg7wcfv8d8jl97hj8ds9,1,43,Lose,No-Go,0,0,,1,0,0
ejfcjg7wcfv8d8jl97hj8ds9,1,44,Win,Go,1,1,0.445,1,0,1
ejfcjg7wcfv8d8jl97hj8ds9,1,45,Lose,No-Go,0,0,,1,0,0
ejfcjg7wcfv8d8jl97hj8ds9,1,46,Win,No-Go,0,0,,1,1,0
ejfcjg7wcfv8d8jl97hj8ds9,1,47,Lose,Go,1,0,,0,0,-1
ejfcjg7wcfv8d8jl97hj8ds9,1,48,Win,Go,1,0,,0,0,0
ejfcjg7wcfv8d8jl97hj8ds9,1,49,Lose,No-Go,0,0,,1,0,0
ejfcjg7wcfv8d8jl97hj8ds9,1,50,Win,Go,1,0,,0,0,0
ejfcjg7wcfv8d8jl97hj8ds9,1,51,Win,No-Go,0,0,,1,0,1
ejfcjg7wcfv8d8jl97hj8ds9,1,52,Lose,Go,1,0,,0,0,-1
ejfcjg7wcfv8d8jl97hj8ds9,1,53,Win,No-Go,0,0,,1,0,1
ejfcjg7wcfv8d8jl97hj8ds9,1,54,Lose,Go,1,0,,0,0,-1
ejfcjg7wcfv8d8jl97hj8ds9,1,55,Lose,No-Go,0,0,,1,0,0
ejfcjg7wcfv8d8jl97hj8ds9,1,56,Win,Go,1,1,0.417,1,0,1
ejfcjg7wcfv8d8jl97hj8ds9,1,57,Win,Go,1,0,,0,1,1
ejfcjg7wcfv8d8jl97hj8ds9,1,58,Lose,Go,1,0,,0,0,-1
ejfcjg7wcfv8d8jl97hj8ds9,1,59,Lose,No-Go,0,0,,1,1,-1
ejfcjg7wcfv8d8jl97hj8ds9,1,60,Win,No-Go,0,1,0.794,0,0,0
ejfcjg7wcfv8d8jl97hj8ds9,1,61,Win,No-Go,0,1,0.847,0,0,0
ejfcjg7wcfv8d8jl97hj8ds9,1,62,Lose,Go,1,0,,0,0,-1
ejfcjg7wcfv8d8jl97hj8ds9,1,63,Lose,No-Go,0,0,,1,0,0
ejfcjg7wcfv8d8jl97hj8ds9,1,64,Win,Go,1,1,0.324,1,0,1
ejfcjg7wcfv8d8jl97hj8ds9,1,65,Win,No-Go,0,1,0.498,0,0,0
ejfcjg7wcfv8d8jl97hj8ds9,1,66,Lose,No-Go,0,0,,1,0,0
ejfcjg7wcfv8d8jl97hj8ds9,1,67,Win,Go,1,1,0.622,1,1,0
ejfcjg7wcfv8d8jl97hj8ds9,1,68,Lose,Go,1,0,,0,0,-1
ejfcjg7wcfv8d8jl97hj8ds9,1,69,Lose,No-Go,0,0,,1,1,-1
ejfcjg7wcfv8d8jl97hj8ds9,1,70,Lose,Go,1,0,,0,0,-1
ejfcjg7wcfv8d8jl97hj8ds9,1,71,Win,Go,1,1,0.243,1,0,1
ejfcjg7wcfv8d8jl97hj8ds9,1,72,Win,No-Go,0,0,,1,0,1
ejfcjg7wcfv8d8jl97hj8ds9,1,73,Win,No-Go,0,0,,1,0,1
ejfcjg7wcfv8d8jl97hj8ds9,1,74,Lose,Go,1,0,,0,1,0
ejfcjg7wcfv8d8jl97hj8ds9,1,75,Win,Go,1,0,,0,0,0
ejfcjg7wcfv8d8jl97hj8ds9,1,76,Lose,No-Go,0,0,,1,0,0
ejfcjg7wcfv8d8jl97hj8ds9,1,77,Win,No-Go,0,0,,1,1,0
ejfcjg7wcfv8d8jl97hj8ds9,1,78,Win,Go,1,1,0.404,1,0,1
ejfcjg7wcfv8d8jl97hj8ds9,1,79,Lose,No-Go,0,0,,1,0,0
ejfcjg7wcfv8d8jl97hj8ds9,1,80,Lose,Go,1,0,,0,0,-1
ejfcjg7wcfv8d8jl97hj8ds9,2,81,Win,Go,1,1,0.357,1,0,1
ejfcjg7wcfv8d8jl97hj8ds9,2,82,Win,No-Go,0,0,,1,0,1
ejfcjg7wcfv8d8jl97hj8ds9,2,83,Lose,No-Go,0,0,,1,0,0
ejfcjg7wcfv8d8jl97hj8ds9,2,84,Lose,Go,1,1,0.546,1,0,0
ejfcjg7wcfv8d8jl97hj8ds9,2,85,Win,Go,1,0,,0,0,0
ejfcjg7wcfv8d8jl97hj8ds9,2,86,Win,No-Go,0,1,0.53,0,0,0
ejfcjg7wcfv8d8jl97hj8ds9,2,87,Lose,Go,1,0,,0,0,-1
ejfcjg7wcfv8d8jl97hj8ds9,2,88,Lose,No-Go,0,0,,1,0,0
ejfcjg7wcfv8d8jl97hj8ds9,2,89,Lose,Go,1,0,,0,1,0
ejfcjg7wcfv8d8jl97hj8ds9,2,90,Win,Go,1,1,0.265,1,1,0
ejfcjg7wcfv8d8jl97hj8ds9,2,91,Win,No-Go,0,0,,1,0,1
ejfcjg7wcfv8d8jl97hj8ds9,2,92,Lose,No-Go,0,0,,1,0,0
ejfcjg7wcfv8d8jl97hj8ds9,2,93,Lose,No-Go,0,1,0.653,0,0,-1
ejfcjg7wcfv8d8jl97hj8ds9,2,94,Win,Go,1,0,,0,0,0
ejfcjg7wcfv8d8jl97hj8ds9,2,95,Lose,Go,1,0,,0,0,-1
ejfcjg7wcfv8d8jl97hj8ds9,2,96,Win,No-Go,0,1,0.375,0,1,1
ejfcjg7wcfv8d8jl97hj8ds9,2,97,Lose,No-Go,0,0,,1,1,-1
ejfcjg7wcfv8d8jl97hj8ds9,2,98,Win,Go,1,0,,0,0,0
ejfcjg7wcfv8d8jl97hj8ds9,2,99,Lose,Go,1,0,,0,0,-1
ejfcjg7wcfv8d8jl97hj8ds9,2,100,Win,No-Go,0,1,0.475,0,0,0
ejfcjg7wcfv8d8jl97hj8ds9,2,101,Lose,No-Go,0,0,,1,0,0
ejfcjg7wcfv8d8jl97hj8ds9,2,102,Lose,Go,1,0,,0,0,-1
ejfcjg7wcfv8d8jl97hj8ds9,2,103,Win,Go,1,1,0.506,1,1,0
ejfcjg7wcfv8d8jl97hj8ds9,2,104,Win,No-Go,0,1,0.603,0,1,1
ejfcjg7wcfv8d8jl97hj8ds9,2,105,Lose,Go,1,1,1.457,1,0,0
ejfcjg7wcfv8d8jl97hj8ds9,2,106,Win,Go,1,1,0.268,1,0,1
ejfcjg7wcfv8d8jl97hj8ds9,2,107,Win,No-Go,0,0,,1,0,1
ejfcjg7wcfv8d8jl97hj8ds9,2,108,Lose,No-Go,0,0,,1,0,0
ejfcjg7wcfv8d8jl97hj8ds9,2,109,Win,No-Go,0,1,0.618,0,0,0
ejfcjg7wcfv8d8jl97hj8ds9,2,110,Lose,No-Go,0,0,,1,0,0
ejfcjg7wcfv8d8jl97hj8ds9,2,111,Win,Go,1,1,0.297,1,0,1
ejfcjg7wcfv8d8jl97hj8ds9,2,112,Lose,Go,1,0,,0,0,-1
ejfcjg7wcfv8d8jl97hj8ds9,2,113,Win,No-Go,0,1,0.388,0,0,0
ejfcjg7wcfv8d8jl97hj8ds9,2,114,Lose,No-Go,0,0,,1,0,0
ejfcjg7wcfv8d8jl97hj8ds9,2,115,Lose,Go,1,0,,0,1,0
ejfcjg7wcfv8d8jl97hj8ds9,2,116,Win,Go,1,1,0.343,1,0,1
ejfcjg7wcfv8d8jl97hj8ds9,2,117,Lose,No-Go,0,0,,1,1,-1
ejfcjg7wcfv8d8jl97hj8ds9,2,118,Lose,Go,1,0,,0,0,-1
ejfcjg7wcfv8d8jl97hj8ds9,2,119,Win,No-Go,0,1,0.355,0,0,0
ejfcjg7wcfv8d8jl97hj8ds9,2,120,Win,Go,1,1,0.315,1,0,1
ejfcjg7wcfv8d8jl97hj8ds9,2,121,Win,No-Go,0,1,0.435,0,0,0
ejfcjg7wcfv8d8jl97hj8ds9,2,122,Lose,No-Go,0,0,,1,0,0
ejfcjg7wcfv8d8jl97hj8ds9,2,123,Lose,Go,1,0,,0,0,-1
ejfcjg7wcfv8d8jl97hj8ds9,2,124,Win,Go,1,0,,0,1,1
ejfcjg7wcfv8d8jl97hj8ds9,2,125,Lose,Go,1,0,,0,1,0
ejfcjg7wcfv8d8jl97hj8ds9,2,126,Lose,No-Go,0,0,,1,0,0
ejfcjg7wcfv8d8jl97hj8ds9,2,127,Win,No-Go,0,1,0.652,0,0,0
ejfcjg7wcfv8d8jl97hj8ds9,2,128,Win,Go,1,0,,0,0,0
ejfcjg7wcfv8d8jl97hj8ds9,2,129,Lose,No-Go,0,0,,1,0,0
ejfcjg7wcfv8d8jl97hj8ds9,2,130,Win,Go,1,0,,0,0,0
ejfcjg7wcfv8d8jl97hj8ds9,2,131,Lose,Go,1,0,,0,0,-1
ejfcjg7wcfv8d8jl97hj8ds9,2,132,Win,No-Go,0,0,,1,0,1
ejfcjg7wcfv8d8jl97hj8ds9,2,133,Lose,No-Go,0,0,,1,0,0
ejfcjg7wcfv8d8jl97hj8ds9,2,134,Win,Go,1,0,,0,0,0
ejfcjg7wcfv8d8jl97hj8ds9,2,135,Lose,Go,1,0,,0,0,-1
ejfcjg7wcfv8d8jl97hj8ds9,2,136,Win,No-Go,0,1,0.43,0,0,0
ejfcjg7wcfv8d8jl97hj8ds9,2,137,Lose,No-Go,0,0,,1,1,-1
ejfcjg7wcfv8d8jl97hj8ds9,2,138,Win,Go,1,1,0.301,1,0,1
ejfcjg7wcfv8d8jl97hj8ds9,2,139,Lose,Go,1,0,,0,0,-1
ejfcjg7wcfv8d8jl97hj8ds9,2,140,Win,No-Go,0,1,0.24,0,1,1
ejfcjg7wcfv8d8jl97hj8ds9,2,141,Win,No-Go,0,0,,1,1,0
ejfcjg7wcfv8d8jl97hj8ds9,2,142,Lose,Go,1,0,,0,0,-1
ejfcjg7wcfv8d8jl97hj8ds9,2,143,Win,Go,1,0,,0,0,0
ejfcjg7wcfv8d8jl97hj8ds9,2,144,Lose,No-Go,0,0,,1,0,0
ejfcjg7wcfv8d8jl97hj8ds9,2,145,Lose,No-Go,0,0,,1,0,0
ejfcjg7wcfv8d8jl97hj8ds9,2,146,Win,Go,1,0,,0,0,0
ejfcjg7wcfv8d8jl97hj8ds9,2,147,Lose,Go,1,0,,0,0,-1
ejfcjg7wcfv8d8jl97hj8ds9,2,148,Win,No-Go,0,0,,1,0,1
ejfcjg7wcfv8d8jl97hj8ds9,2,149,Win,No-Go,0,0,,1,0,1
ejfcjg7wcfv8d8jl97hj8ds9,2,150,Lose,No-Go,0,0,,1,0,0
ejfcjg7wcfv8d8jl97hj8ds9,2,151,Lose,Go,1,0,,0,0,-1
ejfcjg7wcfv8d8jl97hj8ds9,2,152,Win,Go,1,0,,0,0,0
ejfcjg7wcfv8d8jl97hj8ds9,2,153,Win,Go,1,0,,0,0,0
ejfcjg7wcfv8d8jl97hj8ds9,2,154,Lose,No-Go,0,0,,1,0,0
ejfcjg7wcfv8d8jl97hj8ds9,2,155,Lose,Go,1,0,,0,0,-1
ejfcjg7wcfv8d8jl97hj8ds9,2,156,Win,No-Go,0,0,,1,0,1
ejfcjg7wcfv8d8jl97hj8ds9,2,157,Lose,Go,1,0,,0,1,0
ejfcjg7wcfv8d8jl97hj8ds9,2,158,Lose,No-Go,0,0,,1,1,-1
ejfcjg7wcfv8d8jl97hj8ds9,2,159,Win,No-Go,0,0,,1,0,1
ejfcjg7wcfv8d8jl97hj8ds9,2,160,Win,Go,1,0,,0,1,1
gm9rz0ez2ar3ix58qj40i6zy,1,1,Win,No-Go,0,1,1.018,0,0,0
gm9rz0ez2ar3ix58qj40i6zy,1,2,Lose,Go,1,0,,0,0,-1
gm9rz0ez2ar3ix58qj40i6zy,1,3,Lose,No-Go,0,1,0.988,0,0,-1
gm9rz0ez2ar3ix58qj40i6zy,1,4,Win,Go,1,1,0.977,1,0,1
gm9rz0ez2ar3ix58qj40i6zy,1,5,Lose,Go,1,0,,0,1,0
gm9rz0ez2ar3ix58qj40i6zy,1,6,Lose,No-Go,0,0,,1,0,0
gm9rz0ez2ar3ix58qj40i6zy,1,7,Win,Go,1,1,0.838,1,0,1
gm9rz0ez2ar3ix58qj40i6zy,1,8,Win,No-Go,0,1,0.521,0,0,0
gm9rz0ez2ar3ix58qj40i6zy,1,9,Win,Go,1,1,0.574,1,0,1
gm9rz0ez2ar3ix58qj40i6zy,1,10,Lose,Go,1,0,,0,0,-1
gm9rz0ez2ar3ix58qj40i6zy,1,11,Win,No-Go,0,1,0.647,0,0,0
gm9rz0ez2ar3ix58qj40i6zy,1,12,Lose,No-Go,0,0,,1,0,0
gm9rz0ez2ar3ix58qj40i6zy,1,13,Win,Go,1,1,0.479,1,0,1
gm9rz0ez2ar3ix58qj40i6zy,1,14,Win,No-Go,0,1,0.51,0,0,0
gm9rz0ez2ar3ix58qj40i6zy,1,15,Lose,Go,1,1,0.575,1,0,0
gm9rz0ez2ar3ix58qj40i6zy,1,16,Lose,No-Go,0,0,,1,1,-1
gm9rz0ez2ar3ix58qj40i6zy,1,17,Win,Go,1,1,0.495,1,1,0
gm9rz0ez2ar3ix58qj40i6zy,1,18,Lose,Go,1,0,,0,0,-1
gm9rz0ez2ar3ix58qj40i6zy,1,19,Win,No-Go,0,1,0.77,0,1,1
gm9rz0ez2ar3ix58qj40i6zy,1,20,Lose,No-Go,0,0,,1,0,0
gm9rz0ez2ar3ix58qj40i6zy,1,21,Lose,No-Go,0,1,0.67,0,0,-1
gm9rz0ez2ar3ix58qj40i6zy,1,22,Win,No-Go,0,1,0.44,0,0,0
gm9rz0ez2ar3ix58qj40i6zy,1,23,Win,Go,1,1,0.505,1,0,1
gm9rz0ez2ar3ix58qj40i6zy,1,24,Lose,Go,1,0,,0,0,-1
gm9rz0ez2ar3ix58qj40i6zy,1,25,Lose,No-Go,0,0,,1,0,0
gm9rz0ez2ar3ix58qj40i6zy,1,26,Win,Go,1,1,0.627,1,0,1
gm9rz0ez2ar3ix58qj40i6zy,1,27,Lose,Go,1,0,,0,0,-1
gm9rz0ez2ar3ix58qj40i6zy,1,28,Win,No-Go,0,1,0.981,0,0,0
gm9rz0ez2ar3ix58qj40i6zy,1,29,Lose,Go,1,1,0.667,1,0,0
gm9rz0ez2ar3ix58qj40i6zy,1,30,Win,No-Go,0,1,0.553,0,1,1
gm9rz0ez2ar3ix58qj40i6zy,1,31,Win,Go,1,1,0.684,1,1,0
gm9rz0ez2ar3ix58qj40i6zy,1,32,Lose,No-Go,0,1,0.691,0,0,-1
gm9rz0ez2ar3ix58qj40i6zy,1,33,Lose,No-Go,0,0,,1,0,0
gm9rz0ez2ar3ix58qj40i6zy,1,34,Win,No-Go,0,1,0.587,0,0,0
gm9rz0ez2ar3ix58qj40i6zy,1,35,Win,Go,1,1,0.55,1,0,1
gm9rz0ez2ar3ix58qj40i6zy,1,36,Lose,Go,1,0,,0,1,0
gm9rz0ez2ar3ix58qj40i6zy,1,37,Lose,No-Go,0,0,,1,1,-1
gm9rz0ez2ar3ix58qj40i6zy,1,38,Lose,Go,1,1,0.716,1,0,0
gm9rz0ez2ar3ix58qj40i6zy,1,39,Win,Go,1,1,0.514,1,0,1
gm9rz0ez2ar3ix58qj40i6zy,1,40,Win,No-Go,0,1,0.555,0,0,0
gm9rz0ez2ar3ix58qj40i6zy,1,41,Lose,Go,1,0,,0,1,0
gm9rz0ez2ar3ix58qj40i6zy,1,42,Win,No-Go,0,1,0.482,0,0,0
gm9rz0ez2ar3ix58qj40i6zy,1,43,Lose,No-Go,0,1,0.806,0,0,-1
gm9rz0ez2ar3ix58qj40i6zy,1,44,Win,Go,1,1,0.461,1,0,1
gm9rz0ez2ar3ix58qj40i6zy,1,45,Lose,No-Go,0,0,,1,0,0
gm9rz0ez2ar3ix58qj40i6zy,1,46,Win,No-Go,0,1,0.618,0,1,1
gm9rz0ez2ar3ix58qj40i6zy,1,47,Lose,Go,1,0,,0,0,-1
gm9rz0ez2ar3ix58qj40i6zy,1,48,Win,Go,1,1,0.562,1,0,1
gm9rz0ez2ar3ix58qj40i6zy,1,49,Lose,No-Go,0,0,,1,0,0
gm9rz0ez2ar3ix58qj40i6zy,1,50,Win,Go,1,1,0.589,1,0,1
gm9rz0ez2ar3ix58qj40i6zy,1,51,Win,No-Go,0,1,0.51,0,0,0
gm9rz0ez2ar3ix58qj40i6zy,1,52,Lose,Go,1,0,,0,0,-1
gm9rz0ez2ar3ix58qj40i6zy,1,53,Win,No-Go,0,1,0.459,0,0,0
gm9rz0ez2ar3ix58qj40i6zy,1,54,Lose,Go,1,1,0.64,1,0,0
gm9rz0ez2ar3ix58qj40i6zy,1,55,Lose,No-Go,0,0,,1,0,0
gm9rz0ez2ar3ix58qj40i6zy,1,56,Win,Go,1,1,0.4,1,0,1
gm9rz0ez2ar3ix58qj40i6zy,1,57,Win,Go,1,1,0.451,1,1,0
gm9rz0ez2ar3ix58qj40i6zy,1,58,Lose,Go,1,1,0.796,1,0,0
gm9rz0ez2ar3ix58qj40i6zy,1,59,Lose,No-Go,0,1,0.681,0,1,0
gm9rz0ez2ar3ix58qj40i6zy,1,60,Win,No-Go,0,1,0.476,0,0,0
gm9rz0ez2ar3ix58qj40i6zy,1,61,Win,No-Go,0,1,0.456,0,0,0
gm9rz0ez2ar3ix58qj40i6zy,1,62,Lose,Go,1,1,0.971,1,0,0
gm9rz0ez2ar3ix58qj40i6zy,1,63,Lose,No-Go,0,1,0.845,0,0,-1
gm9rz0ez2ar3ix58qj40i6zy,1,64,Win,Go,1,1,0.442,1,0,1
gm9rz0ez2ar3ix58qj40i6zy,1,65,Win,No-Go,0,1,0.494,0,0,0
gm9rz0ez2ar3ix58qj40i6zy,1,66,Lose,No-Go,0,1,0.739,0,0,-1
gm9rz0ez2ar3ix58qj40i6zy,1,67,Win,Go,1,1,0.301,1,1,0
gm9rz0ez2ar3ix58qj40i6zy,1,68,Lose,Go,1,0,,0,0,-1
gm9rz0ez2ar3ix58qj40i6zy,1,69,Lose,No-Go,0,1,0.506,0,1,0
gm9rz0ez2ar3ix58qj40i6zy,1,70,Lose,Go,1,1,0.541,1,0,0
gm9rz0ez2ar3ix58qj40i6zy,1,71,Win,Go,1,1,0.539,1,0,1
gm9rz0ez2ar3ix58qj40i6zy,1,72,Win,No-Go,0,1,0.465,0,0,0
gm9rz0ez2ar3ix58qj40i6zy,1,73,Win,No-Go,0,1,0.51,0,0,0
gm9rz0ez2ar3ix58qj40i6zy,1,74,Lose,Go,1,1,0.75,1,1,-1
gm9rz0ez2ar3ix58qj40i6zy,1,75,Win,Go,1,1,0.453,1,0,1
gm9rz0ez2ar3ix58qj40i6zy,1,76,Lose,No-Go,0,0,,1,0,0
gm9rz0ez2ar3ix58qj40i6zy,1,77,Win,No-Go,0,1,0.427,0,1,1
gm9rz0ez2ar3ix58qj40i6zy,1,78,Win,Go,1,1,0.495,1,0,1
gm9rz0ez2ar3ix58qj40i6zy,1,79,Lose,No-Go,0,0,,1,0,0
gm9rz0ez2ar3ix58qj40i6zy,1,80,Lose,Go,1,1,1.043,1,0,0
gm9rz0ez2ar3ix58qj40i6zy,2,81,Win,Go,1,1,1.118,1,0,1
gm9rz0ez2ar3ix58qj40i6zy,2,82,Win,No-Go,0,1,0.517,0,0,0
gm9rz0ez2ar3ix58qj40i6zy,2,83,Lose,No-Go,0,0,,1,0,0
gm9rz0ez2ar3ix58qj40i6zy,2,84,Lose,Go,1,0,,0,0,-1
gm9rz0ez2ar3ix58qj40i6zy,2,85,Win,Go,1,1,0.478,1,0,1
gm9rz0ez2ar3ix58qj40i6zy,2,86,Win,No-Go,0,1,0.556,0,0,0
gm9rz0ez2ar3ix58qj40i6zy,2,87,Lose,Go,1,0,,0,0,-1
gm9rz0ez2ar3ix58qj40i6zy,2,88,Lose,No-Go,0,1,0.925,0,0,-1
gm9rz0ez2ar3ix58qj40i6zy,2,89,Lose,Go,1,1,0.769,1,1,-1
gm9rz0ez2ar3ix58qj40i6zy,2,90,Win,Go,1,1,0.368,1,1,0
gm9rz0ez2ar3ix58qj40i6zy,2,91,Win,No-Go,0,1,0.494,0,0,0
gm9rz0ez2ar3ix58qj40i6zy,2,92,Lose,No-Go,0,1,0.941,0,0,-1
gm9rz0ez2ar3ix58qj40i6zy,2,93,Lose,No-Go,0,0,,1,0,0
gm9rz0ez2ar3ix58qj40i6zy,2,94,Win,Go,1,1,0.397,1,0,1
gm9rz0ez2ar3ix58qj40i6zy,2,95,Lose,Go,1,0,,0,0,-1
gm9rz0ez2ar3ix58qj40i6zy,2,96,Win,No-Go,0,1,0.633,0,1,1
gm9rz0ez2ar3ix58qj40i6zy,2,97,Lose,No-Go,0,0,,1,1,-1
gm9rz0ez2ar3ix58qj40i6zy,2,98,Win,Go,1,1,0.56,1,0,1
gm9rz0ez2ar3ix58qj40i6zy,2,99,Lose,Go,1,0,,0,0,-1
gm9rz0ez2ar3ix58qj40i6zy,2,100,Win,No-Go,0,1,0.624,0,0,0
gm9rz0ez2ar3ix58qj40i6zy,2,101,Lose,No-Go,0,1,1.029,0,0,-1
gm9rz0ez2ar3ix58qj40i6zy,2,102,Lose,Go,1,1,0.595,1,0,0
gm9rz0ez2ar3ix58qj40i6zy,2,103,Win,Go,1,1,0.449,1,1,0
gm9rz0ez2ar3ix58qj40i6zy,2,104,Win,No-Go,0,1,0.509,0,1,1
gm9rz0ez2ar3ix58qj40i6zy,2,105,Lose,Go,1,1,0.559,1,0,0
gm9rz0ez2ar3ix58qj40i6zy,2,106,Win,Go,1,1,0.507,1,0,1
gm9rz0ez2ar3ix58qj40i6zy,2,107,Win,No-Go,0,1,0.55,0,0,0
gm9rz0ez2ar3ix58qj40i6zy,2,108,Lose,No-Go,0,1,1.057,0,0,-1
gm9rz0ez2ar3ix58qj40i6zy,2,109,Win,No-Go,0,1,0.584,0,0,0
gm9rz0ez2ar3ix58qj40i6zy,2,110,Lose,No-Go,0,0,,1,0,0
