[{"view_history":"[{\"page_index\":0,\"viewing_time\":3856.8500000983477}]","rt":3857.4899998493493,"trial_type":"instructions","trial_index":0,"time_elapsed":3870,"internal_node_id":"0.0-0.0","task_version":"battery-v0.2-trt"},{"slider_type":"valence","raw_loc":512,"loc":0.524,"trial_type":"affective-slider","trial_index":1,"time_elapsed":14805,"internal_node_id":"0.0-1.0","task_version":"battery-v0.2-trt"},{"responses":{"Q07":"0","Q02":"0","Q06":"1","Q01":"0","Q04":"0","Q08":"0","Q03":"0","Q05":"0"},"rt":60149.91500042379,"item_order":[6,1,5,0,3,7,2,4],"radio_events":[23927.135000005364,24812.910000327975,30085.910000372678,32272.830000147223,38686.57500017434,40521.180000156164,45998.43000015244,49259.920000098646,54009.455000050366],"key_events":[],"mouse_events":[20911.825000308454,22408.85000023991,23167.94000007212,23927.135000005364,24812.910000327975,30085.910000372678,31377.175000030547,32272.830000147223,37534.29000033066,38686.57500017434,40521.180000156164,44845.42500041425,45998.43000015244,48266.2100000307,49259.920000098646,54009.455000050366,60148.54500023648],"straightlining":0.875,"zigzagging":0.2857142857142857,"survey":"gad7","trial_type":"survey-template","trial_index":2,"time_elapsed":74973,"internal_node_id":"0.0-2.0","task_version":"battery-v0.2-trt","infrequency":0},{"responses":{"Q01":"0","Q02":"0","Q06":"0","Q07":"0","Q03":"0","Q04":"0","Q05":"0","Q08":"3"},"rt":144042.2499999404,"item_order":[0,1,5,6,2,3,4,7],"radio_events":[88731.66000004858,115272.11000025272,120986.39000020921,122199.16500011459,123489.12000004202,124849.88000011072,127353.28000038862,128711.13499999046,131766.62000035867],"key_events":[],"mouse_events":[75821.59500010312,87559.71499998122,88731.66000004858,115272.11000025272,119646.69500011951,120986.39000020921,122199.16500011459,123489.12000004202,124849.88000011072,125923.52499999106,127353.28000038862,128711.13499999046,131766.62000035867,144041.17000009865],"straightlining":0.875,"zigzagging":0.14285714285714285,"survey":"dass_d","trial_type":"survey-template","trial_index":3,"time_elapsed":219019,"internal_node_id":"0.0-3.0","task_version":"battery-v0.2-trt","infrequency":0.5},{"responses":{"Q08":"2","Q05":"3","Q12":"0","Q02":"0","Q01":"3","Q06":"3","Q09":"0","Q07":"3","Q04":"3","Q10":"0","Q03":"2","Q11":"2","Q13":"0"},"rt":128796.19499994442,"item_order":[7,4,11,1,0,5,8,6,3,9,2,10,12],"radio_events":[26236.06999963522,40986.335000023246,51119.189999997616,53354.599999729544,58657.78000000864,67437.30499967933,70510.23999974132,77878.65499965847,85975.184999872,102053.07999998331,108718.2999998331,113011.2149999477,113331.33499976248,120823.15499987453],"key_events":[],"mouse_events":[21618.789999745786,24944.894999731332,26236.06999963522,40114.0749999322,40986.335000023246,50073.055000044405,51119.189999997616,53354.599999729544,56734.17999967933,57719.670000020415,58657.78000000864,66358.29499969259,67437.30499967933,70510.23999974132,76894.05500004068,77878.65499965847,85975.184999872,101058.144999668,102053.07999998331,107771.37500001118,108718.2999998331,113011.2149999477,113331.33499976248,120823.15499987453,128794.39499974251],"straightlining":0.38461538461538464,"zigzagging":0.5,"survey":"bisbas","trial_type":"survey-template","trial_index":4,"time_elapsed":347819,"internal_node_id":"0.0-4.0","task_version":"battery-v0.2-trt","infrequency":0},{"value":[0.5,2.1346153846153846,0.9285714285714286],"trial_type":"call-function","trial_index":5,"time_elapsed":347823,"internal_node_id":"0.0-5.0","task_version":"battery-v0.2-trt"},{"view_history":"[{\"page_index\":0,\"viewing_time\":17206.00500004366},{\"page_index\":1,\"viewing_time\":23804.45499997586},{\"page_index\":2,\"viewing_time\":8688.194999936968},{\"page_index\":3,\"viewing_time\":19152.129999827594},{\"page_index\":4,\"viewing_time\":7096.334999892861},{\"page_index\":5,\"viewing_time\":10733.160000294447},{\"page_index\":6,\"viewing_time\":4722.399999853224},{\"page_index\":7,\"viewing_time\":26808.620000258088},{\"page_index\":8,\"viewing_time\":9579.919999931008},{\"page_index\":9,\"viewing_time\":23826.17999985814}]","rt":151617.95999994501,"trial_type":"pit-instructions","trial_index":6,"time_elapsed":499446,"internal_node_id":"0.0-6.0-0.0","task_version":"battery-v0.2-trt"},{"rune":"1","rune_set":"elianto","hex":"#3366ff99","correct":32,"choice":32,"rt":521.7849998734891,"accuracy":1,"outcome":"+10","keys":[2021.9800001941621],"total_keys":1,"block":0,"practice":1,"trial_type":"pit-trial","trial_index":7,"time_elapsed":502672,"internal_node_id":"0.0-6.0-1.0-0.0","task_version":"battery-v0.2-trt"},{"rune":"1","rune_set":"elianto","hex":"#3366ff99","correct":32,"choice":32,"rt":404.2650000192225,"accuracy":1,"outcome":"+10","keys":[1905.0049996003509],"total_keys":1,"block":0,"practice":1,"trial_type":"pit-trial","trial_index":8,"time_elapsed":505783,"internal_node_id":"0.0-6.0-1.1-0.1","task_version":"battery-v0.2-trt"},{"rune":"1","rune_set":"elianto","hex":"#3366ff99","correct":32,"choice":32,"rt":381.75499998033047,"accuracy":1,"outcome":"+10","keys":[1882.2949999012053],"total_keys":1,"block":0,"practice":1,"trial_type":"pit-trial","trial_index":9,"time_elapsed":508869,"internal_node_id":"0.0-6.0-1.2-0.2","task_version":"battery-v0.2-trt"},{"rune":"1","rune_set":"elianto","hex":"#3366ff99","correct":32,"choice":32,"rt":401.8049999140203,"accuracy":1,"outcome":"+10","keys":[1902.1949996240437],"total_keys":1,"block":0,"practice":1,"trial_type":"pit-trial","trial_index":10,"time_elapsed":511975,"internal_node_id":"0.0-6.0-1.3-0.3","task_version":"battery-v0.2-trt"},{"trial_type":"call-function","trial_index":11,"time_elapsed":511976,"internal_node_id":"0.0-6.0-2.0","task_version":"battery-v0.2-trt"},{"view_history":"[{\"page_index\":0,\"viewing_time\":4529.825000092387},{\"page_index\":1,\"viewing_time\":2326.7549998126924}]","rt":6856.945000123233,"trial_type":"pit-instructions","trial_index":12,"time_elapsed":518833,"internal_node_id":"0.0-6.0-3.0","task_version":"battery-v0.2-trt"},{"rune":"2","rune_set":"elianto","hex":"#3366ff99","correct":-1,"choice":-1,"rt":-1,"accuracy":1,"outcome":"+10","keys":[2857.3949998244643],"total_keys":1,"block":0,"practice":2,"trial_type":"pit-trial","trial_index":13,"time_elapsed":522837,"internal_node_id":"0.0-6.0-4.0-0.0","task_version":"battery-v0.2-trt"},{"rune":"2","rune_set":"elianto","hex":"#3366ff99","correct":-1,"choice":32,"rt":447.04499980434775,"accuracy":0,"outcome":"+1","keys":[1948.179999832064],"total_keys":1,"block":0,"practice":2,"trial_type":"pit-trial","trial_index":14,"time_elapsed":525987,"internal_node_id":"0.0-6.0-4.1-0.1","task_version":"battery-v0.2-trt"},{"rune":"2","rune_set":"elianto","hex":"#3366ff99","correct":-1,"choice":32,"rt":181.20499979704618,"accuracy":0,"outcome":"+1","keys":[1682.295000180602],"total_keys":1,"block":0,"practice":2,"trial_type":"pit-trial","trial_index":15,"time_elapsed":528874,"internal_node_id":"0.0-6.0-4.2-0.2","task_version":"battery-v0.2-trt"},{"rune":"2","rune_set":"elianto","hex":"#3366ff99","correct":-1,"choice":32,"rt":585.0300001911819,"accuracy":0,"outcome":"+1","keys":[2085.64000017941],"total_keys":1,"block":0,"practice":2,"trial_type":"pit-trial","trial_index":16,"time_elapsed":532164,"internal_node_id":"0.0-6.0-4.3-0.3","task_version":"battery-v0.2-trt"},{"rune":"2","rune_set":"elianto","hex":"#3366ff99","correct":-1,"choice":-1,"rt":-1,"accuracy":1,"outcome":"+10","keys":[],"total_keys":0,"block":0,"practice":2,"trial_type":"pit-trial","trial_index":17,"time_elapsed":536170,"internal_node_id":"0.0-6.0-4.4-0.4","task_version":"battery-v0.2-trt"},{"rune":"2","rune_set":"elianto","hex":"#3366ff99","correct":-1,"choice":-1,"rt":-1,"accuracy":1,"outcome":"+10","keys":[],"total_keys":0,"block":0,"practice":2,"trial_type":"pit-trial","trial_index":18,"time_elapsed":540174,"internal_node_id":"0.0-6.0-4.5-0.5","task_version":"battery-v0.2-trt"},{"rune":"2","rune_set":"elianto","hex":"#3366ff99","correct":-1,"choice":-1,"rt":-1,"accuracy":1,"outcome":"+10","keys":[],"total_keys":0,"block":0,"practice":2,"trial_type":"pit-trial","trial_index":19,"time_elapsed":544179,"internal_node_id":"0.0-6.0-4.6-0.6","task_version":"battery-v0.2-trt"},{"trial_type":"call-function","trial_index":20,"time_elapsed":544181,"internal_node_id":"0.0-6.0-5.0","task_version":"battery-v0.2-trt"},{"view_history":"[{\"page_index\":0,\"viewing_time\":49817.85000022501},{\"page_index\":1,\"viewing_time\":5286.13999998197}]","rt":55104.429999832064,"trial_type":"pit-instructions","trial_index":21,"time_elapsed":599285,"internal_node_id":"0.0-6.0-6.0","task_version":"battery-v0.2-trt"},{"rune":"3","rune_set":"elianto","hex":"#f73b6a7A","correct":-1,"choice":32,"rt":88.50000007078052,"accuracy":0,"outcome":"-10","keys":[1590.2700000442564],"total_keys":1,"block":0,"practice":3,"trial_type":"pit-trial","trial_index":22,"time_elapsed":602079,"internal_node_id":"0.0-6.0-7.0-0.0","task_version":"battery-v0.2-trt"},{"rune":"3","rune_set":"elianto","hex":"#f73b6a7A","correct":-1,"choice":32,"rt":644.7550002485514,"accuracy":0,"outcome":"-10","keys":[2146.7050001956522],"total_keys":1,"block":0,"practice":3,"trial_type":"pit-trial","trial_index":23,"time_elapsed":605428,"internal_node_id":"0.0-6.0-7.1-0.1","task_version":"battery-v0.2-trt"},{"rune":"3","rune_set":"elianto","hex":"#f73b6a7A","correct":-1,"choice":-1,"rt":-1,"accuracy":1,"outcome":"-1","keys":[],"total_keys":0,"block":0,"practice":3,"trial_type":"pit-trial","trial_index":24,"time_elapsed":609432,"internal_node_id":"0.0-6.0-7.2-0.2","task_version":"battery-v0.2-trt"},{"rune":"3","rune_set":"elianto","hex":"#f73b6a7A","correct":-1,"choice":-1,"rt":-1,"accuracy":1,"outcome":"-1","keys":[],"total_keys":0,"block":0,"practice":3,"trial_type":"pit-trial","trial_index":25,"time_elapsed":613448,"internal_node_id":"0.0-6.0-7.3-0.3","task_version":"battery-v0.2-trt"},{"rune":"3","rune_set":"elianto","hex":"#f73b6a7A","correct":-1,"choice":-1,"rt":-1,"accuracy":1,"outcome":"-1","keys":[],"total_keys":0,"block":0,"practice":3,"trial_type":"pit-trial","trial_index":26,"time_elapsed":617452,"internal_node_id":"0.0-6.0-7.4-0.4","task_version":"battery-v0.2-trt"},{"trial_type":"call-function","trial_index":27,"time_elapsed":617454,"internal_node_id":"0.0-6.0-8.0","task_version":"battery-v0.2-trt"},{"view_history":"[{\"page_index\":0,\"viewing_time\":4996.640000026673},{\"page_index\":1,\"viewing_time\":5201.820000074804}]","rt":10198.859999887645,"trial_type":"pit-instructions","trial_index":28,"time_elapsed":627653,"internal_node_id":"0.0-6.0-9.0","task_version":"battery-v0.2-trt"},{"rune":"4","rune_set":"elianto","hex":"#f73b6a7A","correct":32,"choice":32,"rt":350.550000090152,"accuracy":1,"outcome":"-1","keys":[1850.804999936372],"total_keys":1,"block":0,"practice":4,"trial_type":"pit-trial","trial_index":29,"time_elapsed":630707,"internal_node_id":"0.0-6.0-10.0-0.0","task_version":"battery-v0.2-trt"},{"rune":"4","rune_set":"elianto","hex":"#f73b6a7A","correct":32,"choice":32,"rt":587.4450001865625,"accuracy":1,"outcome":"-1","keys":[1280.2550001069903,2088.0900002084672],"total_keys":2,"block":0,"practice":4,"trial_type":"pit-trial","trial_index":30,"time_elapsed":634001,"internal_node_id":"0.0-6.0-10.1-0.1","task_version":"battery-v0.2-trt"},{"rune":"4","rune_set":"elianto","hex":"#f73b6a7A","correct":32,"choice":32,"rt":309.63500030338764,"accuracy":1,"outcome":"-1","keys":[1810.639999806881],"total_keys":1,"block":0,"practice":4,"trial_type":"pit-trial","trial_index":31,"time_elapsed":637017,"internal_node_id":"0.0-6.0-10.2-0.2","task_version":"battery-v0.2-trt"},{"rune":"4","rune_set":"elianto","hex":"#f73b6a7A","correct":32,"choice":32,"rt":371.6250001452863,"accuracy":1,"outcome":"-1","keys":[1871.6150000691414],"total_keys":1,"block":0,"practice":4,"trial_type":"pit-trial","trial_index":32,"time_elapsed":640093,"internal_node_id":"0.0-6.0-10.3-0.3","task_version":"battery-v0.2-trt"},{"trial_type":"call-function","trial_index":33,"time_elapsed":640096,"internal_node_id":"0.0-6.0-11.0","task_version":"battery-v0.2-trt"},{"view_history":"[{\"page_index\":0,\"viewing_time\":1456.2599998898804},{\"page_index\":1,\"viewing_time\":8289.704999886453},{\"page_index\":2,\"viewing_time\":4937.150000128895},{\"page_index\":3,\"viewing_time\":1991.440000012517},{\"page_index\":4,\"viewing_time\":2731.3500000163913},{\"page_index\":5,\"viewing_time\":1250.6349999457598}]","rt":20656.99499985203,"trial_type":"pit-instructions","trial_index":34,"time_elapsed":660753,"internal_node_id":"0.0-6.0-12.0","task_version":"battery-v0.2-trt"},{"responses":["Press SPACE","+10","-1","True","True"],"num_errors":0,"rt":58536.62999998778,"trial_type":"pit-comprehension","trial_index":35,"time_elapsed":719293,"internal_node_id":"0.0-6.0-13.0","task_version":"battery-v0.2-trt"},{"view_history":"[{\"page_index\":0,\"viewing_time\":5434.889999683946},{\"page_index\":1,\"viewing_time\":8190.3699999675155}]","rt":13625.69999974221,"trial_type":"pit-instructions","trial_index":36,"time_elapsed":732922,"internal_node_id":"0.0-7.0","task_version":"battery-v0.2-trt"},{"rune":"W","rune_set":"bacs2","hex":"#3366ff99","correct":32,"choice":32,"rt":551.1549999937415,"accuracy":1,"outcome":"+10","keys":[2053.6299999803305],"total_keys":1,"block":1,"trial":1,"stimulus":1,"robot":1,"valence":"win","action":"go","sham":0,"trial_type":"pit-trial","trial_index":37,"time_elapsed":736181,"internal_node_id":"0.0-8.0","task_version":"battery-v0.2-trt"},{"rune":"X","rune_set":"bacs2","hex":"#f73b6a7A","correct":-1,"choice":-1,"rt":-1,"accuracy":1,"outcome":"-1","keys":[],"total_keys":0,"block":1,"trial":2,"stimulus":2,"robot":4,"valence":"lose","action":"no-go","sham":0,"trial_type":"pit-trial","trial_index":38,"time_elapsed":740187,"internal_node_id":"0.0-9.0","task_version":"battery-v0.2-trt"},{"rune":"J","rune_set":"bacs2","hex":"#3366ff99","correct":-1,"choice":32,"rt":1113.4000001475215,"accuracy":0,"outcome":"+1","keys":[2614.6550001576543],"total_keys":1,"block":1,"trial":3,"stimulus":0,"robot":2,"valence":"win","action":"no-go","sham":0,"trial_type":"pit-trial","trial_index":39,"time_elapsed":744007,"internal_node_id":"0.0-10.0","task_version":"battery-v0.2-trt"},{"rune":"Z","rune_set":"bacs2","hex":"#3366ff99","correct":32,"choice":32,"rt":944.9249999597669,"accuracy":1,"outcome":"+10","keys":[2445.2300001867115],"total_keys":1,"block":1,"trial":4,"stimulus":3,"robot":1,"valence":"win","action":"go","sham":0,"trial_type":"pit-trial","trial_index":40,"time_elapsed":747657,"internal_node_id":"0.0-11.0","task_version":"battery-v0.2-trt"},{"rune":"Z","rune_set":"bacs2","hex":"#3366ff99","correct":32,"choice":32,"rt":552.9999998398125,"accuracy":1,"outcome":"+10","keys":[2054.0250004269183],"total_keys":1,"block":1,"trial":5,"stimulus":3,"robot":1,"valence":"win","action":"go","sham":0,"trial_type":"pit-trial","trial_index":41,"time_elapsed":750917,"internal_node_id":"0.0-12.0","task_version":"battery-v0.2-trt"},{"rune":"J","rune_set":"bacs2","hex":"#3366ff99","correct":-1,"choice":32,"rt":1137.794999871403,"accuracy":0,"outcome":"+1","keys":[2637.869999743998],"total_keys":1,"block":1,"trial":6,"stimulus":0,"robot":2,"valence":"win","action":"no-go","sham":0,"trial_type":"pit-trial","trial_index":42,"time_elapsed":754759,"internal_node_id":"0.0-13.0","task_version":"battery-v0.2-trt"},{"rune":"W","rune_set":"bacs2","hex":"#3366ff99","correct":32,"choice":32,"rt":970.1899997889996,"accuracy":1,"outcome":"+10","keys":[2471.1000001989305],"total_keys":1,"block":1,"trial":7,"stimulus":1,"robot":1,"valence":"win","action":"go","sham":0,"trial_type":"pit-trial","trial_index":43,"time_elapsed":758433,"internal_node_id":"0.0-14.0","task_version":"battery-v0.2-trt"},{"rune":"X","rune_set":"bacs2","hex":"#f73b6a7A","correct":-1,"choice":-1,"rt":-1,"accuracy":1,"outcome":"-1","keys":[],"total_keys":0,"block":1,"trial":8,"stimulus":2,"robot":4,"valence":"lose","action":"no-go","sham":0,"trial_type":"pit-trial","trial_index":44,"time_elapsed":762438,"internal_node_id":"0.0-15.0","task_version":"battery-v0.2-trt"},{"rune":"Z","rune_set":"bacs2","hex":"#3366ff99","correct":32,"choice":32,"rt":722.1749997697771,"accuracy":1,"outcome":"+10","keys":[2223.964999895543],"total_keys":1,"block":1,"trial":9,"stimulus":3,"robot":1,"valence":"win","action":"go","sham":0,"trial_type":"pit-trial","trial_index":45,"time_elapsed":765867,"internal_node_id":"0.0-16.0","task_version":"battery-v0.2-trt"},{"rune":"W","rune_set":"bacs2","hex":"#3366ff99","correct":32,"choice":32,"rt":996.3150001130998,"accuracy":1,"outcome":"+10","keys":[2496.4350000955164],"total_keys":1,"block":1,"trial":10,"stimulus":1,"robot":1,"valence":"win","action":"go","sham":0,"trial_type":"pit-trial","trial_index":46,"time_elapsed":769568,"internal_node_id":"0.0-17.0","task_version":"battery-v0.2-trt"},{"rune":"J","rune_set":"bacs2","hex":"#3366ff99","correct":-1,"choice":-1,"rt":-1,"accuracy":1,"outcome":"+1","keys":[],"total_keys":0,"block":1,"trial":11,"stimulus":0,"robot":2,"valence":"win","action":"no-go","sham":1,"trial_type":"pit-trial","trial_index":47,"time_elapsed":773574,"internal_node_id":"0.0-18.0","task_version":"battery-v0.2-trt"},{"rune":"X","rune_set":"bacs2","hex":"#f73b6a7A","correct":-1,"choice":-1,"rt":-1,"accuracy":1,"outcome":"-1","keys":[],"total_keys":0,"block":1,"trial":12,"stimulus":2,"robot":4,"valence":"lose","action":"no-go","sham":0,"trial_type":"pit-trial","trial_index":48,"time_elapsed":777579,"internal_node_id":"0.0-19.0","task_version":"battery-v0.2-trt"},{"rune":"W","rune_set":"bacs2","hex":"#3366ff99","correct":32,"choice":32,"rt":732.5099995359778,"accuracy":1,"outcome":"+10","keys":[2233.425000216812],"total_keys":1,"block":1,"trial":13,"stimulus":1,"robot":1,"valence":"win","action":"go","sham":0,"trial_type":"pit-trial","trial_index":49,"time_elapsed":781018,"internal_node_id":"0.0-20.0","task_version":"battery-v0.2-trt"},{"rune":"J","rune_set":"bacs2","hex":"#3366ff99","correct":-1,"choice":32,"rt":1069.7049996815622,"accuracy":0,"outcome":"+1","keys":[2572.6699996739626],"total_keys":1,"block":1,"trial":14,"stimulus":0,"robot":2,"valence":"win","action":"no-go","sham":0,"trial_type":"pit-trial","trial_index":50,"time_elapsed":784795,"internal_node_id":"0.0-21.0","task_version":"battery-v0.2-trt"},{"rune":"Z","rune_set":"bacs2","hex":"#3366ff99","correct":32,"choice":32,"rt":1044.3199998699129,"accuracy":1,"outcome":"+10","keys":[2544.695000164211],"total_keys":1,"block":1,"trial":15,"stimulus":3,"robot":1,"valence":"win","action":"go","sham":0,"trial_type":"pit-trial","trial_index":51,"time_elapsed":788545,"internal_node_id":"0.0-22.0","task_version":"battery-v0.2-trt"},{"rune":"X","rune_set":"bacs2","hex":"#f73b6a7A","correct":-1,"choice":-1,"rt":-1,"accuracy":1,"outcome":"-1","keys":[],"total_keys":0,"block":1,"trial":16,"stimulus":2,"robot":4,"valence":"lose","action":"no-go","sham":0,"trial_type":"pit-trial","trial_index":52,"time_elapsed":792550,"internal_node_id":"0.0-23.0","task_version":"battery-v0.2-trt"},{"rune":"Z","rune_set":"bacs2","hex":"#3366ff99","correct":32,"choice":-1,"rt":-1,"accuracy":0,"outcome":"+1","keys":[2906.6249998286366],"total_keys":1,"block":1,"trial":17,"stimulus":3,"robot":1,"valence":"win","action":"go","sham":0,"trial_type":"pit-trial","trial_index":53,"time_elapsed":796568,"internal_node_id":"0.0-24.0","task_version":"battery-v0.2-trt"},{"rune":"J","rune_set":"bacs2","hex":"#3366ff99","correct":-1,"choice":-1,"rt":-1,"accuracy":1,"outcome":"+10","keys":[],"total_keys":0,"block":1,"trial":18,"stimulus":0,"robot":2,"valence":"win","action":"no-go","sham":0,"trial_type":"pit-trial","trial_index":54,"time_elapsed":800573,"internal_node_id":"0.0-25.0","task_version":"battery-v0.2-trt"},{"rune":"X","rune_set":"bacs2","hex":"#f73b6a7A","correct":-1,"choice":-1,"rt":-1,"accuracy":1,"outcome":"-1","keys":[],"total_keys":0,"block":1,"trial":19,"stimulus":2,"robot":4,"valence":"lose","action":"no-go","sham":0,"trial_type":"pit-trial","trial_index":55,"time_elapsed":804578,"internal_node_id":"0.0-26.0","task_version":"battery-v0.2-trt"},{"rune":"W","rune_set":"bacs2","hex":"#3366ff99","correct":32,"choice":32,"rt":497.0049997791648,"accuracy":1,"outcome":"+10","keys":[1997.6399997249246],"total_keys":1,"block":1,"trial":20,"stimulus":1,"robot":1,"valence":"win","action":"go","sham":0,"trial_type":"pit-trial","trial_index":56,"time_elapsed":807779,"internal_node_id":"0.0-27.0","task_version":"battery-v0.2-trt"},{"rune":"J","rune_set":"bacs2","hex":"#3366ff99","correct":-1,"choice":-1,"rt":-1,"accuracy":1,"outcome":"+10","keys":[],"total_keys":0,"block":1,"trial":21,"stimulus":0,"robot":2,"valence":"win","action":"no-go","sham":0,"trial_type":"pit-trial","trial_index":57,"time_elapsed":811792,"internal_node_id":"0.0-28.0","task_version":"battery-v0.2-trt"},{"rune":"X","rune_set":"bacs2","hex":"#f73b6a7A","correct":-1,"choice":-1,"rt":-1,"accuracy":1,"outcome":"-1","keys":[],"total_keys":0,"block":1,"trial":22,"stimulus":2,"robot":4,"valence":"lose","action":"no-go","sham":0,"trial_type":"pit-trial","trial_index":58,"time_elapsed":815797,"internal_node_id":"0.0-29.0","task_version":"battery-v0.2-trt"},{"rune":"W","rune_set":"bacs2","hex":"#3366ff99","correct":32,"choice":32,"rt":596.4649999514222,"accuracy":1,"outcome":"+10","keys":[2097.544999793172],"total_keys":1,"block":1,"trial":23,"stimulus":1,"robot":1,"valence":"win","action":"go","sham":0,"trial_type":"pit-trial","trial_index":59,"time_elapsed":819100,"internal_node_id":"0.0-30.0","task_version":"battery-v0.2-trt"},{"rune":"Z","rune_set":"bacs2","hex":"#3366ff99","correct":32,"choice":32,"rt":575.1700000837445,"accuracy":1,"outcome":"+10","keys":[2075.2100003883243],"total_keys":1,"block":1,"trial":24,"stimulus":3,"robot":1,"valence":"win","action":"go","sham":0,"trial_type":"pit-trial","trial_index":60,"time_elapsed":822378,"internal_node_id":"0.0-31.0","task_version":"battery-v0.2-trt"},{"rune":"W","rune_set":"bacs2","hex":"#3366ff99","correct":32,"choice":32,"rt":711.7550000548363,"accuracy":1,"outcome":"+10","keys":[2212.4499999918044],"total_keys":1,"block":1,"trial":25,"stimulus":1,"robot":1,"valence":"win","action":"go","sham":0,"trial_type":"pit-trial","trial_index":61,"time_elapsed":825794,"internal_node_id":"0.0-32.0","task_version":"battery-v0.2-trt"},{"rune":"X","rune_set":"bacs2","hex":"#f73b6a7A","correct":-1,"choice":-1,"rt":-1,"accuracy":1,"outcome":"-1","keys":[],"total_keys":0,"block":1,"trial":26,"stimulus":2,"robot":4,"valence":"lose","action":"no-go","sham":0,"trial_type":"pit-trial","trial_index":62,"time_elapsed":829800,"internal_node_id":"0.0-33.0","task_version":"battery-v0.2-trt"},{"rune":"J","rune_set":"bacs2","hex":"#3366ff99","correct":-1,"choice":32,"rt":391.849999781698,"accuracy":0,"outcome":"+1","keys":[1892.2399999573827],"total_keys":1,"block":1,"trial":27,"stimulus":0,"robot":2,"valence":"win","action":"no-go","sham":0,"trial_type":"pit-trial","trial_index":63,"time_elapsed":832898,"internal_node_id":"0.0-34.0","task_version":"battery-v0.2-trt"},{"rune":"Z","rune_set":"bacs2","hex":"#3366ff99","correct":32,"choice":32,"rt":576.1099997907877,"accuracy":1,"outcome":"+10","keys":[2077.2799998521805],"total_keys":1,"block":1,"trial":28,"stimulus":3,"robot":1,"valence":"win","action":"go","sham":0,"trial_type":"pit-trial","trial_index":64,"time_elapsed":836179,"internal_node_id":"0.0-35.0","task_version":"battery-v0.2-trt"},{"rune":"Z","rune_set":"bacs2","hex":"#3366ff99","correct":32,"choice":32,"rt":454.90500004962087,"accuracy":1,"outcome":"+10","keys":[1956.1749999411404],"total_keys":1,"block":1,"trial":29,"stimulus":3,"robot":1,"valence":"win","action":"go","sham":0,"trial_type":"pit-trial","trial_index":65,"time_elapsed":839340,"internal_node_id":"0.0-36.0","task_version":"battery-v0.2-trt"},{"rune":"J","rune_set":"bacs2","hex":"#3366ff99","correct":-1,"choice":32,"rt":730.7749995961785,"accuracy":0,"outcome":"+1","keys":[2231.1350000090897],"total_keys":1,"block":1,"trial":30,"stimulus":0,"robot":2,"valence":"win","action":"no-go","sham":0,"trial_type":"pit-trial","trial_index":66,"time_elapsed":842776,"internal_node_id":"0.0-37.0","task_version":"battery-v0.2-trt"},{"rune":"W","rune_set":"bacs2","hex":"#3366ff99","correct":32,"choice":32,"rt":459.87999998033047,"accuracy":1,"outcome":"+10","keys":[1959.984999615699],"total_keys":1,"block":1,"trial":31,"stimulus":1,"robot":1,"valence":"win","action":"go","sham":0,"trial_type":"pit-trial","trial_index":67,"time_elapsed":845939,"internal_node_id":"0.0-38.0","task_version":"battery-v0.2-trt"},{"rune":"X","rune_set":"bacs2","hex":"#f73b6a7A","correct":-1,"choice":-1,"rt":-1,"accuracy":1,"outcome":"-1","keys":[],"total_keys":0,"block":1,"trial":32,"stimulus":2,"robot":4,"valence":"lose","action":"no-go","sham":0,"trial_type":"pit-trial","trial_index":68,"time_elapsed":849944,"internal_node_id":"0.0-39.0","task_version":"battery-v0.2-trt"},{"rune":"J","rune_set":"bacs2","hex":"#3366ff99","correct":-1,"choice":-1,"rt":-1,"accuracy":1,"outcome":"+10","keys":[],"total_keys":0,"block":1,"trial":33,"stimulus":0,"robot":2,"valence":"win","action":"no-go","sham":0,"trial_type":"pit-trial","trial_index":69,"time_elapsed":853946,"internal_node_id":"0.0-40.0","task_version":"battery-v0.2-trt"},{"rune":"X","rune_set":"bacs2","hex":"#f73b6a7A","correct":-1,"choice":-1,"rt":-1,"accuracy":1,"outcome":"-1","keys":[],"total_keys":0,"block":1,"trial":34,"stimulus":2,"robot":4,"valence":"lose","action":"no-go","sham":0,"trial_type":"pit-trial","trial_index":70,"time_elapsed":857952,"internal_node_id":"0.0-41.0","task_version":"battery-v0.2-trt"},{"rune":"G","rune_set":"bacs2","hex":"#3366ff99","correct":32,"choice":32,"rt":460.0349999964237,"accuracy":1,"outcome":"+10","keys":[1962.0900000445545],"total_keys":1,"block":1,"trial":35,"stimulus":4,"robot":1,"valence":"win","action":"go","sham":0,"trial_type":"pit-trial","trial_index":71,"time_elapsed":861118,"internal_node_id":"0.0-42.0","task_version":"battery-v0.2-trt"},{"rune":"Z","rune_set":"bacs2","hex":"#3366ff99","correct":32,"choice":32,"rt":535.3550002910197,"accuracy":1,"outcome":"+10","keys":[2035.7599998824298],"total_keys":1,"block":1,"trial":36,"stimulus":3,"robot":1,"valence":"win","action":"go","sham":0,"trial_type":"pit-trial","trial_index":72,"time_elapsed":864358,"internal_node_id":"0.0-43.0","task_version":"battery-v0.2-trt"},{"rune":"Z","rune_set":"bacs2","hex":"#3366ff99","correct":32,"choice":32,"rt":535.9550002031028,"accuracy":1,"outcome":"+10","keys":[2036.019999999553],"total_keys":1,"block":1,"trial":37,"stimulus":3,"robot":1,"valence":"win","action":"go","sham":0,"trial_type":"pit-trial","trial_index":73,"time_elapsed":867598,"internal_node_id":"0.0-44.0","task_version":"battery-v0.2-trt"},{"rune":"G","rune_set":"bacs2","hex":"#3366ff99","correct":32,"choice":32,"rt":576.0750002227724,"accuracy":1,"outcome":"+10","keys":[2076.2149998918176],"total_keys":1,"block":1,"trial":38,"stimulus":4,"robot":1,"valence":"win","action":"go","sham":0,"trial_type":"pit-trial","trial_index":74,"time_elapsed":870879,"internal_node_id":"0.0-45.0","task_version":"battery-v0.2-trt"},{"rune":"X","rune_set":"bacs2","hex":"#f73b6a7A","correct":-1,"choice":-1,"rt":-1,"accuracy":1,"outcome":"-1","keys":[],"total_keys":0,"block":1,"trial":39,"stimulus":2,"robot":4,"valence":"lose","action":"no-go","sham":0,"trial_type":"pit-trial","trial_index":75,"time_elapsed":874884,"internal_node_id":"0.0-46.0","task_version":"battery-v0.2-trt"},{"rune":"J","rune_set":"bacs2","hex":"#3366ff99","correct":-1,"choice":-1,"rt":-1,"accuracy":1,"outcome":"+10","keys":[],"total_keys":0,"block":1,"trial":40,"stimulus":0,"robot":2,"valence":"win","action":"no-go","sham":0,"trial_type":"pit-trial","trial_index":76,"time_elapsed":878888,"internal_node_id":"0.0-47.0","task_version":"battery-v0.2-trt"},{"rune":"J","rune_set":"bacs2","hex":"#3366ff99","correct":-1,"choice":-1,"rt":-1,"accuracy":1,"outcome":"+10","keys":[],"total_keys":0,"block":1,"trial":41,"stimulus":0,"robot":2,"valence":"win","action":"no-go","sham":0,"trial_type":"pit-trial","trial_index":77,"time_elapsed":882892,"internal_node_id":"0.0-48.0","task_version":"battery-v0.2-trt"},{"rune":"C","rune_set":"bacs2","hex":"#f73b6a7A","correct":-1,"choice":32,"rt":1033.1850000657141,"accuracy":0,"outcome":"-10","keys":[2533.2400002516806],"total_keys":1,"block":1,"trial":42,"stimulus":6,"robot":4,"valence":"lose","action":"no-go","sham":0,"trial_type":"pit-trial","trial_index":78,"time_elapsed":886627,"internal_node_id":"0.0-49.0","task_version":"battery-v0.2-trt"},{"rune":"O","rune_set":"bacs2","hex":"#f73b6a7A","correct":32,"choice":-1,"rt":-1,"accuracy":0,"outcome":"-10","keys":[],"total_keys":0,"block":1,"trial":43,"stimulus":5,"robot":3,"valence":"lose","action":"go","sham":0,"trial_type":"pit-trial","trial_index":79,"time_elapsed":890631,"internal_node_id":"0.0-50.0","task_version":"battery-v0.2-trt"},{"rune":"G","rune_set":"bacs2","hex":"#3366ff99","correct":32,"choice":32,"rt":836.5950002335012,"accuracy":1,"outcome":"+10","keys":[2336.939999833703],"total_keys":1,"block":1,"trial":44,"stimulus":4,"robot":1,"valence":"win","action":"go","sham":0,"trial_type":"pit-trial","trial_index":80,"time_elapsed":894172,"internal_node_id":"0.0-51.0","task_version":"battery-v0.2-trt"},{"rune":"G","rune_set":"bacs2","hex":"#3366ff99","correct":32,"choice":32,"rt":807.2549998760223,"accuracy":1,"outcome":"+10","keys":[2308.54000011459],"total_keys":1,"block":1,"trial":45,"stimulus":4,"robot":1,"valence":"win","action":"go","sham":0,"trial_type":"pit-trial","trial_index":81,"time_elapsed":897686,"internal_node_id":"0.0-52.0","task_version":"battery-v0.2-trt"},{"rune":"O","rune_set":"bacs2","hex":"#f73b6a7A","correct":32,"choice":32,"rt":913.76500017941,"accuracy":1,"outcome":"-1","keys":[2414.7050003521144],"total_keys":1,"block":1,"trial":46,"stimulus":5,"robot":3,"valence":"lose","action":"go","sham":0,"trial_type":"pit-trial","trial_index":82,"time_elapsed":901305,"internal_node_id":"0.0-53.0","task_version":"battery-v0.2-trt"},{"rune":"J","rune_set":"bacs2","hex":"#3366ff99","correct":-1,"choice":-1,"rt":-1,"accuracy":1,"outcome":"+1","keys":[],"total_keys":0,"block":1,"trial":47,"stimulus":0,"robot":2,"valence":"win","action":"no-go","sham":1,"trial_type":"pit-trial","trial_index":83,"time_elapsed":905310,"internal_node_id":"0.0-54.0","task_version":"battery-v0.2-trt"},{"rune":"C","rune_set":"bacs2","hex":"#f73b6a7A","correct":-1,"choice":32,"rt":1142.1150001697242,"accuracy":0,"outcome":"-10","keys":[2642.7050000056624],"total_keys":1,"block":1,"trial":48,"stimulus":6,"robot":4,"valence":"lose","action":"no-go","sham":0,"trial_type":"pit-trial","trial_index":84,"time_elapsed":909158,"internal_node_id":"0.0-55.0","task_version":"battery-v0.2-trt"},{"rune":"E","rune_set":"bacs2","hex":"#3366ff99","correct":-1,"choice":32,"rt":653.3800000324845,"accuracy":0,"outcome":"+1","keys":[2153.679999988526],"total_keys":1,"block":1,"trial":49,"stimulus":7,"robot":2,"valence":"win","action":"no-go","sham":0,"trial_type":"pit-trial","trial_index":85,"time_elapsed":912516,"internal_node_id":"0.0-56.0","task_version":"battery-v0.2-trt"},{"rune":"O","rune_set":"bacs2","hex":"#f73b6a7A","correct":32,"choice":-1,"rt":-1,"accuracy":0,"outcome":"-1","keys":[],"total_keys":0,"block":1,"trial":50,"stimulus":5,"robot":3,"valence":"lose","action":"go","sham":1,"trial_type":"pit-trial","trial_index":86,"time_elapsed":916520,"internal_node_id":"0.0-57.0","task_version":"battery-v0.2-trt"},{"rune":"C","rune_set":"bacs2","hex":"#f73b6a7A","correct":-1,"choice":-1,"rt":-1,"accuracy":1,"outcome":"-1","keys":[],"total_keys":0,"block":1,"trial":51,"stimulus":6,"robot":4,"valence":"lose","action":"no-go","sham":0,"trial_type":"pit-trial","trial_index":87,"time_elapsed":920526,"internal_node_id":"0.0-58.0","task_version":"battery-v0.2-trt"},{"rune":"G","rune_set":"bacs2","hex":"#3366ff99","correct":32,"choice":-1,"rt":-1,"accuracy":0,"outcome":"+10","keys":[],"total_keys":0,"block":1,"trial":52,"stimulus":4,"robot":1,"valence":"win","action":"go","sham":1,"trial_type":"pit-trial","trial_index":88,"time_elapsed":924530,"internal_node_id":"0.0-59.0","task_version":"battery-v0.2-trt"},{"rune":"O","rune_set":"bacs2","hex":"#f73b6a7A","correct":32,"choice":-1,"rt":-1,"accuracy":0,"outcome":"-10","keys":[],"total_keys":0,"block":1,"trial":53,"stimulus":5,"robot":3,"valence":"lose","action":"go","sham":0,"trial_type":"pit-trial","trial_index":89,"time_elapsed":928533,"internal_node_id":"0.0-60.0","task_version":"battery-v0.2-trt"},{"rune":"G","rune_set":"bacs2","hex":"#3366ff99","correct":32,"choice":32,"rt":762.7249998040497,"accuracy":1,"outcome":"+10","keys":[2263.515000231564],"total_keys":1,"block":1,"trial":54,"stimulus":4,"robot":1,"valence":"win","action":"go","sham":0,"trial_type":"pit-trial","trial_index":90,"time_elapsed":932000,"internal_node_id":"0.0-61.0","task_version":"battery-v0.2-trt"},{"rune":"C","rune_set":"bacs2","hex":"#f73b6a7A","correct":-1,"choice":-1,"rt":-1,"accuracy":1,"outcome":"-1","keys":[],"total_keys":0,"block":1,"trial":55,"stimulus":6,"robot":4,"valence":"lose","action":"no-go","sham":0,"trial_type":"pit-trial","trial_index":91,"time_elapsed":936005,"internal_node_id":"0.0-62.0","task_version":"battery-v0.2-trt"},{"rune":"E","rune_set":"bacs2","hex":"#3366ff99","correct":-1,"choice":-1,"rt":-1,"accuracy":1,"outcome":"+10","keys":[],"total_keys":0,"block":1,"trial":56,"stimulus":7,"robot":2,"valence":"win","action":"no-go","sham":0,"trial_type":"pit-trial","trial_index":92,"time_elapsed":940009,"internal_node_id":"0.0-63.0","task_version":"battery-v0.2-trt"},{"rune":"E","rune_set":"bacs2","hex":"#3366ff99","correct":-1,"choice":-1,"rt":-1,"accuracy":1,"outcome":"+10","keys":[],"total_keys":0,"block":1,"trial":57,"stimulus":7,"robot":2,"valence":"win","action":"no-go","sham":0,"trial_type":"pit-trial","trial_index":93,"time_elapsed":944013,"internal_node_id":"0.0-64.0","task_version":"battery-v0.2-trt"},{"rune":"G","rune_set":"bacs2","hex":"#3366ff99","correct":32,"choice":-1,"rt":-1,"accuracy":0,"outcome":"+1","keys":[],"total_keys":0,"block":1,"trial":58,"stimulus":4,"robot":1,"valence":"win","action":"go","sham":0,"trial_type":"pit-trial","trial_index":94,"time_elapsed":948019,"internal_node_id":"0.0-65.0","task_version":"battery-v0.2-trt"},{"rune":"O","rune_set":"bacs2","hex":"#f73b6a7A","correct":32,"choice":32,"rt":536.4649998955429,"accuracy":1,"outcome":"-1","keys":[2036.7749999277294],"total_keys":1,"block":1,"trial":59,"stimulus":5,"robot":3,"valence":"lose","action":"go","sham":0,"trial_type":"pit-trial","trial_index":95,"time_elapsed":951260,"internal_node_id":"0.0-66.0","task_version":"battery-v0.2-trt"},{"rune":"C","rune_set":"bacs2","hex":"#f73b6a7A","correct":-1,"choice":-1,"rt":-1,"accuracy":1,"outcome":"-1","keys":[],"total_keys":0,"block":1,"trial":60,"stimulus":6,"robot":4,"valence":"lose","action":"no-go","sham":0,"trial_type":"pit-trial","trial_index":96,"time_elapsed":955265,"internal_node_id":"0.0-67.0","task_version":"battery-v0.2-trt"},{"rune":"O","rune_set":"bacs2","hex":"#f73b6a7A","correct":32,"choice":-1,"rt":-1,"accuracy":0,"outcome":"-1","keys":[],"total_keys":0,"block":1,"trial":61,"stimulus":5,"robot":3,"valence":"lose","action":"go","sham":1,"trial_type":"pit-trial","trial_index":97,"time_elapsed":959269,"internal_node_id":"0.0-68.0","task_version":"battery-v0.2-trt"},{"rune":"E","rune_set":"bacs2","hex":"#3366ff99","correct":-1,"choice":32,"rt":587.6249996945262,"accuracy":0,"outcome":"+1","keys":[2088.824999984354],"total_keys":1,"block":1,"trial":62,"stimulus":7,"robot":2,"valence":"win","action":"no-go","sham":0,"trial_type":"pit-trial","trial_index":98,"time_elapsed":962563,"internal_node_id":"0.0-69.0","task_version":"battery-v0.2-trt"},{"rune":"G","rune_set":"bacs2","hex":"#3366ff99","correct":32,"choice":-1,"rt":-1,"accuracy":0,"outcome":"+1","keys":[],"total_keys":0,"block":1,"trial":63,"stimulus":4,"robot":1,"valence":"win","action":"go","sham":0,"trial_type":"pit-trial","trial_index":99,"time_elapsed":966566,"internal_node_id":"0.0-70.0","task_version":"battery-v0.2-trt"},{"rune":"C","rune_set":"bacs2","hex":"#f73b6a7A","correct":-1,"choice":-1,"rt":-1,"accuracy":1,"outcome":"-1","keys":[],"total_keys":0,"block":1,"trial":64,"stimulus":6,"robot":4,"valence":"lose","action":"no-go","sham":0,"trial_type":"pit-trial","trial_index":100,"time_elapsed":970571,"internal_node_id":"0.0-71.0","task_version":"battery-v0.2-trt"},{"rune":"G","rune_set":"bacs2","hex":"#3366ff99","correct":32,"choice":32,"rt":612.4999998137355,"accuracy":1,"outcome":"+10","keys":[2112.629999872297],"total_keys":1,"block":1,"trial":65,"stimulus":4,"robot":1,"valence":"win","action":"go","sham":0,"trial_type":"pit-trial","trial_index":101,"time_elapsed":973887,"internal_node_id":"0.0-72.0","task_version":"battery-v0.2-trt"},{"rune":"E","rune_set":"bacs2","hex":"#3366ff99","correct":-1,"choice":32,"rt":437.60000029578805,"accuracy":0,"outcome":"+1","keys":[1937.9050000570714],"total_keys":1,"block":1,"trial":66,"stimulus":7,"robot":2,"valence":"win","action":"no-go","sham":0,"trial_type":"pit-trial","trial_index":102,"time_elapsed":977029,"internal_node_id":"0.0-73.0","task_version":"battery-v0.2-trt"},{"rune":"O","rune_set":"bacs2","hex":"#f73b6a7A","correct":32,"choice":-1,"rt":-1,"accuracy":0,"outcome":"-10","keys":[],"total_keys":0,"block":1,"trial":67,"stimulus":5,"robot":3,"valence":"lose","action":"go","sham":0,"trial_type":"pit-trial","trial_index":103,"time_elapsed":981034,"internal_node_id":"0.0-74.0","task_version":"battery-v0.2-trt"},{"rune":"C","rune_set":"bacs2","hex":"#f73b6a7A","correct":-1,"choice":-1,"rt":-1,"accuracy":1,"outcome":"-1","keys":[],"total_keys":0,"block":1,"trial":68,"stimulus":6,"robot":4,"valence":"lose","action":"no-go","sham":0,"trial_type":"pit-trial","trial_index":104,"time_elapsed":985039,"internal_node_id":"0.0-75.0","task_version":"battery-v0.2-trt"},{"rune":"C","rune_set":"bacs2","hex":"#f73b6a7A","correct":-1,"choice":-1,"rt":-1,"accuracy":1,"outcome":"-10","keys":[],"total_keys":0,"block":1,"trial":69,"stimulus":6,"robot":4,"valence":"lose","action":"no-go","sham":1,"trial_type":"pit-trial","trial_index":105,"time_elapsed":989042,"internal_node_id":"0.0-76.0","task_version":"battery-v0.2-trt"},{"rune":"G","rune_set":"bacs2","hex":"#3366ff99","correct":32,"choice":32,"rt":368.9350001513958,"accuracy":1,"outcome":"+10","keys":[1869.9099998921156],"total_keys":1,"block":1,"trial":70,"stimulus":4,"robot":1,"valence":"win","action":"go","sham":0,"trial_type":"pit-trial","trial_index":106,"time_elapsed":992117,"internal_node_id":"0.0-77.0","task_version":"battery-v0.2-trt"},{"rune":"E","rune_set":"bacs2","hex":"#3366ff99","correct":-1,"choice":32,"rt":472.0550002530217,"accuracy":0,"outcome":"+1","keys":[1973.9350001327693],"total_keys":1,"block":1,"trial":71,"stimulus":7,"robot":2,"valence":"win","action":"no-go","sham":0,"trial_type":"pit-trial","trial_index":107,"time_elapsed":995297,"internal_node_id":"0.0-78.0","task_version":"battery-v0.2-trt"},{"rune":"O","rune_set":"bacs2","hex":"#f73b6a7A","correct":32,"choice":32,"rt":868.2200000621378,"accuracy":1,"outcome":"-1","keys":[2368.8499997369945],"total_keys":1,"block":1,"trial":72,"stimulus":5,"robot":3,"valence":"lose","action":"go","sham":0,"trial_type":"pit-trial","trial_index":108,"time_elapsed":998870,"internal_node_id":"0.0-79.0","task_version":"battery-v0.2-trt"},{"rune":"E","rune_set":"bacs2","hex":"#3366ff99","correct":-1,"choice":32,"rt":703.1649998389184,"accuracy":0,"outcome":"+10","keys":[2203.9549998007715],"total_keys":1,"block":1,"trial":73,"stimulus":7,"robot":2,"valence":"win","action":"no-go","sham":1,"trial_type":"pit-trial","trial_index":109,"time_elapsed":1002278,"internal_node_id":"0.0-80.0","task_version":"battery-v0.2-trt"},{"rune":"H","rune_set":"bacs2","hex":"#f73b6a7A","correct":32,"choice":-1,"rt":-1,"accuracy":0,"outcome":"-10","keys":[],"total_keys":0,"block":1,"trial":74,"stimulus":8,"robot":3,"valence":"lose","action":"go","sham":0,"trial_type":"pit-trial","trial_index":110,"time_elapsed":1006283,"internal_node_id":"0.0-81.0","task_version":"battery-v0.2-trt"},{"rune":"C","rune_set":"bacs2","hex":"#f73b6a7A","correct":-1,"choice":-1,"rt":-1,"accuracy":1,"outcome":"-1","keys":[],"total_keys":0,"block":1,"trial":75,"stimulus":6,"robot":4,"valence":"lose","action":"no-go","sham":0,"trial_type":"pit-trial","trial_index":111,"time_elapsed":1010291,"internal_node_id":"0.0-82.0","task_version":"battery-v0.2-trt"},{"rune":"G","rune_set":"bacs2","hex":"#3366ff99","correct":32,"choice":32,"rt":759.5750000327826,"accuracy":1,"outcome":"+10","keys":[2260.604999959469],"total_keys":1,"block":1,"trial":76,"stimulus":4,"robot":1,"valence":"win","action":"go","sham":0,"trial_type":"pit-trial","trial_index":112,"time_elapsed":1013754,"internal_node_id":"0.0-83.0","task_version":"battery-v0.2-trt"},{"rune":"C","rune_set":"bacs2","hex":"#f73b6a7A","correct":-1,"choice":-1,"rt":-1,"accuracy":1,"outcome":"-10","keys":[3458.250000141561],"total_keys":1,"block":1,"trial":77,"stimulus":6,"robot":4,"valence":"lose","action":"no-go","sham":1,"trial_type":"pit-trial","trial_index":113,"time_elapsed":1017759,"internal_node_id":"0.0-84.0","task_version":"battery-v0.2-trt"},{"rune":"G","rune_set":"bacs2","hex":"#3366ff99","correct":32,"choice":32,"rt":574.7650000266731,"accuracy":1,"outcome":"+10","keys":[2076.274999883026],"total_keys":1,"block":1,"trial":78,"stimulus":4,"robot":1,"valence":"win","action":"go","sham":0,"trial_type":"pit-trial","trial_index":114,"time_elapsed":1021040,"internal_node_id":"0.0-85.0","task_version":"battery-v0.2-trt"},{"rune":"E","rune_set":"bacs2","hex":"#3366ff99","correct":-1,"choice":32,"rt":1089.9099996313453,"accuracy":0,"outcome":"+1","keys":[2591.185000259429],"total_keys":1,"block":1,"trial":79,"stimulus":7,"robot":2,"valence":"win","action":"no-go","sham":0,"trial_type":"pit-trial","trial_index":115,"time_elapsed":1024835,"internal_node_id":"0.0-86.0","task_version":"battery-v0.2-trt"},{"rune":"H","rune_set":"bacs2","hex":"#f73b6a7A","correct":32,"choice":32,"rt":727.4750000797212,"accuracy":1,"outcome":"-10","keys":[2227.9599998146296],"total_keys":1,"block":1,"trial":80,"stimulus":8,"robot":3,"valence":"lose","action":"go","sham":1,"trial_type":"pit-trial","trial_index":116,"time_elapsed":1028265,"internal_node_id":"0.0-87.0","task_version":"battery-v0.2-trt"},{"rune":"Q","rune_set":"bacs2","hex":"#f73b6a7A","correct":32,"choice":-1,"rt":-1,"accuracy":0,"outcome":"-10","keys":[3563.9399997889996],"total_keys":1,"block":1,"trial":81,"stimulus":9,"robot":3,"valence":"lose","action":"go","sham":0,"trial_type":"pit-trial","trial_index":117,"time_elapsed":1032269,"internal_node_id":"0.0-88.0","task_version":"battery-v0.2-trt"},{"rune":"E","rune_set":"bacs2","hex":"#3366ff99","correct":-1,"choice":32,"rt":809.0000003576279,"accuracy":0,"outcome":"+1","keys":[2310.490000061691],"total_keys":1,"block":1,"trial":82,"stimulus":7,"robot":2,"valence":"win","action":"no-go","sham":0,"trial_type":"pit-trial","trial_index":118,"time_elapsed":1035783,"internal_node_id":"0.0-89.0","task_version":"battery-v0.2-trt"},{"rune":"H","rune_set":"bacs2","hex":"#f73b6a7A","correct":32,"choice":-1,"rt":-1,"accuracy":0,"outcome":"-10","keys":[3773.7250002101064],"total_keys":1,"block":1,"trial":83,"stimulus":8,"robot":3,"valence":"lose","action":"go","sham":0,"trial_type":"pit-trial","trial_index":119,"time_elapsed":1039788,"internal_node_id":"0.0-90.0","task_version":"battery-v0.2-trt"},{"rune":"C","rune_set":"bacs2","hex":"#f73b6a7A","correct":-1,"choice":-1,"rt":-1,"accuracy":1,"outcome":"-10","keys":[],"total_keys":0,"block":1,"trial":84,"stimulus":6,"robot":4,"valence":"lose","action":"no-go","sham":1,"trial_type":"pit-trial","trial_index":120,"time_elapsed":1043796,"internal_node_id":"0.0-91.0","task_version":"battery-v0.2-trt"},{"rune":"H","rune_set":"bacs2","hex":"#f73b6a7A","correct":32,"choice":32,"rt":703.8699998520315,"accuracy":1,"outcome":"-1","keys":[2204.874999821186],"total_keys":1,"block":1,"trial":85,"stimulus":8,"robot":3,"valence":"lose","action":"go","sham":0,"trial_type":"pit-trial","trial_index":121,"time_elapsed":1047207,"internal_node_id":"0.0-92.0","task_version":"battery-v0.2-trt"},{"rune":"C","rune_set":"bacs2","hex":"#f73b6a7A","correct":-1,"choice":32,"rt":574.7800003737211,"accuracy":0,"outcome":"-10","keys":[2075.290000066161],"total_keys":1,"block":1,"trial":86,"stimulus":6,"robot":4,"valence":"lose","action":"no-go","sham":0,"trial_type":"pit-trial","trial_index":122,"time_elapsed":1050489,"internal_node_id":"0.0-93.0","task_version":"battery-v0.2-trt"},{"rune":"Q","rune_set":"bacs2","hex":"#f73b6a7A","correct":32,"choice":-1,"rt":-1,"accuracy":0,"outcome":"-10","keys":[],"total_keys":0,"block":1,"trial":87,"stimulus":9,"robot":3,"valence":"lose","action":"go","sham":0,"trial_type":"pit-trial","trial_index":123,"time_elapsed":1054493,"internal_node_id":"0.0-94.0","task_version":"battery-v0.2-trt"},{"rune":"E","rune_set":"bacs2","hex":"#3366ff99","correct":-1,"choice":32,"rt":491.864999756217,"accuracy":0,"outcome":"+10","keys":[1993.0050000548363],"total_keys":1,"block":1,"trial":88,"stimulus":7,"robot":2,"valence":"win","action":"no-go","sham":1,"trial_type":"pit-trial","trial_index":124,"time_elapsed":1057691,"internal_node_id":"0.0-95.0","task_version":"battery-v0.2-trt"},{"rune":"H","rune_set":"bacs2","hex":"#f73b6a7A","correct":32,"choice":32,"rt":975.9900001809001,"accuracy":1,"outcome":"-1","keys":[2477.0949999801815],"total_keys":1,"block":1,"trial":89,"stimulus":8,"robot":3,"valence":"lose","action":"go","sham":0,"trial_type":"pit-trial","trial_index":125,"time_elapsed":1061372,"internal_node_id":"0.0-96.0","task_version":"battery-v0.2-trt"},{"rune":"Y","rune_set":"bacs2","hex":"#3366ff99","correct":-1,"choice":32,"rt":857.4899998493493,"accuracy":0,"outcome":"+1","keys":[2357.9150000587106],"total_keys":1,"block":1,"trial":90,"stimulus":11,"robot":2,"valence":"win","action":"no-go","sham":0,"trial_type":"pit-trial","trial_index":126,"time_elapsed":1064934,"internal_node_id":"0.0-97.0","task_version":"battery-v0.2-trt"},{"rune":"T","rune_set":"bacs2","hex":"#f73b6a7A","correct":-1,"choice":32,"rt":1029.0600000880659,"accuracy":0,"outcome":"-10","keys":[2530.0249997526407],"total_keys":1,"block":1,"trial":91,"stimulus":10,"robot":4,"valence":"lose","action":"no-go","sham":0,"trial_type":"pit-trial","trial_index":127,"time_elapsed":1068668,"internal_node_id":"0.0-98.0","task_version":"battery-v0.2-trt"},{"rune":"Q","rune_set":"bacs2","hex":"#f73b6a7A","correct":32,"choice":-1,"rt":-1,"accuracy":0,"outcome":"-10","keys":[],"total_keys":0,"block":1,"trial":92,"stimulus":9,"robot":3,"valence":"lose","action":"go","sham":0,"trial_type":"pit-trial","trial_index":128,"time_elapsed":1072672,"internal_node_id":"0.0-99.0","task_version":"battery-v0.2-trt"},{"rune":"Y","rune_set":"bacs2","hex":"#3366ff99","correct":-1,"choice":32,"rt":582.2600000537932,"accuracy":0,"outcome":"+1","keys":[2083.9100000448525],"total_keys":1,"block":1,"trial":93,"stimulus":11,"robot":2,"valence":"win","action":"no-go","sham":0,"trial_type":"pit-trial","trial_index":129,"time_elapsed":1075959,"internal_node_id":"0.0-100.0","task_version":"battery-v0.2-trt"},{"rune":"H","rune_set":"bacs2","hex":"#f73b6a7A","correct":32,"choice":32,"rt":978.3850000239909,"accuracy":1,"outcome":"-1","keys":[2478.5250001586974],"total_keys":1,"block":1,"trial":94,"stimulus":8,"robot":3,"valence":"lose","action":"go","sham":0,"trial_type":"pit-trial","trial_index":130,"time_elapsed":1079642,"internal_node_id":"0.0-101.0","task_version":"battery-v0.2-trt"},{"rune":"T","rune_set":"bacs2","hex":"#f73b6a7A","correct":-1,"choice":-1,"rt":-1,"accuracy":1,"outcome":"-1","keys":[],"total_keys":0,"block":1,"trial":95,"stimulus":10,"robot":4,"valence":"lose","action":"no-go","sham":0,"trial_type":"pit-trial","trial_index":131,"time_elapsed":1083648,"internal_node_id":"0.0-102.0","task_version":"battery-v0.2-trt"},{"rune":"Q","rune_set":"bacs2","hex":"#f73b6a7A","correct":32,"choice":32,"rt":772.8399997577071,"accuracy":1,"outcome":"-1","keys":[2272.9250001721084],"total_keys":1,"block":1,"trial":96,"stimulus":9,"robot":3,"valence":"lose","action":"go","sham":0,"trial_type":"pit-trial","trial_index":132,"time_elapsed":1087125,"internal_node_id":"0.0-103.0","task_version":"battery-v0.2-trt"},{"rune":"Y","rune_set":"bacs2","hex":"#3366ff99","correct":-1,"choice":32,"rt":433.8399996049702,"accuracy":0,"outcome":"+1","keys":[1934.9200003780425],"total_keys":1,"block":1,"trial":97,"stimulus":11,"robot":2,"valence":"win","action":"no-go","sham":0,"trial_type":"pit-trial","trial_index":133,"time_elapsed":1090265,"internal_node_id":"0.0-104.0","task_version":"battery-v0.2-trt"},{"rune":"T","rune_set":"bacs2","hex":"#f73b6a7A","correct":-1,"choice":-1,"rt":-1,"accuracy":1,"outcome":"-1","keys":[],"total_keys":0,"block":1,"trial":98,"stimulus":10,"robot":4,"valence":"lose","action":"no-go","sham":0,"trial_type":"pit-trial","trial_index":134,"time_elapsed":1094271,"internal_node_id":"0.0-105.0","task_version":"battery-v0.2-trt"},{"rune":"Q","rune_set":"bacs2","hex":"#f73b6a7A","correct":32,"choice":32,"rt":1263.2200000807643,"accuracy":1,"outcome":"-10","keys":[2764.294999651611],"total_keys":1,"block":1,"trial":99,"stimulus":9,"robot":3,"valence":"lose","action":"go","sham":1,"trial_type":"pit-trial","trial_index":135,"time_elapsed":1098241,"internal_node_id":"0.0-106.0","task_version":"battery-v0.2-trt"},{"rune":"H","rune_set":"bacs2","hex":"#f73b6a7A","correct":32,"choice":-1,"rt":-1,"accuracy":0,"outcome":"-10","keys":[],"total_keys":0,"block":1,"trial":100,"stimulus":8,"robot":3,"valence":"lose","action":"go","sham":0,"trial_type":"pit-trial","trial_index":136,"time_elapsed":1102248,"internal_node_id":"0.0-107.0","task_version":"battery-v0.2-trt"},{"rune":"T","rune_set":"bacs2","hex":"#f73b6a7A","correct":-1,"choice":-1,"rt":-1,"accuracy":1,"outcome":"-1","keys":[],"total_keys":0,"block":1,"trial":101,"stimulus":10,"robot":4,"valence":"lose","action":"no-go","sham":0,"trial_type":"pit-trial","trial_index":137,"time_elapsed":1106252,"internal_node_id":"0.0-108.0","task_version":"battery-v0.2-trt"},{"rune":"Y","rune_set":"bacs2","hex":"#3366ff99","correct":-1,"choice":-1,"rt":-1,"accuracy":1,"outcome":"+10","keys":[],"total_keys":0,"block":1,"trial":102,"stimulus":11,"robot":2,"valence":"win","action":"no-go","sham":0,"trial_type":"pit-trial","trial_index":138,"time_elapsed":1110257,"internal_node_id":"0.0-109.0","task_version":"battery-v0.2-trt"},{"rune":"Q","rune_set":"bacs2","hex":"#f73b6a7A","correct":32,"choice":-1,"rt":-1,"accuracy":0,"outcome":"-10","keys":[],"total_keys":0,"block":1,"trial":103,"stimulus":9,"robot":3,"valence":"lose","action":"go","sham":0,"trial_type":"pit-trial","trial_index":139,"time_elapsed":1114262,"internal_node_id":"0.0-110.0","task_version":"battery-v0.2-trt"},{"rune":"H","rune_set":"bacs2","hex":"#f73b6a7A","correct":32,"choice":32,"rt":776.649999897927,"accuracy":1,"outcome":"-1","keys":[2277.005000039935],"total_keys":1,"block":1,"trial":104,"stimulus":8,"robot":3,"valence":"lose","action":"go","sham":0,"trial_type":"pit-trial","trial_index":140,"time_elapsed":1117743,"internal_node_id":"0.0-111.0","task_version":"battery-v0.2-trt"},{"rune":"Q","rune_set":"bacs2","hex":"#f73b6a7A","correct":32,"choice":32,"rt":793.0000000633299,"accuracy":1,"outcome":"-1","keys":[2293.7400001101196],"total_keys":1,"block":1,"trial":105,"stimulus":9,"robot":3,"valence":"lose","action":"go","sham":0,"trial_type":"pit-trial","trial_index":141,"time_elapsed":1121243,"internal_node_id":"0.0-112.0","task_version":"battery-v0.2-trt"},{"rune":"H","rune_set":"bacs2","hex":"#f73b6a7A","correct":32,"choice":32,"rt":772.5700000301003,"accuracy":1,"outcome":"-1","keys":[2277.22500031814],"total_keys":1,"block":1,"trial":106,"stimulus":8,"robot":3,"valence":"lose","action":"go","sham":0,"trial_type":"pit-trial","trial_index":142,"time_elapsed":1124724,"internal_node_id":"0.0-113.0","task_version":"battery-v0.2-trt"},{"rune":"Y","rune_set":"bacs2","hex":"#3366ff99","correct":-1,"choice":-1,"rt":-1,"accuracy":1,"outcome":"+1","keys":[],"total_keys":0,"block":1,"trial":107,"stimulus":11,"robot":2,"valence":"win","action":"no-go","sham":1,"trial_type":"pit-trial","trial_index":143,"time_elapsed":1128729,"internal_node_id":"0.0-114.0","task_version":"battery-v0.2-trt"},{"rune":"T","rune_set":"bacs2","hex":"#f73b6a7A","correct":-1,"choice":-1,"rt":-1,"accuracy":1,"outcome":"-1","keys":[],"total_keys":0,"block":1,"trial":108,"stimulus":10,"robot":4,"valence":"lose","action":"no-go","sham":0,"trial_type":"pit-trial","trial_index":144,"time_elapsed":1132733,"internal_node_id":"0.0-115.0","task_version":"battery-v0.2-trt"},{"rune":"T","rune_set":"bacs2","hex":"#f73b6a7A","correct":-1,"choice":-1,"rt":-1,"accuracy":1,"outcome":"-1","keys":[],"total_keys":0,"block":1,"trial":109,"stimulus":10,"robot":4,"valence":"lose","action":"no-go","sham":0,"trial_type":"pit-trial","trial_index":145,"time_elapsed":1136738,"internal_node_id":"0.0-116.0","task_version":"battery-v0.2-trt"},{"rune":"Y","rune_set":"bacs2","hex":"#3366ff99","correct":-1,"choice":32,"rt":535.0200003013015,"accuracy":0,"outcome":"+1","keys":[2035.1200001314282],"total_keys":1,"block":1,"trial":110,"stimulus":11,"robot":2,"valence":"win","action":"no-go","sham":0,"trial_type":"pit-trial","trial_index":146,"time_elapsed":1139977,"internal_node_id":"0.0-117.0","task_version":"battery-v0.2-trt"},{"rune":"Q","rune_set":"bacs2","hex":"#f73b6a7A","correct":32,"choice":32,"rt":1061.9200002402067,"accuracy":1,"outcome":"-1","keys":[2562.299999874085],"total_keys":1,"block":1,"trial":111,"stimulus":9,"robot":3,"valence":"lose","action":"go","sham":0,"trial_type":"pit-trial","trial_index":147,"time_elapsed":1143745,"internal_node_id":"0.0-118.0","task_version":"battery-v0.2-trt"},{"rune":"H","rune_set":"bacs2","hex":"#f73b6a7A","correct":32,"choice":32,"rt":685.4949998669326,"accuracy":1,"outcome":"-10","keys":[2186.1300002783537],"total_keys":1,"block":1,"trial":112,"stimulus":8,"robot":3,"valence":"lose","action":"go","sham":1,"trial_type":"pit-trial","trial_index":148,"time_elapsed":1147147,"internal_node_id":"0.0-119.0","task_version":"battery-v0.2-trt"},{"rune":"H","rune_set":"bacs2","hex":"#f73b6a7A","correct":32,"choice":-1,"rt":-1,"accuracy":0,"outcome":"-10","keys":[],"total_keys":0,"block":1,"trial":113,"stimulus":8,"robot":3,"valence":"lose","action":"go","sham":0,"trial_type":"pit-trial","trial_index":149,"time_elapsed":1151152,"internal_node_id":"0.0-120.0","task_version":"battery-v0.2-trt"},{"rune":"Y","rune_set":"bacs2","hex":"#3366ff99","correct":-1,"choice":32,"rt":812.2549997642636,"accuracy":0,"outcome":"+1","keys":[2312.4649999663234],"total_keys":1,"block":1,"trial":114,"stimulus":11,"robot":2,"valence":"win","action":"no-go","sham":0,"trial_type":"pit-trial","trial_index":150,"time_elapsed":1154668,"internal_node_id":"0.0-121.0","task_version":"battery-v0.2-trt"},{"rune":"Q","rune_set":"bacs2","hex":"#f73b6a7A","correct":32,"choice":-1,"rt":-1,"accuracy":0,"outcome":"-10","keys":[],"total_keys":0,"block":1,"trial":115,"stimulus":9,"robot":3,"valence":"lose","action":"go","sham":0,"trial_type":"pit-trial","trial_index":151,"time_elapsed":1158673,"internal_node_id":"0.0-122.0","task_version":"battery-v0.2-trt"},{"rune":"T","rune_set":"bacs2","hex":"#f73b6a7A","correct":-1,"choice":32,"rt":633.034999947995,"accuracy":0,"outcome":"-10","keys":[2134.6299997530878],"total_keys":1,"block":1,"trial":116,"stimulus":10,"robot":4,"valence":"lose","action":"no-go","sham":0,"trial_type":"pit-trial","trial_index":152,"time_elapsed":1162012,"internal_node_id":"0.0-123.0","task_version":"battery-v0.2-trt"},{"rune":"Y","rune_set":"bacs2","hex":"#3366ff99","correct":-1,"choice":32,"rt":820.0300000607967,"accuracy":0,"outcome":"+1","keys":[2320.18500007689],"total_keys":1,"block":1,"trial":117,"stimulus":11,"robot":2,"valence":"win","action":"no-go","sham":0,"trial_type":"pit-trial","trial_index":153,"time_elapsed":1165536,"internal_node_id":"0.0-124.0","task_version":"battery-v0.2-trt"},{"rune":"T","rune_set":"bacs2","hex":"#f73b6a7A","correct":-1,"choice":-1,"rt":-1,"accuracy":1,"outcome":"-1","keys":[],"total_keys":0,"block":1,"trial":118,"stimulus":10,"robot":4,"valence":"lose","action":"no-go","sham":0,"trial_type":"pit-trial","trial_index":154,"time_elapsed":1169540,"internal_node_id":"0.0-125.0","task_version":"battery-v0.2-trt"},{"rune":"H","rune_set":"bacs2","hex":"#f73b6a7A","correct":32,"choice":-1,"rt":-1,"accuracy":0,"outcome":"-10","keys":[],"total_keys":0,"block":1,"trial":119,"stimulus":8,"robot":3,"valence":"lose","action":"go","sham":0,"trial_type":"pit-trial","trial_index":155,"time_elapsed":1173544,"internal_node_id":"0.0-126.0","task_version":"battery-v0.2-trt"},{"rune":"Q","rune_set":"bacs2","hex":"#f73b6a7A","correct":32,"choice":32,"rt":430.19500002264977,"accuracy":1,"outcome":"-1","keys":[1930.8700002729893],"total_keys":1,"block":1,"trial":120,"stimulus":9,"robot":3,"valence":"lose","action":"go","sham":0,"trial_type":"pit-trial","trial_index":156,"time_elapsed":1176678,"internal_node_id":"0.0-127.0","task_version":"battery-v0.2-trt"},{"view_history":"[{\"page_index\":0,\"viewing_time\":32029.860000126064},{\"page_index\":1,\"viewing_time\":3580.420000012964}]","rt":35610.654999967664,"trial_type":"pit-instructions","trial_index":157,"time_elapsed":1212291,"internal_node_id":"0.0-128.0","task_version":"battery-v0.2-trt"},{"rune":"V","rune_set":"bacs2","hex":"#3366ff99","correct":-1,"choice":32,"rt":639.580000191927,"accuracy":0,"outcome":"+1","keys":[2140.0600001215935],"total_keys":1,"block":2,"trial":121,"stimulus":3,"robot":2,"valence":"win","action":"no-go","sham":0,"trial_type":"pit-trial","trial_index":158,"time_elapsed":1215636,"internal_node_id":"0.0-129.0","task_version":"battery-v0.2-trt"},{"rune":"M","rune_set":"bacs2","hex":"#f73b6a7A","correct":-1,"choice":-1,"rt":-1,"accuracy":1,"outcome":"-1","keys":[],"total_keys":0,"block":2,"trial":122,"stimulus":0,"robot":4,"valence":"lose","action":"no-go","sham":0,"trial_type":"pit-trial","trial_index":159,"time_elapsed":1219638,"internal_node_id":"0.0-130.0","task_version":"battery-v0.2-trt"},{"rune":"K","rune_set":"bacs2","hex":"#3366ff99","correct":32,"choice":-1,"rt":-1,"accuracy":0,"outcome":"+1","keys":[3756.015000399202],"total_keys":1,"block":2,"trial":123,"stimulus":2,"robot":1,"valence":"win","action":"go","sham":0,"trial_type":"pit-trial","trial_index":160,"time_elapsed":1223641,"internal_node_id":"0.0-131.0","task_version":"battery-v0.2-trt"},{"rune":"B","rune_set":"bacs2","hex":"#f73b6a7A","correct":-1,"choice":32,"rt":1083.4050001576543,"accuracy":0,"outcome":"-1","keys":[2584.060000255704],"total_keys":1,"block":2,"trial":124,"stimulus":1,"robot":4,"valence":"lose","action":"no-go","sham":1,"trial_type":"pit-trial","trial_index":161,"time_elapsed":1227429,"internal_node_id":"0.0-132.0","task_version":"battery-v0.2-trt"},{"rune":"B","rune_set":"bacs2","hex":"#f73b6a7A","correct":-1,"choice":32,"rt":391.1800002679229,"accuracy":0,"outcome":"-10","keys":[1892.2749999910593],"total_keys":1,"block":2,"trial":125,"stimulus":1,"robot":4,"valence":"lose","action":"no-go","sham":0,"trial_type":"pit-trial","trial_index":162,"time_elapsed":1230525,"internal_node_id":"0.0-133.0","task_version":"battery-v0.2-trt"},{"rune":"V","rune_set":"bacs2","hex":"#3366ff99","correct":-1,"choice":32,"rt":979.7800001688302,"accuracy":0,"outcome":"+1","keys":[2481.5950002521276],"total_keys":1,"block":2,"trial":126,"stimulus":3,"robot":2,"valence":"win","action":"no-go","sham":0,"trial_type":"pit-trial","trial_index":163,"time_elapsed":1234211,"internal_node_id":"0.0-134.0","task_version":"battery-v0.2-trt"},{"rune":"K","rune_set":"bacs2","hex":"#3366ff99","correct":32,"choice":-1,"rt":-1,"accuracy":0,"outcome":"+1","keys":[],"total_keys":0,"block":2,"trial":127,"stimulus":2,"robot":1,"valence":"win","action":"go","sham":0,"trial_type":"pit-trial","trial_index":164,"time_elapsed":1238217,"internal_node_id":"0.0-135.0","task_version":"battery-v0.2-trt"},{"rune":"M","rune_set":"bacs2","hex":"#f73b6a7A","correct":-1,"choice":32,"rt":945.4950001090765,"accuracy":0,"outcome":"-10","keys":[2447.055000346154],"total_keys":1,"block":2,"trial":128,"stimulus":0,"robot":4,"valence":"lose","action":"no-go","sham":0,"trial_type":"pit-trial","trial_index":165,"time_elapsed":1241868,"internal_node_id":"0.0-136.0","task_version":"battery-v0.2-trt"},{"rune":"K","rune_set":"bacs2","hex":"#3366ff99","correct":32,"choice":32,"rt":732.2700000368059,"accuracy":1,"outcome":"+10","keys":[2232.780000194907],"total_keys":1,"block":2,"trial":129,"stimulus":2,"robot":1,"valence":"win","action":"go","sham":0,"trial_type":"pit-trial","trial_index":166,"time_elapsed":1245304,"internal_node_id":"0.0-137.0","task_version":"battery-v0.2-trt"},{"rune":"B","rune_set":"bacs2","hex":"#f73b6a7A","correct":-1,"choice":-1,"rt":-1,"accuracy":1,"outcome":"-1","keys":[],"total_keys":0,"block":2,"trial":130,"stimulus":1,"robot":4,"valence":"lose","action":"no-go","sham":0,"trial_type":"pit-trial","trial_index":167,"time_elapsed":1249310,"internal_node_id":"0.0-138.0","task_version":"battery-v0.2-trt"},{"rune":"M","rune_set":"bacs2","hex":"#f73b6a7A","correct":-1,"choice":-1,"rt":-1,"accuracy":1,"outcome":"-1","keys":[],"total_keys":0,"block":2,"trial":131,"stimulus":0,"robot":4,"valence":"lose","action":"no-go","sham":0,"trial_type":"pit-trial","trial_index":168,"time_elapsed":1253314,"internal_node_id":"0.0-139.0","task_version":"battery-v0.2-trt"},{"rune":"V","rune_set":"bacs2","hex":"#3366ff99","correct":-1,"choice":-1,"rt":-1,"accuracy":1,"outcome":"+10","keys":[],"total_keys":0,"block":2,"trial":132,"stimulus":3,"robot":2,"valence":"win","action":"no-go","sham":0,"trial_type":"pit-trial","trial_index":169,"time_elapsed":1257320,"internal_node_id":"0.0-140.0","task_version":"battery-v0.2-trt"},{"rune":"K","rune_set":"bacs2","hex":"#3366ff99","correct":32,"choice":32,"rt":1072.2699998877943,"accuracy":1,"outcome":"+10","keys":[2572.379999794066],"total_keys":1,"block":2,"trial":133,"stimulus":2,"robot":1,"valence":"win","action":"go","sham":0,"trial_type":"pit-trial","trial_index":170,"time_elapsed":1261096,"internal_node_id":"0.0-141.0","task_version":"battery-v0.2-trt"},{"rune":"B","rune_set":"bacs2","hex":"#f73b6a7A","correct":-1,"choice":-1,"rt":-1,"accuracy":1,"outcome":"-1","keys":[],"total_keys":0,"block":2,"trial":134,"stimulus":1,"robot":4,"valence":"lose","action":"no-go","sham":0,"trial_type":"pit-trial","trial_index":171,"time_elapsed":1265100,"internal_node_id":"0.0-142.0","task_version":"battery-v0.2-trt"},{"rune":"M","rune_set":"bacs2","hex":"#f73b6a7A","correct":-1,"choice":-1,"rt":-1,"accuracy":1,"outcome":"-1","keys":[],"total_keys":0,"block":2,"trial":135,"stimulus":0,"robot":4,"valence":"lose","action":"no-go","sham":0,"trial_type":"pit-trial","trial_index":172,"time_elapsed":1269110,"internal_node_id":"0.0-143.0","task_version":"battery-v0.2-trt"},{"rune":"V","rune_set":"bacs2","hex":"#3366ff99","correct":-1,"choice":-1,"rt":-1,"accuracy":1,"outcome":"+1","keys":[2908.3899999968708],"total_keys":1,"block":2,"trial":136,"stimulus":3,"robot":2,"valence":"win","action":"no-go","sham":1,"trial_type":"pit-trial","trial_index":173,"time_elapsed":1273116,"internal_node_id":"0.0-144.0","task_version":"battery-v0.2-trt"},{"rune":"B","rune_set":"bacs2","hex":"#f73b6a7A","correct":-1,"choice":-1,"rt":-1,"accuracy":1,"outcome":"-1","keys":[],"total_keys":0,"block":2,"trial":137,"stimulus":1,"robot":4,"valence":"lose","action":"no-go","sham":0,"trial_type":"pit-trial","trial_index":174,"time_elapsed":1277121,"internal_node_id":"0.0-145.0","task_version":"battery-v0.2-trt"},{"rune":"M","rune_set":"bacs2","hex":"#f73b6a7A","correct":-1,"choice":-1,"rt":-1,"accuracy":1,"outcome":"-10","keys":[],"total_keys":0,"block":2,"trial":138,"stimulus":0,"robot":4,"valence":"lose","action":"no-go","sham":1,"trial_type":"pit-trial","trial_index":175,"time_elapsed":1281125,"internal_node_id":"0.0-146.0","task_version":"battery-v0.2-trt"},{"rune":"V","rune_set":"bacs2","hex":"#3366ff99","correct":-1,"choice":32,"rt":679.4449998997152,"accuracy":0,"outcome":"+1","keys":[2180.144999641925],"total_keys":1,"block":2,"trial":139,"stimulus":3,"robot":2,"valence":"win","action":"no-go","sham":0,"trial_type":"pit-trial","trial_index":176,"time_elapsed":1284508,"internal_node_id":"0.0-147.0","task_version":"battery-v0.2-trt"},{"rune":"K","rune_set":"bacs2","hex":"#3366ff99","correct":32,"choice":32,"rt":795.7850000821054,"accuracy":1,"outcome":"+10","keys":[2296.630000229925],"total_keys":1,"block":2,"trial":140,"stimulus":2,"robot":1,"valence":"win","action":"go","sham":0,"trial_type":"pit-trial","trial_index":177,"time_elapsed":1288010,"internal_node_id":"0.0-148.0","task_version":"battery-v0.2-trt"},{"rune":"M","rune_set":"bacs2","hex":"#f73b6a7A","correct":-1,"choice":-1,"rt":-1,"accuracy":1,"outcome":"-1","keys":[],"total_keys":0,"block":2,"trial":141,"stimulus":0,"robot":4,"valence":"lose","action":"no-go","sham":0,"trial_type":"pit-trial","trial_index":178,"time_elapsed":1292016,"internal_node_id":"0.0-149.0","task_version":"battery-v0.2-trt"},{"rune":"K","rune_set":"bacs2","hex":"#3366ff99","correct":32,"choice":32,"rt":935.8249995857477,"accuracy":1,"outcome":"+10","keys":[2436.825000215322],"total_keys":1,"block":2,"trial":142,"stimulus":2,"robot":1,"valence":"win","action":"go","sham":0,"trial_type":"pit-trial","trial_index":179,"time_elapsed":1295656,"internal_node_id":"0.0-150.0","task_version":"battery-v0.2-trt"},{"rune":"V","rune_set":"bacs2","hex":"#3366ff99","correct":-1,"choice":-1,"rt":-1,"accuracy":1,"outcome":"+10","keys":[],"total_keys":0,"block":2,"trial":143,"stimulus":3,"robot":2,"valence":"win","action":"no-go","sham":0,"trial_type":"pit-trial","trial_index":180,"time_elapsed":1299660,"internal_node_id":"0.0-151.0","task_version":"battery-v0.2-trt"},{"rune":"B","rune_set":"bacs2","hex":"#f73b6a7A","correct":-1,"choice":-1,"rt":-1,"accuracy":1,"outcome":"-10","keys":[],"total_keys":0,"block":2,"trial":144,"stimulus":1,"robot":4,"valence":"lose","action":"no-go","sham":1,"trial_type":"pit-trial","trial_index":181,"time_elapsed":1303665,"internal_node_id":"0.0-152.0","task_version":"battery-v0.2-trt"},{"rune":"B","rune_set":"bacs2","hex":"#f73b6a7A","correct":-1,"choice":32,"rt":966.3499998860061,"accuracy":0,"outcome":"-1","keys":[2467.344999779016],"total_keys":1,"block":2,"trial":145,"stimulus":1,"robot":4,"valence":"lose","action":"no-go","sham":1,"trial_type":"pit-trial","trial_index":182,"time_elapsed":1307336,"internal_node_id":"0.0-153.0","task_version":"battery-v0.2-trt"},{"rune":"M","rune_set":"bacs2","hex":"#f73b6a7A","correct":-1,"choice":-1,"rt":-1,"accuracy":1,"outcome":"-1","keys":[],"total_keys":0,"block":2,"trial":146,"stimulus":0,"robot":4,"valence":"lose","action":"no-go","sham":0,"trial_type":"pit-trial","trial_index":183,"time_elapsed":1311341,"internal_node_id":"0.0-154.0","task_version":"battery-v0.2-trt"},{"rune":"K","rune_set":"bacs2","hex":"#3366ff99","correct":32,"choice":32,"rt":956.2050001695752,"accuracy":1,"outcome":"+10","keys":[2456.4450001344085],"total_keys":1,"block":2,"trial":147,"stimulus":2,"robot":1,"valence":"win","action":"go","sham":0,"trial_type":"pit-trial","trial_index":184,"time_elapsed":1315000,"internal_node_id":"0.0-155.0","task_version":"battery-v0.2-trt"},{"rune":"V","rune_set":"bacs2","hex":"#3366ff99","correct":-1,"choice":-1,"rt":-1,"accuracy":1,"outcome":"+10","keys":[],"total_keys":0,"block":2,"trial":148,"stimulus":3,"robot":2,"valence":"win","action":"no-go","sham":0,"trial_type":"pit-trial","trial_index":185,"time_elapsed":1319003,"internal_node_id":"0.0-156.0","task_version":"battery-v0.2-trt"},{"rune":"V","rune_set":"bacs2","hex":"#3366ff99","correct":-1,"choice":32,"rt":1020.2600001357496,"accuracy":0,"outcome":"+10","keys":[2520.665000192821],"total_keys":1,"block":2,"trial":149,"stimulus":3,"robot":2,"valence":"win","action":"no-go","sham":1,"trial_type":"pit-trial","trial_index":186,"time_elapsed":1322727,"internal_node_id":"0.0-157.0","task_version":"battery-v0.2-trt"},{"rune":"B","rune_set":"bacs2","hex":"#f73b6a7A","correct":-1,"choice":-1,"rt":-1,"accuracy":1,"outcome":"-1","keys":[],"total_keys":0,"block":2,"trial":150,"stimulus":1,"robot":4,"valence":"lose","action":"no-go","sham":0,"trial_type":"pit-trial","trial_index":187,"time_elapsed":1326732,"internal_node_id":"0.0-158.0","task_version":"battery-v0.2-trt"},{"rune":"M","rune_set":"bacs2","hex":"#f73b6a7A","correct":-1,"choice":-1,"rt":-1,"accuracy":1,"outcome":"-1","keys":[],"total_keys":0,"block":2,"trial":151,"stimulus":0,"robot":4,"valence":"lose","action":"no-go","sham":0,"trial_type":"pit-trial","trial_index":188,"time_elapsed":1330738,"internal_node_id":"0.0-159.0","task_version":"battery-v0.2-trt"},{"rune":"K","rune_set":"bacs2","hex":"#3366ff99","correct":32,"choice":32,"rt":294.6349997073412,"accuracy":1,"outcome":"+10","keys":[1795.4400000162423],"total_keys":1,"block":2,"trial":152,"stimulus":2,"robot":1,"valence":"win","action":"go","sham":0,"trial_type":"pit-trial","trial_index":189,"time_elapsed":1333737,"internal_node_id":"0.0-160.0","task_version":"battery-v0.2-trt"},{"rune":"R","rune_set":"bacs2","hex":"#f73b6a7A","correct":32,"choice":-1,"rt":-1,"accuracy":0,"outcome":"-10","keys":[],"total_keys":0,"block":2,"trial":153,"stimulus":4,"robot":3,"valence":"lose","action":"go","sham":0,"trial_type":"pit-trial","trial_index":190,"time_elapsed":1337741,"internal_node_id":"0.0-161.0","task_version":"battery-v0.2-trt"},{"rune":"M","rune_set":"bacs2","hex":"#f73b6a7A","correct":-1,"choice":-1,"rt":-1,"accuracy":1,"outcome":"-1","keys":[],"total_keys":0,"block":2,"trial":154,"stimulus":0,"robot":4,"valence":"lose","action":"no-go","sham":0,"trial_type":"pit-trial","trial_index":191,"time_elapsed":1341745,"internal_node_id":"0.0-162.0","task_version":"battery-v0.2-trt"},{"rune":"K","rune_set":"bacs2","hex":"#3366ff99","correct":32,"choice":32,"rt":512.5350002199411,"accuracy":1,"outcome":"+10","keys":[2013.8900000602007],"total_keys":1,"block":2,"trial":155,"stimulus":2,"robot":1,"valence":"win","action":"go","sham":0,"trial_type":"pit-trial","trial_index":192,"time_elapsed":1344963,"internal_node_id":"0.0-163.0","task_version":"battery-v0.2-trt"},{"rune":"V","rune_set":"bacs2","hex":"#3366ff99","correct":-1,"choice":32,"rt":1029.050000011921,"accuracy":0,"outcome":"+1","keys":[2529.575000051409],"total_keys":1,"block":2,"trial":156,"stimulus":3,"robot":2,"valence":"win","action":"no-go","sham":0,"trial_type":"pit-trial","trial_index":193,"time_elapsed":1348697,"internal_node_id":"0.0-164.0","task_version":"battery-v0.2-trt"},{"rune":"M","rune_set":"bacs2","hex":"#f73b6a7A","correct":-1,"choice":-1,"rt":-1,"accuracy":1,"outcome":"-10","keys":[3272.0149997621775],"total_keys":1,"block":2,"trial":157,"stimulus":0,"robot":4,"valence":"lose","action":"no-go","sham":1,"trial_type":"pit-trial","trial_index":194,"time_elapsed":1352703,"internal_node_id":"0.0-165.0","task_version":"battery-v0.2-trt"},{"rune":"R","rune_set":"bacs2","hex":"#f73b6a7A","correct":32,"choice":32,"rt":1201.5849999152124,"accuracy":1,"outcome":"-1","keys":[2702.0100001245737],"total_keys":1,"block":2,"trial":158,"stimulus":4,"robot":3,"valence":"lose","action":"go","sham":0,"trial_type":"pit-trial","trial_index":195,"time_elapsed":1356609,"internal_node_id":"0.0-166.0","task_version":"battery-v0.2-trt"},{"rune":"V","rune_set":"bacs2","hex":"#3366ff99","correct":-1,"choice":32,"rt":619.2350001074374,"accuracy":0,"outcome":"+1","keys":[2120.060000102967],"total_keys":1,"block":2,"trial":159,"stimulus":3,"robot":2,"valence":"win","action":"no-go","sham":0,"trial_type":"pit-trial","trial_index":196,"time_elapsed":1359934,"internal_node_id":"0.0-167.0","task_version":"battery-v0.2-trt"},{"rune":"K","rune_set":"bacs2","hex":"#3366ff99","correct":32,"choice":32,"rt":652.54499996081,"accuracy":1,"outcome":"+10","keys":[2153.1899999827147],"total_keys":1,"block":2,"trial":160,"stimulus":2,"robot":1,"valence":"win","action":"go","sham":0,"trial_type":"pit-trial","trial_index":197,"time_elapsed":1363293,"internal_node_id":"0.0-168.0","task_version":"battery-v0.2-trt"},{"rune":"L","rune_set":"bacs2","hex":"#3366ff99","correct":32,"choice":-1,"rt":-1,"accuracy":0,"outcome":"+1","keys":[],"total_keys":0,"block":2,"trial":161,"stimulus":6,"robot":1,"valence":"win","action":"go","sham":0,"trial_type":"pit-trial","trial_index":198,"time_elapsed":1367298,"internal_node_id":"0.0-169.0","task_version":"battery-v0.2-trt"},{"rune":"R","rune_set":"bacs2","hex":"#f73b6a7A","correct":32,"choice":-1,"rt":-1,"accuracy":0,"outcome":"-10","keys":[],"total_keys":0,"block":2,"trial":162,"stimulus":4,"robot":3,"valence":"lose","action":"go","sham":0,"trial_type":"pit-trial","trial_index":199,"time_elapsed":1371302,"internal_node_id":"0.0-170.0","task_version":"battery-v0.2-trt"},{"rune":"M","rune_set":"bacs2","hex":"#f73b6a7A","correct":-1,"choice":32,"rt":804.7099998220801,"accuracy":0,"outcome":"-10","keys":[2305.1450001075864],"total_keys":1,"block":2,"trial":163,"stimulus":0,"robot":4,"valence":"lose","action":"no-go","sham":0,"trial_type":"pit-trial","trial_index":200,"time_elapsed":1374812,"internal_node_id":"0.0-171.0","task_version":"battery-v0.2-trt"},{"rune":"P","rune_set":"bacs2","hex":"#3366ff99","correct":-1,"choice":32,"rt":835.4549999348819,"accuracy":0,"outcome":"+1","keys":[2336.4150002598763],"total_keys":1,"block":2,"trial":164,"stimulus":5,"robot":2,"valence":"win","action":"no-go","sham":0,"trial_type":"pit-trial","trial_index":201,"time_elapsed":1378354,"internal_node_id":"0.0-172.0","task_version":"battery-v0.2-trt"},{"rune":"M","rune_set":"bacs2","hex":"#f73b6a7A","correct":-1,"choice":-1,"rt":-1,"accuracy":1,"outcome":"-10","keys":[],"total_keys":0,"block":2,"trial":165,"stimulus":0,"robot":4,"valence":"lose","action":"no-go","sham":1,"trial_type":"pit-trial","trial_index":202,"time_elapsed":1382358,"internal_node_id":"0.0-173.0","task_version":"battery-v0.2-trt"},{"rune":"R","rune_set":"bacs2","hex":"#f73b6a7A","correct":32,"choice":-1,"rt":-1,"accuracy":0,"outcome":"-10","keys":[],"total_keys":0,"block":2,"trial":166,"stimulus":4,"robot":3,"valence":"lose","action":"go","sham":0,"trial_type":"pit-trial","trial_index":203,"time_elapsed":1386361,"internal_node_id":"0.0-174.0","task_version":"battery-v0.2-trt"},{"rune":"L","rune_set":"bacs2","hex":"#3366ff99","correct":32,"choice":-1,"rt":-1,"accuracy":0,"outcome":"+1","keys":[],"total_keys":0,"block":2,"trial":167,"stimulus":6,"robot":1,"valence":"win","action":"go","sham":0,"trial_type":"pit-trial","trial_index":204,"time_elapsed":1390367,"internal_node_id":"0.0-175.0","task_version":"battery-v0.2-trt"},{"rune":"P","rune_set":"bacs2","hex":"#3366ff99","correct":-1,"choice":32,"rt":479.13500014692545,"accuracy":0,"outcome":"+1","keys":[1980.1549999974668],"total_keys":1,"block":2,"trial":168,"stimulus":5,"robot":2,"valence":"win","action":"no-go","sham":0,"trial_type":"pit-trial","trial_index":205,"time_elapsed":1393551,"internal_node_id":"0.0-176.0","task_version":"battery-v0.2-trt"},{"rune":"R","rune_set":"bacs2","hex":"#f73b6a7A","correct":32,"choice":32,"rt":1028.1899999827147,"accuracy":1,"outcome":"-10","keys":[2528.4649999812245],"total_keys":1,"block":2,"trial":169,"stimulus":4,"robot":3,"valence":"lose","action":"go","sham":1,"trial_type":"pit-trial","trial_index":206,"time_elapsed":1397282,"internal_node_id":"0.0-177.0","task_version":"battery-v0.2-trt"},{"rune":"L","rune_set":"bacs2","hex":"#3366ff99","correct":32,"choice":-1,"rt":-1,"accuracy":0,"outcome":"+1","keys":[2955.5700002238154],"total_keys":1,"block":2,"trial":170,"stimulus":6,"robot":1,"valence":"win","action":"go","sham":0,"trial_type":"pit-trial","trial_index":207,"time_elapsed":1401287,"internal_node_id":"0.0-178.0","task_version":"battery-v0.2-trt"},{"rune":"P","rune_set":"bacs2","hex":"#3366ff99","correct":-1,"choice":32,"rt":731.7449999973178,"accuracy":0,"outcome":"+10","keys":[2233.140000142157],"total_keys":1,"block":2,"trial":171,"stimulus":5,"robot":2,"valence":"win","action":"no-go","sham":1,"trial_type":"pit-trial","trial_index":208,"time_elapsed":1404725,"internal_node_id":"0.0-179.0","task_version":"battery-v0.2-trt"},{"rune":"S","rune_set":"bacs2","hex":"#f73b6a7A","correct":-1,"choice":32,"rt":908.5699999704957,"accuracy":0,"outcome":"-10","keys":[2409.959999844432],"total_keys":1,"block":2,"trial":172,"stimulus":7,"robot":4,"valence":"lose","action":"no-go","sham":0,"trial_type":"pit-trial","trial_index":209,"time_elapsed":1408341,"internal_node_id":"0.0-180.0","task_version":"battery-v0.2-trt"},{"rune":"P","rune_set":"bacs2","hex":"#3366ff99","correct":-1,"choice":32,"rt":1001.420000102371,"accuracy":0,"outcome":"+1","keys":[2501.5750001184642],"total_keys":1,"block":2,"trial":173,"stimulus":5,"robot":2,"valence":"win","action":"no-go","sham":0,"trial_type":"pit-trial","trial_index":210,"time_elapsed":1412047,"internal_node_id":"0.0-181.0","task_version":"battery-v0.2-trt"},{"rune":"L","rune_set":"bacs2","hex":"#3366ff99","correct":32,"choice":-1,"rt":-1,"accuracy":0,"outcome":"+10","keys":[],"total_keys":0,"block":2,"trial":174,"stimulus":6,"robot":1,"valence":"win","action":"go","sham":1,"trial_type":"pit-trial","trial_index":211,"time_elapsed":1416052,"internal_node_id":"0.0-182.0","task_version":"battery-v0.2-trt"},{"rune":"S","rune_set":"bacs2","hex":"#f73b6a7A","correct":-1,"choice":32,"rt":992.8650003857911,"accuracy":0,"outcome":"-10","keys":[2493.120000232011],"total_keys":1,"block":2,"trial":175,"stimulus":7,"robot":4,"valence":"lose","action":"no-go","sham":0,"trial_type":"pit-trial","trial_index":212,"time_elapsed":1419750,"internal_node_id":"0.0-183.0","task_version":"battery-v0.2-trt"},{"rune":"R","rune_set":"bacs2","hex":"#f73b6a7A","correct":32,"choice":-1,"rt":-1,"accuracy":0,"outcome":"-1","keys":[],"total_keys":0,"block":2,"trial":176,"stimulus":4,"robot":3,"valence":"lose","action":"go","sham":1,"trial_type":"pit-trial","trial_index":213,"time_elapsed":1423753,"internal_node_id":"0.0-184.0","task_version":"battery-v0.2-trt"},{"rune":"L","rune_set":"bacs2","hex":"#3366ff99","correct":32,"choice":32,"rt":918.175000231713,"accuracy":1,"outcome":"+10","keys":[2419.7200001217425],"total_keys":1,"block":2,"trial":177,"stimulus":6,"robot":1,"valence":"win","action":"go","sham":0,"trial_type":"pit-trial","trial_index":214,"time_elapsed":1427377,"internal_node_id":"0.0-185.0","task_version":"battery-v0.2-trt"},{"rune":"R","rune_set":"bacs2","hex":"#f73b6a7A","correct":32,"choice":-1,"rt":-1,"accuracy":0,"outcome":"-10","keys":[],"total_keys":0,"block":2,"trial":178,"stimulus":4,"robot":3,"valence":"lose","action":"go","sham":0,"trial_type":"pit-trial","trial_index":215,"time_elapsed":1431382,"internal_node_id":"0.0-186.0","task_version":"battery-v0.2-trt"},{"rune":"P","rune_set":"bacs2","hex":"#3366ff99","correct":-1,"choice":32,"rt":401.74000011757016,"accuracy":0,"outcome":"+1","keys":[1902.1649998612702],"total_keys":1,"block":2,"trial":179,"stimulus":5,"robot":2,"valence":"win","action":"no-go","sham":0,"trial_type":"pit-trial","trial_index":216,"time_elapsed":1434488,"internal_node_id":"0.0-187.0","task_version":"battery-v0.2-trt"},{"rune":"S","rune_set":"bacs2","hex":"#f73b6a7A","correct":-1,"choice":32,"rt":700.9399998933077,"accuracy":0,"outcome":"-10","keys":[2201.6200004145503],"total_keys":1,"block":2,"trial":180,"stimulus":7,"robot":4,"valence":"lose","action":"no-go","sham":0,"trial_type":"pit-trial","trial_index":217,"time_elapsed":1437894,"internal_node_id":"0.0-188.0","task_version":"battery-v0.2-trt"},{"rune":"R","rune_set":"bacs2","hex":"#f73b6a7A","correct":32,"choice":-1,"rt":-1,"accuracy":0,"outcome":"-10","keys":[],"total_keys":0,"block":2,"trial":181,"stimulus":4,"robot":3,"valence":"lose","action":"go","sham":0,"trial_type":"pit-trial","trial_index":218,"time_elapsed":1441900,"internal_node_id":"0.0-189.0","task_version":"battery-v0.2-trt"},{"rune":"S","rune_set":"bacs2","hex":"#f73b6a7A","correct":-1,"choice":32,"rt":932.0699996314943,"accuracy":0,"outcome":"-10","keys":[2433.0649999901652],"total_keys":1,"block":2,"trial":182,"stimulus":7,"robot":4,"valence":"lose","action":"no-go","sham":0,"trial_type":"pit-trial","trial_index":219,"time_elapsed":1445537,"internal_node_id":"0.0-190.0","task_version":"battery-v0.2-trt"},{"rune":"P","rune_set":"bacs2","hex":"#3366ff99","correct":-1,"choice":32,"rt":803.4550002776086,"accuracy":0,"outcome":"+1","keys":[2304.2949996888638],"total_keys":1,"block":2,"trial":183,"stimulus":5,"robot":2,"valence":"win","action":"no-go","sham":0,"trial_type":"pit-trial","trial_index":220,"time_elapsed":1449045,"internal_node_id":"0.0-191.0","task_version":"battery-v0.2-trt"},{"rune":"L","rune_set":"bacs2","hex":"#3366ff99","correct":32,"choice":32,"rt":819.8049999773502,"accuracy":1,"outcome":"+10","keys":[2320.2899997122586],"total_keys":1,"block":2,"trial":184,"stimulus":6,"robot":1,"valence":"win","action":"go","sham":0,"trial_type":"pit-trial","trial_index":221,"time_elapsed":1452572,"internal_node_id":"0.0-192.0","task_version":"battery-v0.2-trt"},{"rune":"S","rune_set":"bacs2","hex":"#f73b6a7A","correct":-1,"choice":-1,"rt":-1,"accuracy":1,"outcome":"-1","keys":[],"total_keys":0,"block":2,"trial":185,"stimulus":7,"robot":4,"valence":"lose","action":"no-go","sham":0,"trial_type":"pit-trial","trial_index":222,"time_elapsed":1456576,"internal_node_id":"0.0-193.0","task_version":"battery-v0.2-trt"},{"rune":"P","rune_set":"bacs2","hex":"#3366ff99","correct":-1,"choice":32,"rt":1026.055000256747,"accuracy":0,"outcome":"+1","keys":[2526.369999628514],"total_keys":1,"block":2,"trial":186,"stimulus":5,"robot":2,"valence":"win","action":"no-go","sham":0,"trial_type":"pit-trial","trial_index":223,"time_elapsed":1460307,"internal_node_id":"0.0-194.0","task_version":"battery-v0.2-trt"},{"rune":"L","rune_set":"bacs2","hex":"#3366ff99","correct":32,"choice":32,"rt":900.9849997237325,"accuracy":1,"outcome":"+1","keys":[2401.390000246465],"total_keys":1,"block":2,"trial":187,"stimulus":6,"robot":1,"valence":"win","action":"go","sham":1,"trial_type":"pit-trial","trial_index":224,"time_elapsed":1463913,"internal_node_id":"0.0-195.0","task_version":"battery-v0.2-trt"},{"rune":"R","rune_set":"bacs2","hex":"#f73b6a7A","correct":32,"choice":32,"rt":902.5050001218915,"accuracy":1,"outcome":"-1","keys":[2403.160000219941],"total_keys":1,"block":2,"trial":188,"stimulus":4,"robot":3,"valence":"lose","action":"go","sham":0,"trial_type":"pit-trial","trial_index":225,"time_elapsed":1467521,"internal_node_id":"0.0-196.0","task_version":"battery-v0.2-trt"},{"rune":"P","rune_set":"bacs2","hex":"#3366ff99","correct":-1,"choice":-1,"rt":-1,"accuracy":1,"outcome":"+10","keys":[],"total_keys":0,"block":2,"trial":189,"stimulus":5,"robot":2,"valence":"win","action":"no-go","sham":0,"trial_type":"pit-trial","trial_index":226,"time_elapsed":1471527,"internal_node_id":"0.0-197.0","task_version":"battery-v0.2-trt"},{"rune":"S","rune_set":"bacs2","hex":"#f73b6a7A","correct":-1,"choice":-1,"rt":-1,"accuracy":1,"outcome":"-10","keys":[2944.055000320077],"total_keys":1,"block":2,"trial":190,"stimulus":7,"robot":4,"valence":"lose","action":"no-go","sham":1,"trial_type":"pit-trial","trial_index":227,"time_elapsed":1475532,"internal_node_id":"0.0-198.0","task_version":"battery-v0.2-trt"},{"rune":"R","rune_set":"bacs2","hex":"#f73b6a7A","correct":32,"choice":32,"rt":860.6949998065829,"accuracy":1,"outcome":"-1","keys":[2362.1550002135336],"total_keys":1,"block":2,"trial":191,"stimulus":4,"robot":3,"valence":"lose","action":"go","sham":0,"trial_type":"pit-trial","trial_index":228,"time_elapsed":1479099,"internal_node_id":"0.0-199.0","task_version":"battery-v0.2-trt"},{"rune":"L","rune_set":"bacs2","hex":"#3366ff99","correct":32,"choice":32,"rt":1057.8100001439452,"accuracy":1,"outcome":"+10","keys":[2558.355000335723],"total_keys":1,"block":2,"trial":192,"stimulus":6,"robot":1,"valence":"win","action":"go","sham":0,"trial_type":"pit-trial","trial_index":229,"time_elapsed":1482862,"internal_node_id":"0.0-200.0","task_version":"battery-v0.2-trt"},{"rune":"S","rune_set":"bacs2","hex":"#f73b6a7A","correct":-1,"choice":-1,"rt":-1,"accuracy":1,"outcome":"-1","keys":[],"total_keys":0,"block":2,"trial":193,"stimulus":7,"robot":4,"valence":"lose","action":"no-go","sham":0,"trial_type":"pit-trial","trial_index":230,"time_elapsed":1486867,"internal_node_id":"0.0-201.0","task_version":"battery-v0.2-trt"},{"rune":"U","rune_set":"bacs2","hex":"#3366ff99","correct":32,"choice":32,"rt":1054.8450001515448,"accuracy":1,"outcome":"+10","keys":[2555.865000002086],"total_keys":1,"block":2,"trial":194,"stimulus":8,"robot":1,"valence":"win","action":"go","sham":0,"trial_type":"pit-trial","trial_index":231,"time_elapsed":1490627,"internal_node_id":"0.0-202.0","task_version":"battery-v0.2-trt"},{"rune":"P","rune_set":"bacs2","hex":"#3366ff99","correct":-1,"choice":32,"rt":1010.0400000810623,"accuracy":0,"outcome":"+1","keys":[2511.925000231713],"total_keys":1,"block":2,"trial":195,"stimulus":5,"robot":2,"valence":"win","action":"no-go","sham":0,"trial_type":"pit-trial","trial_index":232,"time_elapsed":1494343,"internal_node_id":"0.0-203.0","task_version":"battery-v0.2-trt"},{"rune":"A","rune_set":"bacs2","hex":"#f73b6a7A","correct":32,"choice":-1,"rt":-1,"accuracy":0,"outcome":"-10","keys":[2837.939999997616],"total_keys":1,"block":2,"trial":196,"stimulus":9,"robot":3,"valence":"lose","action":"go","sham":0,"trial_type":"pit-trial","trial_index":233,"time_elapsed":1498348,"internal_node_id":"0.0-204.0","task_version":"battery-v0.2-trt"},{"rune":"U","rune_set":"bacs2","hex":"#3366ff99","correct":32,"choice":32,"rt":1104.784999974072,"accuracy":1,"outcome":"+10","keys":[2605.9900000691414],"total_keys":1,"block":2,"trial":197,"stimulus":8,"robot":1,"valence":"win","action":"go","sham":0,"trial_type":"pit-trial","trial_index":234,"time_elapsed":1502157,"internal_node_id":"0.0-205.0","task_version":"battery-v0.2-trt"},{"rune":"A","rune_set":"bacs2","hex":"#f73b6a7A","correct":32,"choice":-1,"rt":-1,"accuracy":0,"outcome":"-10","keys":[],"total_keys":0,"block":2,"trial":198,"stimulus":9,"robot":3,"valence":"lose","action":"go","sham":0,"trial_type":"pit-trial","trial_index":235,"time_elapsed":1506162,"internal_node_id":"0.0-206.0","task_version":"battery-v0.2-trt"},{"rune":"S","rune_set":"bacs2","hex":"#f73b6a7A","correct":-1,"choice":32,"rt":551.3700000010431,"accuracy":0,"outcome":"-1","keys":[2051.6900001093745],"total_keys":1,"block":2,"trial":199,"stimulus":7,"robot":4,"valence":"lose","action":"no-go","sham":1,"trial_type":"pit-trial","trial_index":236,"time_elapsed":1509417,"internal_node_id":"0.0-207.0","task_version":"battery-v0.2-trt"},{"rune":"P","rune_set":"bacs2","hex":"#3366ff99","correct":-1,"choice":32,"rt":935.7199999503791,"accuracy":0,"outcome":"+1","keys":[2436.61000020802],"total_keys":1,"block":2,"trial":200,"stimulus":5,"robot":2,"valence":"win","action":"no-go","sham":0,"trial_type":"pit-trial","trial_index":237,"time_elapsed":1513058,"internal_node_id":"0.0-208.0","task_version":"battery-v0.2-trt"},{"rune":"U","rune_set":"bacs2","hex":"#3366ff99","correct":32,"choice":32,"rt":1018.0949997156858,"accuracy":1,"outcome":"+10","keys":[2519.9950002133846],"total_keys":1,"block":2,"trial":201,"stimulus":8,"robot":1,"valence":"win","action":"go","sham":0,"trial_type":"pit-trial","trial_index":238,"time_elapsed":1516782,"internal_node_id":"0.0-209.0","task_version":"battery-v0.2-trt"},{"rune":"A","rune_set":"bacs2","hex":"#f73b6a7A","correct":32,"choice":32,"rt":1039.820000063628,"accuracy":1,"outcome":"-1","keys":[2541.5349998511374],"total_keys":1,"block":2,"trial":202,"stimulus":9,"robot":3,"valence":"lose","action":"go","sham":0,"trial_type":"pit-trial","trial_index":239,"time_elapsed":1520527,"internal_node_id":"0.0-210.0","task_version":"battery-v0.2-trt"},{"rune":"S","rune_set":"bacs2","hex":"#f73b6a7A","correct":-1,"choice":-1,"rt":-1,"accuracy":1,"outcome":"-1","keys":[],"total_keys":0,"block":2,"trial":203,"stimulus":7,"robot":4,"valence":"lose","action":"no-go","sham":0,"trial_type":"pit-trial","trial_index":240,"time_elapsed":1524531,"internal_node_id":"0.0-211.0","task_version":"battery-v0.2-trt"},{"rune":"P","rune_set":"bacs2","hex":"#3366ff99","correct":-1,"choice":32,"rt":770.4250002279878,"accuracy":0,"outcome":"+1","keys":[2270.8200002089143],"total_keys":1,"block":2,"trial":204,"stimulus":5,"robot":2,"valence":"win","action":"no-go","sham":0,"trial_type":"pit-trial","trial_index":241,"time_elapsed":1528005,"internal_node_id":"0.0-212.0","task_version":"battery-v0.2-trt"},{"rune":"S","rune_set":"bacs2","hex":"#f73b6a7A","correct":-1,"choice":32,"rt":1023.1949998997152,"accuracy":0,"outcome":"-10","keys":[2524.045000318438],"total_keys":1,"block":2,"trial":205,"stimulus":7,"robot":4,"valence":"lose","action":"no-go","sham":0,"trial_type":"pit-trial","trial_index":242,"time_elapsed":1531734,"internal_node_id":"0.0-213.0","task_version":"battery-v0.2-trt"},{"rune":"P","rune_set":"bacs2","hex":"#3366ff99","correct":-1,"choice":32,"rt":435.38999976590276,"accuracy":0,"outcome":"+1","keys":[1936.5349998697639],"total_keys":1,"block":2,"trial":206,"stimulus":5,"robot":2,"valence":"win","action":"no-go","sham":0,"trial_type":"pit-trial","trial_index":243,"time_elapsed":1534875,"internal_node_id":"0.0-214.0","task_version":"battery-v0.2-trt"},{"rune":"A","rune_set":"bacs2","hex":"#f73b6a7A","correct":32,"choice":-1,"rt":-1,"accuracy":0,"outcome":"-10","keys":[2978.004999924451],"total_keys":1,"block":2,"trial":207,"stimulus":9,"robot":3,"valence":"lose","action":"go","sham":0,"trial_type":"pit-trial","trial_index":244,"time_elapsed":1538881,"internal_node_id":"0.0-215.0","task_version":"battery-v0.2-trt"},{"rune":"U","rune_set":"bacs2","hex":"#3366ff99","correct":32,"choice":32,"rt":891.8850002810359,"accuracy":1,"outcome":"+10","keys":[2392.3399997875094],"total_keys":1,"block":2,"trial":208,"stimulus":8,"robot":1,"valence":"win","action":"go","sham":0,"trial_type":"pit-trial","trial_index":245,"time_elapsed":1542479,"internal_node_id":"0.0-216.0","task_version":"battery-v0.2-trt"},{"rune":"A","rune_set":"bacs2","hex":"#f73b6a7A","correct":32,"choice":-1,"rt":-1,"accuracy":0,"outcome":"-10","keys":[2958.7550000287592],"total_keys":1,"block":2,"trial":209,"stimulus":9,"robot":3,"valence":"lose","action":"go","sham":0,"trial_type":"pit-trial","trial_index":246,"time_elapsed":1546491,"internal_node_id":"0.0-217.0","task_version":"battery-v0.2-trt"},{"rune":"U","rune_set":"bacs2","hex":"#3366ff99","correct":32,"choice":-1,"rt":-1,"accuracy":0,"outcome":"+1","keys":[],"total_keys":0,"block":2,"trial":210,"stimulus":8,"robot":1,"valence":"win","action":"go","sham":0,"trial_type":"pit-trial","trial_index":247,"time_elapsed":1550495,"internal_node_id":"0.0-218.0","task_version":"battery-v0.2-trt"},{"rune":"F","rune_set":"bacs2","hex":"#f73b6a7A","correct":32,"choice":-1,"rt":-1,"accuracy":0,"outcome":"-1","keys":[],"total_keys":0,"block":2,"trial":211,"stimulus":10,"robot":3,"valence":"lose","action":"go","sham":1,"trial_type":"pit-trial","trial_index":248,"time_elapsed":1554499,"internal_node_id":"0.0-219.0","task_version":"battery-v0.2-trt"},{"rune":"N","rune_set":"bacs2","hex":"#3366ff99","correct":-1,"choice":-1,"rt":-1,"accuracy":1,"outcome":"+10","keys":[2896.275000181049],"total_keys":1,"block":2,"trial":212,"stimulus":11,"robot":2,"valence":"win","action":"no-go","sham":0,"trial_type":"pit-trial","trial_index":249,"time_elapsed":1558502,"internal_node_id":"0.0-220.0","task_version":"battery-v0.2-trt"},{"rune":"F","rune_set":"bacs2","hex":"#f73b6a7A","correct":32,"choice":-1,"rt":-1,"accuracy":0,"outcome":"-1","keys":[],"total_keys":0,"block":2,"trial":213,"stimulus":10,"robot":3,"valence":"lose","action":"go","sham":1,"trial_type":"pit-trial","trial_index":250,"time_elapsed":1562505,"internal_node_id":"0.0-221.0","task_version":"battery-v0.2-trt"},{"rune":"U","rune_set":"bacs2","hex":"#3366ff99","correct":32,"choice":-1,"rt":-1,"accuracy":0,"outcome":"+1","keys":[],"total_keys":0,"block":2,"trial":214,"stimulus":8,"robot":1,"valence":"win","action":"go","sham":0,"trial_type":"pit-trial","trial_index":251,"time_elapsed":1566509,"internal_node_id":"0.0-222.0","task_version":"battery-v0.2-trt"},{"rune":"N","rune_set":"bacs2","hex":"#3366ff99","correct":-1,"choice":32,"rt":786.4549998193979,"accuracy":0,"outcome":"+10","keys":[2287.1949998661876],"total_keys":1,"block":2,"trial":215,"stimulus":11,"robot":2,"valence":"win","action":"no-go","sham":1,"trial_type":"pit-trial","trial_index":252,"time_elapsed":1570005,"internal_node_id":"0.0-223.0","task_version":"battery-v0.2-trt"},{"rune":"A","rune_set":"bacs2","hex":"#f73b6a7A","correct":32,"choice":-1,"rt":-1,"accuracy":0,"outcome":"-10","keys":[],"total_keys":0,"block":2,"trial":216,"stimulus":9,"robot":3,"valence":"lose","action":"go","sham":0,"trial_type":"pit-trial","trial_index":253,"time_elapsed":1574010,"internal_node_id":"0.0-224.0","task_version":"battery-v0.2-trt"},{"rune":"N","rune_set":"bacs2","hex":"#3366ff99","correct":-1,"choice":32,"rt":334.4400003552437,"accuracy":0,"outcome":"+1","keys":[1835.200000088662],"total_keys":1,"block":2,"trial":217,"stimulus":11,"robot":2,"valence":"win","action":"no-go","sham":0,"trial_type":"pit-trial","trial_index":254,"time_elapsed":1577050,"internal_node_id":"0.0-225.0","task_version":"battery-v0.2-trt"},{"rune":"F","rune_set":"bacs2","hex":"#f73b6a7A","correct":32,"choice":-1,"rt":-1,"accuracy":0,"outcome":"-10","keys":[],"total_keys":0,"block":2,"trial":218,"stimulus":10,"robot":3,"valence":"lose","action":"go","sham":0,"trial_type":"pit-trial","trial_index":255,"time_elapsed":1581057,"internal_node_id":"0.0-226.0","task_version":"battery-v0.2-trt"},{"rune":"U","rune_set":"bacs2","hex":"#3366ff99","correct":32,"choice":-1,"rt":-1,"accuracy":0,"outcome":"+1","keys":[],"total_keys":0,"block":2,"trial":219,"stimulus":8,"robot":1,"valence":"win","action":"go","sham":0,"trial_type":"pit-trial","trial_index":256,"time_elapsed":1585064,"internal_node_id":"0.0-227.0","task_version":"battery-v0.2-trt"},{"rune":"A","rune_set":"bacs2","hex":"#f73b6a7A","correct":32,"choice":-1,"rt":-1,"accuracy":0,"outcome":"-10","keys":[],"total_keys":0,"block":2,"trial":220,"stimulus":9,"robot":3,"valence":"lose","action":"go","sham":0,"trial_type":"pit-trial","trial_index":257,"time_elapsed":1589069,"internal_node_id":"0.0-228.0","task_version":"battery-v0.2-trt"},{"rune":"F","rune_set":"bacs2","hex":"#f73b6a7A","correct":32,"choice":32,"rt":349.0249998867512,"accuracy":1,"outcome":"-10","keys":[1849.2100001312792],"total_keys":1,"block":2,"trial":221,"stimulus":10,"robot":3,"valence":"lose","action":"go","sham":1,"trial_type":"pit-trial","trial_index":258,"time_elapsed":1592123,"internal_node_id":"0.0-229.0","task_version":"battery-v0.2-trt"},{"rune":"N","rune_set":"bacs2","hex":"#3366ff99","correct":-1,"choice":32,"rt":951.8000003881752,"accuracy":0,"outcome":"+1","keys":[2452.2150000557303],"total_keys":1,"block":2,"trial":222,"stimulus":11,"robot":2,"valence":"win","action":"no-go","sham":0,"trial_type":"pit-trial","trial_index":259,"time_elapsed":1595780,"internal_node_id":"0.0-230.0","task_version":"battery-v0.2-trt"},{"rune":"U","rune_set":"bacs2","hex":"#3366ff99","correct":32,"choice":32,"rt":765.5799998901784,"accuracy":1,"outcome":"+10","keys":[2265.5850001610816],"total_keys":1,"block":2,"trial":223,"stimulus":8,"robot":1,"valence":"win","action":"go","sham":0,"trial_type":"pit-trial","trial_index":260,"time_elapsed":1599249,"internal_node_id":"0.0-231.0","task_version":"battery-v0.2-trt"},{"rune":"A","rune_set":"bacs2","hex":"#f73b6a7A","correct":32,"choice":-1,"rt":-1,"accuracy":0,"outcome":"-10","keys":[],"total_keys":0,"block":2,"trial":224,"stimulus":9,"robot":3,"valence":"lose","action":"go","sham":0,"trial_type":"pit-trial","trial_index":261,"time_elapsed":1603258,"internal_node_id":"0.0-232.0","task_version":"battery-v0.2-trt"},{"rune":"N","rune_set":"bacs2","hex":"#3366ff99","correct":-1,"choice":32,"rt":572.4650002084672,"accuracy":0,"outcome":"+10","keys":[2073.1299999170005],"total_keys":1,"block":2,"trial":225,"stimulus":11,"robot":2,"valence":"win","action":"no-go","sham":1,"trial_type":"pit-trial","trial_index":262,"time_elapsed":1606535,"internal_node_id":"0.0-233.0","task_version":"battery-v0.2-trt"},{"rune":"F","rune_set":"bacs2","hex":"#f73b6a7A","correct":32,"choice":32,"rt":916.6250000707805,"accuracy":1,"outcome":"-1","keys":[2417.2600000165403],"total_keys":1,"block":2,"trial":226,"stimulus":10,"robot":3,"valence":"lose","action":"go","sham":0,"trial_type":"pit-trial","trial_index":263,"time_elapsed":1610155,"internal_node_id":"0.0-234.0","task_version":"battery-v0.2-trt"},{"rune":"U","rune_set":"bacs2","hex":"#3366ff99","correct":32,"choice":32,"rt":717.4550001509488,"accuracy":1,"outcome":"+10","keys":[2217.7199996076524],"total_keys":1,"block":2,"trial":227,"stimulus":8,"robot":1,"valence":"win","action":"go","sham":0,"trial_type":"pit-trial","trial_index":264,"time_elapsed":1613577,"internal_node_id":"0.0-235.0","task_version":"battery-v0.2-trt"},{"rune":"A","rune_set":"bacs2","hex":"#f73b6a7A","correct":32,"choice":32,"rt":1076.179999858141,"accuracy":1,"outcome":"-1","keys":[2577.159999869764],"total_keys":1,"block":2,"trial":228,"stimulus":9,"robot":3,"valence":"lose","action":"go","sham":0,"trial_type":"pit-trial","trial_index":265,"time_elapsed":1617359,"internal_node_id":"0.0-236.0","task_version":"battery-v0.2-trt"},{"rune":"N","rune_set":"bacs2","hex":"#3366ff99","correct":-1,"choice":32,"rt":172.0099998638034,"accuracy":0,"outcome":"+1","keys":[1672.3299999721348],"total_keys":1,"block":2,"trial":229,"stimulus":11,"robot":2,"valence":"win","action":"no-go","sham":0,"trial_type":"pit-trial","trial_index":266,"time_elapsed":1620236,"internal_node_id":"0.0-237.0","task_version":"battery-v0.2-trt"},{"rune":"U","rune_set":"bacs2","hex":"#3366ff99","correct":32,"choice":32,"rt":394.16499994695187,"accuracy":1,"outcome":"+1","keys":[1895.3499998897314],"total_keys":1,"block":2,"trial":230,"stimulus":8,"robot":1,"valence":"win","action":"go","sham":1,"trial_type":"pit-trial","trial_index":267,"time_elapsed":1623334,"internal_node_id":"0.0-238.0","task_version":"battery-v0.2-trt"},{"rune":"A","rune_set":"bacs2","hex":"#f73b6a7A","correct":32,"choice":32,"rt":872.7500000968575,"accuracy":1,"outcome":"-10","keys":[2372.779999859631],"total_keys":1,"block":2,"trial":231,"stimulus":9,"robot":3,"valence":"lose","action":"go","sham":1,"trial_type":"pit-trial","trial_index":268,"time_elapsed":1626910,"internal_node_id":"0.0-239.0","task_version":"battery-v0.2-trt"},{"rune":"F","rune_set":"bacs2","hex":"#f73b6a7A","correct":32,"choice":32,"rt":855.6649996899068,"accuracy":1,"outcome":"-1","keys":[2357.530000153929],"total_keys":1,"block":2,"trial":232,"stimulus":10,"robot":3,"valence":"lose","action":"go","sham":0,"trial_type":"pit-trial","trial_index":269,"time_elapsed":1630472,"internal_node_id":"0.0-240.0","task_version":"battery-v0.2-trt"},{"rune":"U","rune_set":"bacs2","hex":"#3366ff99","correct":32,"choice":-1,"rt":-1,"accuracy":0,"outcome":"+1","keys":[],"total_keys":0,"block":2,"trial":233,"stimulus":8,"robot":1,"valence":"win","action":"go","sham":0,"trial_type":"pit-trial","trial_index":270,"time_elapsed":1634476,"internal_node_id":"0.0-241.0","task_version":"battery-v0.2-trt"},{"rune":"A","rune_set":"bacs2","hex":"#f73b6a7A","correct":32,"choice":32,"rt":1081.2800000421703,"accuracy":1,"outcome":"-1","keys":[2581.7850