[{"view_history":"[{\"page_index\":0,\"viewing_time\":18566}]","rt":18566,"trial_type":"instructions","trial_index":0,"time_elapsed":18572,"internal_node_id":"0.0-0.0","task_version":"battery-v0.2-trt"},{"slider_type":"valence","raw_loc":613,"loc":0.726,"trial_type":"affective-slider","trial_index":1,"time_elapsed":21544,"internal_node_id":"0.0-1.0","task_version":"battery-v0.2-trt"},{"responses":{"Q08":"2","Q01":"2","Q06":"3","Q03":"3","Q12":"1","Q05":"3","Q09":"1","Q13":"0","Q04":"2","Q02":"2","Q10":"1","Q11":"2","Q07":"3"},"rt":62763,"item_order":[7,0,5,2,11,4,8,12,3,1,9,10,6],"radio_events":[10398,11391,13608,18848,22660,25869,27686,36971,48403,49168,52262,54309,58447,61708],"key_events":[],"mouse_events":[1290,2964,8823,9441,10398,11391,13608,18165,18848,21370,22660,24116,25869,27686,29988,36971,38970,47438,48403,49168,52262,54309,56276,58447,60332,60938,61708,62332,62763],"straightlining":0.38461538461538464,"zigzagging":0.4166666666666667,"survey":"bisbas","trial_type":"survey-template","trial_index":2,"time_elapsed":84319,"internal_node_id":"0.0-2.0","task_version":"battery-v0.2-trt","infrequency":0},{"responses":{"Q05":"0","Q08":"0","Q02":"0","Q07":"0","Q04":"1","Q01":"0","Q06":"1","Q03":"0"},"rt":27812,"item_order":[4,7,1,6,3,0,5,2],"radio_events":[12288,13241,15472,16247,19209,22468,25654,26498],"key_events":[],"mouse_events":[11148,12288,13241,14180,15472,16247,17271,18382,19209,21845,22468,24045,24798,25237,25654,26498,27812],"straightlining":0.75,"zigzagging":0.5714285714285714,"survey":"gad7","trial_type":"survey-template","trial_index":3,"time_elapsed":112136,"internal_node_id":"0.0-3.0","task_version":"battery-v0.2-trt","infrequency":0},{"responses":{"Q06":"1","Q08":"3","Q03":"0","Q04":"0","Q05":"0","Q01":"0","Q07":"0","Q02":"0"},"rt":71809,"item_order":[5,7,2,3,4,0,6,1],"radio_events":[52720,55063,60797,61736,64265,65081,66423,67563],"key_events":[],"mouse_events":[52198,52720,55063,57830,58893,59348,60797,61736,62767,64265,65081,66423,67563,71808],"straightlining":0.75,"zigzagging":0.14285714285714285,"survey":"dass_d","trial_type":"survey-template","trial_index":4,"time_elapsed":183952,"internal_node_id":"0.0-4.0","task_version":"battery-v0.2-trt","infrequency":0.5},{"value":[0.5,1.8846153846153846,1.130952380952381],"trial_type":"call-function","trial_index":5,"time_elapsed":183955,"internal_node_id":"0.0-5.0","task_version":"battery-v0.2-trt"},{"view_history":"[{\"page_index\":0,\"viewing_time\":22911},{\"page_index\":1,\"viewing_time\":5704},{\"page_index\":2,\"viewing_time\":8718},{\"page_index\":3,\"viewing_time\":6045},{\"page_index\":4,\"viewing_time\":3453},{\"page_index\":5,\"viewing_time\":3741},{\"page_index\":6,\"viewing_time\":4298},{\"page_index\":7,\"viewing_time\":6603},{\"page_index\":8,\"viewing_time\":5862},{\"page_index\":9,\"viewing_time\":3773}]","rt":71108,"trial_type":"pit-instructions","trial_index":6,"time_elapsed":255070,"internal_node_id":"0.0-6.0-0.0","task_version":"battery-v0.2-trt"},{"rune":"1","rune_set":"elianto","hex":"#3366ff99","correct":32,"choice":32,"rt":1071,"accuracy":1,"outcome":"+10","keys":[2571],"total_keys":1,"block":0,"practice":1,"trial_type":"pit-trial","trial_index":7,"time_elapsed":258851,"internal_node_id":"0.0-6.0-1.0-0.0","task_version":"battery-v0.2-trt"},{"rune":"1","rune_set":"elianto","hex":"#3366ff99","correct":32,"choice":32,"rt":448,"accuracy":1,"outcome":"+10","keys":[1953],"total_keys":1,"block":0,"practice":1,"trial_type":"pit-trial","trial_index":8,"time_elapsed":262015,"internal_node_id":"0.0-6.0-1.1-0.1","task_version":"battery-v0.2-trt"},{"rune":"1","rune_set":"elianto","hex":"#3366ff99","correct":32,"choice":32,"rt":487,"accuracy":1,"outcome":"+10","keys":[1989],"total_keys":1,"block":0,"practice":1,"trial_type":"pit-trial","trial_index":9,"time_elapsed":265209,"internal_node_id":"0.0-6.0-1.2-0.2","task_version":"battery-v0.2-trt"},{"rune":"1","rune_set":"elianto","hex":"#3366ff99","correct":32,"choice":32,"rt":399,"accuracy":1,"outcome":"+10","keys":[1901],"total_keys":1,"block":0,"practice":1,"trial_type":"pit-trial","trial_index":10,"time_elapsed":268317,"internal_node_id":"0.0-6.0-1.3-0.3","task_version":"battery-v0.2-trt"},{"trial_type":"call-function","trial_index":11,"time_elapsed":268320,"internal_node_id":"0.0-6.0-2.0","task_version":"battery-v0.2-trt"},{"view_history":"[{\"page_index\":0,\"viewing_time\":8736},{\"page_index\":1,\"viewing_time\":2724}]","rt":11462,"trial_type":"pit-instructions","trial_index":12,"time_elapsed":279782,"internal_node_id":"0.0-6.0-3.0","task_version":"battery-v0.2-trt"},{"rune":"2","rune_set":"elianto","hex":"#3366ff99","correct":-1,"choice":32,"rt":820,"accuracy":0,"outcome":"+1","keys":[2319],"total_keys":1,"block":0,"practice":2,"trial_type":"pit-trial","trial_index":13,"time_elapsed":283308,"internal_node_id":"0.0-6.0-4.0-0.0","task_version":"battery-v0.2-trt"},{"rune":"2","rune_set":"elianto","hex":"#3366ff99","correct":-1,"choice":-1,"rt":-1,"accuracy":1,"outcome":"+10","keys":[],"total_keys":0,"block":0,"practice":2,"trial_type":"pit-trial","trial_index":14,"time_elapsed":287319,"internal_node_id":"0.0-6.0-4.1-0.1","task_version":"battery-v0.2-trt"},{"rune":"2","rune_set":"elianto","hex":"#3366ff99","correct":-1,"choice":-1,"rt":-1,"accuracy":1,"outcome":"+10","keys":[],"total_keys":0,"block":0,"practice":2,"trial_type":"pit-trial","trial_index":15,"time_elapsed":291329,"internal_node_id":"0.0-6.0-4.2-0.2","task_version":"battery-v0.2-trt"},{"rune":"2","rune_set":"elianto","hex":"#3366ff99","correct":-1,"choice":-1,"rt":-1,"accuracy":1,"outcome":"+10","keys":[],"total_keys":0,"block":0,"practice":2,"trial_type":"pit-trial","trial_index":16,"time_elapsed":295341,"internal_node_id":"0.0-6.0-4.3-0.3","task_version":"battery-v0.2-trt"},{"trial_type":"call-function","trial_index":17,"time_elapsed":295343,"internal_node_id":"0.0-6.0-5.0","task_version":"battery-v0.2-trt"},{"view_history":"[{\"page_index\":0,\"viewing_time\":10114},{\"page_index\":1,\"viewing_time\":3150}]","rt":13264,"trial_type":"pit-instructions","trial_index":18,"time_elapsed":308608,"internal_node_id":"0.0-6.0-6.0","task_version":"battery-v0.2-trt"},{"rune":"3","rune_set":"elianto","hex":"#f73b6a7A","correct":-1,"choice":32,"rt":799,"accuracy":0,"outcome":"-10","keys":[2302],"total_keys":1,"block":0,"practice":3,"trial_type":"pit-trial","trial_index":19,"time_elapsed":312118,"internal_node_id":"0.0-6.0-7.0-0.0","task_version":"battery-v0.2-trt"},{"rune":"3","rune_set":"elianto","hex":"#f73b6a7A","correct":-1,"choice":-1,"rt":-1,"accuracy":1,"outcome":"-1","keys":[],"total_keys":0,"block":0,"practice":3,"trial_type":"pit-trial","trial_index":20,"time_elapsed":316130,"internal_node_id":"0.0-6.0-7.1-0.1","task_version":"battery-v0.2-trt"},{"rune":"3","rune_set":"elianto","hex":"#f73b6a7A","correct":-1,"choice":-1,"rt":-1,"accuracy":1,"outcome":"-1","keys":[],"total_keys":0,"block":0,"practice":3,"trial_type":"pit-trial","trial_index":21,"time_elapsed":320141,"internal_node_id":"0.0-6.0-7.2-0.2","task_version":"battery-v0.2-trt"},{"rune":"3","rune_set":"elianto","hex":"#f73b6a7A","correct":-1,"choice":-1,"rt":-1,"accuracy":1,"outcome":"-1","keys":[],"total_keys":0,"block":0,"practice":3,"trial_type":"pit-trial","trial_index":22,"time_elapsed":324151,"internal_node_id":"0.0-6.0-7.3-0.3","task_version":"battery-v0.2-trt"},{"trial_type":"call-function","trial_index":23,"time_elapsed":324153,"internal_node_id":"0.0-6.0-8.0","task_version":"battery-v0.2-trt"},{"view_history":"[{\"page_index\":0,\"viewing_time\":4125},{\"page_index\":1,\"viewing_time\":6358}]","rt":10484,"trial_type":"pit-instructions","trial_index":24,"time_elapsed":334639,"internal_node_id":"0.0-6.0-9.0","task_version":"battery-v0.2-trt"},{"rune":"4","rune_set":"elianto","hex":"#f73b6a7A","correct":32,"choice":32,"rt":539,"accuracy":1,"outcome":"-1","keys":[2041],"total_keys":1,"block":0,"practice":4,"trial_type":"pit-trial","trial_index":25,"time_elapsed":337888,"internal_node_id":"0.0-6.0-10.0-0.0","task_version":"battery-v0.2-trt"},{"rune":"4","rune_set":"elianto","hex":"#f73b6a7A","correct":32,"choice":32,"rt":273,"accuracy":1,"outcome":"-1","keys":[1775],"total_keys":1,"block":0,"practice":4,"trial_type":"pit-trial","trial_index":26,"time_elapsed":340872,"internal_node_id":"0.0-6.0-10.1-0.1","task_version":"battery-v0.2-trt"},{"rune":"4","rune_set":"elianto","hex":"#f73b6a7A","correct":32,"choice":32,"rt":414,"accuracy":1,"outcome":"-1","keys":[1915],"total_keys":1,"block":0,"practice":4,"trial_type":"pit-trial","trial_index":27,"time_elapsed":343993,"internal_node_id":"0.0-6.0-10.2-0.2","task_version":"battery-v0.2-trt"},{"rune":"4","rune_set":"elianto","hex":"#f73b6a7A","correct":32,"choice":32,"rt":353,"accuracy":1,"outcome":"-1","keys":[1855],"total_keys":1,"block":0,"practice":4,"trial_type":"pit-trial","trial_index":28,"time_elapsed":347054,"internal_node_id":"0.0-6.0-10.3-0.3","task_version":"battery-v0.2-trt"},{"trial_type":"call-function","trial_index":29,"time_elapsed":347056,"internal_node_id":"0.0-6.0-11.0","task_version":"battery-v0.2-trt"},{"view_history":"[{\"page_index\":0,\"viewing_time\":3610},{\"page_index\":1,\"viewing_time\":11274},{\"page_index\":2,\"viewing_time\":2325},{\"page_index\":3,\"viewing_time\":1996},{\"page_index\":4,\"viewing_time\":2952},{\"page_index\":5,\"viewing_time\":1774}]","rt":23932,"trial_type":"pit-instructions","trial_index":30,"time_elapsed":370990,"internal_node_id":"0.0-6.0-12.0","task_version":"battery-v0.2-trt"},{"responses":["Press SPACE","+10","-1","True","True"],"num_errors":0,"rt":12569,"trial_type":"pit-comprehension","trial_index":31,"time_elapsed":383563,"internal_node_id":"0.0-6.0-13.0","task_version":"battery-v0.2-trt"},{"view_history":"[{\"page_index\":0,\"viewing_time\":3373},{\"page_index\":1,\"viewing_time\":3320}]","rt":6693,"trial_type":"pit-instructions","trial_index":32,"time_elapsed":390262,"internal_node_id":"0.0-7.0","task_version":"battery-v0.2-trt"},{"rune":"Z","rune_set":"bacs2","hex":"#3366ff99","correct":32,"choice":32,"rt":373,"accuracy":1,"outcome":"+10","keys":[1874],"total_keys":1,"block":1,"trial":1,"stimulus":3,"robot":1,"valence":"win","action":"go","sham":0,"trial_type":"pit-trial","trial_index":33,"time_elapsed":393344,"internal_node_id":"0.0-8.0","task_version":"battery-v0.2-trt"},{"rune":"J","rune_set":"bacs2","hex":"#3366ff99","correct":-1,"choice":32,"rt":362,"accuracy":0,"outcome":"+10","keys":[1865],"total_keys":1,"block":1,"trial":2,"stimulus":0,"robot":2,"valence":"win","action":"no-go","sham":1,"trial_type":"pit-trial","trial_index":34,"time_elapsed":396415,"internal_node_id":"0.0-9.0","task_version":"battery-v0.2-trt"},{"rune":"W","rune_set":"bacs2","hex":"#3366ff99","correct":32,"choice":32,"rt":427,"accuracy":1,"outcome":"+10","keys":[1927],"total_keys":1,"block":1,"trial":3,"stimulus":1,"robot":1,"valence":"win","action":"go","sham":0,"trial_type":"pit-trial","trial_index":35,"time_elapsed":399546,"internal_node_id":"0.0-10.0","task_version":"battery-v0.2-trt"},{"rune":"X","rune_set":"bacs2","hex":"#f73b6a7A","correct":-1,"choice":32,"rt":390,"accuracy":0,"outcome":"-10","keys":[1894],"total_keys":1,"block":1,"trial":4,"stimulus":2,"robot":4,"valence":"lose","action":"no-go","sham":0,"trial_type":"pit-trial","trial_index":36,"time_elapsed":402647,"internal_node_id":"0.0-11.0","task_version":"battery-v0.2-trt"},{"rune":"X","rune_set":"bacs2","hex":"#f73b6a7A","correct":-1,"choice":-1,"rt":-1,"accuracy":1,"outcome":"-1","keys":[],"total_keys":0,"block":1,"trial":5,"stimulus":2,"robot":4,"valence":"lose","action":"no-go","sham":0,"trial_type":"pit-trial","trial_index":37,"time_elapsed":406658,"internal_node_id":"0.0-12.0","task_version":"battery-v0.2-trt"},{"rune":"Z","rune_set":"bacs2","hex":"#3366ff99","correct":32,"choice":32,"rt":519,"accuracy":1,"outcome":"+10","keys":[2019],"total_keys":1,"block":1,"trial":6,"stimulus":3,"robot":1,"valence":"win","action":"go","sham":0,"trial_type":"pit-trial","trial_index":38,"time_elapsed":409882,"internal_node_id":"0.0-13.0","task_version":"battery-v0.2-trt"},{"rune":"W","rune_set":"bacs2","hex":"#3366ff99","correct":32,"choice":32,"rt":659,"accuracy":1,"outcome":"+10","keys":[2160],"total_keys":1,"block":1,"trial":7,"stimulus":1,"robot":1,"valence":"win","action":"go","sham":0,"trial_type":"pit-trial","trial_index":39,"time_elapsed":413252,"internal_node_id":"0.0-14.0","task_version":"battery-v0.2-trt"},{"rune":"J","rune_set":"bacs2","hex":"#3366ff99","correct":-1,"choice":32,"rt":400,"accuracy":0,"outcome":"+1","keys":[1902],"total_keys":1,"block":1,"trial":8,"stimulus":0,"robot":2,"valence":"win","action":"no-go","sham":0,"trial_type":"pit-trial","trial_index":40,"time_elapsed":416362,"internal_node_id":"0.0-15.0","task_version":"battery-v0.2-trt"},{"rune":"Z","rune_set":"bacs2","hex":"#3366ff99","correct":32,"choice":32,"rt":490,"accuracy":1,"outcome":"+10","keys":[1992],"total_keys":1,"block":1,"trial":9,"stimulus":3,"robot":1,"valence":"win","action":"go","sham":0,"trial_type":"pit-trial","trial_index":41,"time_elapsed":419562,"internal_node_id":"0.0-16.0","task_version":"battery-v0.2-trt"},{"rune":"X","rune_set":"bacs2","hex":"#f73b6a7A","correct":-1,"choice":32,"rt":938,"accuracy":0,"outcome":"-10","keys":[2438],"total_keys":1,"block":1,"trial":10,"stimulus":2,"robot":4,"valence":"lose","action":"no-go","sham":0,"trial_type":"pit-trial","trial_index":42,"time_elapsed":423209,"internal_node_id":"0.0-17.0","task_version":"battery-v0.2-trt"},{"rune":"W","rune_set":"bacs2","hex":"#3366ff99","correct":32,"choice":32,"rt":636,"accuracy":1,"outcome":"+1","keys":[2137],"total_keys":1,"block":1,"trial":11,"stimulus":1,"robot":1,"valence":"win","action":"go","sham":1,"trial_type":"pit-trial","trial_index":43,"time_elapsed":426557,"internal_node_id":"0.0-18.0","task_version":"battery-v0.2-trt"},{"rune":"J","rune_set":"bacs2","hex":"#3366ff99","correct":-1,"choice":-1,"rt":-1,"accuracy":1,"outcome":"+10","keys":[],"total_keys":0,"block":1,"trial":12,"stimulus":0,"robot":2,"valence":"win","action":"no-go","sham":0,"trial_type":"pit-trial","trial_index":44,"time_elapsed":430572,"internal_node_id":"0.0-19.0","task_version":"battery-v0.2-trt"},{"rune":"W","rune_set":"bacs2","hex":"#3366ff99","correct":32,"choice":-1,"rt":-1,"accuracy":0,"outcome":"+1","keys":[],"total_keys":0,"block":1,"trial":13,"stimulus":1,"robot":1,"valence":"win","action":"go","sham":0,"trial_type":"pit-trial","trial_index":45,"time_elapsed":434584,"internal_node_id":"0.0-20.0","task_version":"battery-v0.2-trt"},{"rune":"X","rune_set":"bacs2","hex":"#f73b6a7A","correct":-1,"choice":-1,"rt":-1,"accuracy":1,"outcome":"-10","keys":[],"total_keys":0,"block":1,"trial":14,"stimulus":2,"robot":4,"valence":"lose","action":"no-go","sham":1,"trial_type":"pit-trial","trial_index":46,"time_elapsed":438594,"internal_node_id":"0.0-21.0","task_version":"battery-v0.2-trt"},{"rune":"J","rune_set":"bacs2","hex":"#3366ff99","correct":-1,"choice":32,"rt":522,"accuracy":0,"outcome":"+10","keys":[2023],"total_keys":1,"block":1,"trial":15,"stimulus":0,"robot":2,"valence":"win","action":"no-go","sham":1,"trial_type":"pit-trial","trial_index":47,"time_elapsed":441823,"internal_node_id":"0.0-22.0","task_version":"battery-v0.2-trt"},{"rune":"Z","rune_set":"bacs2","hex":"#3366ff99","correct":32,"choice":32,"rt":403,"accuracy":1,"outcome":"+10","keys":[1905],"total_keys":1,"block":1,"trial":16,"stimulus":3,"robot":1,"valence":"win","action":"go","sham":0,"trial_type":"pit-trial","trial_index":48,"time_elapsed":444938,"internal_node_id":"0.0-23.0","task_version":"battery-v0.2-trt"},{"rune":"W","rune_set":"bacs2","hex":"#3366ff99","correct":32,"choice":32,"rt":475,"accuracy":1,"outcome":"+1","keys":[1978],"total_keys":1,"block":1,"trial":17,"stimulus":1,"robot":1,"valence":"win","action":"go","sham":1,"trial_type":"pit-trial","trial_index":49,"time_elapsed":448122,"internal_node_id":"0.0-24.0","task_version":"battery-v0.2-trt"},{"rune":"Z","rune_set":"bacs2","hex":"#3366ff99","correct":32,"choice":32,"rt":491,"accuracy":1,"outcome":"+10","keys":[1989],"total_keys":1,"block":1,"trial":18,"stimulus":3,"robot":1,"valence":"win","action":"go","sham":0,"trial_type":"pit-trial","trial_index":50,"time_elapsed":451321,"internal_node_id":"0.0-25.0","task_version":"battery-v0.2-trt"},{"rune":"J","rune_set":"bacs2","hex":"#3366ff99","correct":-1,"choice":32,"rt":599,"accuracy":0,"outcome":"+1","keys":[2101],"total_keys":1,"block":1,"trial":19,"stimulus":0,"robot":2,"valence":"win","action":"no-go","sham":0,"trial_type":"pit-trial","trial_index":51,"time_elapsed":454632,"internal_node_id":"0.0-26.0","task_version":"battery-v0.2-trt"},{"rune":"X","rune_set":"bacs2","hex":"#f73b6a7A","correct":-1,"choice":-1,"rt":-1,"accuracy":1,"outcome":"-1","keys":[],"total_keys":0,"block":1,"trial":20,"stimulus":2,"robot":4,"valence":"lose","action":"no-go","sham":0,"trial_type":"pit-trial","trial_index":52,"time_elapsed":458647,"internal_node_id":"0.0-27.0","task_version":"battery-v0.2-trt"},{"rune":"X","rune_set":"bacs2","hex":"#f73b6a7A","correct":-1,"choice":-1,"rt":-1,"accuracy":1,"outcome":"-1","keys":[],"total_keys":0,"block":1,"trial":21,"stimulus":2,"robot":4,"valence":"lose","action":"no-go","sham":0,"trial_type":"pit-trial","trial_index":53,"time_elapsed":462658,"internal_node_id":"0.0-28.0","task_version":"battery-v0.2-trt"},{"rune":"W","rune_set":"bacs2","hex":"#3366ff99","correct":32,"choice":32,"rt":485,"accuracy":1,"outcome":"+10","keys":[1986],"total_keys":1,"block":1,"trial":22,"stimulus":1,"robot":1,"valence":"win","action":"go","sham":0,"trial_type":"pit-trial","trial_index":54,"time_elapsed":465851,"internal_node_id":"0.0-29.0","task_version":"battery-v0.2-trt"},{"rune":"J","rune_set":"bacs2","hex":"#3366ff99","correct":-1,"choice":32,"rt":927,"accuracy":0,"outcome":"+1","keys":[2428],"total_keys":1,"block":1,"trial":23,"stimulus":0,"robot":2,"valence":"win","action":"no-go","sham":0,"trial_type":"pit-trial","trial_index":55,"time_elapsed":469482,"internal_node_id":"0.0-30.0","task_version":"battery-v0.2-trt"},{"rune":"Z","rune_set":"bacs2","hex":"#3366ff99","correct":32,"choice":32,"rt":441,"accuracy":1,"outcome":"+10","keys":[1942],"total_keys":1,"block":1,"trial":24,"stimulus":3,"robot":1,"valence":"win","action":"go","sham":0,"trial_type":"pit-trial","trial_index":56,"time_elapsed":472631,"internal_node_id":"0.0-31.0","task_version":"battery-v0.2-trt"},{"rune":"W","rune_set":"bacs2","hex":"#3366ff99","correct":32,"choice":32,"rt":737,"accuracy":1,"outcome":"+1","keys":[2242],"total_keys":1,"block":1,"trial":25,"stimulus":1,"robot":1,"valence":"win","action":"go","sham":1,"trial_type":"pit-trial","trial_index":57,"time_elapsed":476078,"internal_node_id":"0.0-32.0","task_version":"battery-v0.2-trt"},{"rune":"J","rune_set":"bacs2","hex":"#3366ff99","correct":-1,"choice":-1,"rt":-1,"accuracy":1,"outcome":"+10","keys":[],"total_keys":0,"block":1,"trial":26,"stimulus":0,"robot":2,"valence":"win","action":"no-go","sham":0,"trial_type":"pit-trial","trial_index":58,"time_elapsed":480089,"internal_node_id":"0.0-33.0","task_version":"battery-v0.2-trt"},{"rune":"X","rune_set":"bacs2","hex":"#f73b6a7A","correct":-1,"choice":-1,"rt":-1,"accuracy":1,"outcome":"-1","keys":[],"total_keys":0,"block":1,"trial":27,"stimulus":2,"robot":4,"valence":"lose","action":"no-go","sham":0,"trial_type":"pit-trial","trial_index":59,"time_elapsed":484101,"internal_node_id":"0.0-34.0","task_version":"battery-v0.2-trt"},{"rune":"Z","rune_set":"bacs2","hex":"#3366ff99","correct":32,"choice":32,"rt":284,"accuracy":1,"outcome":"+10","keys":[1784],"total_keys":1,"block":1,"trial":28,"stimulus":3,"robot":1,"valence":"win","action":"go","sham":0,"trial_type":"pit-trial","trial_index":60,"time_elapsed":487091,"internal_node_id":"0.0-35.0","task_version":"battery-v0.2-trt"},{"rune":"W","rune_set":"bacs2","hex":"#3366ff99","correct":32,"choice":-1,"rt":-1,"accuracy":0,"outcome":"+1","keys":[],"total_keys":0,"block":1,"trial":29,"stimulus":1,"robot":1,"valence":"win","action":"go","sham":0,"trial_type":"pit-trial","trial_index":61,"time_elapsed":491101,"internal_node_id":"0.0-36.0","task_version":"battery-v0.2-trt"},{"rune":"X","rune_set":"bacs2","hex":"#f73b6a7A","correct":-1,"choice":-1,"rt":-1,"accuracy":1,"outcome":"-10","keys":[],"total_keys":0,"block":1,"trial":30,"stimulus":2,"robot":4,"valence":"lose","action":"no-go","sham":1,"trial_type":"pit-trial","trial_index":62,"time_elapsed":495112,"internal_node_id":"0.0-37.0","task_version":"battery-v0.2-trt"},{"rune":"Z","rune_set":"bacs2","hex":"#3366ff99","correct":32,"choice":32,"rt":427,"accuracy":1,"outcome":"+10","keys":[1930],"total_keys":1,"block":1,"trial":31,"stimulus":3,"robot":1,"valence":"win","action":"go","sham":0,"trial_type":"pit-trial","trial_index":63,"time_elapsed":498251,"internal_node_id":"0.0-38.0","task_version":"battery-v0.2-trt"},{"rune":"J","rune_set":"bacs2","hex":"#3366ff99","correct":-1,"choice":-1,"rt":-1,"accuracy":1,"outcome":"+10","keys":[],"total_keys":0,"block":1,"trial":32,"stimulus":0,"robot":2,"valence":"win","action":"no-go","sham":0,"trial_type":"pit-trial","trial_index":64,"time_elapsed":502257,"internal_node_id":"0.0-39.0","task_version":"battery-v0.2-trt"},{"rune":"G","rune_set":"bacs2","hex":"#3366ff99","correct":32,"choice":32,"rt":551,"accuracy":1,"outcome":"+10","keys":[2054],"total_keys":1,"block":1,"trial":33,"stimulus":4,"robot":1,"valence":"win","action":"go","sham":0,"trial_type":"pit-trial","trial_index":65,"time_elapsed":505520,"internal_node_id":"0.0-40.0","task_version":"battery-v0.2-trt"},{"rune":"Z","rune_set":"bacs2","hex":"#3366ff99","correct":32,"choice":32,"rt":487,"accuracy":1,"outcome":"+10","keys":[1988],"total_keys":1,"block":1,"trial":34,"stimulus":3,"robot":1,"valence":"win","action":"go","sham":0,"trial_type":"pit-trial","trial_index":66,"time_elapsed":508716,"internal_node_id":"0.0-41.0","task_version":"battery-v0.2-trt"},{"rune":"J","rune_set":"bacs2","hex":"#3366ff99","correct":-1,"choice":-1,"rt":-1,"accuracy":1,"outcome":"+10","keys":[],"total_keys":0,"block":1,"trial":35,"stimulus":0,"robot":2,"valence":"win","action":"no-go","sham":0,"trial_type":"pit-trial","trial_index":67,"time_elapsed":512727,"internal_node_id":"0.0-42.0","task_version":"battery-v0.2-trt"},{"rune":"X","rune_set":"bacs2","hex":"#f73b6a7A","correct":-1,"choice":-1,"rt":-1,"accuracy":1,"outcome":"-1","keys":[],"total_keys":0,"block":1,"trial":36,"stimulus":2,"robot":4,"valence":"lose","action":"no-go","sham":0,"trial_type":"pit-trial","trial_index":68,"time_elapsed":516739,"internal_node_id":"0.0-43.0","task_version":"battery-v0.2-trt"},{"rune":"J","rune_set":"bacs2","hex":"#3366ff99","correct":-1,"choice":-1,"rt":-1,"accuracy":1,"outcome":"+1","keys":[],"total_keys":0,"block":1,"trial":37,"stimulus":0,"robot":2,"valence":"win","action":"no-go","sham":1,"trial_type":"pit-trial","trial_index":69,"time_elapsed":520749,"internal_node_id":"0.0-44.0","task_version":"battery-v0.2-trt"},{"rune":"Z","rune_set":"bacs2","hex":"#3366ff99","correct":32,"choice":32,"rt":372,"accuracy":1,"outcome":"+10","keys":[1872],"total_keys":1,"block":1,"trial":38,"stimulus":3,"robot":1,"valence":"win","action":"go","sham":0,"trial_type":"pit-trial","trial_index":70,"time_elapsed":523828,"internal_node_id":"0.0-45.0","task_version":"battery-v0.2-trt"},{"rune":"G","rune_set":"bacs2","hex":"#3366ff99","correct":32,"choice":32,"rt":525,"accuracy":1,"outcome":"+10","keys":[2026],"total_keys":1,"block":1,"trial":39,"stimulus":4,"robot":1,"valence":"win","action":"go","sham":0,"trial_type":"pit-trial","trial_index":71,"time_elapsed":527060,"internal_node_id":"0.0-46.0","task_version":"battery-v0.2-trt"},{"rune":"X","rune_set":"bacs2","hex":"#f73b6a7A","correct":-1,"choice":-1,"rt":-1,"accuracy":1,"outcome":"-1","keys":[],"total_keys":0,"block":1,"trial":40,"stimulus":2,"robot":4,"valence":"lose","action":"no-go","sham":0,"trial_type":"pit-trial","trial_index":72,"time_elapsed":531074,"internal_node_id":"0.0-47.0","task_version":"battery-v0.2-trt"},{"rune":"J","rune_set":"bacs2","hex":"#3366ff99","correct":-1,"choice":-1,"rt":-1,"accuracy":1,"outcome":"+10","keys":[],"total_keys":0,"block":1,"trial":41,"stimulus":0,"robot":2,"valence":"win","action":"no-go","sham":0,"trial_type":"pit-trial","trial_index":73,"time_elapsed":535088,"internal_node_id":"0.0-48.0","task_version":"battery-v0.2-trt"},{"rune":"O","rune_set":"bacs2","hex":"#f73b6a7A","correct":32,"choice":32,"rt":685,"accuracy":1,"outcome":"-1","keys":[2185],"total_keys":1,"block":1,"trial":42,"stimulus":5,"robot":3,"valence":"lose","action":"go","sham":0,"trial_type":"pit-trial","trial_index":74,"time_elapsed":538482,"internal_node_id":"0.0-49.0","task_version":"battery-v0.2-trt"},{"rune":"G","rune_set":"bacs2","hex":"#3366ff99","correct":32,"choice":32,"rt":551,"accuracy":1,"outcome":"+10","keys":[2052],"total_keys":1,"block":1,"trial":43,"stimulus":4,"robot":1,"valence":"win","action":"go","sham":0,"trial_type":"pit-trial","trial_index":75,"time_elapsed":541738,"internal_node_id":"0.0-50.0","task_version":"battery-v0.2-trt"},{"rune":"C","rune_set":"bacs2","hex":"#f73b6a7A","correct":-1,"choice":-1,"rt":-1,"accuracy":1,"outcome":"-1","keys":[],"total_keys":0,"block":1,"trial":44,"stimulus":6,"robot":4,"valence":"lose","action":"no-go","sham":0,"trial_type":"pit-trial","trial_index":76,"time_elapsed":545748,"internal_node_id":"0.0-51.0","task_version":"battery-v0.2-trt"},{"rune":"O","rune_set":"bacs2","hex":"#f73b6a7A","correct":32,"choice":32,"rt":396,"accuracy":1,"outcome":"-1","keys":[1900],"total_keys":1,"block":1,"trial":45,"stimulus":5,"robot":3,"valence":"lose","action":"go","sham":0,"trial_type":"pit-trial","trial_index":77,"time_elapsed":548854,"internal_node_id":"0.0-52.0","task_version":"battery-v0.2-trt"},{"rune":"G","rune_set":"bacs2","hex":"#3366ff99","correct":32,"choice":32,"rt":509,"accuracy":1,"outcome":"+10","keys":[2012],"total_keys":1,"block":1,"trial":46,"stimulus":4,"robot":1,"valence":"win","action":"go","sham":0,"trial_type":"pit-trial","trial_index":78,"time_elapsed":552073,"internal_node_id":"0.0-53.0","task_version":"battery-v0.2-trt"},{"rune":"J","rune_set":"bacs2","hex":"#3366ff99","correct":-1,"choice":-1,"rt":-1,"accuracy":1,"outcome":"+10","keys":[],"total_keys":0,"block":1,"trial":47,"stimulus":0,"robot":2,"valence":"win","action":"no-go","sham":0,"trial_type":"pit-trial","trial_index":79,"time_elapsed":556083,"internal_node_id":"0.0-54.0","task_version":"battery-v0.2-trt"},{"rune":"C","rune_set":"bacs2","hex":"#f73b6a7A","correct":-1,"choice":32,"rt":627,"accuracy":0,"outcome":"-10","keys":[2129],"total_keys":1,"block":1,"trial":48,"stimulus":6,"robot":4,"valence":"lose","action":"no-go","sham":0,"trial_type":"pit-trial","trial_index":80,"time_elapsed":559420,"internal_node_id":"0.0-55.0","task_version":"battery-v0.2-trt"},{"rune":"O","rune_set":"bacs2","hex":"#f73b6a7A","correct":32,"choice":32,"rt":969,"accuracy":1,"outcome":"-1","keys":[2468],"total_keys":1,"block":1,"trial":49,"stimulus":5,"robot":3,"valence":"lose","action":"go","sham":0,"trial_type":"pit-trial","trial_index":81,"time_elapsed":563095,"internal_node_id":"0.0-56.0","task_version":"battery-v0.2-trt"},{"rune":"G","rune_set":"bacs2","hex":"#3366ff99","correct":32,"choice":32,"rt":493,"accuracy":1,"outcome":"+10","keys":[1993],"total_keys":1,"block":1,"trial":50,"stimulus":4,"robot":1,"valence":"win","action":"go","sham":0,"trial_type":"pit-trial","trial_index":82,"time_elapsed":566296,"internal_node_id":"0.0-57.0","task_version":"battery-v0.2-trt"},{"rune":"E","rune_set":"bacs2","hex":"#3366ff99","correct":-1,"choice":32,"rt":794,"accuracy":0,"outcome":"+1","keys":[2297],"total_keys":1,"block":1,"trial":51,"stimulus":7,"robot":2,"valence":"win","action":"no-go","sham":0,"trial_type":"pit-trial","trial_index":83,"time_elapsed":569798,"internal_node_id":"0.0-58.0","task_version":"battery-v0.2-trt"},{"rune":"C","rune_set":"bacs2","hex":"#f73b6a7A","correct":-1,"choice":-1,"rt":-1,"accuracy":1,"outcome":"-10","keys":[],"total_keys":0,"block":1,"trial":52,"stimulus":6,"robot":4,"valence":"lose","action":"no-go","sham":1,"trial_type":"pit-trial","trial_index":84,"time_elapsed":573808,"internal_node_id":"0.0-59.0","task_version":"battery-v0.2-trt"},{"rune":"G","rune_set":"bacs2","hex":"#3366ff99","correct":32,"choice":32,"rt":340,"accuracy":1,"outcome":"+1","keys":[1841],"total_keys":1,"block":1,"trial":53,"stimulus":4,"robot":1,"valence":"win","action":"go","sham":1,"trial_type":"pit-trial","trial_index":85,"time_elapsed":576856,"internal_node_id":"0.0-60.0","task_version":"battery-v0.2-trt"},{"rune":"E","rune_set":"bacs2","hex":"#3366ff99","correct":-1,"choice":32,"rt":516,"accuracy":0,"outcome":"+1","keys":[2020],"total_keys":1,"block":1,"trial":54,"stimulus":7,"robot":2,"valence":"win","action":"no-go","sham":0,"trial_type":"pit-trial","trial_index":86,"time_elapsed":580084,"internal_node_id":"0.0-61.0","task_version":"battery-v0.2-trt"},{"rune":"C","rune_set":"bacs2","hex":"#f73b6a7A","correct":-1,"choice":-1,"rt":-1,"accuracy":1,"outcome":"-10","keys":[],"total_keys":0,"block":1,"trial":55,"stimulus":6,"robot":4,"valence":"lose","action":"no-go","sham":1,"trial_type":"pit-trial","trial_index":87,"time_elapsed":584093,"internal_node_id":"0.0-62.0","task_version":"battery-v0.2-trt"},{"rune":"O","rune_set":"bacs2","hex":"#f73b6a7A","correct":32,"choice":32,"rt":657,"accuracy":1,"outcome":"-1","keys":[2158],"total_keys":1,"block":1,"trial":56,"stimulus":5,"robot":3,"valence":"lose","action":"go","sham":0,"trial_type":"pit-trial","trial_index":88,"time_elapsed":587462,"internal_node_id":"0.0-63.0","task_version":"battery-v0.2-trt"},{"rune":"O","rune_set":"bacs2","hex":"#f73b6a7A","correct":32,"choice":32,"rt":603,"accuracy":1,"outcome":"-1","keys":[2104],"total_keys":1,"block":1,"trial":57,"stimulus":5,"robot":3,"valence":"lose","action":"go","sham":0,"trial_type":"pit-trial","trial_index":89,"time_elapsed":590771,"internal_node_id":"0.0-64.0","task_version":"battery-v0.2-trt"},{"rune":"C","rune_set":"bacs2","hex":"#f73b6a7A","correct":-1,"choice":-1,"rt":-1,"accuracy":1,"outcome":"-1","keys":[],"total_keys":0,"block":1,"trial":58,"stimulus":6,"robot":4,"valence":"lose","action":"no-go","sham":0,"trial_type":"pit-trial","trial_index":90,"time_elapsed":594777,"internal_node_id":"0.0-65.0","task_version":"battery-v0.2-trt"},{"rune":"G","rune_set":"bacs2","hex":"#3366ff99","correct":32,"choice":32,"rt":450,"accuracy":1,"outcome":"+10","keys":[1953],"total_keys":1,"block":1,"trial":59,"stimulus":4,"robot":1,"valence":"win","action":"go","sham":0,"trial_type":"pit-trial","trial_index":91,"time_elapsed":597938,"internal_node_id":"0.0-66.0","task_version":"battery-v0.2-trt"},{"rune":"E","rune_set":"bacs2","hex":"#3366ff99","correct":-1,"choice":32,"rt":524,"accuracy":0,"outcome":"+1","keys":[2025],"total_keys":1,"block":1,"trial":60,"stimulus":7,"robot":2,"valence":"win","action":"no-go","sham":0,"trial_type":"pit-trial","trial_index":92,"time_elapsed":601169,"internal_node_id":"0.0-67.0","task_version":"battery-v0.2-trt"},{"rune":"G","rune_set":"bacs2","hex":"#3366ff99","correct":32,"choice":32,"rt":587,"accuracy":1,"outcome":"+10","keys":[2088],"total_keys":1,"block":1,"trial":61,"stimulus":4,"robot":1,"valence":"win","action":"go","sham":0,"trial_type":"pit-trial","trial_index":93,"time_elapsed":604463,"internal_node_id":"0.0-68.0","task_version":"battery-v0.2-trt"},{"rune":"O","rune_set":"bacs2","hex":"#f73b6a7A","correct":32,"choice":32,"rt":453,"accuracy":1,"outcome":"-1","keys":[1954],"total_keys":1,"block":1,"trial":62,"stimulus":5,"robot":3,"valence":"lose","action":"go","sham":0,"trial_type":"pit-trial","trial_index":94,"time_elapsed":607625,"internal_node_id":"0.0-69.0","task_version":"battery-v0.2-trt"},{"rune":"E","rune_set":"bacs2","hex":"#3366ff99","correct":-1,"choice":-1,"rt":-1,"accuracy":1,"outcome":"+10","keys":[],"total_keys":0,"block":1,"trial":63,"stimulus":7,"robot":2,"valence":"win","action":"no-go","sham":0,"trial_type":"pit-trial","trial_index":95,"time_elapsed":611635,"internal_node_id":"0.0-70.0","task_version":"battery-v0.2-trt"},{"rune":"C","rune_set":"bacs2","hex":"#f73b6a7A","correct":-1,"choice":-1,"rt":-1,"accuracy":1,"outcome":"-1","keys":[],"total_keys":0,"block":1,"trial":64,"stimulus":6,"robot":4,"valence":"lose","action":"no-go","sham":0,"trial_type":"pit-trial","trial_index":96,"time_elapsed":615645,"internal_node_id":"0.0-71.0","task_version":"battery-v0.2-trt"},{"rune":"C","rune_set":"bacs2","hex":"#f73b6a7A","correct":-1,"choice":-1,"rt":-1,"accuracy":1,"outcome":"-1","keys":[],"total_keys":0,"block":1,"trial":65,"stimulus":6,"robot":4,"valence":"lose","action":"no-go","sham":0,"trial_type":"pit-trial","trial_index":97,"time_elapsed":619653,"internal_node_id":"0.0-72.0","task_version":"battery-v0.2-trt"},{"rune":"O","rune_set":"bacs2","hex":"#f73b6a7A","correct":32,"choice":32,"rt":298,"accuracy":1,"outcome":"-1","keys":[1796],"total_keys":1,"block":1,"trial":66,"stimulus":5,"robot":3,"valence":"lose","action":"go","sham":0,"trial_type":"pit-trial","trial_index":98,"time_elapsed":622661,"internal_node_id":"0.0-73.0","task_version":"battery-v0.2-trt"},{"rune":"G","rune_set":"bacs2","hex":"#3366ff99","correct":32,"choice":32,"rt":662,"accuracy":1,"outcome":"+10","keys":[2162],"total_keys":1,"block":1,"trial":67,"stimulus":4,"robot":1,"valence":"win","action":"go","sham":0,"trial_type":"pit-trial","trial_index":99,"time_elapsed":626032,"internal_node_id":"0.0-74.0","task_version":"battery-v0.2-trt"},{"rune":"E","rune_set":"bacs2","hex":"#3366ff99","correct":-1,"choice":-1,"rt":-1,"accuracy":1,"outcome":"+10","keys":[],"total_keys":0,"block":1,"trial":68,"stimulus":7,"robot":2,"valence":"win","action":"no-go","sham":0,"trial_type":"pit-trial","trial_index":100,"time_elapsed":630044,"internal_node_id":"0.0-75.0","task_version":"battery-v0.2-trt"},{"rune":"G","rune_set":"bacs2","hex":"#3366ff99","correct":32,"choice":32,"rt":400,"accuracy":1,"outcome":"+10","keys":[1901],"total_keys":1,"block":1,"trial":69,"stimulus":4,"robot":1,"valence":"win","action":"go","sham":0,"trial_type":"pit-trial","trial_index":101,"time_elapsed":633153,"internal_node_id":"0.0-76.0","task_version":"battery-v0.2-trt"},{"rune":"E","rune_set":"bacs2","hex":"#3366ff99","correct":-1,"choice":-1,"rt":-1,"accuracy":1,"outcome":"+1","keys":[],"total_keys":0,"block":1,"trial":70,"stimulus":7,"robot":2,"valence":"win","action":"no-go","sham":1,"trial_type":"pit-trial","trial_index":102,"time_elapsed":637162,"internal_node_id":"0.0-77.0","task_version":"battery-v0.2-trt"},{"rune":"C","rune_set":"bacs2","hex":"#f73b6a7A","correct":-1,"choice":32,"rt":741,"accuracy":0,"outcome":"-10","keys":[2242],"total_keys":1,"block":1,"trial":71,"stimulus":6,"robot":4,"valence":"lose","action":"no-go","sham":0,"trial_type":"pit-trial","trial_index":103,"time_elapsed":640609,"internal_node_id":"0.0-78.0","task_version":"battery-v0.2-trt"},{"rune":"O","rune_set":"bacs2","hex":"#f73b6a7A","correct":32,"choice":32,"rt":319,"accuracy":1,"outcome":"-1","keys":[1819],"total_keys":1,"block":1,"trial":72,"stimulus":5,"robot":3,"valence":"lose","action":"go","sham":0,"trial_type":"pit-trial","trial_index":104,"time_elapsed":643635,"internal_node_id":"0.0-79.0","task_version":"battery-v0.2-trt"},{"rune":"G","rune_set":"bacs2","hex":"#3366ff99","correct":32,"choice":32,"rt":430,"accuracy":1,"outcome":"+1","keys":[1931],"total_keys":1,"block":1,"trial":73,"stimulus":4,"robot":1,"valence":"win","action":"go","sham":1,"trial_type":"pit-trial","trial_index":105,"time_elapsed":646774,"internal_node_id":"0.0-80.0","task_version":"battery-v0.2-trt"},{"rune":"C","rune_set":"bacs2","hex":"#f73b6a7A","correct":-1,"choice":-1,"rt":-1,"accuracy":1,"outcome":"-1","keys":[],"total_keys":0,"block":1,"trial":74,"stimulus":6,"robot":4,"valence":"lose","action":"no-go","sham":0,"trial_type":"pit-trial","trial_index":106,"time_elapsed":650784,"internal_node_id":"0.0-81.0","task_version":"battery-v0.2-trt"},{"rune":"E","rune_set":"bacs2","hex":"#3366ff99","correct":-1,"choice":-1,"rt":-1,"accuracy":1,"outcome":"+10","keys":[],"total_keys":0,"block":1,"trial":75,"stimulus":7,"robot":2,"valence":"win","action":"no-go","sham":0,"trial_type":"pit-trial","trial_index":107,"time_elapsed":654794,"internal_node_id":"0.0-82.0","task_version":"battery-v0.2-trt"},{"rune":"H","rune_set":"bacs2","hex":"#f73b6a7A","correct":32,"choice":-1,"rt":-1,"accuracy":0,"outcome":"-10","keys":[],"total_keys":0,"block":1,"trial":76,"stimulus":8,"robot":3,"valence":"lose","action":"go","sham":0,"trial_type":"pit-trial","trial_index":108,"time_elapsed":658808,"internal_node_id":"0.0-83.0","task_version":"battery-v0.2-trt"},{"rune":"E","rune_set":"bacs2","hex":"#3366ff99","correct":-1,"choice":-1,"rt":-1,"accuracy":1,"outcome":"+1","keys":[],"total_keys":0,"block":1,"trial":77,"stimulus":7,"robot":2,"valence":"win","action":"no-go","sham":1,"trial_type":"pit-trial","trial_index":109,"time_elapsed":662815,"internal_node_id":"0.0-84.0","task_version":"battery-v0.2-trt"},{"rune":"G","rune_set":"bacs2","hex":"#3366ff99","correct":32,"choice":32,"rt":362,"accuracy":1,"outcome":"+1","keys":[1862],"total_keys":1,"block":1,"trial":78,"stimulus":4,"robot":1,"valence":"win","action":"go","sham":1,"trial_type":"pit-trial","trial_index":110,"time_elapsed":665882,"internal_node_id":"0.0-85.0","task_version":"battery-v0.2-trt"},{"rune":"C","rune_set":"bacs2","hex":"#f73b6a7A","correct":-1,"choice":-1,"rt":-1,"accuracy":1,"outcome":"-1","keys":[],"total_keys":0,"block":1,"trial":79,"stimulus":6,"robot":4,"valence":"lose","action":"no-go","sham":0,"trial_type":"pit-trial","trial_index":111,"time_elapsed":669894,"internal_node_id":"0.0-86.0","task_version":"battery-v0.2-trt"},{"rune":"H","rune_set":"bacs2","hex":"#f73b6a7A","correct":32,"choice":32,"rt":336,"accuracy":1,"outcome":"-1","keys":[1838],"total_keys":1,"block":1,"trial":80,"stimulus":8,"robot":3,"valence":"lose","action":"go","sham":0,"trial_type":"pit-trial","trial_index":112,"time_elapsed":672938,"internal_node_id":"0.0-87.0","task_version":"battery-v0.2-trt"},{"rune":"Q","rune_set":"bacs2","hex":"#f73b6a7A","correct":32,"choice":-1,"rt":-1,"accuracy":0,"outcome":"-10","keys":[],"total_keys":0,"block":1,"trial":81,"stimulus":9,"robot":3,"valence":"lose","action":"go","sham":0,"trial_type":"pit-trial","trial_index":113,"time_elapsed":676943,"internal_node_id":"0.0-88.0","task_version":"battery-v0.2-trt"},{"rune":"H","rune_set":"bacs2","hex":"#f73b6a7A","correct":32,"choice":32,"rt":444,"accuracy":1,"outcome":"-1","keys":[1947],"total_keys":1,"block":1,"trial":82,"stimulus":8,"robot":3,"valence":"lose","action":"go","sham":0,"trial_type":"pit-trial","trial_index":114,"time_elapsed":680096,"internal_node_id":"0.0-89.0","task_version":"battery-v0.2-trt"},{"rune":"E","rune_set":"bacs2","hex":"#3366ff99","correct":-1,"choice":32,"rt":488,"accuracy":0,"outcome":"+10","keys":[1989],"total_keys":1,"block":1,"trial":83,"stimulus":7,"robot":2,"valence":"win","action":"no-go","sham":1,"trial_type":"pit-trial","trial_index":115,"time_elapsed":683292,"internal_node_id":"0.0-90.0","task_version":"battery-v0.2-trt"},{"rune":"C","rune_set":"bacs2","hex":"#f73b6a7A","correct":-1,"choice":-1,"rt":-1,"accuracy":1,"outcome":"-1","keys":[],"total_keys":0,"block":1,"trial":84,"stimulus":6,"robot":4,"valence":"lose","action":"no-go","sham":0,"trial_type":"pit-trial","trial_index":116,"time_elapsed":687302,"internal_node_id":"0.0-91.0","task_version":"battery-v0.2-trt"},{"rune":"E","rune_set":"bacs2","hex":"#3366ff99","correct":-1,"choice":32,"rt":507,"accuracy":0,"outcome":"+1","keys":[2007],"total_keys":1,"block":1,"trial":85,"stimulus":7,"robot":2,"valence":"win","action":"no-go","sham":0,"trial_type":"pit-trial","trial_index":117,"time_elapsed":690515,"internal_node_id":"0.0-92.0","task_version":"battery-v0.2-trt"},{"rune":"C","rune_set":"bacs2","hex":"#f73b6a7A","correct":-1,"choice":-1,"rt":-1,"accuracy":1,"outcome":"-1","keys":[],"total_keys":0,"block":1,"trial":86,"stimulus":6,"robot":4,"valence":"lose","action":"no-go","sham":0,"trial_type":"pit-trial","trial_index":118,"time_elapsed":694524,"internal_node_id":"0.0-93.0","task_version":"battery-v0.2-trt"},{"rune":"Q","rune_set":"bacs2","hex":"#f73b6a7A","correct":32,"choice":32,"rt":667,"accuracy":1,"outcome":"-1","keys":[2170],"total_keys":1,"block":1,"trial":87,"stimulus":9,"robot":3,"valence":"lose","action":"go","sham":0,"trial_type":"pit-trial","trial_index":119,"time_elapsed":697903,"internal_node_id":"0.0-94.0","task_version":"battery-v0.2-trt"},{"rune":"H","rune_set":"bacs2","hex":"#f73b6a7A","correct":32,"choice":32,"rt":358,"accuracy":1,"outcome":"-1","keys":[1858],"total_keys":1,"block":1,"trial":88,"stimulus":8,"robot":3,"valence":"lose","action":"go","sham":0,"trial_type":"pit-trial","trial_index":120,"time_elapsed":700968,"internal_node_id":"0.0-95.0","task_version":"battery-v0.2-trt"},{"rune":"Y","rune_set":"bacs2","hex":"#3366ff99","correct":-1,"choice":-1,"rt":-1,"accuracy":1,"outcome":"+10","keys":[],"total_keys":0,"block":1,"trial":89,"stimulus":11,"robot":2,"valence":"win","action":"no-go","sham":0,"trial_type":"pit-trial","trial_index":121,"time_elapsed":704980,"internal_node_id":"0.0-96.0","task_version":"battery-v0.2-trt"},{"rune":"T","rune_set":"bacs2","hex":"#f73b6a7A","correct":-1,"choice":-1,"rt":-1,"accuracy":1,"outcome":"-1","keys":[],"total_keys":0,"block":1,"trial":90,"stimulus":10,"robot":4,"valence":"lose","action":"no-go","sham":0,"trial_type":"pit-trial","trial_index":122,"time_elapsed":708990,"internal_node_id":"0.0-97.0","task_version":"battery-v0.2-trt"},{"rune":"H","rune_set":"bacs2","hex":"#f73b6a7A","correct":32,"choice":32,"rt":599,"accuracy":1,"outcome":"-1","keys":[2099],"total_keys":1,"block":1,"trial":91,"stimulus":8,"robot":3,"valence":"lose","action":"go","sham":0,"trial_type":"pit-trial","trial_index":123,"time_elapsed":712296,"internal_node_id":"0.0-98.0","task_version":"battery-v0.2-trt"},{"rune":"Q","rune_set":"bacs2","hex":"#f73b6a7A","correct":32,"choice":32,"rt":487,"accuracy":1,"outcome":"-1","keys":[1985],"total_keys":1,"block":1,"trial":92,"stimulus":9,"robot":3,"valence":"lose","action":"go","sham":0,"trial_type":"pit-trial","trial_index":124,"time_elapsed":715492,"internal_node_id":"0.0-99.0","task_version":"battery-v0.2-trt"},{"rune":"Q","rune_set":"bacs2","hex":"#f73b6a7A","correct":32,"choice":32,"rt":537,"accuracy":1,"outcome":"-10","keys":[2038],"total_keys":1,"block":1,"trial":93,"stimulus":9,"robot":3,"valence":"lose","action":"go","sham":1,"trial_type":"pit-trial","trial_index":125,"time_elapsed":718735,"internal_node_id":"0.0-100.0","task_version":"battery-v0.2-trt"},{"rune":"Y","rune_set":"bacs2","hex":"#3366ff99","correct":-1,"choice":32,"rt":573,"accuracy":0,"outcome":"+1","keys":[2075],"total_keys":1,"block":1,"trial":94,"stimulus":11,"robot":2,"valence":"win","action":"no-go","sham":0,"trial_type":"pit-trial","trial_index":126,"time_elapsed":722019,"internal_node_id":"0.0-101.0","task_version":"battery-v0.2-trt"},{"rune":"H","rune_set":"bacs2","hex":"#f73b6a7A","correct":32,"choice":32,"rt":497,"accuracy":1,"outcome":"-10","keys":[1998],"total_keys":1,"block":1,"trial":95,"stimulus":8,"robot":3,"valence":"lose","action":"go","sham":1,"trial_type":"pit-trial","trial_index":127,"time_elapsed":725223,"internal_node_id":"0.0-102.0","task_version":"battery-v0.2-trt"},{"rune":"T","rune_set":"bacs2","hex":"#f73b6a7A","correct":-1,"choice":-1,"rt":-1,"accuracy":1,"outcome":"-10","keys":[],"total_keys":0,"block":1,"trial":96,"stimulus":10,"robot":4,"valence":"lose","action":"no-go","sham":1,"trial_type":"pit-trial","trial_index":128,"time_elapsed":729228,"internal_node_id":"0.0-103.0","task_version":"battery-v0.2-trt"},{"rune":"H","rune_set":"bacs2","hex":"#f73b6a7A","correct":32,"choice":-1,"rt":-1,"accuracy":0,"outcome":"-10","keys":[],"total_keys":0,"block":1,"trial":97,"stimulus":8,"robot":3,"valence":"lose","action":"go","sham":0,"trial_type":"pit-trial","trial_index":129,"time_elapsed":733239,"internal_node_id":"0.0-104.0","task_version":"battery-v0.2-trt"},{"rune":"Q","rune_set":"bacs2","hex":"#f73b6a7A","correct":32,"choice":32,"rt":474,"accuracy":1,"outcome":"-1","keys":[1975],"total_keys":1,"block":1,"trial":98,"stimulus":9,"robot":3,"valence":"lose","action":"go","sham":0,"trial_type":"pit-trial","trial_index":130,"time_elapsed":736417,"internal_node_id":"0.0-105.0","task_version":"battery-v0.2-trt"},{"rune":"Y","rune_set":"bacs2","hex":"#3366ff99","correct":-1,"choice":32,"rt":416,"accuracy":0,"outcome":"+1","keys":[1917],"total_keys":1,"block":1,"trial":99,"stimulus":11,"robot":2,"valence":"win","action":"no-go","sham":0,"trial_type":"pit-trial","trial_index":131,"time_elapsed":739540,"internal_node_id":"0.0-106.0","task_version":"battery-v0.2-trt"},{"rune":"T","rune_set":"bacs2","hex":"#f73b6a7A","correct":-1,"choice":32,"rt":970,"accuracy":0,"outcome":"-1","keys":[2472],"total_keys":1,"block":1,"trial":100,"stimulus":10,"robot":4,"valence":"lose","action":"no-go","sham":1,"trial_type":"pit-trial","trial_index":132,"time_elapsed":743217,"internal_node_id":"0.0-107.0","task_version":"battery-v0.2-trt"},{"rune":"T","rune_set":"bacs2","hex":"#f73b6a7A","correct":-1,"choice":32,"rt":898,"accuracy":0,"outcome":"-10","keys":[2400],"total_keys":1,"block":1,"trial":101,"stimulus":10,"robot":4,"valence":"lose","action":"no-go","sham":0,"trial_type":"pit-trial","trial_index":133,"time_elapsed":746825,"internal_node_id":"0.0-108.0","task_version":"battery-v0.2-trt"},{"rune":"Q","rune_set":"bacs2","hex":"#f73b6a7A","correct":32,"choice":32,"rt":516,"accuracy":1,"outcome":"-1","keys":[2017],"total_keys":1,"block":1,"trial":102,"stimulus":9,"robot":3,"valence":"lose","action":"go","sham":0,"trial_type":"pit-trial","trial_index":134,"time_elapsed":750050,"internal_node_id":"0.0-109.0","task_version":"battery-v0.2-trt"},{"rune":"Y","rune_set":"bacs2","hex":"#3366ff99","correct":-1,"choice":-1,"rt":-1,"accuracy":1,"outcome":"+10","keys":[],"total_keys":0,"block":1,"trial":103,"stimulus":11,"robot":2,"valence":"win","action":"no-go","sham":0,"trial_type":"pit-trial","trial_index":135,"time_elapsed":754060,"internal_node_id":"0.0-110.0","task_version":"battery-v0.2-trt"},{"rune":"H","rune_set":"bacs2","hex":"#f73b6a7A","correct":32,"choice":-1,"rt":-1,"accuracy":0,"outcome":"-10","keys":[],"total_keys":0,"block":1,"trial":104,"stimulus":8,"robot":3,"valence":"lose","action":"go","sham":0,"trial_type":"pit-trial","trial_index":136,"time_elapsed":758071,"internal_node_id":"0.0-111.0","task_version":"battery-v0.2-trt"},{"rune":"Y","rune_set":"bacs2","hex":"#3366ff99","correct":-1,"choice":32,"rt":504,"accuracy":0,"outcome":"+1","keys":[2003],"total_keys":1,"block":1,"trial":105,"stimulus":11,"robot":2,"valence":"win","action":"no-go","sham":0,"trial_type":"pit-trial","trial_index":137,"time_elapsed":761279,"internal_node_id":"0.0-112.0","task_version":"battery-v0.2-trt"},{"rune":"H","rune_set":"bacs2","hex":"#f73b6a7A","correct":32,"choice":-1,"rt":-1,"accuracy":0,"outcome":"-1","keys":[],"total_keys":0,"block":1,"trial":106,"stimulus":8,"robot":3,"valence":"lose","action":"go","sham":1,"trial_type":"pit-trial","trial_index":138,"time_elapsed":765290,"internal_node_id":"0.0-113.0","task_version":"battery-v0.2-trt"},{"rune":"T","rune_set":"bacs2","hex":"#f73b6a7A","correct":-1,"choice":-1,"rt":-1,"accuracy":1,"outcome":"-1","keys":[],"total_keys":0,"block":1,"trial":107,"stimulus":10,"robot":4,"valence":"lose","action":"no-go","sham":0,"trial_type":"pit-trial","trial_index":139,"time_elapsed":769300,"internal_node_id":"0.0-114.0","task_version":"battery-v0.2-trt"},{"rune":"Q","rune_set":"bacs2","hex":"#f73b6a7A","correct":32,"choice":32,"rt":540,"accuracy":1,"outcome":"-10","keys":[2040],"total_keys":1,"block":1,"trial":108,"stimulus":9,"robot":3,"valence":"lose","action":"go","sham":1,"trial_type":"pit-trial","trial_index":140,"time_elapsed":772546,"internal_node_id":"0.0-115.0","task_version":"battery-v0.2-trt"},{"rune":"Q","rune_set":"bacs2","hex":"#f73b6a7A","correct":32,"choice":32,"rt":512,"accuracy":1,"outcome":"-1","keys":[2015],"total_keys":1,"block":1,"trial":109,"stimulus":9,"robot":3,"valence":"lose","action":"go","sham":0,"trial_type":"pit-trial","trial_index":141,"time_elapsed":775768,"internal_node_id":"0.0-116.0","task_version":"battery-v0.2-trt"},{"rune":"T","rune_set":"bacs2","hex":"#f73b6a7A","correct":-1,"choice":-1,"rt":-1,"accuracy":1,"outcome":"-10","keys":[],"total_keys":0,"block":1,"trial":110,"stimulus":10,"robot":4,"valence":"lose","action":"no-go","sham":1,"trial_type":"pit-trial","trial_index":142,"time_elapsed":779779,"internal_node_id":"0.0-117.0","task_version":"battery-v0.2-trt"},{"rune":"Y","rune_set":"bacs2","hex":"#3366ff99","correct":-1,"choice":32,"rt":357,"accuracy":0,"outcome":"+1","keys":[1857],"total_keys":1,"block":1,"trial":111,"stimulus":11,"robot":2,"valence":"win","action":"no-go","sham":0,"trial_type":"pit-trial","trial_index":143,"time_elapsed":782844,"internal_node_id":"0.0-118.0","task_version":"battery-v0.2-trt"},{"rune":"H","rune_set":"bacs2","hex":"#f73b6a7A","correct":32,"choice":-1,"rt":-1,"accuracy":0,"outcome":"-10","keys":[],"total_keys":0,"block":1,"trial":112,"stimulus":8,"robot":3,"valence":"lose","action":"go","sham":0,"trial_type":"pit-trial","trial_index":144,"time_elapsed":786854,"internal_node_id":"0.0-119.0","task_version":"battery-v0.2-trt"},{"rune":"Q","rune_set":"bacs2","hex":"#f73b6a7A","correct":32,"choice":32,"rt":492,"accuracy":1,"outcome":"-1","keys":[1995],"total_keys":1,"block":1,"trial":113,"stimulus":9,"robot":3,"valence":"lose","action":"go","sham":0,"trial_type":"pit-trial","trial_index":145,"time_elapsed":790056,"internal_node_id":"0.0-120.0","task_version":"battery-v0.2-trt"},{"rune":"T","rune_set":"bacs2","hex":"#f73b6a7A","correct":-1,"choice":-1,"rt":-1,"accuracy":1,"outcome":"-1","keys":[],"total_keys":0,"block":1,"trial":114,"stimulus":10,"robot":4,"valence":"lose","action":"no-go","sham":0,"trial_type":"pit-trial","trial_index":146,"time_elapsed":794067,"internal_node_id":"0.0-121.0","task_version":"battery-v0.2-trt"},{"rune":"Y","rune_set":"bacs2","hex":"#3366ff99","correct":-1,"choice":32,"rt":510,"accuracy":0,"outcome":"+10","keys":[2010],"total_keys":1,"block":1,"trial":115,"stimulus":11,"robot":2,"valence":"win","action":"no-go","sham":1,"trial_type":"pit-trial","trial_index":147,"time_elapsed":797287,"internal_node_id":"0.0-122.0","task_version":"battery-v0.2-trt"},{"rune":"H","rune_set":"bacs2","hex":"#f73b6a7A","correct":32,"choice":32,"rt":738,"accuracy":1,"outcome":"-1","keys":[2242],"total_keys":1,"block":1,"trial":116,"stimulus":8,"robot":3,"valence":"lose","action":"go","sham":0,"trial_type":"pit-trial","trial_index":148,"time_elapsed":800735,"internal_node_id":"0.0-123.0","task_version":"battery-v0.2-trt"},{"rune":"Y","rune_set":"bacs2","hex":"#3366ff99","correct":-1,"choice":-1,"rt":-1,"accuracy":1,"outcome":"+10","keys":[],"total_keys":0,"block":1,"trial":117,"stimulus":11,"robot":2,"valence":"win","action":"no-go","sham":0,"trial_type":"pit-trial","trial_index":149,"time_elapsed":804746,"internal_node_id":"0.0-124.0","task_version":"battery-v0.2-trt"},{"rune":"H","rune_set":"bacs2","hex":"#f73b6a7A","correct":32,"choice":32,"rt":607,"accuracy":1,"outcome":"-10","keys":[2109],"total_keys":1,"block":1,"trial":118,"stimulus":8,"robot":3,"valence":"lose","action":"go","sham":1,"trial_type":"pit-trial","trial_index":150,"time_elapsed":808061,"internal_node_id":"0.0-125.0","task_version":"battery-v0.2-trt"},{"rune":"Q","rune_set":"bacs2","hex":"#f73b6a7A","correct":32,"choice":32,"rt":494,"accuracy":1,"outcome":"-1","keys":[1995],"total_keys":1,"block":1,"trial":119,"stimulus":9,"robot":3,"valence":"lose","action":"go","sham":0,"trial_type":"pit-trial","trial_index":151,"time_elapsed":811266,"internal_node_id":"0.0-126.0","task_version":"battery-v0.2-trt"},{"rune":"T","rune_set":"bacs2","hex":"#f73b6a7A","correct":-1,"choice":-1,"rt":-1,"accuracy":1,"outcome":"-1","keys":[],"total_keys":0,"block":1,"trial":120,"stimulus":10,"robot":4,"valence":"lose","action":"no-go","sham":0,"trial_type":"pit-trial","trial_index":152,"time_elapsed":815274,"internal_node_id":"0.0-127.0","task_version":"battery-v0.2-trt"},{"view_history":"[{\"page_index\":0,\"viewing_time\":14942},{\"page_index\":1,\"viewing_time\":2788}]","rt":17730,"trial_type":"pit-instructions","trial_index":153,"time_elapsed":833008,"internal_node_id":"0.0-128.0","task_version":"battery-v0.2-trt"},{"rune":"K","rune_set":"bacs2","hex":"#3366ff99","correct":32,"choice":32,"rt":572,"accuracy":1,"outcome":"+10","keys":[2074],"total_keys":1,"block":2,"trial":121,"stimulus":2,"robot":1,"valence":"win","action":"go","sham":0,"trial_type":"pit-trial","trial_index":154,"time_elapsed":836286,"internal_node_id":"0.0-129.0","task_version":"battery-v0.2-trt"},{"rune":"B","rune_set":"bacs2","hex":"#f73b6a7A","correct":-1,"choice":32,"rt":601,"accuracy":0,"outcome":"-1","keys":[2103],"total_keys":1,"block":2,"trial":122,"stimulus":1,"robot":4,"valence":"lose","action":"no-go","sham":1,"trial_type":"pit-trial","trial_index":155,"time_elapsed":839595,"internal_node_id":"0.0-130.0","task_version":"battery-v0.2-trt"},{"rune":"V","rune_set":"bacs2","hex":"#3366ff99","correct":-1,"choice":32,"rt":589,"accuracy":0,"outcome":"+1","keys":[2091],"total_keys":1,"block":2,"trial":123,"stimulus":3,"robot":2,"valence":"win","action":"no-go","sham":0,"trial_type":"pit-trial","trial_index":156,"time_elapsed":842899,"internal_node_id":"0.0-131.0","task_version":"battery-v0.2-trt"},{"rune":"M","rune_set":"bacs2","hex":"#f73b6a7A","correct":-1,"choice":32,"rt":608,"accuracy":0,"outcome":"-10","keys":[2109],"total_keys":1,"block":2,"trial":124,"stimulus":0,"robot":4,"valence":"lose","action":"no-go","sham":0,"trial_type":"pit-trial","trial_index":157,"time_elapsed":846213,"internal_node_id":"0.0-132.0","task_version":"battery-v0.2-trt"},{"rune":"M","rune_set":"bacs2","hex":"#f73b6a7A","correct":-1,"choice":-1,"rt":-1,"accuracy":1,"outcome":"-1","keys":[],"total_keys":0,"block":2,"trial":125,"stimulus":0,"robot":4,"valence":"lose","action":"no-go","sham":0,"trial_type":"pit-trial","trial_index":158,"time_elapsed":850227,"internal_node_id":"0.0-133.0","task_version":"battery-v0.2-trt"},{"rune":"K","rune_set":"bacs2","hex":"#3366ff99","correct":32,"choice":32,"rt":325,"accuracy":1,"outcome":"+1","keys":[1826],"total_keys":1,"block":2,"trial":126,"stimulus":2,"robot":1,"valence":"win","action":"go","sham":1,"trial_type":"pit-trial","trial_index":159,"time_elapsed":853264,"internal_node_id":"0.0-134.0","task_version":"battery-v0.2-trt"},{"rune":"V","rune_set":"bacs2","hex":"#3366ff99","correct":-1,"choice":-1,"rt":-1,"accuracy":1,"outcome":"+1","keys":[],"total_keys":0,"block":2,"trial":127,"stimulus":3,"robot":2,"valence":"win","action":"no-go","sham":1,"trial_type":"pit-trial","trial_index":160,"time_elapsed":857271,"internal_node_id":"0.0-135.0","task_version":"battery-v0.2-trt"},{"rune":"B","rune_set":"bacs2","hex":"#f73b6a7A","correct":-1,"choice":32,"rt":544,"accuracy":0,"outcome":"-10","keys":[2045],"total_keys":1,"block":2,"trial":128,"stimulus":1,"robot":4,"valence":"lose","action":"no-go","sham":0,"trial_type":"pit-trial","trial_index":161,"time_elapsed":860525,"internal_node_id":"0.0-136.0","task_version":"battery-v0.2-trt"},{"rune":"V","rune_set":"bacs2","hex":"#3366ff99","correct":-1,"choice":32,"rt":540,"accuracy":0,"outcome":"+1","keys":[2044],"total_keys":1,"block":2,"trial":129,"stimulus":3,"robot":2,"valence":"win","action":"no-go","sham":0,"trial_type":"pit-trial","trial_index":162,"time_elapsed":863780,"internal_node_id":"0.0-137.0","task_version":"battery-v0.2-trt"},{"rune":"K","rune_set":"bacs2","hex":"#3366ff99","correct":32,"choice":32,"rt":299,"accuracy":1,"outcome":"+10","keys":[1800],"total_keys":1,"block":2,"trial":130,"stimulus":2,"robot":1,"valence":"win","action":"go","sham":0,"trial_type":"pit-trial","trial_index":163,"time_elapsed":866784,"internal_node_id":"0.0-138.0","task_version":"battery-v0.2-trt"},{"rune":"B","rune_set":"bacs2","hex":"#f73b6a7A","correct":-1,"choice":32,"rt":498,"accuracy":0,"outcome":"-10","keys":[2000],"total_keys":1,"block":2,"trial":131,"stimulus":1,"robot":4,"valence":"lose","action":"no-go","sham":0,"trial_type":"pit-trial","trial_index":164,"time_elapsed":869991,"internal_node_id":"0.0-139.0","task_version":"battery-v0.2-trt"},{"rune":"M","rune_set":"bacs2","hex":"#f73b6a7A","correct":-1,"choice":-1,"rt":-1,"accuracy":1,"outcome":"-1","keys":[],"total_keys":0,"block":2,"trial":132,"stimulus":0,"robot":4,"valence":"lose","action":"no-go","sham":0,"trial_type":"pit-trial","trial_index":165,"time_elapsed":873999,"internal_node_id":"0.0-140.0","task_version":"battery-v0.2-trt"},{"rune":"V","rune_set":"bacs2","hex":"#3366ff99","correct":-1,"choice":32,"rt":711,"accuracy":0,"outcome":"+1","keys":[2212],"total_keys":1,"block":2,"trial":133,"stimulus":3,"robot":2,"valence":"win","action":"no-go","sham":0,"trial_type":"pit-trial","trial_index":166,"time_elapsed":877417,"internal_node_id":"0.0-141.0","task_version":"battery-v0.2-trt"},{"rune":"K","rune_set":"bacs2","hex":"#3366ff99","correct":32,"choice":32,"rt":284,"accuracy":1,"outcome":"+10","keys":[1784],"total_keys":1,"block":2,"trial":134,"stimulus":2,"robot":1,"valence":"win","action":"go","sham":0,"trial_type":"pit-trial","trial_index":167,"time_elapsed":880411,"internal_node_id":"0.0-142.0","task_version":"battery-v0.2-trt"},{"rune":"B","rune_set":"bacs2","hex":"#f73b6a7A","correct":-1,"choice":-1,"rt":-1,"accuracy":1,"outcome":"-1","keys":[],"total_keys":0,"block":2,"trial":135,"stimulus":1,"robot":4,"valence":"lose","action":"no-go","sham":0,"trial_type":"pit-trial","trial_index":168,"time_elapsed":884422,"internal_node_id":"0.0-143.0","task_version":"battery-v0.2-trt"},{"rune":"M","rune_set":"bacs2","hex":"#f73b6a7A","correct":-1,"choice":-1,"rt":-1,"accuracy":1,"outcome":"-1","keys":[],"total_keys":0,"block":2,"trial":136,"stimulus":0,"robot":4,"valence":"lose","action":"no-go","sham":0,"trial_type":"pit-trial","trial_index":169,"time_elapsed":888436,"internal_node_id":"0.0-144.0","task_version":"battery-v0.2-trt"},{"rune":"M","rune_set":"bacs2","hex":"#f73b6a7A","correct":-1,"choice":-1,"rt":-1,"accuracy":1,"outcome":"-10","keys":[],"total_keys":0,"block":2,"trial":137,"stimulus":0,"robot":4,"valence":"lose","action":"no-go","sham":1,"trial_type":"pit-trial","trial_index":170,"time_elapsed":892448,"internal_node_id":"0.0-145.0","task_version":"battery-v0.2-trt"},{"rune":"K","rune_set":"bacs2","hex":"#3366ff99","correct":32,"choice":32,"rt":375,"accuracy":1,"outcome":"+1","keys":[1878],"total_keys":1,"block":2,"trial":138,"stimulus":2,"robot":1,"valence":"win","action":"go","sham":1,"trial_type":"pit-trial","trial_index":171,"time_elapsed":895533,"internal_node_id":"0.0-146.0","task_version":"battery-v0.2-trt"},{"rune":"V","rune_set":"bacs2","hex":"#3366ff99","correct":-1,"choice":-1,"rt":-1,"accuracy":1,"outcome":"+10","keys":[],"total_keys":0,"block":2,"trial":139,"stimulus":3,"robot":2,"valence":"win","action":"no-go","sham":0,"trial_type":"pit-trial","trial_index":172,"time_elapsed":899549,"internal_node_id":"0.0-147.0","task_version":"battery-v0.2-trt"},{"rune":"B","rune_set":"bacs2","hex":"#f73b6a7A","correct":-1,"choice":-1,"rt":-1,"accuracy":1,"outcome":"-1","keys":[],"total_keys":0,"block":2,"trial":140,"stimulus":1,"robot":4,"valence":"lose","action":"no-go","sham":0,"trial_type":"pit-trial","trial_index":173,"time_elapsed":903564,"internal_node_id":"0.0-148.0","task_version":"battery-v0.2-trt"},{"rune":"M","rune_set":"bacs2","hex":"#f73b6a7A","correct":-1,"choice":32,"rt":605,"accuracy":0,"outcome":"-1","keys":[2105],"total_keys":1,"block":2,"trial":141,"stimulus":0,"robot":4,"valence":"lose","action":"no-go","sham":1,"trial_type":"pit-trial","trial_index":174,"time_elapsed":906877,"internal_node_id":"0.0-149.0","task_version":"battery-v0.2-trt"},{"rune":"K","rune_set":"bacs2","hex":"#3366ff99","correct":32,"choice":32,"rt":313,"accuracy":1,"outcome":"+10","keys":[1814],"total_keys":1,"block":2,"trial":142,"stimulus":2,"robot":1,"valence":"win","action":"go","sham":0,"trial_type":"pit-trial","trial_index":175,"time_elapsed":909896,"internal_node_id":"0.0-150.0","task_version":"battery-v0.2-trt"},{"rune":"V","rune_set":"bacs2","hex":"#3366ff99","correct":-1,"choice":-1,"rt":-1,"accuracy":1,"outcome":"+10","keys":[],"total_keys":0,"block":2,"trial":143,"stimulus":3,"robot":2,"valence":"win","action":"no-go","sham":0,"trial_type":"pit-trial","trial_index":176,"time_elapsed":913907,"internal_node_id":"0.0-151.0","task_version":"battery-v0.2-trt"},{"rune":"B","rune_set":"bacs2","hex":"#f73b6a7A","correct":-1,"choice":-1,"rt":-1,"accuracy":1,"outcome":"-1","keys":[],"total_keys":0,"block":2,"trial":144,"stimulus":1,"robot":4,"valence":"lose","action":"no-go","sham":0,"trial_type":"pit-trial","trial_index":177,"time_elapsed":917918,"internal_node_id":"0.0-152.0","task_version":"battery-v0.2-trt"},{"rune":"V","rune_set":"bacs2","hex":"#3366ff99","correct":-1,"choice":32,"rt":450,"accuracy":0,"outcome":"+10","keys":[1953],"total_keys":1,"block":2,"trial":145,"stimulus":3,"robot":2,"valence":"win","action":"no-go","sham":1,"trial_type":"pit-trial","trial_index":178,"time_elapsed":921076,"internal_node_id":"0.0-153.0","task_version":"battery-v0.2-trt"},{"rune":"M","rune_set":"bacs2","hex":"#f73b6a7A","correct":-1,"choice":-1,"rt":-1,"accuracy":1,"outcome":"-1","keys":[],"total_keys":0,"block":2,"trial":146,"stimulus":0,"robot":4,"valence":"lose","action":"no-go","sham":0,"trial_type":"pit-trial","trial_index":179,"time_elapsed":925085,"internal_node_id":"0.0-154.0","task_version":"battery-v0.2-trt"},{"rune":"K","rune_set":"bacs2","hex":"#3366ff99","correct":32,"choice":32,"rt":355,"accuracy":1,"outcome":"+10","keys":[1857],"total_keys":1,"block":2,"trial":147,"stimulus":2,"robot":1,"valence":"win","action":"go","sham":0,"trial_type":"pit-trial","trial_index":180,"time_elapsed":928148,"internal_node_id":"0.0-155.0","task_version":"battery-v0.2-trt"},{"rune":"B","rune_set":"bacs2","hex":"#f73b6a7A","correct":-1,"choice":32,"rt":583,"accuracy":0,"outcome":"-10","keys":[2083],"total_keys":1,"block":2,"trial":148,"stimulus":1,"robot":4,"valence":"lose","action":"no-go","sham":0,"trial_type":"pit-trial","trial_index":181,"time_elapsed":931438,"internal_node_id":"0.0-156.0","task_version":"battery-v0.2-trt"},{"rune":"B","rune_set":"bacs2","hex":"#f73b6a7A","correct":-1,"choice":-1,"rt":-1,"accuracy":1,"outcome":"-10","keys":[],"total_keys":0,"block":2,"trial":149,"stimulus":1,"robot":4,"valence":"lose","action":"no-go","sham":1,"trial_type":"pit-trial","trial_index":182,"time_elapsed":935448,"internal_node_id":"0.0-157.0","task_version":"battery-v0.2-trt"},{"rune":"K","rune_set":"bacs2","hex":"#3366ff99","correct":32,"choice":32,"rt":464,"accuracy":1,"outcome":"+10","keys":[1963],"total_keys":1,"block":2,"trial":150,"stimulus":2,"robot":1,"valence":"win","action":"go","sham":0,"trial_type":"pit-trial","trial_index":183,"time_elapsed":938619,"internal_node_id":"0.0-158.0","task_version":"battery-v0.2-trt"},{"rune":"M","rune_set":"bacs2","hex":"#f73b6a7A","correct":-1,"choice":32,"rt":705,"accuracy":0,"outcome":"-10","keys":[2207],"total_keys":1,"block":2,"trial":151,"stimulus":0,"robot":4,"valence":"lose","action":"no-go","sham":0,"trial_type":"pit-trial","trial_index":184,"time_elapsed":942033,"internal_node_id":"0.0-159.0","task_version":"battery-v0.2-trt"},{"rune":"V","rune_set":"bacs2","hex":"#3366ff99","correct":-1,"choice":-1,"rt":-1,"accuracy":1,"outcome":"+10","keys":[],"total_keys":0,"block":2,"trial":152,"stimulus":3,"robot":2,"valence":"win","action":"no-go","sham":0,"trial_type":"pit-trial","trial_index":185,"time_elapsed":946041,"internal_node_id":"0.0-160.0","task_version":"battery-v0.2-trt"},{"rune":"R","rune_set":"bacs2","hex":"#f73b6a7A","correct":32,"choice":-1,"rt":-1,"accuracy":0,"outcome":"-10","keys":[],"total_keys":0,"block":2,"trial":153,"stimulus":4,"robot":3,"valence":"lose","action":"go","sham":0,"trial_type":"pit-trial","trial_index":186,"time_elapsed":950053,"internal_node_id":"0.0-161.0","task_version":"battery-v0.2-trt"},{"rune":"K","rune_set":"bacs2","hex":"#3366ff99","correct":32,"choice":32,"rt":499,"accuracy":1,"outcome":"+10","keys":[1999],"total_keys":1,"block":2,"trial":154,"stimulus":2,"robot":1,"valence":"win","action":"go","sham":0,"trial_type":"pit-trial","trial_index":187,"time_elapsed":953262,"internal_node_id":"0.0-162.0","task_version":"battery-v0.2-trt"},{"rune":"M","rune_set":"bacs2","hex":"#f73b6a7A","correct":-1,"choice":-1,"rt":-1,"accuracy":1,"outcome":"-1","keys":[],"total_keys":0,"block":2,"trial":155,"stimulus":0,"robot":4,"valence":"lose","action":"no-go","sham":0,"trial_type":"pit-trial","trial_index":188,"time_elapsed":957275,"internal_node_id":"0.0-163.0","task_version":"battery-v0.2-trt"},{"rune":"V","rune_set":"bacs2","hex":"#3366ff99","correct":-1,"choice":-1,"rt":-1,"accuracy":1,"outcome":"+1","keys":[],"total_keys":0,"block":2,"trial":156,"stimulus":3,"robot":2,"valence":"win","action":"no-go","sham":1,"trial_type":"pit-trial","trial_index":189,"time_elapsed":961284,"internal_node_id":"0.0-164.0","task_version":"battery-v0.2-trt"},{"rune":"K","rune_set":"bacs2","hex":"#3366ff99","correct":32,"choice":32,"rt":492,"accuracy":1,"outcome":"+10","keys":[1992],"total_keys":1,"block":2,"trial":157,"stimulus":2,"robot":1,"valence":"win","action":"go","sham":0,"trial_type":"pit-trial","trial_index":190,"time_elapsed":964487,"internal_node_id":"0.0-165.0","task_version":"battery-v0.2-trt"},{"rune":"R","rune_set":"bacs2","hex":"#f73b6a7A","correct":32,"choice":32,"rt":544,"accuracy":1,"outcome":"-10","keys":[2050],"total_keys":1,"block":2,"trial":158,"stimulus":4,"robot":3,"valence":"lose","action":"go","sham":1,"trial_type":"pit-trial","trial_index":191,"time_elapsed":967749,"internal_node_id":"0.0-166.0","task_version":"battery-v0.2-trt"},{"rune":"M","rune_set":"bacs2","hex":"#f73b6a7A","correct":-1,"choice":-1,"rt":-1,"accuracy":1,"outcome":"-10","keys":[],"total_keys":0,"block":2,"trial":159,"stimulus":0,"robot":4,"valence":"lose","action":"no-go","sham":1,"trial_type":"pit-trial","trial_index":192,"time_elapsed":971755,"internal_node_id":"0.0-167.0","task_version":"battery-v0.2-trt"},{"rune":"V","rune_set":"bacs2","hex":"#3366ff99","correct":-1,"choice":-1,"rt":-1,"accuracy":1,"outcome":"+10","keys":[],"total_keys":0,"block":2,"trial":160,"stimulus":3,"robot":2,"valence":"win","action":"no-go","sham":0,"trial_type":"pit-trial","trial_index":193,"time_elapsed":975768,"internal_node_id":"0.0-168.0","task_version":"battery-v0.2-trt"},{"rune":"L","rune_set":"bacs2","hex":"#3366ff99","correct":32,"choice":-1,"rt":-1,"accuracy":0,"outcome":"+1","keys":[],"total_keys":0,"block":2,"trial":161,"stimulus":6,"robot":1,"valence":"win","action":"go","sham":0,"trial_type":"pit-trial","trial_index":194,"time_elapsed":979778,"internal_node_id":"0.0-169.0","task_version":"battery-v0.2-trt"},{"rune":"R","rune_set":"bacs2","hex":"#f73b6a7A","correct":32,"choice":-1,"rt":-1,"accuracy":0,"outcome":"-10","keys":[],"total_keys":0,"block":2,"trial":162,"stimulus":4,"robot":3,"valence":"lose","action":"go","sham":0,"trial_type":"pit-trial","trial_index":195,"time_elapsed":983787,"internal_node_id":"0.0-170.0","task_version":"battery-v0.2-trt"},{"rune":"P","rune_set":"bacs2","hex":"#3366ff99","correct":-1,"choice":32,"rt":711,"accuracy":0,"outcome":"+1","keys":[2213],"total_keys":1,"block":2,"trial":163,"stimulus":5,"robot":2,"valence":"win","action":"no-go","sham":0,"trial_type":"pit-trial","trial_index":196,"time_elapsed":987205,"internal_node_id":"0.0-171.0","task_version":"battery-v0.2-trt"},{"rune":"M","rune_set":"bacs2","hex":"#f73b6a7A","correct":-1,"choice":32,"rt":975,"accuracy":0,"outcome":"-10","keys":[2475],"total_keys":1,"block":2,"trial":164,"stimulus":0,"robot":4,"valence":"lose","action":"no-go","sham":0,"trial_type":"pit-trial","trial_index":197,"time_elapsed":990888,"internal_node_id":"0.0-172.0","task_version":"battery-v0.2-trt"},{"rune":"M","rune_set":"bacs2","hex":"#f73b6a7A","correct":-1,"choice":-1,"rt":-1,"accuracy":1,"outcome":"-1","keys":[],"total_keys":0,"block":2,"trial":165,"stimulus":0,"robot":4,"valence":"lose","action":"no-go","sham":0,"trial_type":"pit-trial","trial_index":198,"time_elapsed":994899,"internal_node_id":"0.0-173.0","task_version":"battery-v0.2-trt"},{"rune":"P","rune_set":"bacs2","hex":"#3366ff99","correct":-1,"choice":32,"rt":574,"accuracy":0,"outcome":"+1","keys":[2075],"total_keys":1,"block":2,"trial":166,"stimulus":5,"robot":2,"valence":"win","action":"no-go","sham":0,"trial_type":"pit-trial","trial_index":199,"time_elapsed":998180,"internal_node_id":"0.0-174.0","task_version":"battery-v0.2-trt"},{"rune":"R","rune_set":"bacs2","hex":"#f73b6a7A","correct":32,"choice":32,"rt":925,"accuracy":1,"outcome":"-1","keys":[2429],"total_keys":1,"block":2,"trial":167,"stimulus":4,"robot":3,"valence":"lose","action":"go","sham":0,"trial_type":"pit-trial","trial_index":200,"time_elapsed":1001820,"internal_node_id":"0.0-175.0","task_version":"battery-v0.2-trt"},{"rune":"L","rune_set":"bacs2","hex":"#3366ff99","correct":32,"choice":32,"rt":993,"accuracy":1,"outcome":"+10","keys":[2494],"total_keys":1,"block":2,"trial":168,"stimulus":6,"robot":1,"valence":"win","action":"go","sham":0,"trial_type":"pit-trial","trial_index":201,"time_elapsed":1005521,"internal_node_id":"0.0-176.0","task_version":"battery-v0.2-trt"},{"rune":"P","rune_set":"bacs2","hex":"#3366ff99","correct":-1,"choice":32,"rt":602,"accuracy":0,"outcome":"+10","keys":[2103],"total_keys":1,"block":2,"trial":169,"stimulus":5,"robot":2,"valence":"win","action":"no-go","sham":1,"trial_type":"pit-trial","trial_index":202,"time_elapsed":1008829,"internal_node_id":"0.0-177.0","task_version":"battery-v0.2-trt"},{"rune":"S","rune_set":"bacs2","hex":"#f73b6a7A","correct":-1,"choice":32,"rt":637,"accuracy":0,"outcome":"-1","keys":[2138],"total_keys":1,"block":2,"trial":170,"stimulus":7,"robot":4,"valence":"lose","action":"no-go","sham":1,"trial_type":"pit-trial","trial_index":203,"time_elapsed":1012172,"internal_node_id":"0.0-178.0","task_version":"battery-v0.2-trt"},{"rune":"R","rune_set":"bacs2","hex":"#f73b6a7A","correct":32,"choice":32,"rt":490,"accuracy":1,"outcome":"-10","keys":[1990],"total_keys":1,"block":2,"trial":171,"stimulus":4,"robot":3,"valence":"lose","action":"go","sham":1,"trial_type":"pit-trial","trial_index":204,"time_elapsed":1015370,"internal_node_id":"0.0-179.0","task_version":"battery-v0.2-trt"},{"rune":"L","rune_set":"bacs2","hex":"#3366ff99","correct":32,"choice":32,"rt":547,"accuracy":1,"outcome":"+10","keys":[2048],"total_keys":1,"block":2,"trial":172,"stimulus":6,"robot":1,"valence":"win","action":"go","sham":0,"trial_type":"pit-trial","trial_index":205,"time_elapsed":1018626,"internal_node_id":"0.0-180.0","task_version":"battery-v0.2-trt"},{"rune":"S","rune_set":"bacs2","hex":"#f73b6a7A","correct":-1,"choice":-1,"rt":-1,"accuracy":1,"outcome":"-1","keys":[],"total_keys":0,"block":2,"trial":173,"stimulus":7,"robot":4,"valence":"lose","action":"no-go","sham":0,"trial_type":"pit-trial","trial_index":206,"time_elapsed":1022634,"internal_node_id":"0.0-181.0","task_version":"battery-v0.2-trt"},{"rune":"P","rune_set":"bacs2","hex":"#3366ff99","correct":-1,"choice":32,"rt":343,"accuracy":0,"outcome":"+1","keys":[1844],"total_keys":1,"block":2,"trial":174,"stimulus":5,"robot":2,"valence":"win","action":"no-go","sham":0,"trial_type":"pit-trial","trial_index":207,"time_elapsed":1025685,"internal_node_id":"0.0-182.0","task_version":"battery-v0.2-trt"},{"rune":"R","rune_set":"bacs2","hex":"#f73b6a7A","correct":32,"choice":32,"rt":730,"accuracy":1,"outcome":"-1","keys":[2232],"total_keys":1,"block":2,"trial":175,"stimulus":4,"robot":3,"valence":"lose","action":"go","sham":0,"trial_type":"pit-trial","trial_index":208,"time_elapsed":1029122,"internal_node_id":"0.0-183.0","task_version":"battery-v0.2-trt"},{"rune":"L","rune_set":"bacs2","hex":"#3366ff99","correct":32,"choice":32,"rt":351,"accuracy":1,"outcome":"+10","keys":[1851],"total_keys":1,"block":2,"trial":176,"stimulus":6,"robot":1,"valence":"win","action":"go","sham":0,"trial_type":"pit-trial","trial_index":209,"time_elapsed":1032180,"internal_node_id":"0.0-184.0","task_version":"battery-v0.2-trt"},{"rune":"S","rune_set":"bacs2","hex":"#f73b6a7A","correct":-1,"choice":32,"rt":545,"accuracy":0,"outcome":"-10","keys":[2046],"total_keys":1,"block":2,"trial":177,"stimulus":7,"robot":4,"valence":"lose","action":"no-go","sham":0,"trial_type":"pit-trial","trial_index":210,"time_elapsed":1035435,"internal_node_id":"0.0-185.0","task_version":"battery-v0.2-trt"},{"rune":"R","rune_set":"bacs2","hex":"#f73b6a7A","correct":32,"choice":32,"rt":504,"accuracy":1,"outcome":"-1","keys":[2005],"total_keys":1,"block":2,"trial":178,"stimulus":4,"robot":3,"valence":"lose","action":"go","sham":0,"trial_type":"pit-trial","trial_index":211,"time_elapsed":1038643,"internal_node_id":"0.0-186.0","task_version":"battery-v0.2-trt"},{"rune":"L","rune_set":"bacs2","hex":"#3366ff99","correct":32,"choice":32,"rt":449,"accuracy":1,"outcome":"+1","keys":[1953],"total_keys":1,"block":2,"trial":179,"stimulus":6,"robot":1,"valence":"win","action":"go","sham":1,"trial_type":"pit-trial","trial_index":212,"time_elapsed":1041802,"internal_node_id":"0.0-187.0","task_version":"battery-v0.2-trt"},{"rune":"P","rune_set":"bacs2","hex":"#3366ff99","correct":-1,"choice":32,"rt":336,"accuracy":0,"outcome":"+1","keys":[1841],"total_keys":1,"block":2,"trial":180,"stimulus":5,"robot":2,"valence":"win","action":"no-go","sham":0,"trial_type":"pit-trial","trial_index":213,"time_elapsed":1044849,"internal_node_id":"0.0-188.0","task_version":"battery-v0.2-trt"},{"rune":"S","rune_set":"bacs2","hex":"#f73b6a7A","correct":-1,"choice":32,"rt":584,"accuracy":0,"outcome":"-1","keys":[2085],"total_keys":1,"block":2,"trial":181,"stimulus":7,"robot":4,"valence":"lose","action":"no-go","sham":1,"trial_type":"pit-trial","trial_index":214,"time_elapsed":1048143,"internal_node_id":"0.0-189.0","task_version":"battery-v0.2-trt"},{"rune":"L","rune_set":"bacs2","hex":"#3366ff99","correct":32,"choice":32,"rt":524,"accuracy":1,"outcome":"+1","keys":[2027],"total_keys":1,"block":2,"trial":182,"stimulus":6,"robot":1,"valence":"win","action":"go","sham":1,"trial_type":"pit-trial","trial_index":215,"time_elapsed":1051379,"internal_node_id":"0.0-190.0","task_version":"battery-v0.2-trt"},{"rune":"P","rune_set":"bacs2","hex":"#3366ff99","correct":-1,"choice":32,"rt":505,"accuracy":0,"outcome":"+1","keys":[2006],"total_keys":1,"block":2,"trial":183,"stimulus":5,"robot":2,"valence":"win","action":"no-go","sham":0,"trial_type":"pit-trial","trial_index":216,"time_elapsed":1054589,"internal_node_id":"0.0-191.0","task_version":"battery-v0.2-trt"},{"rune":"R","rune_set":"bacs2","hex":"#f73b6a7A","correct":32,"choice":-1,"rt":-1,"accuracy":0,"outcome":"-10","keys":[],"total_keys":0,"block":2,"trial":184,"stimulus":4,"robot":3,"valence":"lose","action":"go","sham":0,"trial_type":"pit-trial","trial_index":217,"time_elapsed":1058597,"internal_node_id":"0.0-192.0","task_version":"battery-v0.2-trt"},{"rune":"S","rune_set":"bacs2","hex":"#f73b6a7A","correct":-1,"choice":32,"rt":809,"accuracy":0,"outcome":"-10","keys":[2311],"total_keys":1,"block":2,"trial":185,"stimulus":7,"robot":4,"valence":"lose","action":"no-go","sham":0,"trial_type":"pit-trial","trial_index":218,"time_elapsed":1062117,"internal_node_id":"0.0-193.0","task_version":"battery-v0.2-trt"},{"rune":"L","rune_set":"bacs2","hex":"#3366ff99","correct":32,"choice":-1,"rt":-1,"accuracy":0,"outcome":"+1","keys":[],"total_keys":0,"block":2,"trial":186,"stimulus":6,"robot":1,"valence":"win","action":"go","sham":0,"trial_type":"pit-trial","trial_index":219,"time_elapsed":1066130,"internal_node_id":"0.0-194.0","task_version":"battery-v0.2-trt"},{"rune":"P","rune_set":"bacs2","hex":"#3366ff99","correct":-1,"choice":32,"rt":534,"accuracy":0,"outcome":"+1","keys":[2036],"total_keys":1,"block":2,"trial":187,"stimulus":5,"robot":2,"valence":"win","action":"no-go","sham":0,"trial_type":"pit-trial","trial_index":220,"time_elapsed":1069378,"internal_node_id":"0.0-195.0","task_version":"battery-v0.2-trt"},{"rune":"R","rune_set":"bacs2","hex":"#f73b6a7A","correct":32,"choice":32,"rt":808,"accuracy":1,"outcome":"-1","keys":[2309],"total_keys":1,"block":2,"trial":188,"stimulus":4,"robot":3,"valence":"lose","action":"go","sham":0,"trial_type":"pit-trial","trial_index":221,"time_elapsed":1072893,"internal_node_id":"0.0-196.0","task_version":"battery-v0.2-trt"},{"rune":"L","rune_set":"bacs2","hex":"#3366ff99","correct":32,"choice":-1,"rt":-1,"accuracy":0,"outcome":"+1","keys":[],"total_keys":0,"block":2,"trial":189,"stimulus":6,"robot":1,"valence":"win","action":"go","sham":0,"trial_type":"pit-trial","trial_index":222,"time_elapsed":1076898,"internal_node_id":"0.0-197.0","task_version":"battery-v0.2-trt"},{"rune":"S","rune_set":"bacs2","hex":"#f73b6a7A","correct":-1,"choice":32,"rt":913,"accuracy":0,"outcome":"-10","keys":[2414],"total_keys":1,"block":2,"trial":190,"stimulus":7,"robot":4,"valence":"lose","action":"no-go","sham":0,"trial_type":"pit-trial","trial_index":223,"time_elapsed":1080517,"internal_node_id":"0.0-198.0","task_version":"battery-v0.2-trt"},{"rune":"R","rune_set":"bacs2","hex":"#f73b6a7A","correct":32,"choice":32,"rt":508,"accuracy":1,"outcome":"-10","keys":[2010],"total_keys":1,"block":2,"trial":191,"stimulus":4,"robot":3,"valence":"lose","action":"go","sham":1,"trial_type":"pit-trial","trial_index":224,"time_elapsed":1083732,"internal_node_id":"0.0-199.0","task_version":"battery-v0.2-trt"},{"rune":"P","rune_set":"bacs2","hex":"#3366ff99","correct":-1,"choice":32,"rt":486,"accuracy":0,"outcome":"+1","keys":[1986],"total_keys":1,"block":2,"trial":192,"stimulus":5,"robot":2,"valence":"win","action":"no-go","sham":0,"trial_type":"pit-trial","trial_index":225,"time_elapsed":1086924,"internal_node_id":"0.0-200.0","task_version":"battery-v0.2-trt"},{"rune":"P","rune_set":"bacs2","hex":"#3366ff99","correct":-1,"choice":-1,"rt":-1,"accuracy":1,"outcome":"+10","keys":[],"total_keys":0,"block":2,"trial":193,"stimulus":5,"robot":2,"valence":"win","action":"no-go","sham":0,"trial_type":"pit-trial","trial_index":226,"time_elapsed":1090934,"internal_node_id":"0.0-201.0","task_version":"battery-v0.2-trt"},{"rune":"S","rune_set":"bacs2","hex":"#f73b6a7A","correct":-1,"choice":-1,"rt":-1,"accuracy":1,"outcome":"-1","keys":[],"total_keys":0,"block":2,"trial":194,"stimulus":7,"robot":4,"valence":"lose","action":"no-go","sham":0,"trial_type":"pit-trial","trial_index":227,"time_elapsed":1094946,"internal_node_id":"0.0-202.0","task_version":"battery-v0.2-trt"},{"rune":"U","rune_set":"bacs2","hex":"#3366ff99","correct":32,"choice":32,"rt":533,"accuracy":1,"outcome":"+1","keys":[2034],"total_keys":1,"block":2,"trial":195,"stimulus":8,"robot":1,"valence":"win","action":"go","sham":1,"trial_type":"pit-trial","trial_index":228,"time_elapsed":1098186,"internal_node_id":"0.0-203.0","task_version":"battery-v0.2-trt"},{"rune":"A","rune_set":"bacs2","hex":"#f73b6a7A","correct":32,"choice":-1,"rt":-1,"accuracy":0,"outcome":"-10","keys":[],"total_keys":0,"block":2,"trial":196,"stimulus":9,"robot":3,"valence":"lose","action":"go","sham":0,"trial_type":"pit-trial","trial_index":229,"time_elapsed":1102199,"internal_node_id":"0.0-204.0","task_version":"battery-v0.2-trt"},{"rune":"P","rune_set":"bacs2","hex":"#3366ff99","correct":-1,"choice":-1,"rt":-1,"accuracy":1,"outcome":"+10","keys":[],"total_keys":0,"block":2,"trial":197,"stimulus":5,"robot":2,"valence":"win","action":"no-go","sham":0,"trial_type":"pit-trial","trial_index":230,"time_elapsed":1106210,"internal_node_id":"0.0-205.0","task_version":"battery-v0.2-trt"},{"rune":"A","rune_set":"bacs2","hex":"#f73b6a7A","correct":32,"choice":32,"rt":622,"accuracy":1,"outcome":"-10","keys":[2123],"total_keys":1,"block":2,"trial":198,"stimulus":9,"robot":3,"valence":"lose","action":"go","sham":1,"trial_type":"pit-trial","trial_index":231,"time_elapsed":1109539,"internal_node_id":"0.0-206.0","task_version":"battery-v0.2-trt"},{"rune":"S","rune_set":"bacs2","hex":"#f73b6a7A","correct":-1,"choice":-1,"rt":-1,"accuracy":1,"outcome":"-1","keys":[],"total_keys":0,"block":2,"trial":199,"stimulus":7,"robot":4,"valence":"lose","action":"no-go","sham":0,"trial_type":"pit-trial","trial_index":232,"time_elapsed":1113546,"internal_node_id":"0.0-207.0","task_version":"battery-v0.2-trt"},{"rune":"U","rune_set":"bacs2","hex":"#3366ff99","correct":32,"choice":32,"rt":551,"accuracy":1,"outcome":"+10","keys":[2051],"total_keys":1,"block":2,"trial":200,"stimulus":8,"robot":1,"valence":"win","action":"go","sham":0,"trial_type":"pit-trial","trial_index":233,"time_elapsed":1116804,"internal_node_id":"0.0-208.0","task_version":"battery-v0.2-trt"},{"rune":"P","rune_set":"bacs2","hex":"#3366ff99","correct":-1,"choice":-1,"rt":-1,"accuracy":1,"outcome":"+10","keys":[],"total_keys":0,"block":2,"trial":201,"stimulus":5,"robot":2,"valence":"win","action":"no-go","sham":0,"trial_type":"pit-trial","trial_index":234,"time_elapsed":1120815,"internal_node_id":"0.0-209.0","task_version":"battery-v0.2-trt"},{"rune":"A","rune_set":"bacs2","hex":"#f73b6a7A","correct":32,"choice":32,"rt":728,"accuracy":1,"outcome":"-1","keys":[2229],"total_keys":1,"block":2,"trial":202,"stimulus":9,"robot":3,"valence":"lose","action":"go","sham":0,"trial_type":"pit-trial","trial_index":235,"time_elapsed":1124251,"internal_node_id":"0.0-210.0","task_version":"battery-v0.2-trt"},{"rune":"S","rune_set":"bacs2","hex":"#f73b6a7A","correct":-1,"choice":-1,"rt":-1,"accuracy":1,"outcome":"-1","keys":[],"total_keys":0,"block":2,"trial":203,"stimulus":7,"robot":4,"valence":"lose","action":"no-go","sham":0,"trial_type":"pit-trial","trial_index":236,"time_elapsed":1128262,"internal_node_id":"0.0-211.0","task_version":"battery-v0.2-trt"},{"rune":"U","rune_set":"bacs2","hex":"#3366ff99","correct":32,"choice":32,"rt":603,"accuracy":1,"outcome":"+10","keys":[2106],"total_keys":1,"block":2,"trial":204,"stimulus":8,"robot":1,"valence":"win","action":"go","sham":0,"trial_type":"pit-trial","trial_index":237,"time_elapsed":1131578,"internal_node_id":"0.0-212.0","task_version":"battery-v0.2-trt"},{"rune":"U","rune_set":"bacs2","hex":"#3366ff99","correct":32,"choice":32,"rt":618,"accuracy":1,"outcome":"+10","keys":[2118],"total_keys":1,"block":2,"trial":205,"stimulus":8,"robot":1,"valence":"win","action":"go","sham":0,"trial_type":"pit-trial","trial_index":238,"time_elapsed":1134903,"internal_node_id":"0.0-213.0","task_version":"battery-v0.2-trt"},{"rune":"A","rune_set":"bacs2","hex":"#f73b6a7A","correct":32,"choice":32,"rt":587,"accuracy":1,"outcome":"-1","keys":[2088],"total_keys":1,"block":2,"trial":206,"stimulus":9,"robot":3,"valence":"lose","action":"go","sham":0,"trial_type":"pit-trial","trial_index":239,"time_elapsed":1138200,"internal_node_id":"0.0-214.0","task_version":"battery-v0.2-trt"},{"rune":"S","rune_set":"bacs2","hex":"#f73b6a7A","correct":-1,"choice":-1,"rt":-1,"accuracy":1,"outcome":"-1","keys":[],"total_keys":0,"block":2,"trial":207,"stimulus":7,"robot":4,"valence":"lose","action":"no-go","sham":0,"trial_type":"pit-trial","trial_index":240,"time_elapsed":1142206,"internal_node_id":"0.0-215.0","task_version":"battery-v0.2-trt"},{"rune":"P","rune_set":"bacs2","hex":"#3366ff99","correct":-1,"choice":32,"rt":576,"accuracy":0,"outcome":"+10","keys":[2075],"total_keys":1,"block":2,"trial":208,"stimulus":5,"robot":2,"valence":"win","action":"no-go","sham":1,"trial_type":"pit-trial","trial_index":241,"time_elapsed":1145492,"internal_node_id":"0.0-216.0","task_version":"battery-v0.2-trt"},{"rune":"F","rune_set":"bacs2","hex":"#f73b6a7A","correct":32,"choice":32,"rt":750,"accuracy":1,"outcome":"-1","keys":[2252],"total_keys":1,"block":2,"trial":209,"stimulus":10,"robot":3,"valence":"lose","action":"go","sham":0,"trial_type":"pit-trial","trial_index":242,"time_elapsed":1148951,"internal_node_id":"0.0-217.0","task_version":"battery-v0.2-trt"},{"rune":"N","rune_set":"bacs2","hex":"#3366ff99","correct":-1,"choice":32,"rt":628,"accuracy":0,"outcome":"+1","keys":[2129],"total_keys":1,"block":2,"trial":210,"stimulus":11,"robot":2,"valence":"win","action":"no-go","sham":0,"trial_type":"pit-trial","trial_index":243,"time_elapsed":1152286,"internal_node_id":"0.0-218.0","task_version":"battery-v0.2-trt"},{"rune":"A","rune_set":"bacs2","hex":"#f73b6a7A","correct":32,"choice":-1,"rt":-1,"accuracy":0,"outcome":"-10","keys":[],"total_keys":0,"block":2,"trial":211,"stimulus":9,"robot":3,"valence":"lose","action":"go","sham":0,"trial_type":"pit-trial","trial_index":244,"time_elapsed":1156294,"internal_node_id":"0.0-219.0","task_version":"battery-v0.2-trt"},{"rune":"U","rune_set":"bacs2","hex":"#3366ff99","correct":32,"choice":32,"rt":494,"accuracy":1,"outcome":"+1","keys":[1994],"total_keys":1,"block":2,"trial":212,"stimulus":8,"robot":1,"valence":"win","action":"go","sham":1,"trial_type":"pit-trial","trial_index":245,"time_elapsed":1159493,"internal_node_id":"0.0-220.0","task_version":"battery-v0.2-trt"},{"rune":"A","rune_set":"bacs2","hex":"#f73b6a7A","correct":32,"choice":-1,"rt":-1,"accuracy":0,"outcome":"-10","keys":[],"total_keys":0,"block":2,"trial":213,"stimulus":9,"robot":3,"valence":"lose","action":"go","sham":0,"trial_type":"pit-trial","trial_index":246,"time_elapsed":1163509,"internal_node_id":"0.0-221.0","task_version":"battery-v0.2-trt"},{"rune":"U","rune_set":"bacs2","hex":"#3366ff99","correct":32,"choice":32,"rt":369,"accuracy":1,"outcome":"+10","keys":[1872],"total_keys":1,"block":2,"trial":214,"stimulus":8,"robot":1,"valence":"win","action":"go","sham":0,"trial_type":"pit-trial","trial_index":247,"time_elapsed":1166589,"internal_node_id":"0.0-222.0","task_version":"battery-v0.2-trt"},{"rune":"N","rune_set":"bacs2","hex":"#3366ff99","correct":-1,"choice":32,"rt":533,"accuracy":0,"outcome":"+1","keys":[2035],"total_keys":1,"block":2,"trial":215,"stimulus":11,"robot":2,"valence":"win","action":"no-go","sham":0,"trial_type":"pit-trial","trial_index":248,"time_elapsed":1169831,"internal_node_id":"0.0-223.0","task_version":"battery-v0.2-trt"},{"rune":"F","rune_set":"bacs2","hex":"#f73b6a7A","correct":32,"choice":-1,"rt":-1,"accuracy":0,"outcome":"-1","keys":[],"total_keys":0,"block":2,"trial":216,"stimulus":10,"robot":3,"valence":"lose","action":"go","sham":1,"trial_type":"pit-trial","trial_index":249,"time_elapsed":1173842,"internal_node_id":"0.0-224.0","task_version":"battery-v0.2-trt"},{"rune":"F","rune_set":"bacs2","hex":"#f73b6a7A","correct":32,"choice":-1,"rt":-1,"accuracy":0,"outcome":"-10","keys":[],"total_keys":0,"block":2,"trial":217,"stimulus":10,"robot":3,"valence":"lose","action":"go","sham":0,"trial_type":"pit-trial","trial_index":250,"time_elapsed":1177858,"internal_node_id":"0.0-225.0","task_version":"battery-v0.2-trt"},{"rune":"U","rune_set":"bacs2","hex":"#3366ff99","correct":32,"choice":32,"rt":446,"accuracy":1,"outcome":"+10","keys":[1947],"total_keys":1,"block":2,"trial":218,"stimulus":8,"robot":1,"valence":"win","action":"go","sham":0,"trial_type":"pit-trial","trial_index":251,"time_elapsed":1181011,"internal_node_id":"0.0-226.0","task_version":"battery-v0.2-trt"},{"rune":"A","rune_set":"bacs2","hex":"#f73b6a7A","correct":32,"choice":32,"rt":516,"accuracy":1,"outcome":"-1","keys":[2017],"total_keys":1,"block":2,"trial":219,"stimulus":9,"robot":3,"valence":"lose","action":"go","sham":0,"trial_type":"pit-trial","trial_index":252,"time_elapsed":1184236,"internal_node_id":"0.0-227.0","task_version":"battery-v0.2-trt"},{"rune":"N","rune_set":"bacs2","hex":"#3366ff99","correct":-1,"choice":32,"rt":489,"accuracy":0,"outcome":"+1","keys":[1991],"total_keys":1,"block":2,"trial":220,"stimulus":11,"robot":2,"valence":"win","action":"no-go","sham":0,"trial_type":"pit-trial","trial_index":253,"time_elapsed":1187436,"internal_node_id":"0.0-228.0","task_version":"battery-v0.2-trt"},{"rune":"U","rune_set":"bacs2","hex":"#3366ff99","correct":32,"choice":32,"rt":523,"accuracy":1,"outcome":"+10","keys":[2027],"total_keys":1,"block":2,"trial":221,"stimulus":8,"robot":1,"valence":"win","action":"go","sham":0,"trial_type":"pit-trial","trial_index":254,"time_elapsed":1190671,"internal_node_id":"0.0-229.0","task_version":"battery-v0.2-trt"},{"rune":"F","rune_set":"bacs2","hex":"#f73b6a7A","correct":32,"choice":-1,"rt":-1,"accuracy":0,"outcome":"-10","keys":[],"total_keys":0,"block":2,"trial":222,"stimulus":10,"robot":3,"valence":"lose","action":"go","sham":0,"trial_type":"pit-trial","trial_index":255,"time_elapsed":1194677,"internal_node_id":"0.0-230.0","task_version":"battery-v0.2-trt"},{"rune":"N","rune_set":"bacs2","hex":"#3366ff99","correct":-1,"choice":32,"rt":695,"accuracy":0,"outcome":"+1","keys":[2201],"total_keys":1,"block":2,"trial":223,"stimulus":11,"robot":2,"valence":"win","action":"no-go","sham":0,"trial_type":"pit-trial","trial_index":256,"time_elapsed":1198088,"internal_node_id":"0.0-231.0","task_version":"battery-v0.2-trt"},{"rune":"A","rune_set":"bacs2","hex":"#f73b6a7A","correct":32,"choice":-1,"rt":-1,"accuracy":0,"outcome":"-10","keys":[],"total_keys":0,"block":2,"trial":224,"stimulus":9,"robot":3,"valence":"lose","action":"go","sham":0,"trial_type":"pit-trial","trial_index":257,"time_elapsed":1202101,"internal_node_id":"0.0-232.0","task_version":"battery-v0.2-trt"},{"rune":"F","rune_set":"bacs2","hex":"#f73b6a7A","correct":32,"choice":32,"rt":420,"accuracy":1,"outcome":"-10","keys":[1920],"total_keys":1,"block":2,"trial":225,"stimulus":10,"robot":3,"valence":"lose","action":"go","sham":1,"trial_type":"pit-trial","trial_index":258,"time_elapsed":1205227,"internal_node_id":"0.0-233.0","task_version":"battery-v0.2-trt"},{"rune":"N","rune_set":"bacs2","hex":"#3366ff99","correct":-1,"choice":32,"rt":545,"accuracy":0,"outcome":"+1","keys":[2044],"total_keys":1,"block":2,"trial":226,"stimulus":11,"robot":2,"valence":"win","action":"no-go","sham":0,"trial_type":"pit-trial","trial_index":259,"time_elapsed":1208478,"internal_node_id":"0.0-234.0","task_version":"battery-v0.2-trt"},{"rune":"U","rune_set":"bacs2","hex":"#3366ff99","correct":32,"choice":32,"rt":386,"accuracy":1,"outcome":"+10","keys":[1887],"total_keys":1,"block":2,"trial":227,"stimulus":8,"robot":1,"valence":"win","action":"go","sham":0,"trial_type":"pit-trial","trial_index":260,"time_elapsed":1211575,"internal_node_id":"0.0-235.0","task_version":"battery-v0.2-trt"},{"rune":"A","rune_set":"bacs2","hex":"#f73b6a7A","correct":32,"choice":32,"rt":523,"accuracy":1,"outcome":"-1","keys":[2026],"total_keys":1,"block":2,"trial":228,"stimulus":9,"robot":3,"valence":"lose","action":"go","sham":0,"trial_type":"pit-trial","trial_index":261,"time_elapsed":1214805,"internal_node_id":"0.0-236.0","task_version":"battery-v0.2-trt"},{"rune":"N","rune_set":"bacs2","hex":"#3366ff99","correct":-1,"choice":-1,"rt":-1,"accuracy":1,"outcome":"+10","keys":[],"total_keys":0,"block":2,"trial":229,"stimulus":11,"robot":2,"valence":"win","action":"no-go","sham":0,"trial_type":"pit-trial","trial_index":262,"time_elapsed":1218813,"internal_node_id":"0.0-237.0","task_version":"battery-v0.2-trt"},{"rune":"F","rune_set":"bacs2","hex":"#f73b6a7A","correct":32,"choice":32,"rt":531,"accuracy":1,"outcome":"-1","keys":[2030],"total_keys":1,"block":2,"trial":230,"stimulus":10,"robot":3,"valence":"lose","action":"go","sham":0,"trial_type":"pit-trial","trial_index":263,"time_elapsed":1222049,"internal_node_id":"0.0-238.0","task_version":"battery-v0.2-trt"},{"rune":"U","rune_set":"bacs2","hex":"#3366ff99","correct":32,"choice":32,"rt":479,"accuracy":1,"outcome":"+1","keys":[1980],"total_keys":1,"block":2,"trial":231,"stimulus":8,"robot":1,"valence":"win","action":"go","sham":1,"trial_type":"pit-trial","trial_index":264,"time_elapsed":1225238,"internal_node_id":"0.0-239.0","task_version":"battery-v0.2-trt"},{"rune":"A","rune_set":"bacs2","hex":"#f73b6a7A","correct":32,"choice":32,"rt":530,"accuracy":1,"outcome":"-1","keys":[2032],"total_keys":1,"block":2,"trial":232,"stimulus":9,"robot":3,"valence":"lose","action":"go","sham":0,"trial_type":"pit-trial","trial_index":265,"time_elapsed":1228482,"internal_node_id":"0.0-240.0","task_version":"battery-v0.2-trt"},{"rune":"F","rune_set":"bacs2","hex":"#f73b6a7A","correct":32,"choice":32,"rt":541,"accuracy":1,"outcome":"-1","keys":[2045],"total_keys":1,"block":2,"trial":233,"stimulus":10,"robot":3,"valence":"lose","action":"go","sham":0,"trial_type":"pit-trial","trial_index":266,"time_elapsed":1231733,"internal_node_id":"0.0-241.0","task_version":"battery-v0.2-trt"},{"rune":"U","rune_set":"bacs2","hex":"#3366ff99","correct":32,"choice":-1,"rt":-1,"accuracy":0,"outcome":"+1","keys":[],"total_keys":0,"block":2,"trial":234,"stimulus":8,"robot":1,"valence":"win","action":"go","sham":0,"trial_type":"pit-trial","trial_index":267,"time_elapsed":1235742,"internal_node_id":"0.0-242.0","task_version":"battery-v0.2-trt"},{"rune":"N","rune_set":"bacs2","hex":"#3366ff99","correct":-1,"choice":-1,"rt":-1,"accuracy":1,"outcome":"+1","keys":[],"total_keys":0,"block":2,"trial":235,"stimulus":11,"robot":2,"valence":"win","action":"no-go","sham":1,"trial_type":"pit-trial","trial_index":268,"time_elapsed":1239752,"internal_node_id":"0.0-243.0","task_version":"battery-v0.2-trt"},{"rune":"A","rune_set":"bacs2","hex":"#f73b6a7A","correct":32,"choice":32,"rt":722,"accuracy":1,"outcome":"-1","keys":[2221],"total_keys":1,"block":2,"trial":236,"stimulus":9,"robot":3,"valence":"lose","action":"go","sham":0,"trial_type":"pit-trial","trial_index":269,"time_elapsed":1243181,"internal_node_id":"0.0-244.0","task_version":"battery-v0.2-trt"},{"rune":"N","rune_set":"bacs2","hex":"#3366ff99","correct":-1,"choice":32,"rt":354,"accuracy":0,"outcome":"+10","keys":[1856],"total_keys":1,"block":2,"trial":237,"stimulus":11,"robot":2,"valence":"win","action":"no-go","sham":1,"trial_type":"pit-trial","trial_index":270,"time_elapsed":1246242,"internal_node_id":"0.0-245.0","task_version":"battery-v0.2-trt"},{"rune":"U","rune_set":"bacs2","hex":"#3366ff99","correct":32,"choice":32,"rt":426,"accuracy":1,"outcome":"+10","keys":[1927],"total_keys":1,"block":2,"trial":238,"stimulus":8,"robot":1,"valence":"win","action":"go","sham":0,"trial_type":"pit-trial","trial_index":271,"time_elapsed":1249379,"internal_node_id":"0.0-246.0","task_version":"battery-v0.2-trt"},{"rune":"A","rune_set":"bacs2","hex":"#f73b6a7A","correct":32,"choice":32,"rt":467,"accuracy":1,"outcome":"-10","keys":[1968],"total_keys":1,"block":2,"trial":239,"stimulus":9,"robot":3,"valence":"lose","action":"go","sham":1,"trial_type":"pit-trial","trial_index":272,"time_elapsed":1252554,"internal_node_id":"0.0-247.0","task_version":"battery-v0.2-trt"},{"rune":"F","rune_set":"bacs2","hex":"#f73b6a7A","correct":32,"choice":32,"rt":527,"accuracy":1,"outcome":"-1","keys":[2027],"total_keys":1,"block":2,"trial":240,"stimulus":10,"robot":3,"valence":"lose","action":"go","sham":0,"trial_type":"pit-trial","trial_index":273,"time_elapsed":1255790,"internal_node_id":"0.0-248.0","task_version":"battery-v0.2-trt"},{"view_history":"[{\"page_index\":0,\"viewing_time\":2810}]","rt":2811,"trial_type":"pit-instructions","trial_index":274,"time_elapsed":1258604,"internal_node_id":"0.0-249.0","task_version":"battery-v0.2-trt"},{"rt":15700,"responses":{"age":"45","gender-categorical":"Female","gender-free-response":"","ethnicity":"Not Hispanic or Latino","race":["White"],"language":"Yes","fluency":"Very well"},"survey":"demographics","trial_type":"survey-demo","trial_index":275,"time_elapsed":1274309,"internal_node_id":"0.0-250.0","task_version":"battery-v0.2-trt"},{"rt":27742,"responses":{"difficulty":"2","fun":"4","clarity":"5","strategy":"I just tried to remember the symbols","feedback":"No"},"survey":"debrief","trial_type":"survey-debrief","trial_index":276,"time_elapsed":1302055,"internal_node_id":"0.0-251.0","task_version":"battery-v0.2-trt","interactions":"[{\"event\":\"focus\",\"trial\":0,\"time\":0},{\"event\":\"blur\",\"trial\":0,\"time\":1927},{\"event\":\"focus\",\"trial\":0,\"time\":13680},{\"event\":\"blur\",\"trial\":0,\"time\":16559},{\"event\":\"focus\",\"trial\":0,\"time\":17630},{\"event\":\"blur\",\"trial\":4,\"time\":114176},{\"event\":\"focus\",\"trial\":4,\"time\":159924},{\"event\":\"blur\",\"trial\":6,\"time\":186925},{\"event\":\"focus\",\"trial\":6,\"time\":205435},{\"event\":\"blur\",\"trial\":6,\"time\":209380},{\"event\":\"focus\",\"trial\":6,\"time\":211227},{\"event\":\"blur\",\"trial\":12,\"time\":274638},{\"event\":\"focus\",\"trial\":12,\"time\":276160},{\"event\":\"blur\",\"trial\":153,\"time\":820391},{\"event\":\"focus\",\"trial\":153,\"time\":827799}]"}]